TimeStamp,Ax,Ay,Az,Gx,Gy,Gz,Mx,My,Mz,Activity
1.55421E+12,-9.44752,-0.3597288,1.5125369,-0.05006743,-0.015978966,0.029827405,8.76,45,-31.08,4
1.55421E+12,-9.500193,-0.43634325,1.5891514,-0.07456851,-0.02130529,0.034088463,8.58,44.94,-31.2,4
1.55421E+12,-9.581595,-0.39803603,1.6897079,-0.10759171,-0.03089267,0.041545313,8.58,44.94,-31.26,4
1.55421E+12,-9.634268,-0.374094,1.8477252,-0.13209279,-0.034088463,0.053263225,8.58,44.88,-31.32,4
1.55421E+12,-9.500193,-0.25917232,1.7184383,-0.14061491,-0.033023197,0.049002163,8.58,44.88,-31.38,4
1.55421E+12,-9.600749,-0.2112883,1.8908207,-0.13635385,-0.035153728,0.040480047,8.64,44.82,-31.44,4
1.55421E+12,-9.562442,-0.24001873,1.7471687,-0.13209279,-0.036218993,0.033023197,8.76,44.82,-31.38,4
1.55421E+12,-9.619903,-0.22565351,1.9243397,-0.13741912,-0.029827405,0.026631612,8.82,44.76,-31.32,4
1.55421E+12,-9.605537,-0.3645172,1.7328035,-0.14168017,-0.036218993,0.02876214,8.88,44.76,-31.26,4
1.55421E+12,-9.461885,-0.3357868,1.9913772,-0.1470065,-0.034088463,0.03089267,8.94,44.76,-31.2,4
1.55421E+12,-9.562442,-0.31184477,1.8285716,-0.15339808,-0.02876214,0.037284255,9,44.82,-31.08,4
1.55421E+12,-9.581595,-0.25917232,1.8764555,-0.17044231,-0.018109497,0.046871636,9.06,44.88,-31.08,4
1.55421E+12,-9.610326,-0.2208651,1.7328035,-0.1949434,-0.008522116,0.056459017,9.12,44.94,-31.02,4
1.55421E+12,-9.504981,-0.18255788,1.7615339,-0.22050974,0.007456851,0.05752428,9.18,45,-30.96,4
1.55421E+12,-9.5385,-0.12509704,1.809418,-0.24394555,0.020240024,0.056459017,9.18,45.06,-30.9,4
1.55421E+12,-9.591172,-0.27832595,1.6418238,-0.26312032,0.033023197,0.05539375,9.18,45.18,-30.84,4
1.55421E+12,-9.404425,-0.27353755,1.5891514,-0.27377295,0.036218993,0.05219796,9.24,45.24,-30.72,4
1.55421E+12,-9.414001,-0.3309984,1.5795746,-0.28122982,0.043675844,0.049002163,9.24,45.3,-30.6,4
1.55421E+12,-9.500193,-0.350152,1.6561891,-0.28975195,0.043675844,0.049002163,9.24,45.3,-30.54,4
1.55421E+12,-9.457097,-0.32621,1.6514006,-0.28655612,0.035153728,0.05006743,9.3,45.36,-30.42,4
1.55421E+12,-9.495404,-0.27832595,1.608305,-0.2609898,0.025566347,0.043675844,9.36,45.36,-30.3,4
1.55421E+12,-9.466674,-0.3405752,1.7136499,-0.23648871,0.010652645,0.037284255,9.42,45.42,-30.24,4
1.55421E+12,-9.504981,-0.42676646,1.7711107,-0.221575,-0.00958738,0.026631612,9.42,45.42,-30.12,4
1.55421E+12,-9.562442,-0.41240123,1.7328035,-0.21411815,-0.029827405,0.017044231,9.48,45.48,-29.94,4
1.55421E+12,-9.562442,-0.42197806,1.8189948,-0.2034655,-0.0479369,-0.001065265,9.54,45.48,-29.76,4
1.55421E+12,-9.495404,-0.44592008,1.9482816,-0.19600865,-0.058589544,-0.011717909,9.6,45.54,-29.58,4
1.55421E+12,-9.466674,-0.5129577,1.9482816,-0.16937704,-0.060720075,-0.023435818,9.6,45.54,-29.4,4
1.55421E+12,-9.591172,-0.52253455,2.0679917,-0.13848437,-0.05965481,-0.02876214,9.6,45.54,-29.16,4
1.55421E+12,-9.543288,-0.43634325,1.9195513,-0.099069595,-0.05219796,-0.02876214,9.6,45.6,-28.98,4
1.55421E+12,-9.528923,-0.43155485,1.9195513,-0.06711166,-0.043675844,-0.02130529,9.6,45.6,-28.68,4
1.55421E+12,-9.548077,-0.374094,1.8237832,-0.04580637,-0.035153728,-0.014913702,9.6,45.66,-28.5,4
1.55421E+12,-9.5385,-0.25438392,1.8477252,-0.029827405,-0.023435818,-0.010652645,9.6,45.78,-28.32,4
1.55421E+12,-9.3661175,-0.1921347,1.7902644,-0.02876214,-0.011717909,-0.014913702,9.6,45.84,-28.2,4
1.55421E+12,-9.385271,-0.14903906,1.8668787,-0.022370555,0.003195793,-0.027696876,9.66,45.9,-28.14,4
1.55421E+12,-9.337387,-0.26396075,1.7136499,-0.005326322,0.005326322,-0.041545313,9.66,45.96,-28.08,4
1.55421E+12,-9.3421755,-0.24959552,1.9482816,0.01917476,0.011717909,-0.05752428,9.66,46.02,-28.02,4
1.55421E+12,-9.279925,-0.30705637,1.9147629,0.035153728,0.012783174,-0.07137272,9.66,46.08,-27.96,4
1.55421E+12,-9.394848,-0.25438392,1.8668787,0.046871636,0.014913702,-0.082025364,9.66,46.2,-27.96,4
1.55421E+12,-9.452309,-0.3549404,1.8046296,0.05006743,0.018109497,-0.08948222,9.72,46.32,-27.96,4
1.55421E+12,-9.500193,-0.41240123,1.809418,0.05965481,0.017044231,-0.094808534,9.78,46.38,-27.96,4
1.55421E+12,-9.581595,-0.41240123,1.785476,0.0777643,0.010652645,-0.099069595,9.78,46.44,-27.96,4
1.55421E+12,-9.595961,-0.42197806,1.6418238,0.10013486,0.004261058,-0.10652645,9.78,46.44,-27.9,4
1.55421E+12,-9.643845,-0.53689975,1.929128,0.11611383,0.002130529,-0.10865697,9.78,46.44,-27.9,4
1.55421E+12,-9.595961,-0.5033809,1.7423803,0.12463594,0,-0.11611383,9.84,46.38,-27.9,4
1.55421E+12,-9.528923,-0.45549688,1.7232267,0.12783173,-0.008522116,-0.11717909,9.84,46.32,-27.9,4
1.55421E+12,-9.543288,-0.43634325,1.8189948,0.1257012,-0.010652645,-0.10759171,9.84,46.14,-27.9,4
1.55421E+12,-9.615114,-0.39803603,1.6035166,0.12783173,-0.010652645,-0.10333065,9.84,46.02,-27.9,4
1.55421E+12,-9.562442,-0.32621,1.7902644,0.12463594,-0.013848438,-0.08841695,9.84,45.96,-27.9,4
1.55421E+12,-9.615114,-0.24959552,1.6753427,0.12037488,-0.011717909,-0.07350325,9.84,45.9,-27.84,4
1.55421E+12,-9.615114,-0.20171149,1.5891514,0.11824436,-0.011717909,-0.07243799,9.72,45.96,-27.84,4
1.55421E+12,-9.495404,-0.14425065,1.7711107,0.10333065,-0.003195793,-0.07350325,9.66,46.08,-27.84,4
1.55421E+12,-9.581595,-0.12988544,1.6609775,0.083090626,0.00958738,-0.07456851,9.6,46.14,-27.9,4
1.55421E+12,-9.615114,-0.20649989,1.8764555,0.06924219,0.018109497,-0.07243799,9.54,46.2,-27.9,4
1.55421E+12,-9.572019,-0.24959552,1.6801311,0.05539375,0.02876214,-0.068176925,9.48,46.26,-27.96,4
1.55421E+12,-9.643845,-0.26396075,1.6418238,0.04580637,0.03834952,-0.05965481,9.48,46.32,-28.02,4
1.55421E+12,-9.682152,-0.26396075,1.6514006,0.036218993,0.043675844,-0.043675844,9.48,46.38,-28.02,4
1.55421E+12,-9.667787,-0.2112883,1.5556326,0.033023197,0.04474111,-0.03195793,9.54,46.32,-28.14,4
1.55421E+12,-9.773131,-0.18255788,1.5556326,0.02130529,0.041545313,-0.015978966,9.6,46.32,-28.2,4
1.55421E+12,-9.672575,-0.27353755,1.6561891,-0.004261058,0.037284255,-0.001065265,9.66,46.26,-28.26,4
1.55421E+12,-9.572019,-0.18734628,1.7184383,-0.022370555,0.03089267,0.004261058,9.72,46.2,-28.38,4
1.55421E+12,-9.591172,-0.25917232,1.7711107,-0.033023197,0.025566347,0.008522116,9.78,46.14,-28.44,4
1.55421E+12,-9.514558,-0.3597288,1.5795746,-0.027696876,0.025566347,0.007456851,9.72,46.08,-28.44,4
1.55421E+12,-9.414001,-0.27353755,1.7088615,-0.022370555,0.020240024,0.007456851,9.72,45.96,-28.5,4
1.55421E+12,-9.519346,-0.30705637,1.775899,-0.00958738,0.011717909,0.002130529,9.72,45.9,-28.56,4
1.55421E+12,-9.466674,-0.30226797,1.785476,-0.00958738,0.012783174,-0.004261058,9.72,45.9,-28.56,4
1.55421E+12,-9.452309,-0.16340427,1.7567455,-0.00958738,0.012783174,-0.014913702,9.78,45.84,-28.62,4
1.55421E+12,-9.5385,-0.24480712,1.6753427,0.001065265,0.008522116,-0.026631612,9.78,45.84,-28.62,4
1.55421E+12,-9.519346,-0.29269117,1.6178818,0.013848438,0.010652645,-0.036218993,9.84,45.78,-28.62,4
1.55421E+12,-9.5385,-0.25438392,1.7328035,0.025566347,0.008522116,-0.043675844,9.84,45.78,-28.68,4
1.55421E+12,-9.543288,-0.3788824,1.7136499,0.033023197,0.007456851,-0.0479369,9.84,45.78,-28.68,4
1.55421E+12,-9.715671,-0.3309984,1.6561891,0.040480047,-0.007456851,-0.054328486,9.9,45.72,-28.74,4
1.55421E+12,-9.672575,-0.31184477,1.7663223,0.04474111,-0.01917476,-0.053263225,9.9,45.66,-28.8,4
1.55421E+12,-9.691729,-0.38367084,1.6944963,0.0479369,-0.022370555,-0.04580637,9.84,45.6,-28.8,4
1.55421E+12,-9.725247,-0.29747957,1.775899,0.049002163,-0.029827405,-0.03195793,9.84,45.54,-28.8,4
1.55421E+12,-9.552865,-0.25917232,1.775899,0.05539375,-0.03195793,-0.014913702,9.84,45.48,-28.8,4
1.55421E+12,-9.615114,-0.2208651,1.6514006,0.06498113,-0.027696876,-0.006391587,9.84,45.48,-28.8,4
1.55421E+12,-9.500193,-0.09636662,1.857302,0.05539375,-0.022370555,-0.001065265,9.84,45.42,-28.8,4
1.55421E+12,-9.471462,-0.10594343,1.5891514,0.036218993,-0.013848438,-0.001065265,9.84,45.42,-28.8,4
1.55421E+12,-9.533711,-0.010175358,1.7615339,0.02130529,-0.006391587,-0.005326322,9.84,45.48,-28.8,4
1.55421E+12,-9.524135,-0.29747957,1.775899,0.022370555,0.007456851,-0.00958738,9.84,45.48,-28.8,4
1.55421E+12,-9.605537,-0.23044191,2.0201077,0.034088463,0.013848438,-0.012783174,9.84,45.54,-28.8,4
1.55421E+12,-9.548077,-0.26396075,1.9195513,0.056459017,0.01917476,-0.018109497,9.84,45.6,-28.74,4
1.55421E+12,-9.619903,-0.39324763,1.7711107,0.08841695,0.022370555,-0.029827405,9.84,45.6,-28.8,4
1.55421E+12,-9.457097,-0.5081693,1.7902644,0.13209279,0.020240024,-0.04261058,9.84,45.66,-28.92,4
1.55421E+12,-9.528923,-0.4890157,2.0201077,0.15978967,0.017044231,-0.049002163,9.84,45.66,-28.92,4
1.55421E+12,-9.466674,-0.46986207,1.8381484,0.19707392,0.011717909,-0.054328486,9.84,45.6,-28.98,4
1.55421E+12,-9.32781,-0.46986207,2.0488381,0.23648871,0.00958738,-0.060720075,9.78,45.54,-28.98,4
1.55421E+12,-9.442732,-0.44113165,1.8908207,0.28868666,0.010652645,-0.07243799,9.78,45.42,-28.98,4
1.55421E+12,-9.423578,-0.43155485,1.9722236,0.33662358,0.015978966,-0.08628642,9.72,45.36,-29.04,4
1.55421E+12,-9.481039,-0.5081693,1.8860323,0.39095205,0.015978966,-0.101200126,9.72,45.36,-29.1,4
1.55421E+12,-9.572019,-0.5943606,1.7806876,0.4495416,0.00958738,-0.112918034,9.66,45.3,-29.1,4
1.55421E+12,-9.557653,-0.5081693,1.7423803,0.515588,0,-0.12144015,9.66,45.24,-29.1,4
1.55421E+12,-9.619903,-0.6183026,1.7567455,0.5763081,-0.01917476,-0.12996227,9.66,45.24,-29.16,4
1.55421E+12,-9.557653,-0.6422446,1.5221137,0.62744075,-0.049002163,-0.13848437,9.66,45.18,-29.28,4
1.55421E+12,-9.581595,-0.623091,1.2156559,0.65726817,-0.084155895,-0.14594123,9.66,45.06,-29.64,4
1.55421E+12,-9.710882,-0.7380127,0.6985083,0.6402239,-0.14061491,-0.14594123,9.66,45,-29.94,4
1.55421E+12,-10.031705,-0.84335756,0.65541273,0.5603291,-0.23329292,-0.12996227,9.72,44.82,-30.3,4
1.55421E+12,-10.213664,-1.0253168,0.46387658,0.47404268,-0.3057309,-0.111852765,9.66,44.64,-30.6,4
1.55421E+12,-10.414778,-1.2838906,0.85173726,0.3717773,-0.42717105,-0.07243799,9.54,44.4,-30.96,4
1.55421E+12,-10.419566,-0.943914,1.5316905,0.44421527,-0.5209143,-0.018109497,9.42,44.16,-31.44,4
1.55421E+12,-9.763555,-0.27353755,2.5803509,0.5997439,-0.5901565,0.12250541,9.24,43.86,-31.86,4
1.55421E+12,-9.141062,0.10474633,3.0160956,0.71159667,-0.52837116,0.30679616,9.12,43.5,-32.28,4
1.55421E+12,-8.6095495,1.3210008,3.221997,0.680704,-0.40586576,0.27803403,8.94,43.08,-32.52,4
1.55421E+12,-8.556877,1.977012,3.66253,0.36645097,-0.27696875,0.21198763,8.76,42.72,-32.82,4
1.55421E+12,-8.504205,0.83258367,4.11264,0.06498113,-0.07563378,0.12357068,8.64,42.3,-33.18,4
1.55421E+12,-8.504205,0.30585927,4.174889,0.42290998,0.07669904,-0.05219796,8.52,42,-33.66,4
1.55421E+12,-8.834604,0.789488,3.5619736,0.9821738,0.21731395,-0.13635385,8.46,41.58,-34.08,4
1.55421E+12,-9.141062,1.1677719,2.6809072,1.2612731,0.30999196,-0.1736381,8.46,41.22,-34.44,4
1.55421E+12,-9.356541,1.1965023,2.3026235,1.2133362,0.34834146,-0.25353295,8.52,40.8,-34.8,4
1.55421E+12,-9.524135,0.9379285,1.8764555,1.0684602,0.35473305,-0.3270362,8.58,40.38,-35.1,4
1.55421E+12,-9.725247,0.7128736,1.6705543,0.8788432,0.3121225,-0.34194988,8.64,39.9,-35.4,4
1.55421E+12,-9.749189,0.57879823,1.2587515,0.5816344,0.2545982,-0.32170987,8.76,39.36,-35.76,4
1.55421E+12,-9.725247,0.42556936,0.96665895,0.2130529,0.1917476,-0.27696875,8.82,38.82,-36.24,4
1.55421E+12,-9.753978,0.25797522,1.2443863,-0.14487597,0.13635385,-0.23116238,8.88,38.34,-36.48,4
1.55421E+12,-9.763555,0.032920275,1.4215573,-0.3653857,0.08948222,-0.18961707,8.94,37.86,-36.72,4
1.55421E+12,-9.734824,-0.048482586,1.5652094,-0.40373522,0.0479369,-0.16192019,8.94,37.5,-36.96,4
1.55421E+12,-9.485827,-0.2160767,1.7328035,-0.27803403,0.023435818,-0.14807177,8.94,37.14,-37.14,4
1.55421E+12,-9.495404,-0.04369418,1.8189948,-0.070307456,0.003195793,-0.1470065,8.94,37.02,-37.38,4
1.55421E+12,-9.399636,0.004189853,1.7423803,0.14807177,-0.011717909,-0.15233281,8.88,37.02,-37.56,4
1.55421E+12,-9.337387,0.29628247,1.9243397,0.34940675,-0.00958738,-0.165116,8.88,37.08,-37.62,4
1.55421E+12,-9.346964,0.3681085,2.0536265,0.47830373,-0.002130529,-0.19068234,8.88,37.2,-37.56,4
1.55421E+12,-9.294291,0.31543607,2.0440497,0.5496765,0.015978966,-0.23009712,8.88,37.32,-37.5,4
1.55421E+12,-9.394848,0.43514615,1.8716671,0.53476274,0.024501082,-0.25885928,8.88,37.44,-37.5,4
1.55421E+12,-9.294291,0.32022446,1.7615339,0.4165184,0.04474111,-0.257794,8.82,37.5,-37.5,4
1.55421E+12,-9.279925,0.12868834,1.7615339,0.2695119,0.05539375,-0.2609898,8.82,37.56,-37.5,4
1.55421E+12,-9.3661175,-0.010175358,2.0201077,0.15339808,0.066046394,-0.25672874,8.82,37.56,-37.56,4
1.55421E+12,-9.471462,-0.0676362,1.9387048,0.13954964,0.06178534,-0.2396845,8.82,37.44,-37.62,4
1.55421E+12,-9.519346,-0.0676362,2.0488381,0.165116,0.049002163,-0.23116238,8.82,37.38,-37.68,4
1.55421E+12,-9.543288,0.023343466,1.9339164,0.19600865,0.02130529,-0.22903186,8.82,37.26,-37.86,4
1.55421E+12,-9.461885,-0.02932897,1.8956091,0.18748654,0.007456851,-0.23116238,8.76,37.2,-37.98,4
1.55421E+12,-9.629479,-0.0676362,2.0392613,0.14274544,-0.005326322,-0.23116238,8.76,37.08,-38.1,4
1.55421E+12,-9.509769,-0.08678981,1.8237832,0.034088463,-0.018109497,-0.19707392,8.7,36.9,-38.22,4
1.55421E+12,-9.548077,-0.15861586,2.0201077,-0.022370555,-0.017044231,-0.18429075,8.64,36.78,-38.34,4
1.55421E+12,-9.533711,-0.2160767,2.0871453,-0.068176925,0.002130529,-0.16192019,8.58,36.72,-38.4,4
1.55421E+12,-9.581595,-0.32621,2.1398177,-0.07456851,0.020240024,-0.13315806,8.52,36.72,-38.46,4
1.55421E+12,-9.581595,-0.42197806,2.1254525,-0.04474111,0.02876214,-0.10759171,8.46,36.66,-38.4,4
1.55421E+12,-9.605537,-0.25917232,2.178125,-0.020240024,0.041545313,-0.0777643,8.4,36.66,-38.4,4
1.55421E+12,-9.629479,-0.2208651,2.168548,-0.008522116,0.051132694,-0.05752428,8.4,36.6,-38.4,4
1.55421E+12,-9.677363,-0.16340427,2.0009542,-0.008522116,0.068176925,-0.039414786,8.34,36.6,-38.4,4
1.55421E+12,-9.634268,-0.15861586,2.0632033,-0.003195793,0.083090626,-0.022370555,8.28,36.6,-38.4,4
1.55421E+12,-9.619903,-0.077213004,1.977012,0.029827405,0.08522116,-0.020240024,8.28,36.6,-38.34,4
1.55421E+12,-9.682152,-0.0724246,2.0727801,0.05752428,0.07563378,-0.013848438,8.22,36.6,-38.34,4
1.55421E+12,-9.744401,-0.09636662,2.010531,0.094808534,0.054328486,0,8.16,36.6,-38.34,4
1.55421E+12,-9.734824,-0.08200141,1.881244,0.10013486,0.041545313,0.00958738,8.16,36.6,-38.4,4
1.55421E+12,-9.816227,-0.11552023,1.9722236,0.068176925,0.018109497,0.022370555,8.1,36.54,-38.4,4
1.55421E+12,-9.773131,0.037708677,1.7663223,-0.07669904,-0.014913702,0.034088463,8.04,36.48,-38.4,4
1.55421E+12,-9.811439,0.076015905,1.809418,-0.26844665,-0.033023197,0.05539375,7.98,36.42,-38.4,4
1.55421E+12,-9.706094,0.032920275,1.775899,-0.41438788,-0.041545313,0.07350325,7.92,36.42,-38.4,4
1.55421E+12,-9.768343,-0.10594343,1.8668787,-0.5997439,-0.051132694,0.08948222,7.92,36.36,-38.46,4
1.55421E+12,-9.730036,-0.2160767,1.929128,-0.67963874,-0.07563378,0.08948222,7.92,36.36,-38.4,4
1.55421E+12,-9.763555,-0.25438392,1.881244,-0.7307714,-0.09054748,0.09161274,7.92,36.36,-38.34,4
1.55421E+12,-9.619903,-0.29747957,1.929128,-0.753142,-0.112918034,0.0958738,7.98,36.48,-38.28,4
1.55421E+12,-9.639056,-0.374094,1.632247,-0.737163,-0.13635385,0.08841695,7.98,36.66,-38.04,4
1.55421E+12,-9.648633,-0.4938041,1.7471687,-0.6764429,-0.1768339,0.09054748,8.04,36.84,-37.74,4
1.55421E+12,-9.782708,-0.9247604,1.3640964,-0.531567,-0.24181503,0.1107875,8.1,37.02,-37.44,4
1.55421E+12,-10.036493,-1.2503718,1.3257892,-0.35260254,-0.3110572,0.16085494,8.16,37.26,-37.08,4
1.55421E+12,-10.0269165,-1.1737574,1.4502877,-0.257794,-0.40053943,0.24714136,8.16,37.56,-36.78,4
1.55421E+12,-9.830592,-0.6135142,1.3449428,-0.36112466,-0.4910869,0.2876214,8.16,37.86,-36.54,4
1.55421E+12,-9.677363,-0.019752163,1.536479,-0.68176925,-0.5432849,0.26418558,8.22,38.16,-36.3,4
1.55421E+12,-9.3661175,0.15263036,1.9099745,-1.051416,-0.5475459,0.2514024,8.22,38.46,-36.18,4
1.55421E+12,-9.102755,-0.12988544,2.4271219,-1.3038837,-0.5273059,0.23222765,8.22,38.76,-36.12,4
1.55421E+12,-8.90643,-0.20171149,2.9921536,-1.365669,-0.479369,0.17576863,8.16,39.3,-36.18,4
1.55421E+12,-8.590396,-0.2160767,2.9873652,-1.252751,-0.39840892,0.080960095,8.16,39.78,-36.12,4
1.55421E+12,-8.796297,-0.15861586,2.9107506,-1.0524813,-0.3323625,-0.03195793,8.1,40.26,-36,4
1.55421E+12,-8.939949,-0.25438392,2.8101943,-0.8149273,-0.27377295,-0.09054748,8.04,40.68,-35.82,4
1.55421E+12,-8.767567,-0.41240123,2.4941597,-0.60933125,-0.22264028,-0.113983296,7.98,41.1,-35.52,4
1.55421E+12,-8.839393,-0.53211135,2.3600843,-0.4825648,-0.1768339,-0.12144015,7.86,41.7,-34.98,4
1.55421E+12,-8.700529,-0.6087258,2.2260091,-0.40053943,-0.1438107,-0.0958738,7.8,42.18,-34.62,4
1.55421E+12,-8.508993,-0.6374562,2.3409307,-0.3834952,-0.12250541,-0.08522116,7.74,42.48,-34.38,4
1.55421E+12,-8.48984,-0.42197806,2.369661,-0.3568636,-0.10439592,-0.07243799,7.68,42.9,-33.9,4
1.55421E+12,-8.528147,-0.18734628,2.2164323,-0.3685815,-0.060720075,-0.07563378,7.62,43.5,-33.3,4
1.55421E+12,-8.480263,-0.15382746,2.3888147,-0.42290998,-0.051132694,-0.07350325,7.56,43.74,-33.12,4
1.55421E+12,-8.513782,-0.19692309,2.3409307,-0.51984906,-0.03089267,-0.017044231,7.5,44.1,-32.76,4
1.55421E+12,-8.37013,-0.28311434,2.5755625,-0.5997439,-0.001065265,0.08735169,7.44,44.46,-32.52,4
1.55421E+12,-8.7771435,-0.29747957,2.3983915,-0.6593987,0.060720075,0.21411815,7.32,44.94,-32.1,4
1.55421E+12,-9.097966,-0.024540568,2.0871453,-0.70200926,0.12250541,0.32277513,7.26,45.12,-31.86,4
1.55421E+12,-9.313444,0.08080431,2.1733365,-0.7488809,0.20133498,0.43249738,7.2,45.24,-31.62,4
1.55421E+12,-9.715671,0.037708677,2.082357,-0.77444726,0.28016454,0.5251754,7.14,45.36,-31.44,4
1.55421E+12,-10.13705,0.19093758,2.0679917,-0.76059884,0.36645097,0.5901565,7.14,45.54,-31.14,4
1.55421E+12,-10.414778,-0.077213004,2.144606,-0.71798825,0.42290998,0.5837649,7.2,45.72,-30.84,4
1.55421E+12,-10.783484,0.05686229,2.1254525,-0.63383234,0.50173956,0.48469532,7.32,46.02,-30.36,4
1.55421E+12,-10.989386,-0.16340427,1.9961656,-0.5954828,0.5432849,0.3174488,7.56,46.2,-29.82,4
1.55421E+12,-10.783484,-0.29747957,1.9147629,-0.644485,0.5475459,0.13528858,7.8,46.44,-29.16,4
1.55421E+12,-10.884041,-0.38367084,1.8285716,-0.6593987,0.49002165,0.026631612,8.1,46.68,-28.62,4
1.55421E+12,-10.477027,-0.7906851,2.1110873,-0.53263223,0.3323625,-0.098004326,8.4,46.8,-28.02,4
1.55421E+12,-10.19451,-0.95349085,2.154183,-0.38775626,0.22264028,-0.20026971,8.76,46.98,-27.48,4
1.55421E+12,-9.792285,-1.0013748,2.1733365,-0.12676647,0.099069595,-0.3153183,9.12,47.1,-27,4
1.55421E+12,-9.500193,-1.0061632,2.2691047,0.1555286,0.020240024,-0.35792887,9.42,47.28,-26.58,4
1.55421E+12,-9.222465,-0.83378077,2.0296845,0.4101268,-0.015978966,-0.33449304,9.54,47.4,-26.28,4
1.55421E+12,-9.030929,-0.6135142,1.6609775,0.60080916,-0.027696876,-0.28336033,9.72,47.52,-26.04,4
1.55421E+12,-9.121908,-0.4938041,1.6897079,0.71479243,-0.033023197,-0.23009712,9.78,47.64,-25.92,4
1.55421E+12,-9.428367,-0.3788824,1.7232267,0.76485986,-0.033023197,-0.1768339,9.84,47.7,-25.8,4
1.55421E+12,-9.514558,-0.4985925,1.5412674,0.7755125,-0.029827405,-0.14487597,9.84,47.82,-25.68,4
1.55421E+12,-9.562442,-0.43155485,1.5221137,0.72011876,-0.007456851,-0.07882957,9.84,47.88,-25.68,4
1.55421E+12,-9.313444,-0.43155485,1.5652094,0.6178534,0.02130529,0.007456851,9.84,47.88,-25.68,4
1.55421E+12,-9.198523,-0.38367084,1.6514006,0.45593318,0.06924219,0.09267801,9.84,47.88,-25.8,4
1.55421E+12,-8.954314,-0.27353755,1.6178818,0.257794,0.112918034,0.1555286,9.78,47.82,-26.04,4
1.55421E+12,-8.925584,-0.12509704,1.4742297,0.0628506,0.15233281,0.20453078,9.78,47.76,-26.4,4
1.55421E+12,-8.872911,0.037708677,1.3449428,-0.13741912,0.16405073,0.2695119,9.78,47.7,-26.76,4
1.55421E+12,-8.930372,-0.2112883,1.4024036,-0.257794,0.18216023,0.30786142,9.84,47.52,-27.24,4
1.55421E+12,-8.882488,-0.41240123,1.5891514,-0.25885928,0.18855181,0.29507825,9.84,47.34,-27.6,4
1.55421E+12,-9.074024,-0.55126494,1.4981717,-0.046871636,0.16405073,0.23009712,9.84,47.16,-27.96,4
1.55421E+12,-9.251195,-0.54647654,1.6418238,0.27057716,0.13741912,0.15339808,9.84,46.92,-28.26,4
1.55421E+12,-9.610326,-0.14425065,1.560421,0.6178534,0.09054748,0.08628642,9.84,46.74,-28.38,4
1.55421E+12,-10.199299,-0.024540568,1.5221137,0.86179894,0.05219796,0.006391587,9.9,46.5,-28.5,4
1.55421E+12,-10.429143,-0.16340427,1.3449428,0.9576728,-0.024501082,-0.0628506,10.02,46.32,-28.5,4
1.55421E+12,-10.764331,0.16220717,1.5412674,0.85327685,-0.09374327,-0.07989483,10.08,46.02,-28.44,4
1.55421E+12,-10.625467,0.3250129,1.5173253,0.6018744,-0.18322548,-0.08522116,10.2,45.72,-28.38,4
1.55421E+12,-10.472239,0.46387658,1.5747862,0.40053943,-0.24181503,-0.15126756,10.26,45.6,-28.32,4
1.55421E+12,-10.079589,0.12389994,1.584363,0.21411815,-0.24927188,-0.21198763,10.38,45.36,-28.38,4
1.55421E+12,-9.825804,-0.15861586,1.311424,-0.023435818,-0.26312032,-0.15765914,10.44,45.06,-28.62,4
1.55421E+12,-9.490616,-0.4842273,1.7423803,-0.36112466,-0.2396845,-0.05006743,10.44,44.76,-28.86,4
1.55421E+12,-9.279925,-0.5129577,1.977012,-0.6199839,-0.20985709,0.026631612,10.38,44.46,-29.1,4
1.55421E+12,-8.882488,-0.43155485,2.1350293,-0.6785734,-0.1768339,0.060720075,10.32,44.28,-29.34,4
1.55421E+12,-9.097966,-0.7188591,2.1158757,-0.5187838,-0.16405073,0.07563378,10.2,44.04,-29.58,4
1.55421E+12,-9.078813,-0.7092823,2.2260091,-0.32170987,-0.16937704,0.16618125,10.14,43.86,-29.76,4
1.55421E+12,-8.825027,-0.5081693,2.345719,0.12144015,-0.17470337,0.16298546,10.08,43.74,-29.94,4
1.55421E+12,-8.494628,0.24361002,2.5420437,0.6135923,-0.15765914,0.03195793,9.96,43.68,-30,4
1.55421E+12,-8.159439,0.40641573,2.178125,0.77125144,-0.099069595,-0.037284255,9.9,43.68,-30,4
1.55421E+12,-8.441956,0.4830302,2.2212207,0.5656554,-0.010652645,0.027696876,9.84,43.74,-30,4
1.55421E+12,-9.002198,0.219668,1.8046296,0.12676647,0.053263225,0.10333065,9.84,43.68,-30,4
1.55421E+12,-9.744401,0.9331401,2.747945,-0.30146983,0.10546118,0.12250541,9.84,43.62,-29.94,4
1.55421E+12,-9.816227,1.4646529,3.221997,-0.3387541,0.1768339,0.05752428,9.78,43.56,-30,4
1.55421E+12,-9.883265,1.7136499,2.8532898,-0.14594123,0.27696875,-0.04580637,9.78,43.38,-30.06,4
1.55421E+12,-9.993398,1.3976152,2.0871453,0.013848438,0.31957933,-0.11930962,9.84,43.2,-30.12,4
1.55421E+12,-9.92636,0.8996213,1.3018472,0.025566347,0.28975195,-0.16085494,9.9,43.02,-30.18,4
1.55421E+12,-9.950302,0.46866497,0.9187749,-0.08735169,0.2066613,-0.16192019,9.96,42.9,-30.3,4
1.55421E+12,-10.084377,0.24839842,0.88046765,-0.20240025,0.12250541,-0.111852765,10.02,42.84,-30.36,4
1.55421E+12,-9.921572,0.023343466,1.1246762,-0.19068234,0.043675844,-0.060720075,10.08,42.84,-30.42,4
1.55421E+12,-9.768343,0.013766659,1.4742297,0.015978966,-0.023435818,-0.02876214,10.14,42.9,-30.48,4
1.55421E+12,-9.581595,0.12389994,1.4024036,0.15446335,-0.05006743,-0.012783174,10.2,43.02,-30.36,4
1.55421E+12,-9.3182335,0.23403321,1.7040731,0.2790993,-0.07243799,0.005326322,10.32,43.14,-30.24,4
1.55421E+12,-9.246407,0.52133745,1.7088615,0.30146983,-0.07563378,0.01917476,10.38,43.32,-30.12,4
1.55421E+12,-9.179369,0.6075287,1.7711107,0.2545982,-0.07137272,0.011717909,10.38,43.38,-29.94,4
1.55421E+12,-9.093178,0.75596917,1.7950528,0.16937704,-0.05006743,-0.024501082,10.44,43.5,-29.82,4
1.55421E+12,-9.193734,0.76554596,1.8477252,0.099069595,-0.010652645,-0.07243799,10.5,43.56,-29.64,4
1.55421E+12,-9.399636,0.6362591,1.7375919,0.018109497,0.03089267,-0.11504856,10.56,43.56,-29.52,4
1.55421E+12,-9.624691,0.43035775,1.5508442,-0.05006743,0.05006743,-0.13422333,10.56,43.5,-29.46,4
1.55421E+12,-9.677363,0.15263036,1.8189948,-0.10333065,0.051132694,-0.13422333,10.62,43.44,-29.52,4
1.55421E+12,-9.998186,-0.12509704,1.8764555,-0.10759171,0.046871636,-0.11717909,10.62,43.38,-29.52,4
1.55421E+12,-9.998186,-0.3309984,1.7375919,-0.05752428,0.040480047,-0.082025364,10.56,43.32,-29.58,4
1.55421E+12,-9.89763,-0.24001873,1.881244,0.004261058,0.039414786,-0.04580637,10.56,43.32,-29.58,4
1.55421E+12,-9.868899,-0.23044191,1.857302,0.06178534,0.036218993,-0.020240024,10.56,43.32,-29.58,4
1.55421E+12,-9.710882,-0.00059855,1.7902644,0.07563378,0.033023197,-0.008522116,10.5,43.32,-29.58,4
1.55421E+12,-9.672575,0.20051439,1.7615339,0.033023197,0.02130529,-0.002130529,10.44,43.38,-29.58,4
1.55421E+12,-9.672575,0.20530279,1.5556326,-0.024501082,0.006391587,-0.011717909,10.44,43.44,-29.64,4
1.55421E+12,-9.653421,0.30107087,1.6370354,-0.07350325,-0.02130529,-0.04261058,10.44,43.56,-29.7,4
1.55421E+12,-9.519346,0.31064767,1.6178818,-0.09054748,-0.05752428,-0.07137272,10.38,43.62,-29.82,4
1.55421E+12,-9.5385,0.2148796,1.608305,-0.10439592,-0.08948222,-0.08948222,10.38,43.68,-29.88,4
1.55421E+12,-9.485827,0.11911154,1.7423803,-0.10439592,-0.10865697,-0.10333065,10.38,43.74,-29.94,4
1.55421E+12,-9.423578,0.018555064,1.6944963,-0.080960095,-0.11504856,-0.10333065,10.44,43.8,-30,4
1.55421E+12,-9.361329,-0.0724246,2.0440497,-0.034088463,-0.10972224,-0.096939065,10.44,43.8,-30.06,4
1.55421E+12,-9.370906,-0.11552023,2.1350293,0.04261058,-0.08628642,-0.09054748,10.44,43.86,-30.12,4
1.55421E+12,-9.3661175,0.004189853,2.034473,0.09374327,-0.049002163,-0.08735169,10.44,43.86,-30.18,4
1.55421E+12,-9.543288,0.076015905,1.8716671,0.09161274,-0.00958738,-0.07243799,10.44,43.86,-30.18,4
1.55421E+12,-9.557653,0.04249708,1.7328035,0.040480047,0.012783174,-0.05965481,10.44,43.74,-30.18,4
1.55421E+12,-9.600749,0.08559271,1.83336,0,0.02130529,-0.0479369,10.44,43.74,-30.18,4
1.55421E+12,-9.533711,-0.0676362,1.8956091,-0.01917476,0.024501082,-0.027696876,10.44,43.68,-30.18,4
1.55421E+12,-9.524135,0.008978256,1.9099745,0.014913702,0.034088463,-0.012783174,10.44,43.68,-30.18,4
1.55421E+12,-9.437943,0.13826515,1.7806876,0.101200126,0.0479369,0.003195793,10.44,43.56,-30.24,4
1.55421E+12,-9.361329,0.27234045,1.857302,0.15659387,0.0628506,0.012783174,10.44,43.5,-30.24,4
1.55421E+12,-9.437943,0.20051439,1.6944963,0.16192019,0.07563378,0.018109497,10.5,43.5,-30.24,4
1.55421E+12,-9.533711,0.23403321,1.4742297,0.14274544,0.082025364,0.033023197,10.5,43.5,-30.24,4
1.55421E+12,-9.519346,0.18614918,1.536479,0.12144015,0.083090626,0.040480047,10.5,43.56,-30.24,4
1.55421E+12,-9.509769,0.18136078,1.6514006,0.12783173,0.06711166,0.036218993,10.5,43.56,-30.3,4
1.55421E+12,-9.533711,0.18136078,1.5795746,0.14274544,0.05539375,0.026631612,10.56,43.62,-30.3,4
1.55421E+12,-9.528923,0.18136078,1.785476,0.15978967,0.04474111,0.012783174,10.56,43.62,-30.3,4
1.55421E+12,-9.490616,0.023343466,1.929128,0.20240025,0.05006743,-0.005326322,10.56,43.62,-30.36,4
1.55421E+12,-9.433155,-0.019752163,2.0919337,0.24714136,0.07669904,-0.017044231,10.56,43.62,-30.36,4
1.55421E+12,-9.332599,-0.05805939,2.1733365,0.32490566,0.10972224,-0.029827405,10.56,43.56,-30.42,4
1.55421E+12,-9.466674,-0.02932897,2.0248961,0.42184472,0.15233281,-0.02876214,10.56,43.5,-30.48,4
1.55421E+12,-9.514558,0.0664391,1.83336,0.4612595,0.17470337,-0.02130529,10.56,43.38,-30.54,4
1.55421E+12,-9.519346,0.19572599,1.6657659,0.46552056,0.18535602,-0.004261058,10.56,43.32,-30.54,4
1.55421E+12,-9.643845,0.53570265,1.4311341,0.38242993,0.18429075,0.005326322,10.62,43.2,-30.6,4
1.55421E+12,-9.629479,0.7990648,1.4646529,0.28655612,0.18322548,0.02130529,10.62,43.02,-30.66,4
1.55421E+12,-9.586384,0.75118077,1.2731167,0.19387813,0.17044231,0.004261058,10.62,42.72,-30.72,4
1.55421E+12,-9.720459,0.7751228,1.2108675,0.10333065,0.15659387,-0.05219796,10.68,42.48,-30.84,4
1.55421E+12,-9.701305,0.6937199,1.0720038,0.03089267,0.13422333,-0.080960095,10.74,42.24,-30.9,4
1.55421E+12,-9.825804,0.54527944,0.9235633,-0.017044231,0.112918034,-0.098004326,10.74,42,-31.02,4
1.55421E+12,-9.744401,0.46866497,0.8086416,-0.043675844,0.09054748,-0.11504856,10.8,41.82,-31.08,4
1.55421E+12,-9.706094,0.43993455,0.88046765,-0.0628506,0.056459017,-0.12996227,10.86,41.58,-31.14,4
1.55421E+12,-9.701305,0.29149407,1.0480618,-0.08735169,0.020240024,-0.13741912,10.92,41.4,-31.2,4
1.55421E+12,-9.691729,0.28670564,1.1534066,-0.09267801,-0.010652645,-0.14594123,10.98,41.28,-31.26,4
1.55421E+12,-9.634268,-0.00059855,1.2156559,-0.066046394,-0.03834952,-0.15233281,10.98,41.28,-31.32,4
1.55421E+12,-9.619903,0.10474633,1.3449428,-0.025566347,-0.053263225,-0.15446335,11.04,41.28,-31.32,4
1.55421E+12,-9.605537,0.047285482,1.5173253,0.004261058,-0.058589544,-0.15233281,11.04,41.28,-31.32,4
1.55421E+12,-9.591172,0.076015905,1.7040731,0.020240024,-0.05539375,-0.14487597,11.04,41.28,-31.32,4
1.55421E+12,-9.619903,0.047285482,1.4550761,0.03089267,-0.054328486,-0.13848437,11.1,41.34,-31.32,4
1.55421E+12,-9.662998,0.19572599,1.5699978,0.03195793,-0.051132694,-0.13209279,11.1,41.4,-31.32,4
1.55421E+12,-9.65821,0.25318682,1.7136499,0.04474111,-0.023435818,-0.11930962,11.1,41.46,-31.32,4
1.55421E+12,-9.619903,0.3824737,1.7232267,0.09374327,0.010652645,-0.11717909,11.1,41.58,-31.32,4
1.55421E+12,-9.739613,0.28670564,1.7184383,0.12357068,0.049002163,-0.11611383,11.1,41.64,-31.32,4
1.55421E+12,-9.730036,0.13826515,1.6130934,0.11611383,0.08628642,-0.10013486,11.1,41.82,-31.32,4
1.55421E+12,-9.835381,0.095169514,1.3497312,0.083090626,0.10226539,-0.07137272,11.04,42,-31.38,4
1.55421E+12,-9.859323,0.023343466,1.3545196,0.03195793,0.10759171,-0.04474111,10.98,42.12,-31.38,4
1.55421E+12,-9.821015,0.16220717,1.0576386,-0.037284255,0.094808534,-0.003195793,10.92,42.3,-31.38,4
1.55421E+12,-9.749189,0.26755205,1.1198878,-0.066046394,0.07243799,0.01917476,10.86,42.42,-31.38,4
1.55421E+12,-9.701305,0.3633201,1.0432734,-0.066046394,0.040480047,0.023435818,10.8,42.42,-31.44,4
1.55421E+12,-9.533711,0.3585317,1.0193313,-0.054328486,0.00958738,0.014913702,10.8,42.48,-31.44,4
1.55421E+12,-9.533711,0.40162733,0.9044097,-0.040480047,-0.010652645,0.005326322,10.8,42.54,-31.5,4
1.55421E+12,-9.557653,0.3681085,1.0672154,-0.03834952,-0.03834952,-0.007456851,10.8,42.48,-31.5,4
1.55421E+12,-9.600749,0.24839842,0.97144735,-0.0479369,-0.056459017,-0.017044231,10.86,42.48,-31.5,4
1.55421E+12,-9.605537,0.19572599,1.2779051,-0.05539375,-0.06498113,-0.033023197,10.86,42.48,-31.44,4
1.55421E+12,-9.528923,0.19572599,1.335366,-0.066046394,-0.06178534,-0.04261058,10.92,42.48,-31.26,4
1.55421E+12,-9.68694,-0.048482586,1.4167689,-0.06711166,-0.06178534,-0.040480047,10.98,42.42,-31.14,4
1.55421E+12,-9.830592,0.12868834,1.4263457,-0.03834952,-0.060720075,-0.03089267,11.04,42.42,-31.02,4
1.55421E+12,-9.643845,0.20051439,1.407192,-0.005326322,-0.05752428,-0.023435818,11.04,42.42,-30.9,4
1.55421E+12,-9.691729,0.18614918,1.4790181,0,-0.054328486,-0.020240024,11.04,42.36,-30.78,4
1.55421E+12,-9.65821,0.22924481,1.4359225,0.004261058,-0.05006743,-0.02130529,11.04,42.36,-30.66,4
1.55421E+12,-9.643845,0.24361002,1.4790181,0.007456851,-0.043675844,-0.029827405,10.98,42.36,-30.54,4
1.55421E+12,-9.56723,0.30107087,1.3305776,0.020240024,-0.037284255,-0.03195793,10.98,42.3,-30.54,4
1.55421E+12,-9.600749,0.29149407,1.1725603,0.01917476,-0.04474111,-0.029827405,10.92,42.3,-30.6,4
1.55421E+12,-9.552865,0.3681085,1.287482,-0.014913702,-0.051132694,-0.033023197,10.86,42.24,-30.6,4
1.55421E+12,-9.5385,0.3633201,1.4598645,-0.08841695,-0.053263225,-0.034088463,10.86,42.24,-30.6,4
1.55421E+12,-9.562442,0.30107087,1.4359225,-0.12037488,-0.0479369,-0.033023197,10.86,42.18,-30.6,4
1.55421E+12,-9.615114,0.3298013,1.38325,-0.128897,-0.04261058,-0.03089267,10.92,42.18,-30.66,4
1.55421E+12,-9.643845,0.16220717,1.3162124,-0.10439592,-0.04580637,-0.01917476,10.92,42.18,-30.72,4
1.55421E+12,-9.706094,0.15741876,1.4550761,-0.07137272,-0.046871636,-0.02130529,10.92,42.18,-30.78,4
1.55421E+12,-9.744401,0.25797522,1.536479,-0.054328486,-0.058589544,-0.02876214,10.98,42.18,-30.78,4
1.55421E+12,-9.758766,0.28670564,1.3736732,-0.05752428,-0.060720075,-0.03089267,11.04,42.24,-30.78,4
1.55421E+12,-9.758766,0.19572599,1.5125369,-0.068176925,-0.066046394,-0.036218993,11.04,42.3,-30.84,4
1.55421E+12,-9.65821,0.14784196,1.6418238,-0.060720075,-0.06391586,-0.039414786,11.04,42.42,-30.84,4
1.55421E+12,-9.677363,0.061650693,1.6705543,-0.036218993,-0.058589544,-0.040480047,10.98,42.6,-30.84,4
1.55421E+12,-9.701305,0.19572599,1.6370354,-0.004261058,-0.054328486,-0.036218993,10.98,42.72,-30.84,4
1.55421E+12,-9.519346,0.19572599,1.7088615,0.00958738,-0.05006743,-0.036218993,10.92,42.84,-30.84,4
1.55421E+12,-9.519346,0.23882163,1.7232267,0.012783174,-0.03089267,-0.040480047,10.86,42.9,-30.9,4
1.55421E+12,-9.500193,0.26755205,1.6370354,-0.012783174,-0.02130529,-0.04580637,10.8,43.02,-30.9,4
1.55421E+12,-9.481039,0.30107087,1.6274586,-0.04580637,0,-0.043675844,10.74,43.02,-30.96,4
1.55421E+12,-9.466674,0.26276365,1.4502877,-0.053263225,0.00958738,-0.0479369,10.74,43.02,-31.08,4
1.55421E+12,-9.528923,0.29149407,1.407192,-0.049002163,0.014913702,-0.04580637,10.74,43.02,-31.2,4
1.55421E+12,-9.562442,0.26755205,1.3784616,-0.04261058,0.008522116,-0.04580637,10.74,42.96,-31.32,4
1.55421E+12,-9.576807,0.23882163,1.3976152,-0.040480047,0.005326322,-0.04261058,10.74,42.9,-31.38,4
1.55421E+12,-9.5385,0.24839842,1.3976152,-0.036218993,0.001065265,-0.04261058,10.74,42.9,-31.44,4
1.55421E+12,-9.548077,0.18614918,1.4885949,-0.04261058,0.001065265,-0.037284255,10.8,42.9,-31.44,4
1.55421E+12,-9.619903,0.14784196,1.3880384,-0.0479369,0.003195793,-0.033023197,10.86,42.84,-31.5,4
1.55421E+12,-9.720459,0.10474633,1.3976152,-0.05006743,-0.005326322,-0.036218993,10.92,42.84,-31.5,4
1.55421E+12,-9.730036,0.29149407,1.4790181,-0.03834952,-0.017044231,-0.03089267,10.98,42.78,-31.44,4
1.55421E+12,-9.653421,0.29628247,1.4646529,-0.02876214,-0.023435818,-0.017044231,10.98,42.78,-31.32,4
1.55421E+12,-9.701305,0.32022446,1.632247,-0.03195793,-0.025566347,-0.011717909,10.98,42.84,-31.2,4
1.55421E+12,-9.68694,0.30107087,1.6178818,-0.040480047,-0.033023197,-0.014913702,10.98,42.84,-31.08,4
1.55421E+12,-9.725247,0.30107087,1.6178818,-0.049002163,-0.036218993,-0.023435818,10.92,42.84,-31.02,4
1.55421E+12,-9.581595,0.29628247,1.5747862,-0.06178534,-0.035153728,-0.034088463,10.92,42.84,-30.96,4
1.55421E+12,-9.619903,0.26755205,1.7136499,-0.08628642,-0.036218993,-0.043675844,10.92,42.84,-30.84,4
1.55421E+12,-9.572019,0.09995792,1.5652094,-0.10865697,-0.034088463,-0.0479369,10.86,42.84,-30.78,4
1.55421E+12,-9.56723,0.12389994,1.5795746,-0.11824436,-0.04261058,-0.05219796,10.92,42.84,-30.72,4
1.55421E+12,-9.591172,0.18614918,1.6035166,-0.12250541,-0.04261058,-0.054328486,10.86,42.78,-30.72,4
1.55421E+12,-9.5385,0.13826515,1.4311341,-0.13209279,-0.04474111,-0.05006743,10.8,42.72,-30.72,4
1.55421E+12,-9.495404,0.0712275,1.5077485,-0.13741912,-0.04580637,-0.04580637,10.8,42.66,-30.72,4
1.55421E+12,-9.490616,0.11432313,1.5173253,-0.13528858,-0.040480047,-0.041545313,10.74,42.66,-30.72,4
1.55421E+12,-9.562442,0.08559271,1.5939398,-0.13528858,-0.037284255,-0.027696876,10.68,42.6,-30.66,4
1.55421E+12,-9.519346,0.10474633,1.5508442,-0.12676647,-0.039414786,-0.014913702,10.68,42.6,-30.66,4
1.55421E+12,-9.56723,0.19572599,1.5891514,-0.11504856,-0.041545313,-0.014913702,10.62,42.6,-30.66,4
1.55421E+12,-9.591172,0.11911154,1.6035166,-0.101200126,-0.03834952,-0.013848438,10.56,42.66,-30.66,4
1.55421E+12,-9.557653,0.15741876,1.6130934,-0.082025364,-0.03195793,-0.014913702,10.5,42.72,-30.66,4
1.55421E+12,-9.500193,0.13347675,1.5699978,-0.066046394,-0.025566347,-0.017044231,10.5,42.84,-30.6,4
1.55421E+12,-9.509769,0.17178397,1.4311341,-0.053263225,-0.015978966,-0.018109497,10.44,42.9,-30.6,4
1.55421E+12,-9.619903,0.2148796,1.6753427,-0.04261058,-0.012783174,-0.020240024,10.44,43.02,-30.54,4
1.55421E+12,-9.643845,0.10474633,1.5508442,-0.033023197,-0.011717909,-0.014913702,10.38,43.08,-30.42,4
1.55421E+12,-9.610326,0.09995792,1.608305,-0.029827405,-0.012783174,-0.00958738,10.32,43.14,-30.36,4
1.55421E+12,-9.548077,0.19093758,1.6609775,-0.024501082,-0.017044231,-0.00958738,10.32,43.2,-30.24,4
1.55421E+12,-9.548077,0.14784196,1.7040731,-0.020240024,-0.01917476,-0.005326322,10.32,43.2,-30.18,4
1.55421E+12,-9.653421,0.23403321,1.7184383,-0.011717909,-0.02130529,0.002130529,10.32,43.2,-30.18,4
1.55421E+12,-9.600749,0.14784196,1.5556326,-0.001065265,-0.020240024,-0.002130529,10.32,43.2,-30.12,4
1.55421E+12,-9.56723,0.24361002,1.809418,-0.001065265,-0.01917476,-0.002130529,10.38,43.2,-30.12,4
1.55421E+12,-9.586384,0.2148796,1.6418238,-0.004261058,-0.008522116,-0.004261058,10.38,43.26,-30.12,4
1.55421E+12,-9.68694,0.19093758,1.6897079,-0.001065265,-0.002130529,-0.018109497,10.44,43.26,-30.18,4
1.55421E+12,-9.610326,0.15741876,1.6753427,0.006391587,0,-0.015978966,10.5,43.32,-30.18,4
1.55421E+12,-9.619903,0.17178397,1.7088615,0.005326322,-0.007456851,-0.005326322,10.56,43.38,-30.24,4
1.55421E+12,-9.581595,0.3250129,1.5795746,0.001065265,-0.003195793,-0.007456851,10.56,43.44,-30.24,4
1.55421E+12,-9.562442,0.19093758,1.7040731,0.008522116,-0.005326322,-0.00958738,10.62,43.5,-30.24,4
1.55421E+12,-9.433155,0.31543607,1.8956091,0.013848438,-0.002130529,-0.010652645,10.62,43.5,-30.24,4
1.55421E+12,-9.514558,0.3824737,1.6753427,0.024501082,-0.001065265,-0.010652645,10.68,43.5,-30.24,4
1.55421E+12,-9.562442,0.3633201,1.6609775,0.02876214,0.003195793,-0.015978966,10.68,43.44,-30.24,4
1.55421E+12,-9.514558,0.3298013,1.6897079,0.036218993,0.008522116,-0.01917476,10.74,43.38,-30.24,4
1.55421E+12,-9.495404,0.27712885,1.6944963,0.034088463,0.007456851,-0.03089267,10.8,43.32,-30.18,4
1.55421E+12,-9.509769,0.3585317,1.6753427,0.029827405,0.018109497,-0.04261058,10.8,43.26,-30.24,4
1.55421E+12,-9.557653,0.27234045,1.6944963,0.022370555,0.027696876,-0.046871636,10.8,43.26,-30.36,4
1.55421E+12,-9.471462,0.29628247,1.5125369,0.02876214,0.03089267,-0.05219796,10.86,43.2,-30.42,4
1.55421E+12,-9.500193,0.23403321,1.5508442,0.035153728,0.029827405,-0.06391586,10.86,43.26,-30.54,4
1.55421E+12,-9.466674,0.2100912,1.6897079,0.035153728,0.025566347,-0.066046394,10.86,43.26,-30.6,4
1.55421E+12,-9.576807,0.19093758,1.6178818,0.029827405,0.01917476,-0.06711166,10.86,43.38,-30.66,4
1.55421E+12,-9.495404,0.24839842,1.4359225,0.022370555,0.008522116,-0.06498113,10.86,43.38,-30.78,4
1.55421E+12,-9.648633,0.3537433,1.5173253,0.022370555,0,-0.06178534,10.86,43.44,-30.78,4
1.55421E+12,-9.624691,0.31064767,1.5699978,0.01917476,-0.008522116,-0.053263225,10.86,43.44,-30.66,4
1.55421E+12,-9.557653,0.3298013,1.6370354,0.00958738,-0.01917476,-0.0479369,10.8,43.44,-30.6,4
1.55421E+12,-9.634268,0.3441665,1.6561891,0.00958738,-0.023435818,-0.043675844,10.8,43.44,-30.54,4
1.55421E+12,-9.619903,0.3585317,1.7136499,0.008522116,-0.025566347,-0.039414786,10.8,43.38,-30.42,4
1.55421E+12,-9.706094,0.31064767,1.7184383,0.005326322,-0.03089267,-0.034088463,10.74,43.38,-30.36,4
1.55421E+12,-9.677363,0.3824737,1.6178818,0.003195793,-0.037284255,-0.03195793,10.74,43.32,-30.3,4
1.55421E+12,-9.710882,0.20051439,1.7375919,0.008522116,-0.036218993,-0.03089267,10.74,43.26,-30.24,4
1.55421E+12,-9.595961,0.19572599,1.5939398,0.013848438,-0.037284255,-0.027696876,10.68,43.2,-30.24,4
1.55421E+12,-9.600749,0.28670564,1.6657659,0.029827405,-0.036218993,-0.03195793,10.68,43.2,-30.18,4
1.55421E+12,-9.509769,0.17657238,1.560421,0.05752428,-0.04580637,-0.040480047,10.68,43.2,-30.18,4
1.55421E+12,-9.514558,0.17657238,1.785476,0.098004326,-0.0479369,-0.053263225,10.68,43.2,-30.18,4
1.55421E+12,-9.476251,0.24839842,1.5652094,0.16405073,-0.04474111,-0.05752428,10.68,43.2,-30.12,4
1.55421E+12,-9.519346,0.095169514,1.8381484,0.23542345,-0.040480047,-0.05965481,10.68,43.2,-30.12,4
1.55421E+12,-9.442732,0.26755205,1.7280151,0.2545982,-0.03089267,-0.066046394,10.74,43.2,-30.06,4
1.55421E+12,-9.500193,0.3776853,1.7280151,0.21092236,-0.020240024,-0.056459017,10.8,43.2,-30.06,4
1.55421E+12,-9.476251,0.3681085,1.5125369,0.11824436,-0.010652645,-0.039414786,10.8,43.2,-30.06,4
1.55421E+12,-9.528923,0.46387658,1.7184383,0.022370555,-0.008522116,-0.03089267,10.86,43.2,-30.06,4
1.55421E+12,-9.619903,0.38726214,1.7567455,-0.005326322,-0.006391587,-0.024501082,10.86,43.14,-30.06,4
1.55421E+12,-9.519346,0.3298013,1.7088615,0.023435818,-0.006391587,-0.015978966,10.92,43.14,-30.06,4
1.55421E+12,-9.624691,0.38726214,1.6418238,0.04474111,-0.00958738,-0.00958738,10.98,43.08,-30.12,4
1.55421E+12,-9.533711,0.46387658,1.5891514,0.025566347,-0.006391587,-0.006391587,10.98,43.08,-30.18,4
1.55421E+12,-9.548077,0.52133745,1.4502877,-0.015978966,-0.015978966,-0.005326322,10.98,43.02,-30.24,4
1.55421E+12,-9.56723,0.42078096,1.5747862,-0.05006743,-0.01917476,-0.008522116,10.98,42.96,-30.3,4
1.55421E+12,-9.624691,0.3298013,1.6753427,-0.058589544,-0.01917476,-0.013848438,10.98,42.9,-30.36,4
1.55421E+12,-9.643845,0.3250129,1.632247,-0.05752428,-0.02130529,-0.018109497,10.98,42.84,-30.36,4
1.55421E+12,-9.643845,0.27712885,1.584363,-0.053263225,-0.01917476,-0.023435818,10.98,42.78,-30.42,4
1.55421E+12,-9.543288,0.29149407,1.584363,-0.049002163,-0.015978966,-0.03195793,11.04,42.72,-30.42,4
1.55421E+12,-9.624691,0.24361002,1.7567455,-0.04580637,-0.020240024,-0.040480047,11.04,42.6,-30.48,4
1.55421E+12,-9.619903,0.22924481,1.6514006,-0.0479369,-0.02130529,-0.041545313,11.04,42.54,-30.48,4
1.55421E+12,-9.562442,0.19572599,1.7136499,-0.043675844,-0.022370555,-0.043675844,11.04,42.54,-30.42,4
1.55421E+12,-9.572019,0.15741876,1.6705543,-0.029827405,-0.022370555,-0.04474111,11.04,42.54,-30.42,4
1.55421E+12,-9.543288,0.20530279,1.7615339,-0.014913702,-0.018109497,-0.040480047,11.04,42.6,-30.42,4
1.55421E+12,-9.519346,0.30107087,1.7423803,-0.006391587,-0.023435818,-0.03834952,11.04,42.66,-30.42,4
1.55421E+12,-9.471462,0.25318682,1.6514006,-0.006391587,-0.01917476,-0.03834952,11.04,42.72,-30.48,4
1.55421E+12,-9.591172,0.31064767,1.6609775,-0.010652645,-0.015978966,-0.040480047,11.04,42.84,-30.48,4
1.55421E+12,-9.605537,0.31543607,1.8046296,-0.00958738,-0.013848438,-0.039414786,10.98,42.96,-30.54,4
1.55421E+12,-9.581595,0.26276365,1.6944963,-0.005326322,-0.005326322,-0.03834952,10.92,43.02,-30.6,4
1.55421E+12,-9.519346,0.23403321,1.7280151,0.004261058,-0.001065265,-0.03834952,10.86,43.08,-30.66,4
1.55421E+12,-9.629479,0.30107087,1.7088615,0.002130529,0.005326322,-0.03834952,10.8,43.08,-30.72,4
1.55421E+12,-9.595961,0.2148796,1.5029601,-0.001065265,0.005326322,-0.040480047,10.8,43.08,-30.78,4
1.55421E+12,-9.452309,0.24839842,1.6178818,0.003195793,0.008522116,-0.041545313,10.8,43.08,-30.78,4
1.55421E+12,-9.576807,0.28670564,1.6130934,0.022370555,0.010652645,-0.040480047,10.8,43.02,-30.78,4
1.55421E+12,-9.543288,0.30107087,1.7184383,0.037284255,0.014913702,-0.041545313,10.86,42.96,-30.84,4
1.55421E+12,-9.509769,0.23403321,1.7567455,0.060720075,0.011717909,-0.04474111,10.92,42.9,-30.84,4
1.55421E+12,-9.586384,0.26755205,1.7232267,0.06498113,0.01917476,-0.043675844,10.92,42.9,-30.84,4
1.55421E+12,-9.572019,0.25318682,1.6514006,0.06178534,0.024501082,-0.053263225,10.92,42.84,-30.9,4
1.55421E+12,-9.639056,0.26755205,1.5221137,0.07350325,0.020240024,-0.056459017,10.92,42.78,-30.96,4
1.55421E+12,-9.552865,0.32022446,1.6849195,0.09054748,0.018109497,-0.053263225,10.92,42.72,-31.02,4
1.55421E+12,-9.557653,0.29149407,1.584363,0.08628642,0.013848438,-0.05219796,10.86,42.6,-31.08,4
1.55421E+12,-9.615114,0.24839842,1.5891514,0.07882957,0.00958738,-0.05006743,10.8,42.54,-31.14,4
1.55421E+12,-9.591172,0.30585927,1.6561891,0.070307456,0.008522116,-0.046871636,10.74,42.42,-31.2,4
1.55421E+12,-9.485827,0.32022446,1.6418238,0.06498113,0.004261058,-0.046871636,10.68,42.36,-31.26,4
1.55421E+12,-9.576807,0.3441665,1.6657659,0.058589544,0.004261058,-0.04580637,10.62,42.3,-31.32,4
1.55421E+12,-9.639056,0.3298013,1.5699978,0.04474111,0.002130529,-0.04261058,10.62,42.24,-31.38,4
1.55421E+12,-9.634268,0.31543607,1.6514006,0.039414786,-0.002130529,-0.043675844,10.62,42.24,-31.38,4
1.55421E+12,-9.619903,0.3537433,1.6226702,0.029827405,-0.004261058,-0.04474111,10.62,42.24,-31.38,4
1.55421E+12,-9.643845,0.30107087,1.7232267,0.018109497,-0.006391587,-0.043675844,10.62,42.24,-31.38,4
1.55421E+12,-9.5385,0.41120413,1.6418238,0.014913702,-0.010652645,-0.043675844,10.62,42.24,-31.32,4
1.55421E+12,-9.543288,0.492607,1.6657659,0.020240024,-0.010652645,-0.05219796,10.62,42.24,-31.26,4
1.55421E+12,-9.672575,0.44472298,1.4742297,0.011717909,-0.007456851,-0.053263225,10.68,42.3,-31.2,4
1.55421E+12,-9.591172,0.42556936,1.5652094,-0.010652645,-0.011717909,-0.0479369,10.68,42.3,-31.14,4
1.55421E+12,-9.581595,0.3537433,1.7950528,-0.023435818,-0.013848438,-0.040480047,10.62,42.36,-31.08,4
1.55421E+12,-9.634268,0.3250129,1.6897079,-0.011717909,-0.018109497,-0.040480047,10.62,42.36,-31.2,4
1.55421E+12,-9.595961,0.29628247,1.7423803,0.001065265,-0.02130529,-0.03834952,10.62,42.36,-31.32,4
1.55421E+12,-9.481039,0.39683893,1.6897079,0,-0.022370555,-0.037284255,10.68,42.36,-31.44,4
1.55421E+12,-9.610326,0.40641573,1.6178818,-0.007456851,-0.017044231,-0.037284255,10.74,42.42,-31.56,4
1.55421E+12,-9.519346,0.42556936,1.7136499,-0.012783174,-0.006391587,-0.040480047,10.74,42.42,-31.74,4
1.55421E+12,-9.442732,0.39683893,1.7040731,-0.014913702,-0.002130529,-0.041545313,10.8,42.42,-31.74,4
1.55421E+12,-9.543288,0.3250129,1.6705543,-0.011717909,0,-0.046871636,10.86,42.36,-31.8,4
1.55421E+12,-9.543288,0.42078096,1.7040731,-0.012783174,0.006391587,-0.051132694,10.92,42.42,-31.74,4
1.55421E+12,-9.509769,0.30107087,1.6226702,-0.018109497,0.010652645,-0.053263225,10.98,42.42,-31.62,4
1.55421E+12,-9.548077,0.24839842,1.608305,-0.023435818,0.004261058,-0.05219796,10.98,42.42,-31.44,4
1.55421E+12,-9.572019,0.23882163,1.7328035,-0.033023197,0.006391587,-0.053263225,11.04,42.42,-31.32,4
1.55421E+12,-9.56723,0.3441665,1.5556326,-0.04261058,0.00958738,-0.054328486,11.04,42.42,-31.2,4
1.55421E+12,-9.528923,0.3489549,1.8429368,-0.046871636,0.007456851,-0.049002163,11.04,42.42,-31.08,4
1.55421E+12,-9.552865,0.3585317,1.584363,-0.043675844,0.005326322,-0.051132694,11.04,42.48,-31.08,4
1.55421E+12,-9.648633,0.3537433,1.785476,-0.041545313,0.011717909,-0.051132694,11.04,42.48,-31.08,4
1.55421E+12,-9.562442,0.3393781,1.6418238,-0.043675844,0.010652645,-0.0479369,11.04,42.48,-31.08,4
1.55421E+12,-9.595961,0.20530279,1.7280151,-0.04474111,0.010652645,-0.054328486,11.04,42.48,-31.08,4
1.55421E+12,-9.68694,0.219668,1.8429368,-0.046871636,0.002130529,-0.056459017,11.04,42.48,-31.14,4
1.55421E+12,-9.619903,0.30107087,1.6609775,-0.034088463,-0.003195793,-0.051132694,10.92,42.48,-31.08,4
1.55421E+12,-9.572019,0.31064767,1.632247,-0.03195793,-0.011717909,-0.0479369,10.92,42.48,-31.08,4
1.55421E+12,-9.591172,0.3393781,1.6801311,-0.036218993,-0.014913702,-0.05006743,10.86,42.54,-30.96,4
1.55421E+12,-9.519346,0.30585927,1.7375919,-0.03834952,-0.018109497,-0.054328486,10.8,42.48,-30.84,4
1.55421E+12,-9.485827,0.29149407,1.7711107,-0.035153728,-0.010652645,-0.06498113,10.8,42.48,-30.78,4
1.55421E+12,-9.562442,0.29628247,1.6370354,-0.029827405,-0.006391587,-0.066046394,10.8,42.48,-30.66,4
1.55421E+12,-9.476251,0.15741876,1.6801311,-0.024501082,0.005326322,-0.0628506,10.8,42.54,-30.6,4
1.55421E+12,-9.504981,0.17657238,1.6514006,-0.014913702,0.011717909,-0.06498113,10.8,42.6,-30.6,4
1.55421E+12,-9.495404,0.15741876,1.7328035,-0.006391587,0.013848438,-0.06498113,10.8,42.66,-30.6,4
1.55421E+12,-9.500193,0.14305355,1.7088615,-0.003195793,0.022370555,-0.06178534,10.86,42.66,-30.66,4
1.55421E+12,-9.452309,0.219668,1.6130934,-0.001065265,0.024501082,-0.05965481,10.86,42.72,-30.84,4
1.55421E+12,-9.433155,0.219668,1.6657659,0.012783174,0.020240024,-0.060720075,10.92,42.72,-30.96,4
1.55421E+12,-9.504981,0.20051439,1.6657659,0.026631612,0.024501082,-0.06178534,10.86,42.78,-31.08,4
1.55421E+12,-9.519346,0.25318682,1.6130934,0.026631612,0.017044231,-0.06391586,10.86,42.78,-31.14,4
1.55421E+12,-9.605537,0.26755205,1.6753427,0.017044231,0.013848438,-0.0628506,10.8,42.78,-31.2,4
1.55421E+12,-9.581595,0.22924481,1.7040731,0.007456851,0.011717909,-0.06498113,10.8,42.72,-31.2,4
1.55421E+12,-9.586384,0.22924481,1.6130934,0.003195793,0.005326322,-0.06711166,10.8,42.78,-31.2,4
1.55421E+12,-9.552865,0.29149407,1.6849195,0.001065265,0.005326322,-0.068176925,10.8,42.78,-31.14,4
1.55421E+12,-9.543288,0.3250129,1.6035166,-0.002130529,0.006391587,-0.07137272,10.74,42.78,-31.08,4
1.55421E+12,-9.576807,0.24839842,1.6178818,0,0.010652645,-0.07456851,10.74,42.78,-31.02,4
1.55421E+12,-9.524135,0.14305355,1.5699978,-0.004261058,0.013848438,-0.0777643,10.74,42.78,-30.96,4
1.55421E+12,-9.691729,0.24839842,1.6561891,-0.017044231,0.00958738,-0.07243799,10.68,42.78,-30.9,4
1.55421E+12,-9.562442,0.15263036,1.5747862,-0.014913702,0.006391587,-0.05752428,10.68,42.78,-30.9,4
1.55421E+12,-9.639056,0.25318682,1.584363,-0.011717909,-0.001065265,-0.05006743,10.68,42.78,-30.96,4
1.55421E+12,-9.619903,0.19572599,1.5556326,-0.00958738,-0.003195793,-0.041545313,10.62,42.78,-30.96,4
1.55421E+12,-9.595961,0.18614918,1.5221137,-0.013848438,-0.010652645,-0.03089267,10.62,42.78,-30.96,4
1.55421E+12,-9.725247,0.16220717,1.5221137,-0.025566347,-0.01917476,-0.023435818,10.62,42.78,-31.02,4
1.55421E+12,-9.763555,0.23882163,1.5221137,-0.034088463,-0.023435818,-0.014913702,10.62,42.78,-31.02,4
1.55421E+12,-9.840169,0.26276365,1.5316905,-0.037284255,-0.03089267,-0.006391587,10.68,42.78,-31.02,4
1.55421E+12,-9.792285,0.19093758,1.608305,-0.03089267,-0.035153728,-0.002130529,10.68,42.84,-31.02,4
1.55421E+12,-9.830592,0.20051439,1.6849195,-0.034088463,-0.04580637,0.001065265,10.68,42.84,-31.02,4
1.55421E+12,-9.753978,0.2148796,1.4885949,-0.036218993,-0.041545313,0.003195793,10.68,42.9,-31.02,4
1.55421E+12,-9.763555,0.22924481,1.6561891,-0.04261058,-0.037284255,-0.004261058,10.68,42.96,-31.02,4
1.55421E+12,-9.77792,0.24361002,1.6035166,-0.037284255,-0.040480047,-0.003195793,10.68,43.02,-30.96,4
1.55421E+12,-9.610326,0.23403321,1.7040731,-0.035153728,-0.043675844,0.003195793,10.62,43.08,-30.96,4
1.55421E+12,-9.562442,0.29628247,1.6801311,-0.039414786,-0.0479369,-0.001065265,10.62,43.14,-30.9,4
1.55421E+12,-9.500193,0.219668,1.809418,-0.04261058,-0.041545313,-0.002130529,10.68,43.14,-30.9,4
1.55421E+12,-9.428367,0.27234045,1.6609775,-0.04580637,-0.035153728,-0.003195793,10.74,43.14,-30.84,4
1.55421E+12,-9.433155,0.2100912,1.6561891,-0.05539375,-0.029827405,-0.001065265,10.8,43.14,-30.84,4
1.55421E+12,-9.461885,0.25318682,1.7423803,-0.053263225,-0.023435818,-0.001065265,10.8,43.08,-30.84,4
1.55421E+12,-9.466674,0.16220717,1.5795746,-0.040480047,-0.018109497,-0.006391587,10.8,43.08,-30.84,4
1.55421E+12,-9.476251,0.2100912,1.4742297,-0.046871636,-0.017044231,-0.007456851,10.8,43.02,-30.84,4
1.55421E+12,-9.56723,0.18614918,1.7184383,-0.051132694,-0.014913702,-0.005326322,10.8,43.02,-30.84,4
1.55421E+12,-9.557653,0.15263036,1.6801311,-0.06498113,-0.005326322,-0.003195793,10.8,42.96,-30.84,4
1.55421E+12,-9.552865,0.219668,1.5747862,-0.07669904,-0.002130529,-0.001065265,10.68,42.96,-30.9,4
1.55421E+12,-9.619903,0.219668,1.5077485,-0.09374327,-0.003195793,0.006391587,10.62,42.96,-30.9,4
1.55421E+12,-9.830592,0.25797522,1.4550761,-0.12144015,-0.00958738,0.014913702,10.56,43.02,-30.9,4
1.55421E+12,-9.89763,0.25318682,1.3210008,-0.16298546,-0.011717909,0.034088463,10.56,43.02,-30.84,4
1.55421E+12,-10.108319,0.23882163,1.3640964,-0.1949434,-0.013848438,0.049002163,10.56,43.08,-30.78,4
1.55421E+12,-10.184934,0.30107087,1.3162124,-0.28122982,-0.024501082,0.07563378,10.56,43.14,-30.66,4
1.55421E+12,-9.945514,0.20051439,1.3880384,-0.42077947,-0.0479369,0.10865697,10.56,43.26,-30.6,4
1.55421E+12,-9.653421,0.23882163,1.7088615,-0.48363006,-0.03089267,0.12996227,10.56,43.32,-30.54,4
1.55421E+12,-9.481039,0.5021838,2.1254525,-0.4676511,-0.025566347,0.14168017,10.62,43.44,-30.42,4
1.55421E+12,-9.572019,0.741604,2.3026235,-0.38242993,-0.005326322,0.14061491,10.68,43.5,-30.36,4
1.55421E+12,-9.552865,0.8182184,2.1493945,-0.34194988,0.004261058,0.128897,10.68,43.56,-30.3,4
1.55421E+12,-9.595961,0.8086416,2.1877017,-0.39947417,-0.007456851,0.12357068,10.74,43.62,-30.18,4
1.55421E+12,-9.878476,0.717662,2.010531,-0.44208476,-0.015978966,0.13315806,10.8,43.68,-30.12,4
1.55421E+12,-10.184934,0.54049104,1.9387048,-0.46019423,-0.0479369,0.12357068,10.86,43.68,-29.88,4
1.55421E+12,-10.141838,0.41599256,2.1254525,-0.4825648,-0.12250541,0.10652645,10.92,43.74,-29.64,4
1.55421E+12,-9.763555,0.3585317,2.331354,-0.4708469,-0.14913702,0.10652645,10.92,43.68,-29.34,4
1.55421E+12,-9.902418,0.3681085,2.355296,-0.39095205,-0.12996227,0.12357068,10.98,43.68,-29.1,4
1.55421E+12,-10.007763,0.47345337,2.0727801,-0.2908172,-0.12783173,0.1555286,11.04,43.68,-28.8,4
1.55421E+12,-9.591172,0.5835867,1.7328035,-0.25672874,-0.1587244,0.16724652,11.1,43.68,-28.56,4
1.55421E+12,-9.672575,0.6937199,1.5316905,-0.3153183,-0.19068234,0.16298546,11.22,43.68,-28.38,4
1.55421E+12,-10.0748005,0.75596917,1.7280151,-0.41225734,-0.25566345,0.16831179,11.34,43.74,-28.2,4
1.55421E+12,-9.835381,0.5931635,2.130241,-0.4101268,-0.330232,0.15339808,11.4,43.8,-28.08,4
1.55421E+12,-9.801862,0.57879823,2.1110873,-0.29614353,-0.37710363,0.14487597,11.52,43.92,-28.02,4
1.55421E+12,-9.921572,0.55006784,2.0201077,-0.13954964,-0.39947417,0.2130529,11.58,44.04,-27.96,4
1.55421E+12,-9.557653,0.66020113,1.8285716,-0.06391586,-0.4250405,0.2790993,11.64,44.1,-27.9,4
1.55421E+12,-9.481039,0.82779527,1.8237832,-0.08948222,-0.43782368,0.28975195,11.64,44.22,-27.78,4
1.55421E+12,-9.514558,1.0336965,2.0153193,-0.17257284,-0.4282363,0.30253512,11.64,44.28,-27.72,4
1.55421E+12,-9.385271,1.158195,2.3169887,-0.23435818,-0.3717773,0.34514567,11.64,44.34,-27.66,4
1.55421E+12,-8.930372,1.1725603,2.40318,-0.25566345,-0.28975195,0.38029942,11.64,44.34,-27.6,4
1.55421E+12,-8.839393,1.3497312,2.2403743,-0.28442562,-0.18855181,0.39521313,11.64,44.28,-27.54,4
1.55421E+12,-8.983045,1.4598645,2.2307975,-0.33129725,-0.11611383,0.4111921,11.64,44.22,-27.54,4
1.55421E+12,-9.993398,1.6178818,2.5516205,-0.40586576,-0.07669904,0.43249738,11.64,44.16,-27.6,4
1.55421E+12,-10.927136,0.86131406,2.5372553,-0.43569317,-0.22796659,0.55074173,11.7,44.1,-27.6,4
1.55421E+12,-6.5457473,0.76554596,2.321777,-0.5187838,-0.38242993,0.4857606,11.76,43.92,-27.6,4
1.55421E+12,-8.815451,1.1486182,3.164536,-0.40373522,-0.21944448,0.3110572,11.82,43.74,-27.66,4
1.55421E+12,-9.504981,1.0289081,3.0974984,-0.34940675,-0.20133498,0.34088463,11.82,43.62,-27.66,4
1.55421E+12,-8.274361,1.5077485,3.3225534,-0.21092236,-0.23222765,0.40906155,11.94,43.32,-27.66,4
1.55421E+12,-8.389283,1.8716671,3.3704374,-0.112918034,-0.21198763,0.36218992,12.06,43.14,-27.66,4
1.55421E+12,-8.379706,2.168548,3.2028434,-0.06924219,-0.18429075,0.35473305,12.24,42.9,-27.6,4
1.55421E+12,-8.394072,2.0296845,3.0496144,-0.0958738,-0.13635385,0.28655612,12.42,42.72,-27.48,4
1.55421E+12,-8.422802,1.6753427,2.973,-0.17789917,-0.012783174,0.13102753,12.66,42.6,-27.42,4
1.55421E+12,-8.331821,1.2012907,2.8341362,-0.20772657,0.1736381,-0.027696876,12.78,42.54,-27.3,4
1.55421E+12,-8.197746,0.57879823,2.417545,-0.2034655,0.30999196,-0.11824436,12.96,42.54,-27.24,4
1.55421E+12,-7.867347,0.04249708,1.8620903,-0.20240025,0.50173956,-0.2130529,13.14,42.48,-27.12,4
1.55421E+12,-7.7811556,-0.3357868,1.608305,-0.19813919,0.67218184,-0.29294774,13.26,42.54,-27,4
1.55421E+12,-7.7667904,-0.20649989,1.5316905,-0.1587244,0.80533993,-0.39840892,13.38,42.6,-26.82,4
1.55421E+12,-7.905654,0.04249708,1.6801311,-0.12357068,0.8330368,-0.46978164,13.38,42.66,-26.76,4
1.55421E+12,-10.5440645,0.8182184,2.843713,-0.022370555,0.6988135,-0.5550028,13.44,42.72,-26.64,4
1.55421E+12,-10.6158905,1.1007342,2.9586349,0.08841695,0.38775626,-0.5305017,13.5,42.78,-26.46,4
1.55421E+12,-7.8625584,1.0097545,3.0879216,0.25246766,0.096939065,-0.46978164,13.5,42.84,-26.22,4
1.55421E+12,-8.63828,0.82779527,3.4183214,0.27377295,0.08628642,-0.60933125,13.56,42.96,-25.98,4
1.55421E+12,-9.246407,0.8230068,3.5523968,0.257794,0.0628506,-0.8127968,13.62,43.02,-25.86,4
1.55421E+12,-9.093178,0.9235633,2.8101943,0.27696875,0.0958738,-0.8032094,13.62,43.2,-25.44,4
1.55421E+12,-9.758766,0.87567925,2.369661,0.3121225,0.11611383,-0.6562029,13.5,43.38,-25.2,4
1.55421E+12,-10.6398325,1.0528502,2.178125,0.34088463,0.12463594,-0.5134575,13.44,43.5,-25.14,4
1.55421E+12,-10.831368,1.3401544,1.5029601,0.32810146,0.101200126,-0.17896444,13.32,43.92,-24.84,4
1.55421E+12,-10.132261,1.6370354,1.4598645,0.27803403,0.099069595,0.041545313,13.2,44.04,-24.78,4
1.55421E+12,-9.720459,2.0775685,1.2587515,0.17257284,0.07456851,0.2759035,12.96,44.46,-24.84,4
1.55421E+12,-8.810662,2.235586,1.0480618,-0.008522116,0.041545313,0.2790993,12.78,44.7,-25.02,4
1.55421E+12,-9.414001,1.977012,1.3257892,-0.36964676,-0.022370555,0.083090626,12.6,44.82,-25.08,4
1.55421E+12,-9.844957,1.2348095,1.6657659,-0.664725,-0.068176925,-0.008522116,12.42,44.76,-25.2,4
1.55421E+12,-9.41879,0.75118077,2.1637597,-0.8127968,-0.094808534,-0.068176925,12.36,44.58,-25.32,4
1.55421E+12,-8.863335,0.15741876,3.116652,-0.8447547,-0.07882957,-0.11824436,12.3,44.4,-25.44,4
1.55421E+12,-9.222465,0.023343466,3.341707,-0.716923,0.013848438,-0.128897,12.24,44.22,-25.5,4
1.55421E+12,-9.998186,0.032920275,3.0065188,-0.5603291,0.14168017,-0.06924219,12.12,44.22,-25.44,4
1.55421E+12,-9.696517,0.40162733,2.6282349,-0.48363006,0.23116238,-0.00958738,12.12,44.34,-25.2,4
1.55421E+12,-9.581595,0.66498953,2.0488381,-0.5123922,0.26844665,-0.006391587,12.06,44.46,-24.84,4
1.55421E+12,-9.677363,0.8086416,1.7711107,-0.63383234,0.25672874,-0.017044231,12,44.64,-24.42,4
1.55421E+12,-9.461885,0.8230068,1.6178818,-0.7307714,0.21837921,-0.041545313,12,45.06,-24,4
1.55421E+12,-9.284714,0.83258367,1.5699978,-0.7307714,0.16405073,-0.09267801,12,45.48,-23.58,4
1.55421E+12,-9.246407,0.88525605,1.6226702,-0.6860303,0.14807177,-0.13422333,12,45.84,-23.04,4
1.55421E+12,-9.232041,0.8948329,1.5029601,-0.56672066,0.13315806,-0.22796659,12,46.26,-22.5,4
1.55421E+12,-9.437943,0.87089086,1.4598645,-0.5230448,0.13102753,-0.29507825,12,46.56,-21.96,4
1.55421E+12,-9.811439,0.66498953,1.5795746,-0.5400891,0.099069595,-0.34301516,12.06,46.86,-21.42,4
1.55421E+12,-10.175357,0.27712885,1.5747862,-0.567786,0.002130529,-0.35792887,12.06,47.16,-21,4
1.55421E+12,-10.204087,-0.26396075,1.9578584,-0.5368933,-0.11504856,-0.33662358,12.06,47.52,-20.64,4
1.55421E+12,-10.084377,-0.65182143,2.460641,-0.39521313,-0.1768339,-0.27803403,12.12,47.88,-20.28,4
1.55421E+12,-10.371682,-0.55126494,2.460641,-0.16085494,-0.14807177,-0.1587244,12.12,48.18,-19.92,4
1.55421E+12,-10.060435,-0.42197806,2.154183,0.046871636,-0.07456851,-0.03089267,12.12,48.54,-19.56,4
1.55421E+12,-9.849746,-0.14903906,1.7232267,0.12037488,0.013848438,0.043675844,12.06,48.84,-19.32,4
1.55421E+12,-9.615114,0.08080431,1.3210008,0.035153728,0.111852765,0.10652645,11.94,49.08,-19.14,4
1.55421E+12,-9.279925,0.14305355,1.0049661,-0.08735169,0.16405073,0.13209279,11.82,49.2,-18.96,4
1.55421E+12,-9.112331,0.27234045,0.75596917,-0.22796659,0.16831179,0.12144015,11.7,49.32,-18.78,4
1.55421E+12,-9.222465,0.44472298,0.9091981,-0.37071204,0.12676647,0.111852765,11.58,49.32,-18.66,4
1.55421E+12,-9.227253,0.5117606,1.1917139,-0.4676511,0.066046394,0.084155895,11.52,49.32,-18.48,4
1.55421E+12,-9.437943,0.5883751,1.4838065,-0.48469532,0.013848438,0.033023197,11.46,49.38,-18.36,4
1.55421E+12,-9.581595,0.3537433,1.6657659,-0.45699844,-0.017044231,-0.005326322,11.4,49.32,-18.36,4
1.55421E+12,-9.811439,0.30107087,1.881244,-0.4282363,-0.018109497,-0.033023197,11.46,49.26,-18.36,4
1.55421E+12,-9.710882,0.19093758,2.010531,-0.40373522,-0.01917476,-0.049002163,11.46,49.2,-18.3,4
1.55421E+12,-9.68694,0.090381116,2.0967221,-0.36645097,-0.020240024,-0.051132694,11.46,49.14,-18.12,4
1.55421E+12,-9.576807,0.076015905,2.2451627,-0.34408042,-0.02876214,-0.024501082,11.52,49.14,-17.88,4
1.55421E+12,-9.524135,-0.04369418,1.9339164,-0.32597092,-0.03089267,0.010652645,11.52,49.14,-17.58,4
1.55421E+12,-9.610326,-0.038905777,1.9626468,-0.3153183,-0.01917476,0.03089267,11.52,49.2,-17.28,4
1.55421E+12,-9.576807,-0.12509704,1.8285716,-0.30999196,0,0.04580637,11.46,49.2,-16.92,4
1.55421E+12,-9.591172,-0.110731825,1.6897079,-0.2972088,0.04474111,0.06711166,11.46,49.32,-16.44,4
1.55421E+12,-9.715671,-0.11552023,1.7806876,-0.2876214,0.07456851,0.0777643,11.46,49.32,-16.32,4
1.55421E+12,-10.46745,-0.23044191,1.2300211,-0.27483824,0.13954964,0.08841695,11.52,49.38,-15.9,4
1.55421E+12,-11.271901,-0.27832595,1.2779051,-0.29188246,0.19707392,0.10333065,11.52,49.44,-15.84,4
1.55421E+12,-11.3964,-0.42197806,1.2539631,-0.29614353,0.23009712,0.13209279,11.52,49.38,-15.78,4
1.55421E+12,-10.960655,-0.599149,1.6418238,-0.23861924,0.21731395,0.16937704,11.64,49.32,-15.78,4
1.55421E+12,-10.151415,-0.5847838,1.8237832,-0.060720075,0.165116,0.1917476,11.64,49.14,-15.78,4
1.55421E+12,-9.557653,-0.45070848,2.0871453,0.221575,0.11504856,0.1917476,11.7,48.96,-15.72,4
1.55421E+12,-8.992621,-0.39803603,1.9195513,0.49534798,0.06711166,0.16085494,11.76,48.78,-15.72,4
1.55421E+12,-8.485051,-0.39803603,1.6418238,0.7041398,0.00958738,0.094808534,11.82,48.66,-15.66,4
1.55421E+12,-8.1881695,-0.39803603,1.4502877,0.8127968,-0.041545313,0.02876214,11.88,48.48,-15.66,4
1.55421E+12,-7.9870567,-0.3549404,1.1486182,0.7957525,-0.10013486,-0.022370555,12.06,48.36,-15.6,4
1.55421E+12,-8.197746,-0.22565351,1.134253,0.7275756,-0.112918034,-0.037284255,12.36,48.24,-15.54,4
1.55421E+12,-8.508993,-0.0724246,0.88046765,0.5613944,-0.12357068,-0.05219796,12.6,48.18,-15.54,4
1.55421E+12,-8.767567,0.17657238,0.9283517,0.4282363,-0.11611383,-0.06498113,12.84,48.12,-15.54,4
1.55421E+12,-8.916007,0.3537433,0.99538934,0.32277513,-0.11717909,-0.049002163,13.02,48.18,-15.54,4
1.55421E+12,-9.02614,0.45908818,1.110311,0.26738137,-0.10546118,-0.020240024,13.2,48.12,-15.66,4
1.55421E+12,-8.935161,0.46387658,1.2587515,0.26205507,-0.09161274,-0.008522116,13.38,48.12,-15.84,4
1.55421E+12,-8.887277,0.47345337,1.4359225,0.30040458,-0.06178534,-0.010652645,13.5,48.12,-16.02,4
1.55421E+12,-9.203311,0.41120413,1.5412674,0.3653857,-0.033023197,-0.024501082,13.5,48.06,-16.32,4
1.55421E+12,-9.437943,0.30585927,1.6130934,0.4048005,-0.037284255,-0.013848438,13.44,48.06,-16.62,4
1.55421E+12,-9.801862,0.14305355,1.83336,0.42290998,-0.05965481,-0.005326322,13.44,48,-16.86,4
1.55421E+12,-10.232818,0.11432313,1.929128,0.40586576,-0.096939065,0.005326322,13.38,47.94,-17.22,4
1.55421E+12,-10.572795,0.04249708,1.8716671,0.36325517,-0.1587244,0.013848438,13.32,47.88,-17.52,4
1.55421E+12,-10.740389,0.17178397,2.202067,0.30679616,-0.20985709,-0.012783174,13.26,47.82,-17.82,4
1.55421E+12,-10.79785,0.11911154,2.594716,0.26205507,-0.2396845,-0.06391586,13.2,47.76,-18.12,4
1.55421E+12,-10.654198,0.14305355,2.8389246,0.25566345,-0.24927188,-0.11930962,13.08,47.76,-18.36,4
1.55421E+12,-10.448297,0.22924481,3.0113072,0.2759035,-0.2247708,-0.17576863,13.02,47.7,-18.66,4
1.55421E+12,-10.223241,0.29628247,3.0974984,0.30466563,-0.17896444,-0.22050974,12.96,47.64,-18.96,4
1.55421E+12,-9.988609,0.17657238,2.9059622,0.32277513,-0.12676647,-0.23861924,12.9,47.58,-19.26,4
1.55421E+12,-9.782708,0.18136078,2.6042929,0.33129725,-0.080960095,-0.23009712,12.84,47.58,-19.56,4
1.55421E+12,-9.404425,0.090381116,2.3361423,0.35579833,-0.05752428,-0.21198763,12.78,47.52,-19.86,4
1.55421E+12,-9.203311,0.12389994,2.3744495,0.4250405,-0.020240024,-0.18535602,12.78,47.52,-20.16,4
1.55421E+12,-8.815451,0.14784196,2.2451627,0.515588,0.02130529,-0.15339808,12.72,47.46,-20.46,4
1.55421E+12,-8.580819,0.18136078,2.2164323,0.6199839,0.07456851,-0.13954964,12.72,47.4,-20.64,4
1.55421E+12,-8.451532,0.2100912,1.8716671,0.69987875,0.113983296,-0.13741912,12.66,47.4,-20.82,4
1.55421E+12,-8.523358,0.3728969,1.584363,0.7052051,0.12783173,-0.1438107,12.6,47.46,-20.88,4
1.55421E+12,-8.6095495,0.3585317,1.3066356,0.64341974,0.10759171,-0.1587244,12.54,47.46,-21.06,4
1.55421E+12,-8.896853,0.4878186,1.1246762,0.53476274,0.05539375,-0.18002969,12.48,47.46,-21.24,4
1.55421E+12,-9.011775,0.43035775,1.4407109,0.4463458,0.010652645,-0.19281286,12.42,47.46,-21.42,4
1.55421E+12,-9.203311,0.30107087,1.5173253,0.3568636,-0.05006743,-0.18322548,12.36,47.46,-21.72,4
1.55421E+12,-9.519346,0.25797522,1.8142064,0.30786142,-0.10546118,-0.14487597,12.24,47.4,-22.08,4
1.55421E+12,-9.662998,0.3776853,1.8764555,0.29614353,-0.12037488,-0.10333065,12.18,47.4,-22.38,4
1.55421E+12,-9.892841,0.3728969,1.9818004,0.31318775,-0.12037488,-0.06924219,12.12,47.4,-22.68,4
1.55421E+12,-9.89763,0.5117606,2.0201077,0.32810146,-0.0958738,-0.037284255,12.12,47.4,-23.1,4
1.55421E+12,-9.92636,0.43514615,1.785476,0.30253512,-0.06498113,-0.00958738,12.06,47.34,-23.4,4
1.55421E+12,-9.993398,0.3728969,1.9865888,0.2428803,-0.040480047,0.012783174,12,47.28,-23.64,4
1.55421E+12,-9.950302,0.3728969,1.8956091,0.16937704,-0.033023197,0.025566347,12,47.22,-23.82,4
1.55421E+12,-10.060435,0.3824737,1.8142064,0.07882957,-0.05539375,0.037284255,11.94,47.04,-23.94,4
1.55421E+12,-10.1226845,0.24839842,2.0871453,0.002130529,-0.08841695,0.056459017,11.94,46.86,-24.06,4
1.55421E+12,-9.787497,0.08080431,2.2403743,-0.013848438,-0.12676647,0.07669904,11.94,46.62,-24.24,4
1.55421E+12,-9.495404,0.25318682,2.355296,0.022370555,-0.13422333,0.06924219,11.94,46.44,-24.48,4
1.55421E+12,-9.375694,0.17657238,2.3600843,0.09054748,-0.10652645,0.034088463,11.88,46.26,-24.66,4
1.55421E+12,-9.14585,0.16220717,2.4797945,0.16724652,-0.06391586,-0.026631612,11.88,46.02,-24.78,4
1.55421E+12,-9.141062,0.30107087,2.235586,0.22903186,-0.034088463,-0.083090626,11.94,45.9,-24.9,4
1.55421E+12,-9.203311,0.3250129,2.1158757,0.2428803,-0.014913702,-0.12463594,11.94,45.78,-25.02,4
1.55421E+12,-9.155427,0.40641573,2.0392613,0.20879184,-0.017044231,-0.15659387,11.94,45.78,-25.14,4
1.55421E+12,-9.3661175,0.43035775,1.9482816,0.1438107,-0.03195793,-0.16937704,11.94,45.78,-25.26,4
1.55421E+12,-9.428367,0.45908818,2.010531,0.06711166,-0.036218993,-0.16724652,11.94,45.78,-25.38,4
1.55421E+12,-9.485827,0.4878186,1.9722236,0.034088463,-0.03089267,-0.16192019,12,45.84,-25.5,4
1.55421E+12,-9.476251,0.53570265,1.9195513,-0.001065265,-0.008522116,-0.14913702,12,45.84,-25.62,4
1.55421E+12,-9.524135,0.6075287,1.9578584,-0.01917476,0.003195793,-0.13209279,12,45.84,-25.74,4
1.55421E+12,-9.390059,0.6362591,2.0871453,-0.041545313,0.012783174,-0.09054748,11.94,45.9,-25.8,4
1.55421E+12,-9.279925,0.7128736,2.010531,-0.06178534,0.03834952,-0.033023197,11.94,45.9,-25.92,4
1.55421E+12,-9.313444,0.5979519,2.0919337,-0.06391586,0.06391586,-0.001065265,11.88,45.9,-25.98,4
1.55421E+12,-9.3182335,0.6362591,1.9865888,-0.06391586,0.08948222,0.002130529,11.88,45.9,-25.98,4
1.55421E+12,-9.500193,0.5883751,1.881244,-0.07137272,0.101200126,-0.013848438,11.82,45.9,-25.98,4
1.55421E+12,-9.543288,0.57879823,1.977012,-0.08841695,0.10226539,-0.025566347,11.82,45.96,-25.98,4
1.55421E+12,-9.500193,0.4878186,1.9147629,-0.101200126,0.084155895,-0.049002163,11.76,45.96,-25.98,4
1.55421E+12,-9.667787,0.46387658,1.9961656,-0.10439592,0.066046394,-0.070307456,11.76,45.96,-25.98,4
1.55421E+12,-9.763555,0.24839842,1.9339164,-0.10333065,0.04261058,-0.07456851,11.7,45.96,-25.92,4
1.55421E+12,-9.868899,0.24839842,2.082357,-0.10226539,0.024501082,-0.06924219,11.64,45.96,-25.86,4
1.55421E+12,-9.92636,0.3489549,2.0009542,-0.094808534,0.005326322,-0.054328486,11.64,46.02,-25.8,4
1.55421E+12,-9.844957,0.24361002,2.0248961,-0.07456851,-0.008522116,-0.025566347,11.64,46.08,-25.74,4
1.55421E+12,-9.715671,0.47345337,2.0679917,-0.04474111,-0.01917476,-0.006391587,11.58,46.14,-25.74,4
1.55421E+12,-9.581595,0.516549,2.0392613,-0.008522116,-0.017044231,0.003195793,11.58,46.2,-25.68,4
1.55421E+12,-9.404425,0.45429978,2.0632033,0.007456851,-0.012783174,0,11.58,46.26,-25.62,4
1.55421E+12,-9.399636,0.42078096,2.0248961,0.012783174,-0.006391587,-0.014913702,11.58,46.32,-25.56,4
1.55421E+12,-9.370906,0.47345337,1.9434932,0.015978966,-0.00958738,-0.037284255,11.64,46.38,-25.5,4
1.55421E+12,-9.26556,0.492607,1.7902644,0.01917476,-0.010652645,-0.06178534,11.64,46.38,-25.5,4
1.55421E+12,-9.332599,0.43993455,2.0201077,0.018109497,-0.014913702,-0.07563378,11.64,46.38,-25.44,4
1.55421E+12,-9.323022,0.43035775,1.8716671,0.020240024,-0.015978966,-0.07882957,11.7,46.44,-25.44,4
1.55421E+12,-9.390059,0.42556936,1.8620903,0.026631612,-0.014913702,-0.07350325,11.76,46.38,-25.44,4
1.55421E+12,-9.433155,0.492607,1.9195513,0.03089267,-0.013848438,-0.06924219,11.82,46.38,-25.44,4
1.55421E+12,-9.495404,0.55964464,1.8668787,0.036218993,-0.01917476,-0.07456851,11.82,46.32,-25.38,4
1.55421E+12,-9.557653,0.52612585,1.9722236,0.024501082,-0.024501082,-0.084155895,11.88,46.26,-25.38,4
1.55421E+12,-9.471462,0.44472298,1.9626468,0.007456851,-0.026631612,-0.09267801,11.94,46.26,-25.38,4
1.55421E+12,-9.605537,0.44472298,2.034473,-0.004261058,-0.03195793,-0.09161274,11.94,46.26,-25.44,4
1.55421E+12,-9.667787,0.20530279,2.0153193,-0.005326322,-0.033023197,-0.09054748,12,46.26,-25.44,4
1.55421E+12,-9.595961,0.42078096,1.8285716,0.008522116,-0.04261058,-0.09267801,12,46.32,-25.44,4
1.55421E+12,-9.595961,0.3776853,1.9195513,0.025566347,-0.046871636,-0.09267801,11.94,46.32,-25.44,4
1.55421E+12,-9.562442,0.3441665,1.9913772,0.027696876,-0.056459017,-0.09054748,11.94,46.32,-25.44,4
1.55421E+12,-9.65821,0.38726214,2.0392613,0.01917476,-0.06498113,-0.08841695,11.94,46.38,-25.44,4
1.55421E+12,-9.634268,0.40162733,2.010531,0.008522116,-0.07350325,-0.084155895,11.94,46.38,-25.44,4
1.55421E+12,-9.562442,0.42078096,2.1829133,0.014913702,-0.080960095,-0.07243799,11.94,46.44,-25.44,4
1.55421E+12,-9.471462,0.3728969,2.0967221,0.025566347,-0.07563378,-0.058589544,11.94,46.38,-25.44,4
1.55421E+12,-9.56723,0.3728969,2.010531,0.040480047,-0.07563378,-0.041545313,11.94,46.38,-25.44,4
1.55421E+12,-9.409213,0.42078096,2.2260091,0.054328486,-0.07137272,-0.02876214,11.88,46.38,-25.44,4
1.55421E+12,-9.414001,0.3776853,2.0679917,0.068176925,-0.06924219,-0.013848438,11.88,46.32,-25.44,4
1.55421E+12,-9.370906,0.4973954,2.273893,0.07989483,-0.05965481,-0.001065265,11.88,46.32,-25.38,4
1.55421E+12,-9.3421755,0.45908818,2.1398177,0.08735169,-0.058589544,0.00958738,11.82,46.32,-25.44,4
1.55421E+12,-9.370906,0.45429978,2.1110873,0.08948222,-0.05219796,0.002130529,11.76,46.32,-25.44,4
1.55421E+12,-9.308656,0.4830302,2.0440497,0.08628642,-0.037284255,-0.00958738,11.7,46.32,-25.5,4
1.55421E+12,-9.32781,0.43993455,2.034473,0.083090626,-0.037284255,-0.011717909,11.58,46.32,-25.5,4
1.55421E+12,-9.332599,0.4878186,2.1206641,0.0777643,-0.026631612,-0.011717909,11.52,46.26,-25.56,4
1.55421E+12,-9.490616,0.43993455,2.1206641,0.068176925,-0.01917476,-0.017044231,11.4,46.26,-25.68,4
1.55421E+12,-9.610326,0.53091425,2.1015105,0.070307456,-0.026631612,-0.03089267,11.28,46.26,-25.74,4
1.55421E+12,-9.5385,0.42556936,2.202067,0.07350325,-0.03834952,-0.03834952,11.22,46.2,-25.8,4
1.55421E+12,-9.466674,0.47345337,2.2403743,0.0628506,-0.043675844,-0.034088463,11.1,46.2,-25.86,4
1.55421E+12,-9.476251,0.3681085,2.2499511,0.058589544,-0.05006743,-0.020240024,11.04,46.14,-25.92,4
1.55421E+12,-9.504981,0.43993455,2.3409307,0.07563378,-0.04261058,-0.013848438,11.04,46.14,-25.98,4
1.55421E+12,-9.457097,0.43993455,2.2882583,0.098004326,-0.029827405,-0.018109497,11.04,46.08,-26.04,4
1.55421E+12,-9.299079,0.3824737,2.144606,0.11717909,-0.01917476,-0.029827405,11.04,46.08,-26.1,4
1.55421E+12,-9.323022,0.4878186,2.321777,0.12357068,-0.003195793,-0.04474111,11.04,46.08,-26.16,4
1.55421E+12,-9.227253,0.41599256,2.2260091,0.12676647,0.001065265,-0.060720075,11.04,45.96,-26.28,4
1.55421E+12,-9.14585,0.5021838,2.2691047,0.13635385,0.007456851,-0.06498113,11.04,45.84,-26.4,4
1.55421E+12,-9.3421755,0.4782418,2.0967221,0.13741912,0.013848438,-0.070307456,11.04,45.78,-26.46,4
1.55421E+12,-9.452309,0.5117606,2.1398177,0.12037488,0.00958738,-0.07882957,11.04,45.66,-26.64,4
1.55421E+12,-9.524135,0.56922144,2.0775685,0.08841695,-0.006391587,-0.080960095,11.04,45.54,-26.82,4
1.55421E+12,-9.648633,0.55006784,2.1110873,0.040480047,-0.024501082,-0.0777643,11.04,45.42,-26.94,4
1.55421E+12,-9.562442,0.4973954,2.1206641,0.005326322,-0.035153728,-0.068176925,11.04,45.36,-27.12,4
1.55421E+12,-9.576807,0.4878186,2.2260091,-0.011717909,-0.039414786,-0.058589544,11.04,45.24,-27.18,4
1.55421E+12,-9.528923,0.52612585,2.2643163,-0.004261058,-0.03834952,-0.0479369,11.04,45.18,-27.24,4
1.55421E+12,-9.528923,0.47345337,2.3265655,0.01917476,-0.035153728,-0.04261058,11.04,45.12,-27.24,4
1.55421E+12,-9.423578,0.516549,2.297835,0.036218993,-0.025566347,-0.039414786,11.04,45.12,-27.24,4
1.55421E+12,-9.380483,0.52133745,2.2499511,0.039414786,-0.022370555,-0.037284255,11.04,45.18,-27.24,4
1.55421E+12,-9.303867,0.4782418,2.168548,0.03195793,-0.017044231,-0.03834952,11.04,45.18,-27.18,4
1.55421E+12,-9.3661175,0.46387658,2.0727801,0.026631612,-0.011717909,-0.0479369,11.04,45.24,-27.18,4
1.55421E+12,-9.471462,0.43993455,2.1110873,0.01917476,-0.006391587,-0.05752428,10.98,45.3,-27.18,4
1.55421E+12,-9.433155,0.40162733,2.1493945,0.01917476,-0.002130529,-0.058589544,10.98,45.36,-27.18,4
1.55421E+12,-9.44752,0.52612585,2.130241,0.01917476,-0.004261058,-0.056459017,10.98,45.36,-27.24,4
1.55421E+12,-9.471462,0.45908818,2.1158757,0.02130529,-0.004261058,-0.04474111,11.1,45.42,-27.3,4
1.55421E+12,-9.471462,0.55485624,2.1637597,0.018109497,-0.005326322,-0.034088463,11.16,45.48,-27.36,4
1.55421E+12,-9.423578,0.4830302,2.1877017,0.02130529,-0.003195793,-0.033023197,11.22,45.48,-27.36,4
1.55421E+12,-9.524135,0.53091425,2.202067,0.029827405,-0.006391587,-0.039414786,11.34,45.48,-27.36,4
1.55421E+12,-9.3661175,0.5021838,2.1637597,0.040480047,-0.010652645,-0.04580637,11.4,45.48,-27.42,4
1.55421E+12,-9.481039,0.47345337,2.130241,0.026631612,-0.013848438,-0.05006743,11.4,45.54,-27.48,4
1.55421E+12,-9.500193,0.44472298,2.1206641,0.007456851,-0.017044231,-0.05965481,11.46,45.54,-27.54,4
1.55421E+12,-9.490616,0.40162733,2.1972785,0.003195793,-0.020240024,-0.060720075,11.46,45.54,-27.54,4
1.55421E+12,-9.380483,0.46866497,2.2499511,0.008522116,-0.027696876,-0.053263225,11.4,45.54,-27.54,4
1.55421E+12,-9.41879,0.492607,2.178125,0.013848438,-0.033023197,-0.05219796,11.34,45.54,-27.48,4
1.55421E+12,-9.409213,0.516549,2.19249,0.011717909,-0.02876214,-0.054328486,11.28,45.54,-27.42,4
1.55421E+12,-9.519346,0.54049104,2.1110873,0.004261058,-0.026631612,-0.053263225,11.22,45.54,-27.36,4
1.55421E+12,-9.466674,0.44472298,2.1350293,-0.007456851,-0.02130529,-0.05006743,11.22,45.54,-27.3,4
1.55421E+12,-9.452309,0.3776853,2.2068555,-0.023435818,-0.023435818,-0.037284255,11.22,45.54,-27.24,4
1.55421E+12,-9.490616,0.45429978,2.0536265,-0.027696876,-0.018109497,-0.024501082,11.22,45.54,-27.12,4
1.55421E+12,-9.44752,0.4782418,2.0440497,-0.027696876,-0.013848438,-0.015978966,11.22,45.54,-27.06,4
1.55421E+12,-9.495404,0.53570265,2.0392613,-0.03195793,-0.007456851,-0.005326322,11.22,45.54,-27.06,4
1.55421E+12,-9.452309,0.55006784,2.034473,-0.04474111,-0.008522116,0.001065265,11.22,45.54,-27.06,4
1.55421E+12,-9.471462,0.4973954,2.0919337,-0.06178534,-0.003195793,0.00958738,11.22,45.54,-27.18,4
1.55421E+12,-9.461885,0.44472298,2.1493945,-0.06711166,-0.005326322,0.012783174,11.22,45.48,-27.24,4
1.55421E+12,-9.490616,0.46387658,2.1015105,-0.07456851,-0.00958738,0.01917476,11.22,45.48,-27.36,4
1.55421E+12,-9.404425,0.41120413,2.2068555,-0.07989483,-0.007456851,0.022370555,11.22,45.48,-27.42,4
1.55421E+12,-9.495404,0.43993455,2.1398177,-0.08628642,-0.014913702,0.022370555,11.22,45.42,-27.54,4
1.55421E+12,-9.370906,0.38726214,2.202067,-0.08735169,-0.015978966,0.025566347,11.22,45.36,-27.6,4
1.55421E+12,-9.41879,0.3489549,2.235586,-0.082025364,-0.01917476,0.02876214,11.28,45.36,-27.6,4
1.55421E+12,-9.337387,0.3824737,2.1206641,-0.06924219,-0.014913702,0.03195793,11.28,45.3,-27.54,4
1.55421E+12,-9.390059,0.3537433,2.202067,-0.04474111,-0.018109497,0.025566347,11.28,45.3,-27.42,4
1.55421E+12,-9.390059,0.40641573,2.2547395,-0.023435818,-0.011717909,0.014913702,11.28,45.36,-27.3,4
1.55421E+12,-9.361329,0.3776853,2.202067,-0.004261058,-0.014913702,0.002130529,11.28,45.36,-27.18,4
1.55421E+12,-9.361329,0.3633201,2.297835,0.008522116,-0.014913702,-0.007456851,11.28,45.42,-27.06,4
1.55421E+12,-9.289502,0.32022446,2.2691047,0.018109497,-0.008522116,-0.010652645,11.28,45.42,-26.94,4
1.55421E+12,-9.361329,0.3633201,2.2643163,0.03195793,-0.006391587,-0.014913702,11.34,45.48,-26.88,4
1.55421E+12,-9.452309,0.3393781,2.3169887,0.06391586,0,-0.025566347,11.28,45.48,-26.88,4
1.55421E+12,-9.279925,0.516549,2.331354,0.09161274,0.003195793,-0.037284255,11.28,45.48,-26.94,4
1.55421E+12,-9.299079,0.66498953,2.3026235,0.101200126,0.003195793,-0.046871636,11.28,45.48,-27.06,4
1.55421E+12,-9.375694,0.64583594,2.3361423,0.08522116,0.003195793,-0.05752428,11.28,45.42,-27.18,4
1.55421E+12,-9.56723,0.65541273,2.2786815,0.054328486,-0.002130529,-0.06924219,11.28,45.36,-27.24,4
1.55421E+12,-9.648633,0.56922144,2.3026235,0.020240024,-0.003195793,-0.06498113,11.22,45.3,-27.36,4
1.55421E+12,-9.514558,0.5979519,2.2882583,-0.003195793,-0.005326322,-0.05006743,11.22,45.24,-27.48,4
1.55421E+12,-9.481039,0.4830302,2.369661,0.001065265,0,-0.04580637,11.22,45.18,-27.6,4
1.55421E+12,-9.461885,0.5883751,2.2643163,0.035153728,0.010652645,-0.05539375,11.22,45.12,-27.66,4
1.55421E+12,-9.457097,0.55485624,2.3409307,0.066046394,0.00958738,-0.060720075,11.22,45.12,-27.6,4
1.55421E+12,-9.390059,0.46387658,2.2307975,0.09374327,0.00958738,-0.060720075,11.28,45.06,-27.6,4
1.55421E+12,-9.437943,0.46387658,2.1015105,0.10226539,0.012783174,-0.0628506,11.28,45.06,-27.6,4
1.55421E+12,-9.394848,0.41120413,2.331354,0.10333065,0.006391587,-0.060720075,11.28,45.06,-27.6,4
1.55421E+12,-9.437943,0.39683893,2.1493945,0.10333065,0,-0.05219796,11.34,45.06,-27.6,4
1.55421E+12,-9.356541,0.42556936,2.1110873,0.10865697,-0.001065265,-0.04580637,11.34,45.06,-27.6,4
1.55421E+12,-9.289502,0.516549,2.2260091,0.112918034,-0.002130529,-0.04261058,11.34,45.06,-27.6,4
1.55421E+12,-9.299079,0.6362591,2.1206641,0.11824436,-0.002130529,-0.041545313,11.4,45,-27.6,4
1.55421E+12,-9.370906,0.6123171,2.0727801,0.11504856,-0.001065265,-0.054328486,11.4,45,-27.66,4
1.55421E+12,-9.428367,0.66020113,2.202067,0.10333065,-0.002130529,-0.060720075,11.4,44.94,-27.66,4
1.55421E+12,-9.543288,0.7272388,2.168548,0.08628642,-0.003195793,-0.06924219,11.46,44.94,-27.66,4
1.55421E+12,-9.461885,0.65541273,2.1254525,0.07989483,-0.007456851,-0.070307456,11.52,44.88,-27.66,4
1.55421E+12,-9.457097,0.54049104,2.0632033,0.07563378,-0.00958738,-0.070307456,11.58,44.88,-27.66,4
1.55421E+12,-9.481039,0.5979519,2.0967221,0.07669904,-0.01917476,-0.068176925,11.58,44.82,-27.66,4
1.55421E+12,-9.528923,0.6985083,2.28347,0.07456851,-0.026631612,-0.06924219,11.64,44.82,-27.66,4
1.55421E+12,-9.481039,0.74639237,2.082357,0.05965481,-0.040480047,-0.070307456,11.58,44.82,-27.66,4
1.55421E+12,-9.528923,0.7320272,2.3169887,0.03834952,-0.043675844,-0.06711166,11.58,44.88,-27.66,4
1.55421E+12,-9.457097,0.66020113,2.2403743,-0.001065265,-0.041545313,-0.06498113,11.46,44.88,-27.66,4
1.55421E+12,-9.519346,0.55006784,2.2451627,0.010652645,-0.04261058,-0.06711166,11.4,44.94,-27.66,4
1.55421E+12,-9.399636,0.54527944,2.273893,0.024501082,-0.036218993,-0.0628506,11.28,44.94,-27.66,4
1.55421E+12,-9.346964,0.6362591,2.2164323,0.033023197,-0.025566347,-0.05219796,11.22,44.94,-27.66,4
1.55421E+12,-9.385271,0.5883751,2.154183,0.040480047,-0.022370555,-0.04580637,11.16,45,-27.66,4
1.55421E+12,-9.270349,0.65062433,2.2930467,0.051132694,-0.010652645,-0.05219796,11.1,45,-27.66,4
1.55421E+12,-9.375694,0.6123171,2.2451627,0.06391586,-0.010652645,-0.06178534,11.1,45,-27.66,4
1.55421E+12,-9.332599,0.6075287,2.273893,0.058589544,-0.013848438,-0.068176925,11.1,44.94,-27.72,4
1.55421E+12,-9.404425,0.56922144,2.1350293,0.034088463,-0.018109497,-0.07563378,11.1,44.94,-27.72,4
1.55421E+12,-9.399636,0.53091425,2.3026235,0.020240024,-0.024501082,-0.07137272,11.1,44.88,-27.78,4
1.55421E+12,-9.442732,0.43993455,2.2260091,0.026631612,-0.025566347,-0.068176925,11.1,44.88,-27.78,4
1.55421E+12,-9.32781,0.54527944,2.307412,0.0479369,-0.024501082,-0.06498113,11.16,44.82,-27.84,4
1.55421E+12,-9.399636,0.6027403,2.28347,0.066046394,-0.023435818,-0.06391586,11.16,44.82,-27.9,4
1.55421E+12,-9.332599,0.65062433,2.168548,0.06178534,-0.01917476,-0.068176925,11.16,44.76,-27.96,4
1.55421E+12,-9.370906,0.6314707,2.1254525,0.049002163,-0.023435818,-0.07669904,11.16,44.82,-28.02,4
1.55421E+12,-9.337387,0.6123171,2.3026235,0.03195793,-0.029827405,-0.07669904,11.22,44.76,-28.08,4
1.55421E+12,-9.361329,0.64583594,2.2882583,0.022370555,-0.03089267,-0.07563378,11.22,44.76,-28.14,4
1.55421E+12,-9.414001,0.6745663,2.2882583,0.023435818,-0.029827405,-0.07989483,11.22,44.76,-28.2,4
1.55421E+12,-9.485827,0.6314707,2.1637597,0.02876214,-0.026631612,-0.083090626,11.28,44.7,-28.26,4
1.55421E+12,-9.490616,0.52612585,2.1637597,0.033023197,-0.024501082,-0.0777643,11.28,44.7,-28.32,4
1.55421E+12,-9.495404,0.53570265,2.460641,0.029827405,-0.01917476,-0.06924219,11.28,44.7,-28.38,4
1.55421E+12,-9.452309,0.516549,2.331354,0.024501082,-0.011717909,-0.060720075,11.28,44.64,-28.38,4
1.55421E+12,-9.442732,0.5021838,2.297835,0.023435818,-0.007456851,-0.049002163,11.28,44.64,-28.5,4
1.55421E+12,-9.394848,0.54527944,2.3600843,0.022370555,-0.004261058,-0.04474111,11.22,44.64,-28.62,4
1.55421E+12,-9.303867,0.5883751,2.2451627,0.01917476,-0.001065265,-0.04474111,11.22,44.58,-28.68,4
1.55421E+12,-9.351752,0.5979519,2.321777,0.013848438,-0.002130529,-0.04580637,11.16,44.58,-28.74,4
1.55421E+12,-9.370906,0.6410475,2.3505075,0.003195793,0.001065265,-0.051132694,11.1,44.58,-28.8,4
1.55421E+12,-9.361329,0.54527944,2.2930467,0.002130529,0.001065265,-0.053263225,11.04,44.58,-28.86,4
1.55421E+12,-9.289502,0.4830302,2.3983915,0.00958738,0.002130529,-0.051132694,10.98,44.58,-28.92,4
1.55421E+12,-9.3182335,0.54049104,2.2451627,0.020240024,0,-0.053263225,10.92,44.58,-28.98,4
1.55421E+12,-9.375694,0.41599256,2.3505075,0.026631612,0.002130529,-0.05219796,10.86,44.58,-28.98,4
1.55421E+12,-9.414001,0.46866497,2.2451627,0.026631612,-0.002130529,-0.05539375,10.86,44.58,-28.98,4
1.55421E+12,-9.375694,0.52612585,2.3265655,0.027696876,0,-0.054328486,10.8,44.58,-29.04,4
1.55421E+12,-9.3661175,0.4878186,2.1829133,0.025566347,-0.002130529,-0.054328486,10.74,44.52,-29.04,4
1.55421E+12,-9.41879,0.5117606,2.2930467,0.024501082,0.003195793,-0.056459017,10.74,44.46,-29.04,4
1.55421E+12,-9.337387,0.52612585,2.2403743,0.020240024,0,-0.058589544,10.74,44.4,-29.1,4
1.55421E+12,-9.356541,0.5883751,2.2260091,0.01917476,0.003195793,-0.060720075,10.74,44.28,-29.16,4
1.55421E+12,-9.428367,0.5021838,2.355296,0.008522116,0.003195793,-0.058589544,10.74,44.22,-29.22,4
1.55421E+12,-9.481039,0.53091425,2.2643163,0.008522116,0.006391587,-0.06391586,10.74,44.1,-29.28,4
1.55421E+12,-9.504981,0.6075287,2.379238,0.018109497,-0.003195793,-0.06924219,10.74,44.04,-29.34,4
1.55421E+12,-9.466674,0.56922144,2.3026235,0.026631612,-0.001065265,-0.068176925,10.74,43.98,-29.4,4
1.55421E+12,-9.457097,0.4830302,2.2403743,0.007456851,-0.010652645,-0.06711166,10.74,43.92,-29.46,4
1.55421E+12,-9.514558,0.42078096,2.331354,-0.00958738,-0.00958738,-0.0628506,10.74,43.98,-29.52,4
1.55421E+12,-9.504981,0.46866497,2.3026235,-0.013848438,-0.006391587,-0.05752428,10.8,43.98,-29.46,4
1.55421E+12,-9.509769,0.42556936,2.1493945,-0.00958738,-0.006391587,-0.05006743,10.8,43.98,-29.46,4
1.55421E+12,-9.44752,0.55964464,2.1637597,-0.007456851,-0.004261058,-0.04474111,10.86,43.98,-29.4,4
1.55421E+12,-9.428367,0.57400984,2.1877017,-0.014913702,-0.002130529,-0.04474111,10.86,44.04,-29.4,4
1.55421E+12,-9.390059,0.5931635,2.0919337,-0.01917476,0.001065265,-0.046871636,10.92,44.1,-29.34,4
1.55421E+12,-9.44752,0.45429978,2.2547395,-0.02130529,-0.001065265,-0.046871636,10.86,44.16,-29.34,4
1.55421E+12,-9.548077,0.41120413,2.2547395,-0.020240024,-0.003195793,-0.04580637,10.86,44.22,-29.28,4
1.55421E+12,-9.3661175,0.44472298,2.28347,-0.012783174,-0.004261058,-0.046871636,10.86,44.22,-29.28,4
1.55421E+12,-9.423578,0.5021838,2.3505075,-0.002130529,-0.00958738,-0.0479369,10.8,44.28,-29.28,4
1.55421E+12,-9.3661175,0.3489549,2.2307975,0.003195793,-0.012783174,-0.05006743,10.74,44.16,-29.22,4
1.55421E+12,-9.41879,0.40162733,2.3361423,0.001065265,-0.017044231,-0.049002163,10.68,44.1,-29.16,4
1.55421E+12,-9.41879,0.46387658,2.2691047,-0.003195793,-0.02130529,-0.046871636,10.68,43.98,-29.16,4
1.55421E+12,-9.409213,0.43993455,2.3409307,-0.002130529,-0.02876214,-0.04580637,10.62,43.86,-29.1,4
1.55421E+12,-9.375694,0.3585317,2.331354,0.003195793,-0.033023197,-0.0479369,10.62,43.8,-29.04,4
1.55421E+12,-9.437943,0.43993455,2.297835,0.005326322,-0.034088463,-0.0479369,10.62,43.74,-29.04,4
1.55421E+12,-9.461885,0.5117606,2.4079683,-0.003195793,-0.03834952,-0.049002163,10.62,43.74,-28.98,4
1.55421E+12,-9.437943,0.3633201,2.355296,-0.012783174,-0.03834952,-0.051132694,10.68,43.86,-28.98,4
1.55421E+12,-9.476251,0.39683893,2.4366987,-0.017044231,-0.041545313,-0.05219796,10.68,44.04,-28.98,4
1.55421E+12,-9.514558,0.41599256,2.4223335,-0.013848438,-0.04474111,-0.0479369,10.74,44.22,-28.98,4
1.55421E+12,-9.481039,0.3824737,2.4510639,-0.00958738,-0.049002163,-0.04474111,10.74,44.4,-28.98,4
1.55421E+12,-9.495404,0.40162733,2.3840263,-0.005326322,-0.0479369,-0.037284255,10.8,44.58,-28.98,4
1.55421E+12,-9.495404,0.41120413,2.460641,0.002130529,-0.05006743,-0.033023197,10.8,44.76,-28.98,4
1.55421E+12,-9.399636,0.43035775,2.331354,0.006391587,-0.046871636,-0.03089267,10.86,44.88,-29.04,4
1.55421E+12,-9.375694,0.42556936,2.4893713,0.004261058,-0.046871636,-0.027696876,10.8,44.88,-29.04,4
1.55421E+12,-9.370906,0.46866497,2.3361423,-0.002130529,-0.043675844,-0.025566347,10.8,44.82,-29.04,4
1.55421E+12,-9.375694,0.4973954,2.369661,-0.004261058,-0.041545313,-0.024501082,10.74,44.82,-29.1,4
1.55421E+12,-9.337387,0.38726214,2.3505075,-0.006391587,-0.041545313,-0.022370555,10.74,44.76,-29.1,4
1.55421E+12,-9.356541,0.43035775,2.3505075,-0.007456851,-0.03834952,-0.017044231,10.68,44.7,-29.1,4
1.55421E+12,-9.375694,0.4782418,2.2643163,-0.012783174,-0.037284255,-0.014913702,10.68,44.64,-29.1,4
1.55421E+12,-9.375694,0.492607,2.556409,-0.024501082,-0.027696876,-0.014913702,10.68,44.58,-29.1,4
1.55421E+12,-9.375694,0.3776853,2.3409307,-0.02876214,-0.025566347,-0.018109497,10.62,44.52,-29.1,4
1.55421E+12,-9.361329,0.43514615,2.3505075,-0.023435818,-0.024501082,-0.024501082,10.62,44.52,-29.1,4
1.55421E+12,-9.337387,0.46387658,2.2403743,-0.024501082,-0.027696876,-0.024501082,10.62,44.46,-29.1,4
1.55421E+12,-9.390059,0.42556936,2.40318,-0.037284255,-0.02876214,-0.023435818,10.62,44.46,-29.04,4
1.55421E+12,-9.399636,0.3585317,2.4702177,-0.049002163,-0.033023197,-0.01917476,10.62,44.46,-29.1,4
1.55421E+12,-9.313444,0.44472298,2.4223335,-0.056459017,-0.035153728,-0.013848438,10.62,44.52,-29.04,4
1.55421E+12,-9.380483,0.42556936,2.3265655,-0.058589544,-0.036218993,-0.017044231,10.62,44.58,-29.04,4
1.55421E+12,-9.437943,0.4830302,2.417545,-0.06178534,-0.035153728,-0.02130529,10.62,44.58,-29.04,4
1.55421E+12,-9.3661175,0.516549,2.498948,-0.07243799,-0.037284255,-0.029827405,10.62,44.64,-28.98,4
1.55421E+12,-9.370906,0.42556936,2.4319103,-0.0777643,-0.035153728,-0.033023197,10.62,44.7,-29.04,4
1.55421E+12,-9.3421755,0.29628247,2.546832,-0.084155895,-0.029827405,-0.027696876,10.68,44.7,-29.1,4
1.55421E+12,-9.294291,0.31543607,2.6761189,-0.07882957,-0.029827405,-0.017044231,10.68,44.76,-29.16,4
1.55421E+12,-9.394848,0.3776853,2.6138697,-0.06498113,-0.027696876,-0.01917476,10.62,44.76,-29.22,4
1.55421E+12,-9.423578,0.4878186,2.6042929,-0.046871636,-0.024501082,-0.022370555,10.62,44.76,-29.28,4
1.55421E+12,-9.380483,0.46866497,2.4462755,-0.04261058,-0.018109497,-0.025566347,10.62,44.76,-29.4,4
1.55421E+12,-9.370906,0.45908818,2.3840263,-0.046871636,-0.014913702,-0.024501082,10.62,44.82,-29.46,4
1.55421E+12,-9.279925,0.4830302,2.498948,-0.05006743,-0.014913702,-0.024501082,10.62,44.82,-29.52,4
1.55421E+12,-9.375694,0.42078096,2.556409,-0.040480047,-0.018109497,-0.025566347,10.68,44.88,-29.52,4
1.55421E+12,-9.351752,0.41599256,2.52289,-0.03195793,-0.013848438,-0.025566347,10.68,44.88,-29.52,4
1.55421E+12,-9.332599,0.3633201,2.5276785,-0.025566347,-0.010652645,-0.027696876,10.68,44.94,-29.46,4
1.55421E+12,-9.308656,0.3681085,2.508525,-0.022370555,-0.020240024,-0.03089267,10.68,44.94,-29.34,4
1.55421E+12,-9.313444,0.3633201,2.5899277,-0.020240024,-0.014913702,-0.033023197,10.68,44.88,-29.28,4
1.55421E+12,-9.370906,0.3250129,2.508525,-0.010652645,-0.01917476,-0.033023197,10.68,44.82,-29.16,4
1.55421E+12,-9.337387,0.40162733,2.3983915,-0.001065265,-0.022370555,-0.033023197,10.62,44.76,-29.04,4
1.55421E+12,-9.313444,0.38726214,2.6042929,0.005326322,-0.026631612,-0.035153728,10.62,44.7,-28.92,4
1.55421E+12,-9.32781,0.4830302,2.4702177,0.011717909,-0.025566347,-0.035153728,10.56,44.58,-28.86,4
1.55421E+12,-9.337387,0.43514615,2.690484,0.020240024,-0.025566347,-0.037284255,10.5,44.52,-28.8,4
1.55421E+12,-9.275137,0.45908818,2.5803509,0.029827405,-0.022370555,-0.04261058,10.44,44.46,-28.74,4
1.55421E+12,-9.3421755,0.42556936,2.6617537,0.03834952,-0.022370555,-0.046871636,10.44,44.46,-28.8,4
1.55421E+12,-9.3661175,0.42078096,2.5372553,0.0479369,-0.017044231,-0.05219796,10.44,44.58,-28.86,4
1.55421E+12,-9.380483,0.42556936,2.5899277,0.056459017,-0.02130529,-0.05539375,10.44,44.7,-28.86,4
1.55421E+12,-9.3421755,0.40162733,2.690484,0.06711166,-0.025566347,-0.05752428,10.44,44.82,-28.92,4
1.55421E+12,-9.255983,0.40162733,2.6617537,0.07989483,-0.024501082,-0.056459017,10.44,44.94,-28.98,4
1.55421E+12,-9.303867,0.53091425,2.5611973,0.08841695,-0.022370555,-0.056459017,10.44,45.06,-28.98,4
1.55421E+12,-9.246407,0.6027403,2.6761189,0.08841695,-0.013848438,-0.05752428,10.44,45.12,-29.04,4
1.55421E+12,-9.346964,0.4830302,2.5037365,0.094808534,-0.014913702,-0.068176925,10.5,45.18,-29.04,4
1.55421E+12,-9.303867,0.55964464,2.594716,0.098004326,-0.011717909,-0.07563378,10.5,45.24,-29.1,4
1.55421E+12,-9.313444,0.54049104,2.6282349,0.080960095,-0.007456851,-0.0777643,10.5,45.24,-29.16,4
1.55421E+12,-9.299079,0.4973954,2.5899277,0.066046394,0.002130529,-0.080960095,10.5,45.24,-29.22,4
1.55421E+12,-9.299079,0.43514615,2.6378117,0.07137272,0.002130529,-0.07882957,10.5,45.18,-29.28,4
1.55421E+12,-9.260772,0.45908818,2.5276785,0.082025364,0.00958738,-0.0777643,10.56,45.12,-29.34,4
1.55421E+12,-9.246407,0.43993455,2.5133133,0.08522116,0.007456851,-0.0777643,10.56,45.06,-29.4,4
1.55421E+12,-9.308656,0.492607,2.5037365,0.07350325,0.010652645,-0.07882957,10.56,45,-29.46,4
1.55421E+12,-9.270349,0.46387658,2.4702177,0.066046394,0.00958738,-0.084155895,10.56,44.94,-29.46,4
1.55421E+12,-9.246407,0.54527944,2.5851393,0.05752428,0.008522116,-0.082025364,10.62,44.88,-29.52,4
1.55421E+12,-9.279925,0.42078096,2.441487,0.051132694,0.008522116,-0.07989483,10.62,44.76,-29.52,4
1.55421E+12,-9.3421755,0.4973954,2.5133133,0.049002163,0.00958738,-0.083090626,10.56,44.7,-29.52,4
1.55421E+12,-9.3421755,0.516549,2.5420437,0.05219796,-0.002130529,-0.09161274,10.56,44.76,-29.52,4
1.55421E+12,-9.279925,0.3776853,2.508525,0.04580637,-0.002130529,-0.096939065,10.56,44.76,-29.58,4
1.55421E+12,-9.3421755,0.42556936,2.5372553,0.02876214,0,-0.0958738,10.56,44.76,-29.64,4
1.55421E+12,-9.370906,0.44472298,2.5995045,0.024501082,0,-0.09161274,10.5,44.82,-29.7,4
1.55421E+12,-9.385271,0.43993455,2.594716,0.03195793,0,-0.08735169,10.44,44.88,-29.7,4
1.55421E+12,-9.3661175,0.53091425,2.6809072,0.039414786,0.001065265,-0.08522116,10.38,44.94,-29.76,4
1.55421E+12,-9.370906,0.45429978,2.4079683,0.035153728,0.006391587,-0.083090626,10.32,45,-29.82,4
1.55421E+12,-9.433155,0.41599256,2.40318,0.023435818,0.011717909,-0.0777643,10.26,45.06,-29.88,4
1.55421E+12,-9.490616,0.5021838,2.5755625,0.015978966,0.013848438,-0.07243799,10.2,45.06,-29.88,4
1.55421E+12,-9.370906,0.3441665,2.556409,0.010652645,0.013848438,-0.06711166,10.2,45.06,-29.88,4
1.55421E+12,-9.41879,0.3537433,2.3600843,0.00958738,0.010652645,-0.06178534,10.14,45.06,-29.82,4
1.55421E+12,-9.323022,0.45908818,2.5851393,0.003195793,0.010652645,-0.05752428,10.14,45.06,-29.82,4
1.55421E+12,-9.423578,0.45908818,2.3840263,-0.007456851,0.013848438,-0.05752428,10.14,45,-29.76,4
1.55421E+12,-9.361329,0.40641573,2.5420437,-0.017044231,0.010652645,-0.05539375,10.2,44.88,-29.7,4
1.55421E+12,-9.370906,0.3681085,2.4462755,-0.023435818,0.013848438,-0.053263225,10.2,44.76,-29.64,4
1.55421E+12,-9.284714,0.41120413,2.4558525,-0.025566347,0.014913702,-0.053263225,10.2,44.7,-29.58,4
1.55421E+12,-9.375694,0.3489549,2.417545,-0.029827405,0.012783174,-0.053263225,10.08,44.64,-29.58,4
1.55421E+12,-9.41879,0.3298013,2.417545,-0.035153728,0.00958738,-0.053263225,10.02,44.58,-29.52,4
1.55421E+12,-9.375694,0.3441665,2.4941597,-0.0479369,0.004261058,-0.05006743,9.9,44.52,-29.52,4
1.55421E+12,-9.332599,0.3585317,2.4462755,-0.054328486,0.006391587,-0.04474111,9.78,44.46,-29.52,4
1.55421E+12,-9.370906,0.31064767,2.441487,-0.051132694,0.007456851,-0.039414786,9.72,44.46,-29.52,4
1.55421E+12,-9.437943,0.3298013,2.4558525,-0.03834952,0.003195793,-0.040480047,9.66,44.52,-29.52,4
1.55421E+12,-9.294291,0.3585317,2.2547395,-0.023435818,0,-0.04474111,9.6,44.58,-29.46,4
1.55421E+12,-9.323022,0.40162733,2.2403743,-0.034088463,-0.002130529,-0.040480047,9.54,44.64,-29.46,4
1.55421E+12,-9.3182335,0.28670564,2.4510639,-0.0479369,0.004261058,-0.034088463,9.54,44.76,-29.46,4
1.55421E+12,-9.3661175,0.30585927,2.5276785,-0.04474111,0.004261058,-0.029827405,9.54,44.82,-29.46,4
1.55421E+12,-9.323022,0.25318682,2.5037365,-0.03089267,0.004261058,-0.027696876,9.6,44.88,-29.46,4
1.55421E+12,-9.346964,0.27712885,2.4079683,-0.015978966,0.004261058,-0.026631612,9.6,44.88,-29.46,4
1.55421E+12,-9.351752,0.3776853,2.3600843,-0.017044231,0.008522116,-0.026631612,9.6,44.94,-29.46,4
1.55421E+12,-9.337387,0.3537433,2.3744495,-0.022370555,0.002130529,-0.03089267,9.6,44.94,-29.46,4
1.55421E+12,-9.337387,0.30107087,2.3888147,-0.023435818,-0.001065265,-0.026631612,9.6,44.82,-29.52,4
1.55421E+12,-9.385271,0.3250129,2.6521769,-0.02130529,0.001065265,-0.023435818,9.6,44.82,-29.52,4
1.55421E+12,-9.414001,0.26755205,2.4510639,-0.006391587,0.001065265,-0.024501082,9.66,44.76,-29.52,4
1.55421E+12,-9.3182335,0.27712885,2.4462755,0.003195793,-0.005326322,-0.022370555,9.66,44.76,-29.52,4
1.55421E+12,-9.299079,0.3633201,2.4558525,0.001065265,-0.004261058,-0.023435818,9.66,44.76,-29.52,4
1.55421E+12,-9.380483,0.27712885,2.546832,-0.002130529,-0.006391587,-0.026631612,9.66,44.76,-29.58,4
1.55421E+12,-9.370906,0.32022446,2.3409307,0,-0.00958738,-0.023435818,9.72,44.82,-29.64,4
1.55421E+12,-9.380483,0.3441665,2.441487,0.007456851,-0.011717909,-0.022370555,9.72,44.88,-29.64,4
1.55421E+12,-9.380483,0.3728969,2.556409,0.014913702,-0.014913702,-0.022370555,9.78,44.88,-29.7,4
1.55421E+12,-9.32781,0.3585317,2.5276785,0.013848438,-0.017044231,-0.02130529,9.78,44.88,-29.64,4
1.55421E+12,-9.394848,0.39683893,2.556409,0.010652645,-0.017044231,-0.024501082,9.9,44.88,-29.64,4
1.55421E+12,-9.351752,0.31064767,2.4941597,0.00958738,-0.015978966,-0.022370555,9.96,44.88,-29.58,4
1.55421E+12,-9.3182335,0.42078096,2.5516205,0.013848438,-0.015978966,-0.026631612,10.02,44.82,-29.58,4
1.55421E+12,-9.337387,0.3585317,2.5276785,0.015978966,-0.010652645,-0.027696876,10.08,44.82,-29.52,4
1.55421E+12,-9.361329,0.3728969,2.321777,0.013848438,-0.00958738,-0.026631612,10.14,44.82,-29.46,4
1.55421E+12,-9.452309,0.3489549,2.4941597,0.012783174,-0.012783174,-0.02876214,10.14,44.76,-29.4,4
1.55421E+12,-9.303867,0.3489549,2.2786815,0.006391587,-0.013848438,-0.03195793,10.14,44.76,-29.34,4
1.55421E+12,-9.356541,0.3824737,2.5276785,0.005326322,-0.010652645,-0.029827405,10.14,44.76,-29.28,4
1.55421E+12,-9.3182335,0.31064767,2.556409,0.010652645,-0.008522116,-0.026631612,10.14,44.76,-29.28,4
1.55421E+12,-9.303867,0.3633201,2.5755625,0.012783174,-0.013848438,-0.03089267,10.08,44.7,-29.28,4
1.55421E+12,-9.323022,0.3393781,2.4558525,0.006391587,-0.00958738,-0.034088463,10.02,44.7,-29.22,4
1.55421E+12,-9.385271,0.3633201,2.508525,0.002130529,-0.008522116,-0.035153728,9.96,44.7,-29.16,4
1.55421E+12,-9.356541,0.3728969,2.3600843,-0.00958738,-0.007456851,-0.039414786,9.96,44.7,-29.16,4
1.55421E+12,-9.390059,0.3776853,2.4223335,-0.018109497,-0.002130529,-0.037284255,9.96,44.7,-29.1,4
1.55421E+12,-9.385271,0.3824737,2.508525,-0.01917476,-0.001065265,-0.03834952,9.96,44.76,-29.1,4
1.55421E+12,-9.457097,0.42556936,2.475006,-0.014913702,0.001065265,-0.046871636,9.96,44.76,-29.04,4
1.55421E+12,-9.308656,0.3585317,2.417545,-0.017044231,-0.008522116,-0.04474111,9.96,44.82,-29.04,4
1.55421E+12,-9.452309,0.39683893,2.3983915,-0.041545313,-0.010652645,-0.041545313,9.96,44.82,-29.04,4
1.55421E+12,-9.3661175,0.31543607,2.5133133,-0.06711166,-0.006391587,-0.035153728,9.96,44.88,-29.04,4
1.55421E+12,-9.433155,0.3250129,2.3361423,-0.07243799,-0.00958738,-0.026631612,9.96,44.94,-29.1,4
1.55421E+12,-9.423578,0.31543607,2.3505075,-0.060720075,-0.015978966,-0.02130529,9.96,44.94,-29.1,4
1.55421E+12,-9.337387,0.3250129,2.4558525,-0.051132694,-0.012783174,-0.022370555,9.96,45,-29.16,4
1.55421E+12,-9.323022,0.41120413,2.441487,-0.05219796,-0.011717909,-0.025566347,10.02,45.06,-29.22,4
1.55421E+12,-9.275137,0.3489549,2.4510639,-0.056459017,-0.00958738,-0.029827405,10.08,45.06,-29.28,4
1.55421E+12,-9.346964,0.32022446,2.345719,-0.06178534,-0.010652645,-0.033023197,10.14,45.12,-29.34,4
1.55421E+12,-9.399636,0.27234045,2.4893713,-0.058589544,-0.013848438,-0.03089267,10.14,45.12,-29.4,4
1.55421E+12,-9.3661175,0.25318682,2.556409,-0.04580637,-0.01917476,-0.03195793,10.2,45.12,-29.4,4
1.55421E+12,-9.452309,0.29628247,2.5420437,-0.022370555,-0.023435818,-0.035153728,10.2,45.12,-29.46,4
1.55421E+12,-9.246407,0.3776853,2.5755625,-0.007456851,-0.025566347,-0.040480047,10.26,45.06,-29.46,4
1.55421E+12,-9.409213,0.3298013,2.460641,-0.003195793,-0.026631612,-0.043675844,10.26,45.06,-29.46,4
1.55421E+12,-9.41879,0.27712885,2.5516205,0,-0.025566347,-0.040480047,10.2,45,-29.4,4
1.55421E+12,-9.433155,0.29628247,2.6042929,0.006391587,-0.024501082,-0.03834952,10.14,45,-29.4,4
1.55421E+12,-9.399636,0.45429978,2.5803509,0.01917476,-0.02130529,-0.036218993,10.08,44.94,-29.34,4
1.55421E+12,-9.370906,0.25318682,2.6569653,0.034088463,-0.015978966,-0.033023197,10.08,44.94,-29.28,4
1.55421E+12,-9.337387,0.3298013,2.5037365,0.043675844,-0.015978966,-0.03089267,10.08,44.88,-29.22,4
1.55421E+12,-9.3661175,0.39683893,2.4462755,0.054328486,-0.014913702,-0.027696876,10.08,44.82,-29.16,4
1.55421E+12,-9.32781,0.42078096,2.508525,0.05752428,-0.012783174,-0.02876214,10.14,44.82,-29.1,4
1.55421E+12,-9.222465,0.43514615,2.5276785,0.060720075,-0.006391587,-0.03089267,10.2,44.82,-29.1,4
1.55421E+12,-9.361329,0.3728969,2.475006,0.066046394,-0.007456851,-0.029827405,10.26,44.88,-29.1,4
1.55421E+12,-9.32781,0.40641573,2.5755625,0.070307456,-0.005326322,-0.03089267,10.32,44.88,-29.16,4
1.55421E+12,-9.251195,0.3824737,2.5611973,0.07350325,-0.004261058,-0.033023197,10.38,44.88,-29.16,4
1.55421E+12,-9.26556,0.492607,2.6090813,0.07350325,-0.003195793,-0.03834952,10.38,44.94,-29.22,4
1.55421E+12,-9.308656,0.4878186,2.6282349,0.06924219,-0.005326322,-0.040480047,10.38,44.94,-29.28,4
1.55421E+12,-9.351752,0.39683893,2.484583,0.07137272,-0.003195793,-0.041545313,10.44,45,-29.28,4
1.55421E+12,-9.332599,0.40641573,2.5037365,0.07669904,0.003195793,-0.04261058,10.44,45,-29.28,4
1.55421E+12,-9.26556,0.32022446,2.4079683,0.080960095,0.003195793,-0.046871636,10.38,45,-29.28,4
1.55421E+12,-9.361329,0.41599256,2.393603,0.08522116,0.004261058,-0.046871636,10.38,44.94,-29.34,4
1.55421E+12,-9.323022,0.43993455,2.6378117,0.084155895,0,-0.04580637,10.38,44.94,-29.28,4
1.55421E+12,-9.3661175,0.43993455,2.5516205,0.084155895,0.005326322,-0.046871636,10.38,44.88,-29.28,4
1.55421E+12,-9.41879,0.3776853,2.5276785,0.09267801,0.007456851,-0.05219796,10.38,44.88,-29.34,4
1.55421E+12,-9.442732,0.4973954,2.5037365,0.10226539,0.008522116,-0.053263225,10.38,44.82,-29.4,4
1.55421E+12,-9.346964,0.5021838,2.3600843,0.10333065,0.006391587,-0.05219796,10.32,44.76,-29.52,4
1.55421E+12,-9.394848,0.52133745,2.417545,0.084155895,0.008522116,-0.05539375,10.26,44.7,-29.58,4
1.55421E+12,-9.399636,0.44472298,2.4271219,0.066046394,0.010652645,-0.05539375,10.2,44.7,-29.7,4
1.55421E+12,-9.370906,0.5931635,2.3888147,0.06498113,0.006391587,-0.049002163,10.2,44.64,-29.76,4
1.55421E+12,-9.346964,0.4830302,2.3409307,0.06711166,0.004261058,-0.05006743,10.14,44.58,-29.88,4
1.55421E+12,-9.370906,0.6171055,2.5037365,0.05539375,0.011717909,-0.05539375,10.14,44.58,-30,4
1.55421E+12,-9.3661175,0.55006784,2.4319103,0.04261058,0.012783174,-0.05752428,10.08,44.52,-30,4
1.55421E+12,-9.476251,0.54049104,2.498948,0.036218993,0.010652645,-0.056459017,10.08,44.46,-30.06,4
1.55421E+12,-9.390059,0.55006784,2.331354,0.024501082,0.011717909,-0.05539375,10.14,44.4,-30.06,4
1.55421E+12,-9.313444,0.54527944,2.417545,0.018109497,0.011717909,-0.051132694,10.14,44.34,-30.06,4
1.55421E+12,-9.385271,0.55006784,2.3265655,0.017044231,0.008522116,-0.0479369,10.14,44.34,-30.06,4
1.55421E+12,-9.394848,0.46866497,2.379238,0.017044231,0.008522116,-0.04474111,10.14,44.28,-30.06,4
1.55421E+12,-9.3661175,0.55964464,2.484583,0.007456851,0.008522116,-0.04261058,10.14,44.22,-30.06,4
1.55421E+12,-9.3661175,0.5117606,2.307412,-0.005326322,0.00958738,-0.039414786,10.08,44.16,-30,4
1.55421E+12,-9.370906,0.55485624,2.3840263,-0.012783174,0.008522116,-0.037284255,10.02,44.16,-30,4
1.55421E+12,-9.313444,0.4878186,2.3840263,-0.015978966,0.00958738,-0.035153728,9.96,44.16,-30,4
1.55421E+12,-9.404425,0.4878186,2.3840263,-0.01917476,0.011717909,-0.034088463,9.96,44.16,-30,4
1.55421E+12,-9.346964,0.55006784,2.4366987,-0.033023197,0.007456851,-0.036218993,9.96,44.16,-30,4
1.55421E+12,-9.356541,0.6171055,2.2643163,-0.05219796,0.007456851,-0.03195793,9.9,44.22,-29.94,4
1.55421E+12,-9.346964,0.42556936,2.5516205,-0.056459017,0.006391587,-0.03089267,10.02,44.22,-29.94,4
1.55421E+12,-9.437943,0.4782418,2.3840263,-0.05965481,0.001065265,-0.03195793,10.14,44.16,-29.94,4
1.55421E+12,-9.3421755,0.38726214,2.3888147,-0.058589544,0.004261058,-0.02876214,10.26,44.1,-29.94,4
1.55421E+12,-9.346964,0.46387658,2.4702177,-0.06178534,0.003195793,-0.02876214,10.32,43.98,-29.94,4
1.55421E+12,-9.390059,0.3489549,2.3888147,-0.070307456,0.010652645,-0.03089267,10.38,43.86,-29.94,4
1.55421E+12,-9.399636,0.44472298,2.441487,-0.082025364,0.013848438,-0.025566347,10.44,43.74,-30.06,4
1.55421E+12,-9.370906,0.44472298,2.3983915,-0.084155895,0.018109497,-0.023435818,10.5,43.62,-30.12,4
1.55421E+12,-9.32781,0.39683893,2.417545,-0.084155895,0.02130529,-0.029827405,10.5,43.44,-30.18,4
1.55421E+12,-9.385271,0.3441665,2.532467,-0.083090626,0.02130529,-0.027696876,10.44,43.32,-30.24,4
1.55421E+12,-9.3421755,0.3728969,2.2930467,-0.08948222,0.020240024,-0.027696876,10.32,43.26,-30.24,4
1.55421E+12,-9.409213,0.3298013,2.4079683,-0.094808534,0.018109497,-0.033023197,10.2,43.26,-30.18,4
1.55421E+12,-9.351752,0.3489549,2.369661,-0.099069595,0.012783174,-0.03089267,10.14,43.32,-30.18,4
1.55421E+12,-9.433155,0.27234045,2.5037365,-0.10013486,0.00958738,-0.023435818,10.02,43.38,-30.12,4
1.55421E+12,-9.399636,0.26276365,2.4558525,-0.09054748,0.002130529,-0.026631612,9.96,43.38,-30,4
1.55421E+12,-9.481039,0.3824737,2.321777,-0.07669904,-0.004261058,-0.026631612,9.9,43.44,-29.94,4
1.55421E+12,-9.370906,0.3585317,2.4558525,-0.07243799,-0.008522116,-0.026631612,9.96,43.44,-29.82,4
1.55421E+12,-9.3421755,0.3537433,2.460641,-0.083090626,-0.004261058,-0.029827405,9.96,43.5,-29.76,4
1.55421E+12,-9.3661175,0.29628247,2.4366987,-0.0958738,-0.003195793,-0.029827405,10.02,43.56,-29.76,4
1.55421E+12,-9.409213,0.22924481,2.4462755,-0.083090626,-0.003195793,-0.027696876,10.08,43.68,-29.7,4
1.55421E+12,-9.370906,0.29628247,2.4462755,-0.058589544,-0.003195793,-0.02876214,10.14,43.8,-29.7,4
1.55421E+12,-9.385271,0.28670564,2.498948,-0.043675844,-0.001065265,-0.027696876,10.2,43.92,-29.7,4
1.55421E+12,-9.370906,0.3681085,2.484583,-0.03089267,0.001065265,-0.03195793,10.26,44.1,-29.64,4
1.55421E+12,-9.466674,0.23403321,2.379238,-0.023435818,-0.001065265,-0.036218993,10.32,44.28,-29.64,4
1.55421E+12,-9.380483,0.31543607,2.5276785,-0.015978966,-0.004261058,-0.037284255,10.32,44.4,-29.58,4
1.55421E+12,-9.399636,0.26276365,2.3169887,-0.003195793,-0.00958738,-0.040480047,10.38,44.52,-29.52,4
1.55421E+12,-9.380483,0.32022446,2.484583,0.00958738,-0.012783174,-0.04474111,10.38,44.58,-29.52,4
1.55421E+12,-9.457097,0.32022446,2.5133133,0.020240024,-0.014913702,-0.05006743,10.44,44.58,-29.52,4
1.55421E+12,-9.351752,0.3441665,2.393603,0.014913702,-0.013848438,-0.054328486,10.44,44.52,-29.52,4
1.55421E+12,-9.351752,0.31543607,2.3888147,0.010652645,-0.014913702,-0.051132694,10.44,44.52,-29.46,4
1.55421E+12,-9.375694,0.3537433,2.4223335,0.012783174,-0.015978966,-0.05006743,10.44,44.52,-29.46,4
1.55421E+12,-9.394848,0.27234045,2.4510639,0.027696876,-0.013848438,-0.05219796,10.5,44.52,-29.4,4
1.55421E+12,-9.399636,0.41599256,2.498948,0.03834952,-0.012783174,-0.049002163,10.56,44.64,-29.4,4
1.55421E+12,-9.394848,0.30585927,2.508525,0.04261058,-0.010652645,-0.043675844,10.62,44.76,-29.34,4
1.55421E+12,-9.399636,0.43514615,2.4223335,0.041545313,-0.007456851,-0.05006743,10.68,44.88,-29.34,4
1.55421E+12,-9.390059,0.40641573,2.40318,0.039414786,-0.005326322,-0.056459017,10.74,45,-29.28,4
1.55421E+12,-9.3661175,0.3776853,2.3840263,0.04261058,-0.003195793,-0.060720075,10.74,45.12,-29.22,4
1.55421E+12,-9.370906,0.27234045,2.3983915,0.051132694,-0.003195793,-0.06178534,10.8,45.24,-29.22,4
1.55421E+12,-9.370906,0.31543607,2.4079683,0.058589544,-0.005326322,-0.05965481,10.74,45.3,-29.22,4
1.55421E+12,-9.409213,0.3585317,2.40318,0.06711166,-0.002130529,-0.05965481,10.68,45.3,-29.28,4
1.55421E+12,-9.337387,0.32022446,2.3505075,0.070307456,-0.004261058,-0.06178534,10.62,45.3,-29.28,4
1.55421E+12,-9.375694,0.3537433,2.4462755,0.07137272,-0.005326322,-0.060720075,10.56,45.24,-29.28,4
1.55421E+12,-9.308656,0.3441665,2.321777,0.07669904,-0.006391587,-0.06391586,10.56,45.18,-29.28,4
1.55421E+12,-9.361329,0.32022446,2.4797945,0.083090626,-0.00958738,-0.06711166,10.5,45.06,-29.28,4
1.55421E+12,-9.356541,0.3728969,2.546832,0.08735169,-0.011717909,-0.070307456,10.5,45,-29.34,4
1.55421E+12,-9.375694,0.3633201,2.546832,0.08948222,0,-0.07243799,10.44,44.94,-29.34,4
1.55421E+12,-9.428367,0.3537433,2.556409,0.09054748,0.002130529,-0.066046394,10.38,44.88,-29.34,4
1.55421E+12,-9.409213,0.40162733,2.4797945,0.10013486,0.003195793,-0.068176925,10.32,44.82,-29.34,4
1.55421E+12,-9.509769,0.41120413,2.5516205,0.112918034,0.002130529,-0.07669904,10.32,44.76,-29.34,4
1.55421E+12,-9.490616,0.3298013,2.28347,0.128897,-0.004261058,-0.082025364,10.32,44.76,-29.4,4
1.55421E+12,-9.361329,0.3489549,2.3505075,0.128897,-0.004261058,-0.07882957,10.26,44.76,-29.46,4
1.55421E+12,-9.457097,0.3298013,2.4941597,0.113983296,-0.001065265,-0.07563378,10.2,44.76,-29.52,4
1.55421E+12,-9.414001,0.29628247,2.355296,0.12357068,0.002130529,-0.068176925,10.2,44.76,-29.64,4
1.55421E+12,-9.3661175,0.27712885,2.417545,0.14807177,0.003195793,-0.06711166,10.2,44.7,-29.7,4
1.55421E+12,-9.452309,0.30107087,2.5037365,0.16724652,-0.003195793,-0.07350325,10.2,44.7,-29.76,4
1.55421E+12,-9.23683,0.40641573,2.5133133,0.17150758,-0.002130529,-0.0777643,10.2,44.64,-29.82,4
1.55421E+12,-9.356541,0.3633201,2.369661,0.16831179,0,-0.084155895,10.2,44.58,-29.88,4
1.55421E+12,-9.313444,0.3441665,2.508525,0.17257284,0.002130529,-0.08841695,10.26,44.58,-29.94,4
1.55421E+12,-9.370906,0.25318682,2.475006,0.20026971,0.002130529,-0.09267801,10.26,44.52,-30,4
1.55421E+12,-9.275137,0.30107087,2.4893713,0.22370553,0.001065265,-0.099069595,10.32,44.46,-30,4
1.55421E+12,-9.375694,0.29628247,2.4797945,0.24714136,-0.001065265,-0.1107875,10.32,44.4,-30,4
1.55421E+12,-9.337387,0.3824737,2.3983915,0.25246766,-0.003195793,-0.11717909,10.38,44.4,-30,4
1.55421E+12,-9.3182335,0.26755205,2.52289,0.24394555,-0.002130529,-0.11930962,10.38,44.4,-30,4
1.55421E+12,-9.390059,0.3250129,2.393603,0.24394555,-0.008522116,-0.11717909,10.38,44.34,-30,4
1.55421E+12,-9.399636,0.31064767,2.5372553,0.2545982,-0.006391587,-0.11930962,10.44,44.34,-30.12,4
1.55421E+12,-9.370906,0.3824737,2.498948,0.26205507,-0.006391587,-0.12037488,10.44,44.34,-30.24,4
1.55421E+12,-9.380483,0.40162733,2.2930467,0.26844665,-0.001065265,-0.11824436,10.44,44.28,-30.36,4
1.55421E+12,-9.375694,0.3824737,2.345719,0.2727077,0.002130529,-0.11611383,10.44,44.22,-30.54,4
1.55421E+12,-9.409213,0.42556936,2.3983915,0.28655612,0.005326322,-0.113983296,10.44,44.16,-30.72,4
1.55421E+12,-9.370906,0.43514615,2.297835,0.28229508,0.013848438,-0.1107875,10.32,44.04,-30.84,4
1.55421E+12,-9.356541,0.44472298,2.3888147,0.26205507,0.014913702,-0.10439592,10.2,43.86,-31.02,4
1.55421E+12,-9.404425,0.46387658,2.3169887,0.24607609,0.01917476,-0.10333065,10.14,43.74,-31.2,4
1.55421E+12,-9.404425,0.46387658,2.4079683,0.23648871,0.02130529,-0.10333065,10.02,43.56,-31.26,4
1.55421E+12,-9.3661175,0.46387658,2.4223335,0.23861924,0.018109497,-0.10439592,9.9,43.44,-31.38,4
1.55421E+12,-9.437943,0.47345337,2.4558525,0.24607609,0.022370555,-0.10333065,9.78,43.32,-31.56,4
1.55421E+12,-9.385271,0.46866497,2.379238,0.24820662,0.014913702,-0.10546118,9.66,43.14,-31.74,4
1.55421E+12,-9.399636,0.31543607,2.28347,0.24181503,0.012783174,-0.111852765,9.54,43.02,-31.92,4
1.55421E+12,-9.370906,0.43514615,2.1877017,0.23435818,0.008522116,-0.11717909,9.54,42.9,-32.1,4
1.55421E+12,-9.332599,0.3250129,2.3744495,0.22264028,0.007456851,-0.1257012,9.48,42.78,-32.34,4
1.55421E+12,-9.390059,0.3441665,2.52289,0.21624869,0.011717909,-0.13102753,9.48,42.66,-32.52,4
1.55421E+12,-9.3182335,0.27234045,2.4366987,0.21518342,0.012783174,-0.13422333,9.48,42.48,-32.76,4
1.55421E+12,-9.375694,0.3393781,2.4510639,0.22370553,0.013848438,-0.14168017,9.48,42.36,-32.94,4
1.55421E+12,-9.294291,0.43993455,2.28347,0.22264028,0.011717909,-0.13954964,9.48,42.24,-33,4
1.55421E+12,-9.337387,0.3776853,2.3888147,0.19920446,0.010652645,-0.128897,9.48,42.18,-33.06,4
1.55421E+12,-9.452309,0.3728969,2.2547395,0.16937704,0.026631612,-0.113983296,9.48,42.12,-33.12,4
1.55421E+12,-9.399636,0.41599256,2.331354,0.16085494,0.029827405,-0.10226539,9.42,42.12,-33.12,4
1.55421E+12,-9.44752,0.4830302,2.2403743,0.15446335,0.029827405,-0.099069595,9.42,42.12,-33.18,4
1.55421E+12,-9.433155,0.41599256,2.2164323,0.13635385,0.03089267,-0.099069595,9.42,42.06,-33.18,4
1.55421E+12,-9.404425,0.46866497,2.2164323,0.10226539,0.034088463,-0.09267801,9.42,42,-33.24,4
1.55421E+12,-9.404425,0.3441665,2.3600843,0.066046394,0.035153728,-0.08628642,9.42,41.94,-33.24,4
1.55421E+12,-9.476251,0.3776853,2.345719,0.041545313,0.041545313,-0.07243799,9.42,41.82,-33.3,4
1.55421E+12,-9.428367,0.3537433,2.3361423,0.033023197,0.04261058,-0.05965481,9.42,41.7,-33.3,4
1.55421E+12,-9.457097,0.3537433,2.321777,0.034088463,0.04261058,-0.053263225,9.42,41.58,-33.3,4
1.55421E+12,-9.433155,0.41120413,2.2786815,0.025566347,0.039414786,-0.051132694,9.36,41.52,-33.3,4
1.55421E+12,-9.452309,0.3824737,2.178125,-0.001065265,0.036218993,-0.0479369,9.3,41.4,-33.36,4
1.55421E+12,-9.552865,0.3776853,2.3983915,-0.026631612,0.036218993,-0.043675844,9.24,41.34,-33.42,4
1.55421E+12,-9.500193,0.2100912,2.2068555,-0.03089267,0.035153728,-0.03834952,9.18,41.34,-33.48,4
1.55421E+12,-9.514558,0.09995792,2.3265655,-0.024501082,0.033023197,-0.034088463,9.06,41.34,-33.6,4
1.55421E+12,-9.509769,0.3633201,2.28347,-0.014913702,0.026631612,-0.022370555,9,41.28,-33.72,4
1.55421E+12,-9.562442,0.38726214,2.0967221,-0.024501082,0.024501082,-0.015978966,8.94,41.22,-33.84,4
1.55421E+12,-9.452309,0.3250129,2.3744495,-0.03089267,0.025566347,-0.013848438,8.94,41.16,-33.9,4
1.55421E+12,-9.461885,0.3298013,2.1637597,-0.040480047,0.029827405,-0.008522116,8.94,41.22,-34.02,4
1.55421E+12,-9.485827,0.3393781,2.178125,-0.04580637,0.04261058,-0.011717909,8.94,41.22,-34.02,4
1.55421E+12,-9.437943,0.41599256,2.130241,-0.0479369,0.0479369,-0.022370555,9,41.28,-34.02,4
1.55421E+12,-9.399636,0.38726214,1.9578584,-0.05752428,0.05752428,-0.029827405,9.12,41.28,-33.96,4
1.55421E+12,-9.390059,0.38726214,1.9961656,-0.06711166,0.058589544,-0.026631612,9.18,41.34,-33.9,4
1.55421E+12,-9.3182335,0.3393781,2.1206641,-0.07669904,0.05539375,-0.03089267,9.3,41.4,-33.84,4
1.55421E+12,-9.251195,0.32022446,1.929128,-0.08628642,0.046871636,-0.037284255,9.36,41.46,-33.78,4
1.55421E+12,-9.375694,0.3441665,1.977012,-0.08841695,0.04474111,-0.03834952,9.42,41.52,-33.72,4
1.55421E+12,-9.370906,0.18614918,1.977012,-0.10333065,0.040480047,-0.039414786,9.48,41.52,-33.66,4
1.55421E+12,-9.466674,0.26276365,2.0153193,-0.1257012,0.039414786,-0.04474111,9.54,41.52,-33.66,4
1.55421E+12,-9.351752,0.31064767,2.0248961,-0.14168017,0.033023197,-0.05006743,9.6,41.52,-33.6,4
1.55421E+12,-9.461885,0.25797522,1.9434932,-0.14274544,0.02130529,-0.068176925,9.6,41.52,-33.6,4
1.55421E+12,-9.481039,0.23882163,2.144606,-0.14274544,0.00958738,-0.07669904,9.6,41.52,-33.48,4
1.55421E+12,-9.514558,0.13826515,2.1110873,-0.15978967,-0.001065265,-0.080960095,9.6,41.58,-33.42,4
1.55421E+12,-9.457097,0.037708677,2.202067,-0.17576863,-0.002130529,-0.07563378,9.6,41.7,-33.3,4
1.55421E+12,-9.495404,0.13347675,2.2691047,-0.17150758,-0.002130529,-0.066046394,9.6,41.76,-33.24,4
1.55421E+12,-9.591172,0.13347675,2.168548,-0.1555286,0.001065265,-0.053263225,9.66,41.88,-33.12,4
1.55421E+12,-9.643845,0.19093758,2.2212207,-0.14061491,0.008522116,-0.043675844,9.66,41.94,-33,4
1.55421E+12,-9.576807,0.22924481,2.0775685,-0.14168017,0.022370555,-0.03195793,9.66,42.06,-32.94,4
1.55421E+12,-9.500193,0.2100912,2.0871453,-0.14807177,0.03089267,-0.020240024,9.66,42.12,-32.88,4
1.55421E+12,-9.5385,0.11911154,1.857302,-0.15233281,0.041545313,-0.00958738,9.66,42.24,-32.88,4
1.55421E+12,-9.471462,0.26755205,1.929128,-0.14807177,0.05006743,0.003195793,9.66,42.3,-32.82,4
1.55421E+12,-9.457097,0.23882163,2.0488381,-0.14168017,0.058589544,0.010652645,9.72,42.3,-32.82,4
1.55421E+12,-9.404425,0.28670564,2.0440497,-0.13315806,0.056459017,0.014913702,9.72,42.36,-32.64,4
1.55421E+12,-9.442732,0.24361002,2.010531,-0.13315806,0.05752428,0.012783174,9.72,42.36,-32.52,4
1.55421E+12,-9.457097,0.23403321,2.0296845,-0.13954964,0.051132694,0.013848438,9.72,42.42,-32.4,4
1.55421E+12,-9.461885,0.23882163,1.977012,-0.15020229,0.04474111,0.011717909,9.72,42.48,-32.22,4
1.55421E+12,-9.461885,0.3250129,1.9961656,-0.16085494,0.034088463,0.007456851,9.72,42.54,-32.1,4
1.55421E+12,-9.423578,0.32022446,1.9674352,-0.17257284,0.03089267,0.008522116,9.72,42.6,-31.98,4
1.55421E+12,-9.452309,0.30107087,1.9003977,-0.18216023,0.03089267,0.00958738,9.72,42.72,-31.86,4
1.55421E+12,-9.485827,0.18136078,2.0967221,-0.19813919,0.03089267,0.005326322,9.72,42.84,-31.74,4
1.55421E+12,-9.653421,0.3298013,1.9003977,-0.21411815,0.035153728,0.00958738,9.72,42.96,-31.68,4
1.55421E+12,-9.548077,0.23882163,2.010531,-0.23009712,0.036218993,0.017044231,9.72,43.08,-31.62,4
1.55421E+12,-9.562442,0.2100912,2.0536265,-0.24394555,0.034088463,0.027696876,9.72,43.2,-31.56,4
1.55421E+12,-9.56723,0.25318682,1.8046296,-0.25353295,0.03834952,0.039414786,9.72,43.32,-31.44,4
1.55421E+12,-9.600749,0.219668,1.8908207,-0.27057716,0.03834952,0.05219796,9.72,43.44,-31.32,4
1.55421E+12,-9.524135,0.22924481,1.9147629,-0.28549087,0.041545313,0.06711166,9.72,43.5,-31.2,4
1.55421E+12,-9.610326,0.30107087,1.8381484,-0.3057309,0.0479369,0.07882957,9.78,43.56,-31.08,4
1.55421E+12,-9.509769,0.3441665,1.8046296,-0.32810146,0.05219796,0.082025364,9.78,43.68,-30.96,4
1.55421E+12,-9.619903,0.4878186,2.0248961,-0.33768883,0.056459017,0.08522116,9.84,43.74,-30.78,4
1.55421E+12,-9.500193,0.4830302,1.9961656,-0.34940675,0.0628506,0.08841695,9.96,43.8,-30.6,4
1.55421E+12,-9.504981,0.27712885,1.9099745,-0.35899413,0.060720075,0.09161274,10.08,43.86,-30.42,4
1.55421E+12,-9.490616,0.32022446,1.8716671,-0.35792887,0.05965481,0.09054748,10.2,43.86,-30.3,4
1.55421E+12,-9.56723,0.26276365,1.83336,-0.34834146,0.05539375,0.09054748,10.26,43.92,-30.12,4
1.55421E+12,-9.514558,0.25797522,1.8285716,-0.35579833,0.05006743,0.09267801,10.32,43.92,-30,4
1.55421E+12,-9.591172,0.11911154,1.809418,-0.37710363,0.046871636,0.10013486,10.44,43.98,-29.82,4
1.55421E+12,-9.586384,0.20530279,1.9722236,-0.386691,0.043675844,0.10546118,10.5,44.04,-29.64,4
1.55421E+12,-9.552865,0.31064767,2.0296845,-0.37390783,0.04261058,0.10865697,10.56,44.1,-29.52,4
1.55421E+12,-9.56723,0.31543607,1.881244,-0.36218992,0.04261058,0.10972224,10.56,44.16,-29.4,4
1.55421E+12,-9.5385,0.20530279,1.9626468,-0.34940675,0.04261058,0.10759171,10.62,44.22,-29.22,4
1.55421E+12,-9.414001,0.24361002,1.9099745,-0.34301516,0.04474111,0.10226539,10.62,44.28,-29.04,4
1.55421E+12,-9.581595,0.29149407,1.8620903,-0.3355583,0.041545313,0.099069595,10.68,44.4,-28.8,4
1.55421E+12,-9.619903,0.24361002,1.929128,-0.32170987,0.0479369,0.10226539,10.68,44.52,-28.56,4
1.55421E+12,-9.557653,0.25318682,1.8381484,-0.30786142,0.043675844,0.10333065,10.74,44.7,-28.32,4
1.55421E+12,-9.56723,0.32022446,1.9099745,-0.28229508,0.041545313,0.10333065,10.86,44.88,-27.96,4
1.55421E+12,-9.653421,0.26755205,1.8956091,-0.257794,0.033023197,0.10652645,10.98,45.06,-27.66,4
1.55421E+12,-9.595961,0.3441665,1.857302,-0.24501082,0.03089267,0.10333065,11.1,45.24,-27.36,4
1.55421E+12,-9.591172,0.3681085,1.8668787,-0.23329292,0.024501082,0.10226539,11.22,45.42,-27.18,4
1.55421E+12,-9.667787,0.3633201,1.8860323,-0.221575,0.017044231,0.099069595,11.28,45.54,-27,4
1.55421E+12,-9.701305,0.3585317,1.9147629,-0.2066613,0.015978966,0.0958738,11.4,45.72,-26.82,4
1.55421E+12,-9.624691,0.46387658,1.857302,-0.20133498,0.017044231,0.0958738,11.46,45.78,-26.7,4
1.55421E+12,-9.648633,0.46387658,1.7950528,-0.19068234,0.027696876,0.09267801,11.52,45.72,-26.52,4
1.55421E+12,-9.854534,0.45429978,1.7423803,-0.16831179,0.033023197,0.096939065,11.58,45.66,-26.34,4
1.55421E+12,-9.89763,0.4830302,1.9003977,-0.14061491,0.041545313,0.10546118,11.64,45.6,-26.22,4
1.55421E+12,-9.77792,0.53570265,1.7663223,-0.11824436,0.040480047,0.10652645,11.64,45.48,-26.04,4
1.55421E+12,-9.634268,0.492607,1.7663223,-0.10226539,0.037284255,0.10013486,11.7,45.36,-25.92,4
1.55421E+12,-9.758766,0.6027403,1.8142064,-0.09374327,0.029827405,0.09374327,11.76,45.3,-25.8,4
1.55421E+12,-9.667787,0.5883751,1.7184383,-0.10013486,0.023435818,0.096939065,11.82,45.18,-25.68,4
1.55421E+12,-9.662998,0.6937199,1.6274586,-0.113983296,0.022370555,0.099069595,11.88,45.12,-25.5,4
1.55421E+12,-9.572019,0.5979519,1.6849195,-0.128897,0.029827405,0.10652645,11.94,45.06,-25.44,4
1.55421E+12,-9.533711,0.6314707,1.6130934,-0.12250541,0.033023197,0.10865697,12,45.06,-25.38,4
1.55421E+12,-9.3661175,0.7224504,1.6849195,-0.10759171,0.033023197,0.10439592,12,45,-25.32,4
1.55421E+12,-9.303867,0.6362591,1.6514006,-0.094808534,0.036218993,0.096939065,12,45,-25.26,4
1.55421E+12,-9.409213,0.65541273,1.4502877,-0.094808534,0.035153728,0.09054748,12.06,45,-25.2,4
1.55421E+12,-9.543288,0.64583594,1.4885949,-0.098004326,0.02876214,0.0777643,12.12,45,-25.02,4
1.55421E+12,-9.653421,0.66498953,1.4359225,-0.113983296,0.008522116,0.07243799,12.18,45,-24.9,4
1.55421E+12,-9.619903,0.6075287,1.4167689,-0.13209279,-0.023435818,0.07137272,12.18,45,-24.78,4
1.55421E+12,-9.619903,0.5117606,1.5316905,-0.15020229,-0.06498113,0.068176925,12.24,45,-24.66,4
1.55421E+12,-9.500193,0.3776853,1.5652094,-0.1555286,-0.08841695,0.05965481,12.36,44.94,-24.54,4
1.55421E+12,-9.323022,0.53570265,1.6657659,-0.14168017,-0.10865697,0.05006743,12.36,44.94,-24.42,4
1.55421E+12,-9.3182335,0.45429978,1.7615339,-0.11611383,-0.10439592,0.04261058,12.54,44.94,-24.36,4
1.55421E+12,-9.14585,0.5883751,1.8620903,-0.10439592,-0.09374327,0.023435818,12.6,44.94,-24.36,4
1.55421E+12,-9.021352,0.6171055,1.9818004,-0.07137272,-0.06711166,-0.012783174,12.72,45,-24.36,4
1.55421E+12,-8.944737,0.53091425,2.082357,-0.013848438,-0.043675844,-0.07456851,12.78,45,-24.36,4
1.55421E+12,-8.935161,0.53091425,2.0919337,0.07563378,-0.018109497,-0.14807177,12.9,45,-24.36,4
1.55421E+12,-8.829816,0.41599256,1.9722236,0.18535602,0,-0.21624869,12.96,45,-24.3,4
1.55421E+12,-8.815451,0.31543607,1.7950528,0.29188246,0.018109497,-0.27377295,13.02,44.94,-24.3,4
1.55421E+12,-8.7292595,0.28670564,1.6226702,0.37071204,0.035153728,-0.3206446,13.08,44.94,-24.3,4
1.55421E+12,-8.604761,0.25797522,1.608305,0.4293016,0.06178534,-0.36112466,13.08,44.94,-24.36,4
1.55421E+12,-8.485051,0.29149407,1.6035166,0.46339005,0.09374327,-0.3685815,13.08,44.88,-24.36,4
1.55421E+12,-8.628703,0.41120413,1.2587515,0.49215218,0.12676647,-0.3387541,13.02,44.88,-24.36,4
1.55421E+12,-8.820239,0.43993455,1.2635399,0.51984906,0.15126756,-0.29614353,13.02,44.88,-24.42,4
1.55421E+12,-9.308656,0.57400984,1.3497312,0.56245965,0.17470337,-0.25246766,13.02,44.88,-24.48,4
1.55421E+12,-9.854534,0.6697779,1.1007342,0.608266,0.18855181,-0.19281286,12.96,44.88,-24.6,4
1.55421E+12,-10.491392,0.76075757,1.1486182,0.6402239,0.18642128,-0.13422333,12.9,44.94,-24.66,4
1.55421E+12,-11.238382,0.8086416,1.1917139,0.6668556,0.17576863,-0.040480047,12.84,44.94,-24.78,4
1.55421E+12,-11.60709,0.6841431,1.0145429,0.68176925,0.1555286,0.046871636,12.72,44.94,-24.84,4
1.55421E+12,-11.477803,0.65062433,1.2060791,0.68176925,0.12250541,0.09054748,12.66,44.88,-25.02,4
