TimeStamp,Ax,Ay,Az,Gx,Gy,Gz,Mx,My,Mz
1554117181393,-8.319252,-3.8019924,3.2345665,0.11504856,0.008522116,-0.099069595,114.0,21.54,20.94
1554117181414,-8.222287,-3.8025907999999995,3.3183637000000004,0.080960095,-0.004261058,-0.1107875,113.94,21.54,20.94
1554117181433,-8.212111,-3.9689879999999995,3.3237504999999996,-0.024501082,-0.01917476,-0.09374327,113.88,21.6,20.94
1554117181454,-8.292916,-4.1216183,3.2806550000000003,-0.12570119999999999,-0.04474111,-0.07669904,113.82,21.66,20.88
1554117181474,-8.489241,-4.120421,3.2249897,-0.1587244,-0.08522116,-0.020240024,113.76,21.66,20.88
1554117181494,-8.438364,-4.1695023,3.0855273999999997,-0.084155895,-0.13422333,0.03834952,113.7,21.72,20.88
1554117181513,-8.391078,-4.0934862999999995,3.2626984,0.0031957934000000003,-0.13315806,0.06391586,113.7,21.72,20.82
1554117181533,-8.286332000000002,-3.8127663,3.5356373999999997,0.17257284,-0.111852765,0.07456851,113.64,21.72,20.82
1554117181554,-8.250419,-3.5057099999999997,3.6104562000000007,0.23009712,-0.08628642,0.080960095,113.64,21.72,20.76
1554117181574,-8.178593,-3.288436,3.6248214,0.21411815,-0.060720075,0.04474111,113.7,21.78,20.76
1554117181593,-8.334814999999999,-3.0693667000000002,3.4237084,0.11930962,-0.06391586,0.02130529,113.7,21.78,20.82
1554117181613,-8.407838,-3.2597055,3.1711202000000003,-0.0053263223,-0.094808534,0.03834952,113.76,21.84,20.82
1554117181634,-8.280945,-3.5410242,2.96881,-0.14168017,-0.14807177,0.022370555,113.82,21.84,20.82
1554117181654,-8.058883,-3.7337575,3.0550013,-0.22370553,-0.18535602,0.011717908999999999,113.88,21.9,20.88
1554117181674,-8.0367365,-3.7684733999999995,3.1411927000000004,-0.23329292,-0.17150758,-0.026631612000000002,113.94,21.96,20.88
1554117181694,-8.024167,-3.757101,3.4721910000000005,-0.27803403,-0.12037488,-0.004261058,114.0,21.96,20.88
1554117181714,-8.016983999999999,-4.0755300000000005,3.5326445,-0.30892670000000005,-0.11504856,0.027696876000000002,114.06,21.96,20.88
1554117181734,-7.924208999999999,-4.233547,3.217807,-0.27164245,-0.1107875,0.014913702,114.12,21.96,20.82
1554117181754,-7.9553337,-4.061165,3.3991678,-0.23435818,-0.082025364,0.0031957934000000003,114.18,21.9,20.76
1554117181774,-8.040925999999999,-4.144362999999999,3.447052,-0.18855181,-0.08628642,0.007456851,114.24,21.84,20.7
1554117181794,-7.958925,-4.152743,3.4063504,-0.14487597,-0.068176925,0.008522116,114.3,21.72,20.7
1554117181814,-8.009203,-4.107253,3.3028011,-0.10226539,-0.053263225,-0.0010652645,114.3,21.66,20.64
1554117181834,-8.099585000000001,-3.9731777000000004,3.4081461,-0.10439592,-0.004261058,-0.00958738,114.36,21.54,20.58
1554117181854,-8.116942,-4.152743,3.4721910000000005,-0.13741912,-0.017044231,-0.008522116,114.3,21.42,20.52
1554117181873,-7.9565306,-4.337096,3.3871968,-0.12996227,-0.03089267,-0.0053263223,114.3,21.24,20.52
1554117181893,-7.966706299999999,-4.147355999999999,3.3764230000000004,-0.04474111,-0.046871635999999994,-0.037284255,114.36,21.12,20.46
1554117181914,-8.025364,-3.9055413999999997,3.1735144,-0.0063915867,-0.06498113,-0.05219796,114.36,21.0,20.4
1554117181934,-7.997831,-4.086901999999999,3.2435447999999996,-0.080960095,-0.07456851,-0.058589544,114.42,20.94,20.4
1554117181954,-8.078635,-3.9677907999999995,3.3925837999999997,-0.12570119999999999,-0.049002163,-0.08628642,114.48,20.82,20.34
1554117181974,-8.04392,-4.177882,3.4105402999999996,-0.16192019,-0.040480047000000005,-0.07137272,114.48,20.76,20.34
1554117181993,-8.136096,-4.232949,3.2794578000000003,-0.18002969,-0.033023197000000004,-0.049002163,114.54,20.7,20.28
1554117182013,-8.162432,-4.334702,3.328539,-0.1470065,-0.036218993,-0.03089267,114.54,20.64,20.34
1554117182035,-8.120534,-4.210801999999999,3.4272997000000003,-0.04580637,-0.03195793,-0.03089267,114.6,20.64,20.34
1554117182054,-8.019978,-4.006098000000001,3.4733882000000005,0.037284255,-0.03089267,-0.039414786,114.6,20.64,20.4
1554117182073,-7.699153999999999,-3.9576154000000003,3.6762967000000004,0.096939065,0.0031957934000000003,-0.11504856,114.6,20.58,20.52
1554117182093,-7.839813,-3.6996403,3.4314894999999996,0.08841695,0.013848438000000001,-0.17150758,114.6,20.52,20.52
1554117182114,-8.06427,-3.5865142,3.168726,-0.004261058,0.027696876000000002,-0.18642128,114.54,20.4,20.58
1554117182133,-7.93618,-3.6966474000000002,3.0280666000000003,-0.18535602,0.008522116,-0.1470065,114.54,20.28,20.64
1554117182154,-7.8787193,-4.0797195,3.0400376000000002,-0.3898868,-0.004261058,-0.16724652,114.48,20.16,20.7
1554117182174,-7.826645399999999,-4.228758999999999,3.2136172999999997,-0.4878911,-0.0053263223,-0.21944448,114.48,20.04,20.76
1554117182193,-7.653065700000001,-4.010288,3.4793737,-0.47936899999999993,0.040480047000000005,-0.26205507,114.42,19.92,20.76
1554117182213,-7.73387,-3.7924154000000003,3.3979707,-0.44528055,0.080960095,-0.34514567,114.3,19.92,20.76
1554117182234,-7.667431,-3.9408559999999997,3.1573534,-0.50173956,0.10333065,-0.38775626,114.24,19.86,20.7
1554117182253,-7.554305,-4.2838254000000004,3.1130607000000006,-0.51984906,0.13741912,-0.46125950000000004,114.12,19.98,20.7
1554117182275,-7.479486,-4.5777135,3.068768,-0.44208476,0.17789917,-0.56459016,114.06,20.04,20.76
1554117182294,-7.654263,-5.006874,2.789245,-0.36751625,0.18322548,-0.60933125,114.0,20.16,20.76
1554117182314,-7.797915,-5.306748000000001,2.6437972000000003,-0.26525086,0.15339808,-0.628506,113.88,20.4,20.82
1554117182334,-7.9248075,-5.3606176,2.520496,-0.14168017,0.09587380000000001,-0.5933523,113.76,20.7,20.94
1554117182354,-8.106169,-5.3366755999999995,2.4851813,-0.02876214,0.022370555,-0.5305017,113.7,21.0,21.18
1554117182374,-8.140884,-5.5527525,2.4115596000000004,0.015978966,-0.12250541,-0.44101948,113.64,21.36,21.36
1554117182393,-8.067862,-5.6844335,2.4953567999999997,0.0063915867,-0.20453078,-0.37923414,113.58,21.72,21.6
1554117182414,-7.8625584,-5.697003,2.7617116000000004,-0.046871635999999994,-0.30360037,-0.29827404,113.52,22.08,21.84
1554117182433,-7.762002000000001,-5.755062000000001,2.9059622000000003,-0.06711166,-0.35473305,-0.25033715,113.46,22.5,22.02
1554117182453,-7.659051400000001,-5.8789620000000005,2.9358897,-0.047936900000000005,-0.37284255,-0.22370553,113.34,22.8,22.2
1554117182474,-7.387908,-5.897517,3.071761,0.047936900000000005,-0.34194988,-0.20559604,113.28,23.04,22.38
1554117182493,-7.2939353,-5.8059389999999995,3.156755,0.15233281,-0.29614353,-0.20879184,113.22,23.22,22.44
1554117182513,-7.2364745,-5.732916,3.2573112999999996,0.22264028,-0.25353295,-0.19281286,113.16,23.4,22.44
1554117182534,-7.165247,-5.6682725,3.2818519999999998,0.25672874,-0.2130529,-0.1587244,113.1,23.58,22.32
1554117182554,-7.056311,-5.652710400000001,3.2830489999999997,0.24927188,-0.1587244,-0.12996227,113.04,23.7,22.14
1554117182574,-7.0545154000000005,-5.535394,3.1639376,0.21731395,-0.10652645,-0.12144015,113.04,23.82,21.96
1554117182593,-7.1101804,-5.379173000000001,3.0945058,0.15020229,-0.068176925,-0.1107875,112.98,23.88,21.78
1554117182613,-7.1065892999999996,-5.389348,3.1016884,0.06924219,-0.04580637,-0.08948222,112.92,24.0,21.6
1554117182634,-7.049727000000001,-5.3540335,3.2291796,0.007456851,-0.022370555,-0.07243799,112.92,24.12,21.42
1554117182654,-7.033566,-5.306748000000001,3.317765,-0.034088463,0.0053263223,-0.06711166,112.8,24.24,21.18
1554117182674,-7.061698,-5.233725,3.3339260000000004,-0.07776430000000001,0.015978966,-0.07669904,112.74,24.42,21.0
1554117182694,-7.086836999999999,-5.297171,3.3584663999999997,-0.11717909,0.029827405,-0.098004326,112.74,24.48,20.94
1554117182714,-7.1263413,-5.3360769999999995,3.4225112999999996,-0.11717909,0.04580637,-0.13102753,112.68,24.6,20.82
1554117182733,-7.0820484,-5.358822,3.3943794,-0.09374327,0.06285059999999999,-0.15446335,112.62,24.66,20.76
1554117182754,-7.064092,-5.33488,3.3734303,-0.07776430000000001,0.08628642,-0.16831179,112.56,24.72,20.7
1554117182774,-7.120356,-5.33488,3.1920695,-0.09374327,0.101200126,-0.18642128,112.56,24.78,20.64
1554117182794,-7.1586633,-5.482123400000001,3.1118636000000004,-0.15126756,0.11717909,-0.18322548,112.5,24.84,20.64
1554117182813,-7.1790137000000005,-5.6940102999999995,3.09271,-0.20985709,0.13315806,-0.17470337,112.5,24.9,20.64
1554117182833,-7.170035400000001,-5.9052987,3.0992942,-0.23648871,0.14274544,-0.15765914,112.44,25.02,20.64
1554117182855,-7.273585000000001,-6.06571,3.1399956,-0.21837921,0.16192019,-0.12037488,112.44,25.08,20.76
1554117182873,-7.384915400000001,-6.129755,3.2243912,-0.14168017,0.15233281,-0.09161274,112.38,25.14,20.94
1554117182895,-7.325060000000001,-6.1219735,3.2094273999999996,-0.0010652645,0.10865697,-0.04261058,112.32,25.26,21.18
1554117182914,-7.298723700000001,-6.145916000000001,3.2213984,0.07563378,0.082025364,-0.01917476,112.32,25.44,21.36
1554117182934,-7.2873516,-6.039374,3.139397,0.14913702,0.04580637,-0.00958738,112.32,25.44,21.42
1554117182953,-7.398681599999999,-5.811326,3.027468,0.18535602,0.03089267,-0.0010652645,112.32,25.56,21.6
1554117182974,-7.4070616,-5.6096144,2.8981812000000002,0.15339808,0.010652645,0.033023197000000004,112.26,25.68,21.78
1554117182993,-7.290344,-5.5898623,2.8395232999999998,0.09587380000000001,0.008522116,0.049002163,112.26,25.74,21.9
1554117183013,-7.252037,-5.625177,2.866458,0.010652645,0.012783173500000002,0.05539375,112.2,25.74,22.02
1554117183034,-7.16405,-5.633556400000001,2.8921957000000003,-0.04580637,0.023435817999999997,0.060720075,112.2,25.8,22.02
1554117183054,-7.147290700000001,-5.6407394,3.0382418999999996,-0.037284255,0.037284255,0.07456851,112.14,25.74,22.08
1554117183075,-7.055712,-5.66528,3.1214404,0.041545313,0.049002163,0.07030745599999999,112.14,25.68,22.08
1554117183095,-6.9958572,-5.555745,3.1124623,0.15765914,0.06924219,0.03834952,112.08,25.62,22.02
1554117183114,-7.028179,-5.458181400000001,3.1262288,0.2428803,0.10759171,0.00958738,112.08,25.56,22.02
1554117183133,-7.0940194000000005,-5.3755812999999995,3.153762,0.28868666,0.15020229,-0.013848438000000001,112.02,25.5,22.02
1554117183153,-7.16405,-5.21517,3.0729580000000003,0.2876214,0.20026971,-0.029827405,112.02,25.44,21.96
1554117183174,-7.263409599999999,-5.2421045,2.9753942,0.21944448,0.27696875,-0.040480047000000005,112.02,25.44,21.96
1554117183193,-7.271190600000001,-5.1810527,2.9496564999999997,0.14913702,0.3270362,-0.049002163,112.02,25.44,21.9
1554117183214,-7.211933999999999,-5.2319293,2.9083563999999997,0.051132694000000006,0.38242993,-0.06178534,112.02,25.44,21.9
1554117183234,-7.169436999999999,-5.3360769999999995,2.8449101000000003,-0.0053263223,0.42930159999999995,-0.07456851,112.02,25.5,21.9
1554117183254,-7.2179193,-5.4917,2.830545,0.033023197000000004,0.45806372,-0.10865697,111.96,25.56,21.96
1554117183274,-7.283760000000001,-5.602432,2.6767175,0.14274544,0.47723848,-0.12463594,111.84,25.56,22.02
1554117183294,-7.413645699999999,-5.556343599999999,2.5240872000000003,0.21731395,0.46232477,-0.14061491,111.72,25.62,22.08
1554117183317,-7.5345526,-5.481525,2.27928,0.16937704,0.41225734,-0.16298546,111.54,25.68,22.2
1554117183334,-7.7464395,-5.3648076,2.1853075,0.040480047000000005,0.3206446,-0.17789917,111.42,25.68,22.32
1554117183354,-7.788338,-5.309142,2.1966799999999997,-0.08948222,0.19920446,-0.16618125,111.24,25.74,22.56
1554117183374,-7.8326306,-5.444414599999999,2.2056582000000002,-0.16405073,0.098004326,-0.13954964,111.12,25.86,22.74
1554117183394,-7.801506,-5.607819,2.2571337000000002,-0.17150758,0.018109497,-0.13102753,111.0,25.98,22.98
1554117183414,-7.688380199999999,-5.6509147,2.3169887000000005,-0.08841695,-0.023435817999999997,-0.1470065,110.88,26.16,23.22
1554117183433,-7.6943655,-5.6138043,2.3936029999999997,0.040480047000000005,-0.026631612000000002,-0.15233281,110.82,26.28,23.46
1554117183453,-7.703344,-5.647323,2.4169466,0.15765914,-0.03195793,-0.16192019,110.82,26.46,23.58
1554117183473,-7.6788034,-5.6138043,2.3157916000000003,0.21092236,-0.04261058,-0.17257284,110.76,26.58,23.76
1554117183495,-7.631517999999999,-5.655703,2.5013422999999997,0.24501082,-0.053263225,-0.19174760000000002,110.76,26.7,23.88
1554117183515,-7.581239699999999,-5.777209,2.6635494,0.3153183,-0.05965481,-0.18748654,110.7,26.76,23.94
1554117183535,-7.476493400000001,-5.841851999999999,2.6964695,0.35792887,-0.056459017,-0.1587244,110.7,26.82,23.94
1554117183554,-7.413645699999999,-5.7215432999999996,2.630629,0.28975195,-0.07882957,-0.14487597,110.7,26.94,23.88
1554117183574,-7.4256167,-5.601235,2.496554,0.11930962,-0.112918034,-0.13422333,110.64,27.06,23.82
1554117183594,-7.428011,-5.6030307,2.4774002999999998,-0.10333065,-0.1470065,-0.10226539,110.64,27.18,23.76
1554117183614,-7.3334399999999995,-5.7640405,2.6443958,-0.28868666,-0.17150758,-0.07669904,110.64,27.3,23.64
1554117183635,-7.201160000000001,-5.9705405,2.878429,-0.30679616,-0.17363810000000002,-0.056459017,110.58,27.54,23.52
1554117183653,-7.1670427,-6.021417,3.0178912,-0.22264028,-0.16618125,-0.05219796,110.58,27.6,23.46
1554117183673,-7.1808095000000005,-5.9160724,2.9454667999999997,-0.080960095,-0.16298546,-0.056459017,110.52,27.78,23.34
1554117183694,-7.2107368,-5.895722,2.8137856,-0.02130529,-0.17789917,-0.07456851,110.46,27.84,23.28
1554117183713,-7.178415299999999,-5.895123,2.7748797,0.014913702,-0.19281286,-0.09054748,110.34,27.78,23.22
1554117183734,-7.1592617,-5.909488,2.819771,0.004261058,-0.20133498,-0.10972224,110.28,27.78,23.22
1554117183754,-7.114370299999999,-5.897517,2.8191724,-0.040480047000000005,-0.20453078,-0.1438107,110.22,27.78,23.22
1554117183773,-7.128137,-5.977723,3.0412347,-0.08735169,-0.19707392,-0.17896444,110.16,27.72,23.16
1554117183794,-7.1006035999999995,-6.1489085999999995,3.163339,0.018109497,-0.19281286,-0.15446335,110.04,27.72,23.16
1554117183813,-7.013814,-6.1117983,3.0663737999999996,0.08841695,-0.16937704,-0.111852765,110.04,27.72,23.1
1554117183834,-6.8132997,-5.9998693,2.8161798,0.099069595,-0.112918034,-0.05006743,110.1,27.66,23.04
1554117183854,-6.7636199999999995,-5.872378299999999,2.6749218,0.07030745599999999,-0.07137272,-0.0031957934000000003,110.22,27.66,22.98
1554117183873,-6.7342906000000005,-5.8161144,2.6886885,-0.01917476,-0.018109497,0.07030745599999999,110.4,27.72,22.92
1554117183894,-6.6684504,-5.748478400000001,2.7856536,-0.11611383,0.013848438000000001,0.08841695,110.58,27.78,22.8
1554117183913,-6.7151369999999995,-5.771822,2.9454667999999997,-0.11717909,0.041545313,0.06178534,110.7,27.84,22.74
1554117183934,-6.765415700000001,-5.774814599999999,3.071761,-0.04580637,0.07243799,0.04261058,110.76,27.84,22.68
1554117183953,-6.853402,-5.606621700000001,2.9694088,0.084155895,0.09587380000000001,-0.00958738,110.94,27.96,22.56
1554117183974,-7.0066314,-5.5150437000000005,2.8850130000000003,0.07882957,0.084155895,-0.058589544,111.06,28.08,22.44
1554117183993,-7.1407065,-5.5617304,2.8502972,-0.013848438000000001,0.05219796,-0.08948222,111.06,28.2,22.38
1554117184013,-7.235875999999999,-5.7365074,2.9586349,-0.12570119999999999,0.012783173500000002,-0.1107875,111.0,28.26,22.38
1554117184034,-7.234678999999999,-5.934029,3.1777040000000003,-0.22690132,-0.027696876000000002,-0.14274544,110.94,28.32,22.32
1554117184054,-7.3208704,-6.149507,3.1555579,-0.21731395,-0.07030745599999999,-0.17576863,110.88,28.38,22.32
1554117184074,-7.33763,-6.2889695,3.1621417999999997,-0.15126756,-0.07030745599999999,-0.15978967,110.82,28.44,22.32
1554117184093,-7.2915410000000005,-6.305729,3.0125043,-0.037284255,-0.058589544,-0.11824436,110.82,28.5,22.32
1554117184113,-7.289746000000001,-6.1716533,2.8544869999999998,0.05539375,-0.03089267,-0.049002163,110.76,28.5,22.38
1554117184133,-7.2322845000000004,-6.0836663,2.7898436,0.07243799,-0.015978966,-0.00958738,110.7,28.5,22.38
1554117184154,-7.1610575,-5.854421599999999,2.7808652,0.049002163,0.0010652645,0.037284255,110.64,28.5,22.38
1554117184174,-7.117363,-5.6946087,2.6868927000000005,0.023435817999999997,0.004261058,0.056459017,110.64,28.5,22.38
1554117184194,-7.1029979999999995,-5.566519,2.6491842,0.0053263223,0.008522116,0.05219796,110.58,28.5,22.44
1554117184214,-7.1425023,-5.4803276,2.5875334999999997,-0.037284255,0.0053263223,0.023435817999999997,110.58,28.44,22.44
1554117184234,-7.2370734,-5.4917,2.5252842999999996,-0.11504856,-0.011717908999999999,-0.007456851,110.58,28.44,22.44
1554117184254,-7.1820064,-5.597045,2.5659857,-0.23009712,-0.03089267,-0.017044231,110.58,28.38,22.5
1554117184274,-7.125742999999999,-5.7227407,2.6701334,-0.314253,-0.04474111,-0.03089267,110.58,28.38,22.5
1554117184294,-7.162254300000001,-5.7813989999999995,2.6659436000000003,-0.37284255,-0.05965481,-0.03089267,110.58,28.32,22.56
1554117184314,-7.148487599999999,-5.8586116,2.4588451,-0.43995422,-0.083090626,-0.026631612000000002,110.58,28.26,22.56
1554117184334,-7.0581064,-5.967548000000001,2.4600422,-0.5411543000000001,-0.083090626,-0.024501082,110.64,28.26,22.62
1554117184354,-7.041946,-6.0381765,2.5019407000000005,-0.64555025,-0.08735169,-0.02876214,110.76,28.2,22.68
1554117184374,-6.9826894,-6.1866174,2.6018987,-0.69348717,-0.09054748,-0.02876214,110.82,28.08,22.8
1554117184394,-6.891710000000001,-6.2225304,2.6042929,-0.63915867,-0.08735169,-0.023435817999999997,110.88,27.96,22.86
1554117184414,-6.9485717000000005,-6.1806316,2.4594438,-0.5592638000000001,-0.06285059999999999,-0.023435817999999997,110.94,27.84,22.92
1554117184434,-7.031172,-6.0944405,2.2230163,-0.5049353,-0.05752428,-0.029827405,111.0,27.66,23.04
1554117184454,-7.029975,-6.075287,2.0452468,-0.46552056,-0.039414786,-0.04474111,111.06,27.48,23.16
1554117184474,-7.079654,-6.179435,2.059612,-0.44208476,-0.011717908999999999,-0.046871635999999994,111.12,27.24,23.34
1554117184493,-7.0006455999999995,-6.177639,2.180519,-0.43356264,-0.020240024,-0.04474111,111.12,26.88,23.58
1554117184513,-7.020397999999999,-6.217741999999999,2.0500352,-0.43356264,-0.03195793,-0.047936900000000005,111.06,26.46,23.94
1554117184535,-7.056909599999999,-6.257246,1.9195513,-0.45380265,-0.043675844000000005,-0.046871635999999994,111.0,26.04,24.18
1554117184554,-7.0880339999999995,-6.1955953,1.7926586,-0.51984906,-0.07669904,-0.05965481,111.0,25.68,24.48
1554117184573,-7.079654,-6.0986304,1.4951789,-0.6562029,-0.13635385,-0.080960095,110.94,25.38,24.78
1554117184593,-7.047333,-6.183026,1.3617021999999999,-0.8330368,-0.17576863,-0.082025364,110.88,25.08,25.08
1554117184614,-7.006033,-6.353613,1.411382,-0.9416938,-0.2066613,-0.08522116,110.82,24.78,25.26
1554117184633,-6.986878999999999,-6.306926,1.3718776000000001,-1.0141318000000001,-0.24820662,-0.096939065,110.82,24.6,25.44
1554117184653,-7.009025599999999,-6.0124393,1.2192471999999999,-1.1377025,-0.30999196,-0.111852765,110.82,24.48,25.56
1554117184674,-6.902483500000001,-6.147113,1.1719618,-1.4498249,-0.4016047,-0.098004326,110.82,24.36,25.62
1554117184694,-6.691195,-6.9904703999999995,1.5622166000000002,-1.5041533999999999,-0.4282363,-0.14061491,110.82,24.12,25.68
1554117184714,-6.7091517000000005,-7.541735000000001,1.8183962,-1.1195928999999998,-0.3568636,-0.18642128,110.88,23.76,25.68
1554117184734,-6.731298,-7.741650999999999,1.8034325,-0.6040049,-0.23116238,-0.15659387,110.88,23.34,25.74
1554117184753,-6.6774287,-7.813477000000001,1.8028339,-0.23435818,-0.14913702,-0.14913702,110.94,22.92,25.86
1554117184774,-6.7767878,-7.751228,1.7753005000000002,0.20240025,-0.020240024,-0.16405073,110.94,22.44,25.92
1554117184793,-6.837839999999999,-7.455544000000001,1.6298528,0.45273739999999996,0.068176925,-0.12676647,111.0,21.96,26.04
1554117184813,-6.941988,-7.1448965,1.3892354999999998,0.5251754,0.096939065,-0.083090626,111.0,21.54,26.1
1554117184834,-7.0263834,-6.920439999999999,1.1845313,0.48682585,0.08841695,-0.054328485999999995,111.0,21.18,26.22
1554117184853,-6.9605426999999995,-6.827665,1.0761937,0.3536678,0.05752428,-0.010652645,111.0,20.94,26.28
1554117184874,-6.905475999999999,-6.7480574,1.110311,0.23861924,0.015978966,-0.011717908999999999,111.0,20.82,26.34
1554117184894,-6.8450226999999995,-6.707954400000001,1.2084733,0.2130529,-0.007456851,-0.026631612000000002,111.0,20.82,26.34
1554117184914,-6.752846000000001,-6.743867999999999,1.3964181,0.25140239999999997,-0.018109497,-0.034088463,110.94,20.88,26.34
1554117184934,-6.7480574,-6.658275,1.292869,0.33129725,-0.027696876000000002,-0.06711166,110.94,21.0,26.34
1554117184953,-6.785766000000001,-6.4547677000000006,1.2324153,0.36325517,-0.02876214,-0.09267801,110.94,21.06,26.28
1554117184973,-6.766014,-6.3464303,1.1959038,0.33662358,-0.03834952,-0.10333065,110.88,21.18,26.28
1554117184993,-6.7630215,-6.3769565,1.228824,0.23861924,-0.058589544,-0.11611383,110.94,21.24,26.22
1554117185014,-6.801927,-6.3584013,1.3533225,0.07563378,-0.06285059999999999,-0.12676647,110.94,21.42,26.22
1554117185033,-6.800729799999999,-6.411672,1.4107834,-0.0053263223,-0.06498113,-0.128897,111.0,21.6,26.16
1554117185054,-6.7624226,-6.5230026,1.4065934,-0.07563378,-0.07669904,-0.18002969,111.06,21.72,26.16
1554117185074,-6.805517999999999,-6.615778,1.3994108,-0.12037488,-0.098004326,-0.22583607,111.06,21.96,26.16
1554117185094,-6.7480574,-6.542155999999999,1.6448165000000001,-0.1438107,-0.10759171,-0.24927188,111.12,22.2,26.16
1554117185113,-6.725312700000001,-6.8522053,1.6603789,-0.11824436,-0.12037488,-0.23435818,111.12,22.44,26.1
1554117185133,-6.669647,-7.077858999999999,1.7968484,-0.111852765,-0.09161274,-0.18642128,111.18,22.74,26.1
1554117185154,-6.6720414,-7.1975690000000005,1.650802,-0.18216023,-0.05539375,-0.111852765,111.18,22.98,26.04
1554117185173,-6.595427000000001,-7.3166804,1.8219875,-0.27590349999999997,0.002130529,-0.04474111,111.18,23.16,26.04
1554117185194,-6.5666966,-7.36217,1.8489223000000001,-0.20453078,0.02876214,-0.036218993,111.18,23.28,25.98
1554117185214,-6.5427547,-7.2831616,1.6831238000000002,-0.043675844000000005,0.07563378,-0.03834952,111.18,23.4,25.98
1554117185234,-6.586448700000001,-7.059902,1.6346412000000001,0.09161274,0.12144015,-0.047936900000000005,111.18,23.46,25.92
1554117185253,-6.5960255000000005,-6.8522053,1.4556746,0.14913702,0.112918034,-0.06391586,111.18,23.4,25.92
1554117185273,-6.700772,-6.607398,1.039682,0.12676647,0.08522116,-0.08522116,111.24,23.4,25.92
1554117185294,-6.841431,-6.5164184999999994,1.1294646000000002,0.0053263223,0.05965481,-0.07776430000000001,111.18,23.34,25.86
1554117185313,-6.775591,-6.654683599999999,1.7633294999999998,-0.09587380000000001,0.029827405,-0.03089267,111.18,23.28,25.86
1554117185334,-6.796540299999999,-6.9342065,1.6352396999999999,-0.08628642,-0.037284255,0.0031957934000000003,111.12,23.22,25.92
1554117185354,-6.7743936,-6.9503675000000005,1.2264298,-0.033023197000000004,-0.083090626,-0.020240024,111.06,23.16,25.98
1554117185374,-6.7522473,-6.916848700000001,1.1330559,0.0053263223,-0.08948222,-0.049002163,111.0,23.16,25.98
1554117185393,-6.7881603,-6.9820905,1.4131776000000003,0.07882957,-0.10333065,-0.047936900000000005,110.94,23.16,25.98
1554117185413,-6.767810000000001,-7.016208,1.5304934,0.14487597,-0.13422333,-0.040480047000000005,110.88,23.16,26.04
1554117185434,-6.6044054,-6.931214,1.6394296000000002,0.17363810000000002,-0.14913702,-0.035153727999999995,110.94,23.16,26.04
1554117185453,-6.4960675000000005,-6.893505,2.0560207,0.23009712,-0.14807177,-0.05006743,110.94,23.16,26.1
1554117185474,-6.577471000000001,-6.9515649999999996,1.7328035,0.23755397,-0.16298546,-0.013848438000000001,111.0,23.16,26.04
1554117185494,-6.542155999999999,-6.7719994,1.5945383,0.19068234,-0.18216023,0.017044231,111.06,23.16,26.04
1554117185514,-6.364985,-6.787561999999999,1.4305356000000002,0.16085494,-0.18642128,-0.008522116,111.12,23.16,25.98
1554117185533,-6.701969,-6.6510925,2.2601264,0.13209279,0.036218993,-0.026631612000000002,111.18,23.16,25.86
1554117185554,-6.659472,-6.4206505,2.532467,0.14168017,0.10546118,0.01917476,111.24,23.22,25.68
1554117185574,-6.962936999999999,-6.323685,1.8082208999999998,0.06178534,0.058589544,-0.00958738,111.24,23.28,25.56
1554117185594,-7.1730285,-6.3871317,1.3952209999999998,-0.112918034,0.004261058,-0.033023197000000004,111.24,23.4,25.44
1554117185613,-7.2741833,-6.603208,1.2318168,-0.29614353,-0.07882957,-0.015978966,111.3,23.58,25.38
1554117185633,-7.184400599999999,-6.7845693,1.2384008,-0.4644553,-0.16085494,0.0,111.3,23.7,25.26
1554117185654,-7.0832458,-6.977302000000001,1.4604629999999998,-0.63915867,-0.24501082,0.012783173500000002,111.3,23.82,25.2
1554117185674,-6.9503675000000005,-7.330447,1.7543513,-0.6327670999999999,-0.29294774,0.033023197000000004,111.3,23.88,25.14
1554117185695,-6.692991,-7.455544000000001,1.8231846,-0.4889564,-0.31318775,0.025566347000000003,111.3,23.88,25.14
1554117185714,-6.633734,-7.4884644,1.8674773,-0.26312032,-0.28655612,0.013848438000000001,111.3,23.76,25.08
1554117185734,-6.5517330000000005,-7.5734587,1.7328035,-0.018109497,-0.27377295,0.051132694000000006,111.3,23.46,25.08
1554117185754,-6.4002995,-7.5106106,1.763928,0.16085494,-0.24074976,0.07350325,111.24,23.1,25.02
1554117185773,-6.332065,-7.2322845000000004,1.6915035,0.21944448,-0.23435818,0.056459017,111.24,22.74,24.9
1554117185794,-6.347626999999999,-7.056311,1.6741456000000001,0.17576863,-0.24501082,0.05219796,111.3,22.44,24.84
1554117185814,-6.129156,-6.993463,1.7028759999999998,0.09161274,-0.20240025,0.07882957,111.3,22.08,24.72
1554117185834,-6.1249666,-7.038354400000001,1.9117701,0.07882957,-0.11930962,0.101200126,111.36,21.78,24.66
1554117185854,-6.0920463,-7.129334,1.927931,0.10972224,-0.07989483,0.12144015,111.48,21.6,24.54
1554117185873,-6.157287999999999,-7.032967599999999,2.0548236,0.19707392,0.010652645,0.101200126,111.6,21.48,24.36
1554117185893,-6.350619999999999,-6.8091097000000005,1.8914193,0.20772657,0.040480047000000005,0.098004326,111.72,21.42,24.18
1554117185913,-6.3823433,-6.733692,1.6669630000000002,0.16831179,0.034088463,0.09161274,111.84,21.48,24.12
1554117185934,-6.294955,-6.817489,1.8273745,0.10546118,0.056459017,0.07989483,111.96,21.54,24.0
1554117185954,-6.341043,-6.7923503,1.9752164,0.09587380000000001,0.07882957,0.02130529,112.08,21.54,23.88
1554117185973,-6.4547677000000006,-6.6516910000000005,2.0608091,0.08522116,0.09054748,-0.004261058,112.2,21.54,23.76
1554117185993,-6.455965,-6.610390700000001,1.9919758,0.049002163,0.08841695,-0.0031957934000000003,112.26,21.54,23.7
1554117186014,-6.51582,-6.545148999999999,1.9267338999999999,-0.0053263223,0.08735169,-0.018109497,112.32,21.54,23.64
1554117186034,-6.5816603,-6.489484,1.9405005000000002,-0.040480047000000005,0.10865697,-0.007456851,112.32,21.48,23.58
1554117186054,-6.676830000000001,-6.499658999999999,1.9081788,-0.06924219,0.07456851,0.015978966,112.32,21.48,23.64
1554117186074,-6.675633,-6.467337000000001,1.951873,-0.11930962,0.03089267,-0.020240024,112.32,21.48,23.64
1554117186094,-6.822277499999999,-6.30513,1.9608511999999998,-0.18748654,-0.026631612000000002,-0.041545313,112.26,21.48,23.64
1554117186115,-6.8623804999999996,-6.341642,1.7256208999999998,-0.25140239999999997,-0.07563378,-0.027696876000000002,112.26,21.48,23.64
1554117186133,-6.8641763,-6.3230867,1.7591397000000002,-0.32490566,-0.07989483,-0.024501082,112.26,21.48,23.58
1554117186153,-6.933608,-6.235698,1.8890251,-0.40586576,-0.10652645,-0.058589544,112.32,21.48,23.52
1554117186173,-7.0024414,-6.260239,1.8429368000000002,-0.5336975,-0.14487597,-0.10439592,112.32,21.48,23.46
1554117186194,-6.892906699999999,-6.2638300000000005,1.590947,-0.6870956,-0.18429075,-0.14913702,112.38,21.48,23.4
1554117186213,-6.8887167,-6.828263300000001,2.1577742000000004,-0.69348717,-0.10652645,-0.17044231,112.38,21.48,23.46
1554117186233,-6.953958999999999,-6.946177499999999,2.2894554,-0.42717105,-0.02130529,-0.15126756,112.44,21.42,23.46
1554117186254,-6.930615400000001,-7.0940194000000005,2.1679497000000003,-0.12357068,0.07776430000000001,-0.094808534,112.5,21.36,23.52
1554117186274,-6.946177499999999,-6.995259,1.8866308999999997,0.082025364,0.16192019,-0.09054748,112.5,21.3,23.64
1554117186293,-6.8970966,-7.071274799999999,1.714847,0.1949434,0.20985709,-0.083090626,112.56,21.24,23.82
1554117186313,-7.001842999999999,-7.120356,1.3449427999999999,0.25246766,0.2130529,-0.05539375,112.56,21.18,23.94
1554117186334,-7.038354400000001,-7.117363,1.2802993,0.23648871,0.1768339,-0.023435817999999997,112.56,21.12,24.12
1554117186353,-7.0521210000000005,-7.021595,1.3491327,0.19600865,0.10652645,-0.00958738,112.62,21.0,24.3
1554117186373,-7.020397999999999,-6.911461999999999,1.4927847,0.1470065,0.06391586,0.013848438000000001,112.62,20.88,24.42
1554117186394,-6.837839999999999,-6.8438253,1.4939818,0.14061491,0.00958738,-0.004261058,112.68,20.82,24.54
1554117186414,-6.7606273,-6.88333,1.6603789,0.26525086,0.02130529,-0.015978966,112.68,20.76,24.66
1554117186434,-6.7001734,-6.8186865,1.7369933000000002,0.4250405,0.024501082,-0.014913702,112.68,20.76,24.72
1554117186454,-6.613384,-6.765415700000001,1.4305356000000002,0.50600064,0.02876214,-0.0063915867,112.62,20.7,24.78
1554117186474,-6.587646,-6.8528037,1.3904326,0.43995422,0.03195793,0.002130529,112.62,20.7,24.9
1554117186494,-6.569091,-6.824073299999999,1.4041992,0.27377295,-0.002130529,-0.014913702,112.56,20.7,25.02
1554117186514,-6.571485000000001,-6.902483500000001,1.2731166999999999,0.11504856,-0.049002163,-0.0031957934000000003,112.5,20.76,25.08
1554117186533,-6.693589,-6.994062,1.3269863000000002,0.084155895,-0.054328485999999995,0.039414786,112.44,20.82,25.14
1554117186554,-6.661866000000001,-7.076063,1.3503298000000001,0.11611383,-0.04580637,0.13528858,112.38,20.88,25.14
1554117186574,-6.7109475000000005,-6.947973299999999,1.4239515,0.14274544,-0.05965481,0.18535602,112.32,20.94,25.08
1554117186593,-6.955156,-6.8103065,1.5442601,0.15552860000000002,-0.046871635999999994,0.22050974,112.32,21.0,24.96
1554117186613,-6.8569937,-6.673837,1.483208,0.084155895,-0.09587380000000001,0.24927188,112.26,21.06,24.84
1554117186633,-7.372944400000001,-6.445191,1.1492168,-0.018109497,-0.17789917,0.19174760000000002,112.32,21.12,24.72
1554117186654,-7.630321,-6.3667808,0.95947635,-0.22583607,-0.19920446,0.3153183,112.44,21.12,24.54
1554117186674,-7.6608467000000005,-6.4302273,1.2449848999999997,-0.39308259999999995,-0.221575,0.41758367,112.56,21.06,24.42
1554117186693,-7.8853035,-6.4721255,1.1390414,-0.4878911,-0.2876214,0.45380265,112.62,21.0,24.3
1554117186713,-7.940968499999999,-6.5325794,1.1240777,-0.54648066,-0.34408042,0.47936899999999993,112.74,20.88,24.24
1554117186733,-8.219294999999999,-6.167464,1.2946646000000002,-0.5795039000000001,-0.49854377,0.48469532,112.86,20.76,24.18
1554117186754,-8.375516000000001,-6.193201,0.90859956,-0.6125271,-0.6743124,0.51771855,112.98,20.4,24.18
1554117186774,-8.337808,-6.2165446,0.8774749,-0.70840085,-0.83516735,0.5294364,113.16,20.04,24.12
1554117186794,-8.269572,-6.093243,1.1288661,-0.73290193,-0.9672601000000001,0.57311225,113.28,19.62,24.06
1554117186813,-8.096592,-6.0621184999999995,1.5113398,-0.6956177,-1.067395,0.6306366,113.4,18.96,23.94
1554117186833,-7.846996300000001,-5.7945666,1.8818424999999999,-0.5997439,-1.2197278,0.7190535,113.58,18.18,23.76
1554117186854,-7.583035499999999,-5.66109,2.1691467999999996,-0.5187838,-1.2836437,0.78936094,113.76,17.52,23.46
1554117186874,-7.2406645,-5.4934959999999995,2.2918496,-0.45912898,-1.2942963,0.850081,113.94,16.74,22.86
1554117186894,-6.9892735,-5.4432178,2.497751,-0.49641323,-1.2346416,0.86392945,114.24,15.9,22.2
1554117186914,-6.767211,-5.3660045,2.814384,-0.5592638000000001,-1.1707256000000001,0.8117314999999999,114.66,15.12,21.54
1554117186934,-6.813898,-5.1918263,2.7754784,-0.6221144000000001,-1.0290455,0.793622,115.14,14.16,20.88
1554117186954,-6.8528037,-5.2002063,3.0095115000000003,-0.737163,-0.95234644,0.7861651999999999,115.56,13.2,20.22
1554117186973,-6.728903999999999,-5.1271830000000005,3.0933087,-0.76272935,-0.8926915999999999,0.7126619000000001,116.04,12.36,19.44
1554117186994,-6.5469446,-5.2726307,2.9095535,-0.7190535,-0.84688526,0.6423545,116.46,11.46,18.54
1554117187014,-6.6870055,-5.2409077,2.8616695,-0.66365975,-0.76485986,0.55287224,116.88,10.44,17.7
1554117187034,-6.6516910000000005,-5.3582234,2.8694507999999996,-0.67537767,-0.67324716,0.49321744,117.24,9.36,16.98
1554117187053,-6.6367273,-5.507861,2.7886465,-0.7414241,-0.58269966,0.41225734,117.54,8.34,16.38
1554117187073,-6.8773446,-5.6634839999999995,2.9759927000000004,-0.8522116,-0.47510794,0.32490566,117.72,7.32,15.84
1554117187093,-7.029975,-5.4845176,3.2501287,-0.9225190000000001,-0.40586576,0.23009712,117.78,6.48,15.24
1554117187114,-7.267599000000001,-5.5641245999999995,3.2375592999999996,-0.8863,-0.3685815,0.21198763,117.84,5.7,14.7
1554117187134,-7.5375457,-5.921459,2.9975405,-0.76272935,-0.33129725,0.17044231,117.9,5.1,14.22
1554117187154,-7.61835,-5.8891377,2.944868,-0.64768076,-0.28442562,0.15339808,117.96,4.5,13.86
1554117187174,-7.487267500000001,-6.031593,2.7868507,-0.608266,-0.29188246,0.14487597,118.08,3.9,13.5
1554117187194,-7.465121000000001,-6.089652,2.7898436,-0.54435015,-0.28655612,0.10546118,118.14,3.48,13.32
1554117187214,-7.335833999999999,-6.033987000000001,2.9909565,-0.350472,-0.25885928,0.07030745599999999,118.2,3.06,13.08
1554117187234,-7.277176,-6.013636,3.1322143,0.084155895,-0.17470337,0.06498113,118.26,2.58,12.66
1554117187254,-7.116166000000001,-5.765238,3.1322143,0.39627838,-0.111852765,0.04580637,118.26,2.28,12.36
1554117187274,-7.283760000000001,-5.266645,2.9879637000000003,0.531567,-0.084155895,0.068176925,118.32,1.98,12.18
1554117187293,-7.20954,-5.1876364,2.7431567,0.44954160000000004,-0.101200126,0.08948222,118.32,1.86,12.06
1554117187313,-7.1155677,-5.1930237,2.5043349999999998,0.24181503,-0.112918034,0.041545313,118.32,1.62,11.88
1554117187334,-7.148487599999999,-5.0236335,2.6617537000000002,-0.00958738,-0.09054748,-0.014913702,118.32,1.5,11.76
1554117187353,-7.237672,-5.1379566,2.8329391,-0.08735169,-0.060720075,-0.04474111,118.38,1.44,11.58
1554117187373,-7.2191167,-5.1547165,2.9700072,-0.06391586,-0.007456851,-0.06498113,118.38,1.44,11.46
1554117187395,-7.2221093,-5.0092683,3.1070752,0.0,0.020240024,-0.09054748,118.44,1.44,11.4
1554117187414,-7.455544000000001,-4.9081135,2.8850130000000003,0.10013486,0.037284255,-0.11504856,118.44,1.44,11.28
1554117187434,-7.554305,-4.8614264,2.6928782000000004,0.13422333,0.047936900000000005,-0.111852765,118.5,1.44,11.16
1554117187453,-7.5985975,-5.006874,2.6611552000000005,0.11611383,0.047936900000000005,-0.09054748,118.5,1.38,11.04
1554117187473,-7.785944000000001,-5.16549,2.6767175,0.09161274,0.05219796,-0.094808534,118.5,1.38,10.98
1554117187494,-7.745841,-5.1379566,2.8814217999999996,0.035153727999999995,0.040480047000000005,-0.09374327,118.5,1.38,10.86
1554117187514,-7.8853035,-5.273828,2.8323407000000005,-0.029827405,0.026631612000000002,-0.09374327,118.5,1.38,10.86
1554117187534,-7.917625,-5.3821654,2.9472623,-0.07563378,0.01917476,-0.07989483,118.5,1.32,10.86
1554117187553,-7.752425,-5.468955,2.9724014,-0.06178534,-0.007456851,-0.07669904,118.5,1.32,10.8
1554117187573,-7.6375036,-5.4390279999999995,2.9634232999999996,0.025566347000000003,-0.010652645,-0.07030745599999999,118.56,1.32,10.8
1554117187594,-7.612962700000001,-5.282207499999999,3.039439,0.06711166,-0.008522116,-0.06391586,118.56,1.26,10.8
1554117187614,-7.545925,-5.2085857,3.0388405,0.07030745599999999,-0.011717908999999999,-0.05752428,118.56,1.26,10.8
1554117187633,-7.4465656000000005,-5.151125,3.0813377,0.06498113,-0.015978966,-0.06178534,118.56,1.26,10.8
1554117187654,-7.5764512999999996,-5.130175599999999,2.9281087,0.06178534,-0.014913702,-0.07243799,118.62,1.26,10.8
1554117187674,-7.5974007,-5.1062335999999995,2.9712042999999997,0.039414786,-0.0063915867,-0.06498113,118.68,1.26,10.8
1554117187694,-7.4489600000000005,-5.16549,3.0825348,0.040480047000000005,0.0010652645,-0.047936900000000005,118.68,1.26,10.8
1554117187715,-7.4274119999999995,-5.1361612999999995,3.2166099999999997,0.06285059999999999,0.025566347000000003,-0.046871635999999994,118.74,1.26,10.8
1554117187734,-7.466317999999999,-5.1259856,3.2363622000000003,0.09374327,0.039414786,-0.041545313,118.74,1.26,10.8
1554117187754,-7.36636,-5.112818,3.1783028,0.10013486,0.03834952,-0.043675844000000005,118.8,1.26,10.8
1554117187774,-7.4070616,-5.149329,3.1112652,0.10439592,0.040480047000000005,-0.05965481,118.86,1.26,10.8
1554117187794,-7.5566993,-5.0763063,3.1376014,0.13741912,0.03834952,-0.07030745599999999,118.86,1.32,10.8
1554117187814,-7.5507135,-5.1092260000000005,3.1322143,0.15339808,0.049002163,-0.06498113,118.86,1.38,10.74
1554117187833,-7.5219830000000005,-5.163694400000001,3.1591492000000003,0.12144015,0.041545313,-0.07989483,118.86,1.44,10.74
1554117187853,-7.53575,-5.185841,3.0585926,0.10759171,0.033023197000000004,-0.10972224,118.8,1.5,10.74
1554117187874,-7.6249337,-5.1170077,3.1483752999999997,0.07030745599999999,0.06498113,-0.09374327,118.74,1.56,10.68
1554117187894,-7.459734,-5.1960163,3.1555579,0.008522116,0.04261058,-0.08948222,118.68,1.68,10.68
1554117187913,-7.407660000000001,-5.245696,3.2022447999999994,0.03089267,0.035153727999999995,-0.11504856,118.56,1.74,10.68
1554117187933,-7.465121000000001,-5.2289367,3.4919431000000003,0.15446335,0.09054748,-0.12250541,118.5,1.8,10.68
1554117187954,-7.4046674,-5.024831,3.3961751000000002,0.2727077,0.08948222,-0.14807177,118.38,1.8,10.68
1554117187974,-7.258621000000001,-4.8841715,3.0603882999999996,0.3270362,0.12357068,-0.15339808,118.32,1.86,10.68
1554117187993,-7.0030399999999995,-4.817133999999999,3.2399535,0.30146983,0.16937704,-0.18748654,118.2,1.98,10.68
1554117188014,-7.1167645,-4.548983,3.3943794,0.26844665,0.22370553,-0.26738137,118.2,2.04,10.68
1554117188034,-7.0952168,-4.709395,3.2597055,0.18429075,0.23435818,-0.31212249999999997,118.2,2.1,10.68
1554117188054,-6.686406599999999,-4.8398786,3.3345244,0.10333065,0.31318775,-0.36751625,118.14,2.28,10.74
1554117188073,-6.4469867,-4.791396,3.4745852999999998,0.05965481,0.37390783,-0.42717105,118.14,2.34,10.74
1554117188093,-6.0513449999999995,-4.731541,3.7343562000000006,-0.017044231,0.43356264,-0.51984906,118.14,2.58,10.98
1554117188113,-5.799355,-4.938041,3.5511997,-0.054328485999999995,0.47404268,-0.59867865,118.2,2.82,11.16
1554117188133,-5.5940523,-5.073912,3.0615854,-0.098004326,0.567786,-0.67218184,118.2,3.18,11.4
1554117188154,-5.3079453,-5.04159,2.7431567,-0.28336033,0.6679208000000001,-0.7595335999999999,118.2,3.6,11.7
1554117188174,-5.343858200000001,-5.270835,2.5689783,-0.50813115,0.77231675,-0.87032104,118.2,4.08,12.06
1554117188193,-5.2409077,-5.7137623,2.4887726000000003,-0.59228706,0.8948221,-0.9438243000000001,118.2,4.62,12.54
1554117188213,-5.225345,-6.193201,2.256535,-0.51026165,1.010936,-1.0034790999999998,118.14,5.1,13.14
1554117188233,-5.3582234,-6.55293,1.9764134999999998,-0.31318775,1.1291803,-1.0982877,118.02,5.7,13.74
1554117188254,-5.151723400000001,-6.655282000000001,1.532289,-0.024501082,1.2186625,-1.1579423999999998,117.9,6.36,14.22
1554117188274,-5.0493712,-6.610390700000001,0.8870517,0.20133498,1.2644688999999998,-1.1930962,117.72,7.2,14.82
1554117188294,-5.49589,-6.688202400000001,-0.15861586,0.36218992,1.3049488999999999,-1.2559468,117.48,8.1,15.48
1554117188314,-5.8801594,-6.7133417,-0.41240123,0.25672874,1.3337111000000001,-1.3187973,117.24,9.06,16.2
1554117188334,-5.8849480000000005,-6.8958993,-0.2621651,0.034088463,1.3326459,-1.3624732,116.88,10.14,17.04
1554117188354,-5.772420400000001,-7.4483614000000005,-0.21667525,-0.128897,1.2942963,-1.3432984,116.34,11.22,17.94
1554117188374,-6.3883285999999995,-8.1402855,-0.33518824,-0.23222765,1.2729911,-1.3571468999999998,115.74,12.3,18.84
1554117188394,-6.582259,-8.472482000000001,-0.56084174,-0.33662358,1.2239889,-1.3901701000000002,115.26,13.38,19.8
1554117188414,-6.529587,-8.797494,-0.37588966,-0.406931,1.128115,-1.3582121999999999,114.66,14.4,20.76
1554117188433,-6.443395,-9.285912,-0.19393034,-0.3153183,1.0610034,-1.3475596,114.06,15.42,21.78
1554117188454,-6.633734,-9.770736999999999,-0.28491,0.002130529,0.93849796,-1.2761868,113.46,16.44,22.68
1554117188474,-6.855198,-9.922171,-0.62608373,0.20453078,0.84155893,-1.180313,112.74,17.4,23.58
1554117188494,-6.75524,-9.847352,-0.8038531999999999,0.23329292,0.721184,-1.0450244,112.14,18.36,24.48
1554117188513,-6.6905966,-9.775525,-0.79128367,0.15446335,0.60080916,-0.89801794,111.66,19.38,25.2
1554117188534,-6.603208,-9.675568,-0.8074445,0.07563378,0.4825648,-0.753142,111.24,20.34,25.8
1554117188554,-6.5092360000000005,-9.671378,-0.83378077,-0.017044231,0.37071204,-0.58483016,110.76,21.3,26.28
1554117188574,-6.2991447,-9.724648,-0.6242880999999999,-0.05752428,0.26844665,-0.44315,110.28,22.14,26.82
1554117188594,-6.0938419999999995,-9.637260000000001,-0.4950012,0.02876214,0.19600865,-0.3057309,109.74,22.8,27.24
1554117188614,-5.880758,-9.406818,-0.53929394,0.18855181,0.13741912,-0.17576863,109.26,23.4,27.6
1554117188633,-5.7945666,-9.196128999999999,-0.4914099,0.34621096,0.09267801,-0.06285059999999999,108.9,23.94,27.96
1554117188653,-5.7023897,-8.837597,-0.48123455,0.43462790000000007,0.036218993,0.020240024,108.6,24.24,28.08
1554117188673,-5.5748987,-8.5143795,-0.5374983,0.4282363,-0.027696876000000002,0.08628642,108.3,24.6,28.2
1554117188693,-5.5054669999999994,-8.348581,-0.62009823,0.30892670000000005,-0.099069595,0.14487597,108.06,24.84,28.32
1554117188713,-5.358822,-8.244433,-0.60812724,0.11504856,-0.16724652,0.18002969,107.88,25.14,28.38
1554117188733,-5.2444987,-8.22947,-0.4381389,-0.080960095,-0.22796659,0.19920446,107.76,25.38,28.44
1554117188754,-5.1062335999999995,-8.265383,-0.23403321,-0.21198763,-0.27164245,0.20879184,107.82,25.56,28.44
1554117188774,-5.0116625,-8.454525,0.0005985504,-0.18961707,-0.27483824,0.23329292,107.82,25.62,28.44
1554117188793,-4.8189297,-8.450933000000001,0.037110128,-0.10333065,-0.2545982,0.25246766,107.82,25.62,28.38
1554117188814,-4.732139599999999,-8.428188,-0.03172317,-0.02130529,-0.22477080000000002,0.2428803,107.88,25.62,28.38
1554117188833,-4.8560395,-8.373122,0.008379705999999999,0.024501082,-0.20240025,0.23009712,107.94,25.56,28.38
1554117188853,-4.8763905,-8.267777,-0.079008654,0.04261058,-0.1768339,0.23329292,108.06,25.38,28.32
1554117188876,-4.8243165,-8.231264999999999,-0.14305355,0.029827405,-0.15978967,0.23435818,108.18,25.2,28.32
1554117188894,-4.8057612999999995,-8.182184,-0.19871874,0.02130529,-0.15339808,0.21731395,108.24,25.14,28.32
1554117188914,-4.9069166,-8.073248,-0.19991584,-0.02130529,-0.1470065,0.19707392,108.3,24.96,28.26
1554117188934,-4.8542438,-8.067263,-0.2669535,-0.11611383,-0.15020229,0.18748654,108.42,24.84,28.14
1554117188953,-4.701015,-8.1343,-0.24779987,-0.23755397,-0.14487597,0.17363810000000002,108.54,24.72,27.96
1554117188974,-4.6238019999999995,-8.230667,-0.05865794,-0.28229508,-0.098004326,0.13209279,108.66,24.48,27.72
1554117188994,-4.5938745,-8.240842,0.076614454,-0.27377295,-0.043675844000000005,0.13315806,108.72,24.48,27.6
1554117189014,-4.554370400000001,-8.284536,0.077811554,-0.28122982,0.02876214,0.14594123,108.9,24.42,27.42
1554117189034,-4.577115,-8.362347999999999,0.11971009,-0.26525086,0.11717909,0.15659387,109.02,24.36,27.3
1554117189055,-4.6818614,-8.400057,0.17896658,-0.23755397,0.19174760000000002,0.14913702,109.14,24.3,27.18
1554117189074,-4.712986,-8.3390045,0.24480712,-0.23329292,0.24074976,0.12783173,109.26,24.0,27.12
1554117189094,-4.748899,-8.396465,0.19871874,-0.19174760000000002,0.28122982,0.09161274,109.38,23.76,27.12
1554117189114,-4.871601999999999,-8.448539,0.10055647,-0.13741912,0.30999196,0.017044231,109.5,23.46,27.18
1554117189133,-4.9613843,-8.4647,0.14544775,-0.12676647,0.31957933,-0.023435817999999997,109.62,23.22,27.24
1554117189153,-5.018845,-8.623316,0.09876082,-0.098004326,0.32384038,-0.05539375,109.74,22.98,27.3
1554117189174,-5.073313,-8.6299,-0.021547815,-0.040480047000000005,0.3291667,-0.06604639400000001,109.8,22.74,27.48
1554117189195,-5.33488,-8.53892,-0.26396075,-0.014913702,0.33875409999999995,-0.07350325,109.8,22.32,27.72
1554117189213,-5.380968,-8.432379,-0.30226797,-0.017044231,0.32490566,-0.06285059999999999,109.8,21.96,27.9
1554117189234,-5.4258595000000005,-8.430583,-0.34237084,-0.004261058,0.30892670000000005,-0.034088463,109.68,21.78,28.14
1554117189253,-5.503671,-8.408437,-0.3333926,0.03195793,0.2876214,-0.02876214,109.5,21.6,28.38
1554117189274,-5.531803,-8.322245,-0.4842273,0.07030745599999999,0.26312032,-0.017044231,109.26,21.42,28.56
1554117189294,-5.543774,-8.231264999999999,-0.6039374,0.098004326,0.24181503,0.0053263223,109.02,21.24,28.8
1554117189313,-5.579687,-8.206126,-0.7625531999999999,0.10972224,0.2130529,0.011717908999999999,108.84,21.06,28.98
1554117189334,-5.5748987,-8.160637,-0.7577648,0.10652645,0.18961707,0.027696876000000002,108.66,20.88,29.1
1554117189354,-5.6161985,-8.139089,-0.8182184,0.10652645,0.15765914,0.035153727999999995,108.48,20.88,29.16
1554117189373,-5.614403,-8.019378999999999,-0.8834603999999999,0.09267801,0.12144015,0.036218993,108.3,20.88,29.28
1554117189393,-5.587468,-7.988852499999999,-0.97025025,0.06391586,0.07350325,0.033023197000000004,108.24,20.94,29.4
1554117189414,-5.5862713,-7.9541364,-0.8936358,0.05752428,0.02876214,0.040480047000000005,108.24,21.0,29.52
1554117189434,-5.568314599999999,-7.945757,-0.830788,0.06178534,-0.014913702,0.035153727999999995,108.3,21.06,29.64
1554117189453,-5.4521956,-7.959523700000001,-0.88046765,0.049002163,-0.06178534,0.014913702,108.3,21.12,29.76
1554117189473,-5.365406,-7.915230800000001,-0.85413146,0.025566347000000003,-0.08841695,-0.00958738,108.24,21.18,29.88
1554117189493,-5.3043537,-7.9762830000000005,-0.8098387,0.0053263223,-0.098004326,-0.025566347000000003,108.24,21.24,30.0
1554117189514,-5.1798553,-8.01878,-0.6183026,-0.03195793,-0.10652645,-0.036218993,108.24,21.3,30.12
1554117189534,-5.153519,-8.078635,-0.56563014,-0.04261058,-0.096939065,-0.051132694000000006,108.24,21.3,30.12
1554117189553,-5.1104236,-8.121132000000001,-0.58119243,-0.05752428,-0.068176925,-0.05539375,108.24,21.24,30.18
1554117189573,-5.079299,-8.203134,-0.52852005,-0.05539375,-0.027696876000000002,-0.053263225,108.24,21.24,30.18
1554117189594,-5.100847,-8.298303,-0.43754035,-0.029827405,0.011717908999999999,-0.05539375,108.24,21.18,30.24
1554117189614,-5.2079873,-8.333617,-0.39205053,0.0063915867,0.058589544,-0.05006743,108.24,21.12,30.24
1554117189634,-5.2474914,-8.267777,-0.42197806,0.027696876000000002,0.09374327,-0.05219796,108.24,21.12,30.24
1554117189653,-5.2678423,-8.218696000000001,-0.48063599999999995,0.043675844000000005,0.128897,-0.043675844000000005,108.24,21.18,30.24
1554117189674,-5.3678,-8.245032,-0.47225627,0.043675844000000005,0.15765914,-0.047936900000000005,108.3,21.24,30.24
1554117189694,-5.430648000000001,-8.246828,-0.43035775,0.046871635999999994,0.17150758,-0.06285059999999999,108.3,21.3,30.3
1554117189713,-5.5102553,-8.152257,-0.46926352,0.06498113,0.17576863,-0.07989483,108.3,21.36,30.36
1554117189733,-5.6401405,-8.069058,-0.58538234,0.07882957,0.16192019,-0.09374327,108.36,21.42,30.42
1554117189754,-5.8107276,-8.01878,-0.7906850999999999,0.053263225,0.128897,-0.10226539,108.36,21.48,30.48
1554117189773,-5.919664,-8.021174,-0.8822633,0.03195793,0.10226539,-0.09374327,108.36,21.54,30.54
1554117189793,-5.997475,-8.009802,-1.0360907,-0.008522116,0.051132694000000006,-0.07989483,108.36,21.6,30.6
1554117189814,-6.027403,-8.021174,-1.1139023000000001,-0.054328485999999995,-0.035153727999999995,-0.053263225,108.24,21.72,30.66
1554117189833,-5.977723,-8.056489,-1.1360487,-0.080960095,-0.10333065,-0.03089267,108.18,21.72,30.66
1554117189853,-5.744887,-8.100183,-1.0265139,-0.112918034,-0.21092236,-0.007456851,108.06,21.78,30.72
1554117189874,-5.4934959999999995,-8.109161,-0.9367314,-0.14807177,-0.32597092,0.0010652645,107.88,21.84,30.72
1554117189894,-5.234922,-8.256405,-0.8559271,-0.13954964,-0.38456047,0.011717908999999999,107.82,21.84,30.78
1554117189913,-5.00448,-8.311471000000001,-0.66738373,-0.094808534,-0.39734364,0.0063915867,107.82,21.9,30.72
1554117189933,-4.8398786,-8.286931,-0.5566519,-0.049002163,-0.38136467,-0.011717908999999999,107.88,21.96,30.72
1554117189954,-4.7441106,-8.227076,-0.42916065,-0.012783173500000002,-0.34194988,-0.00958738,107.94,21.9,30.66
1554117189973,-4.6950297,-8.300697,-0.31184477,0.02130529,-0.27803403,-0.008522116,108.06,21.84,30.48
1554117189995,-4.5555673,-8.322844,-0.14185645,0.053263225,-0.19174760000000002,-0.025566347000000003,108.24,21.78,30.36
1554117190013,-4.575918,-8.295909,-0.12210429,0.08522116,-0.08735169,-0.060720075,108.42,21.78,30.24
1554117190034,-4.7141833,-8.217499,-0.21667525,0.096939065,-0.0010652645,-0.07669904,108.54,21.72,30.06
1554117190054,-4.8279076,-8.096592,-0.34955344,0.096939065,0.113983296,-0.07882957,108.66,21.66,29.88
1554117190074,-5.0727150000000005,-8.016386,-0.50637364,0.06391586,0.22903186,-0.08522116,108.72,21.6,29.76
1554117190094,-5.173271,-8.012196000000001,-0.52971715,0.024501082,0.2790993,-0.080960095,108.72,21.6,29.7
1554117190116,-5.2702365,-7.997232400000001,-0.5530606,-0.013848438000000001,0.32170987,-0.07243799,108.78,21.54,29.64
1554117190133,-5.3755812999999995,-8.042722,-0.62488663,-0.049002163,0.33449304,-0.068176925,108.78,21.54,29.64
1554117190154,-5.4851160000000005,-8.082825,-0.7428011,-0.068176925,0.3270362,-0.068176925,108.78,21.54,29.58
1554117190173,-5.547964,-8.1163435,-0.7356185000000001,-0.09374327,0.29827404,-0.06498113,108.78,21.54,29.58
1554117190193,-5.6108117,-8.179192,-0.7158663000000001,-0.101200126,0.26418558,-0.05752428,108.72,21.54,29.64
1554117190214,-5.6179943,-8.306085000000001,-0.6745663000000001,-0.101200126,0.19174760000000002,-0.02876214,108.66,21.54,29.76
1554117190234,-5.61141,-8.4904375,-0.6099229,-0.09161274,0.12783173,-0.012783173500000002,108.54,21.54,29.88
1554117190254,-5.597045,-8.689755,-0.53689975,-0.054328485999999995,0.07030745599999999,-0.022370555,108.48,21.54,30.06
1554117190273,-5.5270147000000005,-8.812458,-0.5189431999999999,0.010652645,0.027696876000000002,-0.036218993,108.36,21.54,30.24
1554117190293,-5.507861,-8.931569,-0.57161564,0.09267801,0.0063915867,-0.039414786,108.24,21.6,30.36
1554117190314,-5.5647235,-9.032125,-0.6500258000000001,0.18002969,-0.0053263223,-0.0031957934000000003,108.12,21.6,30.54
1554117190334,-5.559935,-9.056666,-0.65062433,0.27696875,-0.014913702,0.06498113,108.0,21.6,30.72
1554117190354,-5.298967,-8.913613,-0.6362591,0.38349520000000004,-0.03195793,0.14594123,107.88,21.6,30.9
1554117190374,-5.175066999999999,-8.74542,-0.6326678000000001,0.49002165,-0.02876214,0.20772657,107.82,21.6,30.9
1554117190394,-4.944625,-8.479065,-0.5410896,0.60507023,-0.02130529,0.23542345,107.76,21.66,30.9
1554117190414,-4.8763905,-8.120534,-0.52133745,0.6988135,0.007456851,0.20772657,107.7,21.78,30.9
1554117190434,-4.905121,-7.73387,-0.58298814,0.72011876,0.04474111,0.15446335,107.7,21.84,30.9
1554117190454,-4.9398365,-7.414244,-0.57281274,0.6348976,0.09161274,0.098004326,107.7,21.9,30.9
1554117190474,-5.043386,-7.198765799999999,-0.5805939,0.47510794,0.13635385,0.046871635999999994,107.76,22.08,30.78
1554117190493,-5.1092260000000005,-7.0754646999999995,-0.51834464,0.28229508,0.17470337,0.02130529,107.88,22.26,30.66
1554117190515,-5.270835,-7.099406699999999,-0.39504328,0.1107875,0.21624869,-0.0031957934000000003,108.0,22.44,30.48
1554117190534,-5.374983,-7.305906299999999,-0.34476504,-0.026631612000000002,0.23222765,-0.036218993,108.12,22.62,30.36
1554117190554,-5.416282700000001,-7.57286,-0.40462008,-0.13528858,0.23222765,-0.06604639400000001,108.24,22.8,30.24
1554117190574,-5.5605335,-7.813477000000001,-0.3824737,-0.2066613,0.21837921,-0.09161274,108.36,22.86,30.12
1554117190594,-5.638344999999999,-8.000225,-0.46387658,-0.2545982,0.17257284,-0.07989483,108.42,22.98,30.0
1554117190614,-5.641936299999999,-8.258201,-0.46806642,-0.27696875,0.12570119999999999,-0.04261058,108.42,23.1,29.88
1554117190634,-5.6018333,-8.5299425,-0.37289690000000003,-0.20240025,0.10333065,-0.013848438000000001,108.36,23.16,29.88
1554117190654,-5.595848,-8.527548,-0.26276365,-0.047936900000000005,0.10652645,0.013848438000000001,108.3,23.22,30.0
1554117190673,-5.6102133,-8.367735,-0.35494040000000004,0.101200126,0.12357068,0.034088463,108.18,23.22,30.12
1554117190694,-5.6563015,-8.101977999999999,-0.4381389,0.18216023,0.15765914,0.05006743,108.06,23.16,30.42
1554117190714,-5.772420400000001,-7.9086466,-0.47524905,0.17789917,0.18002969,0.05219796,108.0,23.16,30.6
1554117190734,-5.7963624000000005,-7.773973,-0.4878186,0.13848437,0.18855181,0.05219796,108.0,23.16,30.72
1554117190754,-5.7969610000000005,-7.6943655,-0.57400984,0.05539375,0.18322548,0.033023197000000004,107.94,23.1,30.96
1554117190774,-5.813122,-7.7218990000000005,-0.664391,-0.0031957934000000003,0.16831179,-0.0053263223,107.88,23.1,31.14
1554117190794,-5.811326,-7.836820599999999,-0.700304,-0.056459017,0.13954964,-0.026631612000000002,107.88,23.04,31.26
1554117190813,-5.7520695,-7.934983,-0.7026982,-0.10013486,0.099069595,-0.05219796,107.88,23.04,31.38
1554117190835,-5.7041855,-8.009203,-0.7164649000000001,-0.11930962,0.051132694000000006,-0.082025364,107.88,22.98,31.38
1554117190854,-5.655703,-8.077438,-0.65421563,-0.12676647,0.0063915867,-0.10013486,107.82,22.92,31.38
1554117190874,-5.620987,-8.1881695,-0.57999533,-0.10972224,-0.037284255,-0.12463594,107.82,22.92,31.38
1554117190894,-5.5982423,-8.242638000000001,-0.6075286999999999,-0.07350325,-0.05965481,-0.1470065,107.7,22.86,31.38
1554117190913,-5.556343599999999,-8.276755,-0.533907,-0.04474111,-0.06711166,-0.15552860000000002,107.58,22.8,31.44
1554117190933,-5.5515550000000005,-8.30369,-0.45190558,-0.007456851,-0.06285059999999999,-0.15339808,107.46,22.74,31.44
1554117190954,-5.509656400000001,-8.292916,-0.4189853,0.00958738,-0.05006743,-0.13741912,107.28,22.62,31.5
1554117190974,-5.418677,-8.301296,-0.2885013,0.025566347000000003,-0.023435817999999997,-0.10333065,107.16,22.62,31.62
1554117190994,-5.3803697,-8.297106,-0.23582886,0.10439592,0.027696876000000002,-0.05965481,107.04,22.56,31.68
1554117191014,-5.3522377,-8.160637,-0.31184477,0.14913702,0.06285059999999999,-0.03834952,106.98,22.56,31.74
1554117191033,-5.3875523,-8.034941,-0.39564183,0.16831179,0.101200126,-0.0053263223,106.92,22.62,31.8
1554117191053,-5.379771,-7.981669999999999,-0.4213795,0.165116,0.12144015,0.023435817999999997,106.92,22.68,31.92
1554117191074,-5.3169236,-7.9331875,-0.52492875,0.12144015,0.13102753,0.034088463,106.98,22.74,31.98
1554117191093,-5.28939,-7.912836599999999,-0.54168814,0.07989483,0.13422333,0.036218993,107.04,22.86,31.98
1554117191113,-5.3282957,-7.987056699999999,-0.50637364,0.047936900000000005,0.13209279,0.017044231,107.04,22.98,31.98
1554117191134,-5.3139305,-8.019978,-0.45130703,0.027696876000000002,0.128897,-0.0063915867,107.1,23.1,31.98
1554117191154,-5.3725886,-8.001422,-0.42556936,0.01917476,0.12463594,-0.037284255,107.1,23.22,31.98
1554117191174,-5.418677,-7.997232400000001,-0.4333505,0.004261058,0.112918034,-0.053263225,107.1,23.22,31.98
1554117191194,-5.482123400000001,-8.022371000000001,-0.41778820000000005,0.007456851,0.10652645,-0.07456851,106.98,23.22,31.98
1554117191214,-5.580883999999999,-8.051701,-0.44711718,0.020240024,0.09587380000000001,-0.10226539,106.92,23.22,31.98
1554117191234,-5.6461263,-8.051102,-0.50757074,0.033023197000000004,0.07882957,-0.11717909,106.86,23.22,31.98
1554117191254,-5.6682725,-8.085817,-0.58298814,0.034088463,0.05965481,-0.12357068,106.8,23.16,31.92
1554117191274,-5.7813989999999995,-8.143278,-0.6841431,0.03195793,0.035153727999999995,-0.12463594,106.74,23.16,31.92
1554117191293,-5.8143187,-8.2276745,-0.7098808000000001,0.020240024,0.0053263223,-0.12037488,106.68,23.16,31.98
1554117191314,-5.716755,-8.3312235,-0.6769605,0.024501082,-0.03195793,-0.10865697,106.68,23.16,31.98
1554117191333,-5.6299653,-8.385692,-0.61112,0.058589544,-0.06924219,-0.082025364,106.62,23.22,31.98
1554117191353,-5.597045,-8.337209,-0.5434838000000001,0.12463594,-0.09374327,-0.049002163,106.56,23.28,31.98
1554117191373,-5.6018333,-8.250419,-0.45789108,0.18535602,-0.10652645,-0.023435817999999997,106.56,23.4,31.98
1554117191395,-5.5725045,-8.090606,-0.41060558,0.20772657,-0.113983296,-0.002130529,106.5,23.46,31.98
1554117191413,-5.4432178,-7.9996266,-0.34715924,0.2066613,-0.10972224,-0.004261058,106.5,23.52,32.04
1554117191433,-5.4551888,-7.8942814,-0.30286652,0.18216023,-0.10226539,-0.0053263223,106.44,23.58,32.04
1554117191454,-5.4545900000000005,-7.788338,-0.338181,0.12250541,-0.09267801,-0.014913702,106.44,23.64,32.04
1554117191474,-5.418677,-7.769783,-0.37948096,0.043675844000000005,-0.083090626,-0.027696876000000002,106.38,23.7,31.98
1554117191493,-5.376778599999999,-7.8493905,-0.3597288,-0.02130529,-0.06924219,-0.037284255,106.32,23.76,31.98
1554117191514,-5.445612000000001,-7.9074497,-0.3441665,-0.068176925,-0.06285059999999999,-0.05219796,106.2,23.82,31.98
1554117191534,-5.4258595000000005,-7.908048,-0.5009867,-0.09161274,-0.06285059999999999,-0.06498113,106.14,23.82,31.92
1554117191554,-5.4767364999999995,-7.8954787,-0.5105635000000001,-0.14807177,-0.068176925,-0.053263225,106.08,23.88,31.86
1554117191574,-5.5497594,-8.004415,-0.42736499999999994,-0.17896444,-0.07776430000000001,-0.01917476,106.02,23.94,31.8
1554117191594,-5.5521536,-8.1797905,-0.3800795,-0.15978967,-0.07456851,-0.012783173500000002,106.02,23.94,31.68
1554117191614,-5.5365915,-8.218696000000001,-0.38067806,-0.12463594,-0.06498113,-0.010652645,106.02,23.94,31.68
1554117191633,-5.5461683,-8.284536,-0.3609259,-0.09267801,-0.041545313,0.013848438000000001,106.2,24.0,31.56
1554117191653,-5.5288105000000005,-8.32045,-0.27234045,-0.07030745599999999,-0.043675844000000005,0.037284255,106.38,23.94,31.5
1554117191674,-5.5407815000000005,-8.359355,-0.27234045,-0.039414786,-0.05539375,0.054328485999999995,106.5,23.94,31.38
1554117191693,-5.482123400000001,-8.39048,-0.27533320000000006,0.015978966,-0.07243799,0.06391586,106.68,23.94,31.38
1554117191714,-5.487509999999999,-8.334216,-0.207697,0.096939065,-0.094808534,0.05752428,106.8,23.94,31.32
1554117191735,-5.5617304,-8.212710000000001,-0.14185645,0.16085494,-0.13102753,0.049002163,106.92,23.88,31.32
1554117191754,-5.5515550000000005,-8.14687,-0.16639702,0.21837921,-0.17257284,0.033023197000000004,107.04,23.88,31.38
1554117191774,-5.542577,-8.148665,-0.25258827,0.26418558,-0.19920446,0.0,107.1,23.88,31.38
1554117191794,-5.568912999999999,-8.103774000000001,-0.22625206,0.28016454,-0.22370553,-0.041545313,107.04,23.88,31.38
1554117191814,-5.513846400000001,-8.120534,-0.23702596,0.27164245,-0.23968449999999997,-0.04474111,107.04,23.82,31.38
1554117191833,-5.4222684,-8.085219,-0.12988544,0.26525086,-0.25033715,-0.043675844000000005,107.04,23.82,31.32
1554117191853,-5.41748,-8.026561000000001,-0.02633622,0.2545982,-0.25566345,-0.036218993,107.1,23.82,31.26
1554117191874,-5.3779755,-8.043321,0.04189853,0.25246766,-0.23648871,-0.020240024,107.16,23.82,31.14
1554117191893,-5.357625,-8.012196000000001,0.13706805,0.24714136,-0.20879184,-0.0053263223,107.28,23.82,31.02
1554117191913,-5.379173000000001,-7.966107400000001,0.16579847,0.24181503,-0.165116,0.0031957934000000003,107.4,23.94,30.9
1554117191934,-5.360019,-7.925406,0.27712885,0.21837921,-0.11930962,0.015978966,107.52,24.06,30.66
1554117191954,-5.3276973,-7.868544,0.32680854,0.18429075,-0.07669904,0.03089267,107.58,24.24,30.42
1554117191973,-5.3648076,-7.845799,0.36990416,0.15126756,-0.037284255,0.03834952,107.7,24.36,30.18
1554117191993,-5.3815669999999995,-7.7494326000000004,0.38307226,0.10652645,-0.0063915867,0.046871635999999994,107.76,24.54,30.0
1554117192013,-5.3761797,-7.699753,0.30645782,0.049002163,0.024501082,0.04580637,107.82,24.66,29.76
1554117192034,-5.4593782,-7.7039423,0.25019407,-0.010652645,0.053263225,0.037284255,107.94,24.78,29.58
1554117192054,-5.5365915,-7.702147,0.27473465,-0.056459017,0.07350325,0.027696876000000002,107.94,24.9,29.4
1554117192074,-5.5515550000000005,-7.724292999999999,0.24540567,-0.08628642,0.08735169,0.026631612000000002,108.0,24.96,29.22
1554117192094,-5.54557,-7.738060000000001,0.15382746,-0.12463594,0.09374327,0.025566347000000003,108.06,24.96,29.16
1554117192114,-5.6299653,-7.792528,0.22505496,-0.165116,0.09054748,0.02876214,108.12,24.9,29.1
1554117192134,-5.6389437000000004,-8.024766,0.24600422,-0.18855181,0.08948222,0.022370555,108.18,24.9,29.1
1554117192154,-5.650316,-8.123527000000001,0.40402153,-0.14061491,0.096939065,0.013848438000000001,108.24,24.9,29.1
1554117192174,-5.683236,-8.115746000000001,0.35553896,-0.06285059999999999,0.101200126,-0.0031957934000000003,108.24,24.84,29.16
1554117192195,-5.7418942,-8.034941,0.26156655,-0.026631612000000002,0.101200126,0.0031957934000000003,108.24,24.78,29.22
1554117192214,-5.757456299999999,-8.011598,0.18854338,-0.024501082,0.09374327,0.0,108.24,24.72,29.28
1554117192233,-5.7562594,-8.000225,0.23822308,-0.029827405,0.09054748,0.0063915867,108.18,24.66,29.4
1554117192255,-5.726930599999999,-7.966706299999999,0.29508537,-0.007456851,0.099069595,0.020240024,108.18,24.6,29.46
1554117192274,-5.7933699999999995,-7.898471400000001,0.24420857,0.034088463,0.113983296,0.026631612000000002,108.12,24.54,29.58
1554117192296,-5.840056400000001,-7.831434,0.062249242999999996,0.06711166,0.14487597,0.049002163,108.0,24.48,29.64
1554117192314,-5.8837504,-7.832032000000001,-0.009576807,0.05539375,0.15233281,0.047936900000000005,108.0,24.42,29.7
1554117192333,-5.9358244000000004,-7.8092875,-0.03172317,0.03089267,0.15126756,0.05752428,107.94,24.42,29.82
1554117192353,-5.895722,-7.7703815,-0.038905777,0.008522116,0.13315806,0.05752428,107.88,24.36,29.88
1554117192373,-5.8837504,-7.784147999999999,-0.02813187,0.011717908999999999,0.11504856,0.046871635999999994,107.88,24.36,30.0
1554117192394,-5.977723,-7.7793600000000005,-0.011971008,0.043675844000000005,0.07989483,0.024501082,107.82,24.3,30.18
1554117192413,-6.0040593,-7.7703815,-0.045489833,0.06285059999999999,0.05006743,0.004261058,107.82,24.3,30.3
1554117192434,-6.0250087,-7.9062524000000005,-0.05746084,0.096939065,0.02876214,-0.01917476,107.88,24.3,30.42
1554117192454,-6.022016000000001,-7.9768815,-0.088585466,0.17044231,0.022370555,-0.03834952,107.88,24.24,30.36
1554117192474,-6.0118403,-7.8954787,-0.12629414,0.24927188,0.018109497,-0.047936900000000005,107.88,24.12,30.3
1554117192494,-5.997475,-7.850587400000001,-0.25677812,0.2972088,0.018109497,-0.058589544,107.88,24.0,30.18
1554117192513,-6.0226144999999995,-7.745242599999999,-0.2896984,0.28975195,0.011717908999999999,-0.084155895,107.88,23.94,30.06
1554117192533,-6.1040173,-7.754221,-0.40102878,0.24501082,0.0053263223,-0.099069595,107.82,23.82,29.94
1554117192554,-6.318897,-7.950545299999999,-0.43155485,0.20559604,-0.002130529,-0.10013486,107.82,23.76,29.88
1554117192573,-6.341642,-7.874529400000001,-0.15682021,0.23009712,-0.026631612000000002,-0.06604639400000001,107.82,23.76,29.76
1554117192594,-6.341642,-7.825448,0.09876082,0.30892670000000005,-0.05539375,-0.00958738,107.76,23.88,29.7
1554117192614,-6.2141504,-7.687782,0.27593175,0.36325517,-0.096939065,0.027696876000000002,107.76,24.0,29.7
1554117192633,-6.1489085999999995,-7.472902,0.53929394,0.3568636,-0.11930962,0.04580637,107.76,24.18,29.76
1554117192653,-6.1405287,-7.3789296,0.6865373,0.2908172,-0.11717909,0.04580637,107.7,24.36,29.76
1554117192674,-6.0064535,-7.347805,0.8062474000000001,0.16298546,-0.083090626,0.054328485999999995,107.7,24.54,29.7
1554117192694,-5.9651537,-7.431602000000001,0.8487445,0.096939065,-0.013848438000000001,0.05965481,107.64,24.72,29.7
1554117192714,-5.9400144,-7.6333137,0.98820674,0.080960095,0.04580637,0.060720075,107.64,24.9,29.52
1554117192734,-5.921459,-7.7919292,1.0031705,0.054328485999999995,0.12250541,0.06178534,107.64,25.02,29.4
1554117192754,-6.0106435,-7.945757,0.9983820999999999,0.012783173500000002,0.19600865,0.036218993,107.64,25.08,29.28
1554117192774,-5.9956794,-8.011598,0.91578215,-0.025566347000000003,0.24394555,-0.0010652645,107.58,25.14,29.16
1554117192793,-5.9825115,-8.10557,0.641646,-0.043675844000000005,0.2972088,-0.02876214,107.58,25.2,29.04
1554117192813,-6.0118403,-8.098986,0.47824179999999994,-0.082025364,0.32277513,-0.07137272,107.58,25.2,28.98
1554117192834,-6.0884547,-8.106169,0.42377370000000003,-0.099069595,0.31318775,-0.07350325,107.52,25.26,28.98
1554117192854,-6.0848637000000005,-8.246828,0.6434416999999999,-0.020240024,0.29933932,-0.034088463,107.52,25.26,29.04
1554117192874,-5.9172697,-8.255207,0.6823475,0.16618125,0.26738137,-0.0053263223,107.46,25.32,29.22
1554117192893,-5.8945246,-8.151658,0.62129533,0.39947417,0.25140239999999997,0.013848438000000001,107.46,25.32,29.4
1554117192914,-5.919065,-8.016983999999999,0.46267948,0.57098174,0.23329292,-0.0010652645,107.4,25.44,29.58
1554117192934,-5.851429,-7.745841,0.35673606,0.5997439,0.20985709,-0.024501082,107.34,25.5,29.7
1554117192953,-5.85502,-7.6764092,0.25917232,0.52411014,0.19281286,-0.037284255,107.28,25.62,29.88
1554117192973,-5.977723,-7.813477000000001,0.34476504,0.4250405,0.2066613,-0.05219796,107.16,25.74,30.0
1554117192993,-5.834071,-7.8009076,0.35494040000000004,0.36751625,0.22690132,-0.06285059999999999,107.04,25.86,30.12
1554117193015,-5.883152,-7.779958199999999,0.53570265,0.34834146,0.23861924,-0.07137272,106.92,25.98,30.18
1554117193033,-5.817312,-7.744644,0.79248077,0.32490566,0.18855181,-0.07243799,106.8,26.1,30.12
1554117193053,-5.7347116,-7.7386584,1.0211270000000001,0.36645097,0.12144015,-0.06285059999999999,106.62,26.28,30.12
1554117193073,-5.649119000000001,-7.760206,1.043872,0.45912898,0.07350325,-0.05752428,106.44,26.4,30.06
1554117193093,-5.645528,-7.6470804,1.0414777,0.5411543000000001,0.06498113,-0.060720075,106.26,26.52,30.0
1554117193113,-5.630563700000001,-7.4896617,1.0666169,0.5997439,0.07456851,-0.054328485999999995,106.08,26.7,29.94
1554117193133,-5.5497594,-7.479486,0.92176765,0.6412892,0.1107875,-0.011717908999999999,105.96,26.88,29.88
1554117193154,-5.4845176,-7.452551400000001,0.75357497,0.6306366,0.16724652,0.018109497,105.72,27.3,29.76
1554117193173,-5.631162000000001,-7.511808,0.81522566,0.56245965,0.20985709,0.027696876000000002,105.54,27.66,29.64
1554117193194,-5.718550700000001,-7.698555499999999,1.0420763000000002,0.48149952,0.24927188,0.002130529,105.48,28.02,29.58
1554117193213,-5.513846400000001,-7.705738,1.1994951,0.42930159999999995,0.26844665,-0.034088463,105.42,28.14,29.52
1554117193234,-5.5090580000000005,-7.684190299999999,1.6370354,0.3653857,0.29294774,-0.099069595,105.3,28.62,29.34
1554117193254,-5.606621700000001,-7.667431,1.9829974999999997,0.34940675,0.27803403,-0.12996227,105.24,28.92,29.22
1554117193274,-5.687426,-7.6949644,2.0566192,0.38029942,0.27057716,-0.14274544,105.18,29.22,29.1
1554117193294,-5.868787,-7.606379,1.9333179,0.41758367,0.2727077,-0.15233281,105.18,29.64,28.98
1554117193313,-6.029797,-7.512406299999999,1.8237831999999998,0.45380265,0.28975195,-0.113983296,105.12,29.94,28.86
1554117193334,-6.129755,-7.5345526,1.6023195,0.48149952,0.31318775,-0.029827405,105.06,30.18,28.8
1554117193354,-6.2668230000000005,-7.500435400000001,1.5352819,0.5006742999999999,0.3334278,0.05752428,104.94,30.48,28.74
1554117193374,-6.267421700000001,-7.3178773,1.38325,0.47936899999999993,0.32490566,0.14594123,104.82,30.78,28.68
1554117193393,-6.190807,-7.285556,1.3802572,0.41119209999999995,0.30253512,0.23755397,104.7,31.14,28.62
1554117193414,-6.0980315,-7.1867948,1.3335704,0.35899413,0.28122982,0.32277513,104.52,31.44,28.62
1554117193434,-6.1177839999999994,-7.1688385,1.3515268999999999,0.34940675,0.27057716,0.36112466,104.34,31.68,28.56
1554117193454,-6.0704985,-7.1125746,1.5053543,0.33875409999999995,0.25246766,0.39308259999999995,104.22,31.8,28.5
1554117193473,-6.063316,-7.000047,1.6537948,0.34301516,0.23542345,0.39734364,104.1,31.98,28.44
1554117193493,-6.1668650000000005,-6.953360000000001,1.5927427,0.3291667,0.20026971,0.36218992,104.04,32.1,28.38
1554117193514,-6.2847795,-6.925827000000001,1.5939398,0.27696875,0.17044231,0.32170987,103.98,32.16,28.32
1554117193537,-6.4350157,-6.855198,1.6166847,0.13209279,0.09374327,0.25353295,103.98,32.16,28.32
1554117193554,-6.5469446,-6.9198413,1.6837223999999997,0.03195793,0.014913702,0.21518342,103.98,32.16,28.26
1554117193573,-6.692991,-7.017405,1.8854338,-0.004261058,-0.06178534,0.18961707,103.92,32.16,28.2
1554117193594,-6.8611835999999995,-7.0521210000000005,1.9434932,0.0053263223,-0.12037488,0.17470337,103.92,32.1,28.14
1554117193614,-6.899491,-7.0245875999999985,1.9620483,0.015978966,-0.18748654,0.16831179,103.92,31.98,28.08
1554117193634,-6.826467500000001,-6.956353,2.0392613,0.03089267,-0.24607609,0.18109496,103.98,31.86,27.96
1554117193654,-6.707954400000001,-6.7576339999999995,2.2212207000000004,0.07243799,-0.27057716,0.19600865,103.98,31.74,27.84
1554117193674,-6.6600703999999995,-6.610989599999999,2.1942859,0.14168017,-0.27377295,0.19387813,104.16,31.62,27.72
1554117193694,-6.5511346,-6.331466000000001,2.2361843999999995,0.18642128,-0.23648871,0.1768339,104.28,31.5,27.54
1554117193713,-6.491878,-6.017826,2.3008277,0.23435818,-0.17789917,0.11930962,104.4,31.38,27.36
1554117193733,-6.5990186,-5.9082913,2.2014685000000003,0.26738137,-0.09374327,0.051132694000000006,104.58,31.26,27.12
1554117193754,-6.495469,-5.886145,2.1362264,0.23861924,-0.014913702,-0.037284255,104.76,31.14,26.94
1554117193774,-6.206968,-5.852027400000001,2.123657,0.13528858,0.07669904,-0.1470065,104.94,31.08,26.76
1554117193794,-6.218939,-5.8586116,1.9452889,-0.06285059999999999,0.14061491,-0.27590349999999997,105.12,31.08,26.64
1554117193814,-6.427234599999999,-5.8909335,2.0099323,-0.33768883,0.14061491,-0.37816888,105.18,31.02,26.52
1554117193833,-6.4840965,-6.1967926,1.8710686,-0.58269966,0.08948222,-0.41225734,105.24,31.02,26.46
1554117193853,-6.4398040000000005,-6.555923,1.7429788,-0.7126619000000001,0.06391586,-0.40373522,105.3,31.02,26.4
1554117193874,-6.4541693,-6.8743514999999995,1.6292541999999999,-0.7307714,0.07137272,-0.36218992,105.3,30.96,26.4
1554117193893,-6.497863300000001,-7.261015400000001,1.4772223999999998,-0.5763081,0.12783173,-0.28336033,105.12,30.9,26.52
1554117193913,-6.4146647,-7.2370734,1.2366052,-0.4261058,0.16618125,-0.21411815,105.0,30.9,26.7
1554117193933,-6.3871317,-7.204153,1.1300632,-0.32597092,0.18855181,-0.16724652,104.76,30.84,26.94
1554117193954,-6.378153299999999,-7.241263000000001,0.9552864999999999,-0.28122982,0.19281286,-0.14168017,104.58,30.84,27.12
1554117193973,-6.4481835,-7.282563000000001,0.777517,-0.28336033,0.19707392,-0.14487597,104.34,30.78,27.3
1554117193994,-6.4469867,-7.28795,0.7433996,-0.3206446,0.18322548,-0.1587244,104.22,30.78,27.36
1554117194014,-6.4302273,-7.238270299999999,0.7433996,-0.40906155,0.15659387,-0.15552860000000002,104.04,30.72,27.6
1554117194033,-6.364985,-7.300519500000001,0.5542577,-0.5305017,0.10333065,-0.10013486,103.74,30.72,28.02
1554117194054,-6.2823853,-7.3885064,0.56563014,-0.5901565,0.07243799,-0.05539375,103.68,30.6,28.38
1554117194073,-6.350021400000001,-7.5267715,0.50158525,-0.5784385999999999,0.054328485999999995,-0.04261058,103.62,30.54,28.56
1554117194093,-6.365583999999999,-7.5950065,0.48243165,-0.5028047999999999,0.01917476,-0.037284255,103.5,30.3,28.8
1554117194113,-6.384139,-7.6267295,0.30226797,-0.39734364,-0.03195793,-0.037284255,103.38,29.88,29.28
1554117194133,-6.4002995,-7.730877400000001,0.05865794,-0.39734364,-0.07563378,-0.049002163,103.32,29.64,29.52
1554117194154,-6.389526,-7.677007700000001,-0.093373865,-0.47830373,-0.10972224,-0.029827405,103.26,29.34,29.82
1554117194174,-6.3512187,-7.7386584,-0.024540568,-0.5550028,-0.14807177,0.025566347000000003,103.2,29.04,30.12
1554117194194,-6.2781954,-7.868544,0.142455,-0.5603291,-0.18216023,0.10546118,103.14,28.74,30.42
1554117194213,-6.2817870000000005,-7.925406,0.13108255,-0.47297743,-0.18748654,0.18109496,103.08,28.5,30.6
1554117194233,-6.451775,-8.031948,0.18974048,-0.330232,-0.1768339,0.24394555,103.02,28.2,30.72
1554117194254,-6.569091,-8.11395,0.27174190000000004,-0.18961707,-0.17257284,0.29827404,103.08,27.78,30.9
1554117194273,-6.7229185,-7.9768815,0.374094,-0.112918034,-0.18748654,0.35792887,103.14,27.3,31.08
1554117194294,-6.9491705999999995,-8.003217999999999,0.5093664000000001,-0.060720075,-0.23329292,0.386691,103.2,26.94,31.2
1554117194313,-6.9108634,-8.054094000000001,0.50757074,-0.039414786,-0.26312032,0.4101268,103.32,26.52,31.32
1554117194334,-6.9342065,-8.028357000000002,0.48841715,-0.025566347000000003,-0.32490566,0.42290998,103.5,26.1,31.44
1554117194353,-6.996455999999999,-7.939771,0.56443304,0.05006743,-0.386691,0.46765109999999993,103.68,25.74,31.44
1554117194374,-6.997653,-7.852383000000001,0.6206968,0.22264028,-0.43036684,0.5773733,103.86,25.38,31.44
1554117194394,-7.064092,-7.639898,0.55246204,0.4133226,-0.45060685,0.6775081999999999,104.1,25.08,31.38
1554117194414,-7.147290700000001,-7.274781699999999,0.5662286999999999,0.6125271,-0.45273739999999996,0.7957525,104.4,24.9,31.26
1554117194434,-7.2580222999999995,-7.1263413,0.6817489000000001,0.74675035,-0.45912898,0.9033443000000001,104.76,24.78,31.2
1554117194453,-7.1131735,-6.8970966,0.9091981,0.77231675,-0.4889564,0.9491506,105.18,24.6,31.02
1554117194474,-6.9862804,-6.2859764,1.359308,0.73609775,-0.51665324,0.9289106,105.66,24.54,30.72
1554117194494,-7.041347,-5.843049,1.8806453999999997,0.7350325,-0.535828,0.9054747999999999,106.08,24.36,30.42
1554117194513,-6.9880759999999995,-5.66528,2.1918917,0.793622,-0.51984906,0.8671253000000001,106.5,24.18,30.0
1554117194533,-7.0102224,-5.333683000000001,2.4462755,0.81705785,-0.47191215,0.79042625,106.98,24.0,29.52
1554117194553,-7.0341644,-4.917690299999999,2.4450784,0.79255676,-0.39521313,0.67218184,107.46,23.76,29.1
1554117194573,-7.023391,-4.678869000000001,2.4139538,0.7392935,-0.2972088,0.58696073,108.0,23.46,28.62
1554117194593,-7.055712,-4.563947,2.5145104,0.6530071,-0.19068234,0.50600064,108.48,23.22,28.08
1554117194613,-7.277176,-4.447828299999999,2.5611973,0.5368933000000001,-0.13315806,0.41225734,108.9,22.98,27.42
1554117194634,-7.5285673,-4.423287999999999,2.4355016,0.43888897,-0.10226539,0.3334278,109.26,22.68,26.82
1554117194653,-7.660248299999999,-4.551976,2.2786815,0.38882150000000004,-0.06178534,0.25033715,109.62,22.38,26.28
1554117194674,-7.924208999999999,-4.5807066,2.2260091,0.37071204,-0.036218993,0.16192019,109.98,22.14,25.74
1554117194693,-8.218098,-4.4424415,2.1948842999999996,0.35899413,-0.047936900000000005,0.10972224,110.28,21.96,25.38
1554117194713,-8.249222,-4.3915644,2.4528596,0.30892670000000005,-0.05219796,0.08948222,110.46,21.84,24.96
1554117194734,-8.359355,-4.320935700000001,2.6090812999999997,0.26525086,-0.068176925,0.039414786,110.58,21.78,24.6
1554117194754,-8.304289,-4.2341456,2.6862943,0.15233281,-0.10652645,0.051132694000000006,110.64,21.84,24.42
1554117194774,-8.071452,-4.23654,2.9053638,0.08628642,-0.14807177,0.06391586,110.7,21.9,24.3
1554117194793,-7.772177,-4.1545385999999995,3.12982,0.18961707,-0.14487597,0.040480047000000005,110.76,21.96,24.3
1554117194814,-7.7105265,-4.1102457,2.9580362,0.27803403,-0.11930962,0.023435817999999997,110.82,22.02,24.18
1554117194834,-7.858368400000001,-4.12102,2.9281087,0.3153183,-0.101200126,0.018109497,110.82,22.08,24.12
1554117194854,-7.798513400000001,-4.336498000000001,2.7377696,0.28655612,-0.10865697,0.008522116,110.88,22.14,24.0
1554117194874,-7.654263,-4.6082397,2.3570917000000002,0.2428803,-0.111852765,-0.033023197000000004,110.94,22.2,23.88
1554117194894,-8.164227499999999,-4.585495,2.054225,0.19387813,-0.06604639400000001,-0.07776430000000001,111.0,22.26,23.76
1554117194913,-8.6334915,-4.4681787,2.0225020000000002,0.06924219,-0.06391586,-0.035153727999999995,111.12,22.32,23.7
1554117194933,-8.592191999999999,-4.7937902999999995,2.142212,-0.082025364,-0.094808534,0.07989483,111.18,22.32,23.58
1554117194955,-8.312667999999999,-5.236717700000001,2.6868927000000005,-0.19174760000000002,-0.13635385,0.17470337,111.24,22.38,23.34
1554117194974,-8.159439,-5.1002483,3.080739,-0.1470065,-0.20026971,0.17363810000000002,111.3,22.38,23.34
1554117194994,-8.207922,-4.811747,3.3381157,-0.0010652645,-0.26631612,0.16085494,111.36,22.38,23.28
1554117195014,-8.166023,-4.6848540000000005,3.2854433,0.11824436,-0.294013,0.15552860000000002,111.48,22.44,23.16
1554117195034,-8.15525,-4.679467,3.4674027,0.10226539,-0.28549087,0.13848437,111.6,22.44,23.1
1554117195053,-8.02716,-4.582502,3.591901,0.054328485999999995,-0.28549087,0.09267801,111.78,22.44,22.98
1554117195073,-7.872733599999999,-4.51726,3.3800142,-0.004261058,-0.27590349999999997,0.083090626,111.9,22.38,22.8
1554117195093,-7.8475947,-4.420893700000001,3.3704373999999997,-0.039414786,-0.26312032,0.07456851,112.08,22.2,22.68
1554117195115,-7.778163,-4.4286747,3.3680432000000002,-0.033023197000000004,-0.25566345,0.082025364,112.2,22.02,22.5
1554117195134,-7.711724,-4.518457,3.3243492,0.03195793,-0.23542345,0.09587380000000001,112.32,21.84,22.32
1554117195154,-7.683592,-4.534618,3.3327288999999998,0.11824436,-0.18961707,0.07243799,112.44,21.66,22.08
1554117195174,-7.6907744000000005,-4.375403400000001,3.2483332000000003,0.14594123,-0.17789917,0.040480047000000005,112.56,21.48,21.9
1554117195194,-7.8709383,-4.0545807,2.9759927000000004,0.11930962,-0.1949434,0.06498113,112.56,21.3,21.66
1554117195213,-8.016983999999999,-4.1623197,3.1381997999999998,0.043675844000000005,-0.1949434,0.14913702,112.56,21.18,21.48
1554117195233,-7.890092,-4.317344,3.4715924,0.01917476,-0.17789917,0.17257284,112.62,21.06,21.24
1554117195254,-7.7889365999999995,-4.3305125,3.7020345,0.101200126,-0.13635385,0.12570119999999999,112.68,21.0,21.0
1554117195273,-7.884106,-4.1401734,3.5901055,0.18855181,-0.099069595,0.098004326,112.8,21.0,20.82
1554117195293,-7.8092875,-4.0120835,3.3303347000000003,0.17150758,-0.08735169,0.10759171,113.04,21.0,20.64
1554117195314,-7.7087307,-3.9797617999999995,3.2860417,0.09054748,-0.09054748,0.08628642,113.22,21.0,20.52
1554117195334,-7.701548,-4.0695443,3.5326445,0.040480047000000005,-0.082025364,0.054328485999999995,113.4,20.94,20.34
1554117195354,-7.6788034,-4.164714,3.513491,0.024501082,-0.07882957,0.01917476,113.58,20.94,20.16
1554117195374,-7.714117999999999,-4.155137,3.3195608,0.010652645,-0.07137272,-0.008522116,113.7,20.88,19.98
1554117195394,-7.854178999999999,-4.174889,3.482965,-0.03195793,-0.06285059999999999,-0.018109497,113.82,20.76,19.86
1554117195414,-7.6734165999999995,-4.2221746,3.7271736000000004,-0.007456851,-0.07137272,-0.00958738,113.94,20.7,19.68
1554117195434,-7.5758529999999995,-4.207211,3.8379053999999995,0.12570119999999999,-0.047936900000000005,-0.014913702,113.94,20.58,19.56
1554117195453,-7.5566993,-4.0617633,3.8468835,0.26312032,0.002130529,-0.026631612000000002,113.94,20.52,19.44
1554117195475,-7.6728176999999995,-3.9115269999999995,3.6104562000000007,0.2727077,0.05219796,-0.01917476,114.0,20.46,19.32
1554117195493,-7.7787614000000005,-3.8247373,3.615843,0.18109496,0.054328485999999995,-0.020240024,114.06,20.4,19.2
1554117195513,-7.798513400000001,-3.8139634,3.4901476000000002,0.06285059999999999,0.029827405,-0.023435817999999997,114.06,20.4,19.2
1554117195533,-7.8236527,-3.7948096,3.4626143,-0.022370555,0.04474111,-0.04580637,114.12,20.46,19.2
1554117195554,-7.855974000000001,-3.9217023999999996,3.4308910000000004,-0.02876214,0.035153727999999995,-0.082025364,114.12,20.46,19.2
1554117195573,-8.080430999999999,-3.9492357000000005,3.3405099999999996,-0.0063915867,0.03834952,-0.10865697,114.12,20.52,19.2
1554117195594,-7.9571295,-3.9408559999999997,3.401562,-0.082025364,0.004261058,-0.07776430000000001,114.12,20.64,19.2
1554117195614,-7.9541364,-4.203021,3.4386723,-0.17470337,-0.047936900000000005,-0.058589544,114.0,20.7,19.2
1554117195634,-7.839214999999999,-4.32333,3.560178,-0.23755397,-0.036218993,-0.040480047000000005,113.94,20.7,19.26
1554117195654,-7.9427642999999994,-4.26527,3.9689879999999995,-0.18748654,-0.022370555,-0.04580637,113.88,20.76,19.32
1554117195673,-7.8787193,-4.1958385,3.8367082999999997,-0.04474111,-0.017044231,-0.029827405,113.82,20.76,19.38
1554117195693,-7.911041,-4.138976,3.7086184,0.03089267,-0.011717908999999999,-0.029827405,113.76,20.76,19.5
1554117195714,-8.288128,-4.0276456,3.4548330000000003,-0.029827405,-0.008522116,-0.03195793,113.76,20.76,19.56
1554117195734,-8.22947,-4.1096473,3.9055413999999997,-0.16937704,0.0063915867,0.007456851,113.82,20.76,19.62
1554117195754,-7.49445,-4.2197804,4.1449620000000005,-0.18642128,0.039414786,-0.008522116,113.88,20.7,19.68
1554117195774,-7.424419400000001,-3.9270894999999997,5.011064,0.06285059999999999,0.21198763,-0.113983296,113.88,20.7,19.68
1554117195793,-7.766192,-3.5895068999999995,3.693056,0.22583607,0.17896444,-0.17044231,113.94,20.7,19.74
1554117195813,-7.501034,-3.8139634,3.0609868,0.16831179,0.1949434,-0.15339808,113.94,20.64,19.74
1554117195834,-7.743447,-3.8289269999999997,3.0340521000000003,-0.036218993,0.1768339,-0.2609898,113.94,20.58,19.74
1554117195854,-7.874529400000001,-3.9228995,3.007716,-0.24607609,0.13422333,-0.28336033,113.94,20.58,19.74
1554117195874,-7.784147999999999,-4.257489,3.0657754,-0.38349520000000004,0.15233281,-0.26738137,113.88,20.58,19.8
1554117195894,-7.753622,-4.207211,3.1669302000000004,-0.46019423,0.20453078,-0.28549087,113.88,20.52,19.86
1554117195914,-7.809886,-4.032433999999999,3.4213142,-0.55074173,0.23116238,-0.30892670000000005,113.82,20.52,19.98
1554117195934,-7.7733746,-3.819949,3.5326445,-0.6828345,0.2130529,-0.34940675,113.7,20.52,20.04
1554117195954,-7.6351094,-3.6942532,3.4566288,-0.8277104999999999,0.20453078,-0.4165184,113.58,20.58,20.22
1554117195974,-7.541735000000001,-3.8576574,3.4213142,-0.8298409999999999,0.25566345,-0.48469532,113.46,20.64,20.34
1554117195994,-7.390900599999999,-4.143166000000001,3.4799721,-0.6860303000000001,0.33555830000000003,-0.5475459,113.34,20.7,20.64
1554117196014,-7.207744,-4.3508629999999995,3.3327288999999998,-0.55287224,0.4048005,-0.6359629,113.22,20.82,21.0
1554117196033,-7.1580644,-4.361038,3.156755,-0.5028047999999999,0.43569317,-0.76592517,113.04,20.88,21.48
1554117196054,-7.0880339999999995,-4.5196543,2.8072014,-0.46978164,0.44954160000000004,-0.8681905000000001,112.92,21.0,21.96
1554117196074,-6.908469,-5.1056349999999995,2.3122002999999998,-0.42717105,0.48043427,-0.93849796,112.68,21.12,22.44
1554117196094,-7.0006455999999995,-5.302558400000001,1.9794062,-0.43462790000000007,0.49534798,-0.99921805,112.38,21.24,22.92
1554117196113,-7.2424603,-5.3276973,1.5478513999999999,-0.5251754,0.515588,-1.0460896000000002,112.02,21.36,23.4
1554117196134,-7.2322845000000004,-5.523423,1.091756,-0.7052050999999999,0.51771855,-1.026915,111.66,21.66,23.76
1554117196154,-7.107187700000001,-5.872378299999999,1.0426749,-0.79681784,0.51665324,-0.9821738000000001,111.3,22.02,24.12
1554117196173,-7.0263834,-6.2380924,0.9331401,-0.8330368,0.50173956,-0.9406285,110.88,22.38,24.42
1554117196193,-6.9743094,-6.4098763,0.9127894,-0.84581995,0.48363006,-0.92038846,110.46,22.74,24.78
1554117196214,-6.906075,-6.673837,0.8062474000000001,-0.7616641,0.46232477,-0.902279,109.92,23.1,25.32
1554117196234,-6.8761472999999995,-7.108384599999999,0.61052144,-0.65194184,0.47510794,-0.83729786,109.32,23.46,25.86
1554117196254,-6.733692,-7.516596300000001,0.47165772,-0.5571333,0.46765109999999993,-0.8085357,108.78,23.82,26.34
1554117196273,-6.747458999999999,-7.6231384,0.43394905,-0.49321744,0.44634579999999996,-0.79042625,108.3,24.12,26.82
1554117196294,-6.7366850000000005,-7.7201033,-0.008379705999999999,-0.39734364,0.39308259999999995,-0.74461985,107.82,24.36,27.3
1554117196314,-6.7163343,-7.8996687,-0.37529109999999993,-0.36218992,0.33449304,-0.6508765999999999,107.22,24.54,27.9
1554117196334,-6.6522894,-8.058883,-0.24061728,-0.43249738,0.27377295,-0.57098174,106.62,24.66,28.5
1554117196354,-6.667852000000001,-8.168417999999999,-0.1448492,-0.5049353,0.18642128,-0.5305017,106.14,24.84,29.04
1554117196373,-6.6217630000000005,-8.211513499999999,-0.28072014,-0.5454154,0.10759171,-0.47617322,105.72,24.96,29.34
1554117196393,-6.514024299999999,-8.171411,-0.350152,-0.5635249,0.04474111,-0.42930159999999995,105.36,25.08,29.76
1554117196413,-6.467936,-8.154651,-0.2645593,-0.531567,0.00958738,-0.3898868,105.06,25.14,30.18
1554117196434,-6.4242415,-8.109161,-0.272939,-0.46125950000000004,-0.02876214,-0.34301516,104.7,25.2,30.6
1554117196454,-6.308123,-8.158841,-0.2777274,-0.38562572,-0.05965481,-0.30360037,104.4,25.2,30.96
1554117196474,-6.2195373,-8.313267,-0.23223756,-0.29507825,-0.080960095,-0.27803403,104.16,25.2,31.38
1554117196494,-6.0764837,-8.254010000000001,-0.24779987,-0.21837921,-0.08841695,-0.24074976,103.92,25.14,31.74
1554117196514,-6.089652,-8.158242,-0.24600422,-0.17150758,-0.10759171,-0.21198763,103.74,25.08,31.86
1554117196534,-6.1806316,-8.036138000000001,-0.2861071,-0.13741912,-0.12463594,-0.18535602,103.56,24.96,32.04
1554117196553,-6.10701,-8.052299,-0.22266077,-0.11717909,-0.14487597,-0.1470065,103.38,24.9,32.22
1554117196573,-6.0920463,-8.065467,-0.12330139,-0.09587380000000001,-0.14913702,-0.13315806,103.2,24.84,32.34
1554117196594,-6.1249666,-7.9487495,-0.094570965,-0.041545313,-0.15978967,-0.12996227,103.14,24.78,32.46
1554117196615,-6.1363389999999995,-7.8308353,-0.061650693,0.07669904,-0.165116,-0.10759171,103.02,24.66,32.58
1554117196634,-6.072892700000001,-7.785944000000001,-0.13227965,0.09374327,-0.16085494,-0.083090626,102.96,24.6,32.64
1554117196654,-6.0824695,-7.717708999999999,-0.15502456,0.029827405,-0.16937704,-0.080960095,102.96,24.54,32.64
1554117196674,-6.0639142999999995,-7.7368627000000005,-0.14006079999999999,-0.07137272,-0.1949434,-0.07882957,102.9,24.6,32.64
1554117196693,-6.0585275,-7.828441000000001,-0.12449849,-0.13422333,-0.21092236,-0.07456851,102.9,24.66,32.58
1554117196713,-6.0974330000000005,-7.7877398,-0.11611878,-0.15020229,-0.21411815,-0.06498113,102.9,24.66,32.58
1554117196734,-6.0363812,-7.892486,0.093373865,-0.18429075,-0.22050974,-0.022370555,102.96,24.72,32.52
1554117196755,-6.002862,-7.9224133000000005,0.16699557,-0.17150758,-0.22903186,-0.03089267,103.02,24.78,32.46
1554117196774,-5.9807158,-7.8517847000000005,0.06883330000000001,-0.099069595,-0.23648871,-0.040480047000000005,103.02,24.84,32.4
1554117196793,-5.90889,-7.852383000000001,0.05686229,-0.047936900000000005,-0.23329292,-0.03195793,103.14,24.9,32.34
1554117196813,-5.8789620000000005,-7.9266033,0.035913024,-0.023435817999999997,-0.22903186,-0.036218993,103.32,24.9,32.28
1554117196833,-5.8598084,-8.000225,0.12330139,-0.02876214,-0.2066613,-0.037284255,103.62,24.9,32.22
1554117196854,-5.789778,-8.008006,0.15143326,-0.018109497,-0.18961707,-0.04474111,103.86,24.84,32.22
1554117196874,-5.7664347000000005,-7.9954367,-0.027533319,0.0053263223,-0.1768339,-0.036218993,104.04,24.72,32.16
1554117196893,-5.719149,-8.022969999999999,-0.074818805,0.03089267,-0.15552860000000002,-0.010652645,104.22,24.66,32.1
1554117196913,-5.6820393,-7.9702972999999995,-0.037110128,0.041545313,-0.14487597,0.015978966,104.4,24.48,32.04
1554117196933,-5.5743003,-7.876923599999999,-0.15861586,-0.010652645,-0.13954964,0.05752428,104.52,24.36,31.98
1554117196953,-5.498883,-7.7254906000000005,-0.10354923,-0.07030745599999999,-0.14168017,0.06498113,104.58,24.18,31.92
1554117196974,-5.530606,-7.6225395,-0.110731825,-0.096939065,-0.13635385,0.06391586,104.58,24.06,31.86
1554117196993,-5.547964,-7.668628,0.08918401599999999,-0.10333065,-0.12570119999999999,0.058589544,104.52,24.0,31.8
1554117197013,-5.5545480000000005,-7.682993400000001,0.22625206,-0.10013486,-0.11504856,0.033023197000000004,104.46,23.94,31.74
1554117197033,-5.5581393,-7.654861500000001,0.32441434,-0.07776430000000001,-0.099069595,0.012783173500000002,104.46,23.88,31.68
1554117197054,-5.577293,-7.713519,0.41180268,-0.04580637,-0.06391586,0.002130529,104.46,23.88,31.62
1554117197073,-5.566519,-7.750031,0.4441244000000001,-0.025566347000000003,-0.029827405,-0.0063915867,104.52,23.88,31.56
1554117197093,-5.683835,-7.811681699999999,0.36272156,-0.02130529,0.0063915867,-0.015978966,104.58,23.94,31.38
1554117197113,-5.677251,-7.8386164,0.33159694,-0.004261058,0.04474111,-0.025566347000000003,104.58,24.0,31.26
1554117197133,-5.7161565,-7.8637557000000005,0.2777274,0.017044231,0.080960095,-0.02876214,104.58,24.0,31.14
1554117197154,-5.7496753,-7.8930845000000005,0.18734628,0.03834952,0.08841695,-0.026631612000000002,104.58,24.06,31.02
1554117197174,-5.738901599999999,-7.9086466,0.07841010400000001,0.04474111,0.08522116,-0.013848438000000001,104.58,24.06,30.96
1554117197194,-5.7813989999999995,-7.867945,0.048482585999999994,0.07563378,0.08735169,-0.002130529,104.64,24.06,30.96
1554117197214,-5.825691,-7.730877400000001,-0.030526072,0.13848437,0.082025364,-0.0010652645,104.7,24.0,31.02
1554117197233,-5.825691,-7.568670299999999,-0.047884032,0.19281286,0.06391586,0.004261058,104.76,24.06,31.02
1554117197254,-5.9184665999999995,-7.5770497,0.007781155400000001,0.2695119,0.051132694000000006,0.002130529,104.82,24.06,31.2
1554117197273,-5.9465985,-7.616554300000001,-0.035913024,0.39947417,0.039414786,-0.01917476,104.88,24.06,31.26
1554117197294,-5.948992700000001,-7.592612299999999,-0.008978256,0.5486112,0.026631612000000002,-0.043675844000000005,104.94,24.06,31.38
1554117197313,-5.971139,-7.483077499999999,-0.023942016,0.63915867,-0.011717908999999999,-0.07350325,105.0,24.12,31.44
1554117197333,-6.013636,-7.3322425,-0.05327099,0.6242449999999999,-0.08735169,-0.113983296,105.06,24.12,31.5
1554117197354,-6.017826,-7.2975270000000005,-0.12808979,0.52411014,-0.18002969,-0.15978967,105.06,24.24,31.44
1554117197373,-5.9873,-7.399878999999999,-0.23223756,0.36112466,-0.2790993,-0.20453078,105.06,24.54,31.26
1554117197393,-5.835268,-7.480085000000001,-0.207697,0.20772657,-0.34834146,-0.2609898,105.0,24.78,31.02
1554117197414,-5.7137623,-7.441777,0.12090719,0.12144015,-0.37284255,-0.294013,105.0,25.08,30.78
1554117197434,-5.6497173,-7.37055,0.5021838,0.07243799,-0.386691,-0.29827404,104.94,25.44,30.6
1554117197454,-5.719748,-7.32925,0.7110779,-0.002130529,-0.40266997,-0.29933932,104.94,25.92,30.18
1554117197474,-5.741296,-7.410054,0.95708215,-0.15552860000000002,-0.42397526,-0.31851408,104.88,26.22,29.88
1554117197494,-5.785588300000001,-7.5974007,1.3437457,-0.3323625,-0.43356264,-0.32384038,104.88,26.52,29.52
1554117197514,-5.8466406,-7.7931266,1.7136499,-0.52411014,-0.43462790000000007,-0.32277513,104.88,26.7,29.28
1554117197534,-5.9047,-7.967304700000001,1.8567034,-0.6359629,-0.4133226,-0.30360037,104.88,26.76,29.1
1554117197554,-5.960365299999999,-8.256405,1.8537107,-0.6135923000000001,-0.36964676,-0.28229508,104.88,26.82,28.92
1554117197573,-5.9118824,-8.510789,1.6621746,-0.5219796,-0.32277513,-0.27590349999999997,104.94,26.88,28.74
1554117197594,-5.861604,-8.6334915,1.5532384,-0.44208476,-0.29188246,-0.27696875,105.06,26.88,28.56
1554117197614,-5.825691,-8.652046,1.4197617,-0.2727077,-0.27377295,-0.26418558,105.24,26.88,28.5
1554117197633,-5.789778,-8.644264999999999,1.1115081,-0.12357068,-0.28442562,-0.24074976,105.42,26.82,28.5
1554117197653,-5.667674,-8.502409,0.8062474000000001,-0.029827405,-0.30040458,-0.21624869,105.48,26.82,28.44
1554117197673,-5.599439,-8.39886,0.6302736,0.07350325,-0.34408042,-0.18216023,105.72,26.76,28.44
1554117197693,-5.494693,-8.276156,0.6440403,0.13209279,-0.39201729999999996,-0.17257284,105.9,26.7,28.38
1554117197713,-5.379173000000001,-8.088212,0.6805518,0.18748654,-0.45380265,-0.16937704,106.02,26.7,28.38
1554117197734,-5.278017500000001,-7.9182234,0.6631939,0.18216023,-0.5294364,-0.17576863,106.14,26.76,28.38
1554117197753,-5.2768207,-7.949348,0.6751649000000001,0.14594123,-0.55287224,-0.18642128,106.14,26.88,28.32
1554117197773,-5.197213,-7.998429300000001,0.8559271,0.080960095,-0.57417756,-0.20985709,106.14,27.06,28.26
1554117197794,-5.037999,-7.8876976999999995,1.2306197,0.0,-0.5901565,-0.23542345,106.14,27.24,28.08
1554117197814,-4.8937483,-7.8954787,1.364695,-0.06924219,-0.62104917,-0.27164245,106.2,27.48,27.9
1554117197833,-4.8452660000000005,-8.113351,1.3826513999999999,-0.12996227,-0.63383234,-0.26312032,106.32,27.72,27.66
1554117197853,-4.8524485,-8.31207,1.4000093999999998,-0.24181503,-0.6402239000000001,-0.22903186,106.44,27.9,27.36
1554117197873,-4.724957,-8.406042,1.5083469999999999,-0.32490566,-0.6402239000000001,-0.18535602,106.56,28.08,27.12
1554117197894,-4.646547,-8.55987,1.6136919,-0.33129725,-0.6221144000000001,-0.17363810000000002,106.68,28.26,26.82
1554117197915,-4.5603557,-8.675988,1.6819267,-0.28122982,-0.5954828000000001,-0.15339808,106.8,28.32,26.52
1554117197933,-4.422689,-8.624513,1.7040731,-0.2066613,-0.5539375,-0.13209279,106.86,28.44,26.22
1554117197953,-4.373009,-8.578424,1.5711948999999998,-0.14168017,-0.5049353,-0.11824436,106.98,28.44,25.98
1554117197974,-4.3275194,-8.5473,1.6208745,-0.11824436,-0.46552056,-0.094808534,107.04,28.5,25.74
1554117197993,-4.240131400000001,-8.497621,1.5520413,-0.13209279,-0.42717105,-0.07989483,107.1,28.56,25.56
1554117198014,-4.1557355000000005,-8.534730999999999,1.4682442,-0.16085494,-0.38349520000000004,-0.068176925,107.22,28.62,25.44
1554117198034,-4.103661499999999,-8.568848,1.4550761,-0.19813919,-0.33875409999999995,-0.05006743,107.34,28.62,25.26
1554117198054,-4.0599675,-8.592191999999999,1.4431051000000001,-0.24501082,-0.29294774,-0.027696876000000002,107.46,28.68,25.08
1554117198074,-3.9797617999999995,-8.695142,1.4915876000000001,-0.28016454,-0.25246766,-0.012783173500000002,107.64,28.68,24.84
1554117198094,-3.9426517,-8.747814,1.5089456,-0.27483824,-0.22050974,-0.007456851,107.76,28.68,24.66
1554117198113,-3.9456443999999995,-8.762179,1.496376,-0.25033715,-0.17576863,-0.0063915867,107.94,28.68,24.48
1554117198134,-3.9348705,-8.781932000000001,1.5113398,-0.24181503,-0.13741912,0.0,108.12,28.74,24.3
1554117198153,-3.9528269999999996,-8.82802,1.4395138,-0.22796659,-0.10546118,-0.0063915867,108.24,28.74,24.18
1554117198174,-4.0138793,-8.829816000000001,1.4036007,-0.2130529,-0.06924219,-0.002130529,108.36,28.74,24.06
1554117198194,-3.9905357000000006,-8.787917,1.3569138,-0.19068234,-0.049002163,-0.0010652645,108.48,28.74,23.94
1554117198213,-4.0545807,-8.662222,1.3347674999999999,-0.17363810000000002,-0.027696876000000002,0.0053263223,108.54,28.74,23.88
1554117198234,-4.182071700000001,-8.651448,1.2204443,-0.15339808,-0.010652645,0.0010652645,108.66,28.68,23.82
1554117198254,-4.3688197,-8.509591,1.1498153,-0.1438107,-0.014913702,0.015978966,108.78,28.62,23.76
1554117198274,-4.583699,-8.422203,1.1593921,-0.15126756,-0.02876214,0.047936900000000005,108.9,28.56,23.76
1554117198293,-4.6980224,-8.4647,1.1665748,-0.14807177,-0.060720075,0.060720075,108.96,28.38,23.7
1554117198313,-4.6800656,-8.502409,1.2066777,-0.094808534,-0.09161274,0.07137272,109.02,28.2,23.7
1554117198334,-4.811148,-8.407838,1.1629834,-0.05752428,-0.10439592,0.07030745599999999,109.08,28.02,23.64
1554117198353,-5.029021,-8.3072815,1.0672153999999998,-0.07137272,-0.13315806,0.07669904,109.14,27.84,23.64
1554117198373,-5.242703,-8.356361999999999,1.062427,-0.10546118,-0.17044231,0.09374327,109.14,27.66,23.58
1554117198394,-5.312135,-8.435371,1.0157399999999999,-0.12570119999999999,-0.23755397,0.113983296,109.14,27.42,23.64
1554117198415,-5.279215,-8.526949,1.0426749,-0.1107875,-0.28442562,0.14807177,109.2,27.24,23.58
1554117198433,-5.3157263,-8.453327,1.0151415000000001,-0.07456851,-0.33768883,0.18748654,109.2,27.12,23.52
1554117198453,-5.3360769999999995,-8.276755,0.92296475,-0.068176925,-0.3898868,0.24181503,109.26,27.0,23.46
1554117198474,-5.2875943,-8.14687,0.94331545,-0.10333065,-0.46125950000000004,0.2790993,109.32,26.82,23.4
1554117198494,-5.183447,-8.075643,1.0031705,-0.13422333,-0.51665324,0.30040458,109.44,26.64,23.28
1554117198513,-5.114014599999999,-8.071452,1.1121067,-0.1470065,-0.5539375,0.2972088,109.62,26.4,23.1
1554117198533,-5.129576999999999,-8.018182000000001,1.1162965,-0.16724652,-0.58696073,0.27483824,109.86,26.16,22.98
1554117198554,-5.106832,-7.9427642999999994,1.1366472,-0.22796659,-0.61572284,0.257794,110.04,25.92,22.74
1554117198573,-5.033809,-7.985860000000001,1.1647792,-0.31851408,-0.62317973,0.23755397,110.28,25.68,22.56
1554117198594,-5.0200424,-8.005612,1.1731589,-0.37923414,-0.6199839,0.22050974,110.52,25.5,22.26
1554117198614,-5.018246700000001,-8.070255,1.2342110000000002,-0.42290998,-0.60080916,0.2130529,110.76,25.26,22.02
1554117198633,-4.9422307,-8.170214,1.2545617,-0.43249738,-0.58696073,0.19707392,111.06,25.08,21.78
1554117198653,-4.918288700000001,-8.173206,1.1731589,-0.4250405,-0.56885123,0.18109496,111.3,24.78,21.54
1554117198674,-4.9254713,-8.16722,1.1665748,-0.406931,-0.55287224,0.17044231,111.54,24.42,21.3
1554117198694,-4.8763905,-8.10138,1.1510124,-0.39201729999999996,-0.5411543000000001,0.16831179,111.72,23.94,21.0
1554117198714,-4.8775873,-8.046911999999999,1.1085154,-0.37923414,-0.5123922000000001,0.16192019,111.96,23.52,20.76
1554117198734,-4.945224,-7.9607205,0.9648633,-0.39201729999999996,-0.49108690000000005,0.12676647,112.2,23.1,20.52
1554117198754,-4.983531,-7.8422074,0.8319851,-0.44741106,-0.47723848,0.101200126,112.38,22.68,20.34
1554117198776,-5.0284224,-7.9104424,0.8194155000000001,-0.515588,-0.45380265,0.10865697,112.62,22.26,20.16
1554117198794,-5.018246700000001,-8.037933,0.82779527,-0.567786,-0.43249738,0.10652645,112.8,21.78,19.98
1554117198813,-4.9972973,-8.051102,0.8379706,-0.5752428,-0.39521313,0.09054748,112.98,21.3,19.74
1554117198833,-5.1241902999999995,-8.004415,0.83497787,-0.5571333,-0.35260254,0.07030745599999999,113.16,20.94,19.56
1554117198854,-5.2726307,-7.991845,0.7846996,-0.5858955,-0.32810146,0.056459017,113.28,20.7,19.38
1554117198874,-5.3181205,-8.09719,0.81343,-0.6359629,-0.31851408,0.05006743,113.46,20.46,19.26
1554117198894,-5.3402667,-8.273164,0.6913256999999999,-0.6583334,-0.30786142,0.05539375,113.64,20.22,19.14
1554117198914,-5.3169236,-8.359355,0.6159084,-0.6199839,-0.29933932,0.060720075,113.82,19.98,19.08
1554117198936,-5.358822,-8.403648,0.52373165,-0.5486112,-0.28442562,0.080960095,114.0,19.68,19.02
1554117198954,-5.3618144999999995,-8.374918,0.50158525,-0.52411014,-0.27696875,0.096939065,114.06,19.62,19.02
1554117198974,-5.3498434999999995,-8.271967,0.39085343,-0.49854377,-0.27696875,0.10972224,114.12,19.56,18.9
1554117198994,-5.3582234,-8.289325,0.31304187,-0.49641323,-0.28442562,0.12463594,114.18,19.44,18.78
1554117199014,-5.3516392999999995,-8.261192999999999,0.31603462,-0.46339005,-0.29188246,0.12144015,114.24,19.32,18.72
1554117199033,-5.4396260000000005,-8.312667999999999,0.4345476,-0.4261058,-0.27803403,0.12463594,114.3,18.84,18.54
1554117199053,-5.5030727,-8.319851,0.41479546,-0.38562572,-0.25246766,0.12570119999999999,114.3,18.48,18.48
1554117199073,-5.5329999999999995,-8.337209,0.34955344,-0.36218992,-0.22370553,0.13741912,114.36,18.24,18.42
1554117199093,-5.6551046,-8.392874,0.3854665,-0.36645097,-0.17896444,0.15339808,114.36,17.88,18.3
1554117199113,-5.807136,-8.358158,0.5746084,-0.3717773,-0.1470065,0.15978967,114.48,17.52,18.12
1554117199134,-5.8909335,-8.359355,0.6428431,-0.35899413,-0.128897,0.17896444,114.54,17.16,18.0
1554117199154,-6.0345855,-8.267777,0.8367735000000001,-0.3174488,-0.12463594,0.17576863,114.6,16.86,17.94
1554117199174,-6.3182983,-8.190564,0.8343792999999999,-0.25992453,-0.15446335,0.14594123,114.66,16.62,17.82
1554117199193,-6.4840965,-8.086416,0.7846996,-0.15339808,-0.16937704,0.14061491,114.72,16.38,17.7
1554117199214,-6.4344171999999995,-8.301894,0.46267948,-0.08841695,-0.17044231,0.15446335,114.78,16.32,17.64
1554117199234,-6.2620344,-8.363545,0.25258827,0.037284255,-0.13528858,0.18429075,114.84,16.14,17.58
1554117199254,-6.022016000000001,-8.212710000000001,-0.0047884034,0.12144015,-0.12250541,0.20559604,114.9,15.96,17.52
1554117199274,-5.828684,-8.135497,-0.2693477,0.16085494,-0.11930962,0.2130529,115.08,15.78,17.52
1554117199293,-5.6760535,-8.073248,-0.49919105,0.18322548,-0.112918034,0.20240025,115.2,15.6,17.52
1554117199313,-5.443816,-8.025364,-0.6973111999999999,0.13422333,-0.10013486,0.1949434,115.38,15.42,17.52
1554117199334,-5.2462945,-7.7949224,-0.61291564,0.0031957934000000003,-0.09267801,0.16618125,115.56,15.3,17.52
1554117199354,-5.2169657,-7.632714999999999,-0.39504328,-0.14913702,-0.08735169,0.11717909,115.68,15.12,17.4
1554117199374,-5.0787005,-7.7590094,-0.2741361,-0.25992453,-0.07350325,0.056459017,115.8,15.0,17.34
1554117199394,-4.9506106,-7.997232400000001,-0.21368249999999997,-0.27377295,-0.03834952,0.0010652645,115.86,14.94,17.28
1554117199414,-4.9703627,-8.24204,-0.24061728,-0.18216023,0.02876214,-0.047936900000000005,115.86,14.82,17.16
1554117199433,-5.1696800000000005,-8.2276745,-0.24600422,-0.068176925,0.09267801,-0.06924219,115.74,14.7,17.1
1554117199453,-5.3330839999999995,-8.072051,-0.4429273,-0.004261058,0.12357068,-0.054328485999999995,115.56,14.58,17.04
1554117199473,-5.455787,-8.012196000000001,-0.5931635000000001,-0.058589544,0.11717909,-0.013848438000000001,115.44,14.4,16.98
1554117199494,-5.5407815000000005,-7.9708962,-0.5422866999999999,-0.22583607,0.080960095,0.012783173500000002,115.26,14.22,16.92
1554117199514,-5.6826377,-7.9391727,-0.27952304,-0.29933932,0.07456851,0.02876214,115.2,14.04,16.98
1554117199534,-5.837064,-7.868544,-0.007182605,-0.24607609,0.080960095,0.023435817999999997,115.14,13.86,17.04
1554117199553,-5.8262897,-7.695563000000001,0.108936176,-0.16085494,0.08522116,0.00958738,115.14,13.68,17.1
1554117199574,-5.9442043,-7.5351515,-0.06464344,-0.014913702,0.1107875,0.010652645,115.14,13.44,17.22
1554117199593,-6.0387754000000005,-7.3974850000000005,-0.16879122,0.049002163,0.12570119999999999,0.00958738,115.2,13.2,17.28
1554117199614,-6.123171,-7.361572,-0.27353755,0.051132694000000006,0.12357068,0.02130529,115.26,13.02,17.4
1554117199634,-6.170456400000001,-7.294534,-0.48243165,-0.046871635999999994,0.09374327,0.027696876000000002,115.32,12.84,17.58
1554117199654,-6.0716953,-7.280169,-0.59974754,-0.19920446,0.040480047000000005,0.0063915867,115.38,12.66,17.7
1554117199674,-6.1064115,-7.457938,-0.49260699999999996,-0.2876214,-0.013848438000000001,-0.0063915867,115.44,12.48,17.76
1554117199694,-6.053739,-7.615956,-0.4890157,-0.30146983,-0.03834952,-0.010652645,115.5,12.3,17.88
1554117199714,-5.943007,-7.668029300000001,-0.59376204,-0.28442562,-0.037284255,-0.020240024,115.5,12.18,17.94
1554117199734,-5.945401,-7.6722193,-0.7410054,-0.30040458,-0.039414786,-0.011717908999999999,115.56,12.12,18.0
1554117199754,-6.019622,-7.681197599999999,-0.7248446,-0.37390783,-0.039414786,-0.0010652645,115.56,12.12,18.06
1554117199774,-6.081871,-7.7153149999999995,-0.65660983,-0.4261058,-0.034088463,0.01917476,115.56,12.06,18.12
1554117199794,-5.9011087,-7.776367,-0.53211135,-0.44847634,-0.017044231,0.026631612000000002,115.62,12.06,18.12
1554117199814,-5.8334722999999995,-7.997831,-0.5105635000000001,-0.33981937,0.041545313,0.017044231,115.62,12.0,18.12
1554117199834,-5.6999955,-8.16363,-0.3800795,-0.15978967,0.10865697,0.033023197000000004,115.68,12.0,18.06
1554117199853,-5.619191000000001,-8.000824,-0.4441244000000001,0.035153727999999995,0.1587244,0.00958738,115.68,11.94,18.06
1554117199873,-5.631162000000001,-7.855974000000001,-0.6410475,0.128897,0.1949434,0.0,115.68,11.94,18.06
1554117199893,-5.583278,-7.875128,-0.66498953,0.11504856,0.21837921,-0.012783173500000002,115.68,11.88,18.12
1554117199913,-5.599439,-7.891887,-0.7224503999999999,0.054328485999999995,0.24074976,-0.05752428,115.68,11.76,18.12
1554117199934,-5.5341973,-8.0684595,-0.6619968,0.0053263223,0.25672874,-0.07563378,115.68,11.7,18.24
1554117199954,-5.54138,-8.213907,-0.6051345,0.07350325,0.27164245,-0.082025364,115.68,11.64,18.36
1554117199974,-5.5629277,-8.129512,-0.7038953,0.2545982,0.29614353,-0.06604639400000001,115.62,11.58,18.54
1554117199994,-5.5521536,-8.09719,-0.7757214,0.34514567,0.31318775,-0.036218993,115.62,11.52,18.6
1554117200014,-5.433641000000001,-7.992444,-0.7062895,0.42717105,0.3334278,-0.020240024,115.62,11.52,18.72
1554117200034,-5.4480059999999995,-7.8972745,-0.8283938,0.48363006,0.36112466,-0.02130529,115.68,11.46,18.9
1554117200053,-5.4402246,-7.69257,-0.85652566,0.50813115,0.406931,0.0053263223,115.68,11.46,19.08
1554117200073,-5.3330839999999995,-7.6219410000000005,-0.7320272,0.48363006,0.44208476,0.03195793,115.68,11.46,19.32
1554117200094,-5.2079873,-7.5746554999999995,-0.6607997,0.42184472,0.48043427,0.039414786,115.68,11.46,19.8
1554117200114,-5.105036699999999,-7.461529700000001,-0.6099229,0.3749731,0.50600064,0.033023197000000004,115.62,11.46,20.04
1554117200134,-5.151125,-7.4339960000000005,-0.4794389,0.34194988,0.52624065,0.0063915867,115.56,11.46,20.34
1554117200154,-5.1038394,-7.377134,-0.3657143,0.31638354,0.5294364,-0.020240024,115.44,11.46,20.64
1554117200174,-5.273229,-7.396287400000001,-0.4758476,0.27483824,0.5550028,-0.04261058,115.32,11.46,20.94
1554117200194,-5.5168395,-7.3992805,-0.61650693,0.22370553,0.60933125,-0.058589544,115.2,11.58,21.24
1554117200214,-5.5868697,-7.4603324,-0.6440403,0.17896444,0.67537767,-0.046871635999999994,115.08,11.7,21.48
1554117200234,-5.6467247,-7.74225,-0.7739256999999999,0.16724652,0.74248934,-0.039414786,114.9,11.88,21.72
1554117200253,-5.8149176,-7.852981599999999,-1.0618285,0.18535602,0.813862,-0.05219796,114.78,12.12,22.02
1554117200273,-6.087258,-7.860164,-1.3545196000000002,0.22903186,0.8852348,-0.036218993,114.6,12.36,22.32
1554117200294,-6.3745623,-7.8463974,-1.5580268,0.26844665,0.92464954,0.010652645,114.48,12.6,22.74
1554117200313,-6.467936,-7.701548,-1.8758569999999999,0.25566345,0.92997587,0.09054748,114.36,12.84,23.28
1554117200334,-6.525397,-7.699753,-2.1051017999999995,0.13954964,0.8926915999999999,0.17044231,114.24,13.02,23.82
1554117200353,-6.625953,-7.759608,-2.0470424,0.033023197000000004,0.8309063,0.21092236,114.0,13.14,24.36
1554117200374,-6.5816603,-7.880514999999999,-1.8758569999999999,-0.002130529,0.76485986,0.27483824,113.76,13.14,24.84
1554117200394,-6.4386067,-8.025963,-1.7106571,0.034088463,0.7094661,0.3291667,113.4,13.08,25.44
1554117200414,-6.432023,-8.039729,-1.7094599999999998,0.13422333,0.6743124,0.34940675,113.1,13.02,25.92
1554117200434,-6.327875,-7.9547353,-1.6579846999999999,0.257794,0.6423545,0.36005938,112.74,12.84,26.4
1554117200454,-6.2638300000000005,-8.010999,-1.54845,0.40266997,0.6061354999999999,0.32384038,112.32,12.66,26.76
1554117200474,-6.1411276,-7.979874000000001,-1.4389153000000001,0.52837116,0.56885123,0.26418558,111.84,12.36,27.12
1554117200494,-6.1746464,-7.8577699999999995,-1.4407108999999998,0.62317973,0.5475459,0.2066613,111.36,12.06,27.48
1554117200513,-6.260239,-7.781753999999999,-1.4903905000000002,0.67324716,0.5486112,0.16618125,110.94,11.88,27.9
1554117200533,-6.132149,-7.7709804,-1.5113398,0.700944,0.57311225,0.14807177,110.64,11.64,28.26
1554117200553,-5.988497,-7.77517,-1.5047556999999998,0.73609775,0.61678815,0.13422333,110.4,11.46,28.56
1554117200574,-5.858013,-7.744644,-1.5077485000000002,0.753142,0.664725,0.13954964,110.16,11.28,28.86
1554117200594,-5.7161565,-7.7224975,-1.5143325,0.7637946,0.7073356,0.16298546,109.92,11.22,29.22
1554117200614,-5.546766799999999,-7.6847887,-1.555034,0.76912093,0.75101143,0.18109496,109.68,11.22,29.58
1554117200634,-5.4102974,-7.605181699999999,-1.5041572,0.78296936,0.79042625,0.18216023,109.5,11.34,29.88
1554117200654,-5.446210400000001,-7.5764512999999996,-1.4059948999999998,0.82344943,0.82557994,0.17789917,109.32,11.52,30.12
1554117200674,-5.507861,-7.419631,-1.4305356000000002,0.8841694999999999,0.86499476,0.18216023,109.14,11.7,30.42
1554117200694,-5.6401405,-7.2640080000000005,-1.5245079,0.9225190000000001,0.90654004,0.19174760000000002,108.84,11.82,30.78
1554117200714,-5.807136,-7.065888,-1.6549919999999998,0.9012136999999999,0.94275904,0.18961707,108.54,12.12,31.14
1554117200734,-6.121375,-6.884527,-1.6998832,0.8266452,0.9853696,0.18322548,108.18,12.42,31.5
1554117200754,-6.4044894999999995,-6.743269000000001,-1.7328035,0.72437984,1.0034790999999998,0.18002969,107.76,12.72,31.74
1554117200774,-6.6079965,-6.6217630000000005,-1.8064252,0.6146576,1.0120013,0.18535602,107.4,13.02,32.04
1554117200794,-6.7642183000000005,-6.5271926,-1.8171991000000003,0.5422196,0.9981528000000001,0.1949434,106.98,13.44,32.46
1554117200813,-7.0227923,-6.476914,-1.8740613000000002,0.45273739999999996,0.9768475000000001,0.2034655,106.62,13.92,32.82
1554117200833,-7.28795,-6.3907228,-1.9213468999999996,0.39414784,0.94595486,0.20772657,106.32,14.34,33.12
1554117200854,-7.582436599999999,-6.2273190000000005,-1.9740193,0.34834146,0.91186637,0.21944448,105.96,14.82,33.42
1554117200874,-7.852981599999999,-6.081871,-2.1481974,0.30679616,0.87777793,0.23222765,105.66,15.24,33.72
1554117200893,-8.315661,-5.831078,-2.3331497000000003,0.23329292,0.82877576,0.2428803,105.24,15.54,34.08
1554117200913,-8.55149,-5.6628857,-2.4612392999999995,0.10759171,0.70840085,0.26631612,104.88,15.84,34.5
1554117200934,-8.203134,-5.9082913,-2.236783,-0.101200126,0.45273739999999996,0.2545982,104.34,16.14,35.1
1554117200954,-7.943961,-6.300341599999999,-1.8680758000000002,-0.24394555,0.19920446,0.15233281,103.98,16.2,35.46
1554117200974,-7.5950065,-6.588244400000001,-1.6543933000000002,-0.31851408,-0.05219796,0.027696876000000002,103.62,16.26,35.76
1554117200993,-7.3424179999999994,-6.872555999999999,-1.7651252,-0.30253512,-0.25033715,-0.07137272,103.26,16.26,36.0
1554117201014,-6.8575919999999995,-7.3807254,-1.9213468999999996,-0.30253512,-0.38562572,-0.13315806,102.9,16.2,36.24
1554117201034,-6.3350577,-7.798513400000001,-1.929128,-0.2876214,-0.44954160000000004,-0.17896444,102.66,16.14,36.48
1554117201053,-6.1465144,-7.967304700000001,-1.7316063999999998,-0.18961707,-0.44315,-0.18429075,102.54,16.02,36.66
1554117201073,-6.1219735,-7.912238,-1.6597804,-0.07137272,-0.39840892,-0.12570119999999999,102.42,15.9,36.72
1554117201094,-6.0699,-7.750629400000001,-1.6274586000000002,0.0,-0.32810146,-0.06604639400000001,102.36,15.66,36.78
1554117201114,-5.971139,-7.507617999999999,-1.4574703000000002,0.056459017,-0.25140239999999997,-0.047936900000000005,102.36,15.42,36.78
1554117201134,-6.05733,-7.1903863,-1.4239515,0.113983296,-0.16937704,-0.04261058,102.36,15.18,36.78
1554117201153,-6.2087636,-6.894702400000001,-1.6101006000000002,0.12783173,-0.101200126,-0.07030745599999999,102.36,14.94,36.6
1554117201173,-6.425439,-6.612186400000001,-1.8459294999999998,0.06285059999999999,-0.060720075,-0.15020229,102.48,14.76,36.42
1554117201194,-6.827066,-6.442796700000001,-2.0488381,-0.10226539,-0.05752428,-0.24820662,102.66,14.64,36.18
1554117201214,-7.00723,-6.5403605,-2.2798786,-0.24394555,-0.101200126,-0.2727077,102.84,14.58,36.0
1554117201234,-7.043143,-6.661866000000001,-2.4432828,-0.32277513,-0.16405073,-0.24181503,103.08,14.52,35.82
1554117201253,-7.0503254,-6.8450226999999995,-2.6330232999999996,-0.35153726,-0.20879184,-0.19281286,103.26,14.58,35.64
1554117201273,-6.918644400000001,-7.083844,-2.6180596,-0.40586576,-0.28229508,-0.11717909,103.44,14.7,35.52
1554117201293,-6.602609599999999,-7.377134,-2.4654293,-0.47404268,-0.38562572,-0.037284255,103.62,14.82,35.46
1554117201314,-6.3302693,-7.638700500000001,-2.3122002999999998,-0.5006742999999999,-0.4708469,-0.015978966,103.8,14.76,35.52
1554117201333,-5.9968767,-7.917625,-2.1613655,-0.4878911,-0.531567,-0.017044231,103.86,14.52,35.58
1554117201353,-5.6616883,-8.127716,-1.7812861,-0.4282363,-0.55606806,-0.047936900000000005,103.8,14.1,35.64
1554117201379,-5.2917843,-8.23366,-1.2653356000000002,-0.3057309,-0.55606806,-0.10226539,103.74,13.32,35.76
1554117201393,-5.2199583,-8.198345,-1.0217254999999998,-0.22583607,-0.52411014,-0.12570119999999999,103.74,13.08,35.76
1554117201413,-5.119402,-8.129512,-0.76195467,-0.13635385,-0.45273739999999996,-0.1470065,103.8,12.48,35.76
1554117201433,-5.076905,-8.115746000000001,-0.5638345,-0.041545313,-0.32597092,-0.12570119999999999,103.86,11.88,35.76
1554117201453,-5.116409,-8.253411999999999,-0.58538234,0.06711166,-0.14807177,-0.07989483,103.92,11.28,35.76
1554117201473,-5.1822495,-8.294711999999999,-0.6206968,0.16937704,0.060720075,-0.029827405,103.98,10.8,35.64
1554117201494,-5.379173000000001,-8.2593975,-0.7356185000000001,0.33662358,0.32810146,0.015978966,104.1,10.44,35.46
1554117201513,-5.556343599999999,-8.149861999999999,-0.9588778,0.4857606,0.5273059,0.040480047000000005,104.22,10.32,35.28
1554117201533,-5.8238955,-7.891288799999999,-1.2395979,0.5773733,0.65513766,0.049002163,104.28,10.26,35.16
1554117201553,-5.9412117,-7.640496300000001,-1.484405,0.6221144000000001,0.7307714,0.06711166,104.4,10.26,34.98
1554117201573,-6.211158,-7.445967,-1.763928,0.6221144000000001,0.76059884,0.098004326,104.4,10.38,34.86
1554117201594,-6.5379663,-7.2909426999999996,-2.0649989,0.56459016,0.7456851,0.12463594,104.34,10.5,34.8
1554117201613,-6.7283053,-7.247248599999999,-2.1517887000000004,0.5113269,0.7222493000000001,0.15126756,104.16,10.62,34.86
1554117201633,-6.869563,-7.2364745,-2.2134395000000002,0.49321744,0.680704,0.20559604,103.8,10.86,35.1
1554117201654,-6.9796963000000005,-7.344812400000001,-2.1057005,0.5294364,0.61678815,0.27590349999999997,103.32,11.28,35.34
1554117201673,-6.9820905,-7.410054,-2.0685901999999996,0.5635249,0.5699165,0.30360037,103.2,11.46,35.46
1554117201694,-7.004237,-7.4339960000000005,-1.9806032999999998,0.60080916,0.51984906,0.30892670000000005,102.66,12.0,35.82
1554117201713,-7.2167225,-7.454347,-1.9123686999999998,0.6562029,0.46978164,0.27590349999999997,102.3,12.36,36.06
1554117201734,-7.437587700000001,-7.4028716,-1.6867151000000002,0.7318366999999999,0.4133226,0.24607609,102.0,12.72,36.3
1554117201753,-7.6853875999999985,-7.2322845000000004,-1.6681601000000001,0.813862,0.350472,0.24074976,101.7,13.14,36.42
1554117201773,-7.942165400000001,-6.9383965,-1.6292541999999999,0.8223841999999999,0.24820662,0.27377295,101.7,13.74,36.42
1554117201794,-8.14268,-6.5906386,-1.6017209,0.7776430000000001,0.12570119999999999,0.3174488,101.7,14.4,36.42
1554117201814,-8.328231,-6.3589997,-1.7681179,0.71479243,0.010652645,0.3749731,101.64,15.12,36.42
1554117201833,-8.48984,-6.2339025,-1.9375077,0.63702816,-0.10226539,0.42397526,101.64,15.84,36.36
1554117201853,-8.495825,-5.963956400000001,-1.8728642,0.5230448000000001,-0.23009712,0.46125950000000004,101.64,16.5,36.36
1554117201873,-8.456321,-5.8364654,-1.7142484,0.3898868,-0.3653857,0.49747851,101.64,17.1,36.3
1554117201893,-8.415619,-5.803545,-1.6053122,0.27590349999999997,-0.4708469,0.51665324,101.64,17.4,36.24
1554117201914,-8.152257,-5.840655,-1.2467805,0.10226539,-0.66152924,0.49641323,101.82,18.18,35.94
1554117201933,-8.04751,-5.9130797,-1.134253,0.04474111,-0.7275756,0.46765109999999993,102.12,18.42,35.7
1554117201953,-7.924208999999999,-5.9890957,-1.0001777,-0.03834952,-0.7914915,0.44421527,102.48,18.48,35.34
1554117201974,-7.724292999999999,-6.0250087,-0.801459,-0.082025364,-0.8245146999999999,0.41119209999999995,102.84,18.48,34.98
1554117201994,-7.4585365999999995,-6.2345014,-0.6973111999999999,-0.07669904,-0.84155893,0.37816888,103.26,18.36,34.68
1554117202013,-7.2388687,-6.558317,-0.7733272,-0.051132694000000006,-0.84155893,0.36325517,103.68,18.3,34.38
1554117202034,-7.067683000000001,-6.5361705,-0.7152678000000001,-0.012783173500000002,-0.81918836,0.330232,104.16,18.06,34.08
1554117202054,-7.0886326,-6.3488245,-0.65541273,0.060720075,-0.7957525,0.30360037,104.64,17.82,33.9
1554117202075,-7.0503254,-6.2249246,-0.62967503,0.13315806,-0.76485986,0.30253512,105.18,17.52,33.66
1554117202094,-6.991069,-5.9400144,-0.4997896,0.15233281,-0.737163,0.3057309,105.66,17.22,33.3
1554117202114,-7.15567,-5.580883999999999,-0.27353755,0.094808534,-0.71585774,0.294013,106.08,16.92,33.0
1554117202134,-7.2101383000000006,-5.2983685,-0.12330139,-0.024501082,-0.721184,0.28975195,106.5,16.68,32.64
1554117202153,-7.293336999999999,-5.0787005,-0.24480712,-0.18322548,-0.71585774,0.27696875,106.92,16.44,32.28
1554117202174,-7.442375999999999,-4.957195,-0.32501290000000005,-0.3568636,-0.6849651,0.26312032,107.34,16.26,31.8
1554117202194,-7.581239699999999,-5.197213,-0.012569559,-0.53263223,-0.6295713000000001,0.2695119,107.76,16.14,31.2
1554117202214,-7.5842323,-5.480926,0.39863458,-0.62104917,-0.5773733,0.24820662,108.12,16.08,30.6
1554117202234,-7.49445,-5.635351999999999,0.8655039000000001,-0.6317018,-0.5368933000000001,0.21944448,108.42,15.96,30.0
1554117202254,-7.524976,-5.719748,1.0761937,-0.5486112,-0.535828,0.16618125,108.84,15.72,29.52
1554117202273,-7.6668324000000005,-5.6628857,0.7206547,-0.41225734,-0.5305017,0.11611383,109.2,15.3,29.16
1554117202293,-7.6794020000000005,-5.6203885,0.6811504,-0.30786142,-0.51026165,0.10333065,109.68,14.88,28.8
1554117202314,-7.7410526,-5.8741736,0.7918821999999999,-0.28122982,-0.49960902,0.07882957,110.1,14.4,28.38
1554117202334,-7.753622,-6.0321913,1.0947487,-0.32170987,-0.53263223,0.035153727999999995,110.52,13.98,28.08
1554117202354,-7.74225,-5.8987145,1.0726023999999998,-0.36432046,-0.5763081,-0.02876214,110.88,13.56,27.96
1554117202374,-7.723694999999999,-5.817312,1.0348936,-0.40906155,-0.6018744,-0.026631612000000002,111.18,13.08,27.78
1554117202393,-7.5866265,-5.957971,1.2545617,-0.46765109999999993,-0.6221144000000001,0.0063915867,111.48,12.72,27.66
1554117202414,-7.5231805,-6.0483522,1.5682021000000002,-0.5006742999999999,-0.62317973,0.027696876000000002,111.6,12.48,27.54
1554117202434,-7.581239699999999,-6.117185,1.6130934,-0.49108690000000005,-0.60507023,0.058589544,111.84,12.36,27.36
1554117202453,-7.5962033,-6.182427400000001,1.3599066,-0.46552056,-0.5305017,0.07776430000000001,112.02,12.24,27.18
1554117202474,-7.6644382,-6.009446,1.246182,-0.44847634,-0.45699844,0.05752428,112.2,12.12,26.94
1554117202494,-7.693767,-5.7802014,1.3640964,-0.38349520000000004,-0.39947417,0.011717908999999999,112.44,11.94,26.64
1554117202514,-7.606977499999999,-5.925649,1.4670471,-0.24714136,-0.34727620000000003,0.012783173500000002,112.68,11.7,26.4
1554117202534,-7.5375457,-5.925649,1.2665327,-0.05219796,-0.31105720000000003,0.011717908999999999,112.92,11.46,26.1
1554117202553,-7.5351515,-5.7813989999999995,0.94211835,0.10652645,-0.28229508,-0.00958738,113.16,11.28,25.86
1554117202573,-7.483675999999999,-5.840056400000001,0.87807345,0.20453078,-0.2609898,0.004261058,113.34,11.1,25.62
1554117202594,-7.4495587,-5.7999535,0.78888947,0.27164245,-0.24927188,0.018109497,113.46,10.92,25.38
1554117202613,-7.507019500000001,-5.6060233,0.7445967,0.2545982,-0.24927188,0.056459017,113.58,10.8,25.02
1554117202634,-7.392696400000001,-5.514444999999999,0.7116765,0.08841695,-0.28442562,0.07989483,113.7,10.68,24.42
1554117202654,-7.4746976,-5.446210400000001,0.7386111999999999,-0.06604639400000001,-0.30466563,0.07243799,113.76,10.56,24.0
1554117202673,-7.3645644,-5.5282116,0.8714894,-0.22796659,-0.32384038,0.068176925,113.76,10.5,23.64
1554117202693,-7.349601,-5.677251,1.1707646999999999,-0.2876214,-0.31212249999999997,0.05219796,113.76,10.5,23.28
1554117202713,-7.2304892999999995,-5.6976013,1.5394716999999998,-0.26631612,-0.28336033,0.05539375,113.82,10.44,22.92
1554117202733,-7.1688385,-5.719149,1.7405846,-0.21624869,-0.26418558,0.035153727999999995,113.88,10.38,22.68
1554117202754,-7.268198,-5.502473999999999,1.5765818,-0.15552860000000002,-0.20985709,0.024501082,113.94,10.26,22.44
1554117202774,-7.399878999999999,-5.5401826,1.5717934,-0.07456851,-0.10759171,0.07563378,114.0,10.2,22.32
1554117202794,-7.254431200000001,-5.783194,1.9357121,-0.10972224,-0.027696876000000002,0.113983296,114.06,10.08,22.38
1554117202813,-7.3124905,-5.756858,1.99437,-0.10759171,0.023435817999999997,0.036218993,114.18,10.02,22.38
1554117202835,-7.4489600000000005,-5.5725045,1.8872293999999998,-0.09587380000000001,0.11611383,-0.0053263223,114.24,9.9,22.38
1554117202854,-7.466317999999999,-5.570708799999999,1.893215,-0.08841695,0.14594123,-0.004261058,114.3,9.78,22.38
1554117202873,-7.487866,-5.737106,1.8686744,-0.06285059999999999,0.14274544,-0.037284255,114.3,9.6,22.38
1554117202894,-7.554305,-5.872378299999999,1.6424223000000002,-0.023435817999999997,0.12783173,-0.07563378,114.3,9.36,22.32
1554117202914,-7.6267295,-5.883152,1.2605472,-0.037284255,0.10865697,-0.10333065,114.36,9.12,22.38
1554117202934,-7.771578999999999,-5.9687448,1.2186487,-0.07882957,0.07137272,-0.12676647,114.36,8.88,22.38
1554117202953,-7.8673470000000005,-5.8388596,1.0588357,-0.026631612000000002,0.080960095,-0.13528858,114.36,8.64,22.38
1554117202974,-7.753622,-6.3129115,2.0991162999999995,-0.015978966,0.023435817999999997,-0.023435817999999997,114.42,8.46,22.44
1554117202994,-7.793725,-6.2488665999999995,1.5496471,0.101200126,-0.112918034,-0.10333065,114.48,8.4,22.5
1554117203014,-7.9487495,-5.851429,0.9612719999999999,0.22796659,-0.13954964,-0.08522116,114.54,8.34,22.56
