TimeStamp,Ax,Ay,Az,Gx,Gy,Gz,Mx,My,Mz
1554103366668,-9.179369,-2.179322,2.307412,0.13209279,-0.01917476,0.01917476,27.36,6.18,29.1
1554103366688,-9.246407000000001,-2.2224178,2.3169887000000005,0.054328485999999995,-0.015978966,0.036218993,27.36,6.0,29.04
1554103366708,-9.02614,-2.1362264,2.2786815,0.002130529,-0.025566347000000003,0.06391586,27.36,5.82,29.04
1554103366728,-9.11712,-2.3229742,2.4366987,0.00958738,-0.026631612000000002,0.07563378,27.3,5.64,29.04
1554103366749,-9.155427,-2.1170728,2.6282349,0.07989483,-0.007456851,0.05539375,27.24,5.52,29.1
1554103366768,-9.232041,-1.9207484000000001,2.4271219,0.14594123,-0.01917476,0.040480047000000005,27.24,5.4,29.16
1554103366788,-9.102755,-1.9446903000000002,2.3409307,0.16192019,-0.02130529,0.037284255,27.18,5.34,29.16
1554103366807,-9.112331,-1.7818846999999998,2.508525,0.11824436,-0.014913702,0.035153727999999995,27.18,5.28,29.22
1554103366827,-9.246407000000001,-1.9015948,2.3744495,0.07030745599999999,-0.017044231,0.037284255,27.18,5.28,29.22
1554103366848,-9.279925,-1.738789,2.4510639,0.03834952,-0.034088463,0.04261058,27.24,5.28,29.16
1554103366867,-9.299078999999999,-1.7914615000000003,2.1733365,0.03195793,-0.04261058,0.051132694000000006,27.24,5.34,29.16
1554103366887,-9.260772,-1.8154035,2.3026235,0.029827405,-0.039414786,0.060720075,27.3,5.4,29.16
1554103366907,-9.203311,-1.8201918999999998,2.307412,0.0010652645,-0.053263225,0.07350325,27.36,5.46,29.1
1554103366927,-8.911219000000001,-1.7866731,2.3983915000000002,-0.07030745599999999,-0.080960095,0.098004326,27.42,5.52,29.04
1554103366948,-8.916007,-1.762731,2.4271219,-0.10439592,-0.07563378,0.113983296,27.48,5.58,28.98
1554103366968,-9.011775,-1.9159599999999999,2.355296,-0.07350325,-0.07137272,0.08735169,27.54,5.58,28.98
1554103366988,-9.040505,-1.7100586,2.556409,-0.053263225,-0.06924219,0.06178534,27.54,5.58,28.92
1554103367008,-8.99741,-1.6525976999999998,2.532467,-0.07030745599999999,-0.06498113,0.033023197000000004,27.48,5.46,28.86
1554103367027,-9.074024,-1.6909049999999999,2.475006,-0.10439592,-0.060720075,0.024501082,27.48,5.28,28.8
1554103367047,-9.184157,-1.7914615000000003,2.5420437000000002,-0.14594123,-0.053263225,0.02130529,27.48,5.16,28.74
1554103367068,-9.174581,-1.738789,2.570774,-0.16618125,-0.053263225,0.018109497,27.42,4.98,28.68
1554103367088,-9.179369,-1.762731,2.460641,-0.17257284,-0.04261058,0.025566347000000003,27.36,4.86,28.68
1554103367108,-9.390058999999999,-1.8106151000000001,2.5133132999999996,-0.16298546,-0.025566347000000003,0.04474111,27.3,4.68,28.62
1554103367128,-9.404425,-1.6717514,2.508525,-0.17789917,-0.039414786,0.06924219,27.24,4.56,28.62
1554103367148,-9.332599,-1.5807717,2.3696610000000002,-0.17576863,-0.03195793,0.08735169,27.24,4.38,28.56
1554103367168,-9.332599,-1.5855601000000001,2.2930467,-0.16831179,-0.036218993,0.08841695,27.18,4.2,28.56
1554103367188,-9.481038999999999,-1.3652935,2.2882583,-0.17470337,-0.049002163,0.08628642,27.18,4.02,28.56
1554103367208,-9.509769,-1.2838906,2.168548,-0.2428803,-0.05006743,0.111852765,27.18,3.84,28.44
1554103367227,-9.543288,-1.5185224,2.1972785,-0.34514567,-0.07669904,0.165116,27.18,3.6,28.32
1554103367247,-9.385271000000001,-1.5711948999999998,2.168548,-0.4016047,-0.08735169,0.21092236,27.18,3.36,28.2
1554103367268,-9.452309,-1.3748703000000002,2.4462755,-0.39201729999999996,-0.10546118,0.22264028,27.18,3.0,28.08
1554103367288,-9.227253,-1.4131776000000003,2.5995044999999997,-0.37603834,-0.113983296,0.22370553,27.18,2.7,27.96
1554103367308,-9.093178,-1.0061632,2.532467,-0.3153183,-0.094808534,0.17363810000000002,27.18,2.4,27.84
1554103367327,-9.23683,-0.88166475,2.3026235,-0.41225734,-0.07882957,0.18109496,27.18,2.1,27.72
1554103367347,-9.351752000000001,-1.1976993999999999,2.1254525,-0.58056915,-0.08841695,0.21837921,27.18,1.86,27.6
1554103367368,-9.270349000000001,-1.4802152,2.3744495,-0.66365975,-0.11717909,0.22370553,27.18,1.5,27.6
1554103367388,-9.198523,-1.762731,2.154183,-0.63915867,-0.13209279,0.21411815,27.12,1.02,27.54
1554103367407,-9.174581,-1.7914615000000003,2.202067,-0.5901565,-0.14168017,0.20985709,27.12,0.6,27.42
1554103367428,-8.987833,-1.6478093,2.2643162999999995,-0.55606806,-0.13528858,0.22050974,27.12,0.24,27.12
1554103367448,-9.040505,-1.7004818,2.297835,-0.567786,-0.12570119999999999,0.23116238,27.06,-0.42,26.64
1554103367468,-8.992621,-1.8249803,2.4702177000000005,-0.62531024,-0.09374327,0.23009712,27.06,-0.84,26.34
1554103367488,-8.949525999999999,-1.8010383,2.5133132999999996,-0.6583334,-0.07350325,0.22264028,27.06,-1.08,26.16
1554103367508,-8.99741,-1.9494787,2.4797945,-0.65194184,-0.06178534,0.21731395,27.06,-1.5,25.8
1554103367528,-9.035717,-1.8728642,2.7240029999999997,-0.59228706,-0.040480047000000005,0.19813919,27.06,-2.16,25.08
1554103367548,-9.006986999999999,-1.9207484000000001,2.5516205000000003,-0.55606806,-0.024501082,0.16724652,27.06,-2.7,24.54
1554103367568,-9.097966,-1.9782091,2.6665419999999997,-0.5294364,-0.018109497,0.15233281,27.06,-3.36,24.18
1554103367588,-9.030928999999999,-2.0308816000000003,2.7623102999999998,-0.49747851,-0.020240024,0.1587244,27.06,-3.96,23.88
1554103367608,-8.992621,-2.0117279999999997,2.6569653,-0.45593318,-0.023435817999999997,0.15446335,27.06,-4.56,23.58
1554103367627,-9.035717,-1.8728642,2.8101943,-0.41225734,-0.013848438000000001,0.13422333,27.06,-4.8,23.4
1554103367648,-9.030928999999999,-1.9351135,2.843713,-0.33768883,-0.015978966,0.10439592,27.0,-5.64,22.98
1554103367667,-9.054871,-2.0165164,2.7144263,-0.29827404,-0.023435817999999997,0.08628642,26.94,-6.12,22.8
1554103367688,-9.150639,-2.0931308,2.6138697,-0.26738137,0.0010652645,0.07669904,26.88,-6.54,22.68
1554103367707,-9.107543,-2.0404584,2.8868085999999997,-0.20453078,-0.014913702,0.06391586,26.82,-6.84,22.62
1554103367728,-8.868122999999999,-1.8249803,2.7766755,-0.10439592,-0.0053263223,0.054328485999999995,26.7,-6.96,22.44
1554103367748,-9.021352,-1.7292121999999999,2.7623102999999998,-0.01917476,0.01917476,0.037284255,26.64,-7.08,22.26
1554103367767,-9.165004,-1.7052702000000002,2.5755625,0.002130529,0.03089267,0.018109497,26.58,-7.2,21.96
1554103367787,-9.165004,-1.6956933999999997,2.556409,-0.007456851,0.040480047000000005,0.008522116,26.52,-7.44,21.72
1554103367808,-9.313444,-1.6813281999999998,2.6473885,-0.012783173500000002,0.046871635999999994,0.0063915867,26.52,-7.74,21.48
1554103367828,-9.165004,-1.5903485000000002,2.5611973,0.026631612000000002,0.054328485999999995,0.011717908999999999,26.52,-7.98,21.24
1554103367848,-9.332599,-1.5855601000000001,2.5803509,0.07456851,0.060720075,0.0063915867,26.58,-8.16,21.06
1554103367868,-9.260772,-1.46585,2.4223334999999997,0.10652645,0.07030745599999999,0.007456851,26.58,-8.34,20.94
1554103367888,-9.136273,-1.3748703000000002,2.5468319999999998,0.11504856,0.054328485999999995,0.007456851,26.64,-8.52,20.88
1554103367909,-8.983044999999999,-1.3221979,2.5420437000000002,0.12357068,0.05219796,-0.0063915867,26.7,-8.64,20.94
1554103367927,-9.074024,-1.4083891000000002,2.379238,0.15020229,0.05752428,-0.03834952,26.7,-8.76,21.0
1554103367947,-9.279925,-1.3940238999999999,2.3361422999999997,0.15126756,0.05539375,-0.056459017,26.7,-8.76,21.12
1554103367968,-9.394848,-1.4706384,2.2403743,0.11717909,0.04580637,-0.06285059999999999,26.7,-8.64,21.24
1554103367988,-9.495403999999999,-1.5233108,2.3265655,0.084155895,0.040480047000000005,-0.060720075,26.58,-8.58,21.3
1554103368009,-9.289502,-1.5280992,2.3505075,0.09374327,0.026631612000000002,-0.05539375,26.52,-8.52,21.42
1554103368027,-9.198523,-1.3461398999999998,2.498948,0.15659387,0.043675844000000005,-0.05539375,26.46,-8.46,21.48
1554103368049,-9.208099,-1.2982559,2.6090812999999997,0.22583607,0.05219796,-0.056459017,26.4,-8.46,21.6
1554103368068,-9.270349000000001,-1.2072762,2.3361422999999997,0.22796659,0.04474111,-0.056459017,26.28,-8.46,21.72
1554103368088,-9.327810000000001,-1.2791021999999999,2.178125,0.17789917,0.043675844000000005,-0.04474111,26.22,-8.46,21.9
1554103368108,-9.562441999999999,-1.2216414,2.3505075,0.15446335,0.046871635999999994,-0.043675844000000005,26.16,-8.46,22.02
1554103368128,-9.423578,-1.2264298,2.2260091,0.16724652,0.015978966,-0.054328485999999995,26.16,-8.46,22.08
1554103368147,-9.279925,-1.1498153,2.273893,0.17789917,0.014913702,-0.056459017,26.16,-8.46,22.2
1554103368168,-9.165004,-1.1019313,2.3600842999999996,0.15659387,0.004261058,-0.06285059999999999,26.1,-8.46,22.26
1554103368188,-9.141062,-1.1115081,2.3936029999999997,0.13422333,0.0010652645,-0.07243799,26.1,-8.46,22.32
1554103368208,-9.193734,-1.2264298,2.0248961,0.112918034,-0.010652645,-0.083090626,26.04,-8.46,22.38
1554103368228,-9.289502,-1.2264298,2.1398177000000005,0.082025364,-0.011717908999999999,-0.082025364,26.04,-8.46,22.38
1554103368250,-9.3661175,-1.3461398999999998,2.2499511,0.07030745599999999,-0.0053263223,-0.080960095,25.98,-8.4,22.44
1554103368267,-9.447519999999999,-1.3509283,1.9961656000000003,0.09374327,-0.015978966,-0.083090626,25.98,-8.16,22.44
1554103368287,-9.495403999999999,-1.4036007,2.28347,0.10972224,-0.024501082,-0.07989483,25.92,-8.04,22.5
1554103368307,-9.433155000000001,-1.240795,2.5228900000000003,0.10013486,-0.029827405,-0.06604639400000001,25.92,-7.8,22.56
1554103368328,-9.232041,-1.2886791000000002,2.6569653,0.08948222,-0.015978966,-0.043675844000000005,25.92,-7.62,22.68
1554103368349,-9.102755,-1.1689690000000001,2.4941597,0.14913702,0.00958738,-0.04580637,25.98,-7.26,22.8
1554103368370,-9.279925,-1.1737574,2.273893,0.16831179,-0.004261058,-0.05965481,26.04,-7.08,22.86
1554103368388,-9.428367,-1.0684125,2.154183,0.11930962,-0.008522116,-0.06498113,26.1,-6.9,22.92
1554103368408,-9.3182335,-1.2695253999999998,2.2786815,0.036218993,-0.035153727999999995,-0.06178534,26.1,-6.78,22.98
1554103368427,-9.174581,-1.3892354999999998,2.4941597,-0.0053263223,-0.022370555,-0.051132694000000006,26.16,-6.78,23.04
1554103368447,-9.222465,-1.3844471,2.7000610000000003,0.047936900000000005,-0.004261058,-0.05219796,26.22,-6.78,23.1
1554103368468,-9.370906,-1.2791021999999999,2.532467,0.13954964,-0.0031957934000000003,-0.051132694000000006,26.22,-6.78,23.1
1554103368488,-9.375694000000001,-1.1019313,2.3888147,0.16937704,-0.011717908999999999,-0.047936900000000005,26.22,-6.84,23.1
1554103368508,-9.351752000000001,-1.1593921,2.4366987,0.1107875,-0.039414786,-0.054328485999999995,26.22,-6.84,23.1
1554103368527,-9.284714,-1.2982559,2.4319102999999997,0.033023197000000004,-0.033023197000000004,-0.039414786,26.22,-6.84,23.1
1554103368547,-9.361329,-1.3221979,2.475006,0.01917476,-0.01917476,-0.02876214,26.16,-6.84,23.1
1554103368568,-9.241617999999999,-1.46585,2.441487,0.09161274,-0.004261058,-0.023435817999999997,26.16,-6.84,23.1
1554103368588,-9.097966,-1.3940238999999999,2.2403743,0.13209279,0.004261058,-0.02130529,26.1,-6.72,23.1
1554103368608,-9.030928999999999,-1.2503718000000001,2.4510639,0.1587244,0.002130529,-0.034088463,26.1,-6.66,23.16
1554103368628,-9.595961,-1.0923545000000001,2.0775685,0.15020229,0.013848438000000001,-0.046871635999999994,26.16,-6.54,23.22
1554103368648,-9.988609,-1.1210848999999998,2.7335799,0.11930962,0.034088463,-0.047936900000000005,26.16,-6.48,23.34
1554103368668,-9.227253,-1.4131776000000003,2.6521769,0.04261058,-0.004261058,-0.0010652645,26.16,-6.36,23.46
1554103368688,-9.102755,-1.5807717,3.1549592,0.02876214,0.06285059999999999,0.041545313,26.16,-6.24,23.64
1554103368707,-8.7292595,-1.3892354999999998,2.8054059,0.2034655,0.10333065,0.014913702,26.16,-6.18,23.76
1554103368727,-8.949525999999999,-1.264737,2.5133132999999996,0.4079963,0.12783173,-0.02130529,26.16,-6.12,23.94
1554103368748,-9.078813,-1.1115081,2.154183,0.4016047,0.12357068,0.0010652645,26.1,-6.06,24.06
1554103368768,-9.136273,-1.1641805,1.9722236000000002,0.32170987,0.07989483,-0.020240024,26.1,-5.94,24.24
1554103368788,-9.255983,-1.1593921,2.0344729999999998,0.25033715,0.047936900000000005,-0.06604639400000001,26.04,-5.88,24.36
1554103368807,-9.241617999999999,-0.98222125,2.3409307,0.19068234,0.020240024,-0.084155895,25.92,-5.82,24.42
1554103368827,-9.208099,-0.9103952,2.1733365,0.11824436,0.0010652645,-0.10652645,25.86,-5.76,24.48
1554103368848,-9.399636,-1.0779893,2.3505075,0.06498113,-0.011717908999999999,-0.13315806,25.8,-5.7,24.54
1554103368868,-9.26556,-1.1785458,2.130241,0.037284255,-0.04474111,-0.14061491,25.74,-5.7,24.54
1554103368888,-9.308656,-1.1976993999999999,2.460641,0.04580637,-0.056459017,-0.14061491,25.68,-5.64,24.6
1554103368910,-9.323022,-1.1210848999999998,2.417545,0.1107875,-0.06285059999999999,-0.16192019,25.62,-5.64,24.66
1554103368928,-9.165004,-1.0827777,2.3505075,0.14061491,-0.05006743,-0.17470337,25.62,-5.64,24.66
1554103368948,-9.203311,-1.1354501000000001,2.3265655,0.12144015,-0.03195793,-0.18535602,25.68,-5.58,24.72
1554103368969,-9.299078999999999,-1.0923545000000001,2.5133132999999996,0.12144015,0.0063915867,-0.22370553,25.74,-5.52,24.78
1554103368988,-9.3661175,-1.0253168,2.5228900000000003,0.17150758,0.011717908999999999,-0.26631612,25.86,-5.4,24.84
1554103369008,-9.414000999999999,-1.1641805,2.2691047,0.10865697,0.013848438000000001,-0.22903186,25.98,-5.28,24.9
1554103369028,-9.390058999999999,-1.4323312,2.2451627,0.0031957934000000003,0.017044231,-0.16405073,26.04,-5.04,24.96
1554103369048,-9.275136999999999,-1.762731,2.2786815,-0.054328485999999995,-0.012783173500000002,-0.10652645,26.22,-4.62,25.02
1554103369067,-9.370906,-1.6765398,2.202067,0.022370555,-0.01917476,-0.08628642,26.28,-4.38,25.08
1554103369087,-9.437942999999999,-1.3988123,2.2212207000000004,0.080960095,-0.027696876000000002,-0.07350325,26.34,-4.2,25.14
1554103369107,-9.452309,-1.2934675,2.297835,0.09161274,-0.033023197000000004,-0.06924219,26.46,-3.84,25.14
1554103369127,-9.394848,-1.1593921,2.3265655,0.040480047000000005,-0.035153727999999995,-0.05006743,26.46,-3.78,25.14
1554103369147,-9.3661175,-1.2312181999999998,2.6330232999999996,-0.017044231,-0.03834952,-0.015978966,26.52,-3.6,25.2
1554103369168,-9.284714,-1.3365631000000002,2.7144263,-0.00958738,-0.03089267,-0.007456851,26.64,-3.42,25.2
1554103369188,-9.260772,-1.3030443,2.321777,0.036218993,-0.02130529,-0.029827405,26.7,-3.36,25.2
1554103369208,-9.136273,-1.2838906,2.6234465,0.051132694000000006,-0.02130529,-0.049002163,26.76,-3.36,25.26
1554103369228,-9.102755,-1.216853,2.6282349,0.054328485999999995,-0.017044231,-0.060720075,26.88,-3.3,25.26
1554103369250,-9.227253,-1.1833341999999998,2.4366987,0.060720075,-0.011717908999999999,-0.07882957,26.88,-3.3,25.26
1554103369268,-9.14585,-1.2551602,2.2930467,0.036218993,-0.008522116,-0.07776430000000001,26.94,-3.3,25.26
1554103369288,-9.045294,-1.3221979,2.3361422999999997,0.012783173500000002,-0.011717908999999999,-0.09161274,26.82,-3.3,25.26
1554103369308,-9.14585,-1.3078326999999998,2.5037365,-0.0010652645,-0.007456851,-0.10759171,26.7,-3.24,25.32
1554103369328,-9.198523,-1.2934675,2.556409,0.0,-0.0010652645,-0.10652645,26.64,-3.24,25.32
1554103369348,-9.284714,-1.3796587,2.4558525,0.0053263223,0.00958738,-0.09374327,26.52,-3.24,25.32
1554103369367,-9.3661175,-1.4083891000000002,2.3983915000000002,-0.01917476,0.017044231,-0.07882957,26.46,-3.24,25.38
1554103369387,-9.323022,-1.4371196000000002,2.3265655,-0.037284255,0.011717908999999999,-0.06178534,26.4,-3.24,25.38
1554103369409,-9.356541,-1.3940238999999999,2.4366987,-0.04580637,0.0031957934000000003,-0.05006743,26.28,-3.24,25.44
1554103369427,-9.203311,-1.4371196000000002,2.5803509,-0.029827405,0.0031957934000000003,-0.053263225,26.22,-3.18,25.44
1554103369448,-9.299078999999999,-1.4227544,2.532467,-0.008522116,0.010652645,-0.07563378,26.28,-3.18,25.5
1554103369468,-9.323022,-1.3940238999999999,2.4319102999999997,0.017044231,0.00958738,-0.08735169,26.28,-3.06,25.56
1554103369488,-9.136273,-1.4562732,2.3026235,-0.020240024,0.0031957934000000003,-0.07669904,26.28,-3.0,25.56
1554103369509,-9.198523,-1.4371196000000002,2.2882583,-0.041545313,0.0063915867,-0.08948222,26.34,-2.94,25.62
1554103369528,-9.184157,-1.5041572,2.3600842999999996,-0.047936900000000005,0.007456851,-0.094808534,26.34,-2.82,25.62
1554103369548,-9.078813,-1.5903485000000002,2.4702177000000005,-0.04474111,0.017044231,-0.10013486,26.34,-2.76,25.62
1554103369568,-9.011775,-1.5472529,2.5611973,-0.03089267,0.02876214,-0.099069595,26.34,-2.7,25.62
1554103369588,-9.222465,-1.5616181,2.475006,-0.033023197000000004,0.04474111,-0.083090626,26.4,-2.64,25.62
1554103369608,-9.160214999999999,-1.489792,2.3600842999999996,-0.029827405,0.04580637,-0.09054748,26.4,-2.64,25.68
1554103369628,-9.217675999999999,-1.5759833,2.4319102999999997,-0.0063915867,0.039414786,-0.112918034,26.4,-2.64,25.68
1554103369648,-9.284714,-1.5280992,2.3361422999999997,-0.00958738,0.037284255,-0.12676647,26.46,-2.64,25.68
1554103369669,-9.246407000000001,-1.441908,2.484583,-0.033023197000000004,0.053263225,-0.14061491,26.46,-2.64,25.68
1554103369688,-9.327810000000001,-1.3892354999999998,2.4079683,-0.039414786,0.053263225,-0.14594123,26.46,-2.64,25.74
1554103369708,-9.169792,-1.6621746,2.4558525,-0.05219796,0.056459017,-0.128897,26.58,-2.58,25.74
1554103369728,-9.260772,-1.5089456,2.3936029999999997,-0.008522116,0.047936900000000005,-0.17150758,26.7,-2.52,25.74
1554103369747,-9.270349000000001,-1.5759833,2.2547395,-0.010652645,0.02876214,-0.19920446,26.82,-2.46,25.74
1554103369768,-8.987833,-1.6095021,2.3409307,-0.07456851,0.010652645,-0.19600865,26.88,-2.4,25.74
1554103369788,-9.035717,-1.6909049999999999,2.28347,-0.10652645,0.026631612000000002,-0.18535602,27.0,-2.34,25.68
1554103369808,-9.088389,-1.7914615000000003,2.3026235,-0.08628642,0.033023197000000004,-0.19068234,27.06,-2.34,25.68
1554103369829,-9.064447,-1.9734207,2.2547395,-0.08522116,0.025566347000000003,-0.22050974,27.12,-2.28,25.62
1554103369847,-8.916007,-1.9686323000000001,2.168548,-0.09374327,0.015978966,-0.24607609,27.12,-2.22,25.62
1554103369869,-8.887277000000001,-1.8632874,2.307412,-0.051132694000000006,0.02876214,-0.27057716,27.12,-2.16,25.62
1554103369888,-8.781932000000001,-1.9207484000000001,2.355296,-0.040480047000000005,0.03834952,-0.27803403,27.12,-2.1,25.68
1554103369908,-8.710106,-2.0644004000000002,2.3169887000000005,-0.06604639400000001,0.05965481,-0.30786142,27.18,-2.1,25.68
1554103369928,-8.944737,-2.0500352,2.3265655,-0.09587380000000001,0.07563378,-0.36432046,27.18,-2.04,25.74
1554103369948,-8.920795,-1.9111716,2.3026235,-0.10972224,0.07243799,-0.41225734,27.24,-1.92,25.8
1554103369968,-9.02614,-2.0117279999999997,2.441487,-0.12250541,0.06285059999999999,-0.44847634,27.24,-1.8,25.86
1554103369987,-8.968679,-2.2559366,2.4366987,-0.19281286,0.034088463,-0.48149952,27.36,-1.32,25.98
1554103370008,-9.064447,-2.4091654,2.3265655,-0.22583607,0.022370555,-0.49854377,27.42,-1.14,25.98
1554103370027,-9.016563,-2.6102784,2.2882583,-0.24820662,0.011717908999999999,-0.5091964,27.48,-0.78,25.98
1554103370048,-9.399636,-2.7922377999999997,2.2212207000000004,-0.24394555,0.025566347000000003,-0.49534798,27.54,-0.24,26.1
1554103370068,-9.323022,-2.9071592999999996,2.2882583,-0.22370553,0.02876214,-0.47617322,27.6,-0.12,26.1
1554103370088,-9.275136999999999,-3.141791,2.2691047,-0.14061491,0.03195793,-0.43249738,27.66,0.36,26.16
1554103370109,-9.270349000000001,-3.208829,2.0536265,-0.05006743,0.03195793,-0.39308259999999995,27.72,0.66,26.16
1554103370129,-9.203311,-3.2902317,2.1733365,0.027696876000000002,0.047936900000000005,-0.314253,27.84,0.9,26.16
1554103370147,-9.23683,-3.2040405,2.2691047,0.06178534,0.056459017,-0.26738137,27.9,0.96,26.16
1554103370168,-9.203311,-3.127426,2.0440497,0.09267801,0.06604639400000001,-0.22903186,28.02,1.08,26.16
1554103370188,-9.035717,-3.0029275,1.9674352,0.10546118,0.068176925,-0.21411815,28.08,1.26,26.16
1554103370208,-8.887277000000001,-3.0460230999999998,2.0440497,0.09374327,0.07563378,-0.19600865,28.14,1.56,26.1
1554103370228,-8.925583999999999,-3.0747535,2.0392613,0.06391586,0.08948222,-0.17257284,28.2,1.92,26.04
1554103370248,-8.825027,-2.926313,1.8668787,0.040480047000000005,0.098004326,-0.16405073,28.2,2.22,26.04
1554103370267,-8.786719999999999,-3.093907,1.9722236000000002,0.03834952,0.11504856,-0.18109496,28.2,2.58,26.04
1554103370288,-8.7053175,-3.0699651,1.9865887999999998,0.034088463,0.12250541,-0.20772657,28.2,2.88,26.1
1554103370308,-8.8777,-3.0651767000000003,1.9913772,0.03834952,0.13102753,-0.21837921,28.14,3.24,26.1
1554103370327,-8.892064999999999,-3.1848867000000003,1.7711107,0.02130529,0.12783173,-0.2066613,28.14,3.54,26.22
1554103370347,-8.959103,-3.1705215,2.0488381,0.0010652645,0.128897,-0.19813919,28.14,3.9,26.28
1554103370369,-9.14585,-3.4865562999999993,1.857302,-0.008522116,0.12250541,-0.18855181,28.2,4.08,26.34
1554103370388,-9.131485000000001,-3.4961330000000004,1.881244,-0.02130529,0.096939065,-0.15978967,28.2,4.26,26.4
1554103370408,-9.150639,-3.6589386,1.8668787,-0.011717908999999999,0.07776430000000001,-0.12996227,28.26,4.44,26.4
1554103370427,-9.088389,-3.5823242999999994,1.977012,0.0063915867,0.06711166,-0.10439592,28.26,4.62,26.46
1554103370447,-9.064447,-3.5583823,1.8429368000000002,0.02876214,0.05752428,-0.07243799,28.26,4.74,26.46
1554103370468,-8.978256,-3.4434607,1.9482816000000003,0.04474111,0.05219796,-0.06178534,28.32,4.86,26.52
1554103370488,-8.944737,-3.3141737,1.8381484000000001,0.046871635999999994,0.040480047000000005,-0.07137272,28.32,4.98,26.58
1554103370508,-8.911219000000001,-3.2423477000000003,1.8668787,0.043675844000000005,0.033023197000000004,-0.07137272,28.32,4.98,26.64
1554103370528,-8.796297000000001,-3.2662897,1.8381484000000001,0.024501082,0.026631612000000002,-0.051132694000000006,28.32,4.98,26.7
1554103370548,-8.892064999999999,-3.2854433,1.7567455,0.0063915867,0.026631612000000002,-0.036218993,28.32,5.04,26.76
1554103370570,-8.925583999999999,-3.3237504999999996,1.7184383,0.0031957934000000003,0.03834952,-0.04474111,28.38,5.1,26.88
1554103370588,-8.901641999999999,-3.3141737,1.7471686999999998,0.0053263223,0.047936900000000005,-0.05539375,28.38,5.16,27.0
1554103370608,-8.954314,-3.2662897,1.7902644,0.013848438000000001,0.051132694000000006,-0.07030745599999999,28.38,5.22,27.06
1554103370628,-8.872911,-3.3189620000000004,1.6705543,-0.0053263223,0.047936900000000005,-0.06498113,28.44,5.34,27.06
1554103370648,-9.016563,-3.4003648999999996,1.8142063999999998,-0.034088463,0.047936900000000005,-0.054328485999999995,28.44,5.4,27.12
1554103370668,-8.916007,-3.4147300000000005,1.6753427,-0.05006743,0.04474111,-0.049002163,28.44,5.46,27.18
1554103370687,-8.935161,-3.481768,1.7711107,-0.04474111,0.046871635999999994,-0.056459017,28.44,5.58,27.18
1554103370707,-8.944737,-3.4195184999999997,1.9099745,-0.015978966,0.04580637,-0.06178534,28.5,5.58,27.18
1554103370728,-8.973467999999999,-3.4051532999999994,1.8142063999999998,0.015978966,0.040480047000000005,-0.07030745599999999,28.5,5.64,27.18
1554103370748,-9.02614,-3.3907879999999997,1.8764555,0.024501082,0.035153727999999995,-0.05965481,28.5,5.64,27.18
1554103370768,-8.868122999999999,-3.2902317,1.7136499,0.008522116,0.025566347000000003,-0.040480047000000005,28.5,5.64,27.24
1554103370789,-8.925583999999999,-3.3476925000000004,2.0009542000000002,-0.0053263223,0.023435817999999997,-0.037284255,28.44,5.64,27.24
1554103370807,-8.839393,-3.3716345000000003,1.8046296000000002,0.0063915867,0.018109497,-0.04474111,28.44,5.64,27.24
1554103370827,-8.872911,-3.328539,1.929128,0.04261058,0.025566347000000003,-0.054328485999999995,28.44,5.64,27.3
1554103370848,-8.930372,-3.2615013,1.7328035,0.07882957,0.035153727999999995,-0.06391586,28.44,5.64,27.3
1554103370868,-8.844180999999999,-3.3141737,1.7567455,0.08522116,0.040480047000000005,-0.06924219,28.44,5.64,27.36
1554103370887,-8.858546,-3.3620577000000003,1.6274586000000002,0.06498113,0.043675844000000005,-0.07030745599999999,28.44,5.7,27.48
1554103370909,-8.925583999999999,-3.3045970000000002,1.5747862,0.027696876000000002,0.04474111,-0.07563378,28.44,5.7,27.54
1554103370929,-8.8777,-3.5057099999999997,1.6657659,0.010652645,0.043675844000000005,-0.07989483,28.44,5.76,27.6
1554103370948,-8.848969,-3.4195184999999997,1.6083049999999999,0.00958738,0.04261058,-0.07669904,28.44,5.76,27.66
1554103370968,-8.882488,-3.342904,1.6370354,0.017044231,0.04261058,-0.07137272,28.44,5.82,27.72
1554103370989,-8.925583999999999,-3.4530375,1.632247,0.02130529,0.040480047000000005,-0.06924219,28.44,5.82,27.78
1554103371007,-8.90643,-3.4290953,1.8477252,0.023435817999999997,0.034088463,-0.07137272,28.44,5.88,27.84
1554103371028,-9.02614,-3.4434607,1.5173253,0.015978966,0.03089267,-0.06711166,28.44,5.94,27.9
1554103371048,-8.963891,-3.3716345000000003,1.6657659,0.0031957934000000003,0.025566347000000003,-0.06711166,28.44,5.94,27.96
1554103371068,-8.949525999999999,-3.481768,1.6130934,0.0053263223,0.020240024,-0.06604639400000001,28.44,6.0,27.96
1554103371088,-8.944737,-3.4865562999999993,1.6944963,0.01917476,0.023435817999999997,-0.05539375,28.44,6.06,28.02
1554103371107,-9.006986999999999,-3.4961330000000004,1.7088615000000003,0.041545313,0.02130529,-0.05006743,28.44,6.12,28.02
1554103371128,-8.963891,-3.4386723,1.7280151000000001,0.04474111,0.01917476,-0.054328485999999995,28.44,6.12,28.02
1554103371148,-8.944737,-3.3333273,1.6418238,0.02876214,0.013848438000000001,-0.054328485999999995,28.38,6.18,28.08
1554103371167,-8.992621,-3.5104983,1.7328035,0.015978966,0.011717908999999999,-0.041545313,28.38,6.18,28.08
1554103371188,-8.868122999999999,-3.4195184999999997,1.7040731,0.023435817999999997,0.004261058,-0.027696876000000002,28.38,6.24,28.14
1554103371208,-8.805874000000001,-3.5727474999999997,1.5652093999999999,0.02876214,0.0053263223,-0.020240024,28.38,6.24,28.14
1554103371228,-8.887277000000001,-3.4434607,1.7854759999999998,0.03195793,0.015978966,-0.017044231,28.32,6.3,28.2
1554103371248,-8.916007,-3.2758665000000002,1.5364790000000002,0.029827405,0.022370555,-0.015978966,28.32,6.24,28.2
1554103371268,-8.935161,-3.3572693,1.7184383,0.023435817999999997,0.018109497,-0.03195793,28.32,6.24,28.26
1554103371288,-8.978256,-3.4003648999999996,1.6514006,0.014913702,0.012783173500000002,-0.049002163,28.26,6.18,28.32
1554103371307,-8.892064999999999,-3.3045970000000002,1.6657659,-0.004261058,0.00958738,-0.05006743,28.26,6.12,28.38
1554103371327,-8.939949,-3.4913447,1.5173253,-0.015978966,0.007456851,-0.039414786,28.14,6.06,28.38
1554103371348,-8.911219000000001,-3.4578260000000003,1.5556326,-0.022370555,0.002130529,-0.03089267,28.08,6.0,28.44
1554103371367,-8.935161,-3.4530375,1.6944963,-0.014913702,-0.007456851,-0.035153727999999995,28.02,6.0,28.38
1554103371388,-8.892064999999999,-3.4913447,1.6657659,0.002130529,-0.0053263223,-0.04474111,27.96,5.94,28.32
1554103371407,-8.892064999999999,-3.3955764999999998,1.8142063999999998,0.012783173500000002,-0.004261058,-0.04474111,27.9,5.94,28.26
1554103371427,-8.992621,-3.2471360000000002,1.6561891,-0.0063915867,-0.0010652645,-0.03195793,27.9,6.0,28.14
1554103371448,-8.99741,-3.3812113,1.6130934,-0.018109497,-0.0010652645,-0.03195793,27.84,6.0,28.08
1554103371468,-8.987833,-3.4578260000000003,1.7040731,-0.025566347000000003,0.0,-0.04261058,27.84,6.0,27.96
1554103371488,-8.925583999999999,-3.3572693,1.6944963,-0.02130529,0.0031957934000000003,-0.047936900000000005,27.84,6.06,27.9
1554103371508,-8.954314,-3.4913447,1.6657659,-0.00958738,0.010652645,-0.035153727999999995,27.84,6.12,27.84
1554103371528,-8.949525999999999,-3.5057099999999997,1.5891514,0.0,0.017044231,-0.022370555,27.84,6.12,27.84
1554103371548,-8.987833,-3.5631707,1.7663223000000001,0.0,0.025566347000000003,-0.01917476,27.84,6.18,27.84
1554103371568,-8.987833,-3.5488055,1.7375918999999997,-0.00958738,0.026631612000000002,-0.029827405,27.9,6.18,27.84
1554103371587,-8.892064999999999,-3.5966894999999997,1.5556326,-0.017044231,0.018109497,-0.029827405,27.9,6.18,27.9
1554103371608,-8.863335000000001,-3.5392287000000002,1.6370354,-0.0063915867,0.023435817999999997,-0.020240024,27.96,6.24,27.9
1554103371628,-8.815451,-3.5583823,1.6418238,0.010652645,0.022370555,-0.010652645,28.02,6.24,27.96
1554103371648,-8.801085,-3.5727474999999997,1.6035166,0.029827405,0.024501082,-0.020240024,28.08,6.18,28.02
1554103371668,-8.892064999999999,-3.3716345000000003,1.5412674,0.02876214,0.026631612000000002,-0.034088463,28.14,6.18,28.14
1554103371687,-8.920795,-3.3859997,1.6897078999999997,0.012783173500000002,0.02130529,-0.039414786,28.2,6.18,28.2
1554103371708,-8.896853,-3.4386723,1.6705543,0.008522116,0.026631612000000002,-0.043675844000000005,28.2,6.18,28.32
1554103371728,-8.853758000000001,-3.5104983,1.7040731,0.012783173500000002,0.03195793,-0.049002163,28.2,6.24,28.38
1554103371748,-8.839393,-3.4578260000000003,1.584363,0.02130529,0.03834952,-0.051132694000000006,28.2,6.24,28.38
1554103371769,-8.868122999999999,-3.4386723,1.6705543,0.035153727999999995,0.037284255,-0.05219796,28.14,6.24,28.44
1554103371788,-8.920795,-3.4338839999999995,1.6226702,0.041545313,0.04474111,-0.05539375,28.14,6.3,28.5
1554103371808,-8.863335000000001,-3.4530375,1.5556326,0.049002163,0.04261058,-0.06178534,28.08,6.3,28.5
1554103371828,-9.002198,-3.4147300000000005,1.4119805,0.05006743,0.049002163,-0.058589544,28.08,6.3,28.5
1554103371848,-8.916007,-3.342904,1.3976152,0.05006743,0.04261058,-0.05965481,28.02,6.3,28.5
1554103371867,-8.848969,-3.5248635000000004,1.584363,0.041545313,0.043675844000000005,-0.06924219,28.02,6.24,28.5
1554103371888,-8.863335000000001,-3.5009214999999996,1.6226702,0.025566347000000003,0.039414786,-0.07989483,27.96,6.24,28.5
1554103371908,-8.882488,-3.5104983,1.4646529,0.022370555,0.029827405,-0.07989483,27.96,6.18,28.5
1554103371928,-8.949525999999999,-3.5392287000000002,1.4407108999999998,0.018109497,0.03195793,-0.06711166,27.9,6.12,28.5
1554103371948,-8.99741,-3.5823242999999994,1.4359225,0.027696876000000002,0.03195793,-0.07456851,27.9,6.12,28.56
1554103371968,-8.896853,-3.4482489999999997,1.5556326,0.03834952,0.029827405,-0.084155895,27.84,6.18,28.5
1554103371988,-8.896853,-3.4721910000000005,1.4119805,0.033023197000000004,0.034088463,-0.07243799,27.78,6.18,28.5
1554103372008,-8.8777,-3.5104983,1.5652093999999999,0.018109497,0.04261058,-0.06924219,27.72,6.24,28.5
1554103372028,-8.930372,-3.5727474999999997,1.6035166,0.011717908999999999,0.04261058,-0.07989483,27.66,6.3,28.5
1554103372048,-8.896853,-3.5583823,1.4598645000000001,0.02130529,0.03834952,-0.09267801,27.66,6.36,28.5
1554103372068,-8.916007,-3.5057099999999997,1.5173253,0.040480047000000005,0.033023197000000004,-0.07669904,27.66,6.42,28.5
1554103372088,-8.939949,-3.4961330000000004,1.4694413,0.06604639400000001,0.026631612000000002,-0.06391586,27.66,6.48,28.5
1554103372108,-8.939949,-3.5057099999999997,1.6418238,0.06604639400000001,0.024501082,-0.084155895,27.6,6.54,28.56
1554103372127,-9.054871,-3.5152867,1.6657659,0.056459017,0.025566347000000003,-0.09587380000000001,27.6,6.6,28.56
1554103372147,-9.002198,-3.5871127,1.5604209999999998,0.05006743,0.015978966,-0.09054748,27.54,6.66,28.62
1554103372168,-8.983044999999999,-3.5248635000000004,1.4646529,0.05006743,0.020240024,-0.07563378,27.54,6.72,28.62
1554103372188,-8.939949,-3.5152867,1.5556326,0.05965481,0.022370555,-0.068176925,27.54,6.78,28.68
1554103372207,-8.7771435,-3.5488055,1.4502877,0.068176925,0.033023197000000004,-0.060720075,27.54,6.84,28.68
1554103372228,-8.825027,-3.6302083,1.4742297,0.05539375,0.03834952,-0.056459017,27.54,6.84,28.74
1554103372248,-8.90643,-3.5440169999999998,1.4167688999999999,0.033023197000000004,0.039414786,-0.06711166,27.54,6.9,28.8
1554103372267,-8.8777,-3.5248635000000004,1.4024036,0.024501082,0.034088463,-0.07030745599999999,27.54,6.96,28.8
1554103372288,-8.935161,-3.6302083,1.4407108999999998,0.03089267,0.027696876000000002,-0.06498113,27.6,7.02,28.8
1554103372308,-8.829816000000001,-3.5727474999999997,1.4407108999999998,0.046871635999999994,0.025566347000000003,-0.06604639400000001,27.66,7.08,28.86
1554103372328,-8.743625,-3.5535938999999996,1.4885948999999998,0.053263225,0.023435817999999997,-0.080960095,27.66,7.2,28.98
1554103372348,-8.930372,-3.5104983,1.4694413,0.035153727999999995,0.026631612000000002,-0.094808534,27.66,7.38,29.04
1554103372368,-8.959103,-3.5823242999999994,1.5747862,0.014913702,0.026631612000000002,-0.101200126,27.66,7.56,29.1
1554103372388,-8.901641999999999,-3.6302083,1.5173253,0.014913702,0.022370555,-0.10546118,27.66,7.74,29.22
1554103372408,-8.8777,-3.5679589999999997,1.407192,0.036218993,0.024501082,-0.10652645,27.66,7.92,29.28
1554103372428,-8.781932000000001,-3.7163997,1.5029601000000001,0.049002163,0.026631612000000002,-0.11504856,27.66,8.1,29.34
1554103372448,-8.872911,-3.6206315000000004,1.4981716999999999,0.035153727999999995,0.02876214,-0.11611383,27.66,8.16,29.46
1554103372467,-8.887277000000001,-3.6349967000000003,1.5269021,0.014913702,0.027696876000000002,-0.10013486,27.66,8.28,29.46
1554103372488,-8.834603999999999,-3.7499184999999997,1.3257892,0.004261058,0.026631612000000002,-0.08735169,27.6,8.28,29.46
1554103372508,-8.796297000000001,-3.793014,1.4790181,0.024501082,0.03834952,-0.08841695,27.6,8.28,29.52
1554103372528,-8.810661999999999,-3.7882257000000004,1.2826935,0.04261058,0.041545313,-0.08522116,27.6,8.28,29.52
1554103372547,-8.738836000000001,-3.6924577000000003,1.4407108999999998,0.053263225,0.05006743,-0.07350325,27.6,8.34,29.64
1554103372568,-8.743625,-3.7355532999999994,1.3449427999999999,0.041545313,0.05965481,-0.082025364,27.6,8.34,29.7
1554103372588,-8.710106,-3.6206315000000004,1.4502877,0.024501082,0.058589544,-0.10226539,27.66,8.4,29.82
1554103372608,-8.767567,-3.615843,1.5077485000000002,0.02876214,0.06178534,-0.11717909,27.72,8.46,29.94
1554103372628,-8.801085,-3.6062663,1.4790181,0.036218993,0.058589544,-0.12144015,27.72,8.52,30.06
1554103372648,-8.791509,-3.6110547,1.4790181,0.033023197000000004,0.051132694000000006,-0.12996227,27.78,8.64,30.12
1554103372668,-8.944737,-3.6589386,1.3880384,0.02130529,0.056459017,-0.13848437,27.78,8.64,30.18
1554103372688,-8.939949,-3.6876693,1.5077485000000002,0.018109497,0.051132694000000006,-0.14061491,27.78,8.7,30.18
1554103372707,-9.006986999999999,-3.816956,1.4119805,0.025566347000000003,0.051132694000000006,-0.13422333,27.84,8.7,30.18
1554103372728,-8.987833,-3.8552632000000004,1.3018471999999999,0.023435817999999997,0.034088463,-0.11717909,27.78,8.7,30.18
1554103372748,-9.083601,-3.8313212,1.2491747,0.024501082,0.03195793,-0.096939065,27.78,8.76,30.18
1554103372768,-9.112331,-3.7116113,1.2635399,0.015978966,0.01917476,-0.068176925,27.78,8.76,30.18
1554103372787,-8.983044999999999,-3.9270894999999997,1.311424,0.010652645,0.0053263223,-0.04580637,27.72,8.82,30.24
1554103372807,-9.035717,-3.8456864,1.3162124,0.024501082,-0.002130529,-0.035153727999999995,27.66,8.88,30.24
1554103372829,-8.925583999999999,-3.816956,1.1965023000000001,0.024501082,-0.010652645,-0.007456851,27.66,8.94,30.24
1554103372848,-8.983044999999999,-3.8073792,1.3784616000000003,0.011717908999999999,-0.013848438000000001,0.004261058,27.6,8.94,30.24
1554103372867,-8.767567,-3.8361096,1.3688848,-0.0053263223,-0.020240024,0.0010652645,27.6,9.0,30.24
1554103372888,-8.690952000000001,-3.7786489000000003,1.3162124,-0.018109497,-0.026631612000000002,0.0053263223,27.54,9.06,30.3
1554103372907,-8.647857,-3.793014,1.335366,-0.015978966,-0.02130529,0.0063915867,27.54,9.12,30.3
1554103372927,-8.647857,-3.7163997,1.359308,-0.00958738,-0.014913702,-0.011717908999999999,27.54,9.18,30.24
1554103372948,-8.820239,-3.7116113,1.3066356000000001,-0.015978966,-0.0063915867,-0.039414786,27.54,9.18,30.24
1554103372968,-8.825027,-3.793014,1.2970588,-0.036218993,-0.00958738,-0.05539375,27.54,9.18,30.24
1554103372988,-8.738836000000001,-3.7738605000000005,1.38325,-0.049002163,-0.012783173500000002,-0.058589544,27.54,9.24,30.18
1554103373007,-8.652645,-3.7355532999999994,1.311424,-0.051132694000000006,-0.00958738,-0.06498113,27.54,9.24,30.24
1554103373029,-8.820239,-3.8073792,1.3018471999999999,-0.047936900000000005,0.0031957934000000003,-0.07669904,27.54,9.24,30.24
1554103373047,-8.772355000000001,-3.769072,1.359308,-0.04474111,0.0063915867,-0.08522116,27.54,9.24,30.24
1554103373070,-8.786719999999999,-3.7882257000000004,1.3640964,-0.04261058,0.007456851,-0.09374327,27.54,9.24,30.24
1554103373089,-8.786719999999999,-3.8552632000000004,1.1821371,-0.054328485999999995,0.00958738,-0.094808534,27.48,9.24,30.3
1554103373108,-8.820239,-3.7882257000000004,1.2970588,-0.05752428,0.0053263223,-0.10013486,27.48,9.24,30.3
1554103373128,-8.695741,-3.86484,1.3688848,-0.04474111,0.0010652645,-0.112918034,27.48,9.24,30.36
1554103373148,-8.714894000000001,-3.888782,1.5173253,-0.036218993,0.007456851,-0.12144015,27.48,9.18,30.36
1554103373168,-8.671799,-3.9079356,1.3497312,-0.03195793,0.017044231,-0.12570119999999999,27.48,9.18,30.36
1554103373188,-8.743625,-3.816956,1.335366,-0.040480047000000005,0.02130529,-0.13635385,27.48,9.18,30.36
1554103373209,-8.743625,-3.9318779000000004,1.2731166999999999,-0.05752428,0.026631612000000002,-0.14807177,27.54,9.12,30.42
1554103373228,-8.667010000000001,-4.0276456,1.2779051000000001,-0.06391586,0.03089267,-0.14913702,27.54,9.12,30.42
1554103373247,-8.7292595,-4.0372224,1.3210008,-0.05006743,0.035153727999999995,-0.14807177,27.6,9.12,30.42
1554103373268,-8.772355000000001,-4.1282024,1.2826935,-0.022370555,0.035153727999999995,-0.1587244,27.6,9.24,30.42
1554103373288,-8.7771435,-4.032433999999999,1.3688848,0.004261058,0.040480047000000005,-0.16298546,27.6,9.36,30.42
1554103373309,-8.7292595,-3.9797617999999995,1.1773487,-0.004261058,0.03089267,-0.15339808,27.66,9.54,30.42
1554103373327,-8.6095495,-4.0276456,1.4167688999999999,-0.020240024,0.025566347000000003,-0.15446335,27.66,9.6,30.42
1554103373347,-8.647857,-4.1329910000000005,1.2491747,-0.037284255,0.024501082,-0.16831179,27.66,9.78,30.48
1554103373367,-8.724471000000001,-4.1186256000000006,1.2443863000000002,-0.036218993,0.03195793,-0.17576863,27.66,9.96,30.48
1554103373387,-8.762777999999999,-4.2383356,1.2491747,-0.014913702,0.033023197000000004,-0.16937704,27.72,10.14,30.48
1554103373409,-8.676587,-4.180875,1.1438298,0.004261058,0.035153727999999995,-0.15765914,27.72,10.38,30.48
1554103373428,-8.6334915,-4.200028400000001,1.1534066,-0.012783173500000002,0.037284255,-0.15020229,27.72,10.44,30.48
1554103373448,-8.676587,-4.257489,1.1677719,-0.033023197000000004,0.03834952,-0.15339808,27.78,10.5,30.48
1554103373468,-8.623915,-4.300585,1.2012907,-0.03195793,0.037284255,-0.15552860000000002,27.78,10.56,30.42
1554103373488,-8.6334915,-4.243124,1.1821371,-0.007456851,0.041545313,-0.15233281,27.78,10.62,30.42
1554103373508,-8.556877,-4.209605000000001,1.158195,0.012783173500000002,0.046871635999999994,-0.15126756,27.78,10.62,30.42
1554103373528,-8.532935,-4.243124,1.2252326999999998,0.013848438000000001,0.053263225,-0.17150758,27.78,10.62,30.48
1554103373548,-8.552089,-4.2383356,1.1198878,-0.014913702,0.047936900000000005,-0.18961707,27.78,10.62,30.54
1554103373568,-8.710106,-4.2718544000000005,1.158195,-0.035153727999999995,0.037284255,-0.18961707,27.78,10.68,30.54
1554103373587,-8.6334915,-4.386776,0.9139864999999999,-0.024501082,0.024501082,-0.18109496,27.78,10.74,30.6
1554103373607,-8.604761,-4.5256395,1.1150993999999999,-0.002130529,0.01917476,-0.17470337,27.78,10.86,30.6
1554103373628,-8.671799,-4.3819875999999995,1.1677719,0.004261058,0.01917476,-0.17044231,27.78,11.04,30.66
1554103373648,-8.676587,-4.472967,1.1246762,0.0063915867,0.010652645,-0.16298546,27.78,11.22,30.66
1554103373667,-8.63828,-4.3580456,1.158195,0.0031957934000000003,0.00958738,-0.14168017,27.84,11.4,30.72
1554103373687,-8.772355000000001,-4.573524,1.1198878,0.002130529,0.012783173500000002,-0.12144015,27.84,11.58,30.72
1554103373708,-8.595184,-4.4777555,1.1773487,0.0031957934000000003,0.008522116,-0.11824436,27.84,11.82,30.72
1554103373727,-8.647857,-4.554370400000001,1.1055226,0.0053263223,0.002130529,-0.11930962,27.9,12.0,30.78
1554103373747,-8.566454,-4.5352163,1.0432734000000001,-0.0031957934000000003,-0.0031957934000000003,-0.101200126,27.9,12.12,30.78
1554103373768,-8.604761,-4.540005000000001,1.1438298,-0.018109497,-0.007456851,-0.07669904,27.9,12.24,30.78
1554103373788,-8.63828,-4.659715,1.1055226,-0.01917476,-0.017044231,-0.082025364,27.9,12.24,30.78
1554103373808,-8.552089,-4.6022544000000005,0.96665895,-0.013848438000000001,-0.029827405,-0.08522116,27.9,12.3,30.78
1554103373827,-8.499416,-4.5926776,1.0720038,-0.0053263223,-0.034088463,-0.07137272,27.9,12.3,30.78
1554103373848,-8.446744,-4.563947,1.1055226,-0.0053263223,-0.03834952,-0.058589544,27.9,12.3,30.78
1554103373868,-8.39886,-4.415506400000001,1.0911574,-0.018109497,-0.029827405,-0.051132694000000006,27.9,12.36,30.78
1554103373888,-8.532935,-4.5687356,1.1438298,-0.033023197000000004,-0.02130529,-0.05219796,27.9,12.36,30.78
1554103373907,-8.475474,-4.597466000000001,1.1965023000000001,-0.040480047000000005,-0.013848438000000001,-0.060720075,27.9,12.36,30.78
1554103373928,-8.408437,-4.544793599999999,1.2539631000000002,-0.034088463,-0.0053263223,-0.06604639400000001,27.9,12.42,30.78
1554103373948,-8.456321,-4.540005000000001,1.1534066,-0.007456851,0.0053263223,-0.07776430000000001,27.96,12.48,30.78
1554103373967,-8.446744,-4.482544,1.1150993999999999,0.002130529,0.007456851,-0.08948222,27.96,12.48,30.84
1554103373988,-8.475474,-4.5016975,1.0384849,-0.00958738,0.010652645,-0.09374327,28.02,12.54,30.84
1554103374008,-8.528147,-4.659715,1.0193313,-0.03195793,0.004261058,-0.09267801,28.02,12.54,30.84
1554103374028,-8.427589999999999,-4.7506948,1.2204443,-0.03834952,0.002130529,-0.08522116,28.02,12.6,30.84
1554103374048,-8.494628,-4.664503599999999,1.0720038,-0.01917476,0.0010652645,-0.07989483,28.02,12.6,30.84
1554103374068,-8.432379,-4.635773,1.0815806000000001,-0.007456851,0.004261058,-0.07243799,28.02,12.66,30.84
1554103374088,-8.537724,-4.6980224,1.0097545,-0.01917476,0.0,-0.06285059999999999,27.96,12.66,30.78
1554103374108,-8.461109,-4.717176,1.134253,-0.03089267,-0.007456851,-0.053263225,27.9,12.72,30.78
1554103374127,-8.494628,-4.76506,1.1294646000000002,-0.024501082,-0.002130529,-0.04474111,27.84,12.72,30.72
1554103374147,-8.389283,-4.6980224,1.0384849,-0.0010652645,0.002130529,-0.04580637,27.84,12.78,30.72
1554103374167,-8.374918,-4.5016975,1.110311,0.014913702,0.010652645,-0.051132694000000006,27.84,12.78,30.66
1554103374189,-8.480263,-4.496909,0.99060094,0.014913702,0.022370555,-0.049002163,27.84,12.78,30.66
1554103374208,-8.456321,-4.563947,1.0193313,-0.007456851,0.025566347000000003,-0.053263225,27.9,12.78,30.66
1554103374227,-8.365341,-4.578312400000001,0.8948328999999999,-0.033023197000000004,0.026631612000000002,-0.08735169,27.9,12.78,30.66
1554103374249,-8.379706,-4.707599,0.9379284999999999,-0.041545313,0.026631612000000002,-0.10546118,27.96,12.78,30.72
1554103374268,-8.331821000000001,-4.7842135,1.0480618,-0.041545313,0.024501082,-0.113983296,28.02,12.78,30.72
1554103374288,-8.331821000000001,-4.6405616,1.0049661,-0.034088463,0.020240024,-0.128897,28.02,12.78,30.78
1554103374308,-8.331821000000001,-4.7363295999999995,1.0241197,-0.026631612000000002,0.017044231,-0.14807177,28.08,12.84,30.78
1554103374328,-8.379706,-4.7842135,1.0672153999999998,-0.040480047000000005,0.0063915867,-0.18002969,28.02,12.84,30.78
1554103374348,-8.236053,-4.6884456,1.0432734000000001,-0.06285059999999999,-0.0010652645,-0.19281286,28.02,12.84,30.84
1554103374368,-8.255207,-4.8225207,0.96665895,-0.080960095,-0.010652645,-0.20559604,28.02,12.9,30.84
1554103374388,-8.279149,-4.8081555,0.99060094,-0.07882957,-0.018109497,-0.21944448,28.02,12.96,30.9
1554103374409,-8.149861999999999,-4.9518075,0.96187055,-0.06498113,-0.020240024,-0.24074976,27.96,13.14,30.9
1554103374427,-8.0924015,-4.956596,0.95708215,-0.06178534,-0.020240024,-0.24714136,27.96,13.14,30.9
1554103374447,-7.929596000000001,-4.923076999999999,0.99060094,-0.06178534,-0.020240024,-0.30679616,27.9,13.44,30.9
1554103374467,-7.6853875999999985,-4.7985787,0.99060094,-0.080960095,-0.02876214,-0.35260254,27.9,13.62,30.96
1554103374488,-7.4507556,-4.947019,0.9091981,-0.11930962,-0.037284255,-0.43356264,27.9,13.74,31.02
1554103374507,-7.369353,-4.8656163,0.6171055000000001,-0.14913702,-0.036218993,-0.5187838,27.84,13.86,31.02
1554103374527,-7.240066000000001,-4.827309,0.6075286999999999,-0.19174760000000002,-0.043675844000000005,-0.6263755,27.84,13.92,31.08
1554103374547,-7.2831616,-4.76506,0.7368156,-0.26631612,-0.06711166,-0.7414241,27.78,13.92,31.08
1554103374567,-7.28795,-4.8799815,0.66020113,-0.39095205,-0.113983296,-0.8383630999999999,27.78,13.86,31.14
1554103374588,-7.2352777,-5.349245,0.82779527,-0.49534798,-0.16831179,-0.9129315999999998,27.78,13.74,31.14
1554103374607,-7.3214690000000004,-5.8041434,1.0097545,-0.51771855,-0.16298546,-0.9715212,27.78,13.74,31.14
1554103374627,-7.5082164,-5.957372,0.96665895,-0.5134575,-0.13848437,-1.0077401,27.72,13.98,31.14
1554103374647,-7.465121000000001,-6.033987000000001,0.84694886,-0.53263223,-0.1107875,-1.026915,27.78,14.28,31.14
1554103374668,-7.431602000000001,-6.546346,1.0049661,-0.5251754,-0.07776430000000001,-1.0301107,27.78,14.64,31.08
1554103374687,-7.28795,-6.848015299999999,0.6697779,-0.49534798,-0.04474111,-0.98750013,27.9,15.06,31.08
1554103374708,-7.431602000000001,-6.986878999999999,0.66020113,-0.46658584,-0.012783173500000002,-0.92038846,28.02,15.54,31.02
1554103374727,-7.489063000000001,-7.1353197,0.5835866999999999,-0.44421527,-0.007456851,-0.8809737,28.14,16.14,31.02
1554103374748,-7.431602000000001,-7.3220673,0.41120413,-0.43675843,-0.013848438000000001,-0.82877576,28.26,16.74,30.96
1554103374768,-7.302314999999999,-7.5471225,0.5117606,-0.39308259999999995,-0.020240024,-0.77125144,28.38,17.58,30.96
1554103374787,-7.067683000000001,-7.6285253,0.56443304,-0.27696875,-0.017044231,-0.7094661,28.44,18.12,30.96
1554103374808,-6.919242999999999,-7.781753999999999,0.45908818,-0.13848437,0.0053263223,-0.6295713000000001,28.5,18.66,30.96
1554103374828,-6.9144545,-7.767389,0.34895490000000007,-0.049002163,0.023435817999999997,-0.5454154,28.5,19.2,30.96
1554103374848,-6.742072,-7.6428905,0.23882163,-0.040480047000000005,0.036218993,-0.48469532,28.5,19.74,30.96
1554103374868,-6.7516490000000005,-7.475296000000001,0.34895490000000007,-0.068176925,0.04261058,-0.44315,28.44,20.34,30.9
1554103374888,-6.7133417,-7.4465656000000005,0.45908818,-0.12357068,0.039414786,-0.39095205,28.44,21.0,30.9
1554103374907,-6.679823,-7.3603745,0.48303019999999997,-0.14913702,0.043675844000000005,-0.34301516,28.44,21.6,30.9
1554103374928,-6.612785000000001,-7.5136037,0.40162733,-0.1470065,0.041545313,-0.30892670000000005,28.44,22.02,30.9
1554103374947,-6.5457472999999995,-7.599794999999999,0.6218939,-0.10972224,0.03195793,-0.2727077,28.5,22.38,30.9
1554103374967,-6.4068837,-7.705139599999999,0.52133745,-0.034088463,0.041545313,-0.23222765,28.5,22.74,30.9
1554103374987,-6.5026517,-7.724292999999999,0.28670564,0.046871635999999994,0.06285059999999999,-0.18961707,28.56,23.1,30.9
1554103375007,-6.459556,-7.647678999999999,0.24361002,0.09054748,0.07989483,-0.15233281,28.62,23.4,30.9
1554103375028,-6.363788,-7.6285253,0.24839842,0.06285059999999999,0.07882957,-0.12570119999999999,28.74,23.7,30.9
1554103375047,-6.3111157,-7.5758529999999995,0.09995792,0.02130529,0.07669904,-0.10546118,28.8,23.76,30.9
1554103375068,-6.191406,-7.6428905,0.11432313,-0.04474111,0.06604639400000001,-0.07030745599999999,28.86,24.18,30.9
1554103375087,-6.196194,-7.671621000000001,0.17657238,-0.06285059999999999,0.05752428,-0.06178534,28.86,24.3,30.96
1554103375107,-6.129156,-7.6524673,0.09516951400000001,-0.053263225,0.049002163,-0.06498113,28.86,24.78,31.02
1554103375128,-6.0860605,-7.451353999999999,0.09516951400000001,-0.02876214,0.034088463,-0.07882957,28.86,25.02,31.08
1554103375147,-6.129156,-7.5710645,0.21009120000000003,-0.0010652645,0.023435817999999997,-0.08948222,28.8,25.32,31.2
1554103375167,-6.0621184999999995,-7.5327573,0.25797522,0.0053263223,0.011717908999999999,-0.099069595,28.74,25.56,31.26
1554103375188,-6.244078,-7.4465656000000005,0.29628247,-0.03195793,0.002130529,-0.112918034,28.62,25.74,31.38
1554103375207,-6.3446345,-7.5327573,0.14784196,-0.07243799,-0.007456851,-0.11717909,28.56,25.8,31.5
1554103375227,-6.2584434,-7.5710645,0.3298013,-0.07776430000000001,-0.012783173500000002,-0.10972224,28.56,25.8,31.56
1554103375248,-6.2392898,-7.6907744000000005,0.43035775,-0.04580637,-0.00958738,-0.10546118,28.5,25.86,31.62
1554103375268,-6.2249246,-7.743447,0.31543607,0.0053263223,-0.0053263223,-0.096939065,28.5,25.86,31.68
1554103375288,-6.1483099999999995,-7.743447,0.17178397,0.03089267,0.0031957934000000003,-0.07137272,28.56,25.92,31.68
1554103375307,-6.2249246,-7.7626004,0.29149407,0.029827405,0.013848438000000001,-0.047936900000000005,28.56,25.98,31.68
1554103375327,-6.253655,-7.7147164,0.25797522,0.018109497,0.015978966,-0.03834952,28.62,26.04,31.68
1554103375348,-6.2392898,-7.724292999999999,0.27712885,0.023435817999999997,0.018109497,-0.023435817999999997,28.62,26.1,31.62
1554103375369,-6.1626754,-7.767389,0.17178397,0.04261058,0.025566347000000003,-0.002130529,28.56,26.16,31.62
1554103375388,-6.100425700000001,-7.709928,-0.0053869537,0.07137272,0.02876214,0.015978966,28.56,26.34,31.62
1554103375408,-6.0860605,-7.647678999999999,0.17657238,0.083090626,0.035153727999999995,0.03089267,28.56,26.46,31.62
1554103375428,-6.0525417,-7.6285253,0.09516951400000001,0.07669904,0.036218993,0.043675844000000005,28.5,26.64,31.56
1554103375447,-6.042965000000001,-7.561487700000001,0.13826515,0.06178534,0.02876214,0.040480047000000005,28.5,26.82,31.56
1554103375468,-6.081272,-7.5471225,0.09516951400000001,0.051132694000000006,0.02876214,0.034088463,28.5,26.94,31.56
1554103375488,-6.0860605,-7.5758529999999995,0.17178397,0.06178534,0.03195793,0.017044231,28.5,27.06,31.56
1554103375508,-6.0764837,-7.451353999999999,0.12389994,0.07776430000000001,0.036218993,-0.0031957934000000003,28.44,27.18,31.56
1554103375528,-6.1483099999999995,-7.389105000000001,0.12389994,0.06178534,0.03195793,-0.018109497,28.44,27.3,31.5
1554103375547,-6.129156,-7.389105000000001,0.14784196,0.027696876000000002,0.02130529,-0.024501082,28.5,27.36,31.5
1554103375568,-6.1100025,-7.341221000000001,0.12389994,-0.002130529,0.012783173500000002,-0.023435817999999997,28.5,27.3,31.56
1554103375587,-6.1578870000000006,-7.5758529999999995,0.19572599,-0.011717908999999999,0.007456851,-0.034088463,28.5,27.24,31.56
1554103375607,-6.1626754,-7.5375457,0.32501290000000005,-0.023435817999999997,0.002130529,-0.03834952,28.44,27.06,31.56
1554103375627,-6.2249246,-7.5183919999999995,0.13347675,-0.0063915867,0.0010652645,-0.03195793,28.44,26.82,31.62
1554103375647,-6.2488665999999995,-7.6524673,0.25797522,-0.0031957934000000003,0.0010652645,-0.026631612000000002,28.44,26.64,31.68
1554103375667,-6.1866174,-7.647678999999999,0.12389994,-0.008522116,-0.0031957934000000003,-0.024501082,28.44,26.4,31.68
1554103375688,-6.1818290000000005,-7.647678999999999,0.09995792,-0.0053263223,-0.0063915867,-0.00958738,28.38,26.22,31.74
1554103375707,-6.0956373,-7.647678999999999,0.18136078,0.004261058,0.002130529,0.002130529,28.32,25.98,31.8
1554103375728,-6.143522,-7.5758529999999995,0.24839842,0.02130529,0.010652645,0.0031957934000000003,28.32,25.74,31.8
1554103375747,-6.220136,-7.566275999999999,0.24361002,0.025566347000000003,0.022370555,-0.007456851,28.26,25.5,31.86
1554103375768,-6.1243677000000005,-7.4705076,0.15263036,0.015978966,0.023435817999999997,-0.022370555,28.14,25.32,31.86
1554103375787,-6.0764837,-7.441777,0.30585927,0.010652645,0.025566347000000003,-0.029827405,28.08,25.14,31.92
1554103375807,-6.1483099999999995,-7.5710645,0.3298013,0.008522116,0.023435817999999997,-0.040480047000000005,27.96,24.96,31.92
1554103375827,-6.114791,-7.5566993,0.19093758,0.007456851,0.01917476,-0.043675844000000005,27.96,24.78,31.92
1554103375848,-6.105214,-7.590217999999999,0.17178397,0.022370555,0.022370555,-0.047936900000000005,27.84,24.42,31.92
1554103375867,-6.105214,-7.647678999999999,0.41120413,0.03195793,0.020240024,-0.051132694000000006,27.72,24.12,31.98
1554103375887,-6.1100025,-7.614160000000001,0.27712885,0.041545313,0.020240024,-0.056459017,27.66,23.88,31.98
1554103375908,-6.1770406,-7.5183919999999995,0.25797522,0.047936900000000005,0.01917476,-0.05539375,27.6,23.64,31.98
1554103375927,-6.129156,-7.4609309999999995,0.22924481,0.04474111,0.022370555,-0.053263225,27.48,23.46,31.98
1554103375947,-6.2105594,-7.542333999999999,0.25318682,0.03195793,0.033023197000000004,-0.05219796,27.42,23.28,32.04
1554103375967,-6.301539,-7.49445,0.15741876,0.026631612000000002,0.029827405,-0.056459017,27.42,23.16,32.04
1554103375987,-6.2823853,-7.561487700000001,0.08080431,0.02876214,0.036218993,-0.05539375,27.36,23.16,32.04
1554103376008,-6.2871737,-7.527969000000001,0.109534726,0.03195793,0.034088463,-0.046871635999999994,27.42,23.16,32.04
1554103376027,-6.253655,-7.49445,0.23403321,0.027696876000000002,0.029827405,-0.029827405,27.48,23.22,32.04
1554103376047,-6.253655,-7.436989,0.10474633,0.022370555,0.013848438000000001,-0.018109497,27.48,23.34,32.1
1554103376068,-6.2009826,-7.5710645,0.018555064,0.012783173500000002,0.013848438000000001,-0.014913702,27.54,23.46,32.1
1554103376087,-6.172251999999999,-7.451353999999999,0.15263036,0.0,0.0,-0.023435817999999997,27.54,23.58,32.1
1554103376107,-6.1770406,-7.527969000000001,0.19572599,0.002130529,-0.00958738,-0.03089267,27.54,23.7,32.04
1554103376127,-6.2249246,-7.6093717000000005,0.08080431,0.0031957934000000003,-0.012783173500000002,-0.033023197000000004,27.6,23.82,32.04
1554103376147,-6.143522,-7.5519110000000005,0.20530279,0.0,-0.020240024,-0.03195793,27.6,24.06,31.98
1554103376167,-6.0716953,-7.6333137,0.22445641,-0.0010652645,-0.012783173500000002,-0.022370555,27.66,24.3,31.98
1554103376187,-6.0716953,-7.6333137,0.24361002,0.002130529,-0.002130529,-0.02130529,27.78,24.6,31.92
1554103376208,-6.1387334000000005,-7.671621000000001,0.25318682,0.029827405,0.014913702,-0.029827405,27.9,24.84,31.92
1554103376227,-6.129156,-7.49445,0.19572599,0.039414786,0.022370555,-0.024501082,28.02,25.08,31.86
1554103376247,-6.1387334000000005,-7.561487700000001,0.3585317,0.035153727999999995,0.02876214,-0.013848438000000001,28.14,25.26,31.86
1554103376267,-6.129156,-7.6189485,0.39205053,0.020240024,0.034088463,-0.004261058,28.26,25.44,31.92
1554103376288,-6.0860605,-7.561487700000001,0.30107087,0.03089267,0.039414786,-0.0063915867,28.38,25.56,31.92
1554103376307,-6.1195793,-7.5136037,0.27712885,0.054328485999999995,0.043675844000000005,-0.010652645,28.5,25.62,31.92
1554103376327,-6.244078,-7.484873299999999,0.23403321,0.083090626,0.04580637,-0.027696876000000002,28.5,25.68,31.92
1554103376347,-6.26802,-7.480085000000001,0.25318682,0.07137272,0.03834952,-0.035153727999999995,28.5,25.68,31.92
1554103376368,-6.2105594,-7.5183919999999995,0.17178397,0.046871635999999994,0.029827405,-0.037284255,28.44,25.74,31.92
1554103376388,-6.167464,-7.542333999999999,0.38726214,0.034088463,0.024501082,-0.03089267,28.32,25.8,31.92
1554103376408,-6.2392898,-7.585429700000001,0.18614918,0.041545313,0.022370555,-0.029827405,28.26,25.92,31.98
1554103376427,-6.253655,-7.561487700000001,0.09516951400000001,0.06285059999999999,0.020240024,-0.03195793,28.2,26.04,31.98
1554103376447,-6.2488665999999995,-7.436989,0.11432313,0.08841695,0.01917476,-0.034088463,28.14,26.22,32.04
1554103376468,-6.1770406,-7.3220673,0.24361002,0.07776430000000001,0.02130529,-0.033023197000000004,28.14,26.4,32.1
1554103376488,-6.315904,-7.3460092999999995,0.18614918,0.04261058,0.024501082,-0.036218993,28.14,26.58,32.1
1554103376508,-6.2967505,-7.307702000000001,0.29628247,0.014913702,0.020240024,-0.04261058,28.14,26.7,32.16
1554103376528,-6.1483099999999995,-7.422623599999999,0.09995792,0.010652645,0.013848438000000001,-0.043675844000000005,28.14,26.88,32.22
1554103376548,-6.2105594,-7.4274119999999995,0.18136078,0.010652645,0.013848438000000001,-0.040480047000000005,28.26,27.0,32.34
1554103376568,-6.2345014,-7.5183919999999995,0.23403321,0.0031957934000000003,0.0031957934000000003,-0.040480047000000005,28.26,27.12,32.46
1554103376587,-6.2823853,-7.504027000000001,0.25797522,-0.0010652645,-0.007456851,-0.043675844000000005,28.32,27.12,32.52
1554103376608,-6.3111157,-7.5136037,0.16220717,-0.0010652645,-0.01917476,-0.05219796,28.38,27.12,32.58
1554103376629,-6.2584434,-7.475296000000001,0.31064767,0.0010652645,-0.023435817999999997,-0.04580637,28.32,27.12,32.64
1554103376647,-6.172251999999999,-7.4992385,0.3537433,0.0031957934000000003,-0.024501082,-0.03195793,28.32,27.06,32.7
1554103376667,-6.2632318,-7.4992385,0.22445641,-0.0010652645,-0.023435817999999997,-0.025566347000000003,28.32,27.06,32.76
1554103376688,-6.229712999999999,-7.4609309999999995,0.30585927,-0.004261058,-0.01917476,-0.022370555,28.26,27.06,32.76
1554103376708,-6.244078,-7.561487700000001,0.21009120000000003,-0.002130529,-0.015978966,-0.015978966,28.32,27.06,32.7
1554103376727,-6.2249246,-7.417835,0.12389994,0.0063915867,-0.011717908999999999,-0.00958738,28.32,27.06,32.64
1554103376749,-6.143522,-7.4322004,0.27712885,-0.008522116,-0.011717908999999999,-0.013848438000000001,28.32,27.06,32.64
1554103376768,-6.1818290000000005,-7.480085000000001,0.21487960000000003,-0.017044231,-0.015978966,-0.015978966,28.38,27.06,32.58
1554103376788,-6.1770406,-7.441777,0.14784196,-0.023435817999999997,-0.01917476,-0.024501082,28.38,27.06,32.58
1554103376808,-6.253655,-7.4034699999999996,0.15741876,-0.025566347000000003,-0.017044231,-0.03195793,28.38,27.06,32.52
1554103376829,-6.3446345,-7.647678999999999,0.20530279,-0.023435817999999997,-0.03089267,-0.037284255,28.38,27.12,32.52
1554103376848,-6.167464,-7.5375457,0.24839842,-0.025566347000000003,-0.040480047000000005,-0.03195793,28.38,27.12,32.52
1554103376868,-6.143522,-7.614160000000001,0.3633201,-0.013848438000000001,-0.04261058,-0.025566347000000003,28.38,27.06,32.46
1554103376888,-6.1387334000000005,-7.585429700000001,0.3345897,-0.008522116,-0.03834952,-0.022370555,28.38,27.06,32.46
1554103376909,-6.26802,-7.4705076,0.14784196,-0.012783173500000002,-0.03195793,-0.027696876000000002,28.38,27.06,32.46
1554103376928,-6.2488665999999995,-7.484873299999999,0.39683893,-0.022370555,-0.027696876000000002,-0.027696876000000002,28.38,27.06,32.46
1554103376949,-6.26802,-7.542333999999999,0.26755205,-0.017044231,-0.026631612000000002,-0.013848438000000001,28.38,27.0,32.52
1554103376968,-6.2009826,-7.5183919999999995,0.25797522,-0.007456851,-0.01917476,0.0,28.38,27.0,32.46
1554103376988,-6.1483099999999995,-7.451353999999999,0.23882163,-0.011717908999999999,-0.0063915867,0.004261058,28.38,26.94,32.46
1554103377007,-6.220136,-7.436989,0.20051439,-0.024501082,0.0010652645,-0.0031957934000000003,28.38,26.94,32.46
1554103377027,-6.1626754,-7.4705076,0.3441665,-0.027696876000000002,0.0010652645,-0.022370555,28.38,26.88,32.46
1554103377049,-6.2249246,-7.4034699999999996,0.109534726,-0.014913702,0.004261058,-0.036218993,28.38,26.88,32.46
1554103377068,-6.1100025,-7.4322004,0.18136078,-0.013848438000000001,0.0,-0.03834952,28.38,26.82,32.52
1554103377088,-6.1387334000000005,-7.417835,0.22445641,-0.02876214,-0.0053263223,-0.04580637,28.32,26.76,32.58
1554103377107,-6.220136,-7.4322004,0.23403321,-0.03834952,-0.010652645,-0.05965481,28.32,26.76,32.58
1554103377127,-6.244078,-7.5136037,0.3345897,-0.03834952,-0.00958738,-0.07776430000000001,28.32,26.76,32.64
1554103377148,-6.277597,-7.527969000000001,0.14305355,-0.035153727999999995,-0.004261058,-0.09161274,28.32,26.7,32.64
1554103377167,-6.2009826,-7.508815299999999,0.18614918,-0.033023197000000004,-0.0063915867,-0.08735169,28.32,26.7,32.64
1554103377187,-6.253655,-7.4705076,0.18136078,-0.03089267,-0.008522116,-0.080960095,28.26,26.7,32.58
1554103377208,-6.2967505,-7.6285253,0.15263036,-0.029827405,-0.0031957934000000003,-0.07350325,28.26,26.7,32.52
1554103377228,-6.301539,-7.504027000000001,0.14305355,-0.035153727999999995,0.0031957934000000003,-0.07243799,28.26,26.7,32.46
1554103377248,-6.2392898,-7.436989,0.25797522,-0.036218993,0.0010652645,-0.06604639400000001,28.26,26.7,32.4
1554103377268,-6.2249246,-7.451353999999999,0.19572599,-0.041545313,0.0053263223,-0.056459017,28.26,26.7,32.34
1554103377288,-6.143522,-7.504027000000001,0.29149407,-0.04580637,0.0063915867,-0.06604639400000001,28.26,26.7,32.28
1554103377308,-6.167464,-7.623736999999999,0.25797522,-0.013848438000000001,0.0,-0.07350325,28.26,26.7,32.22
1554103377328,-6.167464,-7.6093717000000005,0.3776853,0.051132694000000006,0.0053263223,-0.06924219,28.2,26.7,32.22
1554103377347,-6.114791,-7.5519110000000005,0.19093758,0.084155895,0.010652645,-0.06924219,28.2,26.64,32.16
1554103377368,-6.191406,-7.6045833,0.19093758,0.04261058,0.007456851,-0.07137272,28.2,26.58,32.16
1554103377388,-6.1243677000000005,-7.5950065,0.18136078,-0.024501082,0.004261058,-0.060720075,28.14,26.52,32.1
1554103377408,-6.2105594,-7.5758529999999995,0.20530279,-0.06924219,0.002130529,-0.051132694000000006,28.14,26.52,32.1
1554103377428,-6.129156,-7.6045833,0.34895490000000007,-0.07030745599999999,0.0010652645,-0.05219796,28.14,26.46,32.1
1554103377448,-6.191406,-7.6668324000000005,0.24839842,-0.029827405,0.0010652645,-0.046871635999999994,28.14,26.46,32.16
1554103377468,-6.196194,-7.6189485,0.29628247,0.007456851,0.0010652645,-0.041545313,28.14,26.46,32.16
1554103377487,-6.0525417,-7.6189485,0.19093758,0.00958738,-0.002130529,-0.043675844000000005,28.14,26.46,32.22
1554103377508,-6.100425700000001,-7.5758529999999995,0.28670564,-0.017044231,-0.002130529,-0.041545313,28.2,26.46,32.28
1554103377527,-6.1387334000000005,-7.508815299999999,0.090381116,-0.037284255,0.0,-0.035153727999999995,28.2,26.46,32.28
1554103377548,-6.1100025,-7.542333999999999,0.22445641,-0.004261058,0.008522116,-0.03089267,28.2,26.52,32.34
1554103377568,-6.1483099999999995,-7.561487700000001,0.20051439,0.033023197000000004,0.017044231,-0.039414786,28.2,26.52,32.34
1554103377588,-6.26802,-7.4274119999999995,0.17657238,0.035153727999999995,0.024501082,-0.049002163,28.2,26.58,32.4
1554103377608,-6.26802,-7.484873299999999,0.02813187,0.0063915867,0.018109497,-0.051132694000000006,28.2,26.58,32.4
1554103377627,-6.1770406,-7.3843164,0.13347675,-0.02130529,0.014913702,-0.039414786,28.2,26.58,32.34
1554103377647,-6.2249246,-7.5471225,0.15263036,-0.018109497,0.01917476,-0.039414786,28.26,26.58,32.34
1554103377668,-6.339846,-7.4992385,0.090381116,-0.004261058,0.015978966,-0.051132694000000006,28.26,26.64,32.4
1554103377688,-6.26802,-7.6093717000000005,0.18136078,-0.002130529,0.015978966,-0.053263225,28.26,26.64,32.4
1554103377708,-6.2249246,-7.5566993,0.023343466,-0.01917476,0.0053263223,-0.046871635999999994,28.26,26.64,32.4
1554103377728,-6.143522,-7.590217999999999,0.037708677,-0.039414786,-0.0063915867,-0.023435817999999997,28.26,26.58,32.46
1554103377750,-6.1530986,-7.647678999999999,0.13826515,-0.04580637,-0.00958738,-0.0063915867,28.26,26.64,32.52
1554103377768,-6.1483099999999995,-7.6285253,0.18136078,-0.03195793,-0.012783173500000002,-0.007456851,28.26,26.64,32.52
1554103377788,-6.1243677000000005,-7.6428905,0.31064767,-0.012783173500000002,-0.00958738,-0.007456851,28.2,26.64,32.58
1554103377808,-6.1530986,-7.4992385,0.14784196,0.008522116,-0.0053263223,-0.010652645,28.2,26.64,32.58
1554103377828,-6.143522,-7.6045833,0.13826515,0.004261058,-0.002130529,-0.012783173500000002,28.2,26.64,32.58
1554103377849,-6.2009826,-7.5519110000000005,0.13826515,-0.013848438000000001,0.004261058,-0.022370555,28.2,26.64,32.64
1554103377868,-6.1243677000000005,-7.527969000000001,0.29149407,-0.020240024,0.008522116,-0.034088463,28.14,26.64,32.64
1554103377888,-6.1100025,-7.6093717000000005,0.17178397,-0.0031957934000000003,0.022370555,-0.034088463,28.08,26.58,32.64
1554103377907,-6.0860605,-7.599794999999999,0.12389994,0.024501082,0.035153727999999995,-0.039414786,28.02,26.64,32.58
1554103377928,-6.1818290000000005,-7.5519110000000005,0.15741876,0.039414786,0.04261058,-0.046871635999999994,28.02,26.64,32.58
1554103377948,-6.05733,-7.5471225,0.10474633,0.029827405,0.04261058,-0.03834952,27.96,26.64,32.52
1554103377968,-6.1770406,-7.590217999999999,0.032920275,0.018109497,0.039414786,-0.029827405,28.02,26.7,32.52
1554103377987,-6.1866174,-7.614160000000001,0.15263036,0.011717908999999999,0.04261058,-0.03089267,28.02,26.76,32.46
1554103378008,-6.143522,-7.5183919999999995,0.11432313,0.00958738,0.041545313,-0.037284255,28.08,26.82,32.46
1554103378028,-6.1626754,-7.5710645,0.27712885,0.02130529,0.037284255,-0.037284255,28.14,26.88,32.4
1554103378047,-6.220136,-7.590217999999999,0.21487960000000003,0.034088463,0.035153727999999995,-0.039414786,28.26,26.94,32.4
1554103378068,-6.167464,-7.671621000000001,0.12868834,0.02130529,0.023435817999999997,-0.05539375,28.32,27.0,32.46
1554103378088,-6.100425700000001,-7.6285253,0.12868834,0.015978966,0.017044231,-0.053263225,28.38,27.0,32.46
1554103378107,-6.133945,-7.6333137,-0.02932897,0.010652645,0.012783173500000002,-0.04474111,28.44,27.06,32.52
1554103378127,-6.2345014,-7.599794999999999,0.25318682,0.008522116,0.015978966,-0.039414786,28.44,27.0,32.58
1554103378148,-6.272808599999999,-7.585429700000001,0.14305355,0.025566347000000003,0.012783173500000002,-0.024501082,28.44,26.94,32.58
1554103378168,-6.3111157,-7.451353999999999,0.13826515,0.049002163,0.017044231,-0.007456851,28.38,26.94,32.64
1554103378188,-6.1483099999999995,-7.413047,0.17657238,0.034088463,0.023435817999999997,-0.0031957934000000003,28.38,26.88,32.64
1554103378207,-6.301539,-7.4274119999999995,0.08080431,0.027696876000000002,0.02130529,-0.00958738,28.38,26.88,32.64
1554103378227,-6.1578870000000006,-7.3699512,0.109534726,0.015978966,0.022370555,-0.018109497,28.38,26.82,32.64
1554103378247,-6.1530986,-7.436989,0.04249708,0.0031957934000000003,0.020240024,-0.024501082,28.38,26.82,32.64
1554103378268,-6.1578870000000006,-7.441777,0.27712885,0.0,0.01917476,-0.026631612000000002,28.38,26.82,32.64
1554103378288,-6.2871737,-7.451353999999999,0.17657238,0.007456851,0.012783173500000002,-0.036218993,28.32,26.82,32.64
1554103378308,-6.2105594,-7.5183919999999995,0.02813187,0.013848438000000001,0.0,-0.049002163,28.32,26.88,32.64
1554103378328,-6.196194,-7.5519110000000005,0.047285482000000004,0.0031957934000000003,-0.002130529,-0.053263225,28.26,26.88,32.64
1554103378349,-6.1626754,-7.5758529999999995,-0.0724246,-0.010652645,-0.011717908999999999,-0.05006743,28.26,26.88,32.64
1554103378368,-6.143522,-7.6428905,0.109534726,-0.020240024,-0.017044231,-0.047936900000000005,28.2,26.82,32.64
1554103378387,-6.1818290000000005,-7.542333999999999,0.09516951400000001,-0.020240024,-0.018109497,-0.047936900000000005,28.14,26.82,32.7
1554103378408,-6.2345014,-7.5327573,0.13826515,-0.012783173500000002,-0.014913702,-0.037284255,28.14,26.76,32.7
1554103378428,-6.220136,-7.542333999999999,0.09516951400000001,-0.004261058,-0.0063915867,-0.023435817999999997,28.08,26.7,32.7
1554103378448,-6.1818290000000005,-7.5519110000000005,0.13347675,0.002130529,-0.0031957934000000003,-0.025566347000000003,28.02,26.64,32.76
1554103378467,-6.143522,-7.5519110000000005,0.109534726,-0.0031957934000000003,-0.0010652645,-0.026631612000000002,27.96,26.64,32.76
1554103378487,-6.2153480000000005,-7.4322004,0.09516951400000001,-0.012783173500000002,-0.0010652645,-0.022370555,27.9,26.58,32.76
1554103378508,-6.277597,-7.5519110000000005,-0.010175358,-0.022370555,-0.004261058,-0.017044231,27.9,26.52,32.76
1554103378528,-6.2057709999999995,-7.5136037,0.20051439,-0.01917476,-0.0031957934000000003,-0.02130529,27.84,26.52,32.76
1554103378549,-6.2105594,-7.5136037,0.15263036,-0.020240024,-0.0063915867,-0.035153727999999995,27.84,26.52,32.76
1554103378568,-6.196194,-7.5950065,0.05207389,-0.022370555,-0.014913702,-0.04261058,27.84,26.52,32.76
1554103378589,-6.0716953,-7.6428905,0.032920275,-0.041545313,-0.020240024,-0.026631612000000002,27.9,26.52,32.76
1554103378608,-6.143522,-7.6428905,-0.10115502,-0.05219796,-0.027696876000000002,-0.015978966,27.9,26.52,32.76
1554103378628,-6.1770406,-7.5566993,0.008978256,-0.058589544,-0.026631612000000002,-0.02130529,27.96,26.58,32.82
1554103378649,-6.1100025,-7.417835,0.037708677,-0.054328485999999995,-0.022370555,-0.02876214,28.02,26.58,32.82
1554103378668,-6.1770406,-7.4705076,0.0712275,-0.034088463,-0.020240024,-0.033023197000000004,28.08,26.58,32.88
1554103378688,-6.1530986,-7.4705076,0.076015905,-0.0063915867,-0.015978966,-0.036218993,28.08,26.58,32.88
1554103378708,-6.2057709999999995,-7.4034699999999996,0.12389994,-0.0053263223,-0.008522116,-0.04580637,28.14,26.58,32.88
1554103378727,-6.196194,-7.3938932,0.090381116,-0.024501082,-0.0053263223,-0.05539375,28.14,26.58,32.88
1554103378748,-6.2057709999999995,-7.4561424,0.10474633,-0.04580637,-0.0010652645,-0.060720075,28.14,26.58,32.82
1554103378768,-6.133945,-7.508815299999999,0.076015905,-0.03834952,0.0053263223,-0.07456851,28.14,26.58,32.82
1554103378788,-6.143522,-7.5136037,-0.091578215,-0.026631612000000002,0.0063915867,-0.080960095,28.14,26.58,32.82
1554103378807,-6.1243677000000005,-7.5471225,-0.05805939,-0.014913702,0.00958738,-0.08948222,28.14,26.58,32.76
1554103378828,-6.1243677000000005,-7.585429700000001,0.0041898529999999995,-0.018109497,0.011717908999999999,-0.09587380000000001,28.14,26.58,32.7
1554103378848,-6.1578870000000006,-7.5950065,0.076015905,-0.023435817999999997,0.00958738,-0.10439592,28.08,26.58,32.7
1554103378867,-6.143522,-7.6907744000000005,0.05686229,-0.03089267,0.0053263223,-0.10439592,28.08,26.64,32.7
1554103378888,-6.1770406,-7.671621000000001,-0.091578215,-0.029827405,0.002130529,-0.101200126,28.02,26.7,32.64
1554103378908,-6.129156,-7.719505000000001,-0.04369418,-0.02130529,0.0031957934000000003,-0.09374327,28.02,26.7,32.64
1554103378927,-6.0333879999999995,-7.6524673,0.018555064,0.0063915867,0.0063915867,-0.07882957,27.96,26.76,32.64
1554103378947,-6.1770406,-7.614160000000001,0.05686229,0.01917476,0.015978966,-0.068176925,27.96,26.76,32.58
1554103378968,-6.2057709999999995,-7.6572556,-0.04369418,0.008522116,0.026631612000000002,-0.068176925,27.96,26.76,32.64
1554103378987,-6.1530986,-7.6572556,0.10474633,-0.004261058,0.026631612000000002,-0.06924219,27.96,26.82,32.64
1554103379007,-6.0285997,-7.772177,0.12389994,0.0031957934000000003,0.03089267,-0.05539375,27.96,26.82,32.58
1554103379028,-6.0764837,-7.719505000000001,0.0712275,0.027696876000000002,0.03834952,-0.049002163,27.96,26.82,32.58
1554103379049,-6.0716953,-7.73387,0.008978256,0.054328485999999995,0.043675844000000005,-0.047936900000000005,28.02,26.76,32.58
1554103379068,-6.081272,-7.685986,-0.0053869537,0.07350325,0.056459017,-0.039414786,28.02,26.76,32.58
1554103379088,-6.0716953,-7.681197599999999,-0.0005985504,0.07989483,0.07137272,-0.027696876000000002,28.02,26.76,32.58
1554103379109,-5.971139,-7.867945,0.19093758,0.07776430000000001,0.084155895,-0.020240024,28.02,26.76,32.58
1554103379129,-5.995081,-7.6907744000000005,0.02813187,0.083090626,0.10333065,-0.014913702,28.02,26.76,32.64
1554103379148,-5.961562000000001,-7.709928,0.13347675,0.10865697,0.12463594,-0.011717908999999999,28.02,26.76,32.64
1554103379168,-5.947197,-7.7769656000000005,0.27712885,0.13954964,0.15020229,-0.026631612000000002,28.02,26.76,32.7
1554103379188,-6.066907,-7.7578119999999995,0.13347675,0.16724652,0.15765914,-0.05219796,27.96,26.76,32.76
1554103379208,-5.9280434,-7.6572556,0.15741876,0.18002969,0.165116,-0.056459017,27.96,26.76,32.82
1554103379228,-6.0860605,-7.709928,0.15741876,0.17470337,0.16618125,-0.05539375,28.02,26.82,32.88
1554103379248,-6.0764837,-7.6668324000000005,0.14305355,0.18216023,0.15765914,-0.05752428,28.02,26.88,33.0
1554103379267,-6.114791,-7.614160000000001,-0.091578215,0.19707392,0.16192019,-0.05752428,28.02,26.88,33.06
1554103379288,-6.2057709999999995,-7.4896617,0.16220717,0.20985709,0.1587244,-0.06391586,28.02,27.0,33.18
1554103379308,-6.2632318,-7.441777,0.16220717,0.2034655,0.15339808,-0.07456851,27.96,27.06,33.24
1554103379328,-6.2823853,-7.4992385,0.0712275,0.18535602,0.13954964,-0.07669904,27.9,27.12,33.3
1554103379348,-6.2584434,-7.422623599999999,-0.048482585999999994,0.15233281,0.12570119999999999,-0.07137272,27.84,27.24,33.42
1554103379367,-6.2153480000000005,-7.441777,0.05207389,0.13954964,0.11611383,-0.07030745599999999,27.78,27.3,33.48
1554103379388,-6.229712999999999,-7.379528,-0.10115502,0.13635385,0.10226539,-0.07243799,27.66,27.42,33.54
1554103379407,-6.272808599999999,-7.3460092999999995,-0.09636662,0.13102753,0.08628642,-0.07137272,27.6,27.48,33.6
1554103379427,-6.3685765,-7.3364325,-0.12988544,0.094808534,0.06604639400000001,-0.06498113,27.54,27.6,33.72
1554103379447,-6.220136,-7.3603745,-0.28311434,0.039414786,0.037284255,-0.06391586,27.48,27.6,33.78
1554103379467,-6.2967505,-7.3843164,-0.05327099,-0.012783173500000002,0.012783173500000002,-0.060720075,27.42,27.66,33.9
1554103379489,-6.253655,-7.4274119999999995,-0.12988544,-0.043675844000000005,-0.010652645,-0.05539375,27.3,27.72,34.02
1554103379509,-6.2584434,-7.4322004,-0.25917232,-0.09161274,-0.033023197000000004,-0.056459017,27.24,27.84,34.08
1554103379528,-6.1530986,-7.5327573,-0.3597288,-0.11930962,-0.05219796,-0.05219796,27.18,27.9,34.2
1554103379548,-6.191406,-7.6045833,0.023343466,-0.113983296,-0.06711166,-0.03834952,27.12,27.96,34.26
1554103379568,-6.1483099999999995,-7.6524673,-0.0053869537,-0.09374327,-0.07669904,-0.029827405,27.06,28.02,34.38
1554103379587,-6.167464,-7.647678999999999,0.0041898529999999995,-0.10226539,-0.08628642,-0.022370555,27.06,28.08,34.5
1554103379608,-6.0956373,-7.7147164,0.032920275,-0.12996227,-0.09267801,-0.011717908999999999,27.0,28.14,34.56
1554103379627,-6.0908489999999995,-7.743447,0.13347675,-0.15126756,-0.09161274,0.002130529,27.0,28.2,34.5
1554103379648,-6.066907,-7.839214999999999,0.17657238,-0.13954964,-0.09054748,0.007456851,27.0,28.26,34.5
1554103379668,-6.023811299999999,-7.743447,0.19093758,-0.10439592,-0.080960095,0.017044231,27.0,28.2,34.5
1554103379687,-5.990292500000001,-7.719505000000001,0.19572599,-0.07776430000000001,-0.07243799,0.024501082,27.0,28.14,34.44
1554103379708,-5.947197,-7.7578119999999995,0.18136078,-0.068176925,-0.060720075,0.020240024,27.0,28.14,34.44
1554103379728,-5.971139,-7.705139599999999,-0.04369418,-0.068176925,-0.047936900000000005,0.017044231,26.94,28.08,34.44
1554103379747,-6.100425700000001,-7.829638,0.12389994,-0.07243799,-0.036218993,0.014913702,27.0,28.02,34.38
1554103379767,-6.1818290000000005,-7.882310400000001,0.032920275,-0.06498113,-0.02876214,0.014913702,27.0,27.96,34.26
1554103379788,-6.172251999999999,-7.891887,0.076015905,-0.04580637,-0.025566347000000003,0.03834952,27.06,27.9,34.14
1554103379808,-6.301539,-7.877522,-0.048482585999999994,-0.024501082,-0.024501082,0.08841695,27.06,27.84,34.02
1554103379828,-6.325481,-7.767389,-0.12030864,-0.017044231,-0.018109497,0.14168017,27.12,27.78,33.9
1554103379848,-6.4643445,-7.911041,-0.014963761,-0.018109497,-0.012783173500000002,0.17789917,27.18,27.78,33.78
1554103379867,-6.593631299999999,-7.9541364,-0.11552023,-0.036218993,-0.013848438000000001,0.24074976,27.3,27.72,33.66
1554103379887,-6.646304,-7.839214999999999,-0.31663316,-0.041545313,-0.02876214,0.3153183,27.36,27.72,33.6
1554103379907,-6.646304,-7.705139599999999,-0.16819267,-0.026631612000000002,-0.040480047000000005,0.38136467,27.42,27.6,33.54
1554103379928,-6.7277070000000005,-7.561487700000001,0.10474633,-0.0063915867,-0.05539375,0.4282363,27.48,27.42,33.54
1554103379948,-6.742072,-7.475296000000001,-0.077213004,0.02130529,-0.07243799,0.45699844,27.48,27.18,33.6
1554103379969,-6.837839999999999,-7.307702000000001,0.0041898529999999995,0.037284255,-0.08735169,0.4825648,27.54,26.94,33.6
1554103379988,-6.828263300000001,-7.1688385,0.109534726,0.046871635999999994,-0.10439592,0.49960902,27.6,26.52,33.6
1554103380008,-6.847417,-6.962936999999999,0.09516951400000001,0.053263225,-0.12783173,0.50600064,27.6,26.16,33.66
1554103380028,-7.019799000000001,-6.9150529999999995,0.21487960000000003,0.02876214,-0.14168017,0.5091964,27.6,25.74,33.66
1554103380047,-7.1969705,-6.9485717000000005,0.28191724,0.026631612000000002,-0.17150758,0.50387007,27.6,25.26,33.6
1554103380068,-7.125144500000001,-6.929417999999999,0.22924481,0.029827405,-0.19068234,0.5209143,27.6,24.84,33.6
1554103380087,-7.374141000000001,-6.9198413,0.15263036,-0.0053263223,-0.2034655,0.54648066,27.6,24.42,33.48
1554103380108,-7.627927000000001,-6.8671690000000005,0.037708677,-0.023435817999999997,-0.23542345,0.57311225,27.54,23.7,33.3
1554103380127,-7.690175999999999,-6.8623804999999996,0.10474633,-0.025566347000000003,-0.26525086,0.6317018,27.54,23.22,33.24
1554103380147,-7.714117999999999,-6.8767457,0.17657238,-0.039414786,-0.29294774,0.70200926,27.54,22.56,33.12
1554103380168,-7.8290396,-6.656479400000001,0.24361002,-0.047936900000000005,-0.31851408,0.7435546,27.54,21.72,33.0
1554103380187,-7.8386164,-6.464943,0.17657238,-0.018109497,-0.3536678,0.7765778,27.6,20.88,32.88
1554103380207,-7.848192999999999,-6.321291,0.31543607,0.036218993,-0.39521313,0.813862,27.66,19.98,32.7
1554103380228,-7.833828,-6.091448000000001,0.24839842,0.09374327,-0.4133226,0.8426242,27.72,19.02,32.46
1554103380247,-7.953538000000001,-5.899911400000001,0.44472298,0.12676647,-0.41971418,0.85966843,27.78,18.0,32.28
1554103380267,-8.101977999999999,-5.7945666,0.43514615,0.12570119999999999,-0.44421527,0.8681905000000001,27.9,17.1,32.1
1554103380288,-8.250419,-5.727529,0.7128736,0.09587380000000001,-0.4857606,0.89162636,27.96,16.26,31.86
1554103380307,-8.269572,-5.6365495,0.6841431,0.07456851,-0.51665324,0.92997587,28.08,15.6,31.56
1554103380327,-8.327033,-5.468955,0.85652566,0.07882957,-0.5230448000000001,0.96299905,28.2,15.12,31.26
1554103380348,-8.389283,-5.1624975,0.9379284999999999,0.08522116,-0.5209143,0.9779128,28.38,14.64,30.9
1554103380368,-8.336611,-4.8656163,1.1821371,0.08948222,-0.51665324,0.98430437,28.5,14.1,30.6
1554103380387,-8.317456,-4.7698483,1.311424,0.111852765,-0.49321744,0.9864349,28.62,13.5,30.24
1554103380408,-8.37013,-4.5256395,1.3257892,0.16298546,-0.45060685,0.97258645,28.68,12.9,29.88
1554103380438,-8.279149,-4.3963529999999995,1.6083049999999999,0.19920446,-0.42290998,0.9534117,28.74,12.54,29.7
1554103380448,-8.054094000000001,-3.8600516000000002,1.5747862,0.25992453,-0.34940675,0.90973586,28.86,11.4,29.16
1554103380467,-8.317456,-3.6445735,1.6274586000000002,0.257794,-0.28016454,0.86179894,28.92,10.56,28.74
1554103380487,-8.384495,-3.4865562999999993,1.632247,0.21198763,-0.22690132,0.8085357,28.92,9.54,28.44
1554103380508,-8.250419,-3.2662897,1.5556326,0.17363810000000002,-0.18855181,0.7595335999999999,28.92,8.7,28.14
1554103380528,-8.331821000000001,-3.232771,1.4311341,0.15020229,-0.13315806,0.6870956,28.92,7.92,27.84
1554103380547,-8.441956,-3.2136172999999997,1.6801311,0.128897,-0.09054748,0.61678815,28.92,7.26,27.66
1554103380567,-8.504205,-3.1226375,1.4981716999999999,0.099069595,-0.060720075,0.5613944000000001,28.8,6.6,27.42
1554103380588,-8.504205,-3.2184057,1.6657659,0.068176925,-0.034088463,0.5049353,28.74,6.0,27.24
1554103380608,-8.623915,-3.1848867000000003,1.4742297,0.05219796,-0.020240024,0.47617322,28.68,5.46,27.12
1554103380628,-8.671799,-3.328539,1.5747862,0.06498113,-0.020240024,0.4261058,28.56,4.98,27.0
1554103380647,-8.619126,-3.2423477000000003,1.5221136999999998,0.07882957,-0.024501082,0.406931,28.44,4.5,26.94
1554103380667,-8.470686,-3.1657330000000004,1.6705543,0.056459017,-0.02876214,0.386691,28.32,4.02,26.82
1554103380687,-8.446744,-3.031658,1.6609775000000002,0.013848438000000001,-0.03195793,0.36218992,28.14,3.54,26.7
1554103380707,-8.552089,-2.9837740000000004,1.6514006,-0.017044231,-0.035153727999999995,0.3334278,28.02,3.12,26.64
1554103380727,-8.571242,-2.8592752999999997,1.9003976999999999,0.0053263223,-0.039414786,0.28229508,27.9,2.7,26.58
1554103380747,-8.566454,-2.806603,1.8716671000000003,0.07989483,-0.034088463,0.19387813,27.84,2.34,26.52
1554103380767,-8.791509,-2.6390088,1.8908207,0.128897,-0.03089267,0.11824436,27.78,1.98,26.52
1554103380788,-8.987833,-2.4235306,2.0009542000000002,0.12996227,-0.008522116,0.08628642,27.66,1.62,26.4
1554103380807,-9.169792,-2.4235306,1.9913772,0.101200126,-0.011717908999999999,0.06711166,27.6,1.32,26.28
1554103380828,-9.260772,-2.2942438,1.9961656000000003,0.07669904,-0.014913702,0.03834952,27.6,1.08,26.22
1554103380848,-9.557653,-2.4187422,2.1254525,0.06178534,-0.010652645,0.01917476,27.54,0.78,26.1
1554103380868,-9.639056,-2.2750902,2.130241,0.07243799,-0.012783173500000002,0.027696876000000002,27.48,0.54,26.04
1554103380888,-9.595961,-2.3517046,1.9913772,0.12357068,-0.017044231,0.05965481,27.48,0.3,25.98
1554103380908,-9.543288,-2.3373394,1.9339164,0.1587244,-0.024501082,0.09374327,27.42,0.0,25.98
1554103380930,-9.461885,-2.3756466,1.929128,0.18748654,-0.03089267,0.12250541,27.42,-0.18,25.92
1554103380947,-9.370906,-2.3038206000000003,1.9243397,0.18429075,-0.027696876000000002,0.17150758,27.42,-0.3,25.98
1554103380968,-9.141062,-2.4091654,1.6753427,0.1768339,-0.01917476,0.21624869,27.42,-0.3,26.04
1554103380987,-8.959103,-2.3373394,1.8956091,0.18109496,-0.0063915867,0.22264028,27.42,-0.36,26.1
1554103381007,-9.016563,-2.2942438,1.7375918999999997,0.21198763,0.011717908999999999,0.21092236,27.42,-0.42,26.16
1554103381028,-9.069236,-2.2176294,1.9147629000000002,0.24927188,0.027696876000000002,0.19600865,27.42,-0.42,26.22
1554103381048,-8.887277000000001,-2.179322,1.6657659,0.2428803,0.03834952,0.16192019,27.36,-0.48,26.28
1554103381068,-9.02614,-2.0500352,1.9147629000000002,0.20559604,0.054328485999999995,0.14061491,27.36,-0.48,26.28
1554103381088,-8.978256,-2.0308816000000003,1.9482816000000003,0.17789917,0.060720075,0.10439592,27.24,-0.54,26.34
1554103381108,-8.911219000000001,-1.9877859,2.0009542000000002,0.18216023,0.06498113,0.084155895,27.24,-0.6,26.34
1554103381128,-9.212888000000001,-1.9351135,1.9434932,0.18322548,0.07776430000000001,0.04580637,27.18,-0.66,26.34
1554103381148,-9.404425,-1.8441339,2.0248961,0.16085494,0.07030745599999999,0.002130529,27.06,-0.72,26.34
1554103381167,-9.332599,-1.7004818,2.0679917000000003,0.14913702,0.054328485999999995,-0.011717908999999999,27.0,-0.84,26.34
1554103381189,-9.56723,-1.9015948,1.6944963,0.18855181,0.036218993,-0.035153727999999995,26.88,-0.96,26.34
1554103381208,-9.65821,-1.834557,1.9339164,0.16724652,0.018109497,-0.00958738,26.76,-1.02,26.4
1554103381228,-9.619903,-1.834557,1.9961656000000003,0.12463594,-0.002130529,0.024501082,26.7,-1.02,26.46
1554103381248,-9.500193,-1.8680758000000002,1.9674352,0.1107875,-0.026631612000000002,0.041545313,26.64,-1.08,26.52
1554103381268,-9.519346,-1.8920178,1.8046296000000002,0.12250541,-0.034088463,0.060720075,26.58,-1.08,26.58
1554103381288,-9.437942999999999,-1.8920178,1.9482816000000003,0.14807177,-0.046871635999999994,0.09054748,26.52,-1.08,26.7
1554103381308,-9.260772,-1.8154035,2.0727801,0.18855181,-0.05219796,0.09267801,26.46,-1.08,26.82
1554103381328,-9.088389,-1.6717514,1.9243397,0.23648871,-0.04261058,0.06924219,26.4,-1.08,26.94
1554103381348,-9.241617999999999,-1.5903485000000002,1.8142063999999998,0.18642128,-0.037284255,0.083090626,26.4,-1.08,27.06
1554103381368,-9.260772,-1.7675193999999999,1.8764555,0.08948222,-0.03089267,0.12037488,26.34,-1.08,27.12
1554103381388,-9.294291000000001,-1.8537107,1.8956091,0.096939065,-0.034088463,0.10546118,26.34,-1.08,27.3
1554103381407,-9.179369,-1.6525976999999998,1.9913772,0.17789917,-0.027696876000000002,0.06711166,26.34,-1.08,27.42
1554103381428,-9.174581,-1.6334441000000002,2.1733365,0.2609898,-0.007456851,0.03089267,26.28,-1.08,27.48
1554103381448,-9.141062,-1.4562732,2.2164322999999997,0.26631612,0.008522116,0.010652645,26.28,-1.14,27.6
1554103381468,-9.198523,-1.4610616,2.2212207000000004,0.18855181,0.027696876000000002,0.0010652645,26.22,-1.14,27.66
1554103381489,-9.308656,-1.7818846999999998,2.1493945,0.12037488,0.04580637,-0.00958738,26.16,-1.14,27.72
1554103381508,-9.126697,-1.7531542000000002,2.168548,0.14594123,0.033023197000000004,-0.022370555,26.16,-1.2,27.78
1554103381527,-9.246407000000001,-1.834557,2.2691047,0.21518342,0.034088463,-0.039414786,26.16,-1.2,27.84
1554103381547,-9.203311,-1.762731,2.3169887000000005,0.32384038,0.029827405,-0.054328485999999995,26.16,-1.2,27.84
1554103381568,-9.217675999999999,-1.8537107,2.1924900000000003,0.4250405,0.040480047000000005,-0.05965481,26.16,-1.2,27.84
1554103381587,-9.3182335,-1.6813281999999998,2.130241,0.44421527,0.05539375,-0.06604639400000001,26.16,-1.14,27.84
1554103381608,-9.212888000000001,-1.5759833,2.1972785,0.45593318,0.06498113,-0.06604639400000001,26.22,-1.14,27.84
1554103381628,-9.299078999999999,-1.5568296999999998,2.154183,0.44741106,0.07243799,-0.06711166,26.22,-1.08,27.9
1554103381648,-9.390058999999999,-1.489792,2.0344729999999998,0.41758367,0.07456851,-0.06711166,26.28,-0.96,27.96
1554103381668,-9.457097000000001,-1.4993688,1.7615339,0.39308259999999995,0.07350325,-0.05965481,26.34,-0.9,28.08
1554103381690,-9.394848,-1.3126211,1.6226702,0.3685815,0.041545313,-0.046871635999999994,26.34,-0.66,28.26
1554103381708,-9.351752000000001,-1.1641805,1.7854759999999998,0.3717773,0.012783173500000002,-0.05006743,26.34,-0.54,28.32
1554103381727,-9.519346,-1.1067197,1.6274586000000002,0.38242993,-0.0053263223,-0.06711166,26.34,-0.36,28.5
1554103381748,-9.629479,-0.98222125,1.5508442,0.3653857,-0.02876214,-0.09054748,26.28,-0.06,28.62
1554103381767,-9.504980999999999,-0.99658644,1.4215573000000001,0.27696875,-0.05539375,-0.10226539,26.22,0.24,28.8
1554103381789,-9.351752000000001,-0.99658644,1.5173253,0.16618125,-0.07456851,-0.09374327,26.16,0.54,28.92
1554103381807,-9.385271000000001,-1.1258733,1.5939398,0.07989483,-0.09374327,-0.09054748,26.1,0.9,29.1
1554103381827,-9.227253,-1.2072762,1.7328035,0.036218993,-0.10333065,-0.094808534,25.98,1.32,29.22
1554103381848,-9.23683,-1.3269863000000002,1.9818004,0.0010652645,-0.080960095,-0.08628642,25.92,1.62,29.4
1554103381869,-9.279925,-1.1785458,1.9674352,0.01917476,-0.054328485999999995,-0.07350325,25.8,2.04,29.52
1554103381888,-9.260772,-1.2216414,1.9003976999999999,0.054328485999999995,-0.043675844000000005,-0.080960095,25.8,2.16,29.58
1554103381908,-9.519346,-1.2838906,1.8908207,0.068176925,-0.018109497,-0.08735169,25.74,2.46,29.64
1554103381928,-9.495403999999999,-1.2360066,1.8956091,-0.0063915867,-0.008522116,-0.06924219,25.74,2.52,29.64
1554103381947,-9.509769,-1.2264298,2.0488381,-0.10439592,0.0053263223,-0.054328485999999995,25.74,2.64,29.64
1554103381968,-9.433155000000001,-1.2503718000000001,2.1972785,-0.098004326,-0.002130529,-0.06711166,25.74,2.64,29.64
1554103381987,-9.323022,-1.4323312,2.3744495,-0.03195793,0.014913702,-0.07563378,25.86,2.7,29.58
1554103382008,-9.356541,-1.441908,2.1924900000000003,0.007456851,0.036218993,-0.06711166,26.04,2.64,29.52
1554103382027,-9.208099,-1.3461398999999998,2.3361422999999997,0.02130529,0.039414786,-0.07563378,26.1,2.64,29.52
1554103382048,-9.346964,-1.3605051000000001,2.4797945,0.06391586,0.06604639400000001,-0.09267801,26.22,2.7,29.4
1554103382068,-9.648633,-1.3605051000000001,2.1924900000000003,0.03089267,0.08522116,-0.07669904,26.28,2.7,29.46
1554103382088,-9.653421,-1.6669630000000002,1.8956091,-0.07456851,0.07137272,-0.024501082,26.34,2.7,29.52
1554103382108,-9.519346,-1.9925743000000002,2.0344729999999998,-0.11824436,0.07350325,0.033023197000000004,26.4,2.76,29.58
1554103382128,-9.303867,-2.0644004000000002,2.1350293,-0.0053263223,0.06498113,0.07243799,26.4,2.76,29.58
1554103382148,-9.303867,-1.7435773999999997,2.1015105,0.165116,0.07776430000000001,0.07350325,26.34,2.82,29.64
1554103382168,-9.255983,-1.3269863000000002,2.2164322999999997,0.23648871,0.068176925,0.06178534,26.28,2.82,29.7
1554103382188,-9.327810000000001,-1.2551602,1.8716671000000003,0.20879184,0.049002163,0.06498113,26.22,2.82,29.7
1554103382208,-9.313444,-1.1785458,1.9913772,0.11824436,0.036218993,0.06285059999999999,26.16,2.76,29.76
1554103382228,-9.476251,-1.192911,1.7615339,0.01917476,0.01917476,0.054328485999999995,26.16,2.7,29.82
1554103382247,-9.323022,-1.264737,1.9243397,-0.07456851,-0.0053263223,0.05752428,26.1,2.7,29.88
1554103382268,-9.332599,-1.2551602,2.0871453,-0.101200126,-0.02130529,0.034088463,26.04,2.64,29.88
1554103382288,-9.275136999999999,-1.3126211,1.977012,-0.049002163,-0.02876214,-0.011717908999999999,25.98,2.58,29.94
1554103382307,-9.284714,-1.2791021999999999,1.9387047999999998,-0.014913702,-0.036218993,-0.05539375,25.92,2.52,30.0
1554103382328,-9.212888000000001,-1.3940238999999999,1.8142063999999998,-0.058589544,-0.051132694000000006,-0.03834952,25.86,2.46,30.06
1554103382348,-9.222465,-1.3269863000000002,2.0775685,-0.113983296,-0.060720075,-0.022370555,25.8,2.46,30.12
1554103382367,-9.313444,-1.4802152,2.2164322999999997,-0.05006743,-0.06604639400000001,-0.068176925,25.8,2.4,30.18
1554103382389,-9.217675999999999,-1.3940238999999999,2.235586,0.007456851,-0.056459017,-0.07669904,25.8,2.34,30.18
1554103382408,-9.26556,-1.2838906,2.144606,0.06924219,-0.029827405,-0.101200126,25.8,2.34,30.18
1554103382428,-9.394848,-1.2216414,1.9961656000000003,0.047936900000000005,-0.024501082,-0.10439592,25.8,2.28,30.12
1554103382448,-9.466674000000001,-1.4131776000000003,2.0488381,-0.033023197000000004,-0.034088463,-0.07350325,25.8,2.28,30.06
1554103382468,-9.457097000000001,-1.4036007,2.1206641,-0.05219796,-0.03834952,-0.05219796,25.8,2.22,30.0
1554103382487,-9.385271000000001,-1.3940238999999999,2.2547395,0.012783173500000002,-0.041545313,-0.058589544,25.8,2.22,29.94
1554103382508,-9.41879,-1.192911,2.0009542000000002,0.053263225,-0.041545313,-0.06711166,25.8,2.22,29.88
1554103382528,-9.500193,-1.1689690000000001,2.1015105,0.026631612000000002,-0.035153727999999995,-0.06498113,25.74,2.22,29.82
1554103382548,-9.476251,-1.1689690000000001,1.9482816000000003,-0.02876214,-0.033023197000000004,-0.06178534,25.74,2.22,29.82
1554103382568,-9.5385,-1.2216414,1.7711107,-0.058589544,-0.036218993,-0.051132694000000006,25.74,2.22,29.82
1554103382588,-9.605537,-1.2934675,2.321777,-0.037284255,-0.018109497,-0.02876214,25.74,2.22,29.82
1554103382608,-9.217675999999999,-1.264737,2.130241,-0.018109497,-0.033023197000000004,-0.011717908999999999,25.74,2.28,29.88
1554103382628,-9.150639,-1.2743138,2.1398177000000005,-0.004261058,0.010652645,-0.007456851,25.74,2.28,29.88
1554103382647,-9.217675999999999,-1.264737,2.0632033,0.025566347000000003,0.03834952,-0.011717908999999999,25.8,2.34,29.94
1554103382667,-9.255983,-1.2838906,2.0919337,0.058589544,0.03834952,-0.025566347000000003,25.8,2.34,30.0
1554103382689,-9.452309,-1.2120646000000002,1.8333599999999999,0.020240024,0.034088463,-0.041545313,25.86,2.34,30.0
1554103382708,-9.471461999999999,-1.2312181999999998,1.9482816000000003,-0.051132694000000006,0.002130529,-0.043675844000000005,25.86,2.34,30.0
1554103382727,-9.370906,-1.3317747,1.9626468000000001,-0.10652645,-0.008522116,-0.036218993,25.92,2.34,30.0
1554103382748,-9.380483,-1.3221979,1.9913772,-0.12037488,-0.004261058,-0.029827405,25.98,2.34,30.0
1554103382768,-9.490616000000001,-1.4610616,2.2068555,-0.11611383,0.002130529,-0.02876214,26.04,2.34,29.94
1554103382791,-9.208099,-1.4323312,2.1972785,-0.09267801,-0.0053263223,-0.026631612000000002,26.04,2.34,29.94
1554103382807,-9.179369,-1.4562732,2.1254525,-0.06285059999999999,-0.004261058,-0.036218993,26.04,2.34,29.94
1554103382827,-9.246407000000001,-1.3988123,2.1637597,-0.04261058,-0.004261058,-0.04580637,26.04,2.4,29.94
1554103382848,-9.437942999999999,-1.441908,1.9865887999999998,-0.049002163,-0.007456851,-0.053263225,26.04,2.4,29.94
1554103382868,-9.5385,-1.4083891000000002,2.331354,-0.056459017,-0.004261058,-0.06285059999999999,26.1,2.46,29.94
1554103382890,-9.390058999999999,-1.4610616,2.0440497,-0.047936900000000005,-0.025566347000000003,-0.06178534,26.1,2.46,29.94
1554103382907,-9.327810000000001,-1.5185224,2.2260091,-0.033023197000000004,-0.018109497,-0.056459017,26.04,2.52,29.94
1554103382928,-9.308656,-1.3605051000000001,2.2260091,-0.01917476,-0.007456851,-0.041545313,26.04,2.52,29.94
1554103382948,-9.394848,-1.5520413,2.178125,0.011717908999999999,0.002130529,-0.03834952,25.98,2.52,29.94
1554103382968,-9.485827,-1.4227544,1.881244,0.023435817999999997,-0.007456851,-0.04261058,25.98,2.52,29.94
1554103382988,-9.332599,-1.441908,2.2451627,0.013848438000000001,-0.00958738,-0.039414786,25.98,2.46,29.94
1554103383008,-9.380483,-1.4131776000000003,2.168548,0.017044231,0.0053263223,-0.034088463,25.98,2.46,29.94
1554103383027,-9.308656,-1.4227544,2.178125,0.036218993,0.008522116,-0.037284255,25.98,2.4,29.94
1554103383048,-9.437942999999999,-1.3652935,2.1733365,0.027696876000000002,-0.0053263223,-0.05219796,25.98,2.46,29.88
1554103383068,-9.327810000000001,-1.4323312,1.8189948,0.00958738,-0.023435817999999997,-0.06711166,25.92,2.4,29.88
1554103383087,-9.303867,-1.5233108,2.0248961,-0.018109497,-0.026631612000000002,-0.06604639400000001,25.92,2.4,29.88
1554103383107,-9.313444,-1.5185224,2.1254525,-0.023435817999999997,-0.029827405,-0.05539375,25.92,2.4,29.88
1554103383128,-9.452309,-1.4131776000000003,2.1350293,0.015978966,-0.00958738,-0.04474111,25.86,2.4,29.88
1554103383148,-9.461885,-1.3509283,2.1110873,0.04261058,-0.0063915867,-0.041545313,25.86,2.4,29.82
1554103383167,-9.3421755,-1.3413515,1.9434932,0.02130529,-0.0010652645,-0.035153727999999995,25.8,2.4,29.82
1554103383187,-9.246407000000001,-1.3221979,2.168548,0.0,0.008522116,-0.034088463,25.74,2.4,29.82
1554103383208,-9.375694000000001,-1.3557166999999999,2.0009542000000002,-0.017044231,0.012783173500000002,-0.039414786,25.74,2.4,29.76
1554103383227,-9.41879,-1.3509283,2.0727801,-0.027696876000000002,0.010652645,-0.041545313,25.74,2.4,29.76
1554103383247,-9.380483,-1.3317747,2.0871453,-0.027696876000000002,-0.002130529,-0.033023197000000004,25.74,2.4,29.76
1554103383268,-9.227253,-1.5759833,2.2643162999999995,-0.033023197000000004,-0.012783173500000002,-0.015978966,25.74,2.46,29.7
1554103383288,-9.260772,-1.46585,2.0296845,-0.025566347000000003,-0.008522116,-0.020240024,25.74,2.52,29.64
1554103383307,-9.433155000000001,-1.4371196000000002,2.1158757,0.0010652645,-0.012783173500000002,-0.035153727999999995,25.8,2.58,29.64
1554103383328,-9.404425,-1.3317747,2.0440497,0.007456851,-0.023435817999999997,-0.046871635999999994,25.92,2.58,29.64
1554103383348,-9.442732000000001,-1.417966,2.0296845,-0.034088463,-0.033023197000000004,-0.043675844000000005,26.04,2.64,29.64
1554103383368,-9.380483,-1.5664065,2.0536265,-0.07030745599999999,-0.03089267,-0.026631612000000002,26.16,2.64,29.7
1554103383388,-9.299078999999999,-1.5185224,2.0632033,-0.035153727999999995,-0.024501082,-0.025566347000000003,26.28,2.7,29.76
1554103383409,-9.337387,-1.3126211,2.1924900000000003,0.01917476,-0.013848438000000001,-0.046871635999999994,26.34,2.7,29.82
1554103383428,-9.26556,-1.2743138,2.082357,0.002130529,-0.00958738,-0.056459017,26.46,2.7,29.88
1554103383448,-9.361329,-1.3557166999999999,1.9722236000000002,-0.06178534,-0.002130529,-0.047936900000000005,26.46,2.7,29.94
1554103383468,-9.332599,-1.6190788999999999,2.2547395,-0.08628642,-0.002130529,-0.041545313,26.46,2.7,29.94
1554103383487,-9.356541,-1.6382325,2.1733365,-0.06498113,0.004261058,-0.035153727999999995,26.4,2.7,29.94
1554103383508,-9.275136999999999,-1.5089456,2.202067,-0.024501082,0.0063915867,-0.01917476,26.34,2.64,29.88
1554103383529,-9.346964,-1.4802152,2.1829132999999996,0.0031957934000000003,0.013848438000000001,-0.012783173500000002,26.34,2.64,29.82
1554103383548,-9.504980999999999,-1.4227544,2.0248961,0.02130529,0.004261058,-0.01917476,26.28,2.52,29.76
1554103383567,-9.375694000000001,-1.3844471,1.8956091,0.040480047000000005,-0.017044231,-0.033023197000000004,26.22,2.4,29.7
1554103383587,-9.308656,-1.3652935,2.144606,0.017044231,-0.035153727999999995,-0.039414786,26.22,2.28,29.64
1554103383608,-9.294291000000001,-1.3940238999999999,2.235586,-0.041545313,-0.034088463,-0.033023197000000004,26.22,2.16,29.58
1554103383628,-9.255983,-1.4514848,2.235586,-0.06924219,-0.02876214,-0.026631612000000002,26.22,2.04,29.52
1554103383647,-9.380483,-1.46585,2.0344729999999998,-0.037284255,-0.020240024,-0.037284255,26.16,1.98,29.52
1554103383668,-9.452309,-1.3892354999999998,2.0296845,0.011717908999999999,-0.02876214,-0.05539375,26.16,1.86,29.52
1554103383689,-9.394848,-1.417966,1.9434932,0.002130529,-0.033023197000000004,-0.043675844000000005,26.1,1.8,29.52
1554103383709,-9.3182335,-1.3605051000000001,2.2212207000000004,-0.013848438000000001,-0.022370555,-0.060720075,26.04,1.74,29.52
1554103383729,-9.121908,-1.3461398999999998,2.235586,-0.04261058,-0.0053263223,-0.07776430000000001,26.04,1.74,29.52
1554103383748,-9.284714,-1.4514848,1.9865887999999998,-0.041545313,0.015978966,-0.07456851,26.04,1.74,29.52
1554103383768,-9.198523,-1.5089456,1.9578583999999999,-0.058589544,0.0010652645,-0.068176925,26.04,1.8,29.52
1554103383788,-9.255983,-1.6095021,2.0153193,-0.06391586,-0.018109497,-0.07669904,26.04,1.86,29.52
1554103383808,-9.050082000000002,-1.6956933999999997,2.2260091,-0.03195793,-0.02876214,-0.10546118,26.1,1.86,29.52
1554103383828,-9.030928999999999,-1.5328877,2.4271219,0.0031957934000000003,-0.024501082,-0.14061491,26.16,1.92,29.52
1554103383847,-9.26556,-1.4802152,2.0727801,-0.015978966,-0.002130529,-0.13528858,26.16,1.98,29.52
1554103383868,-9.409213000000001,-1.513734,2.0440497,-0.07563378,-0.008522116,-0.112918034,26.22,2.04,29.52
1554103383888,-9.586383999999999,-1.6190788999999999,2.1158757,-0.12463594,-0.02130529,-0.113983296,26.28,2.04,29.52
1554103383908,-9.744401,-1.6765398,2.2307975,-0.12676647,-0.03089267,-0.10865697,26.28,2.04,29.52
1554103383927,-9.619903,-1.7531542000000002,2.40318,-0.07456851,-0.029827405,-0.07243799,26.28,2.04,29.52
1554103383947,-9.3661175,-1.7004818,2.3361422999999997,-0.007456851,-0.0053263223,-0.03089267,26.28,1.98,29.46
1554103383969,-9.289502,-1.7244238,2.1158757,0.039414786,0.014913702,0.011717908999999999,26.28,1.92,29.46
1554103383988,-9.370906,-1.6956933999999997,1.9482816000000003,0.03195793,0.018109497,0.015978966,26.28,1.92,29.4
1554103384008,-9.399636,-1.5759833,2.2212207000000004,0.02130529,0.012783173500000002,0.012783173500000002,26.28,1.92,29.34
1554103384028,-9.299078999999999,-1.4945803999999998,2.235586,0.05752428,0.011717908999999999,0.008522116,26.28,1.92,29.28
1554103384048,-9.121908,-1.5855601000000001,2.2882583,0.10013486,0.022370555,0.0010652645,26.34,1.92,29.28
1554103384067,-9.093178,-1.441908,2.082357,0.13209279,0.04474111,-0.024501082,26.34,1.98,29.28
1554103384087,-9.217675999999999,-1.5233108,1.9674352,0.07137272,0.05539375,-0.04261058,26.28,2.04,29.28
1554103384108,-9.275136999999999,-1.5903485000000002,1.7950528000000001,0.014913702,0.04261058,-0.04580637,26.28,2.1,29.28
1554103384128,-9.222465,-1.6717514,1.929128,0.0,0.024501082,-0.053263225,26.22,2.22,29.34
1554103384148,-9.208099,-1.7435773999999997,1.9387047999999998,0.03089267,0.020240024,-0.06285059999999999,26.16,2.28,29.34
1554103384168,-9.308656,-1.6430208999999998,2.1924900000000003,0.083090626,0.01917476,-0.07989483,26.16,2.28,29.4
1554103384188,-9.414000999999999,-1.4227544,2.082357,0.06498113,0.014913702,-0.07563378,26.1,2.28,29.46
1554103384207,-9.490616000000001,-1.3844471,2.1829132999999996,-0.0010652645,0.012783173500000002,-0.06498113,26.04,2.28,29.46
1554103384227,-9.394848,-1.4706384,2.2164322999999997,-0.05752428,0.00958738,-0.05539375,25.98,2.34,29.4
1554103384247,-9.370906,-1.5711948999999998,2.2930467,-0.056459017,0.008522116,-0.05539375,25.92,2.34,29.4
1554103384268,-9.562441999999999,-1.6765398,2.1206641,-0.0010652645,0.007456851,-0.06391586,25.92,2.4,29.34
1554103384288,-9.409213000000001,-1.7100586,2.154183,0.03195793,-0.0053263223,-0.053263225,25.86,2.4,29.28
1554103384308,-9.323022,-1.5472529,2.0344729999999998,0.035153727999999995,-0.0063915867,-0.037284255,25.86,2.46,29.28
1554103384328,-9.246407000000001,-1.5472529,2.082357,0.037284255,-0.0010652645,-0.041545313,25.92,2.46,29.22
1554103384348,-9.222465,-1.5951369,1.9339164,0.020240024,-0.0031957934000000003,-0.037284255,25.92,2.46,29.22
1554103384368,-9.212888000000001,-1.6669630000000002,1.9626468000000001,-0.015978966,-0.0031957934000000003,-0.037284255,25.86,2.52,29.16
1554103384388,-9.136273,-1.5616181,2.0440497,-0.053263225,-0.004261058,-0.04580637,25.92,2.52,29.22
1554103384408,-9.107543,-1.6669630000000002,2.0201077,-0.06604639400000001,-0.002130529,-0.05219796,25.92,2.52,29.28
1554103384428,-9.112331,-1.6286557,2.178125,-0.07456851,0.010652645,-0.05539375,25.92,2.52,29.28
1554103384448,-9.299078999999999,-1.6382325,2.154183,-0.04261058,0.024501082,-0.082025364,25.92,2.46,29.34
1554103384468,-9.476251,-1.4706384,1.9961656000000003,-0.023435817999999997,0.026631612000000002,-0.10652645,25.92,2.46,29.46
1554103384488,-9.466674000000001,-1.5233108,2.0296845,-0.020240024,0.012783173500000002,-0.10759171,25.92,2.4,29.58
1554103384510,-9.41879,-1.7483658,1.9578583999999999,-0.037284255,0.004261058,-0.083090626,25.92,2.4,29.7
1554103384528,-9.41879,-1.8058267,2.0871453,-0.10333065,0.0031957934000000003,-0.040480047000000005,25.98,2.34,29.76
1554103384548,-9.495403999999999,-1.834557,2.0440497,-0.13315806,0.0053263223,-0.012783173500000002,25.98,2.34,29.76
1554103384568,-9.299078999999999,-1.9063831999999998,2.1158757,-0.07882957,-0.012783173500000002,-0.008522116,26.04,2.28,29.88
1554103384587,-9.327810000000001,-1.6621746,2.2260091,0.017044231,-0.00958738,0.0031957934000000003,26.1,2.28,29.88
1554103384607,-9.26556,-1.5568296999999998,2.235586,0.07243799,-0.004261058,0.008522116,26.16,2.22,29.82
1554103384628,-9.303867,-1.3126211,2.2499511,0.10333065,0.017044231,-0.033023197000000004,26.16,2.22,29.7
1554103384648,-9.356541,-1.2216414,2.082357,0.056459017,0.03195793,-0.068176925,26.16,2.22,29.64
1554103384668,-9.303867,-1.4514848,2.1972785,-0.0031957934000000003,0.035153727999999995,-0.08735169,26.16,2.22,29.52
1554103384688,-9.217675999999999,-1.5807717,2.0248961,-0.037284255,0.039414786,-0.10439592,26.1,2.22,29.46
1554103384709,-9.241617999999999,-1.6909049999999999,1.977012,-0.0063915867,0.039414786,-0.13528858,26.1,2.22,29.4
1554103384728,-9.208099,-1.7483658,1.8142063999999998,0.05539375,0.040480047000000005,-0.18109496,26.1,2.22,29.28
1554103384748,-9.241617999999999,-1.5759833,1.8477252,0.05539375,0.039414786,-0.2034655,26.04,2.28,29.22
1554103384768,-9.188946000000001,-1.7962499,1.8620903000000002,0.020240024,0.034088463,-0.21518342,26.04,2.28,29.22
1554103384788,-9.131485000000001,-1.7100586,1.857302,-0.034088463,0.039414786,-0.22796659,26.04,2.28,29.28
1554103384808,-9.232041,-1.8632874,1.9674352,-0.060720075,0.043675844000000005,-0.22477080000000002,26.1,2.34,29.4
1554103384828,-9.289502,-1.9207484000000001,1.809418,-0.07350325,0.035153727999999995,-0.19707392,26.1,2.46,29.46
1554103384847,-9.246407000000001,-1.8489223000000001,1.8668787,-0.040480047000000005,0.03089267,-0.19387813,26.1,2.58,29.52
1554103384867,-9.41879,-1.8968061999999999,1.9818004,0.0063915867,0.025566347000000003,-0.19813919,26.1,2.7,29.52
1554103384887,-9.399636,-1.8584990000000001,1.8477252,-0.012783173500000002,0.022370555,-0.17576863,26.16,2.88,29.58
1554103384907,-9.361329,-1.8010383,1.929128,-0.06285059999999999,0.020240024,-0.15126756,26.16,3.06,29.64
1554103384928,-9.370906,-2.0069396,1.8046296000000002,-0.096939065,0.017044231,-0.13741912,26.22,3.3,29.7
1554103384947,-9.390058999999999,-2.059612,1.7280151000000001,-0.101200126,0.007456851,-0.13315806,26.28,3.48,29.7
1554103384967,-9.356541,-1.9925743000000002,1.9147629000000002,-0.06285059999999999,0.010652645,-0.13528858,26.28,3.6,29.7
1554103384987,-9.222465,-1.9686323000000001,1.9195513,-0.037284255,0.015978966,-0.13528858,26.28,3.66,29.76
1554103385009,-9.227253,-2.0165164,2.0871453,-0.012783173500000002,0.033023197000000004,-0.14168017,26.28,3.72,29.82
1554103385027,-9.222465,-1.9111716,1.7663223000000001,0.0010652645,0.039414786,-0.14807177,26.28,3.78,29.88
1554103385047,-9.179369,-1.9159599999999999,1.7806876,-0.022370555,0.040480047000000005,-0.1587244,26.22,3.78,29.94
1554103385067,-9.188946000000001,-2.059612,1.9243397,-0.06285059999999999,0.041545313,-0.18002969,26.16,3.72,29.94
1554103385088,-9.102755,-2.1984756,1.7423803,-0.09161274,0.03195793,-0.1949434,26.1,3.78,30.0
1554103385109,-9.11712,-2.3900118,1.9147629000000002,-0.10865697,0.033023197000000004,-0.19068234,26.04,3.78,30.0
1554103385128,-9.121908,-2.4666264,1.857302,-0.111852765,0.027696876000000002,-0.18535602,25.98,3.84,30.0
1554103385148,-9.14585,-2.6533740000000003,1.7902644,-0.12144015,0.029827405,-0.165116,25.98,3.9,30.0
1554103385168,-9.179369,-2.6916811000000003,1.8668787,-0.128897,0.036218993,-0.13635385,25.98,4.02,30.0
1554103385187,-9.270349000000001,-2.7347770000000002,1.8908207,-0.094808534,0.04580637,-0.12144015,26.04,4.08,30.0
1554103385208,-9.174581,-2.710835,1.9482816000000003,-0.06391586,0.046871635999999994,-0.11504856,26.1,4.14,30.0
1554103385228,-9.303867,-2.5623944,1.9339164,-0.033023197000000004,0.05965481,-0.10226539,26.22,4.32,30.0
1554103385248,-9.351752000000001,-2.5240872000000003,1.9434932,-0.008522116,0.068176925,-0.09054748,26.34,4.44,29.94
1554103385268,-9.346964,-2.5432408,1.929128,0.01917476,0.068176925,-0.07456851,26.34,4.44,29.94
1554103385287,-9.303867,-2.4666264,1.809418,0.043675844000000005,0.06924219,-0.07137272,26.4,4.56,29.88
1554103385309,-9.327810000000001,-2.404377,1.881244,0.047936900000000005,0.06498113,-0.05965481,26.46,4.56,29.88
1554103385327,-9.26556,-2.260725,1.7902644,0.043675844000000005,0.06391586,-0.037284255,26.46,4.56,29.88
1554103385347,-9.188946000000001,-2.2224178,1.8908207,0.041545313,0.058589544,-0.02876214,26.46,4.56,29.88
1554103385367,-9.227253,-2.3038206000000003,1.7280151000000001,0.035153727999999995,0.054328485999999995,-0.05219796,26.46,4.56,29.82
1554103385389,-9.447519999999999,-2.2942438,1.5699978,0.02130529,0.051132694000000006,-0.07882957,26.4,4.56,29.82
1554103385408,-9.428367,-2.3277626000000002,1.7088615000000003,0.018109497,0.043675844000000005,-0.07776430000000001,26.4,4.56,29.82
1554103385428,-9.356541,-2.2176294,1.6083049999999999,0.008522116,0.037284255,-0.06498113,26.4,4.56,29.88
1554103385447,-9.203311,-2.4570496,1.6083049999999999,-0.020240024,0.03195793,-0.05752428,26.4,4.62,29.88
1554103385469,-9.370906,-2.4235306,1.4215573000000001,-0.056459017,0.035153727999999995,-0.04580637,26.4,4.68,29.94
1554103385488,-9.3661175,-2.4714148,1.4981716999999999,-0.05219796,0.020240024,-0.023435817999999997,26.34,4.74,29.94
1554103385507,-9.332599,-2.4570496,1.3976152,-0.03089267,0.018109497,-0.0063915867,26.34,4.8,29.94
1554103385528,-9.3661175,-2.3373394,1.4885948999999998,0.00958738,0.017044231,-0.002130529,26.34,4.86,29.94
1554103385548,-9.433155000000001,-2.3038206000000003,1.5747862,0.017044231,0.00958738,0.008522116,26.34,4.98,30.0
1554103385567,-9.351752000000001,-2.2176294,1.5508442,-0.004261058,0.002130529,0.011717908999999999,26.34,5.04,30.0
1554103385587,-9.346964,-2.131438,1.5604209999999998,-0.034088463,-0.004261058,0.0031957934000000003,26.34,5.04,30.0
1554103385607,-9.169792,-2.2176294,1.6226702,-0.058589544,-0.0063915867,-0.007456851,26.34,5.04,30.06
1554103385628,-9.227253,-2.179322,1.809418,-0.04474111,0.0031957934000000003,-0.036218993,26.34,5.04,30.12
1554103385648,-9.193734,-2.1266496,1.7375918999999997,-0.027696876000000002,0.004261058,-0.05539375,26.34,4.98,30.18
1554103385668,-9.198523,-2.1505916000000003,1.8860323,-0.020240024,0.013848438000000001,-0.07350325,26.34,4.92,30.24
1554103385687,-9.303867,-2.236783,1.6801311,-0.023435817999999997,0.020240024,-0.08735169,26.4,4.86,30.3
1554103385708,-9.23683,-2.380435,1.5747862,-0.05219796,0.024501082,-0.083090626,26.46,4.8,30.42
1554103385728,-9.3182335,-2.4762032000000005,1.6274586000000002,-0.047936900000000005,0.033023197000000004,-0.07563378,26.52,4.74,30.48
1554103385748,-9.299078999999999,-2.4905684,1.5221136999999998,-0.022370555,0.035153727999999995,-0.06285059999999999,26.52,4.68,30.6
1554103385768,-9.217675999999999,-2.5480292,1.5939398,-0.015978966,0.03834952,-0.03834952,26.46,4.62,30.72
1554103385788,-9.308656,-2.5240872000000003,1.6801311,-0.024501082,0.043675844000000005,-0.03089267,26.34,4.56,30.78
1554103385808,-9.3661175,-2.5480292,1.6609775000000002,-0.027696876000000002,0.03195793,-0.02876214,26.28,4.56,30.84
1554103385827,-9.3421755,-2.4426842,1.6944963,-0.022370555,0.023435817999999997,-0.018109497,26.22,4.56,30.84
1554103385849,-9.284714,-2.48578,1.5125369,-0.002130529,0.020240024,-0.012783173500000002,26.1,4.62,30.84
1554103385868,-9.260772,-2.4474726,1.6418238,0.018109497,0.024501082,-0.010652645,26.04,4.62,30.84
1554103385887,-9.093178,-2.4187422,1.5173253,0.01917476,0.026631612000000002,-0.02130529,25.92,4.68,30.78
1554103385907,-9.054871,-2.3469162,1.4790181,0.011717908999999999,0.036218993,-0.040480047000000005,25.92,4.68,30.72
1554103385927,-9.121908,-2.4331074,1.6514006,-0.0053263223,0.049002163,-0.049002163,25.92,4.74,30.72
1554103385949,-9.212888000000001,-2.4331074,1.632247,-0.018109497,0.056459017,-0.05219796,25.98,4.74,30.66
1554103385968,-9.23683,-2.4905684,1.4311341,-0.020240024,0.05965481,-0.07030745599999999,26.1,4.74,30.66
1554103385988,-9.246407000000001,-2.6102784,1.2779051000000001,-0.010652645,0.06285059999999999,-0.08948222,26.16,4.74,30.6
1554103386008,-9.294291000000001,-2.5528176,1.4646529,-0.004261058,0.056459017,-0.084155895,26.16,4.74,30.6
1554103386029,-9.212888000000001,-2.4905684,1.4550761,-0.007456851,0.05752428,-0.06498113,26.16,4.68,30.6
1554103386048,-9.26556,-2.6198552000000004,1.5029601000000001,-0.00958738,0.049002163,-0.058589544,26.16,4.68,30.54
1554103386068,-9.327810000000001,-2.5623944,1.4742297,0.0,0.040480047000000005,-0.07030745599999999,26.16,4.62,30.6
1554103386088,-9.3421755,-2.4474726,1.4694413,0.018109497,0.034088463,-0.09054748,26.16,4.62,30.6
1554103386108,-9.380483,-2.3517046,1.5364790000000002,0.027696876000000002,0.03089267,-0.101200126,26.1,4.62,30.6
1554103386128,-9.433155000000001,-2.404377,1.4263457,0.012783173500000002,0.029827405,-0.08948222,26.1,4.62,30.6
1554103386147,-9.337387,-2.4283189999999997,1.5508442,0.004261058,0.026631612000000002,-0.084155895,26.04,4.62,30.66
1554103386168,-9.275136999999999,-2.48578,1.5939398,0.0063915867,0.024501082,-0.09587380000000001,26.04,4.62,30.66
1554103386188,-9.275136999999999,-2.4187422,1.4742297,0.041545313,0.027696876000000002,-0.111852765,26.04,4.62,30.72
1554103386208,-9.270349000000001,-2.332551,1.3736732,0.083090626,0.02876214,-0.112918034,26.04,4.62,30.72
1554103386228,-9.150639,-2.5240872000000003,1.2635399,0.07030745599999999,0.033023197000000004,-0.1107875,26.04,4.62,30.78
1554103386248,-9.303867,-2.6007016,1.3784616000000003,0.035153727999999995,0.03834952,-0.11930962,26.04,4.68,30.78
1554103386267,-9.356541,-2.6485856,1.2826935,0.00958738,0.03834952,-0.12037488,26.04,4.74,30.84
1554103386288,-9.3661175,-2.7156234,1.3066356000000001,0.002130529,0.03834952,-0.10439592,26.04,4.8,30.84
1554103386308,-9.332599,-2.7491422,1.2779051000000001,0.012783173500000002,0.04474111,-0.07030745599999999,26.1,4.86,30.9
1554103386328,-9.284714,-2.7587189999999997,1.2491747,0.029827405,0.049002163,-0.03089267,26.1,4.92,30.96
1554103386348,-9.26556,-2.7299886000000004,1.2539631000000002,0.036218993,0.05006743,-0.015978966,26.1,5.04,30.96
1554103386369,-9.327810000000001,-2.5911248,1.3210008,0.035153727999999995,0.051132694000000006,-0.027696876000000002,26.1,5.16,30.96
1554103386388,-9.370906,-2.5432408,1.2779051000000001,0.02130529,0.04580637,-0.026631612000000002,26.1,5.28,31.02
1554103386408,-9.303867,-2.5863364,1.3976152,0.0031957934000000003,0.034088463,-0.014913702,26.1,5.34,31.02
1554103386428,-9.255983,-2.5863364,1.4502877,-0.008522116,0.029827405,-0.0063915867,26.1,5.4,31.08
1554103386447,-9.184157,-2.60549,1.3257892,-0.0010652645,0.035153727999999995,-0.0063915867,26.1,5.4,31.08
1554103386467,-9.165004,-2.5719712,1.4502877,0.013848438000000001,0.034088463,-0.010652645,26.1,5.4,31.08
1554103386487,-9.093178,-2.581548,1.3736732,0.02130529,0.034088463,-0.023435817999999997,26.1,5.4,31.08
1554103386507,-9.241617999999999,-2.5001452,1.3497312,0.022370555,0.02876214,-0.036218993,26.1,5.4,31.08
1554103386527,-9.361329,-2.5192987999999996,1.359308,0.0063915867,0.017044231,-0.036218993,26.04,5.4,31.14
1554103386548,-9.184157,-2.5767596,1.407192,0.0063915867,0.0053263223,-0.04580637,25.98,5.34,31.14
1554103386567,-9.308656,-2.5528176,1.2635399,0.015978966,0.0,-0.05752428,25.92,5.28,31.14
1554103386587,-9.356541,-2.5480292,1.3305776000000002,0.034088463,-0.007456851,-0.06391586,25.92,5.22,31.14
1554103386608,-9.26556,-2.6198552000000004,1.3497312,0.054328485999999995,-0.014913702,-0.060720075,25.86,5.28,31.2
1554103386627,-9.251195,-2.6677392,1.2443863000000002,0.05006743,-0.017044231,-0.058589544,25.8,5.28,31.2
1554103386648,-9.217675999999999,-2.6198552000000004,1.3736732,0.036218993,-0.011717908999999999,-0.06498113,25.74,5.34,31.2
1554103386668,-9.246407000000001,-2.60549,1.3210008,0.036218993,-0.008522116,-0.06924219,25.68,5.34,31.26
1554103386687,-9.174581,-2.6725276,1.4024036,0.06285059999999999,0.0,-0.08735169,25.68,5.4,31.26
1554103386707,-9.083601,-2.533664,1.6274586000000002,0.09161274,0.008522116,-0.112918034,25.68,5.46,31.26
1554103386728,-9.102755,-2.5049335999999998,1.38325,0.10013486,0.013848438000000001,-0.14487597,25.62,5.52,31.26
1554103386748,-8.987833,-2.5288756,1.3736732,0.08841695,0.012783173500000002,-0.17896444,25.62,5.58,31.38
1554103386768,-9.021352,-2.5432408,1.3305776000000002,0.07243799,0.010652645,-0.22050974,25.68,5.64,31.5
1554103386787,-9.02614,-2.6390088,1.407192,0.07669904,0.007456851,-0.26205507,25.68,5.7,31.56
1554103386808,-8.954314,-2.6198552000000004,1.4167688999999999,0.1107875,-0.004261058,-0.30679616,25.68,5.82,31.62
1554103386827,-8.872911,-2.4953567999999997,1.5221136999999998,0.15126756,-0.011717908999999999,-0.3685815,25.74,5.88,31.74
1554103386848,-8.863335000000001,-2.4570496,1.3018471999999999,0.16937704,-0.025566347000000003,-0.43888897,25.74,6.0,31.74
1554103386868,-8.882488,-2.5432408,1.3066356000000001,0.11611383,-0.043675844000000005,-0.5070659000000001,25.8,6.12,31.74
1554103386887,-8.944737,-2.6485856,1.4311341,0.060720075,-0.06391586,-0.57098174,25.86,6.42,31.8
1554103386908,-8.805874000000001,-2.9502552000000004,1.2252326999999998,0.018109497,-0.09161274,-0.60507023,25.98,6.72,31.74
1554103386929,-9.016563,-3.2710779999999997,1.1677719,-0.034088463,-0.10333065,-0.6018744,26.04,7.08,31.62
1554103386948,-9.179369,-3.5104983,1.1534066,-0.1107875,-0.11504856,-0.58056915,26.1,7.38,31.62
1554103386968,-9.193734,-3.840898,1.0528502,-0.1949434,-0.13315806,-0.5305017,26.16,7.74,31.62
1554103386988,-9.112331,-3.9797617999999995,1.2204443,-0.23222765,-0.13635385,-0.45593318,26.22,8.16,31.62
1554103387008,-9.030928999999999,-4.0276456,1.2252326999999998,-0.21198763,-0.12996227,-0.38242993,26.28,8.64,31.68
1554103387027,-8.90643,-3.9653966,1.2443863000000002,-0.1768339,-0.128897,-0.3334278,26.34,9.24,31.74
1554103387048,-9.251195,-3.9079356,1.4407108999999998,-0.13422333,-0.10972224,-0.26312032,26.46,9.96,31.8
1554103387068,-9.241617999999999,-3.8025907999999995,1.5699978,-0.10972224,-0.1107875,-0.20985709,26.52,10.14,31.8
1554103387088,-9.078813,-3.7163997,1.5316905,-0.07882957,-0.101200126,-0.15552860000000002,26.58,10.56,31.8
1554103387108,-9.011775,-3.7211879999999997,1.5077485000000002,-0.06498113,-0.08841695,-0.11824436,26.7,11.04,31.74
1554103387128,-8.99741,-3.6062663,1.7663223000000001,-0.084155895,-0.07669904,-0.094808534,26.76,11.4,31.74
1554103387149,-8.983044999999999,-3.6110547,1.7806876,-0.12463594,-0.06498113,-0.084155895,26.88,11.88,31.68
1554103387168,-8.968679,-3.6733038000000002,1.6274586000000002,-0.14807177,-0.051132694000000006,-0.07669904,27.06,12.0,31.62
1554103387187,-8.8777,-3.86484,1.6514006,-0.1470065,-0.046871635999999994,-0.07669904,27.12,12.0,31.5
1554103387208,-8.791509,-3.7882257000000004,1.4838065,-0.12783173,-0.034088463,-0.07243799,27.24,12.0,31.5
1554103387229,-8.796297000000001,-3.9845502,1.4838065,-0.11504856,-0.03195793,-0.06391586,27.36,12.0,31.44
1554103387248,-8.7771435,-3.9749733999999997,1.5125369,-0.10972224,-0.03089267,-0.058589544,27.42,11.88,31.38
1554103387267,-8.7532015,-4.085107,1.2970588,-0.10652645,-0.03089267,-0.049002163,27.48,11.82,31.32
1554103387287,-8.671799,-4.0084919999999995,1.4311341,-0.10865697,-0.03195793,-0.037284255,27.54,11.7,31.26
1554103387308,-8.772355000000001,-4.051588,1.5173253,-0.099069595,-0.022370555,-0.029827405,27.6,11.64,31.26
1554103387328,-8.829816000000001,-4.0563765,1.5125369,-0.080960095,-0.020240024,-0.026631612000000002,27.6,11.52,31.2
1554103387347,-8.848969,-3.946243,1.6657659,-0.06604639400000001,-0.02130529,-0.01917476,27.6,11.46,31.2
1554103387367,-8.801085,-3.9079356,1.5652093999999999,-0.05219796,-0.023435817999999997,-0.008522116,27.6,11.4,31.14
1554103387388,-8.791509,-3.8696284,1.4407108999999998,-0.043675844000000005,-0.023435817999999997,0.012783173500000002,27.6,11.34,31.14
1554103387407,-8.887277000000001,-3.9079356,1.5556326,-0.043675844000000005,-0.02130529,0.03195793,27.6,11.34,31.14
1554103387428,-8.810661999999999,-3.9270894999999997,1.4598645000000001,-0.03089267,-0.024501082,0.02130529,27.6,11.34,31.14
1554103387447,-8.781932000000001,-3.86484,1.6035166,0.008522116,-0.012783173500000002,-0.004261058,27.54,11.34,31.08
1554103387468,-8.7292595,-3.6637269999999997,1.5412674,0.014913702,-0.00958738,-0.010652645,27.54,11.34,31.08
1554103387487,-8.796297000000001,-3.7738605000000005,1.5652093999999999,0.004261058,-0.0063915867,-0.00958738,27.48,11.34,31.02
1554103387507,-8.671799,-3.8121676,1.5221136999999998,-0.014913702,-0.002130529,-0.015978966,27.42,11.34,31.02
1554103387528,-8.667010000000001,-3.8744167999999997,1.2156559,-0.024501082,0.0063915867,-0.020240024,27.36,11.34,30.96
1554103387548,-8.748413000000001,-3.9079356,1.4598645000000001,-0.014913702,0.012783173500000002,-0.03195793,27.3,11.34,30.96
1554103387568,-8.772355000000001,-3.8361096,1.4407108999999998,-0.004261058,0.022370555,-0.040480047000000005,27.3,11.28,30.96
1554103387588,-8.738836000000001,-3.9653966,1.4119805,-0.010652645,0.017044231,-0.043675844000000005,27.3,11.28,30.9
1554103387608,-8.6813755,-3.8935703999999998,1.4502877,-0.014913702,0.011717908999999999,-0.040480047000000005,27.3,11.28,30.9
1554103387628,-8.6813755,-3.7163997,1.287482,-0.014913702,0.011717908999999999,-0.04261058,27.3,11.28,30.96
1554103387648,-8.724471000000001,-3.8504747999999998,1.4646529,-0.01917476,0.008522116,-0.043675844000000005,27.42,11.22,30.96
1554103387668,-8.796297000000001,-3.7882257000000004,1.4838065,-0.04474111,0.0053263223,-0.041545313,27.48,11.22,30.96
1554103387688,-8.853758000000001,-3.8361096,1.5269021,-0.037284255,0.00958738,-0.05006743,27.54,11.16,30.96
1554103387708,-8.858546,-3.8025907999999995,1.5412674,-0.008522116,0.010652645,-0.060720075,27.6,11.16,30.96
1554103387727,-8.829816000000001,-3.8265328000000003,1.3880384,0.004261058,0.012783173500000002,-0.06391586,27.6,11.1,30.96
1554103387749,-8.848969,-3.7594953,1.4885948999999998,0.002130529,0.014913702,-0.06178534,27.6,11.04,30.96
1554103387768,-8.825027,-3.8935703999999998,1.4694413,-0.008522116,0.0063915867,-0.05965481,27.66,11.04,30.96
1554103387788,-8.815451,-3.8456864,1.5125369,-0.025566347000000003,0.00958738,-0.04474111,27.66,10.98,30.96
1554103387808,-8.810661999999999,-3.9079356,1.4838065,-0.015978966,0.002130529,-0.020240024,27.66,10.98,30.96
1554103387828,-8.796297000000001,-3.9079356,1.6035166,0.002130529,-0.002130529,-0.007456851,27.66,10.98,30.96
1554103387848,-8.834603999999999,-3.8121676,1.4359225,0.024501082,0.0031957934000000003,-0.007456851,27.66,10.92,30.9
1554103387868,-8.920795,-3.7307648999999996,1.3688848,0.027696876000000002,-0.002130529,-0.018109497,27.66,10.92,30.9
1554103387888,-8.892064999999999,-3.7738605000000005,1.4502877,0.007456851,-0.013848438000000001,-0.01917476,27.66,10.86,30.84
1554103387908,-8.8777,-3.793014,1.5364790000000002,-0.0031957934000000003,-0.017044231,-0.017044231,27.66,10.86,30.84
1554103387928,-8.815451,-3.7211879999999997,1.4742297,-0.008522116,-0.023435817999999997,-0.012783173500000002,27.66,10.86,30.78
1554103387948,-8.762777999999999,-3.8073792,1.4694413,0.002130529,-0.020240024,-0.014913702,27.66,10.86,30.72
1554103387968,-8.671799,-3.7307648999999996,1.3784616000000003,0.011717908999999999,-0.012783173500000002,-0.022370555,27.66,10.8,30.72
1554103387987,-8.623915,-3.8744167999999997,1.3257892,0.010652645,-0.007456851,-0.027696876000000002,27.66,10.8,30.72
