TimeStamp,Ax,Ay,Az,Gx,Gy,Gz,Mx,My,Mz
1554880040014,-4.7740383,-8.361151,2.4462755,0.13315806,0.09374327,0.86499476,3.42,36.12,-39.3
1554880040034,-4.9703627,-8.15525,2.5995044999999997,0.18002969,0.07669904,0.89588743,3.72,35.94,-39.12
1554880040054,-5.1906295,-8.002021000000001,2.556409,0.19281286,0.05006743,0.9374326999999999,4.08,35.52,-39.12
1554880040073,-5.291186,-7.944559599999999,2.5851393,0.18216023,0.034088463,0.95128113,4.2,35.28,-39.18
1554880040093,-5.5497594,-7.9301944,2.7766755,0.16831179,0.029827405,0.9757822,4.5,34.38,-39.24
1554880040113,-5.66947,-7.791331,2.6330232999999996,0.19387813,0.022370555,0.99921805,4.68,33.72,-39.24
1554880040134,-5.750872599999999,-7.872733599999999,2.6952724,0.26205507,0.0010652645,1.0205233,4.8,33.06,-39.3
1554880040154,-6.047753299999999,-7.527969000000001,2.6761188999999996,0.32277513,0.0031957934000000003,1.0460896000000002,4.98,32.4,-39.36
1554880040174,-6.1387334000000005,-7.542333999999999,2.6809072,0.34088463,0.0,1.067395,5.16,31.74,-39.54
1554880040194,-6.26802,-7.3220673,2.7670987,0.350472,-0.00958738,1.0887003,5.4,31.02,-39.66
1554880040214,-6.4020953,-7.0395517000000005,2.5899277,0.38029942,-0.026631612000000002,1.1068097,5.58,30.18,-39.84
1554880040234,-6.3829417,-6.713939999999999,2.7287915000000003,0.4016047,-0.023435817999999997,1.1185277,5.76,29.4,-40.02
1554880040254,-6.4260373,-6.4362125,2.5372553,0.43356264,-0.054328485999999995,1.1142666,5.94,28.62,-40.2
1554880040274,-6.5122285,-6.206369400000001,2.5899277,0.43782368,-0.051132694000000006,1.0908308,6.06,27.72,-40.38
1554880040294,-6.5457472999999995,-5.93343,2.4319102999999997,0.42290998,-0.056459017,1.0748518999999999,6.12,26.7,-40.56
1554880040313,-6.766014,-5.559935,2.484583,0.39095205,-0.04580637,1.0567423,6.18,25.56,-40.74
1554880040333,-6.8426285,-5.33488,2.556409,0.36218992,-0.04474111,1.015197,6.18,24.36,-40.92
1554880040355,-6.8186865,-5.133767,2.6761188999999996,0.35260254,-0.036218993,0.9715212,6.18,23.16,-41.1
1554880040374,-6.8665705,-5.0332108,2.8006175,0.35260254,-0.043675844000000005,0.9235843,6.18,22.08,-41.28
1554880040394,-7.029375999999999,-4.9422307,2.9394810000000002,0.36325517,-0.05752428,0.8831041999999999,6.12,21.06,-41.46
1554880040415,-6.8905125,-4.7219644,2.8485014,0.37816888,-0.05539375,0.84368944,6.12,19.92,-41.64
1554880040434,-7.043741000000001,-4.702811,2.8772318,0.37923414,-0.068176925,0.7914915,6.06,18.78,-41.82
1554880040453,-7.086836999999999,-4.228758999999999,2.9873652,0.37603834,-0.08735169,0.7233145999999999,6.06,17.76,-42.0
1554880040473,-7.1634517,-4.089895200000001,2.8532897999999998,0.34940675,-0.09161274,0.68389976,6.0,16.8,-42.06
1554880040494,-7.091625,-4.109049,3.116652,0.26205507,-0.08735169,0.6135923000000001,5.94,15.84,-42.12
1554880040514,-7.0102224,-3.9175123999999997,3.1453824,0.21518342,-0.08948222,0.5230448000000001,5.88,15.0,-42.12
1554880040534,-7.1155677,-3.9223008000000004,3.2267854,0.21198763,-0.08628642,0.47404268,5.82,14.16,-42.18
1554880040553,-7.278373200000001,-3.793014,3.0352492,0.16618125,-0.084155895,0.4048005,5.76,13.38,-42.3
1554880040574,-7.3214690000000004,-3.7786489000000003,3.1693244,0.101200126,-0.082025364,0.34301516,5.76,12.72,-42.42
1554880040593,-7.407660000000001,-3.793014,3.2076318,0.06924219,-0.07882957,0.28336033,5.76,12.18,-42.54
1554880040613,-7.4699089999999995,-3.9223008000000004,3.3369186,0.051132694000000006,-0.07989483,0.22690132,5.7,11.58,-42.66
1554880040634,-7.4507556,-4.051588,3.3560722000000003,0.03195793,-0.09054748,0.18429075,5.64,11.04,-42.78
1554880040654,-7.489063000000001,-3.9989154,3.317765,-0.0031957934000000003,-0.10759171,0.16724652,5.58,10.62,-42.9
1554880040674,-7.517792999999999,-4.0803185,3.4278982000000005,-0.05539375,-0.10652645,0.18002969,5.46,10.2,-43.08
1554880040694,-7.771578999999999,-4.089895200000001,3.4518404,-0.07350325,-0.10546118,0.17896444,5.34,9.84,-43.14
1554880040713,-7.666233999999999,-3.9749733999999997,3.5140896,-0.09161274,-0.09054748,0.16298546,5.22,9.54,-43.2
1554880040733,-7.8146744,-3.9558197999999996,3.6194344,-0.098004326,-0.08522116,0.14061491,5.1,9.36,-43.26
1554880040753,-7.848192999999999,-3.840898,3.5093012000000003,-0.083090626,-0.08735169,0.12996227,4.98,9.18,-43.26
1554880040773,-7.8003089999999995,-3.7882257000000004,3.5715504,-0.09161274,-0.07776430000000001,0.10972224,4.86,9.06,-43.32
1554880040793,-7.8146744,-3.7882257000000004,3.6529531000000004,-0.13102753,-0.07882957,0.08841695,4.8,8.94,-43.38
1554880040813,-7.896077,-3.9318779000000004,3.5619736000000004,-0.15446335,-0.06391586,0.08522116,4.74,8.82,-43.5
1554880040834,-8.001422,-3.9845502,3.5954924,-0.15765914,-0.07137272,0.099069595,4.74,8.7,-43.56
1554880040854,-7.876923599999999,-3.9079356,3.4901476000000002,-0.1438107,-0.07350325,0.10652645,4.68,8.58,-43.62
1554880040874,-7.9104424,-3.912724,3.6625300000000003,-0.14274544,-0.07882957,0.11824436,4.56,8.52,-43.8
1554880040894,-7.776367,-3.7978023999999997,3.6721067,-0.14913702,-0.07030745599999999,0.1107875,4.5,8.52,-43.86
1554880040913,-7.8386164,-3.7738605000000005,3.7870286,-0.15978967,-0.05219796,0.10546118,4.5,8.52,-43.92
1554880040933,-7.8146744,-3.7499184999999997,3.7008373999999997,-0.16937704,-0.047936900000000005,0.08735169,4.38,8.58,-43.98
1554880040953,-7.8050976,-3.86484,3.7535098,-0.17470337,-0.05752428,0.084155895,4.32,8.64,-44.04
1554880040973,-7.8673470000000005,-3.8073792,3.9163153,-0.14913702,-0.047936900000000005,0.06285059999999999,4.26,8.7,-44.04
1554880040993,-7.881711999999999,-3.7547068999999995,3.7582982000000005,-0.12783173,-0.04580637,0.051132694000000006,4.2,8.82,-44.04
1554880041013,-7.9391727,-3.7547068999999995,3.6529531000000004,-0.14274544,-0.029827405,0.053263225,4.2,8.88,-44.1
1554880041033,-7.8003089999999995,-3.7834373,3.743933,-0.15978967,-0.013848438000000001,0.036218993,4.14,8.94,-44.1
1554880041054,-7.929596000000001,-3.6828809000000002,3.7630866000000003,-0.13635385,-0.018109497,0.015978966,4.14,9.0,-44.1
1554880041073,-7.891288799999999,-3.7116113,3.6721067,-0.12783173,-0.023435817999999997,-0.002130529,4.08,9.0,-44.1
1554880041093,-7.833828,-3.697246,3.5619736000000004,-0.11717909,-0.017044231,-0.024501082,4.02,9.0,-44.1
1554880041113,-7.8050976,-3.5871127,3.6768951000000003,-0.15446335,-0.01917476,-0.05965481,3.9,9.0,-44.1
1554880041133,-7.8386164,-3.888782,3.6290112,-0.22477080000000002,-0.018109497,-0.08522116,3.78,9.0,-44.1
1554880041153,-7.833828,-3.9558197999999996,3.5476084,-0.30253512,-0.00958738,-0.08628642,3.66,9.0,-44.16
1554880041173,-8.1402855,-4.0994720000000004,3.3464954,-0.3717773,0.013848438000000001,-0.05965481,3.6,8.94,-44.16
1554880041194,-8.073248,-4.1425676,3.4757824,-0.43782368,0.040480047000000005,-0.015978966,3.48,8.94,-44.22
1554880041213,-8.101977999999999,-4.228758999999999,3.6002807999999997,-0.45593318,0.05965481,0.0053263223,3.42,9.0,-44.22
1554880041233,-8.135497,-4.156933,3.7247794,-0.39627838,0.06391586,0.03089267,3.3,9.06,-44.28
1554880041253,-8.078036,-4.3388919999999995,3.4901476000000002,-0.34940675,0.060720075,0.02876214,3.3,9.24,-44.28
1554880041274,-8.039729,-4.520851,3.341707,-0.28975195,0.054328485999999995,0.026631612000000002,3.36,9.66,-44.34
1554880041294,-8.039729,-4.3724110000000005,3.6290112,-0.1949434,0.04474111,0.011717908999999999,3.36,10.2,-44.34
1554880041314,-8.030152000000001,-4.200028400000001,3.4326867999999995,-0.03089267,0.008522116,0.00958738,3.42,10.74,-44.34
1554880041334,-8.001422,-3.9653966,3.2028434,0.027696876000000002,0.002130529,0.004261058,3.42,11.28,-44.4
1554880041354,-8.058883,-3.9845502,3.2028434,-0.04580637,-0.008522116,-0.004261058,3.42,11.82,-44.4
1554880041374,-8.101977999999999,-4.0803185,3.2124202,-0.08948222,-0.010652645,-0.022370555,3.42,12.36,-44.46
1554880041394,-8.001422,-3.9653966,3.3081882000000005,-0.1107875,-0.013848438000000001,-0.03089267,3.42,12.84,-44.52
1554880041414,-8.001422,-4.185663,3.3512837999999996,-0.12357068,-0.015978966,-0.027696876000000002,3.48,13.2,-44.58
1554880041435,-8.010999,-4.0420110000000005,3.2650926,-0.1107875,-0.012783173500000002,-0.037284255,3.42,13.26,-44.64
1554880041454,-7.891288799999999,-4.0707417,3.293823,-0.112918034,-0.00958738,-0.03195793,3.42,13.32,-44.7
1554880041474,-7.967903,-4.305373,3.1214404,-0.080960095,-0.0031957934000000003,-0.02876214,3.42,13.38,-44.76
1554880041495,-8.073248,-4.300585,3.2028434,-0.05539375,-0.002130529,-0.03195793,3.42,13.5,-44.76
1554880041515,-7.996633500000001,-4.156933,3.1932666000000003,-0.083090626,-0.0031957934000000003,-0.023435817999999997,3.48,13.62,-44.76
1554880041534,-7.9822683,-3.9606082000000002,3.1884782000000005,-0.13315806,-0.007456851,-0.023435817999999997,3.48,13.74,-44.76
1554880041554,-8.054094000000001,-3.8073792,3.044826,-0.24820662,-0.010652645,0.00958738,3.48,13.86,-44.76
1554880041575,-8.039729,-4.051588,3.0113072,-0.39627838,-0.017044231,0.053263225,3.54,13.98,-44.76
1554880041594,-7.809886,-4.3819875999999995,3.1262288,-0.47297743,-0.018109497,0.04580637,3.54,14.16,-44.7
1554880041614,-8.006210000000001,-4.4777555,3.566762,-0.28655612,0.0063915867,-0.043675844000000005,3.54,14.28,-44.7
1554880041635,-7.996633500000001,-3.970185,2.9538465,-0.19920446,0.014913702,-0.07456851,3.6,14.4,-44.7
1554880041654,-8.082825,-4.544793599999999,3.0544027999999996,-0.29294774,0.02876214,-0.041545313,3.6,14.46,-44.64
1554880041674,-8.111555000000001,-4.487332299999999,3.0591912,-0.32597092,0.022370555,-0.05539375,3.6,14.64,-44.64
1554880041694,-8.221688,-4.410718,3.068768,-0.30360037,0.014913702,-0.06285059999999999,3.6,14.88,-44.64
1554880041714,-8.073248,-4.3676224,3.1597476,-0.26738137,-0.0031957934000000003,-0.06391586,3.6,15.24,-44.58
1554880041733,-8.207322999999999,-4.573524,2.9921536,-0.19281286,-0.0053263223,-0.05219796,3.6,15.54,-44.58
1554880041754,-8.221688,-4.401141,2.891597,-0.12037488,-0.014913702,-0.06711166,3.6,15.9,-44.52
1554880041774,-8.101977999999999,-4.429871599999999,2.8772318,-0.11504856,-0.0053263223,-0.06178534,3.6,16.26,-44.46
1554880041793,-8.202535000000001,-4.630985,2.949058,-0.1107875,-0.008522116,-0.056459017,3.6,16.56,-44.52
1554880041813,-8.183380999999999,-4.6501384,3.0831332000000002,-0.07456851,-0.01917476,-0.047936900000000005,3.6,16.86,-44.58
1554880041834,-8.034941,-4.511274299999999,3.0065188,-0.0063915867,0.00958738,-0.029827405,3.6,17.16,-44.64
1554880041854,-8.078036,-4.6405616,3.1070752,-0.026631612000000002,-0.0031957934000000003,-0.00958738,3.6,17.22,-44.64
1554880041874,-7.9008656,-4.300585,3.0160956000000003,0.026631612000000002,0.017044231,-0.012783173500000002,3.6,17.34,-44.64
1554880041894,-8.015787,-4.554370400000001,2.9442697,0.0010652645,0.0053263223,0.0010652645,3.6,17.4,-44.64
1554880041915,-7.929596000000001,-4.3963529999999995,2.7527334999999997,0.00958738,-0.007456851,-0.013848438000000001,3.6,17.52,-44.64
1554880041934,-8.030152000000001,-4.348469000000001,2.6138697,-0.002130529,-0.014913702,-0.017044231,3.6,17.58,-44.58
1554880041954,-7.991845,-4.3388919999999995,2.7144263,-0.011717908999999999,-0.02130529,-0.018109497,3.6,17.58,-44.58
1554880041973,-8.049306,-4.200028400000001,2.819771,-0.047936900000000005,-0.03089267,-0.023435817999999997,3.54,17.7,-44.34
1554880041994,-8.1402855,-4.4538136,2.9634232999999996,-0.07563378,-0.015978966,-0.026631612000000002,3.54,17.82,-44.28
1554880042015,-8.236053,-4.401141,3.0160956000000003,-0.068176925,0.02130529,-0.034088463,3.54,17.88,-44.28
1554880042034,-8.0924015,-4.573524,3.0639796,-0.099069595,0.03834952,-0.0031957934000000003,3.48,17.88,-44.22
1554880042054,-8.078036,-4.554370400000001,3.0974984,-0.10546118,0.033023197000000004,0.008522116,3.48,17.94,-44.22
1554880042073,-7.9008656,-4.472967,2.7766755,-0.06604639400000001,0.0031957934000000003,0.0031957934000000003,3.42,17.94,-44.28
1554880042094,-7.8577699999999995,-4.291008000000001,2.7096379,-0.04474111,-0.012783173500000002,-0.004261058,3.42,18.0,-44.28
1554880042113,-7.915230800000001,-4.439448400000001,2.6617537000000002,-0.020240024,-0.033023197000000004,-0.017044231,3.36,18.06,-44.28
1554880042133,-8.054094000000001,-4.2862196,2.8149827000000003,-0.014913702,-0.033023197000000004,-0.037284255,3.36,18.12,-44.28
1554880042154,-8.030152000000001,-4.2383356,2.5037365,-0.04474111,-0.07563378,-0.060720075,3.36,18.18,-44.28
1554880042173,-8.058883,-4.214393599999999,2.5228900000000003,-0.10546118,-0.04261058,-0.09267801,3.3,18.24,-44.34
1554880042193,-7.891288799999999,-4.7698483,2.747945,-0.20133498,-0.00958738,-0.06604639400000001,3.3,18.42,-44.28
1554880042214,-7.963114699999999,-4.9374423,2.570774,-0.16618125,-0.0031957934000000003,-0.083090626,3.3,18.6,-44.28
1554880042234,-8.020576,-4.6022544000000005,2.7623102999999998,-0.094808534,0.025566347000000003,-0.07563378,3.3,18.78,-44.16
1554880042254,-8.006210000000001,-4.836886,2.7814639,-0.07882957,0.023435817999999997,-0.043675844000000005,3.3,18.96,-43.98
1554880042274,-8.001422,-4.3724110000000005,2.7527334999999997,0.0010652645,0.011717908999999999,-0.07137272,3.3,19.14,-43.86
1554880042294,-8.010999,-4.520851,2.7527334999999997,-0.04261058,0.010652645,-0.05752428,3.3,19.32,-43.8
1554880042314,-7.929596000000001,-4.530428,2.6521769,-0.099069595,0.033023197000000004,-0.06178534,3.3,19.44,-43.68
1554880042334,-8.0445175,-4.7219644,2.6569653,-0.16724652,0.02876214,-0.06391586,3.3,19.56,-43.68
1554880042354,-8.034941,-4.7267528,2.6617537000000002,-0.17257284,0.023435817999999997,-0.07137272,3.3,19.62,-43.68
1554880042374,-8.006210000000001,-4.702811,2.7383683,-0.15552860000000002,0.034088463,-0.06178534,3.24,19.62,-43.74
1554880042394,-7.987056699999999,-4.540005000000001,2.819771,-0.113983296,0.02130529,-0.058589544,3.24,19.68,-43.8
1554880042414,-7.843405000000001,-4.463390400000001,2.6138697,-0.09267801,0.022370555,-0.06285059999999999,3.24,19.8,-43.92
1554880042434,-7.9343843,-4.3676224,2.508525,-0.08628642,0.029827405,-0.08735169,3.24,19.98,-43.98
1554880042454,-7.876923599999999,-4.362833999999999,2.7910407000000004,-0.10972224,0.051132694000000006,-0.1107875,3.24,20.16,-44.1
1554880042474,-7.8003089999999995,-4.511274299999999,2.7048495,-0.11504856,0.06498113,-0.14913702,3.24,20.4,-44.1
1554880042493,-7.996633500000001,-4.812944,2.6282349,-0.101200126,0.08628642,-0.18002969,3.3,20.7,-44.1
1554880042513,-7.891288799999999,-4.9518075,2.6042929,-0.09161274,0.094808534,-0.17789917,3.3,20.94,-44.1
1554880042535,-7.9008656,-4.899135,2.5851393,-0.09054748,0.08841695,-0.16831179,3.3,21.18,-44.1
1554880042554,-7.8386164,-4.947019,2.417545,-0.06498113,0.09161274,-0.165116,3.3,21.42,-44.04
1554880042573,-7.881711999999999,-5.0092683,2.508525,-0.037284255,0.094808534,-0.16831179,3.3,21.66,-43.98
1554880042595,-7.7572136,-4.923076999999999,2.6665419999999997,-0.002130529,0.10546118,-0.18855181,3.36,21.84,-43.92
1554880042613,-7.6518690000000005,-4.827309,2.7575218999999995,0.05965481,0.1107875,-0.21731395,3.36,21.84,-43.86
1554880042634,-7.541735000000001,-4.635773,2.5851393,0.128897,0.12570119999999999,-0.25885928,3.42,21.96,-43.8
1554880042654,-7.2352777,-4.520851,2.321777,0.12250541,0.14807177,-0.30146983,3.48,22.08,-43.74
1554880042675,-7.0245875999999985,-4.530428,2.3840263,0.022370555,0.18216023,-0.3749731,3.66,22.2,-43.62
1554880042694,-6.708553299999999,-4.487332299999999,2.2691047,-0.054328485999999995,0.20559604,-0.45380265,3.72,22.26,-43.56
1554880042714,-6.2345014,-4.64535,2.4558525,-0.083090626,0.22370553,-0.5230448000000001,3.84,22.38,-43.5
1554880042734,-5.899312999999999,-4.8656163,2.460641,-0.022370555,0.25353295,-0.6679208000000001,3.96,22.5,-43.44
1554880042754,-5.6982,-5.0810947,2.1254525,0.12144015,0.2972088,-0.8149273,4.08,22.68,-43.32
1554880042773,-5.57849,-5.109825,2.144606,0.30679616,0.35792887,-0.96939063,4.14,22.92,-43.2
1554880042795,-5.21936,-5.1768627,1.8285716,0.45167214,0.4133226,-1.1238540000000001,4.2,23.22,-43.08
1554880042814,-5.1810527,-5.3636102999999995,1.6609775000000002,0.50173956,0.47723848,-1.2751216,4.32,23.46,-42.9
1554880042834,-5.12838,-5.4354362,1.2731166999999999,0.45060685,0.5581986,-1.4327807,4.44,23.76,-42.72
1554880042853,-5.1379566,-5.5168395,0.7990648,0.22264028,0.6402239000000001,-1.582983,4.62,24.12,-42.54
1554880042874,-5.1571107000000005,-6.0770826,0.42078096,-0.19281286,0.7286409,-1.7193368999999998,4.8,24.54,-42.36
1554880042894,-5.1906295,-6.785766000000001,0.12389994,-0.6135923000000001,0.8202536,-1.8322549,4.98,25.14,-42.0
1554880042914,-5.295974299999999,-7.5758529999999995,-0.014963761,-0.87351686,0.91825795,-1.8919096999999998,5.16,25.86,-41.58
1554880042934,-5.444414599999999,-8.370728,0.21487960000000003,-0.9491506,1.0258497,-1.9089539,5.34,26.82,-41.1
1554880042955,-5.592855,-8.950125,0.23403321,-0.86392945,1.1089402,-1.8855181,5.58,28.02,-40.44
1554880042974,-5.731719,-9.194333,0.109534726,-0.81918836,1.1323761,-1.8343854,5.76,29.52,-39.72
1554880042994,-6.143522,-9.835979,0.037708677,-0.7850999,1.1462245,-1.7150756999999999,5.94,31.38,-38.94
1554880043013,-6.4068837,-9.998785,0.24361002,-0.6860303000000001,1.139833,-1.5765913999999999,6.18,33.3,-38.1
1554880043033,-6.517017,-10.171167,0.08080431,-0.56459016,1.0940266,-1.4231933,6.42,35.22,-37.26
1554880043054,-6.603208,-10.310031,0.29628247,-0.46871635,1.0450244,-1.284709,6.66,37.14,-36.48
1554880043075,-6.5840545,-10.180744,-0.038905777,-0.3536678,0.94275904,-1.1046791999999999,6.96,38.94,-35.76
1554880043094,-6.703765,-10.185533,0.3681085,-0.27057716,0.8277104999999999,-0.9321064,7.2,40.74,-34.92
1554880043114,-6.622362,-10.041881,0.16220717,-0.12144015,0.70200926,-0.75101143,7.5,42.48,-34.08
1554880043134,-6.5122285,-9.610924,-0.20171149,0.04474111,0.57417756,-0.58696073,7.8,44.04,-33.36
1554880043154,-6.3685765,-9.610924,-0.28790274,0.1768339,0.46658584,-0.42077947,8.04,45.24,-32.64
1554880043174,-6.220136,-9.596559,-0.5895722,0.19068234,0.36218992,-0.26631612,8.22,46.32,-32.04
1554880043195,-5.9807158,-9.376292,-0.54168814,0.07776430000000001,0.257794,-0.12676647,8.4,47.28,-31.5
1554880043214,-5.530606,-9.261371,-0.42197806,-0.0053263223,0.12996227,0.014913702,8.58,48.12,-31.02
1554880043234,-5.482722,-9.251794,-0.38845924,0.039414786,0.06604639400000001,0.083090626,8.7,48.84,-30.6
1554880043254,-5.1571107000000005,-9.1272955,-0.46028528,0.19813919,-0.013848438000000001,0.13315806,8.88,49.26,-30.3
1554880043273,-4.960786,-8.667608,-0.4890157,0.34088463,-0.07030745599999999,0.15446335,9.0,49.5,-30.12
1554880043294,-4.7309427,-8.581417,-0.5895722,0.38456047,-0.12570119999999999,0.16937704,9.12,49.62,-29.94
1554880043313,-4.548983,-8.57184,-0.8050503000000001,0.31851408,-0.16192019,0.165116,9.12,49.68,-29.82
1554880043334,-4.362235500000001,-8.45213,-0.85772276,0.20879184,-0.18429075,0.15765914,9.18,49.68,-29.7
1554880043354,-4.228160400000001,-8.519167999999999,-0.7284359,0.111852765,-0.19813919,0.15126756,9.24,49.68,-29.64
1554880043375,-4.132391999999999,-8.476072,-0.6374562,0.05965481,-0.20879184,0.14487597,9.24,49.56,-29.52
1554880043393,-4.074930999999999,-8.509591,-0.6183026,0.05006743,-0.21518342,0.12996227,9.24,49.32,-29.58
1554880043413,-4.0653543,-8.27496,-0.374094,0.040480047000000005,-0.2034655,0.10333065,9.24,49.08,-29.7
1554880043434,-4.0509889999999995,-8.260594000000001,-0.55126494,-0.0031957934000000003,-0.18642128,0.05539375,9.18,48.78,-30.0
1554880043454,-4.0557775000000005,-8.236652000000001,-0.40282443,-0.07350325,-0.16724652,0.022370555,9.18,48.54,-30.18
1554880043473,-4.2185836,-8.313267,-0.5129577000000001,-0.14061491,-0.15233281,-0.01917476,9.12,48.3,-30.36
1554880043493,-4.1802763999999994,-8.361151,-0.46986207,-0.18535602,-0.13954964,-0.046871635999999994,9.12,48.12,-30.6
1554880043513,-4.1946416,-8.456919000000001,-0.38845924,-0.21731395,-0.13954964,-0.06711166,9.06,47.94,-30.78
1554880043534,-4.232949,-8.576628999999999,-0.29747957,-0.2130529,-0.14168017,-0.08841695,9.06,47.88,-30.9
1554880043554,-4.256891,-8.839992,-0.3645172,-0.2130529,-0.15446335,-0.094808534,9.0,47.82,-31.02
1554880043574,-4.295198,-8.921394,-0.40282443,-0.18855181,-0.165116,-0.10226539,8.94,47.82,-31.08
1554880043593,-4.3526587,-8.983644,-0.29747957,-0.14807177,-0.17257284,-0.099069595,8.88,47.82,-31.14
1554880043614,-4.295198,-8.863934,-0.38367084,-0.11824436,-0.1768339,-0.08522116,8.76,47.76,-31.14
1554880043634,-4.175488,-9.0315275,-0.3645172,-0.12037488,-0.18322548,-0.07243799,8.7,47.76,-31.2
1554880043654,-4.209007,-9.136872,-0.3309984,-0.113983296,-0.18748654,-0.06391586,8.58,47.82,-31.26
1554880043674,-4.1276035,-9.108141999999999,-0.10594343,-0.094808534,-0.17363810000000002,-0.043675844000000005,8.46,47.94,-31.32
1554880043694,-4.0318356,-9.0842,-0.22086509999999998,-0.06604639400000001,-0.15233281,-0.022370555,8.34,48.06,-31.38
1554880043715,-4.0270470000000005,-9.021951,-0.20171149,-0.043675844000000005,-0.13209279,-0.011717908999999999,8.22,48.24,-31.44
1554880043734,-3.9360676,-8.758589,-0.0053869537,-0.039414786,-0.101200126,-0.01917476,8.16,48.36,-31.5
1554880043755,-3.9600096,-8.72507,-0.15861586,-0.033023197000000004,-0.07456851,-0.033023197000000004,8.1,48.54,-31.56
1554880043773,-3.8738184,-8.634089,-0.25438392,-0.037284255,-0.049002163,-0.053263225,8.04,48.66,-31.56
1554880043794,-3.9456443999999995,-8.629301,-0.26874915,-0.035153727999999995,-0.026631612000000002,-0.07137272,7.98,48.78,-31.56
1554880043813,-3.9504328,-8.653243,-0.3309984,-0.008522116,-0.013848438000000001,-0.07882957,7.92,48.9,-31.56
1554880043834,-3.9408559999999997,-8.7538,-0.12988544,-0.004261058,-0.0010652645,-0.084155895,7.86,48.96,-31.56
1554880043855,-3.9983168,-8.581417,-0.3597288,0.002130529,0.007456851,-0.098004326,7.8,49.02,-31.56
1554880043874,-3.9695864000000003,-8.614936,-0.30705637,0.011717908999999999,0.014913702,-0.10546118,7.74,49.02,-31.5
1554880043894,-4.074930999999999,-8.796896,-0.52732295,0.0053263223,0.011717908999999999,-0.11824436,7.68,49.08,-31.5
1554880043913,-4.103661499999999,-8.796896,-0.65660983,-0.012783173500000002,0.014913702,-0.12676647,7.62,49.08,-31.5
1554880043933,-4.1419687000000005,-8.883087,-0.54168814,-0.043675844000000005,0.0031957934000000003,-0.12463594,7.56,49.14,-31.44
1554880043954,-4.1371803,-8.696339,-0.57999533,-0.06178534,-0.013848438000000001,-0.12144015,7.5,49.2,-31.44
1554880043974,-4.228160400000001,-8.523956,-0.7188591,-0.04580637,-0.040480047000000005,-0.14168017,7.38,49.26,-31.44
1554880043994,-4.280833,-8.404246,-0.670975,-0.05965481,-0.07243799,-0.1768339,7.32,49.38,-31.38
1554880044014,-4.309563,-8.341997000000001,-0.7763199000000001,-0.101200126,-0.10546118,-0.22796659,7.2,49.5,-31.38
1554880044034,-4.213794999999999,-8.380303999999999,-0.6422445999999999,-0.16405073,-0.14061491,-0.27377295,7.14,49.62,-31.32
1554880044054,-4.122815,-8.509591,-0.6278794,-0.20453078,-0.17896444,-0.31212249999999997,7.08,49.74,-31.32
1554880044074,-4.0940847,-8.500014,-0.4985925,-0.19920446,-0.22583607,-0.34514567,6.96,50.04,-31.32
1554880044094,-4.1419687000000005,-8.806473,-0.5943606,-0.17789917,-0.26844665,-0.36645097,6.96,50.28,-31.32
1554880044114,-4.1180267,-8.863934,-0.4890157,-0.15978967,-0.30360037,-0.386691,6.96,50.58,-31.26
1554880044134,-4.0892963,-9.108141999999999,-0.55605334,-0.15233281,-0.32597092,-0.39308259999999995,6.96,50.82,-31.26
1554880044154,-4.0797195,-9.242217,-0.6326678000000001,-0.16192019,-0.33981937,-0.39095205,6.9,51.0,-31.26
1554880044174,-4.0318356,-9.304466,-0.5895722,-0.17896444,-0.34088463,-0.36751625,6.84,51.18,-31.26
1554880044194,-3.8786068,-9.247005,-0.374094,-0.15552860000000002,-0.34834146,-0.3323625,6.72,51.42,-31.26
1554880044213,-3.9695864000000003,-9.318831,-0.57520694,-0.14807177,-0.34940675,-0.27590349999999997,6.48,51.6,-31.32
1554880044234,-3.8786068,-9.462483,-0.45070848,-0.13848437,-0.34408042,-0.21731395,6.18,51.72,-31.32
1554880044254,-3.7158010000000004,-9.237428999999999,-0.40761283,-0.13635385,-0.33875409999999995,-0.17789917,5.82,51.96,-31.32
1554880044273,-3.7445314,-9.275736,-0.27832595,-0.14061491,-0.32810146,-0.14487597,5.46,52.2,-31.38
1554880044294,-3.6631286,-9.20391,-0.4842273,-0.12037488,-0.3153183,-0.10972224,5.1,52.5,-31.38
1554880044314,-3.5913025999999997,-9.208698,-0.374094,-0.08948222,-0.29827404,-0.07776430000000001,4.8,52.86,-31.38
1554880044335,-3.4428620000000003,-9.218275,-0.39803603,-0.07563378,-0.26844665,-0.040480047000000005,4.32,53.28,-31.5
1554880044354,-3.4093432,-9.179967999999999,-0.350152,-0.06924219,-0.24927188,-0.02876214,4.26,53.46,-31.5
1554880044374,-3.2704793999999997,-9.270947,-0.52732295,-0.056459017,-0.22583607,-0.018109497,4.08,53.82,-31.62
1554880044394,-3.2034418999999996,-9.170391,-0.5177461,-0.051132694000000006,-0.2034655,-0.018109497,4.02,54.0,-31.74
1554880044414,-3.217807,-9.194333,-0.4842273,-0.041545313,-0.18322548,-0.02130529,3.96,54.06,-31.8
1554880044434,-3.1986535,-9.223063,-0.55605334,-0.047936900000000005,-0.16618125,-0.025566347000000003,3.9,54.06,-31.92
1554880044454,-3.2082303,-9.304466,-0.5129577000000001,-0.056459017,-0.14807177,-0.022370555,3.78,54.06,-32.04
1554880044474,-3.1316159,-9.357139,-0.4985925,-0.03834952,-0.13848437,-0.018109497,3.66,54.06,-32.1
1554880044493,-3.1986535,-9.261371,-0.5129577000000001,-0.014913702,-0.12676647,-0.02130529,3.6,54.12,-32.16
1554880044514,-3.193865,-9.218275,-0.4842273,-0.0063915867,-0.11717909,-0.015978966,3.48,54.12,-32.16
1554880044534,-3.1028854999999997,-9.170391,-0.5943606,-0.002130529,-0.09267801,-0.0053263223,3.36,54.18,-32.22
1554880044554,-3.1411927000000004,-9.012374000000001,-0.4794389,0.0,-0.07882957,-0.0010652645,3.18,54.18,-32.22
1554880044574,-3.2848446000000004,-9.036316000000001,-0.3453636,0.0,-0.058589544,-0.002130529,3.0,54.18,-32.22
1554880044594,-3.3087866000000004,-9.088988,-0.623091,0.0010652645,-0.039414786,-0.013848438000000001,2.88,54.18,-32.28
1554880044614,-3.2848446000000004,-9.012374000000001,-0.6278794,0.0031957934000000003,-0.018109497,-0.027696876000000002,2.7,54.18,-32.28
1554880044634,-3.3135752999999997,-9.0315275,-0.39803603,-0.010652645,0.0053263223,-0.03089267,2.58,54.18,-32.34
1554880044654,-3.3854012000000004,-9.012374000000001,-0.3453636,-0.014913702,0.017044231,-0.033023197000000004,2.46,54.18,-32.34
1554880044674,-3.4332852,-9.045893,-0.65182143,-0.013848438000000001,0.024501082,-0.036218993,2.34,54.12,-32.34
1554880044694,-3.4045547999999997,-9.1033535,-0.670975,-0.004261058,0.025566347000000003,-0.040480047000000005,2.28,54.12,-32.34
1554880044714,-3.4428620000000003,-9.007586,-0.45070848,0.002130529,0.029827405,-0.025566347000000003,2.28,54.06,-32.34
1554880044733,-3.3327288999999998,-9.1272955,-0.56084174,-0.0063915867,0.026631612000000002,-0.015978966,2.28,54.06,-32.34
1554880044753,-3.4811692,-9.146449,-0.56563014,-0.008522116,0.020240024,-0.018109497,2.28,54.06,-32.34
1554880044773,-3.4811692,-8.959702,-0.7954735,0.002130529,0.01917476,-0.029827405,2.34,54.06,-32.34
1554880044794,-3.4141315999999997,-8.96449,-0.6853402,-0.010652645,0.013848438000000001,-0.03834952,2.34,54.12,-32.34
1554880044814,-3.4141315999999997,-9.146449,-0.65182143,-0.03834952,0.0063915867,-0.05006743,2.34,54.12,-32.28
1554880044833,-3.3614593,-9.132083999999999,-0.3788824,-0.05539375,-0.007456851,-0.05539375,2.4,54.12,-32.28
1554880044853,-3.323152,-9.237428999999999,-0.66618663,-0.058589544,-0.013848438000000001,-0.06178534,2.4,54.18,-32.28
1554880044874,-3.3087866000000004,-9.179967999999999,-0.57520694,-0.033023197000000004,-0.024501082,-0.06285059999999999,2.4,54.24,-32.34
1554880044894,-3.265691,-9.242217,-0.5847838000000001,-0.02130529,-0.035153727999999995,-0.06391586,2.4,54.3,-32.34
1554880044914,-3.2944214,-9.285313,-0.5129577000000001,-0.007456851,-0.03834952,-0.07030745599999999,2.4,54.3,-32.34
1554880044934,-3.3901896000000002,-9.050680999999999,-0.65182143,-0.00958738,-0.03834952,-0.083090626,2.34,54.3,-32.34
1554880044953,-3.371036,-9.132083999999999,-0.47465047,-0.017044231,-0.039414786,-0.09161274,2.34,54.3,-32.34
1554880044973,-3.466804,-9.098564999999999,-0.3645172,-0.011717908999999999,-0.034088463,-0.10013486,2.22,54.3,-32.34
1554880044994,-3.3614593,-9.179967999999999,-0.54168814,-0.007456851,-0.035153727999999995,-0.10013486,2.22,54.3,-32.34
1554880045013,-3.3901896000000002,-9.32362,-0.5129577000000001,0.004261058,-0.03195793,-0.08948222,2.1,54.3,-32.28
1554880045034,-3.394978,-9.381081,-0.65660983,0.0,-0.027696876000000002,-0.07776430000000001,2.04,54.3,-32.28
1554880045055,-3.2465374,-9.390657000000001,-0.57520694,0.0,-0.01917476,-0.06178534,1.98,54.3,-32.28
1554880045074,-3.3518825,-9.304466,-0.52732295,0.008522116,-0.007456851,-0.04474111,1.86,54.3,-32.28
1554880045094,-3.2848446000000004,-9.270947,-0.56084174,0.007456851,0.0,-0.02876214,1.86,54.3,-32.22
1554880045114,-3.2369606,-9.199121,-0.7332243,0.014913702,0.008522116,-0.020240024,1.86,54.36,-32.22
1554880045134,-3.2561142000000003,-9.132083999999999,-0.45549688,0.01917476,0.025566347000000003,-0.004261058,1.86,54.36,-32.22
1554880045154,-3.3135752999999997,-9.088988,-0.6374562,0.027696876000000002,0.03195793,0.0063915867,1.86,54.42,-32.22
1554880045174,-3.217807,-8.940548,-0.4985925,0.040480047000000005,0.036218993,0.013848438000000001,1.86,54.42,-32.28
1554880045195,-3.3135752999999997,-8.854357,-0.52253455,0.053263225,0.041545313,0.011717908999999999,1.86,54.48,-32.28
1554880045214,-3.2800562000000006,-8.84478,-0.6853402,0.05219796,0.041545313,0.002130529,1.86,54.48,-32.28
1554880045234,-3.3375172999999996,-8.835203,-0.7667431,0.029827405,0.04580637,-0.015978966,1.92,54.54,-32.28
1554880045254,-3.3087866000000004,-8.969278,-0.6422445999999999,0.014913702,0.051132694000000006,-0.025566347000000003,1.98,54.54,-32.28
1554880045274,-3.2848446000000004,-9.1272955,-0.76195467,0.03195793,0.05539375,-0.033023197000000004,2.04,54.54,-32.34
1554880045294,-3.3087866000000004,-9.199121,-0.83856916,0.043675844000000005,0.060720075,-0.033023197000000004,2.16,54.54,-32.34
1554880045314,-3.3183637000000004,-9.223063,-0.9103952,0.03195793,0.06285059999999999,-0.023435817999999997,2.22,54.54,-32.34
1554880045334,-3.3566709,-9.218275,-0.86729956,0.018109497,0.06498113,-0.01917476,2.34,54.54,-32.34
1554880045353,-3.323152,-9.1512375,-0.7906850999999999,-0.0031957934000000003,0.06604639400000001,-0.013848438000000001,2.4,54.54,-32.4
1554880045374,-3.3758245000000002,-9.1512375,-0.8050503000000001,-0.022370555,0.07137272,-0.02130529,2.52,54.54,-32.4
1554880045395,-3.4189199999999995,-9.098564999999999,-0.7188591,-0.012783173500000002,0.068176925,-0.02130529,2.58,54.54,-32.4
1554880045413,-3.4093432,-8.993219999999999,-0.7236475,-0.035153727999999995,0.068176925,-0.02130529,2.64,54.48,-32.46
1554880045434,-3.4332852,-9.036316000000001,-0.56563014,-0.05752428,0.06178534,-0.022370555,2.64,54.48,-32.46
1554880045453,-3.4332852,-9.036316000000001,-0.56563014,-0.05752428,0.06178534,-0.022370555,2.64,54.48,-32.46
1554880045474,-3.4811692,-9.074622999999999,-0.53211135,-0.035153727999999995,0.0063915867,-0.017044231,2.7,54.24,-32.46
1554880045493,-3.4045547999999997,-9.036316000000001,-0.55126494,-0.013848438000000001,-0.015978966,-0.022370555,2.76,54.06,-32.46
1554880045513,-3.4428620000000003,-9.189544999999999,-0.5847838000000001,-0.007456851,-0.03195793,-0.027696876000000002,2.76,53.82,-32.46
1554880045534,-3.4428620000000003,-9.0794115,-0.52253455,0.002130529,-0.040480047000000005,-0.026631612000000002,2.76,53.58,-32.4
1554880045553,-3.3566709,-9.227852,-0.55605334,0.013848438000000001,-0.04474111,-0.025566347000000003,2.7,53.34,-32.34
1554880045574,-3.4237084,-9.227852,-0.56563014,0.033023197000000004,-0.047936900000000005,-0.027696876000000002,2.64,53.1,-32.28
1554880045593,-3.3327288999999998,-9.11293,-0.57041854,0.05006743,-0.043675844000000005,-0.03089267,2.58,52.92,-32.22
1554880045613,-3.3279405,-9.041103999999999,-0.6039374,0.058589544,-0.026631612000000002,-0.034088463,2.46,52.74,-32.22
1554880045633,-3.2848446000000004,-9.122507,-0.7428011,0.058589544,-0.023435817999999997,-0.034088463,2.34,52.62,-32.16
1554880045653,-3.3279405,-9.036316000000001,-0.6183026,0.04261058,-0.011717908999999999,-0.039414786,2.28,52.56,-32.16
1554880045674,-3.2992098,-9.088988,-0.8242039000000001,0.039414786,0.0010652645,-0.040480047000000005,2.16,52.5,-32.16
1554880045693,-3.2465374,-9.227852,-0.9008184000000001,0.029827405,0.002130529,-0.03834952,2.1,52.5,-32.16
1554880045714,-3.2704793999999997,-9.026739,-0.7332243,0.025566347000000003,0.0,-0.03089267,2.04,52.56,-32.22
1554880045734,-3.3279405,-9.11293,-0.74758947,0.027696876000000002,0.0031957934000000003,-0.023435817999999997,2.04,52.68,-32.22
1554880045753,-3.3566709,-9.165602999999999,-0.7763199000000001,0.029827405,0.002130529,-0.018109497,2.04,52.74,-32.22
1554880045773,-3.3901896000000002,-9.045893,-0.74758947,0.02130529,-0.004261058,-0.018109497,2.1,52.92,-32.28
1554880045794,-3.3039982000000006,-9.017161999999999,-0.66618663,0.007456851,-0.007456851,-0.018109497,2.16,53.1,-32.28
1554880045814,-3.3662476999999997,-9.036316000000001,-0.76195467,0.0010652645,-0.007456851,-0.018109497,2.22,53.34,-32.28
1554880045833,-3.2848446000000004,-9.093777000000001,-0.7236475,0.0010652645,-0.015978966,-0.025566347000000003,2.28,53.52,-32.28
1554880045853,-3.3758245000000002,-9.098564999999999,-0.5895722,-0.008522116,-0.01917476,-0.020240024,2.34,53.76,-32.34
1554880045874,-3.3758245000000002,-9.160814,-0.623091,-0.007456851,-0.03195793,-0.008522116,2.4,53.94,-32.34
1554880045893,-3.2800562000000006,-9.132083999999999,-0.7380127,0.00958738,-0.037284255,-0.008522116,2.4,54.0,-32.34
1554880045913,-3.3758245000000002,-9.045893,-0.57041854,0.012783173500000002,-0.040480047000000005,-0.0010652645,2.46,54.06,-32.34
1554880045934,-3.2992098,-8.998009,-0.55605334,-0.004261058,-0.034088463,0.0010652645,2.46,54.06,-32.34
1554880045953,-3.3901896000000002,-9.021951,-0.47465047,-0.012783173500000002,-0.027696876000000002,0.002130529,2.46,54.06,-32.34
1554880045974,-3.4332852,-9.012374000000001,-0.6374562,-0.012783173500000002,-0.024501082,-0.004261058,2.46,54.12,-32.28
1554880045993,-3.3375172999999996,-9.093777000000001,-0.43634325,-0.018109497,-0.024501082,-0.0053263223,2.52,54.12,-32.22
1554880046014,-3.5577837999999997,-9.036316000000001,-0.38367084,-0.012783173500000002,-0.025566347000000003,-0.007456851,2.52,54.12,-32.16
1554880046035,-3.5194763999999994,-9.088988,-0.41718966,-0.013848438000000001,-0.026631612000000002,-0.00958738,2.52,54.12,-32.16
1554880046054,-3.4859576,-9.256582,-0.55126494,-0.017044231,-0.02130529,-0.013848438000000001,2.52,54.18,-32.1
1554880046073,-3.5194763999999994,-9.342773,-0.4890157,-0.0010652645,-0.023435817999999997,-0.010652645,2.52,54.3,-32.1
1554880046094,-3.4715924,-9.299678,-0.5943606,0.017044231,-0.027696876000000002,-0.010652645,2.52,54.42,-32.1
1554880046114,-3.4045547999999997,-9.194333,-0.52253455,0.022370555,-0.037284255,0.0,2.46,54.48,-32.1
1554880046133,-3.4572272000000006,-9.213486999999999,-0.42197806,0.020240024,-0.047936900000000005,0.010652645,2.46,54.48,-32.1
1554880046153,-3.5051112,-9.041103999999999,-0.5033809,0.043675844000000005,-0.05752428,0.010652645,2.4,54.42,-32.1
1554880046174,-3.4955344,-8.84478,-0.43155485,0.049002163,-0.07030745599999999,0.002130529,2.4,54.42,-32.1
1554880046193,-3.5529952000000007,-8.96449,-0.46986207,0.036218993,-0.082025364,-0.007456851,2.4,54.42,-32.1
1554880046214,-3.5482068,-8.921394,-0.43634325,0.015978966,-0.09374327,-0.011717908999999999,2.4,54.36,-32.04
1554880046234,-3.5338415999999997,-8.911817999999998,-0.46028528,0.004261058,-0.10226539,-0.00958738,2.4,54.24,-32.04
1554880046254,-3.5290532,-9.0315275,-0.6183026,-0.0010652645,-0.112918034,-0.0031957934000000003,2.4,54.18,-31.98
1554880046273,-3.4189199999999995,-9.017161999999999,-0.670975,0.0063915867,-0.112918034,-0.0010652645,2.4,54.06,-31.98
1554880046295,-3.323152,-9.036316000000001,-0.6135142,0.02876214,-0.113983296,0.0031957934000000003,2.34,54.06,-31.98
1554880046313,-3.3183637000000004,-9.088988,-0.670975,0.029827405,-0.101200126,0.00958738,2.28,54.06,-31.98
1554880046334,-3.265691,-9.055469500000001,-0.623091,0.015978966,-0.09054748,0.0053263223,2.22,54.06,-32.04
1554880046354,-3.3566709,-9.0794115,-0.5033809,-0.014913702,-0.068176925,0.0010652645,2.16,54.06,-32.04
1554880046375,-3.3614593,-9.021951,-0.57041854,-0.026631612000000002,-0.056459017,-0.0031957934000000003,2.1,54.06,-32.1
1554880046394,-3.3566709,-9.141661000000001,-0.7140707,-0.023435817999999997,-0.04474111,-0.00958738,2.04,54.06,-32.16
1554880046413,-3.3375172999999996,-9.160814,-0.7092823,-0.01917476,-0.041545313,-0.015978966,1.98,54.06,-32.22
1554880046433,-3.323152,-9.256582,-0.7188591,-0.023435817999999997,-0.026631612000000002,-0.02130529,1.98,54.12,-32.28
1554880046454,-3.3183637000000004,-9.065046,-0.52732295,-0.0063915867,-0.018109497,-0.029827405,1.92,54.12,-32.34
1554880046473,-3.4332852,-9.0842,-0.56084174,0.004261058,-0.0053263223,-0.035153727999999995,1.92,54.12,-32.4
1554880046493,-3.3183637000000004,-9.189544999999999,-0.5177461,-0.0053263223,0.007456851,-0.024501082,1.86,54.12,-32.46
1554880046514,-3.3662476999999997,-9.1512375,-0.46986207,-0.01917476,0.023435817999999997,-0.033023197000000004,1.86,54.12,-32.52
1554880046534,-3.4811692,-9.088988,-0.45070848,-0.033023197000000004,0.033023197000000004,-0.02876214,1.8,54.18,-32.52
1554880046554,-3.5098996,-9.11293,-0.47465047,-0.024501082,0.041545313,-0.03089267,1.8,54.18,-32.52
1554880046574,-3.5194763999999994,-9.069835000000001,-0.6039374,-0.010652645,0.04580637,-0.026631612000000002,1.74,54.18,-32.52
1554880046594,-3.5482068,-9.141661000000001,-0.53689975,-0.012783173500000002,0.04474111,-0.02130529,1.74,54.18,-32.52
1554880046614,-3.5529952000000007,-8.954913000000001,-0.5033809,-0.014913702,0.041545313,-0.023435817999999997,1.74,54.24,-32.52
1554880046634,-3.5146879999999996,-9.093777000000001,-0.5177461,-0.027696876000000002,0.033023197000000004,-0.022370555,1.74,54.24,-32.52
1554880046654,-3.5051112,-9.108141999999999,-0.6183026,-0.02876214,0.022370555,-0.022370555,1.8,54.24,-32.52
1554880046674,-3.5960910000000004,-9.074622999999999,-0.55126494,-0.026631612000000002,0.014913702,-0.029827405,1.86,54.3,-32.52
1554880046694,-3.5482068,-9.160814,-0.4985925,-0.026631612000000002,0.008522116,-0.027696876000000002,1.98,54.3,-32.52
1554880046714,-3.5673605999999998,-9.0315275,-0.65182143,-0.018109497,0.0053263223,-0.024501082,2.04,54.3,-32.52
1554880046734,-3.6056678,-9.208698,-0.6901286,-0.020240024,0.0,-0.011717908999999999,2.16,54.3,-32.52
1554880046755,-3.6343982000000006,-9.026739,-0.6422445999999999,-0.013848438000000001,-0.007456851,-0.008522116,2.22,54.3,-32.58
1554880046774,-3.643975,-9.007586,-0.66618663,-0.011717908999999999,-0.008522116,-0.0010652645,2.34,54.3,-32.58
1554880046793,-3.5482068,-9.012374000000001,-0.6757634,-0.007456851,-0.018109497,0.008522116,2.4,54.3,-32.58
1554880046814,-3.5386300000000004,-9.026739,-0.7236475,-0.0010652645,-0.027696876000000002,0.012783173500000002,2.46,54.3,-32.58
1554880046834,-3.5098996,-8.868722,-0.74758947,0.0,-0.03089267,0.017044231,2.46,54.24,-32.58
1554880046854,-3.3758245000000002,-9.041103999999999,-0.6422445999999999,-0.014913702,-0.033023197000000004,0.012783173500000002,2.46,54.24,-32.58
1554880046874,-3.4284968,-9.093777000000001,-0.7763199000000001,-0.007456851,-0.029827405,0.008522116,2.46,54.24,-32.58
1554880046894,-3.466804,-9.069835000000001,-0.6278794,-0.017044231,-0.029827405,0.0031957934000000003,2.46,54.24,-32.58
1554880046914,-3.4284968,-9.184756,-0.65660983,-0.011717908999999999,-0.03195793,0.002130529,2.46,54.24,-32.58
1554880046934,-3.4284968,-9.122507,-0.6901286,-0.018109497,-0.027696876000000002,-0.0063915867,2.4,54.3,-32.64
1554880046954,-3.490746,-9.041103999999999,-0.7380127,-0.022370555,-0.018109497,-0.010652645,2.4,54.3,-32.64
1554880046974,-3.4763808,-9.256582,-0.670975,-0.037284255,-0.010652645,-0.012783173500000002,2.34,54.3,-32.7
1554880046994,-3.5098996,-9.146449,-0.694917,-0.047936900000000005,-0.0063915867,-0.020240024,2.28,54.36,-32.7
1554880047014,-3.5098996,-9.165602999999999,-0.56084174,-0.025566347000000003,-0.0053263223,-0.023435817999999997,2.22,54.36,-32.76
1554880047035,-3.5529952000000007,-9.074622999999999,-0.57999533,-0.007456851,-0.002130529,-0.024501082,2.22,54.36,-32.76
1554880047054,-3.6104562000000007,-9.055469500000001,-0.53689975,-0.010652645,-0.004261058,-0.020240024,2.16,54.36,-32.76
1554880047074,-3.5960910000000004,-9.093777000000001,-0.7428011,-0.008522116,-0.0031957934000000003,-0.018109497,2.1,54.36,-32.76
1554880047094,-3.643975,-9.122507,-0.5943606,0.0063915867,-0.0053263223,-0.015978966,2.04,54.36,-32.76
1554880047114,-3.5960910000000004,-9.045893,-0.5943606,0.0010652645,-0.0031957934000000003,-0.011717908999999999,2.04,54.36,-32.76
1554880047134,-3.6104562000000007,-9.026739,-0.6422445999999999,-0.0010652645,-0.0010652645,-0.012783173500000002,2.04,54.36,-32.7
1554880047154,-3.6056678,-9.026739,-0.7715314999999999,0.012783173500000002,0.0010652645,-0.00958738,2.04,54.42,-32.64
1554880047174,-3.6248214,-9.021951,-0.55126494,0.015978966,0.002130529,-0.00958738,2.04,54.48,-32.52
1554880047194,-3.6248214,-9.0315275,-0.55126494,0.014913702,0.004261058,-0.00958738,2.1,54.54,-32.4
1554880047214,-3.6152446000000005,-8.983644,-0.83856916,0.014913702,0.002130529,-0.015978966,2.1,54.54,-32.22
1554880047233,-3.5529952000000007,-8.969278,-0.7667431,0.008522116,0.0031957934000000003,-0.026631612000000002,2.1,54.6,-32.1
1554880047254,-3.4476504,-8.930971000000001,-0.6087258000000001,0.002130529,0.0010652645,-0.035153727999999995,2.1,54.66,-32.04
1554880047274,-3.5003227999999997,-8.983644,-0.694917,0.0010652645,-0.002130529,-0.03834952,2.1,54.66,-31.92
1554880047293,-3.6056678,-8.993219999999999,-0.66139823,-0.012783173500000002,-0.002130529,-0.04474111,2.1,54.66,-31.92
1554880047313,-3.6679169999999996,-9.0315275,-0.6326678000000001,-0.008522116,-0.0010652645,-0.056459017,2.16,54.66,-31.98
1554880047334,-3.5913025999999997,-9.0315275,-0.66618663,-0.010652645,-0.0010652645,-0.06285059999999999,2.22,54.6,-32.04
1554880047354,-3.5625722,-9.069835000000001,-0.6183026,-0.011717908999999999,-0.0031957934000000003,-0.06285059999999999,2.22,54.6,-32.1
1554880047373,-3.5865142,-9.146449,-0.694917,0.0,-0.0053263223,-0.06391586,2.28,54.6,-32.16
1554880047393,-3.6487634,-9.20391,-0.7188591,0.0031957934000000003,-0.004261058,-0.06391586,2.34,54.6,-32.22
1554880047414,-3.6296098,-9.280524,-0.6183026,0.0010652645,-0.0053263223,-0.060720075,2.34,54.6,-32.28
1554880047434,-3.5482068,-9.122507,-0.54168814,0.0010652645,-0.004261058,-0.053263225,2.4,54.6,-32.34
1554880047454,-3.6296098,-9.179967999999999,-0.57041854,0.017044231,-0.002130529,-0.046871635999999994,2.4,54.66,-32.34
1554880047474,-3.6774937999999993,-9.0794115,-0.4842273,0.022370555,-0.0010652645,-0.04261058,2.34,54.66,-32.34
1554880047494,-3.5673605999999998,-8.983644,-0.6278794,0.022370555,-0.002130529,-0.05006743,2.34,54.72,-32.34
1554880047515,-3.5194763999999994,-8.988432000000001,-0.55605334,0.0053263223,-0.004261058,-0.05219796,2.28,54.72,-32.28
1554880047534,-3.5721489999999996,-9.1033535,-0.52253455,0.007456851,-0.008522116,-0.051132694000000006,2.22,54.78,-32.28
1554880047554,-3.6104562000000007,-9.055469500000001,-0.4842273,0.02876214,-0.014913702,-0.046871635999999994,2.22,54.78,-32.28
1554880047575,-3.6679169999999996,-9.012374000000001,-0.56084174,0.06285059999999999,-0.011717908999999999,-0.036218993,2.22,54.84,-32.22
1554880047594,-3.6631286,-9.098564999999999,-0.6135142,0.07030745599999999,-0.0063915867,-0.029827405,2.22,54.84,-32.22
1554880047614,-3.7493198,-9.0842,-0.57041854,0.05752428,-0.011717908999999999,-0.020240024,2.28,54.84,-32.22
1554880047634,-3.7349546,-9.136872,-0.38845924,0.05752428,-0.014913702,-0.008522116,2.34,54.84,-32.22
1554880047654,-3.6870705999999998,-9.199121,-0.45549688,0.07456851,-0.024501082,0.010652645,2.46,54.84,-32.22
1554880047674,-3.6391866000000004,-9.093777000000001,-0.55605334,0.10226539,-0.033023197000000004,0.026631612000000002,2.52,54.78,-32.28
1554880047694,-3.5721489999999996,-9.0794115,-0.6278794,0.11717909,-0.043675844000000005,0.037284255,2.58,54.78,-32.28
1554880047713,-3.6152446000000005,-9.050680999999999,-0.6901286,0.11504856,-0.051132694000000006,0.04580637,2.64,54.66,-32.28
1554880047734,-3.5051112,-8.921394,-0.4794389,0.11930962,-0.053263225,0.046871635999999994,2.64,54.6,-32.34
1554880047754,-3.4093432,-9.036316000000001,-0.6039374,0.10439592,-0.053263225,0.046871635999999994,2.64,54.48,-32.4
1554880047775,-3.4141315999999997,-9.041103999999999,-0.55605334,0.10226539,-0.04580637,0.037284255,2.64,54.42,-32.4
1554880047794,-3.4476504,-9.021951,-0.46986207,0.09587380000000001,-0.03834952,0.037284255,2.64,54.36,-32.4
1554880047814,-3.4955344,-9.141661000000001,-0.5081693,0.1107875,-0.029827405,0.03834952,2.58,54.18,-32.46
1554880047834,-3.4332852,-9.017161999999999,-0.56084174,0.10759171,-0.020240024,0.039414786,2.52,54.12,-32.52
1554880047853,-3.4141315999999997,-8.969278,-0.7140707,0.08522116,-0.014913702,0.03834952,2.46,54.0,-32.58
1554880047874,-3.4476504,-8.921394,-0.55605334,0.07456851,-0.010652645,0.029827405,2.46,53.94,-32.64
1554880047894,-3.3806129,-8.950125,-0.6135142,0.08522116,-0.008522116,0.015978966,2.4,53.88,-32.7
1554880047914,-3.2800562000000006,-9.017161999999999,-0.75716627,0.07243799,0.0,0.0,2.4,53.82,-32.76
1554880047934,-3.4572272000000006,-8.950125,-0.56563014,0.040480047000000005,0.007456851,-0.013848438000000001,2.4,53.7,-32.82
1554880047953,-3.4189199999999995,-8.969278,-0.56084174,0.024501082,0.013848438000000001,-0.027696876000000002,2.4,53.7,-32.94
1554880047974,-3.4189199999999995,-9.108141999999999,-0.670975,0.008522116,0.020240024,-0.03089267,2.4,53.64,-33.0
1554880047994,-3.4380736000000005,-9.165602999999999,-0.6087258000000001,0.004261058,0.029827405,-0.037284255,2.46,53.64,-33.06
1554880048014,-3.466804,-9.098564999999999,-0.52253455,0.017044231,0.03089267,-0.03834952,2.46,53.58,-33.12
1554880048034,-3.4811692,-9.108141999999999,-0.43155485,0.018109497,0.033023197000000004,-0.03834952,2.46,53.58,-33.18
1554880048054,-3.5386300000000004,-9.093777000000001,-0.4842273,0.020240024,0.040480047000000005,-0.037284255,2.46,53.52,-33.18
1554880048074,-3.6056678,-9.11293,-0.38367084,0.015978966,0.05006743,-0.02876214,2.46,53.46,-33.24
1554880048093,-3.6583402,-9.098564999999999,-0.3645172,0.026631612000000002,0.05965481,-0.023435817999999997,2.46,53.46,-33.24
1554880048113,-3.7062242,-9.108141999999999,-0.077213004,0.04261058,0.07563378,-0.012783173500000002,2.4,53.46,-33.24
1554880048133,-3.7876269999999996,-8.950125,-0.24480712,0.06498113,0.09161274,-0.010652645,2.46,53.46,-33.24
1554880048154,-3.7828386,-8.959702,-0.06284779,0.07243799,0.10333065,-0.00958738,2.52,53.46,-33.24
1554880048174,-3.7972038,-9.088988,-0.05327099,0.07030745599999999,0.11504856,-0.007456851,2.52,53.46,-33.24
1554880048194,-3.7972038,-9.247005,-0.10594343,0.082025364,0.11824436,0.00958738,2.58,53.4,-33.24
1554880048214,-3.8881836000000005,-9.35235,-0.06284779,0.12783173,0.13315806,0.022370555,2.58,53.4,-33.24
1554880048234,-3.9695864000000003,-9.333197,-0.22086509999999998,0.19920446,0.1470065,0.035153727999999995,2.64,53.4,-33.24
1554880048254,-3.9935283999999998,-9.390657000000001,-0.16340427,0.23329292,0.15126756,0.043675844000000005,2.7,53.34,-33.18
1554880048274,-3.9504328,-9.467272,-0.24480712,0.23329292,0.14807177,0.06604639400000001,2.76,53.22,-33.18
1554880048294,-3.9217023999999996,-9.428965,-0.11552023,0.25992453,0.13635385,0.094808534,2.76,53.1,-33.18
1554880048314,-3.8019924,-9.280524,-0.20649989,0.29294774,0.128897,0.12463594,2.76,52.98,-33.24
1554880048334,-3.6966474000000002,-8.969278,-0.12509704,0.31957933,0.12570119999999999,0.13954964,2.76,52.86,-33.24
1554880048354,-3.7493198,-8.959702,-0.32142156,0.30892670000000005,0.11930962,0.14594123,2.82,52.68,-33.3
1554880048374,-3.7972038,-9.0794115,-0.19213470000000002,0.27377295,0.11717909,0.15659387,2.94,52.44,-33.36
1554880048394,-3.7349546,-8.96449,-0.3357868,0.25992453,0.10013486,0.165116,3.0,52.26,-33.42
1554880048414,-3.8307227999999998,-9.017161999999999,-0.21607670000000004,0.257794,0.09374327,0.18322548,3.12,52.02,-33.42
1554880048434,-3.8498763999999994,-8.81605,-0.038905777,0.2545982,0.084155895,0.19707392,3.3,51.78,-33.48
1554880048454,-3.8498763999999994,-8.686762,-0.17298107,0.24394555,0.07669904,0.20985709,3.48,51.48,-33.48
1554880048474,-3.916914,-8.715492999999999,-0.22086509999999998,0.23542345,0.07243799,0.2130529,3.66,50.94,-33.54
1554880048494,-3.9600096,-8.519167999999999,-0.06284779,0.22050974,0.07137272,0.21092236,3.84,50.46,-33.48
1554880048514,-3.916914,-8.523956,-0.0724246,0.20879184,0.07030745599999999,0.19600865,3.96,49.98,-33.48
1554880048533,-3.9073372,-8.365939,0.08559271,0.19600865,0.07137272,0.18961707,4.08,49.62,-33.42
1554880048553,-3.9073372,-8.351574000000001,0.08080431,0.17257284,0.07989483,0.18109496,4.2,49.2,-33.36
1554880048574,-4.209007,-8.332419999999999,0.18614918,0.16618125,0.09161274,0.15765914,4.26,48.78,-33.36
1554880048594,-4.271256,-8.5383215,0.24839842,0.165116,0.10333065,0.08948222,4.38,48.48,-33.36
1554880048615,-4.0414124,-8.418612,-0.18255788,0.10652645,0.12250541,-0.002130529,4.62,48.24,-33.48
1554880048634,-3.9504328,-8.461707,0.061650693,0.04474111,0.128897,-0.029827405,4.68,48.24,-33.54
1554880048653,-3.9791632000000003,-8.581417,0.032920275,-0.027696876000000002,0.13954964,-0.023435817999999997,4.8,48.18,-33.6
1554880048674,-4.0222587999999995,-8.638878,0.18614918,-0.040480047000000005,0.13528858,-0.023435817999999997,5.04,48.12,-33.78
1554880048694,-4.19943,-8.509591,0.037708677,-0.004261058,0.11717909,-0.033023197000000004,5.22,48.06,-33.84
1554880048714,-4.209007,-8.428188,0.05207389,-0.013848438000000001,0.101200126,-0.051132694000000006,5.4,48.0,-33.96
1554880048734,-4.1946416,-8.447341999999999,0.090381116,-0.094808534,0.07776430000000001,-0.07243799,5.52,47.94,-33.96
1554880048754,-4.2042184,-8.629301,-0.06284779,-0.17150758,0.047936900000000005,-0.08948222,5.58,47.88,-33.96
1554880048774,-4.232949,-8.69155,-0.09636662,-0.23435818,0.02876214,-0.09267801,5.7,47.88,-33.96
1554880048794,-4.213794999999999,-9.065046,0.0041898529999999995,-0.23648871,0.02130529,-0.080960095,5.76,47.82,-33.9
1554880048814,-4.309563,-9.065046,0.29628247,-0.1949434,0.00958738,-0.06285059999999999,5.82,47.82,-33.84
1554880048834,-4.367024,-9.017161999999999,0.12389994,-0.112918034,-0.011717908999999999,-0.047936900000000005,5.88,47.94,-33.78
1554880048854,-4.4436383,-9.007586,0.14784196,-0.025566347000000003,-0.026631612000000002,-0.024501082,5.88,48.0,-33.72
1554880048874,-4.362235500000001,-8.854357,0.11432313,0.025566347000000003,-0.033023197000000004,-0.011717908999999999,5.94,48.12,-33.6
1554880048893,-4.453215,-8.839992,0.037708677,0.00958738,-0.036218993,0.00958738,6.0,48.18,-33.54
1554880048914,-4.4484267,-8.930971000000001,0.15263036,-0.00958738,-0.04474111,0.035153727999999995,6.0,48.3,-33.42
1554880048933,-4.4244847,-8.835203,0.037708677,-0.0031957934000000003,-0.046871635999999994,0.06178534,6.0,48.42,-33.36
1554880048953,-4.5298295,-8.787319,0.076015905,0.014913702,-0.054328485999999995,0.08628642,6.0,48.6,-33.3
1554880048974,-4.630386,-8.835203,-0.091578215,0.014913702,-0.06604639400000001,0.10546118,5.94,48.72,-33.24
1554880048994,-4.510676,-8.782531,0.0041898529999999995,0.023435817999999997,-0.06498113,0.12357068,5.94,48.72,-33.18
1554880049014,-4.644751,-8.859145,-0.038905777,0.012783173500000002,-0.054328485999999995,0.15339808,5.94,48.78,-33.18
1554880049034,-4.7357309999999995,-8.926183,0.19093758,-0.0010652645,-0.046871635999999994,0.17044231,5.94,48.84,-33.12
1554880049053,-4.7165775000000005,-8.835203,0.17178397,0.011717908999999999,-0.06178534,0.21731395,5.94,48.84,-33.12
1554880049074,-4.7931919999999995,-9.045893,0.12868834,0.0063915867,-0.07563378,0.27483824,5.88,48.84,-33.12
1554880049094,-4.9320555,-9.0842,0.11432313,0.020240024,-0.099069595,0.33768883,5.88,48.84,-33.12
1554880049115,-5.133168,-9.395446000000002,0.13826515,0.040480047000000005,-0.11930962,0.39521313,5.88,48.78,-33.18
1554880049134,-5.2385135,-9.294889,0.109534726,0.08522116,-0.1470065,0.45912898,5.88,48.66,-33.18
1554880049154,-5.334281400000001,-9.256582,0.31064767,0.13528858,-0.165116,0.5294364,5.88,48.54,-33.18
1554880049174,-5.3390699999999995,-9.108141999999999,0.3537433,0.18216023,-0.19281286,0.60080916,5.88,48.36,-33.24
1554880049194,-5.559336,-9.0315275,0.45908818,0.22690132,-0.2130529,0.65513766,5.88,48.12,-33.3
1554880049214,-5.482722,-8.614936,0.30107087,0.257794,-0.23755397,0.70200926,5.94,47.82,-33.42
1554880049234,-5.410896,-8.389880999999999,0.3441665,0.27164245,-0.25566345,0.73290193,6.0,47.46,-33.54
1554880049254,-5.353435,-8.069058,0.3585317,0.29933932,-0.26312032,0.74248934,6.12,46.92,-33.72
1554880049274,-5.1092260000000005,-7.685986,0.55006784,0.32170987,-0.2545982,0.7233145999999999,6.24,46.32,-33.84
1554880049294,-5.090072599999999,-7.374739599999999,0.46866497,0.32384038,-0.23755397,0.6775081999999999,6.42,45.6,-33.96
1554880049314,-4.9703627,-7.0491285,0.40641573,0.30360037,-0.20879184,0.6114618,6.54,44.88,-34.08
1554880049335,-4.941632299999999,-6.9246297000000006,0.48303019999999997,0.25140239999999997,-0.17576863,0.53476274,6.66,44.22,-34.26
1554880049355,-4.9320555,-6.8767457,0.49739540000000004,0.18855181,-0.15126756,0.44528055,6.78,43.5,-34.44
1554880049374,-5.023035,-6.747458999999999,0.7368156,0.15020229,-0.113983296,0.35153726,6.9,42.78,-34.62
1554880049394,-5.104438,-6.7761892999999995,0.75118077,0.14807177,-0.084155895,0.25672874,6.96,42.0,-34.8
1554880049414,-5.2002063,-6.785766000000001,0.7942764,0.13422333,-0.049002163,0.165116,6.96,41.28,-34.98
1554880049434,-5.3390699999999995,-6.9342065,0.5931635000000001,0.07882957,-0.02876214,0.07137272,6.9,40.62,-35.16
1554880049454,-5.482722,-7.2406645,0.6362591,0.026631612000000002,-0.007456851,0.022370555,6.96,40.2,-35.34
1554880049474,-5.722142,-7.49445,0.54527944,-0.010652645,0.014913702,-0.027696876000000002,7.02,39.72,-35.46
1554880049494,-5.8801594,-7.8104844,0.6937199000000001,-0.05006743,0.01917476,-0.03834952,7.08,39.12,-35.76
1554880049513,-6.114791,-8.102577,0.43035775,-0.06178534,0.007456851,-0.026631612000000002,7.14,38.82,-35.88
1554880049534,-6.220136,-8.174403,0.56922144,-0.040480047000000005,-0.010652645,0.011717908999999999,7.2,38.7,-36.0
1554880049554,-6.3302693,-8.15525,0.52133745,0.004261058,-0.02876214,0.060720075,7.26,38.7,-36.06
1554880049574,-6.349423000000001,-7.9062524000000005,0.6218939,0.023435817999999997,-0.05219796,0.10759171,7.26,38.76,-36.12
1554880049594,-6.2823853,-7.8152729999999995,0.54527944,0.00958738,-0.07989483,0.1438107,7.32,38.76,-36.18
1554880049613,-6.220136,-7.623736999999999,0.75118077,0.0,-0.08628642,0.16405073,7.32,38.82,-36.24
1554880049634,-6.2345014,-7.417835,0.8948328999999999,0.0063915867,-0.096939065,0.17576863,7.26,38.82,-36.3
1554880049654,-6.1243677000000005,-7.269394999999999,0.8038531999999999,0.01917476,-0.10226539,0.1768339,7.26,38.82,-36.24
1554880049674,-6.0142345,-7.2981253,0.9379284999999999,0.029827405,-0.10652645,0.15659387,7.26,38.82,-36.24
1554880049694,-6.0381765,-7.0491285,0.88046765,0.02876214,-0.10013486,0.12996227,7.2,38.76,-36.3
1554880049714,-6.1483099999999995,-7.255029700000001,0.9427169,-0.017044231,-0.096939065,0.112918034,7.2,38.76,-36.3
1554880049734,-6.3446345,-7.331644,0.95229375,-0.05752428,-0.10333065,0.10226539,7.2,38.76,-36.36
1554880049754,-6.4020953,-7.4609309999999995,0.9139864999999999,-0.05219796,-0.111852765,0.1107875,7.2,38.7,-36.48
1554880049773,-6.5218053,-7.6045833,1.0097545,-0.015978966,-0.12144015,0.12676647,7.2,38.64,-36.54
1554880049793,-6.564901,-7.5183919999999995,0.86131406,0.002130529,-0.13635385,0.15233281,7.26,38.58,-36.66
1554880049814,-6.7372837,-7.719505000000001,0.99538934,-0.02876214,-0.1587244,0.19281286,7.26,38.52,-36.72
1554880049834,-6.794744500000001,-7.772177,1.1007341999999998,-0.02876214,-0.18002969,0.23542345,7.32,38.46,-36.84
1554880049854,-6.617573299999999,-7.719505000000001,1.0289081,0.0053263223,-0.20559604,0.27590349999999997,7.38,38.4,-36.9
1554880049873,-6.4787097000000005,-7.4705076,1.0480618,0.051132694000000006,-0.22264028,0.30892670000000005,7.38,38.28,-36.96
1554880049894,-6.5361705,-7.317278999999999,0.8948328999999999,0.03834952,-0.22690132,0.33555830000000003,7.32,38.1,-36.96
1554880049914,-6.469133,-7.283760000000001,0.96187055,0.0010652645,-0.23009712,0.3568636,7.26,37.8,-37.02
1554880049934,-6.5601125,-7.029975,1.134253,-0.036218993,-0.23329292,0.37603834,7.2,37.5,-37.14
1554880049954,-6.6415157,-6.848015299999999,1.062427,-0.033023197000000004,-0.24074976,0.3749731,7.02,37.26,-37.26
1554880049974,-6.794744500000001,-6.9725137,1.1486181999999998,-0.025566347000000003,-0.2545982,0.37603834,6.84,36.96,-37.38
1554880049993,-6.9288197,-6.7761892999999995,1.0815806000000001,-0.0053263223,-0.26525086,0.37390783,6.66,36.66,-37.44
1554880050014,-6.924031299999999,-6.7666125,1.1821371,0.018109497,-0.2790993,0.37284255,6.48,36.36,-37.56
1554880050034,-6.95755,-6.824073299999999,1.2826935,0.049002163,-0.30999196,0.37710363,6.3,36.06,-37.68
1554880050054,-6.943185000000001,-6.8623804999999996,1.2731166999999999,0.06604639400000001,-0.33449304,0.37923414,6.18,35.82,-37.8
1554880050075,-6.8665705,-6.938994999999999,1.311424,0.09161274,-0.34514567,0.37710363,6.0,35.58,-38.16
1554880050094,-6.780379300000001,-6.900687700000001,1.311424,0.10333065,-0.34514567,0.38882150000000004,5.94,35.52,-38.22
1554880050114,-6.9383965,-6.824073299999999,1.3210008,0.080960095,-0.33875409999999995,0.41225734,5.94,35.28,-38.4
1554880050134,-7.0006455999999995,-6.7091517000000005,1.5699978,0.054328485999999995,-0.32490566,0.44741106,5.88,34.62,-38.64
1554880050153,-7.0820484,-6.488885,1.6418238,0.06285059999999999,-0.32384038,0.46658584,5.76,34.02,-38.76
1554880050173,-7.1586633,-6.508039,1.5891514,0.07137272,-0.3334278,0.4825648,5.7,33.78,-38.88
1554880050194,-7.168239999999999,-6.3548098,1.7184383,0.09374327,-0.33449304,0.5028047999999999,5.46,32.88,-39.12
1554880050213,-7.129933,-6.3021374,1.6849195,0.12037488,-0.33129725,0.5123922000000001,5.28,32.28,-39.3
1554880050233,-7.192182000000001,-6.311714,1.6944963,0.1470065,-0.32384038,0.515588,5.16,31.98,-39.36
1554880050254,-7.311891999999999,-6.192004,1.9578583999999999,0.18322548,-0.30466563,0.5091964,4.92,30.96,-39.66
1554880050274,-7.273585000000001,-6.091448000000001,1.8716671000000003,0.18109496,-0.28442562,0.50600064,4.74,30.3,-39.96
1554880050293,-7.1826053,-6.0244102,1.7663223000000001,0.15978967,-0.25885928,0.51026165,4.56,29.76,-40.26
1554880050313,-7.2448545,-5.837662,1.8237831999999998,0.112918034,-0.22050974,0.5187838,4.38,29.28,-40.56
1554880050334,-7.254431200000001,-5.617396,1.8908207,0.054328485999999995,-0.19813919,0.5294364,4.2,28.8,-40.86
1554880050354,-7.28795,-5.521628,2.178125,0.008522116,-0.17789917,0.53476274,4.08,28.26,-41.16
1554880050375,-7.2113357,-5.535993,2.0248961,-0.002130529,-0.16298546,0.5230448000000001,3.9,27.72,-41.4
1554880050393,-7.2927384,-5.2678423,2.1110873,0.017044231,-0.14807177,0.49747851,3.72,27.24,-41.58
1554880050414,-7.393294999999999,-5.0763063,1.9818004,0.043675844000000005,-0.14168017,0.45912898,3.54,26.76,-41.7
1554880050434,-7.479486,-5.0906715,2.130241,0.04261058,-0.12676647,0.42717105,3.42,26.4,-41.82
1554880050453,-7.489063000000001,-4.9518075,2.2451627,0.04580637,-0.11824436,0.37710363,3.24,26.1,-41.88
1554880050474,-7.522581599999999,-4.7698483,2.2068555,0.05006743,-0.10972224,0.33449304,3.18,25.86,-41.94
1554880050493,-7.5321584,-4.741118,2.2882583,-0.0031957934000000003,-0.10013486,0.28336033,3.18,25.62,-42.12
1554880050513,-7.6135616,-4.6980224,2.2212207000000004,-0.029827405,-0.08841695,0.24607609,3.18,25.5,-42.24
1554880050534,-7.6375036,-4.7123876,2.355296,-0.037284255,-0.07563378,0.2034655,3.24,25.44,-42.42
1554880050553,-7.599196000000001,-4.76506,2.3409307,-0.029827405,-0.07243799,0.16085494,3.3,25.44,-42.54
1554880050574,-7.7811556,-4.678869000000001,2.484583,-0.002130529,-0.06498113,0.12783173,3.3,25.38,-42.66
1554880050593,-7.7093296,-4.678869000000001,2.28347,0.013848438000000001,-0.06178534,0.10652645,3.36,25.38,-42.78
1554880050614,-7.876923599999999,-4.5352163,2.4223334999999997,0.007456851,-0.049002163,0.094808534,3.36,25.32,-42.84
1554880050633,-7.943961,-4.6932339999999995,2.3600842999999996,0.00958738,-0.03834952,0.07030745599999999,3.3,25.26,-42.96
1554880050653,-7.881711999999999,-4.9518075,2.441487,-0.0010652645,-0.03089267,0.03089267,3.24,25.2,-43.02
1554880050674,-7.843405000000001,-4.4777555,2.5468319999999998,0.0053263223,-0.029827405,0.0,3.18,25.14,-43.02
1554880050693,-7.991845,-4.817732299999999,2.460641,-0.023435817999999997,-0.03195793,-0.0063915867,3.12,25.02,-43.08
1554880050713,-7.881711999999999,-4.9661726999999996,2.3983915000000002,-0.014913702,-0.034088463,-0.002130529,3.06,24.9,-43.08
1554880050733,-7.9487495,-4.841674299999999,2.2547395,0.007456851,-0.035153727999999995,-0.004261058,3.06,24.78,-43.14
1554880050753,-8.1163435,-4.827309,2.1254525,-0.0053263223,-0.033023197000000004,0.011717908999999999,3.0,24.6,-43.14
1554880050774,-8.006210000000001,-4.956596,2.2691047,-0.046871635999999994,-0.03089267,0.047936900000000005,3.0,24.54,-43.2
1554880050794,-8.130709,-5.1146135,2.3888147,-0.047936900000000005,-0.011717908999999999,0.07776430000000001,2.94,24.48,-43.2
1554880050814,-8.049306,-5.0092683,2.556409,-0.041545313,0.0010652645,0.096939065,2.88,24.42,-43.2
1554880050834,-8.09719,-4.678869000000001,2.441487,-0.04261058,0.0,0.10226539,2.88,24.42,-43.26
1554880050854,-8.1402855,-4.5160627,2.5228900000000003,-0.01917476,-0.002130529,0.10546118,2.88,24.42,-43.26
1554880050874,-8.073248,-4.549582,2.5420437000000002,0.01917476,0.008522116,0.094808534,2.88,24.42,-43.26
1554880050894,-8.0445175,-4.267066000000001,2.2547395,0.01917476,0.015978966,0.060720075,2.82,24.42,-43.32
1554880050914,-8.073248,-4.3101616,2.1254525,-0.039414786,0.008522116,0.03834952,2.82,24.42,-43.32
1554880050935,-8.135497,-4.5687356,2.2499511,-0.084155895,0.007456851,0.026631612000000002,2.76,24.42,-43.38
1554880050954,-8.101977999999999,-4.540005000000001,2.2212207000000004,-0.1470065,0.011717908999999999,0.020240024,2.76,24.42,-43.38
1554880050974,-8.015787,-4.597466000000001,2.130241,-0.20453078,0.022370555,0.010652645,2.76,24.42,-43.38
1554880050994,-8.010999,-4.8895583,2.3983915000000002,-0.23648871,0.02876214,0.01917476,2.76,24.48,-43.38
1554880051015,-8.078036,-4.8895583,2.297835,-0.08522116,0.0,0.004261058,2.88,24.54,-43.38
1554880051033,-8.106767,-4.6980224,2.2068555,0.008522116,-0.008522116,0.0031957934000000003,2.94,24.6,-43.38
1554880051053,-8.030152000000001,-4.463390400000001,2.2403743,0.053263225,-0.00958738,-0.0053263223,3.0,24.6,-43.32
1554880051073,-8.025364,-4.429871599999999,2.331354,0.025566347000000003,-0.0010652645,-0.024501082,3.06,24.66,-43.32
1554880051094,-7.9822683,-4.520851,2.2403743,0.0053263223,-0.011717908999999999,-0.06178534,3.18,24.78,-43.2
1554880051114,-8.001422,-4.7219644,2.2882583,-0.049002163,0.0010652645,-0.06285059999999999,3.24,24.84,-43.2
1554880051134,-8.054094000000001,-4.6980224,2.1350293,-0.07030745599999999,0.010652645,-0.06391586,3.24,24.9,-43.2
1554880051154,-8.073248,-4.827309,2.168548,-0.098004326,0.02130529,-0.058589544,3.24,24.9,-43.14
1554880051179,-8.1402855,-4.745906400000001,2.28347,-0.12783173,0.017044231,-0.046871635999999994,3.24,24.9,-43.14
1554880051194,-8.269572,-4.812944,2.1398177000000005,-0.18642128,0.02876214,0.0031957934000000003,3.12,24.9,-43.14
1554880051214,-8.212111,-4.8225207,1.9147629000000002,-0.22477080000000002,0.024501082,0.05752428,2.94,24.9,-43.14
1554880051234,-8.1881695,-4.8081555,2.0919337,-0.23542345,0.02876214,0.07776430000000001,2.88,24.96,-43.14
1554880051253,-8.250419,-4.9278655,2.2786815,-0.18002969,0.026631612000000002,0.07669904,2.82,24.96,-43.14
1554880051273,-8.149861999999999,-4.817732299999999,2.321777,-0.03834952,0.014913702,0.054328485999999995,2.7,24.96,-43.14
1554880051294,-8.149861999999999,-4.578312400000001,2.1206641,0.08841695,0.011717908999999999,0.020240024,2.64,24.96,-43.14
1554880051313,-8.025364,-4.4442368,1.8716671000000003,0.054328485999999995,0.020240024,-0.008522116,2.58,24.96,-43.14
1554880051334,-8.0684595,-4.3724110000000005,2.0775685,-0.008522116,0.03195793,-0.027696876000000002,2.52,24.9,-43.14
1554880051353,-8.082825,-4.587889,1.9434932,-0.015978966,0.03195793,-0.041545313,2.52,24.9,-43.08
1554880051373,-8.221688,-4.678869000000001,2.0009542000000002,-0.029827405,0.02130529,-0.05006743,2.52,24.96,-43.08
1554880051393,-8.259995,-4.7123876,1.8429368000000002,0.002130529,0.00958738,-0.049002163,2.52,24.96,-43.02
1554880051414,-8.121132000000001,-4.6932339999999995,2.0153193,0.002130529,0.00958738,-0.034088463,2.58,24.9,-42.9
1554880051433,-8.164227499999999,-4.707599,2.0296845,-0.0010652645,0.012783173500000002,-0.035153727999999995,2.64,24.9,-42.78
1554880051453,-8.087613000000001,-4.587889,1.9722236000000002,0.010652645,0.0010652645,-0.041545313,2.7,24.9,-42.72
1554880051474,-8.121132000000001,-4.6692919999999996,2.0009542000000002,0.0,0.0031957934000000003,-0.05219796,2.76,24.9,-42.6
1554880051494,-8.111555000000001,-4.6980224,2.0727801,-0.036218993,0.004261058,-0.054328485999999995,2.88,24.9,-42.54
1554880051514,-8.154651,-4.745906400000001,2.0727801,-0.05219796,0.0031957934000000003,-0.049002163,3.0,24.9,-42.48
1554880051533,-8.197746,-4.812944,1.9195513,-0.04580637,0.0063915867,-0.040480047000000005,3.12,24.9,-42.42
1554880051554,-8.130709,-4.717176,2.0440497,-0.03195793,0.010652645,-0.025566347000000003,3.24,24.96,-42.42
1554880051574,-8.197746,-4.707599,2.1206641,-0.022370555,0.017044231,-0.01917476,3.3,25.08,-42.48
1554880051594,-8.226477000000001,-4.717176,2.1637597,0.0,0.015978966,-0.014913702,3.42,25.26,-42.54
1554880051614,-8.212111,-4.583101,1.9961656000000003,0.011717908999999999,0.008522116,-0.018109497,3.54,25.44,-42.6
1554880051634,-8.111555000000001,-4.630985,1.9865887999999998,-0.015978966,0.010652645,-0.026631612000000002,3.6,25.62,-42.66
1554880051653,-8.298303,-4.755483,1.8237831999999998,-0.06285059999999999,0.018109497,-0.029827405,3.66,25.8,-42.66
1554880051674,-8.24563,-4.908712,1.8429368000000002,-0.09161274,0.018109497,-0.023435817999999997,3.66,25.98,-42.72
1554880051694,-8.255207,-4.836886,2.2451627,-0.040480047000000005,0.022370555,-0.020240024,3.66,26.22,-42.72
1554880051714,-8.212111,-4.611831,2.0679917000000003,0.017044231,0.015978966,-0.013848438000000001,3.66,26.4,-42.72
1554880051734,-8.202535000000001,-4.64535,1.8908207,-0.002130529,0.011717908999999999,-0.012783173500000002,3.6,26.52,-42.72
1554880051754,-7.881711999999999,-4.511274299999999,2.7287915000000003,0.036218993,0.043675844000000005,-0.03089267,3.54,26.64,-42.72
1554880051774,-7.97748,-4.2383356,1.9003976999999999,-0.0010652645,0.020240024,-0.060720075,3.48,26.82,-42.72
1554880051794,-8.063671000000001,-4.8560395,1.9722236000000002,-0.10759171,0.034088463,-0.049002163,3.42,26.94,-42.72
1554880051814,-8.264783999999999,-4.7842135,1.3640964,-0.07882957,0.03195793,-0.06178534,3.42,27.06,-42.72
1554880051834,-8.101977999999999,-5.1529207,1.8860323,-0.22477080000000002,0.036218993,-0.008522116,3.42,27.24,-42.66
1554880051853,-8.111555000000001,-4.970961,1.8477252,-0.16937704,0.015978966,-0.02876214,3.42,27.3,-42.66
1554880051874,-8.164227499999999,-4.554370400000001,2.0201077,-0.05219796,0.018109497,-0.03089267,3.42,27.42,-42.66
1554880051894,-8.164227499999999,-4.530428,1.8668787,-0.053263225,-0.0053263223,-0.036218993,3.48,27.48,-42.66
1554880051915,-8.1402855,-4.6884456,1.8429368000000002,-0.1107875,0.0,-0.034088463,3.48,27.54,-42.66
1554880051933,-8.049306,-4.635773,1.7232267,-0.12144015,0.004261058,-0.060720075,3.48,27.54,-42.66
1554880051953,-7.9487495,-4.932654,1.8285716,-0.128897,0.012783173500000002,-0.06391586,3.48,27.54,-42.66
1554880051974,-8.006210000000001,-4.812944,1.7567455,-0.16192019,0.020240024,-0.07882957,3.48,27.54,-42.66
1554880051994,-7.987056699999999,-4.894346700000001,1.8620903000000002,-0.16831179,0.024501082,-0.08948222,3.48,27.66,-42.66
1554880052014,-8.0924015,-4.827309,1.9387047999999998,-0.12676647,0.025566347000000003,-0.101200126,3.48,27.72,-42.66
1554880052034,-8.145074000000001,-5.061941,1.9099745,-0.07243799,0.022370555,-0.113983296,3.42,27.78,-42.66
1554880052054,-8.082825,-5.105036699999999,1.8142063999999998,-0.036218993,0.02130529,-0.12783173,3.42,27.84,-42.66
1554880052073,-8.058883,-5.0427876,1.7615339,-0.025566347000000003,0.026631612000000002,-0.12783173,3.42,27.9,-42.66
1554880052094,-8.130709,-5.1146135,1.8237831999999998,-0.014913702,0.03089267,-0.1107875,3.42,28.08,-42.66
1554880052113,-8.1881695,-5.1385555,1.7663223000000001,-0.0031957934000000003,0.037284255,-0.094808534,3.42,28.26,-42.6
1554880052134,-8.020576,-5.157709,1.7615339,0.007456851,0.051132694000000006,-0.09374327,3.42,28.38,-42.54
1554880052154,-8.054094000000001,-4.932654,1.7854759999999998,0.020240024,0.05965481,-0.101200126,3.42,28.5,-42.36
1554880052174,-8.030152000000001,-4.894346700000001,1.7950528000000001,0.046871635999999994,0.07456851,-0.11717909,3.36,28.62,-42.24
1554880052194,-8.0684595,-4.678869000000001,1.9387047999999998,0.06391586,0.099069595,-0.13635385,3.36,28.74,-42.12
1554880052214,-7.953538000000001,-4.4777555,1.9243397,0.051132694000000006,0.096939065,-0.1470065,3.42,28.8,-42.0
1554880052233,-7.843405000000001,-5.047576,1.8046296000000002,-0.018109497,0.09587380000000001,-0.14807177,3.42,28.92,-41.82
1554880052253,-7.723694999999999,-5.224746700000001,1.8620903000000002,0.02130529,0.09587380000000001,-0.1768339,3.48,28.92,-41.76
1554880052275,-7.632714999999999,-5.1816510000000005,1.7040731,0.07030745599999999,0.10013486,-0.21198763,3.54,28.98,-41.64
1554880052294,-7.541735000000001,-5.1624975,1.5604209999999998,0.08948222,0.11611383,-0.25885928,3.6,29.04,-41.58
1554880052313,-7.522581599999999,-4.970961,1.7615339,0.084155895,0.13528858,-0.29507825,3.66,29.1,-41.64
1554880052333,-7.4268136,-4.745906400000001,1.4838065,0.046871635999999994,0.13741912,-0.33129725,3.72,29.16,-41.64
1554880052354,-7.383717999999999,-5.143344,1.3497312,-0.027696876000000002,0.1470065,-0.33981937,3.78,29.28,-41.7
1554880052375,-7.326257000000001,-5.286996,1.5699978,-0.098004326,0.17363810000000002,-0.38562572,3.84,29.4,-41.7
1554880052393,-7.1634517,-5.286996,1.5364790000000002,-0.08841695,0.1768339,-0.42184472,3.9,29.52,-41.7
1554880052414,-6.8905125,-5.286996,1.5556326,-0.039414786,0.18429075,-0.47723848,3.96,29.64,-41.7
1554880052434,-6.7468604999999995,-5.3779755,1.5173253,0.047936900000000005,0.20559604,-0.567786,4.02,29.88,-41.58
1554880052453,-6.5505357,-5.3205147,1.4742297,0.07563378,0.22477080000000002,-0.6327670999999999,4.08,30.12,-41.46
1554880052474,-6.320692500000001,-5.406706,1.2826935,0.035153727999999995,0.26631612,-0.75101143,4.14,30.42,-41.34
1554880052494,-6.325481,-5.5982423,1.2156559,-0.002130529,0.30679616,-0.8490158000000001,4.2,30.72,-41.22
1554880052514,-6.2392898,-5.689222,1.2683283,0.012783173500000002,0.35473305,-0.94595486,4.32,30.96,-41.1
1554880052534,-6.272808599999999,-5.7945666,1.1294646000000002,0.008522116,0.406931,-1.0365024,4.44,31.26,-40.98
1554880052554,-6.301539,-6.335656,0.8996213,-0.04261058,0.45806372,-1.144094,4.56,31.56,-40.86
1554880052574,-6.445191,-6.531981,0.7368156,-0.08841695,0.51665324,-1.2186625,4.62,31.86,-40.74
1554880052595,-6.569689299999999,-6.929417999999999,0.40641573,-0.14274544,0.58909124,-1.2548815,4.68,32.46,-40.62
1554880052614,-6.627150500000001,-7.2789717000000005,0.3824737,-0.20559604,0.6380934,-1.2495551999999999,4.8,33.0,-40.44
1554880052635,-6.7851677,-7.623736999999999,0.3345897,-0.24501082,0.6593986999999999,-1.2197278,4.86,33.66,-40.2
1554880052654,-6.8186865,-7.724292999999999,0.13826515,-0.24501082,0.67005134,-1.1749867,4.92,34.44,-39.96
1554880052674,-6.780379300000001,-7.6907744000000005,0.05686229,-0.26205507,0.6668556,-1.1057445,4.92,35.4,-39.54
1554880052694,-6.7468604999999995,-8.054692999999999,-0.12509704,-0.32810146,0.6593986999999999,-1.026915,4.92,36.48,-39.12
1554880052714,-6.6654577,-8.107366,-0.14425065,-0.34621096,0.6466155,-0.9715212,4.98,37.62,-38.7
1554880052734,-6.6510925,-7.834426400000001,-0.19213470000000002,-0.34940675,0.6327670999999999,-0.90973586,5.04,38.88,-38.22
1554880052754,-6.4547677000000006,-8.198345,-0.46507367,-0.32170987,0.60720074,-0.84581995,5.16,39.96,-37.68
1554880052774,-6.3685765,-8.294113000000001,-0.32621,-0.24074976,0.5763081,-0.7776430000000001,5.34,41.16,-37.02
1554880052795,-6.4212489999999995,-8.284536,-0.3453636,-0.14168017,0.5539375,-0.7275756,5.52,42.24,-36.42
1554880052813,-6.301539,-8.102577,-0.5177461,-0.07243799,0.5251754,-0.67218184,5.76,43.26,-35.88
1554880052834,-6.1626754,-8.107366,-0.6278794,-0.10759171,0.50600064,-0.628506,5.94,44.1,-35.4
1554880052855,-6.1483099999999995,-8.231864,-0.98222125,-0.16831179,0.48682585,-0.5944176,6.18,44.82,-34.98
1554880052874,-5.966350599999999,-8.351574000000001,-0.99179804,-0.23968449999999997,0.45912898,-0.5496765,6.36,45.54,-34.62
1554880052894,-5.7843914000000005,-8.567052,-1.0923545000000001,-0.3153183,0.41545314,-0.49747851,6.48,46.2,-34.2
1554880052914,-5.6790465999999995,-8.624513,-1.039682,-0.33129725,0.36112466,-0.44101948,6.66,46.74,-33.9
1554880052934,-5.583278,-8.734647,-0.83856916,-0.2695119,0.28122982,-0.36751625,6.66,47.46,-33.6
1554880052953,-5.401319,-8.7538,-0.96306765,-0.19707392,0.22903186,-0.3323625,6.72,47.94,-33.24
1554880052974,-5.305551,-8.772953999999999,-0.6422445999999999,-0.07882957,0.15233281,-0.28336033,6.72,48.42,-32.94
1554880052994,-5.2145715,-8.643666,-1.0827777,-0.054328485999999995,0.096939065,-0.257794,6.72,48.96,-32.58
1554880053014,-5.0517654,-8.590994,-1.0444705,-0.06285059999999999,0.05006743,-0.23755397,6.78,49.5,-32.22
1554880053034,-5.118803,-8.624513,-0.9008184000000001,-0.08735169,0.018109497,-0.21944448,6.78,50.1,-31.86
1554880053055,-5.023035,-8.624513,-0.7763199000000001,-0.08735169,-0.00958738,-0.21092236,6.84,50.58,-31.5
1554880053074,-4.941632299999999,-8.600571,-0.7811083000000001,-0.06498113,-0.03089267,-0.2066613,6.84,51.06,-31.14
1554880053093,-4.807557,-8.72507,-0.7667431,-0.041545313,-0.049002163,-0.21092236,6.84,51.42,-30.9
1554880053114,-4.7405194999999996,-8.643666,-0.9103952,-0.0031957934000000003,-0.060720075,-0.21624869,6.84,51.72,-30.78
1554880053134,-4.7165775000000005,-8.57184,-0.83856916,0.008522116,-0.06924219,-0.22370553,6.72,52.02,-30.6
1554880053153,-4.6160207,-8.696339,-0.98700964,0.015978966,-0.068176925,-0.22264028,6.66,52.2,-30.48
1554880053174,-4.5777135,-8.576628999999999,-0.85772276,0.013848438000000001,-0.06924219,-0.21944448,6.6,52.32,-30.42
1554880053193,-4.525041000000001,-8.658031,-0.66618663,0.04474111,-0.07350325,-0.20985709,6.54,52.32,-30.36
1554880053213,-4.4915223,-8.4664955,-0.82899237,0.068176925,-0.07350325,-0.20240025,6.42,52.44,-30.36
1554880053234,-4.4005427,-8.500014,-0.83378077,0.09587380000000001,-0.06604639400000001,-0.20453078,6.36,52.56,-30.36
1554880053254,-4.3718123,-8.576628999999999,-0.87687635,0.10865697,-0.05752428,-0.20879184,6.3,52.68,-30.42
1554880053273,-4.2664676,-8.456919000000001,-1.0875661,0.12250541,-0.047936900000000005,-0.20772657,6.24,52.74,-30.48
1554880053293,-4.31914,-8.57184,-0.97743285,0.09054748,-0.039414786,-0.19920446,6.24,52.86,-30.54
1554880053314,-4.280833,-8.567052,-0.9391255999999999,0.037284255,-0.03089267,-0.19281286,6.24,52.92,-30.6
1554880053334,-4.338293599999999,-8.576628999999999,-0.97743285,0.008522116,-0.025566347000000003,-0.1949434,6.12,52.98,-30.6
1554880053354,-4.3478703,-8.758589,-0.98700964,-0.014913702,-0.02130529,-0.19920446,5.94,53.04,-30.66
1554880053374,-4.247314,-8.782531,-1.1976993999999999,-0.034088463,-0.017044231,-0.20026971,5.76,52.98,-30.72
1554880053394,-4.3957543,-8.878299,-1.0827777,-0.049002163,-0.011717908999999999,-0.19707392,5.58,52.92,-30.78
1554880053414,-4.343082,-8.93576,-1.2312181999999998,-0.068176925,-0.012783173500000002,-0.18322548,5.4,52.92,-30.84
1554880053434,-4.3574470000000005,-8.96449,-1.039682,-0.07989483,-0.012783173500000002,-0.16298546,5.22,52.92,-30.84
1554880053454,-4.405330999999999,-8.96449,-1.0348936,-0.09054748,-0.02130529,-0.13422333,5.04,52.98,-30.84
1554880053475,-4.405330999999999,-8.93576,-0.8912416,-0.082025364,-0.023435817999999997,-0.113983296,4.92,53.04,-30.9
1554880053493,-4.362235500000001,-8.839992,-1.0971429,-0.083090626,-0.033023197000000004,-0.08735169,4.8,53.1,-30.9
1554880053513,-4.4436383,-8.839992,-0.9103952,-0.09161274,-0.04261058,-0.07243799,4.8,53.22,-30.9
1554880053534,-4.3718123,-8.729858,-1.049259,-0.09054748,-0.06391586,-0.060720075,4.86,53.28,-30.96
1554880053553,-4.343082,-8.787319,-1.0301052,-0.084155895,-0.07882957,-0.05219796,4.86,53.4,-30.96
1554880053574,-4.2999864,-8.782531,-1.0540473,-0.07669904,-0.09161274,-0.043675844000000005,4.92,53.52,-30.96
1554880053593,-4.2760444,-8.849568,-1.1546037,-0.058589544,-0.10546118,-0.03834952,4.98,53.7,-30.9
1554880053614,-4.132391999999999,-8.854357,-1.1737574,-0.06391586,-0.10972224,-0.023435817999999997,5.04,53.82,-30.9
1554880053634,-4.1659107,-8.744224,-1.0827777,-0.06498113,-0.11824436,-0.017044231,5.04,53.94,-30.9
1554880053653,-4.1515455,-8.883087,-1.039682,-0.054328485999999995,-0.12676647,-0.007456851,4.92,53.94,-30.84
1554880053673,-4.060566000000001,-8.96449,-1.0253168,-0.041545313,-0.13102753,-0.0010652645,4.86,54.0,-30.78
1554880053693,-4.098873,-8.825626,-1.0971429,-0.04580637,-0.128897,0.0031957934000000003,4.74,54.06,-30.72
1554880053713,-4.0845080000000005,-8.72507,-1.0540473,-0.036218993,-0.12144015,0.0031957934000000003,4.68,54.0,-30.66
1554880053734,-3.9935283999999998,-8.643666,-1.0348936,-0.054328485999999995,-0.112918034,-0.004261058,4.56,53.88,-30.6
1554880053754,-4.0318356,-8.72507,-1.1546037,-0.06498113,-0.10865697,-0.018109497,4.38,53.76,-30.54
1554880053773,-4.0222587999999995,-8.792108,-1.0779893,-0.080960095,-0.10226539,-0.022370555,4.26,53.64,-30.54
1554880053794,-4.0078936,-8.806473,-1.0253168,-0.06924219,-0.101200126,-0.027696876000000002,4.14,53.52,-30.54
1554880053813,-4.0509889999999995,-8.749011999999999,-0.95827925,-0.051132694000000006,-0.099069595,-0.029827405,4.14,53.4,-30.54
1554880053834,-4.0318356,-8.796896,-1.1019313,-0.05006743,-0.09587380000000001,-0.036218993,4.08,53.34,-30.54
1554880053853,-4.0653543,-8.768166,-0.97264445,-0.046871635999999994,-0.08735169,-0.046871635999999994,4.08,53.22,-30.6
1554880053873,-4.1180267,-8.772953999999999,-1.039682,-0.054328485999999995,-0.08522116,-0.05965481,3.96,53.22,-30.6
1554880053896,-4.0174704,-8.792108,-1.073201,-0.047936900000000005,-0.083090626,-0.06924219,3.84,53.28,-30.66
1554880053914,-4.0653543,-8.672397,-1.049259,-0.04261058,-0.082025364,-0.07350325,3.72,53.28,-30.72
1554880053933,-3.9647980000000005,-8.7538,-1.0540473,-0.039414786,-0.07989483,-0.07669904,3.66,53.4,-30.78
1554880053954,-4.060566000000001,-8.768166,-1.1785458,-0.035153727999999995,-0.07989483,-0.07882957,3.6,53.46,-30.84
1554880053973,-4.0845080000000005,-8.811261,-1.2838906,-0.04580637,-0.07776430000000001,-0.07882957,3.54,53.52,-30.84
1554880053993,-4.0557775000000005,-8.782531,-1.192911,-0.04474111,-0.080960095,-0.084155895,3.42,53.58,-30.9
1554880054014,-4.185065,-8.734647,-1.0444705,-0.034088463,-0.07882957,-0.083090626,3.36,53.7,-30.9
1554880054033,-4.0653543,-8.69155,-1.049259,-0.049002163,-0.07989483,-0.08735169,3.36,53.76,-30.84
1554880054054,-4.0892963,-8.763377,-1.0013748,-0.04580637,-0.080960095,-0.094808534,3.36,53.82,-30.84
1554880054073,-4.146757,-8.911817999999998,-1.2934675,-0.051132694000000006,-0.07669904,-0.094808534,3.42,53.94,-30.84
1554880054094,-4.0557775000000005,-8.854357,-1.192911,-0.056459017,-0.07456851,-0.09161274,3.36,54.0,-30.84
1554880054114,-4.0174704,-8.883087,-1.2024878,-0.06924219,-0.07882957,-0.07669904,3.36,54.06,-30.84
1554880054134,-4.074930999999999,-8.907029,-1.2455834,-0.06924219,-0.09267801,-0.056459017,3.3,54.24,-30.84
1554880054153,-4.1419687000000005,-8.749011999999999,-1.2072762,-0.054328485999999995,-0.10333065,-0.03834952,3.24,54.36,-30.9
1554880054173,-4.1132383,-8.749011999999999,-1.2503718000000001,-0.043675844000000005,-0.111852765,-0.036218993,3.24,54.48,-30.9
1554880054194,-4.0222587999999995,-8.634089,-1.1976993999999999,-0.040480047000000005,-0.11717909,-0.039414786,3.18,54.66,-30.96
1554880054214,-3.9983168,-8.69155,-1.1402385,-0.04580637,-0.11504856,-0.041545313,3.12,54.84,-30.96
1554880054233,-4.0701427,-8.801684,-1.2312181999999998,-0.05219796,-0.1107875,-0.037284255,3.06,55.08,-31.02
1554880054253,-4.003105000000001,-8.959702,-1.1641805,-0.039414786,-0.10546118,-0.033023197000000004,3.0,55.26,-31.08
1554880054273,-3.9312792,-8.897452000000001,-1.1833341999999998,-0.040480047000000005,-0.08948222,-0.027696876000000002,2.94,55.44,-31.14
1554880054294,-3.9456443999999995,-8.954913000000001,-1.2072762,-0.05539375,-0.07563378,-0.02876214,2.82,55.62,-31.2
1554880054314,-3.8642415999999997,-8.782531,-1.3269863000000002,-0.06711166,-0.05965481,-0.024501082,2.7,55.74,-31.26
1554880054333,-3.8977604,-8.658031,-1.0827777,-0.06711166,-0.043675844000000005,-0.036218993,2.64,55.8,-31.32
1554880054355,-3.9073372,-8.677185,-1.216853,-0.06711166,-0.040480047000000005,-0.053263225,2.52,55.86,-31.26
1554880054374,-3.9647980000000005,-8.84478,-1.0827777,-0.07669904,-0.03195793,-0.06391586,2.46,55.92,-31.2
1554880054393,-3.9456443999999995,-8.916606,-1.1354501000000001,-0.06391586,-0.03195793,-0.07137272,2.46,55.92,-31.14
1554880054414,-3.9217023999999996,-8.950125,-1.0923545000000001,-0.041545313,-0.035153727999999995,-0.06604639400000001,2.46,55.92,-31.08
1554880054434,-3.9504328,-9.065046,-1.1354501000000001,-0.034088463,-0.027696876000000002,-0.06285059999999999,2.52,55.92,-31.02
1554880054454,-3.9935283999999998,-9.017161999999999,-1.1402385,-0.024501082,-0.025566347000000003,-0.05539375,2.58,55.92,-30.9
1554880054474,-3.9647980000000005,-8.897452000000001,-1.1785458,-0.010652645,-0.01917476,-0.05752428,2.64,55.98,-30.84
1554880054494,-3.9695864000000003,-8.863934,-1.1689690000000001,-0.004261058,-0.020240024,-0.05539375,2.58,56.28,-30.72
1554880054514,-3.9121256,-8.739435,-1.3892354999999998,-0.0010652645,-0.017044231,-0.058589544,2.58,56.46,-30.72
1554880054534,-3.9504328,-8.835203,-1.0923545000000001,-0.0053263223,-0.014913702,-0.05539375,2.46,56.7,-30.72
1554880054554,-3.916914,-8.998009,-1.1306617,-0.007456851,-0.018109497,-0.054328485999999995,2.4,56.88,-30.72
1554880054574,-3.9264907999999994,-8.883087,-1.3605051000000001,-0.014913702,-0.017044231,-0.04261058,2.28,57.06,-30.72
1554880054594,-3.8546648,-8.921394,-1.2312181999999998,-0.011717908999999999,-0.00958738,-0.039414786,2.22,57.18,-30.72
1554880054615,-3.8546648,-8.921394,-1.1641805,-0.00958738,-0.002130529,-0.035153727999999995,2.1,57.3,-30.72
1554880054635,-3.8690300000000004,-8.878299,-1.2503718000000001,-0.02130529,0.0031957934000000003,-0.029827405,2.04,57.36,-30.72
1554880054655,-3.9264907999999994,-8.950125,-1.3844471,-0.03195793,0.0010652645,-0.02130529,2.04,57.3,-30.72
1554880054675,-3.9073372,-8.806473,-1.4706384,-0.023435817999999997,-0.008522116,-0.018109497,2.1,57.3,-30.66
1554880054694,-3.9647980000000005,-8.820838,-1.3557166999999999,-0.015978966,-0.011717908999999999,-0.012783173500000002,2.1,57.24,-30.6
1554880054715,-3.8977604,-8.796896,-1.216853,-0.023435817999999997,-0.012783173500000002,-0.008522116,2.1,57.24,-30.54
1554880054734,-3.8929720000000003,-8.792108,-1.1306617,-0.022370555,-0.008522116,-0.00958738,2.16,57.24,-30.48
1554880054754,-3.8929720000000003,-8.801684,-1.3365631000000002,-0.011717908999999999,-0.002130529,-0.011717908999999999,2.22,57.24,-30.42
1554880054774,-3.9983168,-8.758589,-1.4036007,-0.02130529,0.007456851,-0.012783173500000002,2.28,57.24,-30.36
1554880054794,-3.9695864000000003,-8.739435,-1.1162965,-0.049002163,0.011717908999999999,-0.014913702,2.34,57.24,-30.3
1554880054814,-3.916914,-8.811261,-1.3461398999999998,-0.05219796,0.011717908999999999,-0.014913702,2.4,57.3,-30.3
1554880054834,-3.9504328,-8.859145,-1.3605051000000001,-0.04474111,0.00958738,-0.010652645,2.46,57.3,-30.3
1554880054854,-3.9360676,-8.993219999999999,-1.2551602,-0.022370555,0.014913702,-0.007456851,2.52,57.36,-30.36
1554880054874,-3.9264907999999994,-8.763377,-1.240795,-0.011717908999999999,0.01917476,-0.007456851,2.64,57.36,-30.36
1554880054894,-4.003105000000001,-8.729858,-1.3796587,-0.007456851,0.027696876000000002,-0.0031957934000000003,2.64,57.36,-30.42
1554880054914,-4.0174704,-8.739435,-1.2216414,-0.029827405,0.03834952,-0.004261058,2.64,57.42,-30.42
1554880054934,-4.0509889999999995,-8.734647,-1.3413515,-0.034088463,0.04474111,-0.010652645,2.64,57.48,-30.42
1554880054954,-3.9073372,-8.715492999999999,-1.3557166999999999,-0.036218993,0.043675844000000005,-0.018109497,2.64,57.48,-30.48
1554880054974,-3.9552212,-8.839992,-1.5520413,-0.015978966,0.046871635999999994,-0.029827405,2.64,57.54,-30.48
1554880054993,-3.9121256,-8.916606,-1.5711948999999998,-0.0053263223,0.051132694000000006,-0.033023197000000004,2.52,57.54,-30.48
1554880055014,-3.9073372,-8.921394,-1.4227544,-0.01917476,0.05006743,-0.039414786,2.46,57.6,-30.48
1554880055037,-3.8738184,-8.84478,-1.4466964,-0.014913702,0.047936900000000005,-0.037284255,2.34,57.6,-30.48
1554880055053,-3.8259343999999995,-8.930971000000001,-1.5328877,-0.02130529,0.041545313,-0.041545313,2.28,57.6,-30.48
1554880055073,-3.9504328,-8.959702,-1.5999253,-0.020240024,0.036218993,-0.051132694000000006,2.22,57.54,-30.48
1554880055093,-3.8833952000000003,-8.811261,-1.4083891000000002,-0.02130529,0.023435817999999997,-0.05539375,2.16,57.54,-30.48
1554880055113,-3.9504328,-8.734647,-1.4036007,-0.022370555,0.011717908999999999,-0.05539375,2.16,57.54,-30.42
1554880055134,-3.8690300000000004,-8.763377,-1.4850036,-0.02130529,0.0063915867,-0.06178534,2.16,57.48,-30.36
1554880055154,-3.8929720000000003,-8.744224,-1.4083891000000002,-0.01917476,0.0031957934000000003,-0.06924219,2.22,57.42,-30.36
1554880055174,-3.9217023999999996,-8.768166,-1.6334441000000002,-0.018109497,0.002130529,-0.080960095,2.22,57.36,-30.3
1554880055193,-3.9983168,-8.772953999999999,-1.5280992,-0.03195793,-0.002130529,-0.08948222,2.22,57.24,-30.24
1554880055213,-3.8786068,-8.796896,-1.5807717,-0.05965481,-0.007456851,-0.084155895,2.22,57.06,-30.24
1554880055234,-3.8115692,-8.930971000000001,-1.5759833,-0.084155895,-0.015978966,-0.07776430000000001,2.22,56.88,-30.24
1554880055253,-3.8259343999999995,-8.921394,-1.5951369,-0.07456851,-0.02130529,-0.07882957,2.22,56.64,-30.24
1554880055274,-3.8307227999999998,-8.734647,-1.4993688,-0.06285059999999999,-0.027696876000000002,-0.07669904,2.22,56.46,-30.3
1554880055294,-3.7972038,-8.811261,-1.5855601000000001,-0.07456851,-0.026631612000000002,-0.068176925,2.22,56.34,-30.3
1554880055313,-3.8738184,-8.839992,-1.6095021,-0.09161274,-0.02876214,-0.056459017,2.16,56.28,-30.3
1554880055334,-3.7732617999999993,-8.863934,-1.4706384,-0.09161274,-0.037284255,-0.053263225,2.16,56.4,-30.3
1554880055353,-3.7828386,-8.892664,-1.4706384,-0.09054748,-0.037284255,-0.049002163,2.22,56.76,-30.3
1554880055374,-3.7684733999999995,-8.820838,-1.6573862000000001,-0.094808534,-0.029827405,-0.04261058,2.28,57.12,-30.3
1554880055394,-3.8402996,-8.978855000000001,-1.3892354999999998,-0.08628642,-0.020240024,-0.039414786,2.34,57.48,-30.24
1554880055413,-3.8450879999999996,-8.902241,-1.5903485000000002,-0.07243799,0.0053263223,-0.035153727999999995,2.4,57.84,-30.18
1554880055433,-3.9312792,-8.897452000000001,-1.441908,-0.068176925,0.029827405,-0.034088463,2.46,58.38,-30.12
1554880055454,-3.8211459999999997,-8.758589,-1.4945803999999998,-0.07137272,0.046871635999999994,-0.039414786,2.46,58.56,-30.12
1554880055473,-3.8019924,-8.806473,-1.1546037,-0.07137272,0.05752428,-0.053263225,2.52,58.8,-30.06
1554880055493,-3.7684733999999995,-8.614936,-1.4514848,-0.04474111,0.05965481,-0.060720075,2.52,58.8,-29.94
1554880055513,-3.7301662,-8.768166,-1.6142905,-0.047936900000000005,0.053263225,-0.05006743,2.52,58.8,-29.76
1554880055534,-3.7732617999999993,-8.744224,-1.6669630000000002,-0.060720075,0.053263225,-0.06285059999999999,2.46,58.8,-29.58
1554880055554,-3.7541082,-8.792108,-1.7914615000000003,-0.051132694000000006,0.043675844000000005,-0.08628642,2.46,58.8,-29.34
1554880055574,-3.7876269999999996,-8.849568,-1.882441,-0.06178534,0.034088463,-0.09587380000000001,2.4,58.74,-29.16
1554880055594,-3.7062242,-8.983644,-1.8776526000000002,-0.07456851,0.00958738,-0.10226539,2.34,58.8,-28.92
1554880055614,-3.6870705999999998,-9.036316000000001,-1.9782091,-0.083090626,-0.010652645,-0.10226539,2.34,58.8,-28.68
1554880055633,-3.739743,-8.940548,-2.1362264,-0.06924219,-0.02130529,-0.096939065,2.28,58.86,-28.5
1554880055653,-3.6822822,-8.96449,-2.0691888,-0.06391586,-0.037284255,-0.09054748,2.28,58.92,-28.38
1554880055674,-3.7828386,-9.0794115,-1.8058267,-0.060720075,-0.051132694000000006,-0.07989483,2.28,59.04,-28.32
1554880055694,-3.7493198,-9.041103999999999,-1.7818846999999998,-0.06391586,-0.06178534,-0.068176925,2.28,59.16,-28.44
1554880055713,-3.7684733999999995,-8.954913000000001,-1.8920178,-0.047936900000000005,-0.05539375,-0.05965481,2.28,59.34,-28.5
1554880055735,-3.7828386,-8.93576,-1.8537107,-0.05006743,-0.05219796,-0.05219796,2.28,59.46,-28.56
1554880055753,-3.7732617999999993,-9.045893,-1.7770962,-0.068176925,-0.043675844000000005,-0.043675844000000005,2.28,59.64,-28.62
1554880055773,-3.8211459999999997,-9.041103999999999,-1.8632874,-0.06498113,-0.040480047000000005,-0.03195793,2.28,59.76,-28.68
1554880055794,-3.8786068,-9.098564999999999,-1.882441,-0.05539375,-0.043675844000000005,-0.018109497,2.28,59.82,-28.74
1554880055814,-3.8307227999999998,-9.20391,-1.6430208999999998,-0.046871635999999994,-0.039414786,0.0,2.28,59.88,-28.8
1554880055834,-3.8067808,-9.017161999999999,-1.8680758000000002,-0.011717908999999999,-0.040480047000000005,0.011717908999999999,2.28,59.94,-28.86
1554880055854,-3.8402996,-9.007586,-1.6956933999999997,0.0063915867,-0.056459017,0.027696876000000002,2.22,60.0,-28.86
1554880055874,-3.8642415999999997,-8.892664,-1.738789,0.03195793,-0.05752428,0.02876214,2.22,60.06,-28.86
1554880055894,-3.8019924,-8.72507,-1.7292121999999999,0.043675844000000005,-0.06498113,0.02876214,2.16,60.06,-28.86
1554880055914,-3.8259343999999995,-8.892664,-1.6286557,0.034088463,-0.06711166,0.029827405,2.1,60.06,-28.86
1554880055934,-3.8642415999999997,-8.849568,-1.5280992,0.029827405,-0.060720075,0.025566347000000003,2.04,60.12,-28.92
1554880055956,-3.8833952000000003,-8.854357,-1.5951369,0.05219796,-0.051132694000000006,0.024501082,1.98,60.12,-28.92
1554880055974,-3.9073372,-8.854357,-1.6142905,0.07563378,-0.037284255,0.014913702,1.86,60.12,-28.86
1554880055994,-3.9312792,-8.897452000000001,-1.6621746,0.07350325,-0.034088463,0.0063915867,1.8,60.12,-28.86
1554880056016,-3.8211459999999997,-8.916606,-1.5855601000000001,0.07350325,-0.027696876000000002,0.0010652645,1.68,60.06,-28.86
1554880056035,-3.8355112,-8.950125,-1.5903485000000002,0.09587380000000001,-0.02876214,0.0,1.68,60.06,-28.86
1554880056054,-3.9408559999999997,-8.84478,-1.8010383,0.12144015,-0.025566347000000003,-0.00958738,1.68,60.0,-28.86
1554880056074,-3.8690300000000004,-8.806473,-1.6478093,0.12783173,-0.010652645,-0.02130529,1.62,59.94,-28.86
1554880056094,-3.7732617999999993,-8.782531,-1.5759833,0.11930962,-0.0010652645,-0.040480047000000005,1.62,59.82,-28.86
1554880056115,-3.8977604,-8.653243,-1.6621746,0.13422333,-0.0010652645,-0.05219796,1.62,59.76,-28.86
1554880056134,-3.7876269999999996,-8.677185,-1.5568296999999998,0.16085494,-0.00958738,-0.06924219,1.62,59.7,-28.86
1554880056154,-3.7110126000000005,-8.792108,-1.5855601000000001,0.1587244,-0.013848438000000001,-0.07030745599999999,1.62,59.64,-28.86
1554880056173,-3.8259343999999995,-8.897452000000001,-1.7292121999999999,0.13422333,-0.004261058,-0.05752428,1.68,59.52,-28.86
1554880056194,-3.8211459999999997,-9.247005,-1.6382325,0.08948222,0.007456851,-0.049002163,1.68,59.4,-28.92
1554880056213,-3.8355112,-9.1033535,-1.6956933999999997,0.10546118,0.015978966,-0.05752428,1.68,59.28,-28.92
1554880056234,-3.7158010000000004,-9.141661000000001,-1.6861166,0.13209279,0.017044231,-0.056459017,1.68,59.22,-29.04
1554880056254,-3.6583402,-8.907029,-1.513734,0.14487597,0.013848438000000001,-0.051132694000000006,1.68,59.16,-29.1
1554880056276,-3.739743,-8.758589,-1.3892354999999998,0.16192019,0.017044231,-0.04474111,1.74,59.1,-29.16
1554880056294,-3.7253778,-8.854357,-1.4275428,0.18535602,0.02876214,-0.040480047000000005,1.74,59.04,-29.22
1554880056314,-3.5625722,-8.897452000000001,-1.3605051000000001,0.18535602,0.046871635999999994,-0.054328485999999995,1.8,58.98,-29.34
1554880056333,-3.5338415999999997,-8.772953999999999,-1.3940238999999999,0.15552860000000002,0.05965481,-0.05752428,1.8,58.98,-29.4
1554880056353,-3.5673605999999998,-8.878299,-1.4993688,0.13635385,0.07563378,-0.05006743,1.8,58.8,-29.52
1554880056374,-3.6343982000000006,-8.959702,-1.489792,0.13528858,0.084155895,-0.036218993,1.8,58.62,-29.7
1554880056394,-3.6008794,-8.658031,-1.5711948999999998,0.13848437,0.09161274,-0.040480047000000005,1.8,58.5,-29.76
1554880056414,-3.7062242,-8.705916,-1.3892354999999998,0.09161274,0.096939065,-0.03195793,1.8,58.38,-29.88
1554880056434,-3.6918589999999996,-8.796896,-1.489792,0.07456851,0.09374327,-0.033023197000000004,1.8,58.2,-30.0
1554880056454,-3.8546648,-8.744224,-1.4945803999999998,0.06498113,0.08841695,-0.026631612000000002,1.8,58.08,-30.12
1554880056473,-3.8546648,-8.768166,-1.4371196000000002,0.06498113,0.09267801,-0.017044231,1.8,57.9,-30.24
1554880056494,-3.8450879999999996,-8.729858,-1.4036007,0.06711166,0.094808534,-0.010652645,1.8,57.78,-30.3
1554880056514,-3.9025488,-8.839992,-1.4706384,0.047936900000000005,0.08522116,0.0,1.86,57.78,-30.36
1554880056534,-3.9360676,-8.883087,-1.417966,0.027696876000000002,0.06178534,0.007456851,1.92,57.84,-30.36
1554880056553,-3.9600096,-9.098564999999999,-1.4514848,0.04261058,0.04580637,0.022370555,1.98,57.78,-30.3
1554880056574,-3.9217023999999996,-9.11293,-1.1833341999999998,0.05539375,0.05006743,0.051132694000000006,2.04,57.78,-30.3
1554880056594,-3.9456443999999995,-9.088988,-1.1785458,0.05965481,0.041545313,0.07350325,2.16,57.78,-30.3
1554880056614,-4.0222587999999995,-9.050680999999999,-1.3605051000000001,0.083090626,0.039414786,0.09161274,2.22,57.78,-30.24
1554880056634,-4.0701427,-9.199121,-1.0444705,0.060720075,0.043675844000000005,0.083090626,2.28,57.78,-30.24
1554880056654,-4.1180267,-9.179967999999999,-1.2886791000000002,0.07456851,0.033023197000000004,0.060720075,2.4,57.72,-30.24
1554880056674,-4.0414124,-9.218275,-1.2791021999999999,0.07989483,0.041545313,0.056459017,2.46,57.72,-30.24
1554880056694,-3.9025488,-9.227852,-1.1019313,0.113983296,0.060720075,0.07669904,2.46,57.72,-30.18
1554880056713,-4.0174704,-9.055469500000001,-1.1402385,0.112918034,0.06178534,0.10333065,2.52,57.66,-30.18
1554880056733,-4.0318356,-9.285313,-1.0779893,0.06711166,0.04261058,0.13209279,2.58,57.66,-30.18
1554880056753,-4.1276035,-9.012374000000001,-1.0971429,0.049002163,0.013848438000000001,0.15552860000000002,2.7,57.6,-30.18
1554880056774,-4.1276035,-8.883087,-1.1450268999999997,0.06178534,-0.0031957934000000003,0.18216023,2.82,57.6,-30.18
1554880056794,-3.98874,-8.81605,-1.240795,0.09054748,-0.034088463,0.20985709,2.94,57.54,-30.18
1554880056814,-4.012682,-8.533533,-1.1881226,0.13209279,-0.053263225,0.2034655,3.06,57.48,-30.18
1554880056834,-4.0270470000000005,-8.217499,-1.264737,0.1587244,-0.06285059999999999,0.18748654,3.12,57.36,-30.18
1554880056854,-3.8929720000000003,-8.059482000000001,-1.3317747,0.15765914,-0.06498113,0.1587244,3.24,57.24,-30.18
1554880056874,-3.916914,-7.848791599999999,-1.5855601000000001,0.12676647,-0.043675844000000005,0.10013486,3.3,57.12,-30.24
1554880056894,-3.7445314,-7.944559599999999,-1.6334441000000002,0.02876214,-0.023435817999999997,0.024501082,3.36,56.82,-30.24
1554880056914,-3.8738184,-7.8152729999999995,-1.4754268,-0.06498113,-0.004261058,-0.053263225,3.42,56.52,-30.3
1554880056934,-3.8738184,-7.8152729999999995,-1.6047136999999998,-0.15446335,-0.00958738,-0.1107875,3.48,56.28,-30.3
1554880056955,-3.9600096,-8.006809,-1.7004818,-0.20559604,-0.0063915867,-0.165116,3.54,56.04,-30.3
1554880056978,-4.132391999999999,-8.164826,-1.7244238,-0.24607609,-0.008522116,-0.21624869,3.6,55.8,-30.36
1554880056993,-4.0509889999999995,-8.533533,-1.6573862000000001,-0.28229508,-0.024501082,-0.26205507,3.6,55.68,-30.36
1554880057014,-4.156333999999999,-8.749011999999999,-1.9925743000000002,-0.29188246,-0.07137272,-0.28655612,3.66,55.56,-30.36
1554880057034,-4.2425256,-9.088988,-1.8537107,-0.28549087,-0.1107875,-0.28975195,3.72,55.56,-30.36
1554880057054,-4.0892963,-9.050680999999999,-1.8968061999999999,-0.25033715,-0.1470065,-0.27803403,3.78,55.68,-30.36
1554880057074,-4.1276035,-9.184756,-2.0979192,-0.23329292,-0.15978967,-0.25885928,3.72,55.92,-30.3
1554880057093,-4.189853,-9.357139,-1.7866731,-0.21944448,-0.14061491,-0.23435818,3.72,56.22,-30.18
1554880057113,-3.9791632000000003,-9.299678,-1.2791021999999999,-0.22903186,-0.13635385,-0.19387813,3.72,56.58,-30.18
1554880057135,-3.9408559999999997,-9.136872,-1.8106151000000001,-0.27590349999999997,-0.21837921,-0.11930962,3.6,57.18,-30.06
1554880057154,-3.7588966,-8.911817999999998,-1.7435773999999997,-0.2695119,-0.25672874,-0.06604639400000001,3.48,57.6,-30.0
1554880057173,-3.7636849999999997,-8.892664,-1.6861166,-0.27483824,-0.2609898,-0.047936900000000005,3.36,57.78,-29.94
1554880057193,-3.7541082,-8.926183,-1.5328877,-0.257794,-0.26418558,-0.05006743,3.06,58.08,-29.88
1554880057214,-3.6583402,-8.983644,-1.5855601000000001,-0.27164245,-0.25992453,-0.037284255,2.58,58.56,-29.82
1554880057235,-3.4955344,-8.950125,-1.3365631000000002,-0.24181503,-0.25992453,-0.025566347000000003,2.22,58.8,-29.82
1554880057254,-3.5194763999999994,-8.916606,-1.3461398999999998,-0.19707392,-0.25992453,-0.0010652645,1.86,58.98,-29.76
1554880057274,-3.5003227999999997,-8.892664,-1.5759833,-0.17257284,-0.23542345,0.012783173500000002,1.56,59.16,-29.76
1554880057295,-3.4859576,-8.96449,-1.5855601000000001,-0.19281286,-0.18642128,0.002130529,1.32,59.28,-29.7
1554880057313,-3.490746,-8.950125,-1.3892354999999998,-0.18109496,-0.16085494,-0.008522116,1.08,59.46,-29.7
1554880057334,-3.4428620000000003,-8.950125,-1.4083891000000002,-0.1470065,-0.12996227,-0.017044231,0.9,59.58,-29.7
1554880057355,-3.3375172999999996,-8.954913000000001,-1.5089456,-0.13315806,-0.094808534,-0.023435817999999997,0.9,59.76,-29.7
1554880057374,-3.5338415999999997,-9.017161999999999,-1.7531542000000002,-0.14594123,-0.06391586,-0.027696876000000002,0.84,59.88,-29.64
1554880057394,-3.4811692,-8.916606,-1.6095021,-0.099069595,-0.033023197000000004,-0.04261058,0.84,59.94,-29.64
1554880057415,-3.5960910000000004,-8.686762,-1.5328877,-0.06924219,0.0010652645,-0.054328485999999995,0.78,60.0,-29.64
1554880057434,-3.5865142,-8.696339,-1.6382325,-0.07030745599999999,0.027696876000000002,-0.07669904,0.78,60.12,-29.64
1554880057454,-3.7541082,-8.801684,-1.7962499,-0.06498113,0.043675844000000005,-0.10972224,0.72,60.18,-29.58
1554880057474,-3.7876269999999996,-8.677185,-1.9303252,-0.06178534,0.05965481,-0.12996227,0.72,60.18,-29.58
1554880057495,-3.8642415999999997,-8.763377,-1.9446903000000002,-0.17363810000000002,0.07243799,-0.113983296,0.78,60.24,-29.52
1554880057514,-3.8977604,-8.916606,-1.9303252,-0.19813919,0.098004326,-0.12037488,0.78,60.3,-29.52
1554880057534,-3.9456443999999995,-8.902241,-1.8441339,-0.21198763,0.10439592,-0.112918034,0.78,60.36,-29.46
1554880057553,-3.8594532,-9.074622999999999,-1.7962499,-0.221575,0.11504856,-0.10865697,0.78,60.42,-29.4
1554880057573,-3.9791632000000003,-9.170391,-2.0931308,-0.15020229,0.11717909,-0.10865697,0.84,60.54,-29.34
1554880057594,-3.9983168,-9.213486999999999,-2.0931308,-0.12250541,0.10652645,-0.07030745599999999,0.9,60.66,-29.22
1554880057614,-4.0318356,-9.275736,-1.9925743000000002,-0.13741912,0.10759171,-0.04580637,0.96,60.84,-29.1
1554880057634,-3.9456443999999995,-9.179967999999999,-1.8249803,-0.043675844000000005,0.09267801,-0.034088463,1.02,61.02,-28.92
1554880057654,-3.7828386,-8.863934,-2.203264,-0.002130529,0.07456851,-0.02130529,1.08,61.14,-28.74
1554880057674,-3.9552212,-8.974067,-2.0548236,0.040480047000000005,0.07669904,-0.022370555,1.14,61.32,-28.56
1554880057694,-3.9600096,-8.763377,-2.2176294,0.08735169,0.06711166,-0.018109497,1.2,61.5,-28.38
1554880057714,-3.9073372,-8.667608,-2.3421277999999996,0.06391586,0.05006743,-0.00958738,1.2,61.62,-28.26
1554880057734,-3.7828386,-8.806473,-2.203264,-0.051132694000000006,0.034088463,0.025566347000000003,1.2,61.68,-28.14
1554880057754,-3.8642415999999997,-9.0842,-1.9542671000000003,-0.1107875,0.03195793,0.04474111,1.2,61.8,-28.08
1554880057774,-3.8163576,-8.954913000000001,-1.9782091,-0.020240024,-0.004261058,0.03089267,1.2,61.8,-28.02
1554880057794,-3.7445314,-8.638878,-2.308609,0.14061491,-0.027696876000000002,0.03089267,1.2,61.86,-28.02
1554880057813,-3.6056678,-8.39467,-2.3373394,0.165116,-0.026631612000000002,0.023435817999999997,1.2,61.98,-28.02
1554880057833,-3.5769374,-8.437764999999999,-2.3756466,0.047936900000000005,-0.026631612000000002,0.03195793,1.2,62.04,-27.96
1554880057854,-3.5769374,-8.533533,-2.0739772000000003,-0.05965481,-0.035153727999999995,0.014913702,1.2,62.16,-27.96
1554880057874,-3.7014358,-8.480861,-2.3756466,0.027696876000000002,-0.033023197000000004,-0.034088463,1.2,62.22,-27.9
1554880057894,-3.6056678,-8.260594000000001,-2.1170728,-0.043675844000000005,0.01917476,-0.06285059999999999,1.2,62.28,-27.9
1554880057914,-3.7349546,-8.476072,-2.0644004000000002,-0.17363810000000002,0.04580637,-0.09161274,1.2,62.34,-27.84
1554880057934,-3.8115692,-8.4664955,-2.260725,-0.30999196,0.027696876000000002,-0.10546118,1.14,62.4,-27.84
1554880057954,-3.8690300000000004,-9.0842,-2.2942438,-0.34834146,-0.010652645,-0.10333065,1.14,62.46,-27.78
1554880057973,-3.7828386,-8.998009,-2.212841,-0.17470337,-0.007456851,-0.13209279,1.14,62.46,-27.78
1554880057993,-3.7684733999999995,-8.701127,-2.2272062000000004,-0.08948222,-0.010652645,-0.12996227,1.08,62.46,-27.72
1554880058014,-3.8402996,-8.983644,-2.4714148,-0.20026971,-0.027696876000000002,-0.10013486,1.02,62.46,-27.66
1554880058034,-3.7158010000000004,-9.1512375,-2.3373394,-0.21837921,0.0031957934000000003,-0.084155895,1.02,62.52,-27.66
1554880058054,-3.8163576,-9.074622999999999,-2.4187422,-0.04474111,0.013848438000000001,-0.10652645,1.02,62.64,-27.6
1554880058075,-3.7876269999999996,-8.648455,-2.4809916000000003,0.11717909,-0.013848438000000001,-0.10226539,0.96,62.76,-27.54
1554880058094,-3.7636849999999997,-8.581417,-2.677316,0.15552860000000002,-0.027696876000000002,-0.09587380000000001,0.96,62.82,-27.54
1554880058115,-3.7158010000000004,-8.729858,-2.7682957999999998,0.020240024,-0.05539375,-0.07243799,0.96,63.0,-27.36
1554880058134,-3.6966474000000002,-8.930971000000001,-2.5671828,-0.027696876000000002,-0.068176925,-0.08522116,0.96,63.12,-27.24
1554880058154,-3.6535518,-8.715492999999999,-2.6007016,0.023435817999999997,-0.08522116,-0.080960095,1.02,63.18,-27.12
1554880058175,-3.7828386,-8.614936,-2.6485856,0.013848438000000001,-0.07456851,-0.083090626,1.02,63.24,-27.06
1554880058195,-3.5290532,-8.672397,-2.6007016,-0.10013486,-0.07989483,-0.056459017,1.02,63.3,-27.0
1554880058215,-3.6870705999999998,-8.998009,-2.1745335999999997,-0.10972224,-0.113983296,0.004261058,1.02,63.36,-26.88
1554880058234,-3.6104562000000007,-9.314043,-1.9207484000000001,-0.060720075,-0.12463594,0.033023197000000004,0.96,63.36,-26.82
1554880058254,-3.5960910000000004,-9.170391,-2.2655133999999997,0.056459017,-0.12357068,0.06285059999999999,0.9,63.3,-26.82
1554880058274,-3.5865142,-8.988432000000001,-2.2942438,0.04261058,-0.10333065,0.07669904,0.9,63.3,-26.76
1554880058295,-3.6056678,-9.012374000000001,-1.9973627,0.14487597,-0.080960095,0.05006743,0.84,63.3,-26.76
1554880058313,-3.6008794,-8.418612,-1.9015948,0.3291667,-0.08948222,0.025566347000000003,0.78,63.3,-26.76
1554880058334,-3.4572272000000006,-8.863934,-2.0069396,0.30040458,-0.15446335,0.058589544,0.72,63.24,-26.76
1554880058354,-3.6152446000000005,-8.907029,-2.7299886000000004,0.32597092,-0.16298546,0.039414786,0.66,63.18,-26.76
1554880058374,-3.6535518,-8.519167999999999,-2.677316,0.32170987,-0.10759171,-0.02130529,0.66,63.06,-26.82
1554880058394,-3.5434184,-8.217499,-2.5480292,0.31212249999999997,-0.03834952,-0.049002163,0.6,63.0,-26.94
1554880058414,-3.5960910000000004,-8.351574000000001,-2.2990322,0.101200126,0.049002163,-0.09161274,0.6,62.82,-27.18
1554880058434,-3.466804,-8.4425535,-2.2224178,-0.14487597,0.07563378,-0.11824436,0.6,62.7,-27.36
1554880058453,-3.6727053999999995,-8.672397,-2.6007016,-0.28016454,0.08522116,-0.128897,0.6,62.58,-27.6
1554880058474,-3.3087866000000004,-9.1512375,-2.629432,-0.28336033,0.12783173,-0.12463594,0.6,62.46,-27.84
1554880058494,-3.4237084,-8.595782,-2.60549,-0.27164245,0.21624869,-0.16937704,0.6,62.34,-28.08
1554880058514,-3.6008794,-8.811261,-1.9925743000000002,-0.28229508,0.2727077,-0.12676647,0.66,62.28,-28.26
1554880058534,-3.6631286,-9.433753,-1.7531542000000002,-0.2972088,0.27057716,-0.023435817999999997,0.66,62.28,-28.38
1554880058554,-3.643975,-9.395446000000002,-2.0213048,-0.21624869,0.25353295,-0.034088463,0.66,62.28,-28.38
1554880058574,-3.6200330000000003,-9.069835000000001,-2.7874494,-0.112918034,0.17896444,-0.053263225,0.72,62.4,-28.32
1554880058594,-3.6583402,-8.825626,-2.8113914,-0.068176925,0.1587244,-0.03195793,0.72,62.64,-28.2
1554880058614,-3.5817258,-8.705916,-2.8592752999999997,-0.039414786,0.14168017,-0.022370555,0.72,62.94,-28.08
1554880058634,-3.6248214,-8.892664,-2.8113914,-0.00958738,0.17896444,-0.008522116,0.72,63.18,-28.02
1554880058653,-3.4476504,-8.54311,-2.9837740000000004,-0.07882957,0.22796659,-0.04580637,0.72,63.48,-27.9
1554880058673,-3.6679169999999996,-8.179192,-3.2854433,-0.4165184,0.18109496,-0.07989483,0.66,63.72,-27.72
1554880058693,-3.466804,-9.036316000000001,-2.1649568,-0.50173956,0.17896444,-0.09161274,0.66,63.9,-27.6
1554880058714,-3.4045547999999997,-8.696339,-2.5623944,-0.20985709,0.17896444,-0.12570119999999999,0.66,64.08,-27.42
1554880058734,-3.2800562000000006,-8.686762,-2.5671828,-0.12250541,0.19920446,-0.14061491,0.66,64.32,-27.18
1554880058754,-3.4284968,-8.4664955,-2.8544869999999998,-0.12996227,0.23542345,-0.12996227,0.6,64.44,-26.88
1554880058773,-3.5865142,-8.332419999999999,-2.7778726000000002,-0.38136467,0.18961707,-0.10546118,0.6,64.56,-26.52
1554880058795,-3.2609026,-8.418612,-3.5823242999999994,-0.52624065,0.09587380000000001,-0.06924219,0.6,64.74,-26.1
1554880058814,-3.3997664,-8.835203,-3.2902317,-0.6178534000000001,0.101200126,-0.058589544,0.66,64.8,-25.92
1554880058834,-3.3279405,-8.634089,-3.1800982999999996,-0.44954160000000004,0.07243799,-0.12996227,0.72,65.22,-25.44
1554880058854,-3.3039982000000006,-8.260594000000001,-3.7259765,-0.34088463,0.05219796,-0.16192019,0.72,65.4,-25.26
1554880058874,-3.3854012000000004,-8.54311,-3.8504747999999998,-0.45699844,0.02876214,-0.15446335,0.84,65.82,-24.66
1554880058894,-3.4093432,-8.5622635,-3.6876693,-0.67005134,-0.008522116,-0.1107875,0.84,66.12,-24.36
1554880058913,-3.0693667000000002,-8.409035000000001,-4.156933,-0.7595335999999999,-0.013848438000000001,-0.113983296,0.84,66.24,-24.18
1554880058933,-3.2034418999999996,-8.57184,-3.7211879999999997,-0.90654004,0.0,-0.11824436,0.84,66.54,-23.88
1554880058955,-3.2609026,-8.528744999999999,-3.7403417,-0.82344943,-0.023435817999999997,-0.15446335,0.78,67.2,-23.34
1554880058974,-3.2800562000000006,-8.500014,-3.793014,-0.6135923000000001,-0.047936900000000005,-0.17470337,0.72,67.62,-22.98
1554880058994,-3.2465374,-8.45213,-4.3580456,-0.49854377,-0.058589544,-0.15659387,0.6,67.98,-22.56
1554880059014,-3.217807,-8.456919000000001,-4.540005000000001,-0.5209143,-0.058589544,-0.12463594,0.48,68.34,-22.26
1554880059034,-3.0214825000000003,-8.590994,-4.233547,-0.53476274,-0.015978966,-0.101200126,0.42,68.82,-21.9
1554880059055,-2.9831752999999996,-8.576628999999999,-4.094683600000001,-0.4048005,0.029827405,-0.10333065,0.3,69.36,-21.54
1554880059074,-3.0214825000000003,-8.54311,-4.094683600000001,-0.27803403,0.05752428,-0.112918034,0.24,69.9,-21.12
1554880059094,-3.0741549999999997,-8.629301,-3.9989154,-0.17896444,0.08841695,-0.09374327,0.24,70.32,-20.7
1554880059114,-3.0885203,-8.528744999999999,-4.1329910000000005,-0.098004326,0.08735169,-0.06391586,0.18,70.68,-20.34
1554880059133,-2.944868,-8.18398,-4.6405616,-0.056459017,0.07669904,-0.04580637,0.12,70.98,-19.98
1554880059153,-3.1986535,-8.006809,-4.9135003,-0.14594123,0.040480047000000005,-0.046871635999999994,0.12,71.28,-19.68
1554880059175,-3.2609026,-8.002021000000001,-5.2678423,-0.24820662,-0.029827405,-0.060720075,0.12,71.52,-19.44
1554880059193,-3.1603463,-8.06427,-5.21517,-0.314253,-0.03195793,-0.07456851,0.0,71.76,-19.14
1554880059214,-3.2321722999999998,-8.380303999999999,-4.7985787,-0.34088463,-0.014913702,-0.06285059999999999,0.0,71.94,-18.9
1554880059233,-3.265691,-8.231864,-5.061941,-0.32277513,-0.010652645,-0.02130529,-0.06,72.12,-18.78
1554880059254,-3.0693667000000002,-8.279748,-4.9518075,-0.2876214,-0.01917476,0.017044231,-0.06,72.3,-18.6
1554880059274,-3.1507695,-8.069058,-4.9135003,-0.10865697,-0.03089267,0.027696876000000002,-0.06,72.54,-18.48
1554880059294,-3.1794999,-7.872733599999999,-5.109825,-0.111852765,-0.06604639400000001,0.017044231,-0.12,72.78,-18.3
1554880059314,-2.9783869,-7.882310400000001,-4.7937902999999995,-0.18322548,-0.10972224,0.012783173500000002,-0.12,73.02,-18.12
1554880059334,-2.9831752999999996,-7.968502,-4.836886,-0.23542345,-0.11824436,0.012783173500000002,-0.12,73.26,-18.0
1554880059354,-2.873042,-8.231864,-4.7219644,-0.21837921,-0.084155895,0.0031957934000000003,-0.12,73.5,-17.94
1554880059374,-2.96881,-8.040328,-4.4538136,-0.19387813,-0.053263225,-0.013848438000000001,-0.06,73.62,-17.88
1554880059394,-2.9783869,-7.858368400000001,-4.9039235,-0.15020229,-0.020240024,-0.029827405,-0.06,73.68,-17.76
1554880059414,-3.1124623,-7.561487700000001,-5.224746700000001,-0.20453078,-0.013848438000000001,-0.026631612000000002,0.0,73.74,-17.64
1554880059433,-3.0933087,-7.6189485,-5.6604915,-0.34088463,-0.06178534,-0.033023197000000004,0.0,73.74,-17.58
1554880059454,-3.1316159,-7.623736999999999,-5.6365495,-0.45806372,-0.06178534,-0.034088463,0.0,73.8,-17.52
1554880059474,-3.1268275,-8.016386,-5.3540335,-0.5049353,-0.037284255,-0.037284255,0.06,73.8,-17.52
1554880059494,-3.1172507,-7.891887,-5.148132299999999,-0.44634579999999996,-0.02130529,-0.041545313,0.06,73.8,-17.4
1554880059514,-3.1507695,-8.102577,-5.1768627,-0.37071204,-0.02130529,-0.06391586,0.06,73.92,-17.22
1554880059534,-3.122039,-7.867945,-5.3540335,-0.26418558,-0.015978966,-0.080960095,0.06,74.04,-16.92
1554880059554,-3.3135752999999997,-7.5183919999999995,-5.468955,-0.22050974,-0.010652645,-0.06285059999999999,0.06,74.22,-16.62
1554880059574,-3.3518825,-7.0251865,-5.583876999999999,-0.27164245,-0.029827405,-0.068176925,0.0,74.4,-16.32
1554880059594,-3.2704793999999997,-7.2262993,-5.895123,-0.4250405,-0.06711166,-0.053263225,-0.06,74.58,-16.08
1554880059614,-3.0454244999999998,-7.724292999999999,-5.9477954,-0.5475459,-0.06711166,-0.05752428,-0.12,74.76,-15.78
1554880059634,-3.0214825000000003,-7.9876556,-5.583876999999999,-0.46339005,-0.008522116,-0.07669904,-0.3,74.94,-15.48
1554880059653,-3.0023289,-7.743447,-5.109825,-0.2695119,0.05219796,-0.082025364,-0.42,75.12,-15.18
1554880059674,-3.1747115000000004,-7.5950065,-5.5886655,-0.14274544,0.036218993,-0.07243799,-0.54,75.3,-15.0
1554880059694,-3.0166939999999998,-7.49445,-6.0483522,-0.10226539,0.012783173500000002,-0.06285059999999999,-0.66,75.42,-14.82
1554880059715,-3.0310593,-7.6189485,-5.880758,-0.082025364,0.017044231,-0.07243799,-0.84,75.66,-14.52
1554880059734,-2.944868,-7.6428905,-5.468955,-0.054328485999999995,0.03195793,-0.09374327,-0.9,75.78,-14.28
1554880059754,-2.9209259999999997,-7.719505000000001,-5.617396,0.020240024,0.01917476,-0.10333065,-0.96,75.96,-14.1
1554880059775,-2.7006595,-8.255806,-5.9477954,0.06604639400000001,0.06391586,-0.11504856,-0.96,76.08,-13.92
1554880059794,-2.753332,-8.160038,-5.6365495,0.15659387,0.098004326,-0.14807177,-0.96,76.2,-13.62
1554880059814,-2.9113493,-7.944559599999999,-4.6405616,0.4101268,0.10226539,-0.15765914,-0.96,76.32,-13.38
1554880059834,-3.0023289,-8.131308,-4.899135,0.7957525,0.002130529,-0.11930962,-0.96,76.44,-13.2
1554880059854,-2.96881,-8.15525,-5.579088700000001,1.0162623,-0.09374327,-0.054328485999999995,-0.96,76.44,-13.14
1554880059874,-2.7006595,-7.9541364,-5.952584,0.9171927,-0.08948222,-0.05219796,-0.96,76.5,-13.2
1554880059894,-3.3614593,-7.968502,-5.4593782,0.8223841999999999,-0.05539375,-0.07243799,-0.96,76.44,-13.32
1554880059914,-3.0358477,-8.025963,-5.1289787,0.7435546,-0.10865697,-0.049002163,-1.02,76.26,-13.56
1554880059934,-3.3087866000000004,-8.078635,-5.2582655,0.76059884,-0.16192019,-0.08628642,-1.02,76.08,-13.86
1554880059954,-3.490746,-7.6285253,-5.66528,0.85540736,-0.19174760000000002,-0.07882957,-1.08,75.84,-14.22
1554880059973,-3.2896330000000003,-7.939771,-4.970961,0.8426242,-0.17044231,-0.05539375,-1.08,75.54,-14.64
1554880059993,-3.193865,-8.322844,-4.3915644,0.9054747999999999,-0.165116,-0.07563378,-1.14,75.24,-15.12
1554880060013,-3.3423057000000003,-8.121731,-5.109825,1.0759171,-0.1949434,-0.11717909,-1.14,74.94,-15.72
1554880060034,-3.323152,-7.389105000000001,-4.851251,0.9406285,-0.14594123,-0.12783173,-1.14,74.58,-16.32
1554880060053,-2.8299465,-8.313267,-4.621408,0.60720074,-0.094808534,-0.068176925,-1.2,74.28,-16.86
1554880060073,-3.0358477,-8.96449,-3.9510313999999997,0.40266997,0.018109497,-0.09374327,-1.2,73.98,-17.46
1554880060094,-2.695871,-9.093777000000001,-2.9358897,0.53476274,0.12250541,-0.12676647,-1.2,73.56,-18.18
1554880060114,-2.8778305,-8.437764999999999,-2.4953567999999997,0.77444726,0.14061491,-0.1949434,-1.2,73.14,-18.84
1554880060134,-2.7485435000000003,-8.500014,-3.5392287000000002,0.92464954,0.07989483,-0.08735169,-1.14,72.66,-19.5
1554880060153,-2.6527755,-8.5622635,-3.6780925000000004,0.7584683000000001,0.05965481,-0.008522116,-1.14,72.24,-20.04
1554880060173,-2.7006595,-8.15525,-3.8265328000000003,0.40586576,0.060720075,-0.049002163,-1.14,71.76,-20.64
1554880060194,-2.7389667,-8.873510000000001,-3.4386723,0.17044231,0.08628642,-0.034088463,-1.14,71.34,-21.12
1554880060214,-2.767697,-8.81605,-3.117849,0.1107875,0.11504856,-0.083090626,-1.14,70.92,-21.54
1554880060233,-2.7964275,-8.744224,-2.7012582000000003,0.15552860000000002,0.10439592,-0.099069595,-1.14,70.5,-21.9
1554880060254,-2.72939,-8.749011999999999,-3.232771,0.165116,0.037284255,-0.04580637,-1.2,70.14,-22.08
1554880060274,-2.681506,-8.950125,-3.615843,0.099069595,0.039414786,-0.026631612000000002,-1.2,69.9,-22.38
1554880060293,-2.8107927000000004,-8.883087,-3.5823242999999994,0.098004326,0.05219796,-0.037284255,-1.2,69.66,-22.56
1554880060314,-3.1986535,-8.337209,-3.2806550000000003,0.035153727999999995,0.06604639400000001,-0.04261058,-1.2,69.42,-22.74
1554880060334,-2.8538885,-8.768166,-3.4674027,-0.11611383,0.014913702,-0.041545313,-1.2,69.24,-22.86
1554880060353,-2.7964275,-9.409811,-3.1609447,-0.07776430000000001,0.03834952,0.0031957934000000003,-1.2,69.0,-22.92
1554880060373,-3.0071173,-9.088988,-3.256713,0.11717909,0.06178534,-0.0053263223,-1.14,68.88,-22.92
1554880060394,-2.8921957000000003,-8.739435,-3.2471360000000002,0.15446335,0.080960095,0.011717908999999999,-1.2,68.76,-22.98
1554880060414,-3.0262709,-8.600571,-3.6637269999999997,0.05539375,0.060720075,0.013848438000000001,-1.26,68.7,-22.98
1554880060433,-2.882619,-8.653243,-3.6206315000000004,-0.068176925,0.06711166,0.01917476,-1.32,68.7,-23.04
1554880060453,-2.791639,-8.868722,-3.1322143,-0.068176925,0.10972224,-0.017044231,-1.38,68.64,-23.1
1554880060475,-2.873042,-8.710705,-2.8496985,0.07243799,0.10759171,-0.033023197000000004,-1.44,68.64,-23.16
1554880060494,-2.6527755,-8.868722,-3.0747535,0.14274544,0.080960095,-0.020240024,-1.44,68.64,-23.22
1554880060514,-2.858677,-8.930971000000001,-3.2040405,0.15978967,0.05006743,-0.010652645,-1.38,68.64,-23.28
1554880060533,-2.7820622999999998,-8.81605,-3.4530375,0.046871635999999994,0.05539375,0.0010652645,-1.32,68.64,-23.28
1554880060554,-2.8491,-9.045893,-3.1561562999999997,-0.068176925,0.07137272,0.0053263223,-1.2,68.64,-23.34
1554880060575,-2.7820622999999998,-9.237428999999999,-3.007716,0.036218993,0.07137272,0.0031957934000000003,-1.02,68.7,-23.4
1554880060594,-2.7581203,-9.036316000000001,-3.0556,0.13528858,0.07776430000000001,0.002130529,-0.96,68.7,-23.4
1554880060613,-2.6623523,-9.194333,-3.1082723,0.30253512,0.06711166,-0.0053263223,-0.9,68.76,-23.4
1554880060633,-2.8299465,-8.787319,-3.2279825,0.35899413,0.05539375,-0.010652645,-0.78,68.76,-23.4
1554880060654,-2.9209259999999997,-8.854357,-3.1657330000000004,0.21518342,0.03089267,0.027696876000000002,-0.78,68.82,-23.46
1554880060674,-2.9640217,-9.11293,-2.8975825,0.11504856,0.039414786,0.039414786,-0.84,68.82,-23.46
1554880060694,-2.8491,-9.146449,-2.9406781000000004,0.13848437,0.056459017,0.046871635999999994,-0.84,68.82,-23.52
1554880060714,-2.7724855,-9.041103999999999,-2.60549,0.19281286,0.06604639400000001,0.05965481,-0.84,68.7,-23.58
1554880060734,-2.6719291000000003,-9.026739,-2.8018146,0.24501082,0.06924219,0.06604639400000001,-0.84,68.58,-23.76
1554880060753,-2.7581203,-8.974067,-3.1705215,0.22477080000000002,0.06498113,0.07669904,-0.84,68.46,-23.94
1554880060773,-3.0550013,-9.074622999999999,-3.5009214999999996,0.06604639400000001,0.05752428,0.08628642,-0.84,68.34,-24.12
1554880060793,-3.4237084,-9.620500999999999,-3.5727474999999997,-0.024501082,0.06498113,0.11824436,-0.84,68.16,-24.3
1554880060814,-3.6296098,-10.587758000000001,-2.9646204,-0.05219796,0.02130529,0.21837921,-0.78,68.04,-24.42
1554880060834,-4.4963107,-10.779295,-2.2559366,0.23329292,-0.040480047000000005,0.31105720000000003,-0.72,67.86,-24.6
1554880060854,-3.8594532,-10.808025,-2.1984756,0.57311225,-0.11824436,0.50173956,-0.6,67.74,-24.72
1554880060874,-4.501099,-10.697892,-2.5911248,0.6785734,-0.19920446,0.54435015,-0.42,67.68,-24.78
1554880060894,-4.4915223,-10.573393,-2.4905684,0.84581995,-0.27164245,0.7286409,-0.24,67.56,-24.84
1554880060914,-4.879383,-9.903017,-2.356493,0.9470200999999999,-0.29507825,0.7946873000000001,-0.12,67.26,-24.78
1554880060934,-5.0996494000000006,-9.883863,-2.0883423999999997,0.9267801,-0.34301516,0.9267801,0.12,66.78,-24.84
1554880060953,-5.257667,-10.286089,-1.8489223000000001,0.78296936,-0.40586576,1.1483551,0.42,66.18,-25.02
1554880060973,-5.2289367,-10.630854,-1.6334441000000002,0.7052050999999999,-0.47191215,1.2559468,0.78,65.34,-25.38
1554880060994,-5.1906295,-10.295666,-1.6430208999999998,0.9171927,-0.5209143,1.3752563999999998,1.2,64.44,-25.86
1554880061014,-5.12838,-9.553463,-1.5903485000000002,1.1142666,-0.5454154,1.4594122999999999,1.56,63.36,-26.4
1554880061033,-5.248090299999999,-9.0315275,-1.6142905,1.2250541000000001,-0.5550028,1.5691346000000002,1.92,62.1,-27.06
1554880061053,-5.2624555,-8.859145,-1.5376761,1.1994878,-0.5613944000000001,1.6714,2.28,60.6,-27.72
1554880061074,-5.209783,-8.643666,-1.2024878,1.0663296999999998,-0.59122175,1.73212,2.64,58.98,-28.56
1554880061094,-5.248090299999999,-8.006809,-1.2264298,0.87564737,-0.5965481,1.7534252000000001,2.94,57.3,-29.52
1554880061114,-5.463568,-7.848791599999999,-0.7332243,0.7680557,-0.572047,1.7885790000000001,3.36,55.44,-30.54
1554880061134,-5.612008599999999,-7.6572556,-0.7140707,0.7755125,-0.57098174,1.7598169,3.78,53.7,-31.32
1554880061154,-5.645528,-7.255029700000001,-0.5943606,0.7946873000000001,-0.5518069999999999,1.7118799999999998,4.14,51.96,-32.04
1554880061174,-5.722142,-6.83365,-0.21607670000000004,0.80107886,-0.53476274,1.6458336,4.5,50.04,-32.7
1554880061194,-5.7939680000000005,-6.206369400000001,-0.16340427,0.7914915,-0.5305017,1.5680691999999998,4.92,48.12,-33.24
1554880061214,-5.449203,-5.310938,1.6609775000000002,0.6540724,-0.48469532,1.4817829,5.28,46.26,-33.9
1554880061234,-6.4068837,-5.852027400000001,0.15263036,0.6775081999999999,-0.44954160000000004,1.3795174,5.58,44.46,-34.56
1554880061253,-6.2488665999999995,-5.617396,0.48303019999999997,0.628506,-0.48469532,1.2911005,5.88,42.72,-35.04
1554880061273,-6.540959,-5.277419,0.88046765,0.7275756,-0.46978164,1.1568771999999998,6.0,41.04,-35.46
1554880061294,-6.603208,-4.611831,1.134253,0.77231675,-0.44208476,0.9960223,6.12,39.42,-35.94
