TimeStamp,Ax,Ay,Az,Gx,Gy,Gz,Mx,My,Mz
1554879731456,-1.9871874,-9.366715,4.2945995,-0.05539375,-0.039414786,0.22690132,5.58,21.78,-46.98
1554879731476,-1.9105729999999999,-9.543886,4.5819035,-0.16192019,-0.05965481,0.3057309,5.58,21.54,-47.04
1554879731496,-2.3223755,-9.601347,4.7399206,-0.13209279,-0.06178534,0.41225734,5.58,21.36,-47.1
1554879731515,-2.8155810000000003,-9.481637,4.735132,-0.07137272,-0.08522116,0.5699165,5.52,21.3,-47.16
1554879731535,-3.0214825000000003,-9.759364999999999,4.7734394,-0.08841695,-0.14594123,0.7339671999999999,5.46,21.24,-47.16
1554879731556,-2.9640217,-10.333973,4.9841294000000005,-0.18322548,-0.19387813,0.8852348,5.4,21.18,-47.22
1554879731575,-2.801216,-10.707469,4.9745526,-0.19707392,-0.19174760000000002,1.0322412,5.34,21.12,-47.22
1554879731596,-2.8203697,-10.693104,4.706402,-0.098004326,-0.15126756,1.2154667,5.28,21.0,-47.22
1554879731615,-2.9209259999999997,-10.415376,4.500500700000001,0.040480047000000005,-0.06178534,1.4093448999999998,5.34,20.82,-47.22
1554879731636,-3.0119057000000002,-9.989208,4.447828299999999,0.18216023,0.018109497,1.5765913999999999,5.34,20.64,-47.28
1554879731655,-3.1124623,-9.998785,4.208408,0.25885928,0.07776430000000001,1.7150756999999999,5.4,20.4,-47.34
1554879731675,-3.0166939999999998,-9.596559,4.079121,0.30360037,0.113983296,1.8173412,5.46,20.04,-47.4
1554879731696,-3.1124623,-9.486425,3.8157589999999995,0.3653857,0.16192019,1.9089539,5.7,19.38,-47.52
1554879731715,-3.2082303,-9.414599,3.8109705000000003,0.39947417,0.20453078,1.9952403000000003,6.0,18.72,-47.64
1554879731736,-3.5577837999999997,-9.012374000000001,3.2794578000000003,0.39521313,0.22690132,2.0463731,6.3,18.0,-47.7
1554879731755,-3.7828386,-8.820838,3.4757824,0.28122982,0.25672874,2.0889835,6.54,16.92,-47.76
1554879731776,-3.8450879999999996,-8.5143795,3.8349125,0.19707392,0.26631612,2.1667478,6.84,15.9,-47.76
1554879731796,-4.1132383,-8.500014,3.6242227999999996,0.24607609,0.28122982,2.2221417000000003,7.14,14.82,-47.82
1554879731815,-4.3478703,-7.973290400000001,3.8061821000000005,0.35473305,0.3206446,2.2690134,7.38,13.68,-47.88
1554879731835,-4.5537715,-7.422623599999999,3.7104141999999998,0.47404268,0.350472,2.3052322999999997,7.68,12.42,-47.88
1554879731856,-4.8267107000000005,-6.7666125,3.7008373999999997,0.5496765,0.39627838,2.336125,7.92,10.86,-47.94
1554879731875,-5.1523223,-6.3165026,3.4757824,0.6135923000000001,0.43995422,2.343582,8.16,9.3,-48.06
1554879731895,-5.3007627,-5.559935,3.6337996,0.60933125,0.49215218,2.352104,8.34,7.68,-48.12
1554879731915,-5.420472599999999,-5.1768627,3.3225534,0.6295713000000001,0.5518069999999999,2.3020365000000003,8.58,6.06,-48.18
1554879731935,-5.6790465999999995,-4.6884456,3.3895910000000002,0.58056915,0.6103965,2.2626216,8.76,4.26,-48.3
1554879731957,-5.755661,-3.9653966,3.447052,0.535828,0.6711166000000001,2.1784658,8.94,2.34,-48.36
1554879731976,-6.0381765,-3.3859997,3.4039562000000005,0.50813115,0.7488809000000001,2.0612866999999997,9.12,0.3,-48.48
1554879731996,-6.2632318,-2.8736405,3.2794578000000003,0.41119209999999995,0.8309063,1.892975,9.24,-1.8,-48.54
1554879732015,-6.517017,-2.6725276,3.1741127999999996,0.31851408,0.85966843,1.7885790000000001,9.36,-3.54,-48.6
1554879732036,-6.775591,-2.3708582000000002,3.1453824,0.22370553,0.88203895,1.598962,9.48,-5.16,-48.66
1554879732055,-7.0485296,-1.8728642,3.1262288,0.22583607,0.84688526,1.478587,9.54,-6.6,-48.72
1554879732076,-7.455544000000001,-1.7914615000000003,3.2698810000000003,0.23968449999999997,0.8064051999999999,1.3432984,9.54,-7.98,-48.78
1554879732096,-7.7332716,-1.7483658,3.0735563999999997,0.13102753,0.7456851,1.2250541000000001,9.54,-9.3,-48.78
1554879732115,-7.819463000000001,-1.5280992,2.9011737999999996,0.10546118,0.6498113,1.0823087,9.54,-10.56,-48.78
1554879732136,-8.054094000000001,-1.1881226,2.9394810000000002,0.10333065,0.5795039000000001,0.9171927,9.6,-11.58,-48.72
1554879732156,-8.341399000000001,-0.8960299999999999,3.1549592,0.17044231,0.5187838,0.77231675,9.6,-12.42,-48.6
1554879732176,-8.561666,-0.7763199000000001,2.915539,0.21198763,0.45699844,0.64768076,9.6,-13.26,-48.48
1554879732195,-8.738836000000001,-0.7906850999999999,2.9203273999999997,0.18961707,0.44421527,0.57098174,9.66,-14.04,-48.36
1554879732216,-9.021352,-0.6278794,3.0160956000000003,0.165116,0.37390783,0.4261058,9.72,-14.88,-48.18
1554879732235,-8.954314,-0.57041854,2.8149827000000003,0.20026971,0.3153183,0.33662358,9.84,-15.6,-48.0
1554879732255,-8.781932000000001,-0.75237787,2.556409,0.16724652,0.27696875,0.3323625,9.9,-16.2,-47.82
1554879732276,-8.734048,-0.9056068000000002,2.5611973,0.12676647,0.26525086,0.33449304,10.02,-16.68,-47.64
1554879732296,-8.690952000000001,-0.75237787,2.7670987,0.13635385,0.26525086,0.27164245,10.14,-17.22,-47.46
1554879732315,-8.963891,-0.7906850999999999,2.5037365,0.21837921,0.23755397,0.18535602,10.26,-17.64,-47.28
1554879732335,-9.002198,-0.55605334,2.144606,0.25033715,0.11504856,0.13848437,10.38,-18.12,-47.1
1554879732355,-9.169792,-0.64703304,2.307412,0.26418558,0.16618125,0.099069595,10.44,-18.54,-46.98
1554879732376,-9.433155000000001,-0.88645315,2.2260091,0.2545982,0.12996227,0.1107875,10.5,-18.9,-46.86
1554879732395,-9.682152,-0.98222125,2.6521769,0.22903186,0.1587244,0.15978967,10.5,-19.2,-46.62
1554879732415,-9.600749,-0.75716627,2.3026235,0.28016454,0.14594123,0.19600865,10.56,-19.5,-46.44
1554879732436,-9.744401,-0.39803603,2.168548,0.31957933,0.1438107,0.20240025,10.56,-19.68,-46.32
1554879732456,-9.619903,-0.25917232,2.6282349,0.27377295,0.14913702,0.22264028,10.62,-19.98,-46.2
1554879732475,-9.710882000000002,-0.0724246,1.8189948,0.28229508,0.09267801,0.20985709,10.74,-20.28,-46.08
1554879732496,-9.634267999999999,-0.16819267,2.178125,0.07669904,0.08628642,0.2695119,10.86,-20.76,-45.9
1554879732515,-9.040505,-0.13467385,2.2882583,-0.018109497,0.033023197000000004,0.28975195,10.92,-20.88,-45.9
1554879732536,-8.858546,-0.24001873,2.3265655,0.036218993,-0.025566347000000003,0.25140239999999997,10.98,-21.12,-45.84
1554879732556,-9.02614,-0.21607670000000004,2.3696610000000002,0.06391586,-0.043675844000000005,0.21944448,11.1,-21.42,-45.84
1554879732576,-9.351752000000001,-0.019752163,2.4558525,0.10759171,-0.049002163,0.13315806,11.16,-21.72,-45.84
1554879732595,-9.260772,0.19093758,2.28347,0.111852765,-0.043675844000000005,0.058589544,11.22,-22.2,-45.78
1554879732616,-9.246407000000001,0.15741876,2.1206641,0.046871635999999994,-0.023435817999999997,0.04261058,11.22,-22.44,-45.78
1554879732636,-9.002198,0.037708677,2.1350293,-0.026631612000000002,-0.025566347000000003,0.033023197000000004,11.22,-22.68,-45.72
1554879732656,-9.040505,0.0712275,2.3409307,-0.08841695,-0.0031957934000000003,0.0,11.22,-22.92,-45.66
1554879732675,-8.949525999999999,-0.14903906,2.0488381,-0.040480047000000005,-0.004261058,-0.043675844000000005,11.22,-23.22,-45.6
1554879732695,-9.131485000000001,-0.09636662,1.9195513,-0.013848438000000001,-0.022370555,-0.043675844000000005,11.16,-23.46,-45.54
1554879732716,-9.165004,-0.14903906,2.0344729999999998,-0.056459017,-0.011717908999999999,-0.053263225,11.04,-23.64,-45.48
1554879732736,-8.90643,-0.12509704,2.0632033,-0.07989483,-0.00958738,-0.084155895,10.98,-23.7,-45.48
1554879732755,-9.337387,-0.27832595,2.1254525,-0.10972224,0.017044231,-0.096939065,10.86,-23.76,-45.42
1554879732776,-9.404425,-0.3357868,1.9818004,-0.12463594,0.036218993,-0.09374327,10.74,-23.76,-45.42
1554879732795,-9.481038999999999,-0.26396075,2.0775685,-0.084155895,0.049002163,-0.08948222,10.62,-23.82,-45.42
1554879732815,-9.509769,-0.30226797,2.3505075,-0.026631612000000002,0.047936900000000005,-0.09054748,10.5,-23.88,-45.48
1554879732836,-9.457097000000001,-0.27353755,2.2068555,-0.043675844000000005,0.04474111,-0.08735169,10.38,-23.88,-45.54
1554879732855,-9.370906,-0.24001873,2.331354,-0.128897,0.03089267,-0.09374327,10.32,-23.88,-45.66
1554879732875,-9.303867,-0.24959552,2.28347,-0.20985709,0.026631612000000002,-0.099069595,10.32,-23.82,-45.78
1554879732896,-9.471461999999999,-0.3788824,2.460641,-0.22796659,0.026631612000000002,-0.10652645,10.32,-23.76,-45.9
1554879732915,-9.476251,-0.38845924,2.4079683,-0.1587244,0.00958738,-0.10759171,10.32,-23.58,-46.02
1554879732936,-9.399636,-0.29269117,2.28347,-0.11611383,0.011717908999999999,-0.098004326,10.38,-23.4,-46.14
1554879732955,-9.442732000000001,-0.3405752,2.1206641,-0.098004326,0.0053263223,-0.083090626,10.38,-23.16,-46.26
1554879732976,-9.303867,-0.3357868,2.2691047,-0.11824436,0.004261058,-0.09267801,10.38,-22.98,-46.26
1554879732996,-9.14585,-0.32142156,2.3840263,-0.12463594,0.013848438000000001,-0.112918034,10.38,-22.74,-46.26
1554879733016,-9.174581,-0.350152,2.4271219,-0.049002163,0.03089267,-0.15020229,10.38,-22.5,-46.32
1554879733035,-9.270349000000001,-0.25917232,2.130241,0.084155895,0.03089267,-0.20240025,10.38,-22.26,-46.32
1554879733055,-9.495403999999999,-0.6805518,1.9195513,0.084155895,0.043675844000000005,-0.2066613,10.44,-22.08,-46.32
1554879733076,-9.485827,-0.6183026,1.9818004,-0.011717908999999999,0.05006743,-0.20240025,10.44,-22.02,-46.32
1554879733096,-9.763555,-0.87687635,1.5939398,-0.1107875,0.04261058,-0.18216023,10.5,-21.9,-46.32
1554879733116,-9.811439,-1.1354501000000001,2.0775685,-0.2130529,0.03834952,-0.08841695,10.56,-21.84,-46.32
1554879733136,-9.586383999999999,-0.7332243,2.3265655,-0.1470065,0.029827405,-0.040480047000000005,10.62,-21.72,-46.32
1554879733156,-9.572019000000001,-0.52253455,2.1254525,-0.007456851,0.013848438000000001,-0.06391586,10.74,-21.54,-46.38
1554879733176,-9.581595,-0.30226797,2.1493945,0.06498113,0.03195793,-0.06924219,10.8,-21.36,-46.32
1554879733196,-9.466674000000001,-0.5943606,2.0392613,0.02130529,0.041545313,-0.04474111,10.86,-21.18,-46.26
1554879733216,-9.3661175,-0.694917,1.9387047999999998,-0.07776430000000001,0.040480047000000005,-0.054328485999999995,10.98,-21.06,-46.14
1554879733235,-9.56723,-0.8242039000000001,2.0105310000000003,-0.12570119999999999,0.014913702,-0.06604639400000001,11.1,-20.88,-46.02
1554879733255,-9.509769,-0.694917,2.2643162999999995,-0.1107875,0.002130529,-0.040480047000000005,11.22,-20.7,-45.96
1554879733276,-9.485827,-0.9056068000000002,2.130241,-0.07137272,-0.0063915867,-0.02130529,11.28,-20.58,-45.84
1554879733295,-9.437942999999999,-0.7236475,2.321777,-0.047936900000000005,0.013848438000000001,-0.02130529,11.34,-20.46,-45.78
1554879733316,-9.442732000000001,-0.7044938000000001,2.0871453,0.026631612000000002,0.026631612000000002,-0.015978966,11.4,-20.4,-45.72
1554879733335,-9.490616000000001,-0.7380127,1.9387047999999998,0.05539375,0.015978966,-0.0031957934000000003,11.4,-20.34,-45.72
1554879733355,-9.346964,-0.53689975,1.9003976999999999,0.029827405,-0.002130529,-0.0063915867,11.4,-20.34,-45.78
1554879733376,-9.370906,-0.5895722,1.7136499,-0.035153727999999995,-0.01917476,-0.020240024,11.4,-20.28,-45.9
1554879733395,-9.423578,-0.52253455,1.8716671000000003,-0.12996227,-0.026631612000000002,-0.035153727999999995,11.34,-20.28,-46.02
1554879733416,-9.428367,-0.7332243,2.1206641,-0.18216023,-0.015978966,-0.041545313,11.46,-20.28,-46.2
1554879733436,-9.576807,-0.7954735,2.235586,-0.1587244,-0.002130529,-0.033023197000000004,11.46,-20.28,-46.26
1554879733455,-9.447519999999999,-0.7715314999999999,2.2260091,-0.11930962,0.00958738,-0.02130529,11.46,-20.22,-46.38
1554879733475,-9.399636,-0.8194155000000001,2.0775685,-0.07563378,0.007456851,-0.017044231,11.52,-20.1,-46.44
1554879733496,-9.380483,-0.7092823,2.0296845,-0.06178534,0.007456851,-0.0053263223,11.64,-19.98,-46.44
1554879733516,-9.279925,-0.76195467,2.0392613,-0.014913702,0.004261058,0.002130529,11.7,-19.86,-46.5
1554879733535,-9.217675999999999,-0.694917,1.9147629000000002,0.037284255,0.0,-0.00958738,11.7,-19.74,-46.44
1554879733556,-9.433155000000001,-0.7188591,1.8956091,0.05006743,-0.024501082,-0.02876214,11.7,-19.68,-46.44
1554879733575,-9.811439,-0.9247603999999999,1.6801311,-0.049002163,-0.025566347000000003,-0.010652645,11.64,-19.56,-46.38
1554879733595,-9.390058999999999,-0.75716627,2.1015105,-0.13848437,-0.041545313,0.002130529,11.64,-19.44,-46.32
1554879733615,-9.002198,-0.7332243,2.202067,-0.09267801,-0.014913702,-0.018109497,11.58,-19.38,-46.26
1554879733637,-9.184157,-0.7188591,2.168548,0.07350325,0.0010652645,-0.068176925,11.58,-19.38,-46.26
1554879733656,-9.509769,-0.7380127,1.9674352,0.07989483,-0.03195793,-0.05965481,11.52,-19.32,-46.26
1554879733675,-9.562441999999999,-0.75237787,1.7806876,-0.011717908999999999,-0.037284255,-0.043675844000000005,11.46,-19.26,-46.2
1554879733695,-9.461885,-0.84814596,2.0248961,-0.098004326,-0.041545313,-0.051132694000000006,11.46,-19.2,-46.2
1554879733716,-9.452309,-0.7811083000000001,2.2403743,-0.051132694000000006,-0.037284255,-0.03834952,11.4,-19.2,-46.2
1554879733735,-9.457097000000001,-0.7811083000000001,2.2307975,-0.0053263223,-0.03089267,-0.02876214,11.34,-19.14,-46.2
1554879733756,-9.605537,-0.9103952,1.8333599999999999,0.0,-0.033023197000000004,-0.022370555,11.34,-19.08,-46.2
1554879733776,-10.31901,-1.1881226,1.6418238,0.004261058,-0.02876214,-0.00958738,11.34,-19.14,-46.2
1554879733796,-10.333375,-0.66139823,3.3464954,0.0010652645,0.068176925,-0.0010652645,11.4,-19.14,-46.2
1554879733816,-8.767567,-0.95349085,2.556409,0.24501082,0.008522116,0.10226539,11.46,-19.14,-46.2
1554879733835,-8.767567,-0.28311434,2.5228900000000003,0.40586576,0.047936900000000005,0.051132694000000006,11.52,-19.2,-46.2
1554879733856,-8.537724,-0.42676646,1.7471686999999998,0.46232477,-0.010652645,-0.05965481,11.52,-19.26,-46.2
1554879733875,-8.51857,-0.5033809,1.5316905,0.30146983,-0.035153727999999995,-0.046871635999999994,11.58,-19.32,-46.2
1554879733895,-8.939949,-0.75716627,1.2970588,-0.08735169,-0.08735169,-0.083090626,11.64,-19.38,-46.2
1554879733916,-9.174581,-0.7188591,1.8429368000000002,-0.31105720000000003,-0.11824436,-0.17150758,11.64,-19.44,-46.2
1554879733935,-8.6095495,-0.6135142,3.2267854,-0.22796659,-0.06498113,-0.23435818,11.64,-19.5,-46.14
1554879733955,-8.791509,-0.12988544,2.6282349,0.3174488,-0.047936900000000005,-0.41438788,11.64,-19.5,-46.14
1554879733976,-9.246407000000001,-0.36930559999999996,1.8381484000000001,0.5230448000000001,-0.0053263223,-0.49534798,11.58,-19.56,-46.14
1554879733996,-8.963891,-0.623091,1.9722236000000002,0.37603834,0.015978966,-0.51984906,11.58,-19.56,-46.08
1554879734016,-8.604761,-0.82899237,1.9099745,0.19813919,-0.05006743,-0.6114618,11.58,-19.62,-46.08
1554879734036,-8.09719,-0.87687635,2.178125,-0.00958738,-0.12996227,-0.6743124,11.58,-19.62,-46.08
1554879734056,-8.2169,-1.1641805,2.345719,-0.08841695,-0.19281286,-0.69348717,11.58,-19.68,-46.08
1554879734076,-8.1163435,-1.0588357,2.5276785,-0.12144015,-0.27164245,-0.78723043,11.58,-19.68,-46.08
1554879734096,-7.608772999999999,-0.7236475,2.2930467,-0.0053263223,-0.41119209999999995,-0.9502159,11.64,-19.62,-46.08
1554879734116,-7.603985000000001,-0.82899237,1.7088615000000003,0.30999196,-0.6221144000000001,-1.1930962,11.76,-19.32,-46.08
1554879734135,-7.4507556,-1.1162965,1.8429368000000002,0.39095205,-0.76912093,-1.3198626,11.82,-19.2,-46.08
1554879734156,-6.861782000000001,-1.4371196000000002,2.1972785,0.23009712,-0.9235843,-1.4487596999999999,11.94,-18.78,-46.08
1554879734175,-6.900089299999999,-1.8920178,2.6282349,-0.041545313,-1.0215886,-1.6458336,12.06,-18.3,-46.02
1554879734196,-6.756437299999999,-2.4474726,2.7862522999999997,-0.4016047,-1.0982877,-1.9941751,12.18,-17.4,-46.02
1554879734216,-6.3111157,-3.103484,2.8485014,-0.55074173,-1.1707256000000001,-2.1603562999999997,12.3,-16.68,-46.02
1554879734235,-6.0716953,-3.8265328000000003,3.0065188,-0.5816344,-1.2303803999999998,-2.2264028,12.36,-15.66,-46.02
1554879734255,-5.8083334,-4.6261964,3.3800142,-0.5784385999999999,-1.2357068000000002,-2.3052322999999997,12.36,-14.46,-46.14
1554879734276,-5.530606,-5.5743003,3.6194344,-0.5294364,-1.2175972,-2.4650217999999997,12.36,-13.2,-46.26
1554879734296,-5.195418,-5.6844335,3.7295678,-0.4016047,-1.2058792999999999,-2.6407907,12.24,-11.82,-46.38
1554879734315,-5.209783,-6.033987000000001,3.8492777,-0.25033715,-1.1622036,-2.7579696,12.06,-10.2,-46.56
1554879734336,-5.209783,-6.4793080000000005,4.170100700000001,-0.11504856,-1.0780476,-2.8133633,11.76,-8.34,-46.8
1554879734356,-4.8362875,-7.053917,4.0360255,-0.025566347000000003,-1.0524813,-2.8218856,11.52,-6.42,-47.1
1554879734376,-4.477157,-7.1975690000000005,4.2610803,0.0053263223,-1.0098706,-2.8378644,11.22,-4.44,-47.46
1554879734395,-4.343082,-7.5327573,4.586692,-0.011717908999999999,-0.9576728000000001,-2.860235,10.92,-2.58,-47.82
1554879734415,-4.036624,-7.973290400000001,4.988918,-0.10013486,-0.8628642,-2.8154939999999997,10.62,-0.84,-48.12
1554879734436,-3.6870705999999998,-8.279748,5.0559554,-0.13848437,-0.7765778,-2.7398603,10.26,0.84,-48.36
1554879734456,-3.4955344,-8.811261,5.0846860000000005,-0.084155895,-0.6828345,-2.6908581000000003,9.78,2.4,-48.6
1554879734476,-3.2130187,-9.045893,5.1996074,-0.002130529,-0.60507023,-2.6365293999999997,9.36,3.78,-48.84
1554879734496,-2.9735985,-9.194333,5.4055089999999995,0.07350325,-0.5219796,-2.5566347,8.94,4.98,-49.02
1554879734516,-2.7964275,-9.165602999999999,5.443816,0.16405073,-0.43995422,-2.4884577,8.46,6.3,-49.08
1554879734535,-2.3894134,-9.088988,5.276222,0.21411815,-0.37923414,-2.3691482999999995,7.98,7.5,-49.14
1554879734555,-1.9536686,-9.462483,5.300164,0.20240025,-0.33875409999999995,-2.2168152,7.5,8.52,-49.2
1554879734576,-1.5993267,-9.725846,5.415086,0.15552860000000002,-0.2972088,-2.0463731,7.08,9.54,-49.26
1554879734596,-1.2401965,-9.979631,5.228338,0.03834952,-0.27377295,-1.8482338,6.66,10.5,-49.38
1554879734616,-0.9576806999999999,-10.951677,5.5826797,-0.18322548,-0.23968449999999997,-1.5425029,6.42,11.4,-49.44
1554879734635,-0.6512229,-11.238980999999999,5.467758,-0.3536678,-0.19600865,-1.2069446000000001,6.12,12.3,-49.5
1554879734655,-1.0965444,-11.0139265,5.3815669999999995,-0.29614353,-0.16724652,-0.9800433000000001,5.88,13.08,-49.56
1554879734676,-1.3838485,-10.559028,5.01286,-0.28549087,-0.17576863,-0.73822826,5.64,13.74,-49.56
1554879734695,-1.2880806,-10.070611,4.9841294000000005,-0.38456047,-0.21411815,-0.49321744,5.28,14.34,-49.5
1554879734715,-1.3215994,-9.663596,4.7830167,-0.46232477,-0.25353295,-0.3536678,4.92,15.0,-49.5
1554879734736,-1.412579,-9.132083999999999,4.5148660000000005,-0.4644553,-0.30146983,-0.23648871,4.56,15.6,-49.44
1554879734756,-1.2210428999999998,-8.950125,4.6920366,-0.41864893,-0.34408042,-0.08628642,4.14,16.26,-49.32
1554879734776,-1.2210428999999998,-8.892664,4.687248,-0.34727620000000003,-0.37390783,0.017044231,3.78,16.8,-49.26
1554879734795,-0.9528923,-8.696339,4.735132,-0.28655612,-0.38775626,0.08948222,3.54,17.4,-49.26
1554879734815,-0.6751649000000001,-8.69155,4.696825,-0.22583607,-0.38775626,0.1438107,3.3,18.0,-49.2
1554879734838,-0.17717093,-8.710705,4.524442700000001,-0.13741912,-0.3685815,0.17896444,3.06,18.48,-49.2
1554879734857,0.10534488,-8.715492999999999,4.2658687,-0.058589544,-0.330232,0.20026971,2.94,18.9,-49.14
1554879734876,0.37828386,-8.686762,4.32333,0.011717908999999999,-0.2790993,0.20240025,2.76,19.2,-49.14
1554879734896,0.45968673,-8.624513,4.1461587,0.022370555,-0.221575,0.24607609,2.46,19.5,-49.14
1554879734916,0.6368576,-8.614936,4.2610803,-0.007456851,-0.19387813,0.24820662,2.22,19.74,-49.2
1554879734936,0.7134720999999999,-8.504802999999999,4.2850223,-0.03195793,-0.18002969,0.23542345,1.92,19.86,-49.2
1554879734955,0.80924016,-8.581417,4.313753,-0.046871635999999994,-0.17150758,0.23009712,1.68,19.92,-49.26
1554879734975,0.79487497,-8.57184,4.3999443,-0.036218993,-0.17363810000000002,0.2130529,1.38,19.86,-49.32
1554879734996,0.81402856,-8.552686999999999,4.32333,-0.017044231,-0.16831179,0.20133498,1.14,19.86,-49.38
1554879735016,0.842759,-8.519167999999999,4.361637,0.0010652645,-0.16618125,0.19387813,0.9,19.8,-49.44
1554879735041,0.89543146,-8.341997000000001,4.4861355000000005,0.011717908999999999,-0.15659387,0.17470337,0.78,19.74,-49.5
1554879735055,0.8475474000000001,-8.39467,4.5675383,0.025566347000000003,-0.14061491,0.13528858,0.72,19.68,-49.62
1554879735076,0.8283938,-8.45213,4.6776714,0.03195793,-0.12250541,0.096939065,0.72,19.62,-49.68
1554879735095,0.7661445,-8.413822999999999,4.577115,0.05752428,-0.098004326,0.051132694000000006,0.72,19.44,-49.68
1554879735115,0.60812724,-8.251018,4.624999,0.05752428,-0.09161274,0.024501082,0.72,19.32,-49.74
1554879735136,0.5363011999999999,-8.332419999999999,4.68246,0.007456851,-0.09587380000000001,-0.007456851,0.66,19.02,-49.74
1554879735156,0.36391866,-8.437764999999999,4.797382,-0.043675844000000005,-0.094808534,-0.033023197000000004,0.66,18.84,-49.74
1554879735175,0.320823,-8.456919000000001,4.7782279999999995,-0.06391586,-0.09374327,-0.053263225,0.6,18.6,-49.74
1554879735196,0.19632454,-8.528744999999999,4.8404775,-0.043675844000000005,-0.096939065,-0.060720075,0.54,18.42,-49.74
1554879735215,0.20590134,-8.600571,4.7830167,0.01917476,-0.09587380000000001,-0.06285059999999999,0.42,18.24,-49.74
1554879735235,0.08619126,-8.672397,4.8452660000000005,0.06178534,-0.08628642,-0.054328485999999995,0.36,18.12,-49.8
1554879735256,0.047884032,-8.437764999999999,4.8404775,0.09587380000000001,-0.06924219,-0.05006743,0.24,18.06,-49.86
1554879735276,-0.1388637,-8.380303999999999,4.601057,0.1107875,-0.054328485999999995,-0.04474111,0.12,18.12,-49.92
1554879735296,-0.12928689,-8.404246,4.6393642,0.07456851,-0.05219796,-0.036218993,0.06,18.12,-49.98
1554879735316,-0.16280572,-8.298902,4.4957123,0.01917476,-0.03834952,-0.018109497,-0.06,18.18,-50.04
1554879735335,-0.22026655,-8.528744999999999,4.6058455,-0.004261058,-0.043675844000000005,-0.014913702,-0.06,18.24,-50.16
1554879735355,-0.31124622,-8.619724,4.577115,0.0010652645,-0.041545313,-0.0010652645,-0.12,18.3,-50.22
1554879735376,-0.20111294,-8.595782,4.5675383,0.002130529,-0.05752428,0.011717908999999999,-0.12,18.3,-50.28
1554879735396,-0.21068975,-8.648455,4.5723267,-0.008522116,-0.07776430000000001,0.036218993,-0.12,18.36,-50.28
1554879735416,-0.3878607,-8.634089,4.4717703,0.02876214,-0.083090626,0.08841695,-0.18,18.36,-50.34
1554879735436,-0.48362875,-8.796896,4.538808,0.040480047000000005,-0.10013486,0.11717909,-0.18,18.42,-50.4
1554879735455,-0.21068975,-8.993219999999999,4.5100775,0.029827405,-0.13848437,0.13315806,-0.18,18.42,-50.46
1554879735475,-0.0047884034,-9.261371,4.5435963,0.082025364,-0.16298546,0.128897,-0.18,18.42,-50.46
1554879735496,0.272939,-9.342773,4.174889,0.14487597,-0.16831179,0.14807177,-0.18,18.42,-50.52
1554879735516,0.5315128,-9.074622999999999,4.117428299999999,0.17896444,-0.13422333,0.18748654,-0.24,18.42,-50.52
1554879735535,0.37349546,-8.648455,3.8971617,0.15552860000000002,-0.10439592,0.20772657,-0.24,18.42,-50.58
1554879735555,0.26336220000000005,-8.337209,3.9498343,0.06285059999999999,-0.07030745599999999,0.25033715,-0.24,18.3,-50.58
1554879735576,0.24899697,-8.078635,3.7582982000000005,-0.013848438000000001,-0.036218993,0.28975195,-0.24,18.18,-50.58
1554879735596,0.25378537,-8.06427,3.8540661,-0.007456851,-0.022370555,0.28336033,-0.42,18.0,-50.58
1554879735616,0.31603462,-8.088212,3.7247794,0.010652645,0.002130529,0.28549087,-0.54,17.88,-50.58
1554879735635,0.39264908,-8.131308,3.7535098,0.041545313,0.023435817999999997,0.25140239999999997,-0.66,17.76,-50.64
1554879735655,0.45010993,-8.073847,3.6864722000000003,0.041545313,0.03195793,0.17576863,-0.78,17.64,-50.64
1554879735675,0.48362875,-8.322844,3.5284547999999996,-0.0031957934000000003,0.04261058,0.11504856,-0.9,17.52,-50.7
1554879735695,0.7038953,-8.428188,3.7247794,-0.099069595,0.04474111,0.06285059999999999,-1.02,17.4,-50.76
1554879735715,0.6895300999999999,-8.749011999999999,3.863643,-0.19174760000000002,0.047936900000000005,0.013848438000000001,-1.14,17.34,-50.82
1554879735737,0.6799533,-8.81605,4.1653123,-0.22796659,0.036218993,-0.014913702,-1.2,17.34,-50.88
1554879735755,0.6799533,-8.916606,4.2658687,-0.20133498,0.012783173500000002,-0.029827405,-1.14,17.34,-50.88
1554879735775,0.49320555,-8.796896,4.32333,-0.1470065,0.002130529,-0.017044231,-1.08,17.34,-50.94
1554879735795,0.20111294,-8.576628999999999,4.371214,-0.09054748,-0.0053263223,-0.0053263223,-0.96,17.34,-51.0
1554879735816,0.14844051,-8.4234,4.4526167,-0.06711166,-0.020240024,-0.011717908999999999,-0.78,17.46,-50.94
1554879735836,0.1388637,-8.289325,4.5340195,-0.06391586,-0.025566347000000003,-0.033023197000000004,-0.66,17.52,-50.88
1554879735856,-0.0047884034,-8.251018,4.481347,-0.068176925,-0.015978966,-0.068176925,-0.54,17.64,-50.82
1554879735876,0.033518825,-8.30369,4.270657,-0.036218993,0.0010652645,-0.12463594,-0.42,17.82,-50.64
1554879735896,-0.038307227,-8.461707,4.4286747,-0.011717908999999999,0.04261058,-0.15552860000000002,-0.3,18.0,-50.52
1554879735915,-0.11492168,-8.619724,4.217984700000001,0.0053263223,0.07882957,-0.1949434,-0.18,18.18,-50.4
1554879735935,-0.1388637,-8.69155,4.256292,0.0063915867,0.113983296,-0.22050974,-0.06,18.36,-50.22
1554879735956,-0.1436521,-8.974067,4.2850223,0.0,0.15233281,-0.21198763,0.0,18.54,-50.04
1554879735976,-0.08140286,-8.811261,4.3424835,-0.022370555,0.16618125,-0.19600865,0.0,18.6,-49.98
1554879735996,-0.22026655,-8.959702,4.0743327,-0.02876214,0.19813919,-0.14913702,0.0,18.6,-49.92
1554879736016,-0.17717093,-8.993219999999999,4.1796775,-0.013848438000000001,0.21837921,-0.10439592,0.0,18.54,-49.86
1554879736036,-0.17238252,-8.96449,4.1461587,-0.011717908999999999,0.23222765,-0.07243799,-0.06,18.54,-49.86
1554879736056,-0.12449849,-8.897452000000001,4.064756,0.002130529,0.25353295,-0.049002163,-0.06,18.54,-49.86
1554879736076,-0.11492168,-8.758589,3.9594111000000005,0.014913702,0.24820662,-0.027696876000000002,-0.06,18.6,-49.92
1554879736096,-0.090979666,-8.653243,4.0743327,-0.0010652645,0.24927188,-0.015978966,0.06,18.66,-49.92
1554879736117,-0.033518825,-8.653243,3.9929300000000003,-0.012783173500000002,0.23968449999999997,-0.020240024,0.18,18.66,-49.92
1554879736135,-0.019153614,-8.557475,3.9689879999999995,-0.00958738,0.21624869,-0.03834952,0.42,18.9,-49.92
1554879736156,-0.033518825,-8.54311,3.9689879999999995,0.0,0.19281286,-0.04580637,0.6,19.14,-49.92
1554879736176,-0.047884032,-8.658031,3.9498343,0.00958738,0.1587244,-0.05965481,0.72,19.38,-49.92
1554879736196,-0.05267244,-8.619724,3.9498343,0.0053263223,0.12996227,-0.06391586,0.9,19.56,-49.92
1554879736216,-0.10534488,-8.5622635,3.9402574999999995,-0.0063915867,0.09374327,-0.07243799,1.08,19.74,-49.92
1554879736236,-0.07182605,-8.643666,4.0120835,-0.002130529,0.06178534,-0.082025364,1.2,19.86,-49.86
1554879736256,-0.1388637,-8.667608,3.9641995000000003,0.008522116,0.036218993,-0.080960095,1.2,19.98,-49.8
1554879736275,-0.023942016,-8.749011999999999,4.0264487,0.018109497,0.018109497,-0.083090626,1.2,20.04,-49.8
1554879736295,-0.15801731,-8.715492999999999,4.136582,0.017044231,0.008522116,-0.07456851,1.14,20.04,-49.74
1554879736315,-0.110133275,-8.672397,4.1413703,0.011717908999999999,0.0010652645,-0.068176925,1.14,20.04,-49.74
1554879736335,-0.2825158,-8.792108,4.1796775,0.012783173500000002,0.0010652645,-0.07350325,1.14,19.98,-49.74
1554879736356,-0.24899697,-8.710705,4.246715,-0.0031957934000000003,-0.0010652645,-0.068176925,1.14,19.98,-49.68
1554879736376,-0.17717093,-8.768166,4.23235,-0.0010652645,0.0010652645,-0.05539375,1.14,19.98,-49.56
1554879736396,-0.25378537,-8.677185,4.11264,0.002130529,0.0,-0.043675844000000005,1.2,19.98,-49.5
1554879736415,-0.18195933,-8.672397,4.1844660000000005,0.007456851,0.010652645,-0.036218993,1.26,19.98,-49.44
1554879736435,-0.15801731,-8.686762,4.2371383,0.015978966,0.013848438000000001,-0.024501082,1.38,19.98,-49.38
1554879736456,-0.16280572,-8.629301,4.0695443,0.011717908999999999,0.011717908999999999,-0.00958738,1.44,20.04,-49.38
1554879736476,-0.17238252,-8.648455,4.1461587,0.0,0.012783173500000002,-0.008522116,1.5,20.04,-49.32
1554879736496,-0.16280572,-8.5862055,4.23235,-0.007456851,0.014913702,-0.0053263223,1.56,20.04,-49.26
1554879736516,-0.16759412,-8.595782,4.23235,0.002130529,0.014913702,0.0,1.62,20.04,-49.26
1554879736536,0.0,-8.500014,4.1461587,0.027696876000000002,0.013848438000000001,-0.0031957934000000003,1.68,20.1,-49.26
1554879736556,0.05267244,-8.567052,4.031237,0.037284255,0.011717908999999999,-0.02130529,1.68,20.1,-49.32
1554879736576,-0.02873042,-8.495225999999999,4.160524,0.0053263223,0.015978966,-0.040480047000000005,1.62,20.1,-49.32
1554879736596,-0.11971009,-8.576628999999999,4.1653123,-0.023435817999999997,0.018109497,-0.049002163,1.62,20.1,-49.32
1554879736616,-0.08140286,-8.629301,4.1413703,-0.02130529,0.008522116,-0.05752428,1.62,20.1,-49.32
1554879736636,-0.095768064,-8.672397,4.0839095,0.007456851,0.0063915867,-0.058589544,1.62,20.1,-49.32
1554879736656,-0.08619126,-8.681973,4.1222167,0.015978966,0.0031957934000000003,-0.058589544,1.68,20.1,-49.32
1554879736676,-0.090979666,-8.69155,4.1461587,0.0053263223,-0.0010652645,-0.05539375,1.68,20.04,-49.32
1554879736696,-0.15322891,-8.734647,4.0839095,-0.0063915867,-0.0053263223,-0.056459017,1.68,20.04,-49.26
1554879736715,-0.1388637,-8.758589,4.361637,-0.012783173500000002,-0.0010652645,-0.05752428,1.74,19.98,-49.26
1554879736736,-0.17717093,-8.667608,4.1796775,0.0010652645,-0.0010652645,-0.04580637,1.74,19.92,-49.26
1554879736755,-0.1436521,-8.768166,4.0120835,0.020240024,-0.0010652645,-0.033023197000000004,1.8,19.86,-49.26
1554879736775,-0.20111294,-8.686762,4.1557355000000005,0.02130529,0.004261058,-0.023435817999999997,1.8,19.74,-49.26
1554879736795,-0.19153613,-8.672397,4.117428299999999,0.011717908999999999,0.0053263223,-0.013848438000000001,1.74,19.62,-49.26
1554879736816,-0.090979666,-8.595782,4.194042700000001,-0.008522116,-0.0010652645,-0.0053263223,1.74,19.5,-49.26
1554879736835,-0.11971009,-8.653243,4.0599675,-0.0031957934000000003,-0.004261058,-0.0063915867,1.68,19.5,-49.26
1554879736856,-0.12449849,-8.648455,4.1413703,0.023435817999999997,-0.00958738,-0.0063915867,1.62,19.5,-49.26
1554879736876,-0.04309563,-8.667608,4.1796775,0.022370555,-0.00958738,-0.0063915867,1.62,19.5,-49.26
1554879736895,-0.076614454,-8.705916,4.1461587,0.0,-0.012783173500000002,-0.00958738,1.56,19.56,-49.32
1554879736916,0.023942016,-8.686762,4.270657,-0.014913702,-0.015978966,-0.023435817999999997,1.5,19.74,-49.32
1554879736937,-0.02873042,-8.643666,4.0934862999999995,0.017044231,-0.02130529,-0.027696876000000002,1.44,19.92,-49.32
1554879736956,-0.05267244,-8.610147,4.0264487,0.053263225,-0.01917476,-0.03834952,1.44,20.04,-49.38
1554879736976,-0.009576807,-8.5143795,4.0695443,0.049002163,-0.023435817999999997,-0.051132694000000006,1.38,20.16,-49.38
1554879736996,0.009576807,-8.590994,4.007295,0.017044231,-0.023435817999999997,-0.05219796,1.44,20.16,-49.38
1554879737016,0.0,-8.5383215,4.308964700000001,-0.025566347000000003,-0.01917476,-0.06391586,1.5,20.16,-49.38
1554879737036,-0.06703765,-8.634089,4.2036195,-0.034088463,-0.015978966,-0.09374327,1.56,20.1,-49.32
1554879737056,-0.023942016,-8.619724,4.1892543,-0.00958738,-0.004261058,-0.101200126,1.56,20.04,-49.32
1554879737075,-0.110133275,-8.590994,4.055179,0.025566347000000003,-0.0010652645,-0.099069595,1.62,19.98,-49.26
1554879737095,-0.11971009,-8.710705,4.1078515,0.02876214,-0.0010652645,-0.10226539,1.68,19.92,-49.2
1554879737116,-0.17717093,-8.72507,4.031237,0.0031957934000000003,0.002130529,-0.094808534,1.68,19.86,-49.2
1554879737136,-0.12928689,-8.744224,3.9833531000000004,-0.06391586,-0.010652645,-0.082025364,1.68,19.8,-49.2
1554879737156,-0.08619126,-8.787319,4.0695443,-0.07563378,-0.015978966,-0.07669904,1.62,19.8,-49.14
1554879737175,-0.11492168,-8.749011999999999,4.170100700000001,-0.040480047000000005,-0.027696876000000002,-0.06711166,1.56,19.8,-49.14
1554879737196,-0.06703765,-8.84478,4.117428299999999,0.014913702,-0.041545313,-0.046871635999999994,1.5,19.86,-49.14
1554879737216,-0.12449849,-8.729858,4.0599675,0.049002163,-0.056459017,-0.036218993,1.44,19.92,-49.14
1554879737235,-0.11492168,-8.648455,3.9929300000000003,0.04474111,-0.06924219,-0.027696876000000002,1.38,19.98,-49.2
1554879737256,-0.1388637,-8.638878,3.9258924,0.018109497,-0.07030745599999999,-0.015978966,1.26,20.04,-49.2
1554879737276,0.009576807,-8.677185,4.0695443,0.010652645,-0.06711166,-0.012783173500000002,1.2,20.1,-49.26
1554879737296,0.0,-8.638878,4.1270050000000005,0.007456851,-0.06391586,-0.012783173500000002,1.2,20.22,-49.32
1554879737316,0.023942016,-8.681973,4.055179,0.002130529,-0.06285059999999999,-0.02130529,1.14,20.28,-49.38
1554879737335,-0.07182605,-8.629301,4.1317935,-0.010652645,-0.06391586,-0.025566347000000003,1.14,20.34,-49.38
1554879737356,-0.047884032,-8.749011999999999,4.088698,-0.0053263223,-0.068176925,-0.025566347000000003,1.14,20.4,-49.44
1554879737375,-0.08619126,-8.710705,4.1413703,0.008522116,-0.07669904,-0.026631612000000002,1.14,20.46,-49.5
1554879737396,-0.06703765,-8.696339,4.1270050000000005,0.017044231,-0.082025364,-0.020240024,1.14,20.46,-49.5
1554879737417,-0.0047884034,-8.768166,4.0839095,0.020240024,-0.09054748,-0.017044231,1.14,20.46,-49.5
1554879737435,0.023942016,-8.825626,3.9402574999999995,0.013848438000000001,-0.09587380000000001,-0.008522116,1.08,20.46,-49.5
1554879737457,-0.038307227,-8.811261,4.246715,0.014913702,-0.10333065,0.0031957934000000003,1.08,20.34,-49.5
1554879737476,-0.01436521,-8.763377,4.088698,0.022370555,-0.10546118,0.008522116,1.14,20.28,-49.5
1554879737495,0.01436521,-8.667608,4.246715,0.022370555,-0.10013486,0.01917476,1.14,20.22,-49.5
1554879737515,0.009576807,-8.576628999999999,4.1317935,0.023435817999999997,-0.09267801,0.024501082,1.14,20.16,-49.44
1554879737535,0.07182605,-8.634089,4.0503907,0.026631612000000002,-0.08522116,0.026631612000000002,1.08,20.1,-49.44
1554879737556,-0.062249242999999996,-8.739435,4.170100700000001,0.029827405,-0.07882957,0.035153727999999995,1.08,20.04,-49.44
1554879737575,-0.04309563,-8.710705,3.9833531000000004,0.026631612000000002,-0.07456851,0.033023197000000004,1.14,20.04,-49.44
1554879737595,0.08140286,-8.619724,4.194042700000001,0.011717908999999999,-0.06711166,0.029827405,1.14,19.92,-49.44
1554879737616,0.08140286,-8.648455,4.2371383,0.0063915867,-0.060720075,0.025566347000000003,1.08,19.86,-49.44
1554879737635,0.12449849,-8.667608,4.1844660000000005,0.00958738,-0.054328485999999995,0.018109497,0.96,19.74,-49.5
1554879737656,0.090979666,-8.648455,4.1317935,0.023435817999999997,-0.054328485999999995,0.017044231,0.96,19.74,-49.5
1554879737675,0.12928689,-8.54311,4.1222167,0.041545313,-0.047936900000000005,0.013848438000000001,0.9,19.68,-49.56
1554879737696,0.20590134,-8.600571,4.064756,0.02130529,-0.047936900000000005,0.013848438000000001,0.84,19.62,-49.56
1554879737715,0.10534488,-8.629301,4.174889,-0.0010652645,-0.04474111,-0.0010652645,0.72,19.56,-49.62
1554879737735,0.19632454,-8.772953999999999,4.1892543,0.00958738,-0.04580637,-0.014913702,0.6,19.5,-49.68
1554879737756,0.1388637,-8.69155,4.079121,0.046871635999999994,-0.040480047000000005,-0.020240024,0.54,19.5,-49.68
1554879737776,0.18195933,-8.672397,4.2275615,0.06178534,-0.029827405,-0.015978966,0.54,19.5,-49.74
1554879737796,0.12928689,-8.619724,4.1461587,0.036218993,-0.015978966,-0.015978966,0.48,19.5,-49.74
1554879737816,0.15322891,-8.672397,4.0695443,0.0031957934000000003,-0.007456851,-0.013848438000000001,0.42,19.5,-49.74
1554879737836,0.090979666,-8.600571,4.2419267,-0.012783173500000002,0.008522116,-0.013848438000000001,0.42,19.5,-49.74
1554879737856,0.1436521,-8.634089,4.2131963,-0.012783173500000002,0.022370555,-0.018109497,0.36,19.5,-49.8
1554879737875,0.10055647,-8.614936,4.1844660000000005,0.020240024,0.024501082,-0.03089267,0.36,19.5,-49.8
1554879737896,0.15322891,-8.643666,4.016872,0.06178534,0.037284255,-0.037284255,0.42,19.5,-49.86
1554879737915,0.12449849,-8.5383215,4.079121,0.03834952,0.04580637,-0.046871635999999994,0.42,19.5,-49.92
1554879737935,0.08140286,-8.485649,4.007295,-0.002130529,0.051132694000000006,-0.05752428,0.42,19.44,-49.92
1554879737955,0.110133275,-8.648455,4.0599675,-0.04580637,0.053263225,-0.06711166,0.48,19.38,-49.98
1554879737975,0.033518825,-8.677185,4.0695443,-0.024501082,0.049002163,-0.07563378,0.48,19.38,-49.98
1554879737995,0.10055647,-8.681973,4.160524,-0.008522116,0.054328485999999995,-0.06924219,0.48,19.38,-49.98
1554879738016,0.04309563,-8.763377,4.1317935,0.0031957934000000003,0.05219796,-0.06178534,0.48,19.38,-49.98
1554879738035,-0.02873042,-8.648455,4.2419267,0.02130529,0.05006743,-0.05965481,0.54,19.38,-49.98
1554879738055,0.11492168,-8.667608,4.103063,-0.0010652645,0.049002163,-0.051132694000000006,0.6,19.38,-49.98
1554879738075,0.009576807,-8.581417,4.0839095,-0.023435817999999997,0.046871635999999994,-0.056459017,0.6,19.38,-50.04
1554879738095,0.009576807,-8.653243,3.9929300000000003,-0.049002163,0.041545313,-0.058589544,0.6,19.38,-50.04
1554879738115,0.038307227,-8.72507,4.347272,-0.036218993,0.040480047000000005,-0.053263225,0.66,19.44,-50.04
1554879738136,0.0047884034,-8.624513,4.256292,0.013848438000000001,0.041545313,-0.05219796,0.72,19.5,-50.1
1554879738156,0.047884032,-8.638878,4.079121,0.035153727999999995,0.04261058,-0.05006743,0.72,19.56,-50.1
1554879738176,-0.019153614,-8.576628999999999,4.0599675,0.018109497,0.041545313,-0.043675844000000005,0.78,19.56,-50.1
1554879738195,0.019153614,-8.643666,4.1653123,-0.0031957934000000003,0.03834952,-0.041545313,0.72,19.56,-50.04
1554879738215,0.0047884034,-8.729858,4.2658687,-0.018109497,0.036218993,-0.035153727999999995,0.72,19.56,-50.04
1554879738236,0.08140286,-8.782531,4.2131963,0.0010652645,0.03089267,-0.03089267,0.72,19.56,-49.98
1554879738256,-0.01436521,-8.614936,4.117428299999999,0.015978966,0.035153727999999995,-0.024501082,0.72,19.56,-49.98
1554879738276,0.038307227,-8.710705,3.9929300000000003,0.015978966,0.035153727999999995,-0.024501082,0.72,19.62,-49.92
1554879738296,0.08140286,-8.600571,4.0839095,0.007456851,0.03195793,-0.029827405,0.72,19.56,-49.86
1554879738316,0.10055647,-8.528744999999999,4.1078515,0.0,0.03089267,-0.025566347000000003,0.78,19.56,-49.8
1554879738335,0.023942016,-8.629301,4.0599675,-0.0031957934000000003,0.025566347000000003,-0.03089267,0.78,19.56,-49.74
1554879738357,0.090979666,-8.801684,4.2419267,-0.024501082,0.026631612000000002,-0.036218993,0.78,19.68,-49.68
1554879738376,0.023942016,-8.715492999999999,4.117428299999999,-0.014913702,0.020240024,-0.043675844000000005,0.78,19.74,-49.68
1554879738395,0.05746084,-8.701127,3.9546227,0.0031957934000000003,0.014913702,-0.039414786,0.84,19.86,-49.68
1554879738416,0.11492168,-8.710705,4.0934862999999995,0.010652645,0.018109497,-0.02876214,0.84,19.98,-49.62
1554879738436,0.04309563,-8.648455,4.1653123,0.002130529,0.00958738,-0.036218993,0.9,20.1,-49.62
1554879738455,0.0047884034,-8.624513,4.031237,-0.011717908999999999,0.004261058,-0.037284255,0.96,20.22,-49.62
1554879738475,0.08619126,-8.710705,3.9785647000000006,-0.002130529,0.0010652645,-0.039414786,0.96,20.22,-49.62
1554879738497,0.062249242999999996,-8.614936,4.0599675,0.008522116,0.0063915867,-0.043675844000000005,1.02,20.28,-49.68
1554879738516,0.02873042,-8.600571,4.040814,0.015978966,0.007456851,-0.049002163,1.02,20.28,-49.68
1554879738536,0.047884032,-8.667608,4.170100700000001,0.020240024,0.008522116,-0.05219796,1.08,20.16,-49.68
1554879738556,-0.019153614,-8.696339,4.016872,0.0053263223,0.007456851,-0.051132694000000006,1.08,20.16,-49.68
1554879738575,0.05267244,-8.744224,4.160524,-0.010652645,0.008522116,-0.05965481,1.08,20.04,-49.62
1554879738596,0.01436521,-8.686762,4.1653123,0.0053263223,0.007456851,-0.05965481,1.08,19.92,-49.56
1554879738615,0.02873042,-8.715492999999999,4.1222167,0.02130529,0.00958738,-0.05539375,1.08,19.92,-49.56
1554879738635,0.009576807,-8.772953999999999,4.1270050000000005,0.053263225,0.014913702,-0.05539375,1.08,19.92,-49.44
1554879738656,0.009576807,-8.638878,4.1892543,0.03834952,0.02130529,-0.043675844000000005,1.08,19.92,-49.38
1554879738676,0.038307227,-8.729858,4.1270050000000005,0.007456851,0.02876214,-0.036218993,1.08,19.92,-49.32
1554879738696,-0.019153614,-8.72507,4.1892543,-0.011717908999999999,0.02876214,-0.033023197000000004,1.08,19.92,-49.26
1554879738716,0.13407529999999998,-8.729858,4.2131963,-0.0031957934000000003,0.02876214,-0.024501082,1.08,19.92,-49.2
1554879738736,0.01436521,-8.710705,3.9785647000000006,0.014913702,0.02876214,-0.024501082,1.08,19.92,-49.2
1554879738756,0.06703765,-8.519167999999999,4.0120835,0.029827405,0.02876214,-0.024501082,1.02,19.98,-49.14
1554879738776,0.06703765,-8.629301,4.0934862999999995,0.036218993,0.026631612000000002,-0.02876214,1.02,19.98,-49.14
1554879738795,0.07182605,-8.4664955,3.8684312999999997,0.02876214,0.020240024,-0.034088463,1.08,20.04,-49.14
1554879738815,0.13407529999999998,-8.619724,3.9881415000000002,0.010652645,0.015978966,-0.040480047000000005,1.08,20.04,-49.14
1554879738836,0.11492168,-8.576628999999999,4.079121,-0.008522116,0.00958738,-0.04474111,1.08,20.04,-49.14
1554879738855,0.06703765,-8.72507,4.064756,-0.011717908999999999,0.0031957934000000003,-0.05219796,1.14,20.1,-49.2
1554879738875,0.1388637,-8.624513,4.1461587,0.007456851,0.0063915867,-0.056459017,1.14,20.1,-49.2
1554879738896,0.090979666,-8.634089,3.9546227,0.020240024,0.007456851,-0.06498113,1.2,20.1,-49.2
1554879738916,0.13407529999999998,-8.581417,4.1270050000000005,0.015978966,0.0063915867,-0.06604639400000001,1.2,20.16,-49.2
1554879738935,0.095768064,-8.634089,4.1413703,0.007456851,0.00958738,-0.07137272,1.2,20.1,-49.14
1554879738956,0.009576807,-8.629301,4.1461587,-0.0031957934000000003,0.010652645,-0.06924219,1.2,20.1,-49.2
1554879738976,0.019153614,-8.667608,4.1796775,-0.011717908999999999,0.00958738,-0.07669904,1.2,20.1,-49.2
1554879738995,0.0,-8.677185,4.170100700000001,-0.00958738,0.00958738,-0.08628642,1.14,20.04,-49.26
1554879739016,0.01436521,-8.72507,4.2275615,0.0,0.0063915867,-0.08522116,1.14,20.04,-49.32
1554879739036,0.13407529999999998,-8.839992,4.208408,0.024501082,0.007456851,-0.07882957,1.14,19.98,-49.38
1554879739055,0.009576807,-8.768166,4.0743327,0.03195793,0.0031957934000000003,-0.07350325,1.14,19.98,-49.44
1554879739075,-0.04309563,-8.744224,4.088698,0.018109497,0.0,-0.060720075,1.14,19.98,-49.44
1554879739096,-0.06703765,-8.681973,4.11264,-0.004261058,-0.0031957934000000003,-0.046871635999999994,1.14,19.98,-49.5
1554879739116,-0.01436521,-8.729858,4.136582,-0.013848438000000001,-0.00958738,-0.036218993,1.14,19.98,-49.56
1554879739135,-0.095768064,-8.672397,3.9737763,0.0053263223,-0.008522116,-0.025566347000000003,1.14,20.04,-49.5
1554879739156,-0.13407529999999998,-8.729858,4.055179,0.04474111,-0.01917476,-0.015978966,1.14,20.04,-49.44
1554879739176,-0.25378537,-8.734647,4.256292,0.049002163,-0.013848438000000001,-0.0053263223,1.14,20.1,-49.38
1554879739195,-0.320823,-8.988432000000001,4.32333,0.033023197000000004,-0.02130529,0.00958738,1.14,20.16,-49.32
1554879739215,-0.45968673,-9.0315275,4.385579,0.05006743,-0.022370555,0.022370555,1.14,20.16,-49.26
1554879739236,-0.5746084,-9.1272955,4.68246,0.05539375,-0.034088463,0.068176925,1.14,20.28,-49.26
1554879739256,-0.8283938,-9.47206,4.672883000000001,0.11717909,-0.056459017,0.14487597,1.14,20.34,-49.2
1554879739275,-0.79487497,-9.496002,4.7207669999999995,0.1587244,-0.094808534,0.21411815,1.14,20.46,-49.2
1554879739295,-0.93852705,-9.381081,4.759074,0.18535602,-0.12037488,0.2972088,1.14,20.52,-49.26
1554879739317,-1.436521,-9.251794,4.797382,0.21518342,-0.12463594,0.39095205,1.14,20.52,-49.38
1554879739335,-1.5227122,-9.0315275,4.888361499999999,0.23968449999999997,-0.13422333,0.51665324,1.14,20.4,-49.44
1554879739356,-1.7238252,-9.146449,4.854842700000001,0.2727077,-0.15446335,0.62104917,1.14,20.34,-49.44
1554879739377,-1.7669207999999998,-9.165602999999999,5.0463786,0.28549087,-0.16831179,0.7701861999999999,1.08,19.92,-49.56
1554879739396,-1.8626889,-9.256582,4.955399,0.2972088,-0.17150758,0.8543421,1.08,19.68,-49.56
1554879739416,-1.8435352999999999,-9.414599,5.132569999999999,0.34940675,-0.13954964,0.96619487,1.08,19.14,-49.62
1554879739435,-1.7621324,-9.428965,5.036802,0.4282363,-0.09374327,1.0897655000000002,1.08,18.36,-49.92
1554879739456,-1.8770541,-9.381081,4.969764,0.44421527,-0.035153727999999995,1.1632688,1.08,17.76,-50.04
1554879739475,-1.8148049,-9.294889,4.9506106,0.40266997,0.017044231,1.2420983,1.08,17.46,-50.16
1554879739496,-1.8674773,-9.098564999999999,4.7016134,0.29294774,0.080960095,1.3454291,1.08,16.44,-50.4
1554879739516,-2.0159178,-8.954913000000001,4.6776714,0.2130529,0.13741912,1.401888,1.08,15.72,-50.52
1554879739536,-2.054225,-8.902241,4.5723267,0.15233281,0.16937704,1.4466291999999998,1.14,15.36,-50.64
1554879739556,-2.327164,-8.84478,4.5435963,-0.002130529,0.19707392,1.4828482,1.32,14.58,-50.88
1554879739575,-2.4037786,-8.648455,4.7255554,-0.12037488,0.23009712,1.5084145,1.56,14.04,-50.94
1554879739595,-2.4708161,-8.557475,4.6633059999999995,-0.21411815,0.24181503,1.5552860000000002,1.74,13.44,-51.0
1554879739616,-2.5905263,-8.523956,4.5723267,-0.34408042,0.24927188,1.6042882,1.98,12.78,-51.0
1554879739635,-2.695871,-8.4664955,4.8069587,-0.4282363,0.26418558,1.6096146,2.16,12.24,-51.0
1554879739655,-3.0023289,-8.370728,4.466982,-0.3568636,0.27590349999999997,1.5701998,2.4,11.88,-50.94
1554879739676,-3.2082303,-8.500014,4.3664255,-0.17044231,0.26418558,1.5755261,2.64,11.52,-50.94
1554879739695,-3.1124623,-8.15525,4.32333,0.0063915867,0.27590349999999997,1.6096146,2.88,11.28,-50.88
1554879739716,-3.3183637000000004,-7.781753999999999,4.371214,0.10226539,0.29507825,1.582983,3.06,10.98,-50.82
1554879739736,-3.5625722,-7.365163000000001,4.1317935,0.05752428,0.29827404,1.5414376,3.18,10.8,-50.76
1554879739756,-3.9743748,-7.1927805,3.7966053,-0.020240024,0.26312032,1.5052186,3.36,10.56,-50.7
1554879739775,-4.1132383,-7.2023573,3.7726634,-0.00958738,0.22690132,1.4860438999999999,3.66,10.26,-50.64
1554879739796,-4.290409599999999,-6.83365,4.0025067000000005,0.10759171,0.18855181,1.4306501,3.96,9.84,-50.64
1554879739816,-4.510676,-6.6085954,3.9019501000000005,0.22796659,0.165116,1.3752563999999998,4.32,9.42,-50.64
1554879739835,-4.721366000000001,-6.282984,4.1413703,0.23222765,0.15446335,1.3315805,4.62,8.88,-50.7
1554879739856,-5.1475334,-6.139332,4.0695443,0.22050974,0.14487597,1.2889700000000002,4.92,8.34,-50.82
1554879739876,-5.3678,-6.120178,3.7295678,0.19174760000000002,0.12250541,1.2665993999999998,5.16,7.68,-50.94
1554879739895,-5.602432,-5.93343,3.767875,0.16618125,0.08522116,1.2367721,5.46,6.96,-51.0
1554879739915,-5.9184665999999995,-5.6030307,3.8827964999999995,0.10759171,0.05539375,1.2101405,5.64,6.12,-51.12
1554879739936,-6.0381765,-5.507262,4.2036195,-0.01917476,0.06498113,1.2293152,5.76,5.28,-51.24
1554879739955,-6.2057709999999995,-5.5503583,4.1222167,-0.10546118,0.07350325,1.2474246999999998,5.82,4.62,-51.3
1554879739975,-6.459556,-5.2582655,3.7295678,-0.11717909,0.07669904,1.2367721,5.88,3.96,-51.36
1554879739996,-6.7372837,-5.1624975,3.9019501000000005,-0.10226539,0.09161274,1.2261194,5.88,3.3,-51.36
1554879740016,-6.933608,-4.8656163,3.9594111000000005,-0.10226539,0.08628642,1.2325108999999999,5.88,2.7,-51.36
1554879740036,-7.0724716,-4.630985,4.055179,-0.13209279,0.08628642,1.2548815,5.88,2.04,-51.36
1554879740056,-7.1873937,-4.482544,4.1892543,-0.20133498,0.09161274,1.2911005,5.88,1.44,-51.36
1554879740076,-7.302314999999999,-4.291008000000001,3.9115269999999995,-0.21411815,0.06924219,1.2889700000000002,5.88,0.9,-51.36
1554879740096,-7.335833999999999,-4.0707417,4.040814,-0.17789917,0.07882957,1.2815131000000002,5.82,0.54,-51.42
1554879740115,-7.489063000000001,-3.8456864,4.160524,-0.13209279,0.08735169,1.2719258,5.7,0.12,-51.48
1554879740136,-7.445967,-3.5009214999999996,4.064756,-0.080960095,0.10865697,1.2325108999999999,5.64,-0.24,-51.48
1554879740155,-7.5321584,-3.2902317,4.308964700000001,-0.039414786,0.12570119999999999,1.2186625,5.58,-0.66,-51.54
1554879740175,-7.489063000000001,-3.0986955000000003,4.1317935,-0.012783173500000002,0.12996227,1.220793,5.46,-1.2,-51.54
1554879740196,-7.541735000000001,-2.806603,4.0025067000000005,0.041545313,0.12037488,1.1877699,5.4,-1.68,-51.6
1554879740216,-7.5273699999999995,-2.4953567999999997,3.9737763,0.13209279,0.128897,1.1057445,5.34,-2.22,-51.66
1554879740236,-7.541735000000001,-2.2176294,4.0695443,0.17044231,0.13528858,1.0482203,5.28,-2.4,-51.66
1554879740255,-7.5082164,-2.03567,3.9929300000000003,0.24927188,0.13315806,0.95447695,5.28,-2.76,-51.72
1554879740276,-7.4363904000000005,-1.963844,4.0025067000000005,0.2908172,0.14913702,0.87032104,5.22,-3.18,-51.78
1554879740295,-7.656657000000001,-1.6956933999999997,3.8109705000000003,0.34088463,0.16618125,0.7701861999999999,5.22,-3.84,-51.9
1554879740315,-7.8386164,-1.5951369,3.8061821000000005,0.38775626,0.15552860000000002,0.66579026,5.16,-4.44,-51.96
1554879740336,-7.97748,-1.3748703000000002,3.6721067,0.38775626,0.15552860000000002,0.53795856,5.1,-5.22,-52.08
1554879740356,-7.97748,-1.3365631000000002,3.8732197,0.33129725,0.15978967,0.44954160000000004,5.04,-5.82,-52.14
1554879740376,-8.0924015,-1.2743138,3.5715504,0.20985709,0.15020229,0.38136467,4.98,-6.48,-52.26
1554879740396,-8.24563,-1.3365631000000002,3.6768951000000003,0.08948222,0.16192019,0.32384038,4.98,-7.2,-52.26
1554879740416,-8.355764,-1.4993688,3.8061821000000005,0.033023197000000004,0.1470065,0.28975195,4.92,-7.98,-52.26
1554879740435,-8.355764,-1.4131776000000003,3.7726634,0.043675844000000005,0.12144015,0.28549087,4.92,-8.52,-52.26
1554879740456,-8.456321,-1.6430208999999998,3.6768951000000003,0.082025364,0.13102753,0.27803403,4.86,-9.0,-52.2
1554879740476,-8.700529,-1.513734,3.8157589999999995,0.13954964,0.13848437,0.23968449999999997,4.86,-9.36,-52.2
1554879740496,-8.667010000000001,-1.3844471,3.9019501000000005,0.17576863,0.12996227,0.22264028,4.92,-9.72,-52.2
1554879740516,-8.714894000000001,-1.1737574,3.6098576,0.21944448,0.12357068,0.22583607,5.04,-9.96,-52.2
1554879740536,-8.853758000000001,-1.2264298,3.6002807999999997,0.2876214,0.10333065,0.23222765,5.16,-10.2,-52.2
1554879740555,-8.647857,-1.264737,3.8013937000000007,0.314253,0.09267801,0.23861924,5.28,-10.26,-52.2
1554879740577,-8.772355000000001,-0.97743285,3.6337996,0.3568636,0.084155895,0.20985709,5.34,-10.32,-52.26
1554879740596,-8.939949,-0.7667431,3.8061821000000005,0.3323625,0.07669904,0.17576863,5.4,-10.5,-52.26
1554879740615,-8.992621,-0.374094,3.5571851999999997,0.26205507,0.054328485999999995,0.13954964,5.46,-10.74,-52.26
1554879740635,-9.02614,-0.3788824,3.4662056000000003,0.23009712,0.039414786,0.098004326,5.52,-11.04,-52.26
1554879740655,-9.021352,-0.7188591,3.3273417999999997,0.14274544,0.012783173500000002,0.09267801,5.46,-11.4,-52.26
1554879740676,-8.829816000000001,-0.8098387,3.4422636,-0.033023197000000004,0.0063915867,0.09267801,5.34,-11.82,-52.26
1554879740696,-8.887277000000001,-0.7906850999999999,3.5093012000000003,-0.19600865,-0.0063915867,0.06178534,5.28,-12.3,-52.2
1554879740716,-9.002198,-0.86251116,3.470994,-0.29188246,-0.011717908999999999,0.06285059999999999,5.22,-12.72,-52.14
1554879740735,-8.839393,-0.9247603999999999,3.6481647000000006,-0.2876214,-0.022370555,0.084155895,5.16,-13.14,-52.02
1554879740756,-8.6813755,-0.8050503000000001,3.7774517999999997,-0.16831179,-0.03089267,0.08948222,5.16,-13.44,-51.96
1554879740776,-8.6334915,-0.87208796,3.7630866000000003,-0.04580637,-0.025566347000000003,0.07030745599999999,5.1,-13.68,-51.9
1554879740796,-8.686164,-0.7954735,3.5715504,0.03089267,-0.036218993,0.060720075,4.98,-13.8,-51.9
1554879740815,-8.595184,-0.7811083000000001,3.5571851999999997,0.03089267,-0.037284255,0.05539375,4.92,-13.8,-51.84
1554879740835,-8.6574335,-0.694917,3.5954924,-0.011717908999999999,-0.029827405,0.041545313,4.86,-13.74,-51.84
1554879740855,-8.686164,-0.64703304,3.5763388,-0.08948222,-0.004261058,-0.002130529,4.8,-13.62,-51.9
1554879740876,-8.75799,-0.7284359,3.5715504,-0.14168017,0.011717908999999999,-0.007456851,4.68,-13.5,-51.9
1554879740896,-8.815451,-0.7858967,3.4901476000000002,-0.14061491,0.022370555,-0.013848438000000001,4.62,-13.32,-51.96
1554879740916,-8.858546,-0.8050503000000001,3.8013937000000007,-0.12996227,0.03089267,-0.027696876000000002,4.5,-13.14,-52.02
1554879740936,-8.829816000000001,-0.7044938000000001,3.5571851999999997,-0.1470065,0.035153727999999995,-0.034088463,4.5,-12.96,-52.02
1554879740955,-8.839393,-0.623091,3.8061821000000005,-0.18002969,0.041545313,-0.047936900000000005,4.44,-12.78,-52.02
1554879740976,-9.045294,-0.8960299999999999,3.4087446000000003,-0.18961707,0.02876214,-0.06711166,4.44,-12.66,-52.02
1554879740996,-8.935161,-1.0779893,3.6816837999999996,-0.20453078,0.015978966,-0.058589544,4.44,-12.54,-52.02
1554879741015,-8.786719999999999,-1.0013748,3.7870286,-0.19707392,0.007456851,-0.047936900000000005,4.44,-12.48,-52.02
1554879741036,-8.8777,-1.1162965,3.9019501000000005,-0.15446335,0.025566347000000003,-0.046871635999999994,4.44,-12.36,-52.02
1554879741056,-8.710106,-1.1067197,3.9546227,-0.09267801,0.02876214,-0.03195793,4.44,-12.3,-52.08
1554879741076,-8.738836000000001,-1.1115081,3.767875,-0.05006743,0.022370555,-0.02876214,4.44,-12.3,-52.08
1554879741095,-8.762777999999999,-0.99658644,3.614646,0.014913702,0.02130529,-0.036218993,4.44,-12.18,-52.14
1554879741116,-8.882488,-0.9056068000000002,3.5811272000000005,0.014913702,0.025566347000000003,-0.05219796,4.5,-12.0,-52.2
1554879741136,-8.978256,-0.9343372,3.614646,-0.036218993,0.039414786,-0.043675844000000005,4.5,-11.94,-52.14
1554879741156,-9.002198,-1.0540473,3.4183214,-0.07350325,0.036218993,-0.036218993,4.5,-11.76,-52.14
1554879741176,-8.992621,-1.0253168,3.4662056000000003,-0.13315806,0.034088463,-0.026631612000000002,4.56,-11.58,-52.08
1554879741196,-8.796297000000001,-1.0444705,3.2650926,-0.16937704,0.024501082,-0.033023197000000004,4.56,-11.4,-52.02
1554879741216,-8.863335000000001,-1.1881226,3.4422636,-0.15339808,0.013848438000000001,-0.046871635999999994,4.56,-11.16,-51.96
1554879741236,-8.944737,-1.216853,3.5763388,-0.12783173,0.014913702,-0.04474111,4.62,-10.98,-51.9
1554879741256,-8.8777,-1.0971429,3.7582982000000005,-0.099069595,0.012783173500000002,-0.03089267,4.62,-10.86,-51.84
1554879741275,-8.796297000000001,-0.86729956,3.6290112,-0.12357068,0.00958738,-0.02130529,4.62,-10.74,-51.78
1554879741296,-8.767567,-0.8146270999999999,3.6098576,-0.1949434,0.039414786,-0.03195793,4.62,-10.62,-51.84
1554879741316,-8.8777,-1.0636241000000002,3.5619736000000004,-0.16298546,0.03089267,-0.05752428,4.62,-10.5,-51.9
1554879741335,-8.959103,-1.1833341999999998,3.2172085999999998,-0.13954964,-0.01917476,-0.05539375,4.62,-10.44,-51.9
1554879741355,-8.911219000000001,-1.1546037,3.2890346,-0.20026971,-0.04580637,-0.040480047000000005,4.62,-10.38,-51.96
1554879741376,-8.944737,-1.3557166999999999,3.4422636,-0.29933932,-0.04580637,-0.047936900000000005,4.62,-10.2,-51.96
1554879741395,-8.853758000000001,-1.1258733,3.6673183,-0.36112466,-0.02130529,-0.06498113,4.62,-10.08,-52.02
1554879741415,-8.8777,-1.46585,3.5811272000000005,-0.24181503,0.0,-0.068176925,4.62,-9.9,-52.02
1554879741436,-8.896853,-1.3461398999999998,3.5332432000000003,-0.084155895,-0.0031957934000000003,-0.034088463,4.68,-9.72,-52.08
1554879741456,-8.8777,-1.2695253999999998,3.3081882000000005,-0.02130529,-0.03834952,-0.026631612000000002,4.68,-9.48,-52.14
1554879741476,-8.954314,-1.2072762,3.0017304,-0.10226539,-0.039414786,-0.034088463,4.74,-9.18,-52.2
1554879741495,-10.419566,-1.3365631000000002,4.859630999999999,-0.13635385,0.015978966,-0.03195793,4.74,-8.76,-52.26
1554879741515,-8.078036,-0.16819267,4.7925935,0.4825648,0.15552860000000002,-0.20985709,4.8,-8.46,-52.38
1554879741536,-8.293514,-1.2503718000000001,3.2267854,0.9864349,0.17044231,-0.20453078,4.8,-8.22,-52.44
1554879741555,-8.298303,-0.6039374,3.0304607999999997,0.8319715,0.14061491,-0.25885928,4.8,-8.04,-52.44
1554879741576,-7.2304892999999995,-1.264737,2.5851393,0.43782368,0.053263225,-0.34301516,4.86,-7.92,-52.44
1554879741595,-7.3214690000000004,-1.8776526000000002,2.7814639,-0.18322548,0.096939065,-0.330232,4.8,-7.92,-52.44
1554879741616,-8.250419,-1.5568296999999998,3.164536,-0.33875409999999995,0.04261058,-0.39521313,4.86,-8.04,-52.38
1554879741635,-8.413225,-0.75716627,3.0352492,0.10226539,-0.10546118,-0.60507023,4.92,-8.28,-52.32
1554879741655,-8.365341,-1.1402385,3.1405939999999997,0.5230448000000001,-0.13209279,-0.67324716,4.98,-8.64,-52.32
1554879741676,-8.006210000000001,-1.3652935,3.4278982000000005,0.45593318,-0.10546118,-0.60720074,5.1,-8.94,-52.26
1554879741696,-7.407660000000001,-1.3030443,3.518878,0.31851408,-0.12783173,-0.7126619000000001,5.16,-9.18,-52.26
1554879741715,-7.398083,-1.5185224,3.4183214,0.111852765,-0.15659387,-0.8681905000000001,5.22,-9.48,-52.26
1554879741735,-7.5369470000000005,-1.4993688,3.8827964999999995,-0.06711166,-0.1768339,-0.95447695,5.34,-9.66,-52.2
1554879741756,-7.407660000000001,-1.6861166,3.9498343,-0.04261058,-0.26844665,-1.0439591000000001,5.46,-9.78,-52.2
1554879741775,-6.7851677,-1.8201918999999998,3.6529531000000004,0.07776430000000001,-0.44101948,-1.1408982,5.52,-9.66,-52.2
1554879741796,-6.5122285,-2.0117279999999997,2.9011737999999996,0.18002969,-0.6359629,-1.2463594999999998,5.7,-9.48,-52.2
1554879741816,-6.6415157,-2.4953567999999997,2.9969419999999998,0.19813919,-0.7882956999999999,-1.4199976,5.82,-9.24,-52.2
1554879741836,-6.272808599999999,-2.4809916000000003,3.3081882000000005,0.19068234,-0.9438243000000001,-1.6628778000000002,5.88,-9.0,-52.2
1554879741856,-5.961562000000001,-2.5240872000000003,3.6816837999999996,0.18322548,-1.1014834999999998,-1.9249328,6.0,-8.52,-52.08
1554879741876,-5.8083334,-2.6629508,3.9354692000000004,0.14061491,-1.1483551,-2.0548952000000003,6.0,-8.4,-52.02
1554879741896,-5.1666875,-3.2710779999999997,3.8780080999999997,0.020240024,-1.2346416,-2.2072279999999997,6.0,-8.04,-52.02
1554879741916,-4.31914,-4.1186256000000006,3.9211037,-0.098004326,-1.2900352,-2.385127,5.7,-7.44,-51.96
1554879741936,-3.9983168,-4.5687356,4.1557355000000005,-0.17150758,-1.2953615,-2.6013758,5.52,-7.26,-51.96
1554879741955,-4.0174704,-5.3396683,4.8021703,-0.11824436,-1.2740563,-2.8069718,4.98,-6.78,-52.02
1554879741976,-3.6966474000000002,-5.957372,5.237914599999999,-0.1107875,-1.2410331000000001,-2.9390647,4.62,-6.18,-52.14
1554879741995,-3.2800562000000006,-6.508039,5.467758,-0.10865697,-1.196292,-3.0146985,4.38,-5.82,-52.2
1554879742016,-2.7437549999999997,-7.053917,5.8651957999999995,-0.07137272,-1.055677,-3.1382692000000003,3.66,-4.86,-52.5
1554879742035,-2.6719291000000003,-7.767389,6.1668650000000005,0.053263225,-0.96939063,-3.2469259999999998,3.18,-4.08,-52.68
1554879742055,-2.7198130000000003,-8.040328,6.5212069999999995,0.18002969,-0.8330368,-3.338539,2.7,-3.3,-52.86
1554879742076,-2.4756044999999998,-8.413822999999999,6.8085113,0.20133498,-0.7318366999999999,-3.3129725,2.22,-2.34,-53.04
1554879742096,-1.9680338,-8.7538,6.985682000000001,0.099069595,-0.60507023,-3.2597091000000002,1.74,-1.32,-53.16
1554879742116,-1.8770541,-9.136872,7.148487599999999,0.05006743,-0.45380265,-3.2447956000000002,1.26,-0.42,-53.28
1554879742136,-1.9009962,-9.376292,7.177217999999999,-0.00958738,-0.314253,-3.1851406000000004,0.9,0.24,-53.34
1554879742156,-1.6903063999999999,-9.582193,7.143699000000001,-0.06711166,-0.16724652,-3.0594394,0.48,0.96,-53.4
1554879742176,-1.484405,-9.835979,7.2969284,-0.16618125,-0.037284255,-2.8985846,0.12,1.62,-53.4
1554879742196,-1.1827357,-9.807249,7.2873516,-0.22370553,0.10865697,-2.7196202,-0.18,2.22,-53.46
1554879742215,-1.0965444,-9.6923275,7.071872999999999,-0.13315806,0.20240025,-2.541721,-0.48,2.88,-53.52
1554879742235,-0.8283938,-9.663596,6.8372416,-0.023435817999999997,0.26312032,-2.3009713,-0.54,3.48,-53.52
1554879742256,-0.6847416999999999,-9.361927,6.640917,0.013848438000000001,0.3174488,-2.0026971999999996,-0.66,4.08,-53.58
1554879742276,-0.6751649000000001,-9.218275,6.4876879999999995,0.013848438000000001,0.33768883,-1.7789917000000002,-0.72,4.68,-53.58
1554879742296,-0.29209262,-8.954913000000001,6.3727665,-0.06924219,0.350472,-1.5488945,-0.78,5.34,-53.52
1554879742316,-0.23942018,-8.763377,6.0184245,-0.09587380000000001,0.34621096,-1.3219931999999999,-0.84,5.94,-53.46
1554879742335,-0.16280572,-8.686762,5.7023897,-0.11611383,0.33129725,-1.1100056,-0.72,6.54,-53.34
1554879742355,0.02873042,-8.5383215,5.8412538,-0.22477080000000002,0.30040458,-0.8671253000000001,-0.48,7.2,-53.22
1554879742376,0.04309563,-8.557475,5.716755,-0.33449304,0.28868666,-0.6828345,-0.3,7.8,-52.98
1554879742396,0.062249242999999996,-8.581417,5.7359085,-0.40373522,0.26418558,-0.5518069999999999,-0.06,8.34,-52.74
1554879742415,0.16759412,-8.509591,5.539584,-0.41225734,0.24181503,-0.4282363,0.12,8.82,-52.5
1554879742435,0.15322891,-8.428188,5.587468,-0.37923414,0.22264028,-0.30892670000000005,0.36,9.3,-52.32
1554879742456,0.30166942,-8.337209,5.515642,-0.3717773,0.2034655,-0.20026971,0.54,9.84,-52.14
1554879742475,0.18674773,-8.270171000000001,5.3624134,-0.38242993,0.17363810000000002,-0.11717909,0.72,10.5,-52.02
1554879742495,0.17717093,-8.06427,5.3624134,-0.40373522,0.12783173,-0.026631612000000002,0.78,11.16,-51.9
1554879742516,0.23942018,-8.203134,5.3528366,-0.42290998,0.07882957,0.03834952,0.84,11.88,-51.84
1554879742536,0.36870706,-8.145673,5.309741000000001,-0.45380265,0.022370555,0.06285059999999999,0.9,12.48,-51.84
1554879742555,0.44532153,-8.322844,5.276222,-0.46339005,-0.053263225,0.07882957,0.9,13.14,-51.78
1554879742576,0.56982,-8.380303999999999,5.5204306,-0.45806372,-0.12463594,0.10439592,0.96,13.86,-51.66
1554879742595,0.81402856,-8.341997000000001,5.3145294000000005,-0.4101268,-0.18322548,0.13954964,1.02,14.52,-51.48
1554879742615,0.80445176,-8.255806,5.3528366,-0.36751625,-0.23755397,0.20133498,1.08,15.12,-51.3
1554879742636,0.79487497,-8.260594000000001,5.242703,-0.34088463,-0.2972088,0.27590349999999997,1.14,15.6,-51.06
1554879742656,0.82360536,-8.246229,5.127781400000001,-0.30679616,-0.35792887,0.3323625,1.14,16.08,-50.82
1554879742676,0.8714894,-8.337209,5.285799,-0.25566345,-0.42290998,0.38242993,1.14,16.5,-50.64
1554879742696,1.1875241,-8.456919000000001,5.213972599999999,-0.2034655,-0.49215218,0.41758367,1.14,16.92,-50.46
1554879742716,1.3886370000000001,-8.681973,5.0080714,-0.17257284,-0.5368933000000001,0.41758367,1.08,17.34,-50.28
1554879742736,1.5610195,-8.811261,5.0846860000000005,-0.13315806,-0.5486112,0.39947417,1.02,17.64,-50.22
1554879742756,1.6903063999999999,-8.710705,4.969764,-0.09374327,-0.56245965,0.38029942,0.96,17.94,-50.22
1554879742775,1.7238252,-8.686762,4.89315,-0.09267801,-0.56459016,0.35899413,0.72,18.18,-50.22
1554879742796,1.7812861,-8.528744999999999,4.8021703,-0.10865697,-0.5656554,0.34088463,0.36,18.3,-50.28
1554879742816,1.661576,-8.413822999999999,4.6633059999999995,-0.12357068,-0.56459016,0.32170987,0.06,18.3,-50.34
1554879742836,1.5897499,-8.389880999999999,4.553173,-0.12357068,-0.567786,0.30999196,-0.3,18.24,-50.34
1554879742856,1.532289,-8.294113000000001,4.4526167,-0.12144015,-0.58696073,0.28549087,-0.78,18.12,-50.4
1554879742876,1.4891934,-8.231864,4.5483847,-0.10759171,-0.59122175,0.257794,-1.08,18.06,-50.4
1554879742896,1.4508862,-8.006809,4.280234,-0.058589544,-0.5837649,0.22796659,-1.38,18.0,-50.52
1554879742916,1.2210428999999998,-7.925406,4.0695443,0.00958738,-0.572047,0.18961707,-1.68,17.94,-50.64
1554879742937,1.1731589,-7.8009076,3.9785647000000006,0.083090626,-0.56885123,0.17363810000000002,-1.92,17.94,-50.7
1554879742955,1.2785037000000001,-7.729081599999999,4.0120835,0.12357068,-0.5763081,0.14274544,-2.04,17.88,-50.82
1554879742975,1.2210428999999998,-7.934983,3.8301241000000004,0.14168017,-0.58483016,0.111852765,-2.28,17.88,-50.94
1554879742995,1.3120226000000001,-8.088212,3.8061821000000005,0.12250541,-0.59122175,0.098004326,-2.58,17.88,-51.06
1554879743015,1.3838485,-8.231864,3.9211037,0.11504856,-0.588026,0.06391586,-2.94,17.88,-51.24
1554879743035,1.3742718,-8.365939,3.7630866000000003,0.11611383,-0.5784385999999999,0.05006743,-3.42,17.7,-51.36
1554879743056,1.3694833999999998,-8.365939,3.7630866000000003,0.113983296,-0.57098174,0.05965481,-3.96,17.46,-51.42
1554879743075,1.4317327,-8.437764999999999,3.6577415,0.09054748,-0.57311225,0.07882957,-4.44,17.22,-51.48
1554879743095,1.4317327,-8.4664955,3.7726634,0.036218993,-0.5858955,0.07882957,-4.92,16.98,-51.6
1554879743116,1.5801731,-8.739435,3.7487214,0.0,-0.59228706,0.07882957,-5.34,16.74,-51.66
1554879743135,1.7525556,-8.749011999999999,3.8109705000000003,-0.00958738,-0.5901565,0.094808534,-5.76,16.5,-51.78
1554879743155,1.7573439999999998,-8.911817999999998,3.8827964999999995,0.015978966,-0.572047,0.10439592,-6.12,16.26,-51.84
1554879743175,1.8100165000000001,-8.974067,3.8540661,0.04580637,-0.5539375,0.12357068,-6.42,15.96,-51.96
1554879743196,1.8100165000000001,-8.883087,3.863643,0.033023197000000004,-0.54648066,0.14274544,-6.72,15.84,-52.02
1554879743215,1.9871874,-8.796896,3.8349125,-0.013848438000000001,-0.5368933000000001,0.15446335,-6.96,15.72,-52.14
1554879743236,1.9009962,-8.7538,3.7822402000000004,-0.056459017,-0.5422196,0.16618125,-7.26,15.66,-52.2
1554879743255,1.9680338,-8.705916,3.8540661,-0.07456851,-0.5486112,0.18961707,-7.62,15.6,-52.26
1554879743276,1.8148049,-8.5383215,4.031237,-0.060720075,-0.5592638000000001,0.21411815,-7.98,15.54,-52.38
1554879743295,1.9728221999999997,-8.485649,4.055179,-0.04474111,-0.58056915,0.21837921,-8.52,15.42,-52.44
1554879743315,1.9536686,-8.45213,4.031237,-0.022370555,-0.5816344,0.21092236,-9.0,15.36,-52.5
1554879743335,2.0350714,-8.4664955,4.194042700000001,-0.002130529,-0.5837649,0.21411815,-9.54,15.36,-52.56
1554879743356,1.9776106,-8.576628999999999,4.3424835,0.04474111,-0.56459016,0.21092236,-10.02,15.3,-52.56
1554879743376,2.0494366000000004,-8.5383215,4.007295,0.099069595,-0.5273059,0.20559604,-10.44,15.24,-52.62
1554879743396,1.9536686,-8.404246,4.0120835,0.12570119999999999,-0.48043427,0.19174760000000002,-10.74,15.18,-52.62
1554879743416,1.9632453999999997,-8.471283999999999,4.1222167,0.111852765,-0.4261058,0.18535602,-11.04,15.06,-52.62
1554879743436,1.9680338,-8.519167999999999,4.0360255,0.05219796,-0.3536678,0.18535602,-11.28,15.0,-52.68
1554879743455,2.0207062,-8.54311,4.064756,-0.007456851,-0.28442562,0.16937704,-11.46,14.88,-52.68
1554879743475,1.9345150000000002,-8.629301,4.2754455,-0.020240024,-0.21198763,0.16618125,-11.7,14.82,-52.68
1554879743496,1.8195933000000002,-8.710705,4.1461587,-0.002130529,-0.14168017,0.16618125,-11.88,14.76,-52.68
1554879743516,1.8866308999999997,-8.648455,4.088698,-0.0010652645,-0.08735169,0.16298546,-12.12,14.7,-52.68
1554879743535,1.8483237000000001,-8.509591,3.8732197,-0.01917476,-0.03834952,0.14913702,-12.36,14.58,-52.68
1554879743556,1.7860744999999998,-8.5383215,4.016872,-0.05965481,-0.007456851,0.13635385,-12.66,14.58,-52.74
1554879743576,1.8148049,-8.504802999999999,4.0120835,-0.10759171,-0.0010652645,0.11611383,-12.96,14.52,-52.74
1554879743595,1.6903063999999999,-8.681973,4.0025067000000005,-0.10226539,0.0010652645,0.09374327,-13.14,14.52,-52.8
1554879743615,1.6424223000000002,-8.648455,4.0839095,-0.080960095,-0.008522116,0.07989483,-13.26,14.52,-52.8
1554879743636,1.8100165000000001,-8.792108,4.2036195,-0.06391586,-0.03195793,0.060720075,-13.32,14.46,-52.8
1554879743656,1.7573439999999998,-8.911817999999998,4.117428299999999,-0.02876214,-0.039414786,0.041545313,-13.38,14.46,-52.86
1554879743676,1.7956512999999998,-8.926183,4.1892543,0.00958738,-0.049002163,0.034088463,-13.38,14.46,-52.86
1554879743696,1.7190368000000003,-9.007586,4.0743327,0.05752428,-0.039414786,0.03834952,-13.38,14.52,-52.86
1554879743715,1.7286136000000003,-8.950125,4.0216603,0.10652645,-0.024501082,0.039414786,-13.38,14.58,-52.8
1554879743735,1.7717092,-8.96449,3.9354692000000004,0.13528858,-0.007456851,0.043675844000000005,-13.38,14.64,-52.8
1554879743756,1.7046716,-8.839992,4.0025067000000005,0.12463594,0.026631612000000002,0.05965481,-13.38,14.7,-52.74
1554879743776,1.6089035,-8.768166,4.064756,0.113983296,0.06391586,0.049002163,-13.44,14.76,-52.74
1554879743796,1.5705963,-8.677185,3.8540661,0.082025364,0.099069595,0.03834952,-13.5,14.76,-52.68
1554879743815,1.4748282,-8.629301,3.8732197,0.060720075,0.13635385,0.03089267,-13.5,14.82,-52.68
1554879743835,1.5658079,-8.533533,4.1461587,0.04261058,0.16724652,0.022370555,-13.5,14.88,-52.62
1554879743856,1.4269443000000002,-8.710705,3.9402574999999995,0.033023197000000004,0.18961707,0.0063915867,-13.5,14.94,-52.62
1554879743876,1.4460978999999998,-8.557475,3.9737763,0.02130529,0.20453078,-0.014913702,-13.44,14.94,-52.62
1554879743895,1.3838485,-8.696339,4.0599675,0.022370555,0.21624869,-0.01917476,-13.32,14.88,-52.62
1554879743916,1.3599066,-8.590994,4.007295,0.040480047000000005,0.22690132,-0.012783173500000002,-13.26,14.82,-52.62
1554879743936,1.3790601,-8.57184,3.9737763,0.06178534,0.23329292,-0.012783173500000002,-13.14,14.82,-52.62
1554879743955,1.3120226000000001,-8.5143795,3.9067385000000003,0.06391586,0.24181503,-0.023435817999999997,-12.96,14.76,-52.62
1554879743976,1.3838485,-8.5383215,3.743933,0.004261058,0.23116238,-0.029827405,-12.9,14.7,-52.56
1554879743996,1.3790601,-8.686762,3.9258924,-0.010652645,0.23648871,-0.04580637,-12.78,14.64,-52.56
1554879744016,1.3359646,-8.533533,4.0025067000000005,-0.012783173500000002,0.22583607,-0.047936900000000005,-12.66,14.64,-52.56
1554879744036,1.3024458,-8.480861,3.9019501000000005,-0.007456851,0.22690132,-0.04580637,-12.54,14.76,-52.56
1554879744055,1.2066777,-8.4234,3.863643,-0.004261058,0.221575,-0.053263225,-12.36,14.88,-52.56
1554879744076,1.0965444,-8.332419999999999,3.8157589999999995,-0.017044231,0.20453078,-0.060720075,-12.12,15.0,-52.56
1554879744096,1.163582,-8.322844,3.9689879999999995,-0.035153727999999995,0.18216023,-0.06604639400000001,-11.88,15.12,-52.62
1554879744116,1.1875241,-8.4234,4.007295,-0.056459017,0.1587244,-0.068176925,-11.64,15.24,-52.62
1554879744136,1.1971009,-8.576628999999999,3.8827964999999995,-0.07776430000000001,0.13528858,-0.068176925,-11.4,15.36,-52.68
1554879744156,1.2689268999999999,-8.533533,4.007295,-0.07669904,0.11824436,-0.07030745599999999,-11.16,15.48,-52.68
1554879744176,1.3120226000000001,-8.749011999999999,4.088698,-0.05219796,0.099069595,-0.06924219,-10.98,15.48,-52.68
1554879744196,1.3742718,-8.653243,4.1892543,-0.041545313,0.08948222,-0.05965481,-10.8,15.48,-52.68
1554879744215,1.4604629999999998,-8.7538,4.103063,-0.03834952,0.080960095,-0.06178534,-10.74,15.42,-52.74
1554879744238,1.4652513999999999,-8.749011999999999,4.2371383,-0.04261058,0.07563378,-0.06924219,-10.74,15.42,-52.74
1554879744256,1.4221559,-8.734647,4.2754455,-0.026631612000000002,0.07243799,-0.07137272,-10.74,15.36,-52.74
1554879744278,1.3838485,-8.5622635,4.347272,0.0031957934000000003,0.07456851,-0.07243799,-10.74,15.36,-52.74
1554879744297,1.3790601,-8.533533,4.2993879999999995,0.011717908999999999,0.07563378,-0.07350325,-10.74,15.42,-52.74
1554879744317,1.2497733,-8.399458000000001,4.2275615,0.018109497,0.08735169,-0.07563378,-10.74,15.48,-52.68
1554879744335,1.1971009,-8.4425535,4.2371383,0.01917476,0.099069595,-0.07563378,-10.74,15.54,-52.68
1554879744356,1.283292,-8.39467,4.395156,0.02130529,0.111852765,-0.06924219,-10.68,15.66,-52.62
1554879744376,1.3072342,-8.471283999999999,4.174889,0.020240024,0.12250541,-0.07243799,-10.62,15.72,-52.62
1554879744396,1.3359646,-8.509591,4.0839095,0.03834952,0.13741912,-0.08628642,-10.5,15.84,-52.56
1554879744416,1.2593501,-8.365939,4.11264,0.047936900000000005,0.1470065,-0.094808534,-10.38,15.9,-52.56
1554879744436,1.3120226000000001,-8.351574000000001,3.9641995000000003,0.03834952,0.15126756,-0.112918034,-10.26,15.96,-52.5
1554879744455,1.2689268999999999,-8.332419999999999,3.9067385000000003,0.008522116,0.15020229,-0.12783173,-10.2,16.02,-52.5
1554879744475,1.2162545,-8.54311,4.0599675,-0.040480047000000005,0.14594123,-0.13422333,-10.08,16.02,-52.44
1554879744496,1.2785037000000001,-8.653243,4.064756,-0.06711166,0.13422333,-0.15020229,-9.9,16.02,-52.44
1554879744516,1.2306197,-8.710705,3.9594111000000005,-0.05539375,0.12783173,-0.15339808,-9.78,15.96,-52.44
1554879744535,1.1971009,-8.72507,4.1796775,-0.02876214,0.12676647,-0.1438107,-9.72,15.96,-52.38
1554879744556,1.1875241,-8.653243,4.079121,0.013848438000000001,0.12357068,-0.13209279,-9.54,15.96,-52.38
1554879744575,1.2018893,-8.576628999999999,4.11264,0.0010652645,0.12996227,-0.11717909,-9.48,16.02,-52.32
1554879744595,1.1348516000000002,-8.5622635,4.064756,-0.03089267,0.13209279,-0.11930962,-9.36,16.02,-52.32
1554879744615,1.1875241,-8.5143795,3.9881415000000002,-0.05965481,0.13422333,-0.12037488,-9.24,16.02,-52.32
1554879744637,1.1971009,-8.624513,4.1078515,-0.07350325,0.13741912,-0.12037488,-9.18,16.02,-52.32
1554879744656,1.2401965,-8.614936,4.2754455,-0.05752428,0.13635385,-0.12357068,-9.06,16.02,-52.38
1554879744676,1.1731589,-8.696339,4.170100700000001,-0.037284255,0.13528858,-0.11717909,-8.94,16.02,-52.38
1554879744696,1.067814,-8.667608,4.0743327,-0.01917476,0.128897,-0.10972224,-8.88,16.02,-52.38
1554879744716,1.2258313,-8.710705,3.9833531000000004,-0.002130529,0.12250541,-0.10546118,-8.82,16.02,-52.38
1554879744735,1.2785037000000001,-8.672397,4.11264,-0.012783173500000002,0.1107875,-0.09161274,-8.76,16.02,-52.38
1554879744755,1.2066777,-8.619724,4.1078515,-0.00958738,0.10759171,-0.08948222,-8.7,16.02,-52.38
1554879744776,1.1923125,-8.500014,4.0025067000000005,0.012783173500000002,0.098004326,-0.082025364,-8.7,16.08,-52.44
1554879744796,1.1971009,-8.533533,3.9546227,0.014913702,0.09054748,-0.07882957,-8.64,16.14,-52.44
1554879744815,1.2066777,-8.480861,3.8349125,-0.002130529,0.07456851,-0.09374327,-8.64,16.2,-52.44
1554879744835,1.1875241,-8.567052,3.7726634,-0.013848438000000001,0.06498113,-0.098004326,-8.64,16.26,-52.44
1554879744856,1.3072342,-8.567052,3.8301241000000004,-0.041545313,0.046871635999999994,-0.09054748,-8.64,16.26,-52.44
1554879744875,1.2210428999999998,-8.648455,3.9306807999999998,-0.039414786,0.036218993,-0.09054748,-8.64,16.38,-52.44
1554879744896,1.2018893,-8.528744999999999,3.9546227,-0.046871635999999994,0.020240024,-0.07456851,-8.58,16.5,-52.44
1554879744915,1.1923125,-8.667608,4.0695443,-0.06498113,0.0,-0.07563378,-8.52,16.62,-52.38
1554879744935,1.2162545,-8.5862055,3.9689879999999995,-0.09587380000000001,-0.023435817999999997,-0.07563378,-8.52,16.74,-52.32
1554879744956,1.2689268999999999,-8.610147,3.7630866000000003,-0.15765914,-0.060720075,-0.05752428,-8.46,16.86,-52.26
1554879744976,1.1779473,-8.81605,3.9594111000000005,-0.14487597,-0.07776430000000001,-0.053263225,-8.46,16.98,-52.2
1554879744995,1.1492168,-8.69155,4.0025067000000005,-0.13635385,-0.08628642,-0.039414786,-8.4,17.1,-52.2
1554879745015,1.0486604,-8.610147,4.1796775,-0.10865697,-0.098004326,-0.027696876000000002,-8.34,17.22,-52.14
1554879745035,1.067814,-8.658031,3.9594111000000005,-0.08735169,-0.11717909,-0.020240024,-8.28,17.34,-52.08
1554879745057,1.2593501,-8.782531,3.9306807999999998,-0.10972224,-0.12463594,0.004261058,-8.22,17.4,-52.08
1554879745077,1.2401965,-8.801684,3.7630866000000003,-0.15765914,-0.12570119999999999,0.008522116,-8.22,17.46,-52.08
1554879745097,1.163582,-8.81605,3.7152026,-0.15552860000000002,-0.13315806,-0.007456851,-8.22,17.52,-52.08
1554879745117,1.2880806,-8.811261,3.7535098,-0.10013486,-0.13315806,-0.011717908999999999,-8.28,17.64,-52.08
1554879745136,1.3694833999999998,-8.892664,3.9498343,-0.011717908999999999,-0.128897,-0.018109497,-8.34,17.7,-52.08
1554879745156,1.3742718,-8.835203,3.7726634,0.018109497,-0.12250541,-0.013848438000000001,-8.4,17.82,-52.08
1554879745176,1.3742718,-8.758589,3.7726634,0.008522116,-0.111852765,0.00958738,-8.52,17.88,-52.08
1554879745197,1.3359646,-8.672397,3.6577415,0.014913702,-0.11717909,0.02130529,-8.64,18.0,-52.02
1554879745216,1.3742718,-8.772953999999999,3.6481647000000006,0.027696876000000002,-0.128897,0.018109497,-8.7,18.06,-52.02
1554879745237,1.4700398000000001,-8.749011999999999,3.7199910000000003,-0.0010652645,-0.11504856,0.022370555,-8.82,18.12,-51.96
1554879745256,1.4700398000000001,-8.634089,3.7870286,-0.02876214,-0.10652645,0.011717908999999999,-8.82,18.12,-51.9
1554879745275,1.4221559,-8.581417,3.743933,-0.05965481,-0.10013486,0.013848438000000001,-8.82,18.18,-51.9
1554879745295,1.5179238000000002,-8.715492999999999,3.614646,-0.033023197000000004,-0.101200126,0.014913702,-8.88,18.18,-51.84
1554879745315,1.5610195,-8.710705,3.5332432000000003,-0.017044231,-0.10546118,0.010652645,-8.94,18.18,-51.84
1554879745335,1.5562311000000002,-8.796896,3.6816837999999996,-0.034088463,-0.080960095,0.0063915867,-9.06,18.06,-51.84
1554879745355,1.436521,-8.787319,3.5763388,-0.07456851,-0.07989483,-0.0031957934000000003,-9.24,17.94,-51.84
1554879745375,1.5035586,-8.734647,3.7152026,-0.09161274,-0.07989483,-0.002130529,-9.36,17.82,-51.78
1554879745395,1.4030021000000001,-8.772953999999999,3.5571851999999997,-0.060720075,-0.094808534,0.002130529,-9.48,17.7,-51.78
1554879745415,1.4796166000000002,-8.911817999999998,3.7152026,-0.024501082,-0.099069595,-0.004261058,-9.6,17.58,-51.78
1554879745435,1.5658079,-8.926183,3.9163153,0.0063915867,-0.08628642,-0.010652645,-9.78,17.46,-51.78
1554879745455,1.4652513999999999,-8.796896,3.7295678,0.023435817999999997,-0.082025364,-0.024501082,-9.9,17.4,-51.78
1554879745475,1.484405,-8.696339,3.6002807999999997,0.02876214,-0.07030745599999999,-0.020240024,-9.96,17.34,-51.72
1554879745495,1.4939818,-8.7538,3.6673183,0.010652645,-0.053263225,-0.004261058,-10.02,17.4,-51.72
1554879745515,1.5658079,-8.81605,3.5811272000000005,-0.007456851,-0.03195793,-0.007456851,-10.02,17.46,-51.72
1554879745536,1.5275006000000002,-8.715492999999999,3.8492777,-0.013848438000000001,-0.011717908999999999,-0.012783173500000002,-10.02,17.52,-51.72
1554879745557,1.5083469999999999,-8.811261,3.6098576,-0.023435817999999997,0.0010652645,-0.007456851,-10.08,17.7,-51.66
1554879745575,1.5131354,-8.811261,3.6194344,-0.027696876000000002,0.00958738,-0.014913702,-10.14,17.88,-51.66
1554879745595,1.4556746,-8.806473,3.8205473,-0.02130529,0.023435817999999997,-0.027696876000000002,-10.08,18.06,-51.6
1554879745616,1.5370774999999999,-8.763377,3.6194344,-0.029827405,0.041545313,-0.024501082,-10.08,18.3,-51.6
1554879745636,1.4700398000000001,-8.811261,3.6481647000000006,-0.037284255,0.05752428,-0.026631612000000002,-10.08,18.48,-51.6
1554879745656,1.5466543,-8.878299,3.6625300000000003,-0.034088463,0.06498113,-0.02876214,-10.02,18.78,-51.54
1554879745676,1.5179238000000002,-8.873510000000001,3.8253357000000006,-0.027696876000000002,0.07137272,-0.029827405,-9.96,19.02,-51.54
1554879745696,1.5562311000000002,-8.792108,3.7966053,0.0010652645,0.09267801,-0.043675844000000005,-9.96,19.26,-51.54
1554879745715,1.4796166000000002,-8.739435,3.5811272000000005,0.033023197000000004,0.101200126,-0.05006743,-9.9,19.32,-51.54
1554879745736,1.412579,-8.749011999999999,3.6290112,0.022370555,0.10013486,-0.035153727999999995,-9.9,19.38,-51.6
1554879745755,1.4604629999999998,-8.806473,3.7199910000000003,-0.014913702,0.10013486,-0.03195793,-9.84,19.44,-51.6
1554879745775,1.4317327,-8.782531,3.8013937000000007,-0.023435817999999997,0.10972224,-0.039414786,-9.84,19.44,-51.66
1554879745795,1.4556746,-8.696339,3.470994,0.015978966,0.10333065,-0.05219796,-9.84,19.32,-51.66
1554879745815,1.5466543,-8.849568,3.6194344,0.03834952,0.094808534,-0.053263225,-9.84,19.2,-51.72
1554879745836,1.5275006000000002,-8.782531,3.6864722000000003,0.037284255,0.09054748,-0.05539375,-9.72,19.14,-51.72
1554879745855,1.3694833999999998,-8.744224,3.4614172,0.0010652645,0.06924219,-0.05752428,-9.6,19.02,-51.72
1554879745875,1.3982137,-8.825626,3.6864722000000003,-0.051132694000000006,0.05219796,-0.058589544,-9.48,19.02,-51.72
1554879745896,1.3694833999999998,-8.806473,3.7582982000000005,-0.07137272,0.05006743,-0.054328485999999995,-9.36,18.96,-51.72
1554879745915,1.2976573999999998,-8.796896,3.6433763999999997,-0.03195793,0.034088463,-0.06498113,-9.18,18.96,-51.72
1554879745936,1.2258313,-8.758589,3.566762,0.049002163,0.020240024,-0.06391586,-9.06,18.96,-51.66
1554879745957,1.3359646,-8.868722,3.4997244,0.07669904,0.0053263223,-0.05219796,-8.94,19.02,-51.6
1554879745976,1.2641385,-8.653243,3.5571851999999997,0.049002163,0.0053263223,-0.040480047000000005,-8.82,19.08,-51.54
1554879745996,1.2976573999999998,-8.849568,3.7152026,-0.0010652645,0.007456851,-0.03195793,-8.76,19.14,-51.48
1554879746015,1.3263878,-8.811261,3.6721067,-0.029827405,0.004261058,-0.036218993,-8.82,19.2,-51.48
1554879746035,1.3072342,-8.897452000000001,3.6721067,-0.0031957934000000003,0.004261058,-0.04580637,-8.82,19.2,-51.42
1554879746056,1.292869,-8.84478,3.518878,0.06285059999999999,-0.0031957934000000003,-0.037284255,-8.82,19.2,-51.36
1554879746075,1.3120226000000001,-8.820838,3.6242227999999996,0.08735169,0.0,-0.022370555,-8.88,19.26,-51.36
1554879746096,1.340753,-8.710705,3.5332432000000003,0.040480047000000005,-0.007456851,-0.013848438000000001,-8.94,19.26,-51.36
1554879746116,1.3120226000000001,-8.734647,3.5476084,-0.007456851,-0.010652645,-0.010652645,-9.0,19.32,-51.36
1554879746136,1.3599066,-8.763377,3.6864722000000003,-0.011717908999999999,-0.026631612000000002,-0.0031957934000000003,-9.0,19.32,-51.36
1554879746155,1.3886370000000001,-8.839992,3.6864722000000003,-0.012783173500000002,-0.03089267,0.0031957934000000003,-9.06,19.38,-51.36
1554879746175,1.364695,-8.835203,3.8397010000000003,0.024501082,-0.029827405,-0.004261058,-9.06,19.32,-51.36
1554879746196,1.4604629999999998,-8.72507,3.4901476000000002,0.07563378,-0.039414786,-0.007456851,-9.06,19.32,-51.36
1554879746216,1.4891934,-8.7538,3.7582982000000005,0.068176925,-0.040480047000000005,-0.0031957934000000003,-9.06,19.32,-51.36
1554879746235,1.484405,-8.643666,3.6577415,0.014913702,-0.04261058,-0.007456851,-9.06,19.32,-51.36
1554879746255,1.412579,-8.734647,3.5859156000000003,-0.025566347000000003,-0.03834952,-0.020240024,-9.06,19.32,-51.36
1554879746276,1.340753,-8.715492999999999,3.614646,-0.04261058,-0.037284255,-0.027696876000000002,-9.06,19.32,-51.42
1554879746295,1.436521,-8.820838,3.7487214,-0.03834952,-0.03834952,-0.026631612000000002,-9.0,19.32,-51.48
1554879746315,1.4221559,-8.7538,3.7295678,-0.010652645,-0.043675844000000005,-0.034088463,-9.0,19.32,-51.48
1554879746336,1.3838485,-8.734647,3.614646,0.029827405,-0.047936900000000005,-0.02876214,-8.94,19.32,-51.54
1554879746356,1.4030021000000001,-8.7538,3.6433763999999997,0.041545313,-0.05219796,-0.024501082,-8.94,19.38,-51.6
1554879746375,1.3694833999999998,-8.715492999999999,3.6768951000000003,0.026631612000000002,-0.06391586,-0.037284255,-8.94,19.38,-51.66
1554879746395,1.3742718,-8.758589,3.4901476000000002,0.004261058,-0.06711166,-0.033023197000000004,-8.94,19.38,-51.72
1554879746416,1.3263878,-8.806473,3.5045127999999997,0.0053263223,-0.07350325,-0.02876214,-8.94,19.38,-51.72
1554879746436,1.316811,-8.825626,3.5571851999999997,0.0,-0.08522116,-0.026631612000000002,-8.94,19.44,-51.78
1554879746456,1.2593501,-8.873510000000001,3.4901476000000002,-0.00958738,-0.08841695,-0.022370555,-9.0,19.44,-51.78
1554879746475,1.3215994,-8.820838,3.7247794,-0.0010652645,-0.09054748,-0.018109497,-9.0,19.44,-51.78
1554879746496,1.3072342,-8.926183,3.7056258,0.007456851,-0.080960095,-0.0063915867,-9.06,19.44,-51.78
1554879746515,1.3982137,-9.036316000000001,3.7008373999999997,0.012783173500000002,-0.06924219,0.014913702,-9.12,19.5,-51.72
1554879746536,1.4173675,-8.978855000000001,3.7343562000000006,0.014913702,-0.040480047000000005,0.053263225,-9.18,19.5,-51.72
1554879746556,1.5370774999999999,-8.873510000000001,3.5523968,0.01917476,-0.014913702,0.07030745599999999,-9.18,19.5,-51.66
1554879746576,1.6376339,-8.705916,3.8971617,0.002130529,0.008522116,0.07989483,-9.24,19.5,-51.66
1554879746595,1.6041151000000002,-8.710705,3.7199910000000003,-0.049002163,0.029827405,0.05752428,-9.36,19.44,-51.66
1554879746616,1.541866,-8.595782,3.6194344,-0.04580637,0.035153727999999995,0.03195793,-9.42,19.44,-51.66
1554879746636,1.5083469999999999,-8.590994,3.6337996,-0.00958738,0.02876214,0.0063915867,-9.48,19.38,-51.66
1554879746656,1.484405,-8.567052,3.4183214,0.011717908999999999,0.002130529,-0.043675844000000005,-9.54,19.38,-51.72
1554879746675,1.3120226000000001,-8.523956,3.413533,0.0010652645,-0.024501082,-0.084155895,-9.6,19.38,-51.72
1554879746696,1.3120226000000001,-8.772953999999999,3.3033997999999998,-0.01917476,-0.068176925,-0.10439592,-9.66,19.38,-51.66
1554879746716,1.292869,-8.854357,3.5571851999999997,-0.056459017,-0.11717909,-0.10226539,-9.66,19.32,-51.66
1554879746736,1.1444284,-8.974067,3.5284547999999996,-0.043675844000000005,-0.16298546,-0.101200126,-9.72,19.32,-51.66
1554879746756,1.1875241,-8.954913000000001,3.7104141999999998,0.015978966,-0.21411815,-0.082025364,-9.66,19.26,-51.66
1554879746775,1.1013328000000002,-8.959702,3.7056258,0.09161274,-0.25140239999999997,-0.05006743,-9.72,19.26,-51.66
1554879746795,1.1348516000000002,-8.806473,3.4278982000000005,0.12144015,-0.26738137,-0.007456851,-9.72,19.26,-51.6
1554879746816,1.1540052,-8.863934,3.4662056000000003,0.1107875,-0.26738137,0.03195793,-9.78,19.32,-51.6
1554879746836,1.3024458,-8.859145,3.5954924,0.07563378,-0.25672874,0.058589544,-9.84,19.32,-51.6
1554879746856,1.3790601,-8.902241,3.3369186,0.06604639400000001,-0.22690132,0.08628642,-9.9,19.32,-51.54
1554879746876,1.4796166000000002,-8.959702,3.5523968,0.05752428,-0.17789917,0.112918034,-10.02,19.32,-51.54
1554879746896,1.6280571000000001,-8.950125,3.5715504,0.040480047000000005,-0.12037488,0.1107875,-10.08,19.32,-51.54
1554879746916,1.733402,-8.849568,3.566762,-0.013848438000000001,-0.06711166,0.113983296,-10.14,19.32,-51.54
1554879746936,1.8100165000000001,-8.715492999999999,3.7487214,-0.06924219,-0.015978966,0.10546118,-10.26,19.26,-51.6
1554879746956,1.7956512999999998,-8.667608,3.7630866000000003,-0.10226539,0.011717908999999999,0.08948222,-10.32,19.26,-51.6
1554879746975,1.6519991000000003,-8.519167999999999,3.6098576,-0.10865697,0.020240024,0.07882957,-10.44,19.2,-51.6
1554879746995,1.6519991000000003,-8.495225999999999,3.8061821000000005,-0.094808534,0.015978966,0.054328485999999995,-10.5,19.14,-51.6
1554879747016,1.6280571000000001,-8.519167999999999,3.767875,-0.06285059999999999,-0.00958738,0.011717908999999999,-10.56,19.14,-51.6
1554879747036,1.5370774999999999,-8.653243,3.8157589999999995,-0.015978966,-0.03195793,-0.023435817999999997,-10.62,19.08,-51.6
1554879747055,1.4987701999999998,-8.629301,3.7343562000000006,0.025566347000000003,-0.046871635999999994,-0.05006743,-10.68,19.08,-51.54
1554879747075,1.4413095,-8.686762,3.4614172,0.041545313,-0.054328485999999995,-0.068176925,-10.68,19.08,-51.54
1554879747096,1.3694833999999998,-8.772953999999999,3.4087446000000003,0.047936900000000005,-0.06498113,-0.07669904,-10.74,19.02,-51.48
1554879747115,1.3694833999999998,-8.978855000000001,3.2698810000000003,0.015978966,-0.060720075,-0.06391586,-10.74,19.02,-51.42
1554879747137,1.3120226000000001,-8.921394,3.4518404,-0.02876214,-0.049002163,-0.05539375,-10.8,19.02,-51.36
1554879747157,1.2354081000000001,-9.074622999999999,3.5236663999999998,-0.024501082,-0.025566347000000003,-0.033023197000000004,-10.86,19.02,-51.36
1554879747176,1.1683705,-9.376292,3.470994,0.007456851,0.0010652645,0.011717908999999999,-10.92,19.02,-51.3
1554879747196,0.93852705,-9.567828,3.6337996,0.017044231,0.014913702,0.026631612000000002,-11.04,19.08,-51.3
1554879747216,0.79487497,-9.721058,3.8253357000000006,0.0031957934000000003,-0.015978966,0.06285059999999999,-11.1,19.08,-51.3
1554879747236,0.94331545,-9.898228999999999,3.8013937000000007,0.018109497,-0.05965481,0.13315806,-11.16,19.14,-51.3
1554879747256,0.7469909,-9.917382,4.0839095,0.09054748,-0.07456851,0.23968449999999997,-11.22,19.2,-51.3
1554879747276,0.44532153,-9.783307,4.222773,0.17363810000000002,-0.08948222,0.29933932,-11.28,19.2,-51.36
1554879747296,0.33518824,-9.735422999999999,4.4286747,0.17150758,-0.1107875,0.37390783,-11.28,19.2,-51.36
1554879747316,0.12449849,-9.711481,4.601057,0.18216023,-0.11504856,0.46658584,-11.28,19.2,-51.42
1554879747335,-0.33039984,-9.740211500000001,4.2371383,0.22796659,-0.128897,0.60507023,-11.28,19.14,-51.48
1554879747355,-0.6751649000000001,-9.730635000000001,4.3903675,0.2972088,-0.13315806,0.73822826,-11.22,19.14,-51.54
1554879747375,-0.8810662,-9.835979,4.3281183,0.38562572,-0.13741912,0.8564726,-11.16,19.08,-51.6
1554879747396,-0.6464345,-10.022727,4.385579,0.4079963,-0.14913702,1.0024139,-11.1,18.96,-51.72
1554879747415,-0.6895300999999999,-10.080188,4.3281183,0.39095205,-0.13741912,1.0972224,-11.04,18.9,-51.78
1554879747435,-0.79487497,-10.171167,4.4765587,0.38456047,-0.099069595,1.2623383999999997,-10.98,18.72,-51.84
1554879747456,-0.866701,-10.10413,4.2131963,0.38562572,-0.07350325,1.401888,-10.92,18.42,-51.9
1554879747476,-0.90979666,-9.86471,3.9689879999999995,0.3206446,-0.037284255,1.510545,-10.8,18.12,-51.96
1554879747495,-1.1731589,-9.711481,4.031237,0.221575,-0.002130529,1.5904398000000002,-10.74,17.88,-52.02
1554879747515,-1.2880806,-9.634866,3.8684312999999997,0.10546118,0.022370555,1.6788566999999999,-10.62,17.58,-52.08
1554879747536,-1.5083469999999999,-9.668385,3.9785647000000006,0.024501082,0.056459017,1.7406421000000003,-10.56,17.28,-52.14
1554879747556,-1.5514427,-9.543886,3.9498343,-0.011717908999999999,0.07243799,1.7928401000000003,-10.38,17.04,-52.2
1554879747576,-1.7908629,-9.558251,3.9641995000000003,-0.002130529,0.10013486,1.8418423,-10.2,16.8,-52.32
1554879747596,-2.135628,-9.251794,3.8732197,0.037284255,0.1107875,1.8706043999999997,-9.9,16.56,-52.38
1554879747615,-2.3080103,-9.036316000000001,3.9402574999999995,0.083090626,0.101200126,1.8876486000000001,-9.54,16.56,-52.44
1554879747635,-2.384625,-8.998009,3.8205473,0.13635385,0.09374327,1.9355855,-9.12,16.56,-52.5
1554879747655,-2.5330652999999996,-8.677185,3.8397010000000003,0.20879184,0.09161274,1.9590213,-8.7,16.5,-52.5
1554879747676,-2.9879637000000003,-8.313267,3.7966053,0.28655612,0.08841695,1.937716,-8.28,16.5,-52.5
1554879747696,-3.1986535,-7.915829,3.7056258,0.3270362,0.080960095,1.9089539,-7.92,16.5,-52.5
1554879747716,-3.4189199999999995,-7.6333137,3.9067385000000003,0.25992453,0.06498113,1.9057581000000001,-7.5,16.5,-52.44
1554879747735,-3.5098996,-7.5183919999999995,3.7535098,0.18642128,0.07137272,1.8738002,-7.14,16.44,-52.44
1554879747755,-3.7828386,-7.231087700000001,3.8397010000000003,0.13209279,0.07989483,1.8013622,-6.84,16.32,-52.44
1554879747776,-4.156333999999999,-6.7761892999999995,3.8109705000000003,0.098004326,0.083090626,1.7331853,-6.6,16.2,-52.44
1554879747796,-4.3047748,-6.627749000000001,3.743933,0.08735169,0.051132694000000006,1.6863136000000003,-6.42,16.02,-52.44
1554879747815,-4.390966000000001,-6.4026937,3.8971617,0.082025364,0.029827405,1.6213325,-6.3,15.84,-52.44
1554879747837,-4.7740383,-6.081871,3.9737763,0.05752428,0.0053263223,1.5158713,-6.06,15.54,-52.5
1554879747855,-4.7931919999999995,-5.895123,3.9019501000000005,0.004261058,-0.0010652645,1.4551512,-5.94,15.48,-52.5
1554879747875,-5.0421886,-5.837662,4.117428299999999,-0.047936900000000005,-0.012783173500000002,1.3709954,-5.82,15.3,-52.5
1554879747896,-5.3103394999999995,-5.6365495,3.8971617,-0.07669904,-0.049002163,1.3145363,-5.4,15.12,-52.5
1554879747916,-5.267244,-5.5695120000000005,4.0503907,-0.05752428,-0.07243799,1.2463594999999998,-5.04,15.06,-52.5
1554879747935,-5.430049400000001,-5.468955,4.2850223,-0.040480047000000005,-0.06711166,1.1749867,-4.74,15.0,-52.56
1554879747955,-5.4970870000000005,-5.3971290000000005,4.064756,-0.053263225,-0.06178534,1.1100056,-4.62,14.94,-52.56
1554879747976,-5.645528,-5.133767,4.371214,-0.08948222,-0.037284255,1.0045444,-4.14,14.88,-52.56
1554879747995,-5.7700260000000005,-5.105036699999999,4.0216603,-0.14168017,-0.035153727999999995,0.94808537,-3.9,14.82,-52.56
1554879748015,-5.961562000000001,-5.0236335,4.1796775,-0.19174760000000002,-0.01917476,0.9044095,-3.72,14.76,-52.62
1554879748037,-6.0285997,-5.0332108,4.2131963,-0.22903186,-0.011717908999999999,0.8490158000000001,-3.6,14.7,-52.62
1554879748057,-6.1770406,-4.918288700000001,4.1892543,-0.24074976,0.0,0.80533993,-3.6,14.64,-52.62
1554879748075,-6.301539,-5.00448,4.256292,-0.24927188,0.04261058,0.78296936,-3.72,14.58,-52.62
1554879748095,-6.5840545,-5.061941,4.11264,-0.29188246,0.080960095,0.7552725,-3.72,14.58,-52.56
1554879748116,-6.679823,-4.683657,4.0695443,-0.3749731,0.10226539,0.71798825,-3.72,14.58,-52.56
1554879748136,-6.9623384,-4.563947,3.9019501000000005,-0.42184472,0.10333065,0.70200926,-3.66,14.64,-52.56
1554879748156,-7.120356,-4.5926776,3.7822402000000004,-0.49960902,0.10439592,0.74781567,-3.54,14.76,-52.5
1554879748176,-7.374141000000001,-4.7123876,3.9785647000000006,-0.5613944000000001,0.08628642,0.76912093,-3.36,15.0,-52.38
1554879748195,-7.4363904000000005,-4.774636699999999,4.208408,-0.5699165,0.07776430000000001,0.76272935,-3.18,15.3,-52.32
1554879748216,-7.4842744,-4.6884456,4.064756,-0.5230448000000001,0.09161274,0.7595335999999999,-3.0,15.66,-52.2
1554879748235,-7.6614455999999995,-4.530428,3.9641995000000003,-0.44421527,0.10865697,0.77125144,-2.82,16.08,-52.08
1554879748256,-7.848192999999999,-4.520851,4.0216603,-0.31105720000000003,0.13528858,0.82557994,-2.64,16.5,-51.96
1554879748276,-7.8625584,-4.415506400000001,4.0264487,-0.21198763,0.13422333,0.8543421,-2.52,16.98,-51.84
1554879748295,-8.025364,-4.19524,3.7630866000000003,-0.10439592,0.11930962,0.8873653,-2.46,17.4,-51.72
1554879748315,-8.030152000000001,-3.9318779000000004,3.9354692000000004,-0.06924219,0.128897,0.90654004,-2.4,17.82,-51.6
1554879748335,-8.121132000000001,-3.7499184999999997,3.696049,0.0053263223,0.12996227,0.9150621999999999,-2.4,18.06,-51.54
1554879748356,-8.283937,-3.5535938999999996,3.7726634,0.083090626,0.12250541,0.9374326999999999,-2.34,18.24,-51.42
1554879748376,-8.274361,-3.2710779999999997,3.6721067,0.13954964,0.10652645,0.95447695,-2.28,18.42,-51.3
1554879748396,-8.130709,-3.0986955000000003,3.7104141999999998,0.19600865,0.10439592,0.9416938,-2.22,18.48,-51.12
1554879748415,-8.145074000000001,-2.830545,3.863643,0.27483824,0.10759171,0.91186637,-2.04,18.54,-51.0
1554879748435,-8.169016000000001,-2.4809916000000003,3.9354692000000004,0.38349520000000004,0.12570119999999999,0.88203895,-1.86,18.48,-50.82
1554879748456,-8.192958,-2.2703017999999995,3.8109705000000003,0.47617322,0.13209279,0.8511463,-1.62,18.3,-50.7
1554879748478,-8.341399000000001,-2.059612,3.5619736000000004,0.53795856,0.13102753,0.82557994,-1.38,18.0,-50.64
1554879748497,-8.39886,-1.7675193999999999,3.365649,0.5422196,0.11504856,0.7882956999999999,-1.02,17.64,-50.64
1554879748515,-8.236053,-1.7244238,3.4805707999999997,0.5699165,0.10865697,0.7222493000000001,-0.72,17.34,-50.7
1554879748537,-8.202535000000001,-1.3221979,3.4039562000000005,0.5944176,0.10865697,0.6402239000000001,-0.42,16.98,-50.76
1554879748556,-8.307879,-1.0109516,3.614646,0.6295713000000001,0.10972224,0.53795856,-0.12,16.56,-50.88
1554879748576,-8.0924015,-0.8912416,3.4278982000000005,0.65194184,0.09161274,0.45273739999999996,0.18,16.02,-50.94
1554879748596,-8.173803999999999,-0.7811083000000001,3.3704373999999997,0.58696073,0.099069595,0.3653857,0.48,15.48,-51.06
1554879748616,-8.250419,-0.670975,3.4231097999999998,0.53263223,0.098004326,0.2876214,0.78,14.82,-51.18
1554879748636,-8.461109,-0.75237787,3.2028434,0.47510794,0.07350325,0.22583607,0.96,14.16,-51.24
1554879748655,-8.585608,-0.75237787,3.2124202,0.35153726,0.05539375,0.18216023,1.14,13.44,-51.3
1554879748675,-8.676587,-0.8146270999999999,3.1549592,0.16618125,0.04261058,0.13635385,1.32,12.66,-51.36
1554879748695,-8.585608,-0.97743285,3.4231097999999998,-0.060720075,0.04474111,0.096939065,1.5,11.94,-51.42
1554879748715,-8.734048,-0.95827925,3.6816837999999996,-0.16405073,0.07137272,0.06178534,1.62,11.22,-51.48
1554879748736,-8.935161,-1.2791021999999999,3.8492777,-0.022370555,0.082025364,0.053263225,1.8,10.32,-51.54
1554879748756,-8.987833,-1.3940238999999999,3.9354692000000004,0.10865697,0.09267801,0.12037488,1.8,9.9,-51.6
1554879748776,-8.978256,-1.4036007,3.9594111000000005,0.25353295,0.112918034,0.16085494,1.8,9.66,-51.66
1554879748795,-9.030928999999999,-1.2216414,4.0743327,0.4708469,0.1470065,0.14913702,1.86,9.42,-51.66
1554879748815,-9.188946000000001,-1.0157399999999999,4.117428299999999,0.6860303000000001,0.1587244,0.15659387,1.86,9.36,-51.72
1554879748837,-9.208099,-0.7811083000000001,3.6625300000000003,0.87032104,0.165116,0.1949434,1.86,9.24,-51.78
1554879748857,-9.121908,-0.57999533,3.5859156000000003,1.0695255,0.14594123,0.21731395,1.86,9.12,-51.84
1554879748876,-9.160214999999999,-0.41718966,3.3752258,1.2197278,0.113983296,0.23861924,1.92,8.82,-51.84
1554879748895,-8.983044999999999,-0.13467385,3.2986114,1.135572,0.05539375,0.27483824,1.98,8.4,-51.9
1554879748916,-8.805874000000001,0.40162733,3.0017304,0.8745821,0.029827405,0.28016454,2.1,7.8,-51.9
1554879748936,-9.002198,0.46866497,2.9059622000000003,0.60507023,0.026631612000000002,0.22583607,2.22,6.9,-51.96
1554879748955,-9.121908,0.53091425,2.6809072,0.24607609,0.012783173500000002,0.1949434,2.34,5.88,-52.02
1554879748975,-9.030928999999999,0.47345337,3.0113072,-0.09587380000000001,0.018109497,0.16937704,2.46,4.74,-52.08
1554879748996,-8.987833,0.26276365,3.1358056,-0.25672874,0.0053263223,0.12676647,2.64,3.66,-52.14
1554879749015,-8.882488,0.13826515,3.5284547999999996,-0.30146983,0.026631612000000002,0.098004326,2.82,2.52,-52.2
1554879749035,-8.925583999999999,-0.0676362,3.3273417999999997,-0.17470337,0.046871635999999994,0.08735169,2.94,1.62,-52.26
1554879749056,-8.99741,-0.09636662,3.0400376000000002,-0.0031957934000000003,0.041545313,0.07137272,3.06,0.9,-52.26
1554879749076,-8.796297000000001,-0.17298107,3.0065188,0.02130529,0.05752428,0.07669904,3.12,0.36,-52.32
1554879749096,-9.030928999999999,-0.10594343,3.1022868,0.06285059999999999,0.068176925,0.07456851,3.12,0.18,-52.38
1554879749116,-8.796297000000001,0.013766658999999999,2.9873652,0.07030745599999999,0.043675844000000005,0.09161274,3.18,0.18,-52.38
1554879749135,-8.911219000000001,0.41599256,3.221997,0.084155895,0.034088463,0.09161274,3.18,0.18,-52.44
1554879749156,-9.040505,0.44472298,3.0113072,0.19281286,0.0,0.014913702,3.18,0.24,-52.44
1554879749176,-8.983044999999999,0.46387658,3.1214404,0.15765914,-0.007456851,0.010652645,3.18,0.36,-52.56
1554879749195,-9.064447,0.40162733,3.1693244,0.041545313,-0.00958738,0.02876214,3.18,0.48,-52.62
1554879749216,-9.002198,0.43514615,3.1884782000000005,-0.09267801,-0.013848438000000001,-0.0010652645,3.24,0.54,-52.68
1554879749236,-9.107543,0.30107087,3.2267854,-0.19813919,-0.013848438000000001,-0.020240024,3.3,0.54,-52.8
1554879749256,-9.093178,0.22924481,3.4326867999999995,-0.18748654,0.0010652645,-0.011717908999999999,3.42,0.54,-52.8
1554879749276,-9.160214999999999,-0.04369418,3.4566288,-0.11611383,0.007456851,0.004261058,3.48,0.54,-52.86
1554879749295,-9.083601,0.0712275,3.6002807999999997,-0.01917476,-0.012783173500000002,-0.022370555,3.6,0.48,-52.92
1554879749317,-9.11712,-0.04369418,3.317765,0.07989483,-0.033023197000000004,-0.03834952,3.66,0.48,-52.92
1554879749337,-9.083601,0.04249708,3.3273417999999997,0.09054748,-0.03834952,0.012783173500000002,3.72,0.54,-52.86
1554879749357,-9.112331,0.12868834,3.4614172,0.14594123,-0.04474111,0.017044231,3.78,0.6,-52.8
1554879749376,-9.078813,0.26276365,3.6864722000000003,0.29188246,-0.047936900000000005,-0.013848438000000001,3.84,0.66,-52.8
1554879749396,-9.14585,0.28670564,3.4566288,0.43249738,-0.043675844000000005,-0.004261058,3.84,0.78,-52.74
1554879749416,-9.059659,0.18614918,3.5140896,0.46552056,-0.014913702,0.036218993,3.78,0.84,-52.74
1554879749436,-8.987833,0.20051439,3.5045127999999997,0.41864893,0.013848438000000001,0.035153727999999995,3.78,0.78,-52.8
1554879749456,-8.973467999999999,0.44472298,3.341707,0.30253512,0.01917476,0.023435817999999997,3.72,0.6,-52.8
1554879749476,-9.078813,0.55485624,3.1597476,0.16405073,0.026631612000000002,0.035153727999999995,3.66,0.36,-52.86
1554879749496,-8.944737,0.7224503999999999,3.5284547999999996,0.12570119999999999,0.023435817999999997,0.018109497,3.6,0.06,-52.92
1554879749515,-8.801085,0.6027403,3.4997244,0.22583607,-0.002130529,-0.027696876000000002,3.6,-0.3,-52.98
1554879749536,-8.959103,0.41599256,3.2411506,0.24714136,-0.018109497,-0.039414786,3.54,-0.66,-52.98
1554879749556,-9.054871,0.49739540000000004,3.2363622000000003,0.07350325,0.002130529,-0.027696876000000002,3.54,-1.02,-53.04
1554879749575,-8.767567,0.23882163,3.1597476,-0.11504856,0.034088463,-0.040480047000000005,3.54,-1.38,-53.1
1554879749596,-8.968679,0.26276365,3.5476084,-0.1107875,0.07243799,-0.07243799,3.54,-1.62,-53.1
1554879749615,-9.088389,0.19572599,3.5571851999999997,0.14594123,0.049002163,-0.053263225,3.54,-1.74,-53.1
1554879749635,-9.141062,0.30585927,3.1932666000000003,0.28868666,0.041545313,-0.008522116,3.54,-1.86,-53.1
1554879749656,-9.050082000000002,0.55964464,3.1358056,0.21731395,0.05752428,-0.011717908999999999,3.54,-1.98,-53.1
1554879749675,-8.542512,0.84216046,3.2411506,0.10972224,0.07137272,-0.06178534,3.54,-2.16,-53.1
1554879749695,-8.935161,0.40641573,2.9538465,0.06924219,0.083090626,-0.10333065,3.54,-2.4,-53.1
1554879749716,-9.198523,0.28670564,2.8580782000000005,-0.015978966,0.051132694000000006,-0.08628642,3.54,-2.58,-53.1
1554879749736,-8.978256,0.19093758,2.9203273999999997,-0.03834952,-0.004261058,-0.07776430000000001,3.54,-2.82,-53.1
1554879749756,-8.968679,0.41120413,3.1501707999999997,-0.023435817999999997,-0.008522116,-0.09374327,3.54,-3.06,-53.1
1554879749776,-9.23683,0.31543607,3.4231097999999998,-0.040480047000000005,0.013848438000000001,-0.08841695,3.54,-3.24,-53.1
1554879749795,-9.227253,0.3585317,3.2890346,-0.060720075,0.037284255,-0.07776430000000001,3.54,-3.36,-53.04
1554879749816,-9.23683,0.30585927,3.1693244,-0.013848438000000001,0.037284255,-0.07669904,3.54,-3.42,-53.04
1554879749836,-9.169792,0.20530279,3.09271,0.0053263223,0.04261058,-0.060720075,3.6,-3.48,-53.04
1554879749855,-9.11712,0.25318682,3.1022868,0.022370555,0.03195793,-0.06391586,3.6,-3.36,-52.98
1554879749875,-9.222465,0.39683893,3.0879216,0.015978966,0.027696876000000002,-0.068176925,3.66,-3.24,-52.98
1554879749895,-8.916007,0.42078096,3.1501707999999997,-0.022370555,0.034088463,-0.07456851,3.66,-3.06,-52.98
1554879749916,-9.035717,0.19093758,2.9299042,-0.058589544,0.020240024,-0.07989483,3.72,-2.94,-52.98
1554879749935,-9.126697,0.20051439,3.317765,-0.08948222,0.010652645,-0.07669904,3.72,-2.76,-52.92
1554879749955,-9.088389,0.13347675,3.2028434,-0.05752428,-0.013848438000000001,-0.06498113,3.72,-2.64,-52.92
1554879749976,-9.26556,0.11432313,3.2890346,-0.05219796,-0.00958738,-0.058589544,3.72,-2.52,-52.92
1554879749995,-9.323022,0.40162733,3.6481647000000006,-0.04261058,0.020240024,-0.07669904,3.72,-2.4,-52.92
1554879750015,-8.858546,0.41599256,3.1118636000000004,0.06498113,0.0063915867,-0.10652645,3.72,-2.34,-52.92
1554879750036,-8.935161,0.17178397,3.0879216,0.06285059999999999,0.022370555,-0.04261058,3.72,-2.28,-52.86
1554879750056,-8.743625,0.13347675,3.1262288,-0.05752428,0.011717908999999999,-0.043675844000000005,3.72,-2.28,-52.86
1554879750075,-8.987833,0.11911154,3.068768,-0.10226539,-0.004261058,-0.10439592,3.72,-2.22,-52.86
1554879750096,-9.447519999999999,0.11432313,3.09271,-0.06285059999999999,-0.0063915867,-0.111852765,3.72,-2.22,-52.8
1554879750116,-9.255983,0.10474633,3.1932666000000003,0.06604639400000001,-0.01917476,-0.08948222,3.78,-2.16,-52.8
1554879750135,-8.949525999999999,0.11911154,3.09271,0.10013486,-0.013848438000000001,-0.07456851,3.78,-2.1,-52.74
1554879750155,-9.14585,0.30107087,3.0591912,0.017044231,0.029827405,-0.10226539,3.84,-2.04,-52.68
1554879750175,-9.136273,0.23403321,3.068768,-0.027696876000000002,0.027696876000000002,-0.1107875,3.84,-1.98,-52.62
1554879750195,-9.136273,0.037708677,3.1453824,0.04474111,0.0031957934000000003,-0.08735169,3.9,-1.92,-52.62
1554879750217,-9.131485000000001,0.17657238,3.0113072,0.15339808,-0.026631612000000002,-0.084155895,3.9,-1.92,-52.56
1554879750237,-9.074024,0.21009120000000003,3.2172085999999998,0.12463594,-0.034088463,-0.09161274,3.96,-1.86,-52.56
1554879750257,-9.011775,0.3441665,3.0160956000000003,0.010652645,-0.036218993,-0.10759171,3.96,-1.8,-52.56
1554879750276,-9.021352,0.17178397,3.2363622000000003,-0.10439592,-0.020240024,-0.10546118,3.96,-1.8,-52.56
1554879750296,-8.944737,0.08559271,3.1549592,-0.13954964,-0.018109497,-0.10865697,3.96,-1.8,-52.56
1554879750320,-8.935161,0.04249708,2.9634232999999996,-0.12037488,-0.023435817999999997,-0.11930962,4.02,-1.92,-52.56
1554879750336,-9.083601,-0.0724246,2.9730000000000003,-0.09374327,-0.03195793,-0.12250541,4.02,-1.98,-52.62
1554879750356,-8.959103,0.013766658999999999,3.068768,-0.09054748,-0.03834952,-0.12570119999999999,4.02,-2.04,-52.62
1554879750376,-8.868122999999999,0.05686229,2.9442697,-0.14168017,-0.04474111,-0.13315806,4.02,-2.1,-52.62
1554879750395,-8.614338,0.0712275,3.0304607999999997,-0.24501082,-0.04474111,-0.16192019,3.96,-2.04,-52.62
1554879750415,-8.719683,-0.014963761,2.9442697,-0.35153726,-0.04474111,-0.21944448,3.96,-2.04,-52.62
1554879750435,-8.714894000000001,-0.091578215,3.0639796,-0.42077947,-0.036218993,-0.28122982,3.9,-1.98,-52.62
1554879750456,-8.628703,-0.24959552,3.2076318,-0.44528055,-0.03195793,-0.3174488,3.9,-1.86,-52.62
1554879750476,-8.432379,0.061650693,3.2076318,-0.47510794,-0.03089267,-0.3717773,3.9,-1.44,-52.62
1554879750495,-8.451532,-0.05805939,3.2698810000000003,-0.51665324,-0.0053263223,-0.45486793,3.9,-1.2,-52.62
1554879750515,-8.317456,-0.22086509999999998,3.6194344,-0.56672066,0.06391586,-0.5539375,3.9,-0.6,-52.62
1554879750536,-8.130709,-0.15861586,3.4566288,-0.33449304,0.13528858,-0.7978831000000001,3.9,0.3,-52.56
1554879750555,-8.99741,-0.66139823,2.0871453,-0.30679616,0.060720075,-0.8607336999999999,3.9,0.9,-52.5
1554879750576,-8.944737,-0.83378077,2.0967221,-0.7840345999999999,-0.018109497,-0.8000136,3.9,1.56,-52.44
1554879750596,-8.623915,-1.3796587,1.977012,-1.3283848,-0.12570119999999999,-0.8181231,3.9,2.22,-52.44
1554879750616,-8.437167,-2.0787656,2.307412,-1.7853831999999998,-0.13102753,-0.8543421,3.9,3.18,-52.38
1554879750636,-8.111555000000001,-2.4091654,3.0496144,-1.9355855,-0.15659387,-0.8852348,3.9,4.32,-52.26
1554879750656,-7.551311999999999,-2.5576060000000003,3.3991678,-1.7395768,-0.18748654,-0.9374326999999999,3.9,5.64,-52.2
1554879750676,-7.3549875999999985,-2.6629508,3.6529531000000004,-1.3560816,-0.17150758,-1.0141318000000001,3.78,7.08,-52.02
1554879750695,-7.201759,-2.4139538,3.5284547999999996,-0.84688526,-0.18216023,-1.1451592,3.66,8.64,-51.78
1554879750715,-6.6941880000000005,-2.4953567999999997,3.3991678,-0.28016454,-0.24607609,-1.2868395000000001,3.6,10.32,-51.54
1554879750736,-6.3925184999999995,-3.093907,3.3033997999999998,0.31105720000000003,-0.27377295,-1.4210628,3.42,12.18,-51.3
1554879750756,-6.569689299999999,-3.3859997,3.2794578000000003,0.56459016,-0.27377295,-1.5499597999999999,3.3,13.98,-51.0
1554879750776,-6.445191,-3.3189620000000004,3.2555158,0.67963874,-0.36325517,-1.8130800999999999,3.12,15.42,-50.76
1554879750796,-5.966350599999999,-3.328539,3.221997,0.59761333,-0.46978164,-2.1252027,2.88,16.56,-50.52
1554879750815,-5.899312999999999,-3.793014,3.3943794,0.54435015,-0.4644553,-2.2658174,2.64,17.28,-50.34
1554879750835,-5.837064,-4.64535,3.6481647000000006,0.5187838,-0.48469532,-2.4000409,2.4,17.64,-50.22
1554879750856,-5.434838,-5.478532,4.064756,0.60293967,-0.5113269,-2.5065672,2.1,17.76,-50.22
1554879750876,-5.104438,-5.8903346,3.9306807999999998,0.7105314,-0.52837116,-2.590723,1.68,17.82,-50.16
1554879750895,-4.8506527,-6.579865,4.1413703,0.7861651999999999,-0.51984906,-2.6812706000000004,1.2,17.64,-50.22
1554879750916,-4.7979803,-7.053917,4.308964700000001,0.87138635,-0.5049353,-2.8059065,0.6,17.34,-50.22
1554879750935,-4.9512089999999995,-7.542333999999999,4.601057,1.031176,-0.49428272,-2.8559740000000002,-0.12,17.04,-50.4
1554879750956,-4.8267107000000005,-7.647678999999999,4.6920366,1.1696603,-0.51452273,-2.8655615,-0.72,16.56,-50.7
1554879750975,-4.43885,-7.6668324000000005,4.931457,1.2463594999999998,-0.54435015,-2.871953,-1.38,15.96,-50.94
1554879750995,-4.156333999999999,-7.973290400000001,5.036802,1.2996226999999998,-0.535828,-2.8112328,-2.04,15.3,-51.3
1554879751015,-3.9360676,-8.227076,5.204396,1.3113406,-0.5550028,-2.7153592,-2.7,14.58,-51.66
1554879751036,-3.7349546,-8.557475,5.285799,1.2953615,-0.57417756,-2.6407907,-3.36,13.62,-52.08
1554879751056,-3.466804,-8.45213,5.506065400000001,1.1132014,-0.5997439,-2.5630262000000004,-3.9,12.54,-52.5
1554879751076,-3.1651347000000003,-8.365939,5.7119665,0.88203895,-0.5784385999999999,-2.485262,-4.26,11.28,-52.98
1554879751096,-2.96881,-8.241441,5.9130797,0.6103965,-0.5411543000000001,-2.4106933999999995,-4.62,9.84,-53.4
1554879751116,-2.6910827,-8.227076,5.7454852999999995,0.32490566,-0.51984906,-2.3680830000000004,-4.98,8.46,-53.76
1554879751136,-2.2601264,-8.45213,5.7933699999999995,0.014913702,-0.43675843,-2.2722092000000003,-5.4,7.2,-54.06
1554879751155,-2.0781669999999997,-8.614936,5.999271,-0.21837921,-0.3334278,-2.1827269,-5.88,6.12,-54.36
1554879751175,-1.7429788,-8.715492999999999,6.157287999999999,-0.45593318,-0.22796659,-2.0772657,-6.24,5.16,-54.6
1554879751195,-1.5897499,-8.892664,6.377555,-0.55606806,-0.11611383,-1.9355855,-6.66,4.38,-54.84
1554879751216,-1.4460978999999998,-8.902241,6.2243257000000005,-0.5773733,-0.017044231,-1.8173412,-7.02,3.78,-54.96
1554879751236,-1.2258313,-9.184756,6.0806737,-0.5454154,0.06604639400000001,-1.6959009999999999,-7.38,3.42,-55.02
1554879751256,-1.067814,-8.978855000000001,5.831677,-0.51665324,0.1470065,-1.5488945,-7.68,3.48,-54.96
1554879751276,-1.0534488000000002,-8.998009,5.563526,-0.44634579999999996,0.19174760000000002,-1.4306501,-7.98,3.72,-54.9
1554879751296,-0.8475474000000001,-8.950125,5.5204306,-0.42717105,0.20133498,-1.2836437,-8.16,4.14,-54.84
1554879751316,-0.6943185000000001,-8.796896,5.429451,-0.41971418,0.19068234,-1.1036139999999999,-8.28,4.62,-54.78
1554879751335,-0.50278234,-8.677185,5.4007206,-0.4133226,0.1768339,-0.99069595,-8.28,5.1,-54.72
1554879751356,-0.30166942,-8.72507,5.539584,-0.47617322,0.1438107,-0.82344943,-8.28,5.82,-54.54
1554879751376,-0.095768064,-8.744224,5.5204306,-0.4250405,0.13954964,-0.7073356,-8.22,6.3,-54.42
1554879751395,-0.038307227,-8.854357,5.1996074,-0.30892670000000005,0.094808534,-0.6061354999999999,-8.22,6.78,-54.3
1554879751415,0.17238252,-8.907029,5.089474,-0.29827404,0.060720075,-0.48682585,-8.16,7.02,-54.24
1554879751436,0.30645782,-8.787319,5.218761,-0.3685815,0.022370555,-0.35260254,-8.16,7.74,-54.06
1554879751456,0.33039984,-8.581417,5.319318,-0.45273739999999996,-0.011717908999999999,-0.30253512,-8.1,8.16,-53.88
1554879751476,0.15801731,-8.5862055,5.218761,-0.49002165,-0.051132694000000006,-0.23861924,-8.1,8.58,-53.76
1554879751496,0.36870706,-8.782531,5.462969999999999,-0.5028047999999999,-0.09161274,-0.15126756,-8.04,8.76,-53.7
1554879751516,0.5315128,-8.854357,5.285799,-0.46552056,-0.12357068,-0.04261058,-8.04,9.48,-53.64
1554879751535,0.62249243,-8.911817999999998,5.233126,-0.40266997,-0.15126756,0.007456851,-8.1,10.14,-53.64
1554879751556,0.7278373,-8.907029,5.0559554,-0.30253512,-0.18109496,0.056459017,-8.16,10.74,-53.64
1554879751575,0.8714894,-8.835203,5.1660886,-0.16937704,-0.19174760000000002,0.112918034,-8.22,11.28,-53.64
1554879751597,0.9816226999999998,-8.69155,4.859630999999999,0.012783173500000002,-0.18322548,0.14487597,-8.28,11.7,-53.64
1554879751615,1.0390834999999998,-8.567052,4.706402,0.07456851,-0.17363810000000002,0.15446335,-8.34,12.18,-53.58
1554879751635,1.1252748,-8.409035000000001,4.735132,0.09267801,-0.1470065,0.15446335,-8.46,12.6,-53.52
1554879751655,1.091756,-8.327632000000001,4.6058455,0.07989483,-0.12357068,0.14168017,-8.58,12.96,-53.52
1554879751676,1.1061212,-8.107366,4.4526167,0.07776430000000001,-0.10333065,0.12357068,-8.7,13.26,-53.4
1554879751695,1.1587936,-8.073847,4.5675383,0.07669904,-0.09054748,0.113983296,-8.82,13.32,-53.34
1554879751716,1.1300632,-8.049905,4.3903675,0.05965481,-0.084155895,0.082025364,-8.94,13.38,-53.28
1554879751735,1.2258313,-8.073847,4.4382515,-0.01917476,-0.07563378,0.058589544,-9.0,13.32,-53.22
1554879751755,1.1779473,-8.203134,4.490924,-0.06711166,-0.07243799,0.022370555,-9.06,13.26,-53.16
1554879751776,1.0965444,-8.241441,4.7159786,-0.041545313,-0.07669904,-0.0053263223,-9.12,13.26,-53.22
1554879751795,1.1061212,-8.246229,4.6920366,0.0053263223,-0.07456851,-0.017044231,-9.18,13.2,-53.16
1554879751815,1.0965444,-8.255806,4.553173,0.037284255,-0.08522116,-0.034088463,-9.18,13.14,-53.16
1554879751836,1.1444284,-8.313267,4.529230999999999,0.046871635999999994,-0.09587380000000001,-0.03195793,-9.24,13.08,-53.16
1554879751856,1.0582372,-8.39467,4.6058455,0.02130529,-0.10865697,-0.023435817999999997,-9.24,13.08,-53.16
1554879751876,1.0486604,-8.404246,4.601057,0.0031957934000000003,-0.113983296,-0.026631612000000002,-9.3,13.02,-53.16
1554879751895,1.0007763,-8.380303999999999,4.5914803,0.010652645,-0.11611383,-0.033023197000000004,-9.3,13.02,-53.16
1554879751916,1.0342950999999998,-8.428188,4.4382515,0.033023197000000004,-0.11824436,-0.024501082,-9.36,13.14,-53.16
1554879751936,1.1061212,-8.504802999999999,4.529230999999999,0.023435817999999997,-0.10759171,-0.012783173500000002,-9.42,13.2,-53.16
1554879751956,0.9816226999999998,-8.361151,4.4717703,-0.008522116,-0.101200126,-0.00958738,-9.48,13.26,-53.16
1554879751976,0.93852705,-8.418612,4.4382515,-0.018109497,-0.099069595,-0.0031957934000000003,-9.48,13.26,-53.16
1554879751995,1.067814,-8.4664955,4.313753,-0.013848438000000001,-0.101200126,0.0063915867,-9.54,13.32,-53.16
1554879752015,1.091756,-8.504802999999999,4.56275,-0.0053263223,-0.09374327,0.017044231,-9.6,13.32,-53.16
1554879752035,1.0773908,-8.476072,4.6776714,-0.007456851,-0.09054748,0.03089267,-9.66,13.26,-53.16
1554879752055,1.1540052,-8.485649,4.5148660000000005,-0.004261058,-0.08735169,0.04474111,-9.66,13.2,-53.16
1554879752076,1.1971009,-8.365939,4.466982,-0.0010652645,-0.09267801,0.046871635999999994,-9.72,13.08,-53.16
1554879752095,1.1444284,-8.361151,4.4621935,-0.004261058,-0.099069595,0.034088463,-9.78,13.02,-53.16
1554879752115,1.2449848999999997,-8.413822999999999,4.5100775,-0.034088463,-0.10652645,0.04261058,-9.78,12.9,-53.16
1554879752135,1.316811,-8.437764999999999,4.5100775,-0.039414786,-0.09374327,0.04580637,-9.84,12.84,-53.1
1554879752156,1.1156979999999999,-8.365939,4.5819035,-0.03089267,-0.09054748,0.043675844000000005,-9.84,12.84,-53.04
1554879752176,1.2593501,-8.361151,4.490924,-0.0031957934000000003,-0.08628642,0.03834952,-9.9,12.84,-53.04
1554879752195,1.2114661,-8.370728,4.4286747,0.011717908999999999,-0.08735169,0.041545313,-9.9,12.84,-53.04
1554879752215,1.3263878,-8.365939,4.3807906999999995,-0.012783173500000002,-0.07882957,0.036218993,-9.9,12.9,-52.98
1554879752236,1.3120226000000001,-8.437764999999999,4.5819035,-0.007456851,-0.06498113,0.03195793,-9.96,12.9,-52.98
1554879752256,1.316811,-8.495225999999999,4.577115,0.0053263223,-0.040480047000000005,0.039414786,-9.96,12.9,-52.98
1554879752275,1.3455413999999999,-8.476072,4.419098,0.0,-0.01917476,0.03195793,-10.08,12.9,-52.92
1554879752295,1.3120226000000001,-8.322844,4.6680946,-0.007456851,0.0010652645,0.023435817999999997,-10.14,12.9,-52.92
1554879752316,1.2689268999999999,-8.361151,4.4765587,-0.023435817999999997,0.008522116,0.004261058,-10.26,12.9,-52.92
1554879752335,1.2545617,-8.327632000000001,4.4238862999999995,-0.024501082,0.017044231,-0.004261058,-10.44,12.9,-52.92
1554879752356,1.2066777,-8.385093,4.5100775,-0.02876214,0.022370555,-0.015978966,-10.56,12.9,-52.92
1554879752375,1.2114661,-8.389880999999999,4.5196543,-0.04261058,0.025566347000000003,-0.03089267,-10.68,12.9,-52.92
1554879752396,1.2066777,-8.385093,4.7159786,-0.033023197000000004,0.03089267,-0.034088463,-10.74,12.96,-52.92
1554879752415,1.1156979999999999,-8.4425535,4.624999,-0.020240024,0.039414786,-0.036218993,-10.92,12.96,-52.92
1554879752435,1.1540052,-8.413822999999999,4.5962687,-0.007456851,0.034088463,-0.034088463,-11.04,12.96,-52.92
1554879752455,1.0247183000000002,-8.346786,4.347272,0.022370555,0.029827405,-0.037284255,-11.1,12.96,-52.92
1554879752476,1.0486604,-8.27496,4.2850223,0.04474111,0.010652645,-0.03834952,-11.1,12.96,-52.92
1554879752496,1.0630256,-8.322844,4.308964700000001,0.051132694000000006,0.0031957934000000003,-0.03195793,-11.1,12.96,-52.92
1554879752515,1.0630256,-8.385093,4.280234,0.04261058,-0.0053263223,-0.049002163,-11.1,13.02,-52.98
1554879752536,0.9816226999999998,-8.447341999999999,4.088698,0.029827405,-0.025566347000000003,-0.058589544,-11.04,13.08,-52.98
1554879752556,1.0630256,-8.528744999999999,4.170100700000001,0.040480047000000005,-0.036218993,-0.06391586,-10.92,13.08,-52.92
1554879752575,1.0630256,-8.619724,4.1796775,0.06285059999999999,-0.043675844000000005,-0.07243799,-10.86,13.14,-52.92
1554879752595,1.1875241,-8.758589,4.1844660000000005,0.022370555,-0.051132694000000006,-0.058589544,-10.8,13.14,-52.92
1554879752616,1.0630256,-8.796896,4.4382515,-0.054328485999999995,-0.05752428,-0.05006743,-10.68,13.14,-52.92
1554879752635,0.9768343,-8.835203,4.170100700000001,-0.06711166,-0.07137272,-0.040480047000000005,-10.62,13.2,-52.92
1554879752655,1.0390834999999998,-8.758589,4.4621935,-0.060720075,-0.082025364,0.002130529,-10.56,13.2,-52.92
1554879752676,1.0103531,-8.69155,4.44304,-0.02130529,-0.08948222,0.027696876000000002,-10.5,13.2,-52.92
1554879752696,1.0103531,-8.57184,4.313753,0.012783173500000002,-0.098004326,0.040480047000000005,-10.5,13.2,-52.92
1554879752715,1.0869676000000001,-8.567052,4.4621935,0.039414786,-0.098004326,0.05965481,-10.5,13.2,-52.92
1554879752736,1.1444284,-8.437764999999999,4.466982,0.037284255,-0.10013486,0.068176925,-10.5,13.2,-52.92
1554879752755,1.0965444,-8.409035000000001,4.3329067000000006,0.04474111,-0.099069595,0.06604639400000001,-10.56,13.2,-52.92
1554879752776,1.2114661,-8.4425535,4.4382515,0.054328485999999995,-0.098004326,0.07243799,-10.56,13.2,-52.92
1554879752796,1.2162545,-8.30369,4.3903675,0.049002163,-0.094808534,0.06498113,-10.62,13.2,-52.92
1554879752815,1.3024458,-8.370728,4.419098,0.046871635999999994,-0.08522116,0.05752428,-10.62,13.2,-52.92
1554879752836,1.3263878,-8.385093,4.347272,0.04261058,-0.06498113,0.05219796,-10.68,13.2,-52.92
1554879752855,1.3742718,-8.18398,4.4382515,0.03834952,-0.047936900000000005,0.041545313,-10.68,13.2,-52.92
1554879752875,1.3838485,-8.241441,4.347272,0.010652645,-0.026631612000000002,0.026631612000000002,-10.74,13.2,-52.92
1554879752896,1.3599066,-8.255806,4.3807906999999995,-0.01917476,-0.0063915867,0.008522116,-10.74,13.2,-52.92
1554879752915,1.3742718,-8.212710000000001,4.361637,-0.020240024,0.017044231,-0.018109497,-10.8,13.2,-52.92
1554879752935,1.3694833999999998,-8.222287,4.5148660000000005,-0.010652645,0.040480047000000005,-0.03834952,-10.86,13.2,-52.98
1554879752955,1.3120226000000001,-8.231864,4.347272,-0.002130529,0.06604639400000001,-0.05752428,-10.92,13.2,-53.04
1554879752975,1.3215994,-8.322844,4.5196543,-0.027696876000000002,0.07776430000000001,-0.07243799,-10.98,13.14,-53.04
1554879752996,1.2449848999999997,-8.337209,4.395156,-0.054328485999999995,0.08628642,-0.09587380000000001,-11.04,13.14,-53.1
1554879753015,1.3024458,-8.337209,4.4765587,-0.07882957,0.10546118,-0.13528858,-11.1,13.08,-53.1
1554879753035,1.2497733,-8.361151,4.5675383,-0.07882957,0.12357068,-0.15233281,-11.1,13.02,-53.16
1554879753056,1.13964,-8.447341999999999,4.687248,-0.06498113,0.13422333,-0.14913702,-11.1,13.02,-53.22
1554879753075,0.9768343,-8.428188,4.5196543,-0.035153727999999995,0.14594123,-0.15233281,-11.1,12.96,-53.22
1554879753096,0.9816226999999998,-8.413822999999999,4.4717703,-0.013848438000000001,0.14807177,-0.15765914,-11.1,12.96,-53.22
1554879753115,0.9768343,-8.54311,4.553173,-0.02130529,0.14274544,-0.15552860000000002,-11.1,13.08,-53.22
1554879753136,0.8523358,-8.557475,4.385579,-0.047936900000000005,0.13741912,-0.14487597,-11.1,13.2,-53.28
1554879753156,0.89543146,-8.576628999999999,4.4382515,-0.051132694000000006,0.13422333,-0.128897,-11.1,13.26,-53.28
1554879753176,0.8762778,-8.504802999999999,4.3185415,-0.039414786,0.128897,-0.11504856,-11.1,13.38,-53.28
1554879753196,0.8523358,-8.471283999999999,4.1557355000000005,-0.05219796,0.1107875,-0.10652645,-11.1,13.5,-53.28
1554879753218,0.89543146,-8.5622635,4.2993879999999995,-0.06391586,0.094808534,-0.08628642,-11.04,13.56,-53.28
