TimeStamp,Ax,Ay,Az,Gx,Gy,Gz,Mx,My,Mz
1554880613343,-8.939949,1.0336965,3.4326867999999995,0.42930159999999995,0.2130529,0.45167214,10.92,-12.24,-2.46
1554880613361,-9.107543,0.8182184,3.2076318,0.51665324,0.22050974,0.43356264,10.8,-12.54,-2.28
1554880613382,-8.925583999999999,1.0528502,2.4702177000000005,0.47404268,0.21518342,0.39521313,10.38,-13.26,-1.8
1554880613402,-9.14585,1.1629834,2.321777,0.39627838,0.20559604,0.33981937,10.2,-13.44,-1.62
1554880613421,-9.021352,1.407192,2.5611973,0.34301516,0.08735169,0.32277513,9.84,-13.92,-1.32
1554880613442,-8.700529,1.6992846999999998,3.245939,0.41545314,0.035153727999999995,0.31318775,9.12,-14.7,-0.9
1554880613461,-8.767567,1.7423803,3.1118636000000004,0.5123922000000001,0.022370555,0.25033715,8.88,-14.94,-0.78
1554880613481,-9.016563,1.6753427,2.2307975,0.54435015,0.02876214,0.11717909,8.4,-15.72,-0.42
1554880613504,-8.968679,1.7328035,2.3505075,0.4261058,0.033023197000000004,0.043675844000000005,8.1,-16.14,-0.24
1554880613521,-9.102755,1.4838065,2.2547395,0.35579833,0.0053263223,0.00958738,7.8,-16.32,0.0
1554880613541,-9.150639,1.3210008,2.6378117000000003,0.26312032,0.00958738,0.06498113,7.56,-16.44,0.12
1554880613563,-9.131485000000001,1.0336965,2.9107506,0.23861924,0.008522116,0.12144015,7.38,-16.38,0.24
1554880613582,-9.050082000000002,1.3688848,3.2890346,0.38136467,0.023435817999999997,0.16298546,7.32,-16.26,0.48
1554880613601,-9.064447,1.6705543,2.8485014,0.62744075,-0.020240024,0.16085494,7.38,-16.08,0.78
1554880613621,-9.016563,1.8908207,2.3936029999999997,0.71585774,0.027696876000000002,0.14061491,7.44,-15.9,1.02
1554880613642,-9.193734,1.9626468000000001,2.4079683,0.58056915,0.10652645,0.16085494,7.44,-15.66,1.26
1554880613661,-9.370906,1.6992846999999998,2.3265655,0.45593318,0.17257284,0.21198763,7.38,-15.42,1.5
1554880613681,-9.241617999999999,1.7854759999999998,2.307412,0.49428272,0.13954964,0.24501082,7.38,-15.18,1.74
1554880613702,-9.232041,2.0536265,2.307412,0.63915867,0.09054748,0.221575,7.32,-14.94,1.92
1554880613722,-9.246407000000001,2.4366987,2.3265655,0.6498113,0.098004326,0.22796659,7.26,-14.76,2.04
1554880613741,-9.3421755,2.3936029999999997,1.6274586000000002,0.5635249,0.07669904,0.28016454,7.2,-14.58,2.16
1554880613761,-9.332599,2.307412,2.168548,0.36325517,0.10226539,0.33768883,7.14,-14.4,2.28
1554880613781,-9.255983,2.795829,2.4366987,0.34301516,0.094808534,0.3291667,7.02,-14.22,2.46
1554880613802,-9.078813,2.8341362,1.7040731,0.41758367,0.07989483,0.27057716,6.9,-13.98,2.58
1554880613821,-9.059659,2.5803509,1.6753427,0.3174488,0.08735169,0.26525086,6.72,-13.86,2.76
1554880613841,-9.121908,2.4654293,2.0344729999999998,0.1949434,0.09587380000000001,0.28016454,6.48,-13.8,2.94
1554880613863,-8.949525999999999,2.532467,2.3696610000000002,0.25033715,0.049002163,0.3057309,6.24,-13.74,3.12
1554880613882,-8.6095495,2.9442697,2.168548,0.36325517,0.041545313,0.27590349999999997,6.0,-13.8,3.3
1554880613901,-8.566454,2.8868085999999997,2.0727801,0.39734364,0.07882957,0.22903186,5.7,-13.86,3.48
1554880613921,-8.719683,3.0544027999999996,1.7902644,0.35153726,0.08628642,0.17257284,5.46,-13.86,3.54
1554880613944,-8.494628,3.09271,1.584363,0.25246766,0.07456851,0.09587380000000001,5.22,-13.92,3.6
1554880613961,-8.322245,3.1405939999999997,1.6801311,0.15126756,0.051132694000000006,0.0053263223,5.04,-13.98,3.72
1554880613983,-8.628703,3.0974984,1.9099745,0.07456851,0.08948222,-0.07989483,4.92,-13.98,3.84
1554880614002,-8.628703,2.8820202,1.5747862,0.022370555,0.05219796,-0.11611383,4.86,-14.04,4.08
1554880614021,-8.451532,2.9777883999999997,1.4550761,-0.018109497,0.026631612000000002,-0.19600865,4.86,-14.04,4.26
1554880614042,-8.767567,3.0352492,1.4838065,-0.112918034,0.047936900000000005,-0.28122982,4.8,-14.04,4.44
1554880614061,-8.901641999999999,2.9873652,1.3210008,-0.23542345,0.024501082,-0.3291667,4.8,-14.04,4.62
1554880614081,-8.844180999999999,2.7670987,0.9044097,-0.35579833,-0.015978966,-0.39734364,4.74,-14.04,4.8
1554880614101,-9.002198,2.3648727000000003,1.3162124,-0.572047,0.002130529,-0.42930159999999995,4.62,-14.04,4.98
1554880614121,-9.390058999999999,2.0632033,2.0440497,-0.70840085,0.051132694000000006,-0.34834146,4.5,-14.04,5.1
1554880614142,-9.595961,2.2403743,2.8054059,-0.60720074,0.024501082,-0.257794,4.38,-14.04,5.1
1554880614161,-9.605537,2.1924900000000003,2.9107506,-0.35792887,-0.053263225,-0.23968449999999997,4.32,-14.04,4.98
1554880614181,-9.610325999999999,2.4223334999999997,2.28347,-0.23755397,-0.07989483,-0.19387813,4.26,-13.98,4.86
1554880614201,-9.801862,2.8628666000000003,2.0967221,-0.14594123,-0.07989483,-0.18855181,4.32,-13.92,4.68
1554880614221,-9.327810000000001,2.6282349,1.7184383,-0.068176925,-0.11824436,-0.19707392,4.38,-13.92,4.56
1554880614241,-9.447519999999999,2.417545,2.3265655,-0.18322548,-0.051132694000000006,-0.13315806,4.5,-13.86,4.38
1554880614261,-9.481038999999999,2.154183,2.417545,-0.24501082,-0.034088463,-0.10972224,4.74,-13.8,4.2
1554880614281,-9.279925,1.905186,1.9913772,-0.29507825,-0.04261058,-0.10333065,4.92,-13.74,4.02
1554880614301,-9.404425,1.9387047999999998,1.857302,-0.36218992,-0.05006743,-0.08948222,5.1,-13.74,3.9
1554880614321,-9.394848,2.0967221,2.1493945,-0.32384038,-0.051132694000000006,-0.07669904,5.22,-13.68,3.9
1554880614342,-9.390058999999999,2.2068555,2.3600842999999996,-0.11930962,-0.07776430000000001,-0.024501082,5.4,-13.8,3.84
1554880614361,-9.346964,2.130241,2.355296,0.004261058,-0.08948222,0.0,5.4,-13.86,3.84
1554880614381,-9.337387,2.1398177000000005,2.0871453,0.07989483,-0.07456851,0.0063915867,5.58,-13.98,3.78
1554880614401,-9.275136999999999,2.0967221,2.1924900000000003,0.05539375,-0.06924219,-0.0010652645,5.64,-14.04,3.66
1554880614421,-9.246407000000001,2.235586,2.1972785,0.040480047000000005,-0.05965481,0.0031957934000000003,5.76,-14.16,3.54
1554880614442,-9.423578,2.4319102999999997,2.949058,0.101200126,-0.060720075,0.010652645,5.82,-14.22,3.42
1554880614461,-9.289502,1.881244,2.2307975,0.21944448,-0.03089267,0.03195793,5.82,-14.34,3.3
1554880614481,-8.968679,2.0488381,2.4702177000000005,0.15659387,-0.046871635999999994,0.11611383,5.88,-14.4,3.18
1554880614501,-8.882488,1.9674352,2.3600842999999996,0.12250541,-0.02876214,0.12037488,5.88,-14.46,3.06
1554880614522,-9.02614,2.2547395,1.9339164,0.11717909,-0.04474111,0.07776430000000001,5.88,-14.46,3.0
1554880614541,-9.188946000000001,2.4558525,1.8046296000000002,0.2130529,-0.07989483,0.054328485999999995,5.88,-14.46,2.94
1554880614561,-9.323022,2.8149827000000003,2.0679917000000003,0.28016454,-0.10759171,0.020240024,5.88,-14.46,2.94
1554880614581,-9.232041,2.297835,2.5276785,0.4314321,-0.027696876000000002,-0.053263225,5.82,-14.4,2.94
1554880614601,-8.839393,2.2116439999999997,2.3744495,0.33981937,-0.053263225,-0.023435817999999997,5.82,-14.16,2.94
1554880614622,-8.762777999999999,2.1062990000000004,2.130241,0.07563378,0.03195793,0.027696876000000002,5.82,-13.98,3.0
1554880614641,-8.892064999999999,2.0296845,2.0201077,-0.06285059999999999,0.060720075,0.04261058,5.82,-13.74,3.06
1554880614661,-9.040505,2.1206641,1.6944963,-0.05965481,0.02130529,0.036218993,5.76,-13.56,3.12
1554880614681,-8.944737,2.4558525,2.307412,0.10652645,-0.023435817999999997,0.013848438000000001,5.76,-13.32,3.18
1554880614701,-8.892064999999999,2.5995044999999997,2.1015105,0.19920446,-0.035153727999999995,-0.025566347000000003,5.76,-13.2,3.24
1554880614722,-9.064447,2.532467,1.8477252,0.14487597,-0.02876214,-0.07456851,5.7,-13.08,3.24
1554880614741,-9.112331,2.5276785,1.8189948,-0.07563378,-0.004261058,-0.10226539,5.7,-13.02,3.3
1554880614761,-9.227253,2.484583,2.3361422999999997,-0.24501082,0.014913702,-0.12463594,5.64,-13.08,3.42
1554880614781,-9.121908,2.307412,2.2547395,-0.33981937,-0.012783173500000002,-0.11611383,5.64,-13.2,3.42
1554880614801,-9.155427,2.0679917000000003,2.2307975,-0.35153726,-0.0053263223,-0.10439592,5.64,-13.26,3.48
1554880614821,-9.208099,1.9387047999999998,2.3026235,-0.29933932,-0.027696876000000002,-0.06498113,5.64,-13.32,3.48
1554880614842,-9.165004,2.0679917000000003,2.4319102999999997,-0.15659387,-0.054328485999999995,-0.039414786,5.64,-13.38,3.48
1554880614861,-9.284714,2.0919337,2.3983915000000002,0.047936900000000005,-0.084155895,-0.04580637,5.64,-13.32,3.48
1554880614881,-9.394848,2.2403743,2.379238,0.13741912,-0.07989483,-0.049002163,5.64,-13.32,3.48
1554880614901,-9.255983,2.259528,2.2691047,0.11504856,-0.05752428,-0.036218993,5.64,-13.26,3.48
1554880614921,-9.289502,2.1877017000000003,2.307412,0.03195793,-0.024501082,-0.004261058,5.7,-13.2,3.48
1554880614942,-9.208099,2.2547395,2.3744495,-0.027696876000000002,-0.00958738,0.018109497,5.76,-13.14,3.48
1554880614961,-9.308656,2.297835,2.297835,-0.008522116,-0.0063915867,0.033023197000000004,5.82,-13.08,3.48
1554880614981,-9.088389,2.4941597,2.273893,0.06498113,-0.014913702,0.026631612000000002,5.82,-13.08,3.42
1554880615003,-9.083601,2.417545,2.0775685,0.12144015,-0.025566347000000003,0.004261058,5.88,-13.08,3.48
1554880615021,-9.380483,2.1493945,0.9044097,0.098004326,-0.012783173500000002,0.0,5.88,-13.08,3.48
1554880615041,-10.505757000000001,2.8532897999999998,4.931457,0.44847634,0.22690132,-0.05006743,5.94,-13.08,3.48
1554880615062,-9.648633,1.3162124,2.0440497,0.84688526,0.01917476,0.07456851,6.0,-13.14,3.48
1554880615081,-8.686164,2.0727801,2.7287915000000003,0.6412892,0.15126756,0.29294774,6.0,-13.26,3.54
1554880615101,-8.130709,2.28347,2.498948,0.5944176,0.165116,0.17257284,6.0,-13.32,3.54
1554880615121,-8.054094000000001,2.5995044999999997,1.6226702,0.50813115,0.1587244,0.06178534,6.0,-13.38,3.54
1554880615141,-8.250419,2.3505075,0.99538934,0.33555830000000003,0.07563378,0.068176925,6.0,-13.44,3.6
1554880615161,-8.580819,2.5851393,1.2156559,0.19920446,0.039414786,0.10865697,5.94,-13.44,3.66
1554880615181,-8.470686,2.6521769,0.99060094,0.09267801,-0.041545313,0.01917476,5.94,-13.44,3.78
1554880615201,-8.5473,3.1405939999999997,1.5077485000000002,-0.12570119999999999,-0.05965481,-0.18216023,5.82,-13.44,3.96
1554880615221,-8.762777999999999,3.5380316,1.1438298,-0.23968449999999997,-0.1107875,-0.34940675,5.76,-13.38,4.08
1554880615241,-8.719683,3.2650926,0.9235633,-0.33768883,-0.16724652,-0.44528055,5.7,-13.26,4.14
1554880615262,-8.561666,3.1022868,1.4263457,-0.46125950000000004,-0.17576863,-0.53263223,5.64,-13.2,4.26
1554880615281,-8.212111,2.3122002999999998,1.5508442,-0.58696073,-0.18748654,-0.6775081999999999,5.58,-13.08,4.38
1554880615301,-7.881711999999999,1.5939398,1.8620903000000002,-0.7616641,-0.21411815,-0.80533993,5.52,-12.96,4.44
1554880615321,-7.3645644,1.2826935,2.1398177000000005,-0.9289106,-0.30360037,-0.9044095,5.58,-12.9,4.5
1554880615341,-7.2304892999999995,1.2108675,2.747945,-0.95447695,-0.41545314,-1.0333065000000001,5.7,-12.78,4.5
1554880615363,-7.996633500000001,1.4311341,2.5372553,-0.8831041999999999,-0.48149952,-1.2303803999999998,5.82,-12.66,4.5
1554880615381,-8.0684595,1.1821371,2.1972785,-0.8159926,-0.6061354999999999,-1.4199976,6.0,-12.54,4.38
1554880615401,-7.4842744,0.84216046,2.1206641,-0.77231675,-0.7552725,-1.5350461000000002,6.18,-12.48,4.14
1554880615421,-7.4028716,0.3681085,2.5228900000000003,-0.7105314,-0.91186637,-1.6607473000000001,6.48,-12.42,3.84
1554880615441,-7.8146744,-0.18734628,2.9299042,-0.74675035,-1.0759171,-1.824798,6.84,-12.3,3.42
1554880615462,-8.307879,-0.8098387,3.5476084,-0.9321064,-1.1590078000000001,-1.9441077000000002,7.44,-12.12,3.0
1554880615481,-8.413225,-1.1258733,4.103063,-1.1323761,-1.2122709999999999,-2.0080235,8.16,-11.58,2.58
1554880615501,-7.9248075,-1.6047136999999998,4.11264,-1.2261194,-1.2314457,-2.0698087,9.0,-10.8,2.1
1554880615521,-7.575253999999999,-2.461838,3.7247794,-1.2495551999999999,-1.1952267,-2.1603562999999997,9.96,-9.78,1.5
1554880615541,-7.599196000000001,-2.8927941,3.6481647000000006,-1.257012,-1.171791,-2.1965754,11.04,-8.7,0.78
1554880615561,-7.8290396,-3.769072,3.8588544999999996,-1.2836437,-1.1004181999999998,-2.2658174,12.06,-7.44,0.18
1554880615581,-7.8003089999999995,-4.4059295999999994,4.5675383,-1.2761868,-0.99282646,-2.3126889999999998,13.26,-5.94,-0.36
1554880615602,-7.5321584,-4.836886,4.6537294000000005,-1.1302456,-0.88843054,-2.2977755,14.34,-4.2,-0.9
1554880615621,-7.4363904000000005,-5.2726307,5.146935,-0.9917611999999999,-0.73290193,-2.211489,15.24,-2.28,-1.56
1554880615641,-7.268796400000001,-5.54557,4.9984946,-0.90654004,-0.531567,-2.0996363,15.96,-0.42,-2.22
1554880615661,-7.3885064,-5.9142766,5.175665400000001,-0.8319715,-0.3653857,-2.014415,16.5,1.56,-2.88
1554880615681,-7.3166804,-6.321291,4.8787847,-0.69668293,-0.082025364,-1.8695391,16.92,3.54,-3.42
1554880615704,-7.3310455999999995,-6.795342999999999,5.027225,-0.55606806,0.12996227,-1.7544906000000002,17.34,5.7,-3.72
1554880615721,-7.522581599999999,-6.9342065,4.6297874000000006,-0.42184472,0.27057716,-1.619202,17.7,7.86,-4.08
1554880615741,-7.4699089999999995,-6.9725137,4.490924,-0.33875409999999995,0.34514567,-1.4530207,17.94,10.02,-4.32
1554880615761,-7.359775999999999,-7.231087700000001,4.1653123,-0.3536678,0.36964676,-1.252751,18.12,12.06,-4.44
1554880615782,-7.2352777,-7.211933999999999,4.6154222,-0.37284255,0.386691,-1.051416,18.3,13.98,-4.38
1554880615801,-7.192182000000001,-7.1448965,4.6202106,-0.29507825,0.4101268,-0.9235843,18.48,15.72,-4.2
1554880615821,-7.0820484,-6.938994999999999,4.347272,-0.20133498,0.41225734,-0.8277104999999999,18.66,17.22,-3.96
1554880615842,-6.919242999999999,-6.938994999999999,3.9785647000000006,-0.17789917,0.4101268,-0.69135666,18.78,18.6,-3.72
1554880615861,-6.95755,-7.020397999999999,3.9929300000000003,-0.23222765,0.4016047,-0.5699165,18.84,19.8,-3.36
1554880615881,-7.0820484,-7.077858999999999,3.7295678,-0.28016454,0.37923414,-0.4825648,18.78,21.0,-2.94
1554880615901,-7.273585000000001,-7.140108000000001,3.7726634,-0.26418558,0.3536678,-0.38562572,18.78,22.02,-2.52
1554880615922,-7.110779300000001,-7.1879919999999995,3.6242227999999996,-0.1949434,0.28975195,-0.27590349999999997,18.72,22.86,-2.1
1554880615941,-6.7612257,-7.053917,3.6816837999999996,-0.06604639400000001,0.25246766,-0.13954964,18.66,23.52,-1.74
1554880615961,-6.71813,-6.9102645,3.5045127999999997,0.082025364,0.20133498,-0.03834952,18.6,24.06,-1.44
1554880615982,-6.4787097000000005,-6.824073299999999,3.2794578000000003,0.1587244,0.15446335,0.018109497,18.6,24.48,-1.08
1554880616001,-6.1866174,-6.7522473,3.198055,0.18642128,0.111852765,0.051132694000000006,18.54,24.84,-0.78
1554880616021,-5.9998693,-6.675633,3.1022868,0.16192019,0.07563378,0.07563378,18.48,25.14,-0.36
1554880616041,-5.923255,-6.6516910000000005,3.044826,0.12357068,0.060720075,0.053263225,18.48,25.14,-0.12
1554880616061,-5.837064,-6.675633,2.891597,0.03834952,0.046871635999999994,0.029827405,18.48,25.2,0.18
1554880616081,-5.760449400000001,-6.7761892999999995,2.9394810000000002,-0.06391586,0.04474111,0.0031957934000000003,18.48,25.2,0.42
1554880616101,-5.664681400000001,-6.996455999999999,2.9634232999999996,-0.15233281,0.04580637,-0.02130529,18.48,25.2,0.6
1554880616121,-5.6551046,-6.986878999999999,3.2507273999999997,-0.06604639400000001,0.036218993,-0.0053263223,18.42,25.26,0.72
1554880616142,-5.779603,-6.9150529999999995,3.3608606,0.15126756,0.017044231,-0.017044231,18.36,25.26,0.84
1554880616161,-5.899312999999999,-6.8575919999999995,3.4087446000000003,0.350472,0.004261058,-0.017044231,18.24,25.26,0.96
1554880616181,-5.947197,-6.7043633,3.1405939999999997,0.39627838,-0.015978966,0.0,18.12,25.26,0.84
1554880616201,-5.966350599999999,-6.603807000000001,3.116652,0.34088463,-0.039414786,0.0,18.0,25.32,0.78
1554880616222,-5.889736,-6.5942300000000005,3.3752258,0.27696875,-0.060720075,-0.01917476,17.88,25.26,0.6
1554880616241,-5.861006,-6.536769400000001,3.4231097999999998,0.221575,-0.07563378,-0.04261058,17.76,25.26,0.48
1554880616261,-5.8322754,-6.5511346,3.1932666000000003,0.1438107,-0.083090626,-0.05539375,17.64,25.26,0.36
1554880616281,-5.8322754,-6.7091517000000005,3.3895910000000002,0.018109497,-0.07563378,-0.06391586,17.52,25.2,0.24
1554880616302,-5.899312999999999,-6.7283053,3.3752258,-0.101200126,-0.06498113,-0.07137272,17.58,25.2,0.12
1554880616321,-5.8849480000000005,-6.905475999999999,3.566762,-0.14274544,-0.041545313,-0.07563378,17.58,25.14,0.0
1554880616341,-5.899312999999999,-7.015609700000001,3.5523968,-0.09374327,-0.018109497,-0.07669904,17.64,25.14,-0.06
1554880616361,-5.961562000000001,-6.9150529999999995,3.5859156000000003,0.011717908999999999,0.024501082,-0.06178534,17.7,25.08,-0.06
1554880616381,-6.05733,-7.0874357,3.696049,0.068176925,0.051132694000000006,-0.046871635999999994,17.76,25.08,-0.12
1554880616401,-5.942408599999999,-7.0251865,3.6577415,0.18642128,0.07563378,-0.011717908999999999,17.82,25.14,-0.12
1554880616422,-5.961562000000001,-6.9437833,3.8540661,0.29933932,0.09054748,-0.002130529,17.88,25.14,-0.18
1554880616441,-6.042965000000001,-6.7091517000000005,3.7295678,0.3291667,0.10226539,0.011717908999999999,17.88,25.14,-0.18
1554880616461,-6.143522,-6.570288000000001,3.3560722000000003,0.24714136,0.112918034,0.023435817999999997,17.94,25.2,-0.12
1554880616481,-6.1195793,-6.5846534,3.54282,0.12037488,0.10759171,0.034088463,17.88,25.26,-0.12
1554880616501,-6.2105594,-6.8719573,3.5811272000000005,0.034088463,0.09587380000000001,0.046871635999999994,17.88,25.32,-0.06
1554880616522,-6.1100025,-7.0826473,3.743933,0.036218993,0.07243799,0.058589544,17.88,25.44,0.0
1554880616541,-6.167464,-7.173627000000001,3.6481647000000006,0.10333065,0.043675844000000005,0.07137272,17.88,25.56,0.0
1554880616561,-6.0381765,-7.0970125,3.767875,0.20133498,0.004261058,0.099069595,17.88,25.74,0.06
1554880616582,-6.009446,-6.9581485,3.767875,0.2972088,-0.023435817999999997,0.11717909,17.88,25.86,0.12
1554880616601,-6.009446,-6.666056,3.8540661,0.34301516,-0.037284255,0.1107875,17.88,25.92,0.18
1554880616621,-5.8083334,-6.508039,3.6673183,0.36325517,-0.027696876000000002,0.12357068,17.88,26.04,0.24
1554880616641,-5.693412,-6.3883285999999995,3.8013937000000007,0.37603834,-0.012783173500000002,0.13741912,17.88,26.1,0.3
1554880616661,-5.78918,-6.0291986,3.7726634,0.3685815,0.00958738,0.12676647,17.88,26.1,0.3
1554880616681,-5.7843914000000005,-5.847239,3.6768951000000003,0.34621096,0.029827405,0.11824436,17.88,26.04,0.36
1554880616701,-5.6982,-5.909488,3.8013937000000007,0.29933932,0.05219796,0.111852765,17.88,25.92,0.36
1554880616721,-5.765238,-5.847239,3.6098576,0.2428803,0.07243799,0.08628642,17.88,25.56,0.36
1554880616741,-5.746084,-5.8663926,3.5763388,0.15765914,0.09267801,0.05219796,17.88,25.26,0.36
1554880616762,-5.861006,-5.9238534000000005,3.4518404,0.10439592,0.10013486,0.024501082,17.88,24.84,0.36
1554880616781,-5.8801594,-6.1058129999999995,3.8301241000000004,0.07989483,0.1107875,-0.02130529,17.82,24.48,0.36
1554880616801,-5.9998693,-5.990891,3.8349125,0.06924219,0.10865697,-0.07563378,17.76,24.12,0.36
1554880616822,-6.0716953,-6.1967926,3.7535098,0.014913702,0.096939065,-0.10972224,17.7,23.76,0.42
1554880616841,-6.0764837,-6.215946,3.8253357000000006,-0.053263225,0.06178534,-0.15339808,17.64,23.46,0.48
1554880616861,-6.066907,-6.4266357,3.7343562000000006,-0.07137272,0.026631612000000002,-0.19281286,17.58,23.22,0.6
1554880616881,-6.26802,-6.5846534,4.055179,-0.058589544,-0.024501082,-0.20133498,17.4,23.1,0.78
1554880616901,-6.2153480000000005,-6.642114,4.1078515,-0.0053263223,-0.068176925,-0.19707392,17.22,23.04,0.84
1554880616922,-6.2057709999999995,-6.541558,3.8827964999999995,0.07776430000000001,-0.09587380000000001,-0.18642128,17.16,23.04,0.96
1554880616941,-6.2488665999999995,-6.5990186,4.0934862999999995,0.13954964,-0.113983296,-0.15765914,17.04,22.98,1.08
1554880616961,-6.2105594,-6.570288000000001,4.0216603,0.19707392,-0.13848437,-0.11611383,16.98,22.98,1.14
1554880616981,-6.0716953,-6.4362125,4.0695443,0.27483824,-0.14913702,-0.099069595,16.98,23.04,1.2
1554880617002,-6.0333879999999995,-6.350021400000001,3.9594111000000005,0.30360037,-0.1438107,-0.080960095,16.92,23.28,1.2
1554880617021,-5.875371,-6.2351,3.8061821000000005,0.25885928,-0.13102753,-0.06498113,16.92,23.52,1.2
1554880617041,-5.7939680000000005,-6.335656,4.031237,0.2034655,-0.11717909,-0.056459017,16.98,23.88,1.14
1554880617061,-5.8466406,-6.3548098,4.174889,0.19174760000000002,-0.10546118,-0.07882957,17.1,24.36,1.08
1554880617082,-5.8322754,-6.3021374,4.160524,0.18429075,-0.10333065,-0.10759171,17.22,24.78,0.9
1554880617101,-5.813122,-6.1153900000000005,4.0360255,0.14594123,-0.10226539,-0.12676647,17.28,25.2,0.78
1554880617122,-5.9280434,-6.1249666,4.1892543,0.07669904,-0.1107875,-0.13954964,17.4,25.62,0.66
1554880617141,-5.851429,-6.297349,4.3185415,0.06285059999999999,-0.11930962,-0.13635385,17.46,26.04,0.48
1554880617161,-5.875371,-6.187216,4.3329067000000006,0.113983296,-0.13315806,-0.1470065,17.46,26.4,0.36
1554880617182,-5.947197,-6.081871,4.222773,0.15978967,-0.15020229,-0.14594123,17.52,26.76,0.24
1554880617201,-6.019023000000001,-6.072294,4.2371383,0.13848437,-0.14913702,-0.12037488,17.52,27.06,0.18
1554880617221,-6.0525417,-6.187216,4.103063,0.07989483,-0.14487597,-0.12037488,17.58,27.36,0.12
1554880617241,-6.143522,-6.081871,4.1653123,-0.017044231,-0.13528858,-0.1438107,17.58,27.6,0.12
1554880617264,-6.0381765,-6.215946,4.0360255,-0.1587244,-0.12357068,-0.12463594,17.58,27.78,0.12
1554880617281,-6.143522,-6.249465,4.1317935,-0.21411815,-0.11611383,-0.099069595,17.64,27.96,0.12
1554880617301,-6.1195793,-6.4601545,4.2610803,-0.23435818,-0.10652645,-0.04580637,17.7,28.14,0.06
1554880617322,-6.0908489999999995,-6.579865,4.4382515,-0.19281286,-0.1107875,-0.0031957934000000003,17.7,28.14,0.06
1554880617341,-5.93762,-6.5655,4.3568487000000005,-0.10865697,-0.12144015,0.04261058,17.7,28.14,0.0
1554880617364,-5.760449400000001,-6.4936733,4.217984700000001,-0.022370555,-0.12250541,0.07989483,17.7,28.08,0.0
1554880617381,-5.5497594,-6.359598,4.1222167,-0.002130529,-0.10652645,0.09587380000000001,17.7,28.08,-0.06
1554880617403,-5.5401826,-6.2925606,4.1317935,-0.06285059999999999,-0.06924219,0.096939065,17.7,28.02,-0.06
1554880617421,-5.195418,-6.2925606,4.5340195,-0.14807177,-0.0031957934000000003,0.10013486,17.76,28.02,-0.12
1554880617441,-5.21936,-6.3548098,4.5723267,-0.20133498,0.098004326,0.101200126,17.82,27.96,-0.12
1554880617461,-5.3821654,-6.359598,4.6920366,-0.24074976,0.20026971,0.07776430000000001,17.88,27.9,-0.18
1554880617481,-5.4970870000000005,-6.4840965,4.6633059999999995,-0.2609898,0.29294774,0.06178534,17.94,27.84,-0.24
1554880617501,-5.363012,-6.8097080000000005,4.936245400000001,-0.22690132,0.38242993,0.058589544,18.0,27.84,-0.3
1554880617521,-5.434838,-7.020397999999999,4.888361499999999,-0.12357068,0.47297743,0.054328485999999995,18.12,27.78,-0.36
1554880617541,-5.425261,-7.140108000000001,4.7542860000000005,0.04580637,0.53476274,0.03089267,18.18,27.72,-0.36
1554880617561,-5.4683566,-7.101800999999999,4.759074,0.24181503,0.58909124,0.015978966,18.24,27.66,-0.36
1554880617583,-5.334281400000001,-6.843227000000001,4.5100775,0.38136467,0.63915867,0.012783173500000002,18.24,27.6,-0.36
1554880617602,-5.305551,-6.656479400000001,4.4382515,0.4857606,0.6785734,-0.014913702,18.18,27.48,-0.24
1554880617621,-5.396530599999999,-6.455366000000001,4.217984700000001,0.55606806,0.71159667,-0.06924219,18.06,27.42,-0.06
1554880617641,-5.511451999999999,-6.1489085999999995,4.160524,0.5837649,0.74781567,-0.128897,17.94,27.36,0.12
1554880617661,-5.6982,-6.172850599999999,3.9498343,0.5699165,0.7946873000000001,-0.19920446,17.82,27.3,0.36
1554880617682,-5.923255,-6.168062,3.7774517999999997,0.5613944000000001,0.82557994,-0.26312032,17.58,27.24,0.6
1554880617701,-5.693412,-6.2925606,3.7247794,0.6146576,0.86499476,-0.29507825,17.4,27.24,0.9
1554880617722,-5.8562174,-6.259042,3.7008373999999997,0.7094661,0.9054747999999999,-0.33449304,17.16,27.24,1.26
1554880617741,-5.8849480000000005,-6.3165026,3.6098576,0.77231675,0.9310411,-0.38242993,16.98,27.3,1.8
1554880617762,-5.985504,-6.417059,3.6864722000000003,0.83942837,0.93636745,-0.45167214,16.56,27.72,2.52
1554880617781,-5.995081,-6.699575,3.5045127999999997,0.90654004,0.9321064,-0.52624065,16.26,28.14,3.0
1554880617802,-6.019023000000001,-6.8863225,3.7104141999999998,0.9736517,0.9257148000000001,-0.6114618,15.9,28.62,3.48
1554880617823,-5.932832,-6.8767457,3.470994,1.0130665,0.9310411,-0.660464,15.66,29.16,4.02
1554880617841,-5.837064,-6.900687700000001,3.5093012000000003,1.0567423,0.9406285,-0.70627034,15.36,29.82,4.62
1554880617861,-5.923255,-6.8719573,3.7247794,1.1302456,0.9683254000000001,-0.74461985,15.06,30.6,5.34
1554880617881,-6.191406,-6.8528037,3.5332432000000003,1.1835088,0.99495703,-0.77444726,14.64,31.5,5.94
1554880617902,-6.325481,-6.795342999999999,3.6529531000000004,1.2080098,1.0173275,-0.8032094,14.16,32.52,6.54
1554880617921,-6.5505357,-6.713939999999999,3.5571851999999997,1.2133361999999999,1.0333065000000001,-0.8064051999999999,13.74,33.48,7.14
1554880617941,-6.517017,-6.824073299999999,3.5332432000000003,1.2122709999999999,1.0396981,-0.7861651999999999,13.38,34.44,7.68
1554880617962,-6.3829417,-7.0587053,3.6529531000000004,1.2016183,1.0301107,-0.7286409,12.9,35.52,8.22
1554880617981,-6.172251999999999,-7.0874357,3.4087446000000003,1.2271847,1.0215886,-0.6828345,12.42,36.72,8.64
1554880618001,-6.0860605,-7.116166000000001,3.5045127999999997,1.2591426000000001,1.0077401,-0.66579026,11.76,37.92,9.06
1554880618022,-5.942408599999999,-6.9246297000000006,3.6290112,1.2921658,0.9832390999999999,-0.6498113,11.16,39.12,9.3
1554880618041,-5.803545,-6.747458999999999,3.6433763999999997,1.3486248,0.9672601000000001,-0.6466155,10.5,40.5,9.42
1554880618062,-5.837064,-6.4793080000000005,3.413533,1.3709954,0.95660746,-0.6775081999999999,9.9,41.7,9.48
1554880618081,-5.861006,-6.321291,3.3033997999999998,1.3092101,0.94595486,-0.73290193,9.36,42.9,9.6
1554880618101,-5.78918,-6.369175,3.4039562000000005,1.2175972,0.92997587,-0.79255676,8.82,44.16,9.78
1554880618121,-5.755661,-6.431424,3.518878,1.1536813999999997,0.9353021999999999,-0.85327685,8.28,45.36,9.96
1554880618141,-5.774814599999999,-6.455366000000001,3.447052,1.1323761,0.94808537,-0.9054747999999999,7.74,46.5,10.14
1554880618162,-5.7700260000000005,-6.508039,3.5236663999999998,1.1153319,0.97897804,-0.9321064,7.14,47.64,10.38
1554880618181,-5.875371,-6.4362125,3.470994,1.1462245,1.0237192,-0.9502159,6.6,48.84,10.56
1554880618201,-5.971139,-6.4936733,3.4278982000000005,1.2080098,1.0791129,-0.9736517,6.06,49.86,10.74
1554880618221,-6.0956373,-6.4457892999999995,3.4278982000000005,1.2346416,1.1345067,-0.9864349,5.58,50.88,10.92
1554880618242,-6.143522,-6.618172,3.4087446000000003,1.2271847,1.1835088,-1.0066749,5.04,51.84,11.16
1554880618261,-6.105214,-6.800131299999999,3.518878,1.2080098,1.2357068000000002,-1.0045444,4.38,52.68,11.22
1554880618281,-6.019023000000001,-6.9581485,3.4278982000000005,1.2484899999999999,1.2697952,-0.99069595,3.6,53.46,11.34
1554880618301,-5.975927400000001,-6.986878999999999,3.3273417999999997,1.3124058,1.3081448,-0.98750013,2.7,54.3,11.4
1554880618321,-5.951985400000001,-6.795342999999999,3.413533,1.3187973,1.3283848,-1.0013485999999998,1.68,55.14,11.34
1554880618341,-5.947197,-6.771400999999999,3.4901476000000002,1.2804478000000001,1.3273195,-1.0130665,0.78,56.04,11.28
1554880618362,-6.0381765,-6.848015299999999,3.3608606,1.2484899999999999,1.32945,-1.010936,-0.12,56.94,11.22
1554880618381,-5.971139,-6.83365,3.5954924,1.2420983,1.3177321000000002,-1.026915,-0.96,57.72,11.16
1554880618401,-6.019023000000001,-6.8671690000000005,3.6002807999999997,1.2740563,1.3028183999999998,-1.0791129,-1.74,58.62,11.04
1554880618421,-6.0764837,-6.962936999999999,3.7056258,1.3134711000000001,1.2825783000000002,-1.128115,-2.58,59.58,10.8
1554880618442,-5.913678,-7.1065892999999996,3.8492777,1.365669,1.2612731000000001,-1.1547466999999998,-3.54,60.6,10.5
1554880618461,-5.841851999999999,-7.0251865,3.743933,1.3933659,1.2474246999999998,-1.1824435,-4.38,61.5,10.14
1554880618481,-5.813122,-6.800131299999999,3.6864722000000003,1.3550163999999998,1.2367721,-1.2048141,-5.22,62.34,9.72
1554880618502,-5.875371,-6.4457892999999995,3.6242227999999996,1.2623383999999997,1.2133361999999999,-1.2069446000000001,-6.12,63.12,9.18
1554880618521,-5.861006,-6.431424,3.5954924,1.1547466999999998,1.180313,-1.2090752,-7.2,63.84,8.46
1554880618541,-5.8705826,-6.5271926,3.8301241000000004,1.0972224,1.1632688,-1.2016183,-8.46,64.62,7.74
1554880618561,-5.8226986,-6.666056,3.5523968,1.1036139999999999,1.1451592,-1.1930962,-9.78,65.34,7.02
1554880618581,-5.7843914000000005,-6.541558,3.5763388,1.1291803,1.144094,-1.164334,-11.1,65.94,6.24
1554880618601,-5.693412,-6.642114,3.4326867999999995,1.1568771999999998,1.1249193000000002,-1.128115,-12.72,66.66,5.22
1554880618621,-5.731719,-6.627749000000001,3.6098576,1.1824435,1.1068097,-1.1110708999999999,-13.56,67.08,4.32
1554880618641,-5.722142,-6.848015299999999,3.4662056000000003,1.1920309,1.0695255,-1.0876350000000001,-14.46,67.38,3.6
1554880618661,-5.717354,-6.8144965,3.3991678,1.144094,1.0365024,-1.0663296999999998,-15.36,67.5,3.0
1554880618681,-5.674258,-6.7426705,3.365649,1.055677,0.99921805,-1.0418286,-16.2,67.62,2.34
1554880618701,-5.60722,-6.713939999999999,3.5332432000000003,0.9289106,0.9683254000000001,-1.0013485999999998,-17.04,67.68,1.68
1554880618721,-5.530606,-6.785766000000001,3.8109705000000003,0.79894835,0.92997587,-0.95447695,-17.82,67.68,0.96
1554880618741,-5.592855,-6.938994999999999,3.7582982000000005,0.71479243,0.9033443000000001,-0.91186637,-18.6,67.68,0.06
1554880618762,-5.535394,-6.8719573,4.0216603,0.6764429,0.8852348,-0.87138635,-19.32,67.62,-0.9
1554880618781,-5.631162000000001,-6.785766000000001,3.9737763,0.6764429,0.86392945,-0.8404937,-20.04,67.56,-1.68
1554880618801,-5.645528,-6.689997999999999,3.9833531000000004,0.680704,0.84688526,-0.8181231,-20.76,67.44,-2.58
1554880618821,-5.559336,-6.5607114,4.0695443,0.6711166000000001,0.82557994,-0.7946873000000001,-21.48,67.32,-3.48
1554880618841,-5.521029,-6.5750766,4.208408,0.65513766,0.81918836,-0.77125144,-22.14,67.14,-4.5
1554880618861,-5.645528,-6.3979053,3.9211037,0.6146576,0.8042746999999999,-0.7701861999999999,-22.68,66.9,-5.52
1554880618882,-5.726930599999999,-6.215946,3.9211037,0.5368933000000001,0.7840345999999999,-0.76485986,-23.22,66.6,-6.54
1554880618901,-5.78918,-6.330868,3.9737763,0.43036684,0.7488809000000001,-0.753142,-23.7,66.3,-7.44
1554880618921,-5.9041014,-6.455366000000001,3.9737763,0.34088463,0.7105314,-0.7488809000000001,-24.24,66.0,-8.22
1554880618941,-5.899312999999999,-6.5511346,4.0120835,0.30360037,0.6679208000000001,-0.7392935,-24.78,65.64,-9.0
1554880618961,-6.0046577,-6.7283053,4.1222167,0.34088463,0.6178534000000001,-0.69029135,-25.26,65.22,-9.72
1554880618981,-6.0525417,-6.7283053,3.9594111000000005,0.3898868,0.5656554,-0.6508765999999999,-25.56,64.74,-10.38
1554880619006,-6.023811299999999,-6.7043633,3.8780080999999997,0.4101268,0.5251754,-0.6114618,-25.92,64.14,-10.86
1554880619022,-5.9041014,-6.5846534,4.0264487,0.4048005,0.4644553,-0.5432849000000001,-26.34,63.42,-11.34
1554880619041,-5.731719,-6.4026937,3.9641995000000003,0.38029942,0.4016047,-0.47191215,-26.7,62.52,-11.82
1554880619061,-5.659893,-6.330868,3.9258924,0.3206446,0.34194988,-0.40373522,-27.18,61.68,-12.24
1554880619081,-5.5258174,-6.4457892999999995,3.887585,0.23968449999999997,0.29614353,-0.33768883,-27.6,60.78,-12.6
1554880619101,-5.3725886,-6.5846534,3.887585,0.14913702,0.25033715,-0.2908172,-27.9,60.0,-12.96
1554880619121,-5.3007627,-6.9102645,4.0216603,0.10333065,0.22583607,-0.23542345,-28.2,59.28,-13.32
1554880619142,-5.114014599999999,-7.2454529999999995,3.9402574999999995,0.1438107,0.21518342,-0.16831179,-28.44,58.68,-13.68
1554880619161,-5.027823400000001,-7.527969000000001,4.0599675,0.23542345,0.23009712,-0.10652645,-28.68,58.14,-14.04
1554880619181,-4.783615,-7.6907744000000005,4.079121,0.35153726,0.26525086,-0.056459017,-28.8,57.78,-14.4
1554880619201,-4.7357309999999995,-7.7626004,4.1796775,0.45593318,0.32277513,-0.026631612000000002,-28.92,57.66,-14.7
1554880619221,-4.501099,-7.8104844,4.136582,0.5411543000000001,0.39840892,-0.033023197000000004,-28.92,57.6,-15.06
1554880619242,-4.548983,-7.671621000000001,4.3999443,0.59761333,0.4889564,-0.068176925,-28.98,57.48,-15.36
1554880619261,-4.5681367,-7.484873299999999,4.6154222,0.6125271,0.57311225,-0.12570119999999999,-29.04,57.36,-15.66
1554880619281,-4.572925,-7.1353197,4.8979383,0.58696073,0.64341974,-0.18748654,-29.04,57.24,-15.96
1554880619301,-4.6686935,-6.8097080000000005,5.0320134,0.5134575,0.70627034,-0.27483824,-29.1,57.12,-16.26
1554880619322,-4.8745947,-6.4218473,5.0798974,0.35792887,0.7435546,-0.36645097,-29.1,56.94,-16.68
1554880619341,-5.0421886,-6.1249666,5.0846860000000005,0.17470337,0.76912093,-0.42290998,-29.16,56.76,-17.04
1554880619361,-5.272032299999999,-6.000468,4.835689,0.083090626,0.77870834,-0.45380265,-29.16,56.64,-17.52
1554880619382,-5.4779334,-6.0244102,4.5675383,0.022370555,0.74781567,-0.46978164,-29.16,56.58,-18.06
1554880619401,-5.6551046,-6.369175,4.3903675,-0.036218993,0.7052050999999999,-0.46125950000000004,-29.1,56.52,-18.66
1554880619421,-5.966350599999999,-6.541558,4.3185415,0.05006743,0.6487460999999999,-0.42397526,-29.04,56.46,-19.26
1554880619441,-5.985504,-6.7905545,4.23235,0.24927188,0.59228706,-0.36005938,-28.98,56.4,-19.8
1554880619461,-6.047753299999999,-6.8097080000000005,3.8684312999999997,0.47617322,0.5496765,-0.29827404,-28.92,56.34,-20.34
1554880619482,-5.932832,-6.6852098,3.6625300000000003,0.6540724,0.5028047999999999,-0.23755397,-28.8,56.28,-21.0
1554880619501,-6.0333879999999995,-6.345233,3.5476084,0.67218184,0.48682585,-0.19068234,-28.74,56.28,-21.18
1554880619521,-5.932832,-6.407482,3.4422636,0.5933523,0.46019423,-0.12037488,-28.68,56.04,-21.54
1554880619541,-6.0956373,-6.311714,3.4183214,0.39627838,0.43569317,-0.07989483,-28.56,55.56,-22.14
1554880619562,-6.2105594,-6.172850599999999,3.6529531000000004,0.21518342,0.40373522,-0.06604639400000001,-28.5,55.2,-22.5
1554880619581,-6.349423000000001,-6.4745197,3.5332432000000003,0.054328485999999995,0.36964676,-0.025566347000000003,-28.5,54.84,-22.98
1554880619601,-6.2967505,-6.546346,3.566762,-0.06285059999999999,0.32277513,0.010652645,-28.44,54.48,-23.4
1554880619621,-6.277597,-6.680421400000001,3.7104141999999998,-0.10013486,0.27483824,0.041545313,-28.38,54.12,-23.82
1554880619642,-6.26802,-6.7283053,3.8013937000000007,-0.09374327,0.21518342,0.094808534,-28.38,53.82,-24.24
1554880619661,-6.3446345,-6.541558,3.887585,-0.10972224,0.14061491,0.16192019,-28.32,53.58,-24.6
1554880619682,-6.2584434,-6.4218473,3.7774517999999997,-0.14274544,0.06924219,0.23116238,-28.32,53.52,-24.84
1554880619701,-6.1770406,-6.4601545,3.8540661,-0.14913702,-0.007456851,0.2876214,-28.32,53.46,-24.96
1554880619722,-6.143522,-6.3165026,4.0120835,-0.128897,-0.07350325,0.3323625,-28.26,53.52,-25.02
1554880619741,-6.114791,-6.2925606,4.064756,-0.11717909,-0.12463594,0.36218992,-28.26,53.7,-25.08
1554880619762,-5.990292500000001,-6.311714,4.0120835,-0.12570119999999999,-0.16085494,0.37071204,-28.2,53.88,-25.14
1554880619781,-5.9567738,-6.3548098,4.1461587,-0.13741912,-0.18109496,0.3536678,-28.02,54.12,-25.14
1554880619802,-5.899312999999999,-6.570288000000001,4.103063,-0.14274544,-0.18748654,0.3334278,-27.72,54.42,-25.02
1554880619822,-5.803545,-6.6516910000000005,4.136582,-0.13209279,-0.18216023,0.3206446,-27.48,54.66,-24.84
1554880619841,-5.7029886,-6.7905545,4.117428299999999,-0.11930962,-0.18216023,0.31851408,-27.24,54.96,-24.66
1554880619861,-5.616797,-6.7570357,4.256292,-0.098004326,-0.18642128,0.3291667,-27.0,55.26,-24.42
1554880619882,-5.60722,-6.689997999999999,4.117428299999999,-0.06924219,-0.19600865,0.33555830000000003,-26.76,55.62,-24.12
1554880619901,-5.559336,-6.4505777,4.2993879999999995,-0.06498113,-0.18429075,0.34834146,-26.52,55.98,-23.88
1554880619922,-5.463568,-6.282984,4.4143095,-0.04261058,-0.15765914,0.350472,-26.28,56.28,-23.7
1554880619941,-5.511451999999999,-6.225523,4.4861355000000005,0.0063915867,-0.12570119999999999,0.31851408,-26.1,56.58,-23.46
1554880619962,-5.5737014,-6.297349,4.4143095,0.039414786,-0.099069595,0.2727077,-25.98,56.88,-23.34
1554880619981,-5.66947,-6.282984,4.3664255,0.026631612000000002,-0.07456851,0.23329292,-25.8,57.12,-23.22
1554880620002,-5.6551046,-6.3404446,4.3999443,-0.012783173500000002,-0.06711166,0.19920446,-25.62,57.42,-23.1
1554880620021,-5.535394,-6.3021374,4.2945995,-0.037284255,-0.07989483,0.17363810000000002,-25.44,57.6,-23.04
1554880620041,-5.4922986,-6.2446766,4.4621935,-0.024501082,-0.08735169,0.17044231,-25.26,57.78,-22.86
1554880620061,-5.4970870000000005,-6.067506,4.2275615,0.0063915867,-0.08522116,0.15659387,-25.14,57.9,-22.74
1554880620081,-5.659893,-6.0387754000000005,4.103063,0.037284255,-0.07563378,0.15978967,-24.96,57.96,-22.62
1554880620101,-5.5401826,-6.282984,4.1557355000000005,0.09054748,-0.05965481,0.18109496,-24.96,57.96,-22.5
1554880620121,-5.430049400000001,-6.206369400000001,4.1796775,0.18855181,-0.027696876000000002,0.1768339,-24.96,57.84,-22.38
1554880620143,-5.363012,-5.957372,4.1270050000000005,0.25566345,0.007456851,0.14168017,-24.96,57.78,-22.32
1554880620161,-5.544971,-5.7945666,3.6529531000000004,0.23116238,0.03834952,0.10865697,-24.96,57.6,-22.32
1554880620182,-5.583278,-5.957372,3.6242227999999996,0.12463594,0.05006743,0.07243799,-24.96,57.48,-22.26
1554880620201,-5.5976434,-6.1967926,3.8780080999999997,0.026631612000000002,0.05539375,0.034088463,-24.96,57.3,-22.26
1554880620221,-5.5545480000000005,-6.4457892999999995,3.9785647000000006,-0.011717908999999999,0.049002163,0.0031957934000000003,-24.96,57.24,-22.32
1554880620242,-5.7029886,-6.4505777,4.1413703,-0.06285059999999999,0.056459017,-0.018109497,-24.96,57.24,-22.5
1554880620261,-5.731719,-6.5511346,4.0695443,-0.112918034,0.06924219,-0.034088463,-24.9,57.42,-22.68
1554880620282,-5.722142,-6.8719573,4.347272,-0.21518342,0.098004326,-0.060720075,-24.84,57.72,-22.8
1554880620301,-5.7125654,-6.9581485,4.5483847,-0.24607609,0.1438107,-0.058589544,-24.84,57.96,-22.92
1554880620321,-5.7987566,-7.029975,4.538808,-0.17576863,0.22690132,-0.10546118,-24.66,58.44,-22.92
1554880620341,-6.023811299999999,-7.044339999999999,4.524442700000001,-0.09587380000000001,0.30040458,-0.1768339,-24.6,58.74,-22.98
1554880620363,-6.0764837,-6.9916677,4.601057,-0.02130529,0.35579833,-0.22370553,-24.54,58.92,-22.98
1554880620381,-6.1387334000000005,-6.843227000000001,4.586692,0.12037488,0.45167214,-0.28016454,-24.42,59.28,-22.8
1554880620401,-6.244078,-6.6947865,4.447828299999999,0.25992453,0.52624065,-0.32170987,-24.36,59.34,-22.62
1554880620421,-6.1100025,-6.4840965,4.32333,0.38349520000000004,0.58909124,-0.3206446,-24.3,59.28,-22.5
1554880620444,-6.1866174,-6.321291,3.9402574999999995,0.4889564,0.6487460999999999,-0.28868666,-24.24,59.1,-22.38
1554880620461,-6.277597,-6.019622,3.5332432000000003,0.5773733,0.6892261,-0.25246766,-24.18,58.92,-22.44
1554880620481,-6.349423000000001,-5.9477954,3.1836896,0.6327670999999999,0.70200926,-0.20985709,-24.12,58.68,-22.68
1554880620501,-6.2345014,-6.0291986,2.891597,0.65726817,0.6945524000000001,-0.17470337,-24.06,58.5,-23.04
1554880620521,-6.2249246,-6.0531406,2.795829,0.6711166000000001,0.69348717,-0.165116,-24.0,58.26,-23.4
1554880620541,-6.172251999999999,-6.0770826,2.5803509,0.69135666,0.6988135,-0.21411815,-23.88,58.02,-23.82
1554880620561,-6.272808599999999,-5.8041434,2.3361422999999997,0.6679208000000001,0.68389976,-0.2790993,-23.76,57.78,-24.3
1554880620582,-6.483498,-5.593454,2.3409307,0.567786,0.6849651,-0.30999196,-23.64,57.54,-24.78
1554880620602,-6.5026517,-5.7083755,2.4558525,0.4101268,0.6679208000000001,-0.34301516,-23.46,57.18,-25.26
1554880620621,-6.6606693,-5.7754129999999995,2.4893713,0.24607609,0.65513766,-0.39095205,-23.34,56.88,-25.74
1554880620641,-6.6989765,-5.9238534000000005,2.5228900000000003,0.12250541,0.62317973,-0.43356264,-23.22,56.52,-26.22
1554880620661,-6.8569937,-6.2446766,2.867655,0.056459017,0.5795039000000001,-0.46125950000000004,-23.1,56.16,-26.76
1554880620682,-7.038953,-6.4793080000000005,3.0639796,0.017044231,0.5091964,-0.49321744,-22.98,55.68,-27.18
1554880620701,-7.2209125,-6.512827400000001,3.3273417999999997,0.013848438000000001,0.46552056,-0.48469532,-22.92,55.08,-27.6
1554880620721,-7.2113357,-6.5271926,3.2986114,0.02130529,0.41758367,-0.43036684,-22.86,54.6,-28.02
1554880620741,-7.431602000000001,-6.6085954,3.7104141999999998,0.039414786,0.37816888,-0.37071204,-22.86,54.24,-28.38
1554880620761,-7.513005000000001,-6.5942300000000005,3.6673183,0.10333065,0.3270362,-0.30360037,-22.86,54.0,-28.74
1554880620781,-7.441178999999999,-6.627749000000001,3.6816837999999996,0.2066613,0.29614353,-0.20985709,-22.86,53.76,-28.98
1554880620802,-7.3214690000000004,-6.546346,3.447052,0.35260254,0.28655612,-0.113983296,-22.92,53.58,-29.1
1554880620821,-7.216124000000001,-6.187216,3.2028434,0.49321744,0.2908172,-0.026631612000000002,-22.92,53.46,-29.16
1554880620841,-7.134721300000001,-5.895123,2.7335799,0.5581986,0.29507825,0.043675844000000005,-22.92,53.4,-29.22
1554880620861,-7.0341644,-5.919065,2.594716,0.5134575,0.2972088,0.09374327,-22.98,53.4,-29.34
1554880620881,-6.9862804,-5.8903346,2.417545,0.39947417,0.27164245,0.10439592,-22.98,53.28,-29.52
1554880620902,-7.077260000000001,-5.861604,2.3744495,0.28549087,0.23755397,0.10226539,-22.98,53.22,-29.76
1554880620921,-7.005433999999999,-5.875969400000001,2.4510639,0.17363810000000002,0.19068234,0.11930962,-22.92,53.04,-30.06
1554880620941,-6.900089299999999,-5.990891,2.355296,0.03834952,0.12783173,0.13635385,-22.8,52.8,-30.36
1554880620961,-6.742072,-6.120178,2.3888147,-0.06711166,0.05752428,0.14061491,-22.68,52.62,-30.66
1554880620981,-6.6415157,-6.0291986,2.5995044999999997,-0.11504856,-0.020240024,0.12463594,-22.56,52.38,-30.9
1554880621001,-6.612785000000001,-6.091448000000001,2.6569653,-0.13528858,-0.101200126,0.098004326,-22.38,52.14,-31.14
1554880621021,-6.569689299999999,-5.9621606,2.6426,-0.15978967,-0.17257284,0.09267801,-22.26,51.96,-31.32
1554880621041,-6.775591,-6.0387754000000005,2.7910407000000004,-0.19813919,-0.24927188,0.08735169,-22.08,51.84,-31.5
1554880621061,-6.71813,-6.259042,2.8820202,-0.21837921,-0.330232,0.03834952,-21.96,51.78,-31.56
1554880621082,-6.655881,-6.455366000000001,2.9538465,-0.18002969,-0.37071204,-0.008522116,-21.78,51.84,-31.5
1554880621101,-6.555324000000001,-6.618172,3.2507273999999997,-0.10333065,-0.40906155,-0.041545313,-21.66,52.08,-31.44
1554880621121,-6.4020953,-6.747458999999999,3.470994,-0.017044231,-0.42717105,-0.06285059999999999,-21.6,52.32,-31.38
1554880621142,-6.4020953,-6.6085954,3.5859156000000003,0.041545313,-0.4282363,-0.08948222,-21.54,52.62,-31.32
1554880621161,-6.445191,-6.531981,3.7582982000000005,0.04261058,-0.42397526,-0.13848437,-21.48,52.98,-31.26
1554880621181,-6.430825700000001,-6.225523,3.696049,-0.04261058,-0.41864893,-0.18642128,-21.36,53.34,-31.2
1554880621201,-6.411672,-6.168062,3.887585,-0.15446335,-0.38136467,-0.21198763,-21.36,53.7,-31.14
1554880621222,-6.4212489999999995,-6.273407,3.9929300000000003,-0.2034655,-0.34408042,-0.21411815,-21.36,53.94,-31.08
1554880621241,-6.430825700000001,-6.311714,3.9881415000000002,-0.20985709,-0.3153183,-0.21731395,-21.48,54.12,-31.02
1554880621261,-6.631939,-6.512827400000001,4.007295,-0.128897,-0.2790993,-0.21092236,-21.72,54.24,-31.02
1554880621281,-6.6415157,-6.536769400000001,3.8349125,-0.0053263223,-0.25246766,-0.165116,-21.9,54.24,-30.9
1554880621302,-6.430825700000001,-6.6516910000000005,3.8827964999999995,0.17044231,-0.23542345,-0.10865697,-22.08,54.18,-30.84
1554880621321,-6.2345014,-6.4362125,3.7726634,0.29827404,-0.21518342,-0.07350325,-22.2,54.18,-30.78
1554880621343,-6.1387334000000005,-6.158485400000001,3.614646,0.43569317,-0.19387813,-0.017044231,-22.44,54.12,-30.6
1554880621362,-6.042965000000001,-5.885546,3.5476084,0.43782368,-0.18216023,0.029827405,-22.74,54.0,-30.54
1554880621381,-5.875371,-5.828085400000001,3.6433763999999997,0.37603834,-0.18002969,0.051132694000000006,-22.98,53.88,-30.42
1554880621401,-5.8226986,-5.8328739999999994,3.7630866000000003,0.30466563,-0.18855181,0.036218993,-23.22,53.76,-30.3
1554880621422,-5.722142,-5.727529,3.7582982000000005,0.20240025,-0.22477080000000002,-0.002130529,-23.4,53.52,-30.24
1554880621441,-5.6790465999999995,-6.005256,3.9211037,0.1107875,-0.26205507,-0.027696876000000002,-23.58,53.28,-30.24
1554880621461,-5.5401826,-6.187216,3.6481647000000006,0.04474111,-0.28975195,-0.054328485999999995,-23.7,53.04,-30.24
1554880621482,-5.521029,-6.067506,3.8492777,-0.004261058,-0.294013,-0.09054748,-23.88,52.8,-30.3
1554880621501,-5.5401826,-5.957372,3.9833531000000004,-0.043675844000000005,-0.2876214,-0.1107875,-24.0,52.62,-30.36
1554880621522,-5.683835,-6.0387754000000005,4.031237,-0.084155895,-0.26631612,-0.14913702,-24.0,52.44,-30.42
1554880621541,-5.961562000000001,-6.1249666,4.170100700000001,-0.17896444,-0.22690132,-0.22050974,-24.0,52.32,-30.48
1554880621562,-6.0142345,-6.306926,4.409521,-0.28549087,-0.21092236,-0.26312032,-23.94,52.2,-30.48
1554880621581,-6.105214,-6.541558,4.4957123,-0.32384038,-0.19068234,-0.24607609,-23.94,52.2,-30.54
1554880621601,-5.995081,-6.7330937,4.524442700000001,-0.2790993,-0.19174760000000002,-0.22050974,-24.0,52.2,-30.54
1554880621621,-6.047753299999999,-6.7187285,4.5819035,-0.21411815,-0.18748654,-0.2034655,-24.18,52.2,-30.54
1554880621642,-6.0621184999999995,-6.680421400000001,4.371214,-0.14594123,-0.19920446,-0.17789917,-24.42,52.26,-30.54
1554880621661,-5.951985400000001,-6.579865,4.490924,-0.12570119999999999,-0.2066613,-0.15339808,-24.72,52.26,-30.48
1554880621682,-5.8179099999999995,-6.4026937,4.0599675,-0.08948222,-0.24181503,-0.12250541,-24.96,52.32,-30.48
1554880621701,-5.6551046,-6.311714,4.117428299999999,-0.06604639400000001,-0.27377295,-0.094808534,-25.26,52.32,-30.36
1554880621722,-5.5018754,-6.096236,3.8827964999999995,-0.043675844000000005,-0.29188246,-0.06604639400000001,-25.5,52.32,-30.24
1554880621742,-5.568912999999999,-5.9717374,3.9306807999999998,-0.046871635999999994,-0.29827404,-0.034088463,-25.74,52.38,-30.12
1554880621761,-5.645528,-6.019622,3.7822402000000004,-0.08522116,-0.30253512,-0.0010652645,-25.98,52.38,-30.0
1554880621785,-5.592855,-6.2446766,3.8732197,-0.18535602,-0.28122982,0.020240024,-26.04,52.44,-29.76
1554880621801,-5.5641245999999995,-6.4026937,3.7199910000000003,-0.24714136,-0.2727077,0.017044231,-26.04,52.44,-29.7
1554880621821,-5.487509999999999,-6.541558,3.9785647000000006,-0.294013,-0.24501082,0.033023197000000004,-26.1,52.44,-29.52
1554880621841,-5.291186,-6.824073299999999,4.11264,-0.31318775,-0.21518342,0.051132694000000006,-26.22,52.44,-29.34
1554880621861,-5.2145715,-6.9820905,4.2371383,-0.33662358,-0.20133498,0.043675844000000005,-26.28,52.44,-29.22
1554880621882,-5.3103394999999995,-7.0012445,4.3329067000000006,-0.36112466,-0.18961707,0.026631612000000002,-26.34,52.44,-29.16
1554880621901,-5.2002063,-7.029975,4.5435963,-0.36112466,-0.19068234,0.0063915867,-26.4,52.44,-28.98
1554880621921,-5.1666875,-6.9342065,4.5675383,-0.33555830000000003,-0.2130529,-0.023435817999999997,-26.46,52.44,-28.86
1554880621942,-5.1523223,-7.020397999999999,4.466982,-0.26631612,-0.23861924,-0.053263225,-26.52,52.44,-28.74
1554880621962,-5.2289367,-6.8719573,4.3760023,-0.18855181,-0.2609898,-0.08735169,-26.64,52.44,-28.56
1554880621982,-5.2002063,-6.900687700000001,4.2850223,-0.13209279,-0.26418558,-0.12250541,-26.7,52.5,-28.38
1554880622001,-5.2145715,-6.6085954,4.222773,-0.12570119999999999,-0.26525086,-0.15233281,-26.82,52.5,-28.14
1554880622021,-5.2385135,-6.5607114,4.1270050000000005,-0.165116,-0.26844665,-0.17150758,-27.3,52.32,-27.9
1554880622042,-5.3390699999999995,-6.5990186,3.9833531000000004,-0.22264028,-0.2727077,-0.17363810000000002,-27.72,52.08,-27.72
1554880622061,-5.3486465999999995,-6.656479400000001,4.2131963,-0.3057309,-0.26631612,-0.16937704,-28.08,51.78,-27.54
1554880622081,-5.415684,-6.843227000000001,4.217984700000001,-0.36432046,-0.24501082,-0.1438107,-28.5,51.48,-27.3
1554880622101,-5.430049400000001,-7.0634937,4.1844660000000005,-0.37071204,-0.22370553,-0.10865697,-28.86,51.3,-27.06
1554880622121,-5.343858200000001,-7.2454529999999995,4.23235,-0.33555830000000003,-0.19387813,-0.06178534,-29.16,51.18,-26.76
1554880622142,-5.334281400000001,-7.484873299999999,4.103063,-0.28442562,-0.16298546,-0.004261058,-29.4,51.12,-26.4
1554880622161,-5.243302,-7.5136037,4.0025067000000005,-0.23968449999999997,-0.14061491,0.06285059999999999,-29.46,51.24,-26.04
1554880622181,-5.104438,-7.355586,4.337695,-0.14168017,-0.13954964,0.10226539,-29.52,51.42,-25.62
1554880622201,-5.080496,-7.422623599999999,4.1796775,-0.02876214,-0.13102753,0.14807177,-29.46,51.72,-25.26
1554880622221,-5.1475334,-7.355586,4.1796775,0.01917476,-0.12250541,0.18535602,-29.4,52.14,-24.9
1554880622242,-5.0374002,-7.2023573,3.9833531000000004,-0.0010652645,-0.12783173,0.1768339,-29.34,52.5,-24.6
1554880622261,-5.094861,-7.1688385,4.1078515,-0.024501082,-0.12996227,0.1587244,-29.22,52.98,-24.42
1554880622282,-5.0038815,-7.0874357,4.256292,-0.041545313,-0.11824436,0.15446335,-29.22,53.4,-24.24
1554880622302,-5.080496,-7.154473299999999,4.4765587,-0.04580637,-0.10972224,0.13315806,-29.22,53.76,-24.12
1554880622321,-5.2528787,-7.020397999999999,4.371214,-0.0053263223,-0.1107875,0.11504856,-29.16,54.12,-24.12
1554880622342,-5.295974299999999,-6.9102645,4.23235,0.041545313,-0.11611383,0.10333065,-29.1,54.48,-24.06
1554880622362,-5.415684,-6.785766000000001,4.079121,0.041545313,-0.13209279,0.10546118,-28.92,54.84,-24.06
1554880622381,-5.530606,-6.848015299999999,4.160524,-0.040480047000000005,-0.12250541,0.10439592,-28.74,55.2,-24.0
1554880622401,-5.659893,-6.656479400000001,4.371214,-0.10226539,-0.10333065,0.10865697,-28.62,55.56,-23.94
1554880622421,-5.650316,-6.627749000000001,4.222773,-0.03089267,-0.096939065,0.10226539,-28.44,55.8,-23.88
1554880622441,-5.602432,-6.8097080000000005,3.9067385000000003,0.04261058,-0.08948222,0.094808534,-28.32,55.98,-23.82
1554880622461,-5.482722,-6.6852098,4.079121,0.008522116,-0.07989483,0.12463594,-28.14,56.1,-23.76
1554880622482,-5.401319,-6.531981,3.6721067,-0.041545313,-0.128897,0.12463594,-28.02,56.22,-23.64
1554880622501,-5.3821654,-6.120178,3.767875,-0.19281286,-0.15233281,0.07350325,-27.9,56.4,-23.58
1554880622522,-5.334281400000001,-6.4936733,3.5811272000000005,-0.4261058,-0.15978967,-0.02130529,-27.9,56.58,-23.52
1554880622541,-5.2863975,-6.6947865,3.54282,-0.6711166000000001,-0.14594123,-0.018109497,-27.9,56.82,-23.46
1554880622561,-5.3390699999999995,-7.0634937,3.4183214,-0.8745821,-0.13635385,0.024501082,-27.84,57.0,-23.34
1554880622582,-5.3486465999999995,-7.451353999999999,3.5140896,-1.010936,-0.1470065,0.03195793,-27.78,57.18,-23.1
1554880622603,-5.3486465999999995,-7.4561424,3.4278982000000005,-1.0641992,-0.16724652,0.06285059999999999,-27.78,57.36,-22.86
1554880622622,-5.425261,-7.6333137,3.2172085999999998,-1.0428939,-0.17363810000000002,0.101200126,-27.78,57.54,-22.56
1554880622641,-5.391742,-7.901464,3.0113072,-0.9491506,-0.19813919,0.16405073,-27.72,57.78,-22.14
1554880622661,-5.693412,-8.078635,3.3895910000000002,-0.90014845,-0.19600865,0.24607609,-27.72,58.02,-21.6
1554880622682,-5.93762,-7.767389,3.3369186,-0.89375687,-0.21518342,0.30040458,-27.72,58.32,-21.0
1554880622702,-5.7987566,-7.7769656000000005,3.3033997999999998,-0.78083885,-0.22690132,0.3653857,-27.72,58.68,-20.28
1554880622722,-5.8322754,-7.8152729999999995,3.3464954,-0.71479243,-0.2066613,0.4889564,-27.72,59.1,-19.5
1554880622742,-5.722142,-7.796119,3.2650926,-0.6242449999999999,-0.18961707,0.54435015,-27.78,59.58,-18.66
1554880622761,-5.683835,-7.8152729999999995,3.2363622000000003,-0.49854377,-0.19387813,0.54648066,-27.72,60.12,-17.88
1554880622781,-5.7939680000000005,-7.6093717000000005,3.1549592,-0.3717773,-0.18322548,0.5475459,-27.6,60.78,-17.16
1554880622801,-5.779603,-7.4465656000000005,2.915539,-0.22370553,-0.19600865,0.56459016,-27.48,61.38,-16.5
1554880622822,-5.664681400000001,-7.255029700000001,2.9203273999999997,-0.036218993,-0.19281286,0.5816344,-27.36,61.92,-15.9
1554880622842,-5.7125654,-7.053917,2.7096379,0.099069595,-0.16937704,0.6114618,-27.12,62.4,-15.48
1554880622862,-5.774814599999999,-6.9820905,2.819771,0.1470065,-0.13422333,0.58909124,-26.82,62.94,-15.06
1554880622882,-5.803545,-7.1209545,2.8580782000000005,0.09161274,-0.08735169,0.57417756,-26.46,63.42,-14.76
1554880622902,-5.7700260000000005,-7.0634937,2.9107506,0.05219796,-0.036218993,0.57417756,-26.1,63.84,-14.58
1554880622921,-5.851429,-6.9725137,2.9059622000000003,0.053263225,0.014913702,0.57311225,-25.62,64.32,-14.34
1554880622942,-5.865794,-6.7761892999999995,2.9442697,0.08841695,0.04261058,0.56245965,-25.26,64.68,-14.1
1554880622961,-5.966350599999999,-6.7091517000000005,2.7814639,0.2066613,0.043675844000000005,0.5187838,-24.84,65.04,-13.92
1554880622982,-6.1530986,-6.7570357,3.2603042,0.24820662,0.05219796,0.5273059,-24.36,65.4,-13.74
1554880623002,-6.26802,-6.737882000000001,3.494936,0.25885928,0.06178534,0.5422196,-23.88,65.64,-13.56
1554880623021,-6.5457472999999995,-6.675633,3.2267854,0.26312032,0.10439592,0.531567,-23.4,65.88,-13.44
1554880623042,-7.067683000000001,-6.541558,3.2698810000000003,0.24074976,0.14913702,0.5187838,-22.8,66.18,-13.5
1554880623061,-7.110779300000001,-6.321291,3.3895910000000002,0.25246766,0.14913702,0.52411014,-22.44,66.36,-13.5
1554880623081,-7.105990400000001,-6.321291,3.2986114,0.32277513,0.16937704,0.5656554,-22.32,66.48,-13.56
1554880623102,-7.1730285,-6.393117,3.2746694,0.51452273,0.221575,0.6593986999999999,-21.78,66.72,-13.68
1554880623121,-7.335833999999999,-6.225523,3.1836896,0.6402239000000001,0.24927188,0.7073356,-21.36,66.9,-13.8
1554880623141,-7.201759,-6.0483522,3.2124202,0.70200926,0.26844665,0.7414241,-20.94,67.14,-13.98
1554880623163,-7.374141000000001,-5.761048000000001,3.1214404,0.72437984,0.28442562,0.7850999,-20.58,67.32,-14.28
1554880623183,-7.5321584,-5.5695120000000005,2.8820202,0.71159667,0.29614353,0.83516735,-20.16,67.56,-14.58
1554880623202,-7.642291999999999,-5.2917843,2.8054059,0.65513766,0.2972088,0.87138635,-19.74,67.68,-14.82
1554880623222,-7.4699089999999995,-5.0092683,2.8341362,0.5901565,0.27377295,0.85540736,-19.2,67.74,-15.12
1554880623242,-7.455544000000001,-4.5926776,3.1022868,0.5454154,0.25246766,0.8245146999999999,-18.42,67.8,-15.36
1554880623262,-7.675811,-4.410718,2.7670987,0.5336975,0.22690132,0.7840345999999999,-17.7,67.8,-15.72
1554880623281,-7.6375036,-4.386776,2.8054059,0.49854377,0.19813919,0.7584683000000001,-16.98,67.74,-16.02
1554880623301,-7.6518690000000005,-4.19524,2.8532897999999998,0.44634579999999996,0.18429075,0.7307714,-16.26,67.74,-16.32
1554880623322,-7.723694999999999,-3.9079356,3.1358056,0.41758367,0.16618125,0.6689861,-15.6,67.68,-16.62
1554880623341,-7.905653999999999,-3.7307648999999996,2.8293478,0.37390783,0.14807177,0.6146576,-14.88,67.62,-16.98
1554880623361,-7.8673470000000005,-3.6637269999999997,2.843713,0.30466563,0.12463594,0.58269966,-14.16,67.62,-17.28
1554880623382,-7.7572136,-3.4578260000000003,2.8628666000000003,0.20985709,0.094808534,0.53476274,-13.68,67.68,-17.58
1554880623402,-7.915230800000001,-3.4434607,2.9586349,0.15978967,0.09161274,0.46978164,-13.2,67.68,-17.94
1554880623422,-8.054094000000001,-3.3045970000000002,2.9969419999999998,0.10759171,0.05752428,0.40906155,-12.78,67.68,-18.18
1554880623442,-8.034941,-3.1561562999999997,3.1214404,0.05752428,0.029827405,0.35792887,-12.42,67.68,-18.48
1554880623461,-7.987056699999999,-3.1896752999999998,2.9586349,0.0063915867,0.02130529,0.3323625,-12.06,67.68,-18.72
1554880623481,-8.015787,-3.3189620000000004,2.9682117000000003,-0.04474111,0.017044231,0.30040458,-11.64,67.68,-18.9
1554880623502,-8.111555000000001,-3.2662897,3.1741127999999996,-0.06285059999999999,0.013848438000000001,0.24820662,-11.22,67.68,-18.96
1554880623521,-8.264783999999999,-3.2375592999999996,3.1262288,-0.056459017,0.0063915867,0.20240025,-10.92,67.68,-19.08
1554880623542,-8.192958,-3.2136172999999997,3.1836896,-0.01917476,0.0063915867,0.17470337,-10.56,67.68,-19.2
1554880623562,-8.197746,-3.1753099999999996,3.2507273999999997,0.035153727999999995,0.011717908999999999,0.17150758,-10.32,67.68,-19.26
1554880623582,-8.212111,-3.1130607000000006,3.0065188,0.11504856,-0.0031957934000000003,0.14487597,-10.08,67.68,-19.32
1554880623601,-8.159439,-3.1705215,3.2124202,0.07989483,0.00958738,0.13528858,-9.84,67.62,-19.32
1554880623622,-8.197746,-3.0651767000000003,3.3033997999999998,-0.0031957934000000003,0.02130529,0.12037488,-9.66,67.62,-19.26
1554880623642,-8.293514,-3.2279825,3.0400376000000002,-0.06391586,0.013848438000000001,0.07563378,-9.54,67.56,-19.08
1554880623662,-8.355764,-3.2136172999999997,3.2507273999999997,-0.12783173,0.022370555,0.026631612000000002,-9.42,67.56,-18.96
1554880623682,-8.101977999999999,-3.208829,3.4566288,-0.14274544,0.014913702,-0.010652645,-9.24,67.5,-18.78
1554880623701,-8.135497,-3.328539,3.6816837999999996,-0.05006743,0.02130529,-0.06498113,-9.12,67.44,-18.66
1554880623722,-8.427589999999999,-3.3524809999999996,3.5715504,0.049002163,0.046871635999999994,-0.09587380000000001,-9.0,67.44,-18.54
1554880623742,-8.346188,-3.6014779000000003,3.5619736000000004,0.13741912,0.068176925,-0.09161274,-8.94,67.44,-18.36
1554880623761,-8.355764,-3.6445735,3.7056258,0.26738137,0.08735169,-0.053263225,-8.88,67.44,-18.3
1554880623782,-8.504205,-3.9510313999999997,3.8397010000000003,0.4016047,0.1107875,0.012783173500000002,-8.88,67.44,-18.3
1554880623801,-8.427589999999999,-3.9270894999999997,3.8157589999999995,0.51452273,0.13848437,0.11930962,-8.88,67.38,-18.3
1554880623822,-8.183380999999999,-3.7594953,4.0503907,0.60933125,0.16298546,0.20026971,-8.82,67.38,-18.3
1554880623841,-8.015787,-3.5535938999999996,3.8684312999999997,0.72970617,0.18109496,0.23968449999999997,-8.88,67.38,-18.3
1554880623861,-7.9487495,-3.3189620000000004,3.7487214,0.87777793,0.22370553,0.24074976,-8.82,67.32,-18.42
1554880623882,-8.307879,-3.4290953,3.8013937000000007,1.0471549,0.3153183,0.21198763,-8.82,67.26,-18.84
1554880623902,-8.7532015,-3.4290953,3.7487214,1.180313,0.39734364,0.17257284,-8.76,67.14,-19.2
1554880623922,-8.676587,-3.3764230000000004,3.887585,1.3156016000000001,0.44847634,0.17896444,-8.64,67.02,-19.56
1554880623941,-8.475474,-3.093907,3.8205473,1.4966966,0.46552056,0.18535602,-8.4,66.78,-20.04
1554880623962,-8.379706,-2.6342204,3.2698810000000003,1.6777915,0.44954160000000004,0.15020229,-8.22,66.24,-20.52
1554880623982,-8.652645,-2.5192987999999996,3.0639796,1.7182716,0.43356264,0.11717909,-7.98,65.64,-21.18
1554880624001,-9.002198,-2.15538,2.8054059,1.627724,0.44101948,0.09374327,-7.74,65.04,-22.08
1554880624022,-9.193734,-1.9207484000000001,2.7335799,1.4849787,0.44208476,0.06391586,-7.5,64.2,-22.92
1554880624042,-8.973467999999999,-1.7818846999999998,2.6856956000000003,1.3315805,0.4282363,0.023435817999999997,-7.2,63.24,-23.82
1554880624062,-9.14585,-1.2934675,2.5133132999999996,1.1728562,0.4048005,-0.033023197000000004,-6.84,62.28,-24.72
1554880624081,-9.212888000000001,-1.1354501000000001,2.307412,1.071656,0.3749731,-0.10439592,-6.48,61.26,-25.74
1554880624101,-8.954314,-1.0348936,2.3169887000000005,0.97258645,0.32170987,-0.14594123,-6.12,60.36,-26.76
1554880624122,-8.978256,-0.88166475,2.1398177000000005,0.80747044,0.3057309,-0.21198763,-5.76,59.7,-27.84
1554880624141,-9.169792,-1.073201,2.0871453,0.58269966,0.3057309,-0.25033715,-5.4,59.04,-28.74
1554880624162,-9.409213000000001,-1.4562732,2.1110873,0.36005938,0.30466563,-0.23222765,-5.1,58.26,-29.4
1554880624182,-9.299078999999999,-1.6047136999999998,2.307412,0.26525086,0.30040458,-0.18216023,-4.8,57.54,-30.0
1554880624201,-9.088389,-1.5233108,2.297835,0.2790993,0.27696875,-0.11930962,-4.56,56.94,-30.48
1554880624221,-8.968679,-1.1833341999999998,2.2307975,0.38456047,0.21198763,-0.09587380000000001,-4.44,56.4,-30.96
1554880624241,-8.935161,-0.76195467,2.307412,0.350472,0.18429075,-0.10972224,-4.38,55.86,-31.32
1554880624262,-8.987833,-0.8960299999999999,2.178125,0.22796659,0.14594123,-0.21198763,-4.38,55.32,-31.62
1554880624281,-9.11712,-0.8912416,2.3409307,0.09054748,0.13422333,-0.30679616,-4.38,54.84,-31.8
1554880624301,-9.02614,-1.192911,2.202067,-0.047936900000000005,0.10865697,-0.36325517,-4.38,54.48,-31.92
1554880624322,-9.121908,-1.5280992,2.4366987,-0.17257284,0.098004326,-0.38029942,-4.38,54.24,-32.04
1554880624342,-9.370906,-1.6095021,2.4702177000000005,-0.2609898,0.08522116,-0.37071204,-4.44,54.12,-32.16
1554880624361,-9.361329,-1.7435773999999997,2.331354,-0.29294774,0.058589544,-0.36005938,-4.44,54.06,-32.22
1554880624381,-9.476251,-1.834557,2.5995044999999997,-0.3057309,0.054328485999999995,-0.3334278,-4.5,53.94,-32.22
1554880624402,-9.595961,-1.9734207,2.5037365,-0.2695119,0.037284255,-0.29507825,-4.56,53.94,-32.22
1554880624422,-9.41879,-1.963844,2.6378117000000003,-0.2034655,0.05752428,-0.24181503,-4.74,54.0,-32.16
1554880624442,-9.514558000000001,-1.9877859,2.3888147,-0.082025364,0.05752428,-0.18748654,-4.86,54.18,-32.16
1554880624461,-9.394848,-1.9351135,2.417545,-0.00958738,0.053263225,-0.14913702,-4.98,54.36,-32.16
1554880624481,-9.222465,-2.0404584,2.417545,0.017044231,0.04474111,-0.12144015,-5.16,54.6,-32.1
1554880624502,-9.208099,-2.2511482000000003,2.2451627,0.0010652645,0.02130529,-0.07030745599999999,-5.28,54.78,-32.1
1554880624522,-9.045294,-2.059612,2.321777,-0.034088463,0.0010652645,-0.06285059999999999,-5.4,55.02,-32.04
1554880624541,-9.069236,-1.8154035,2.130241,-0.04474111,-0.02130529,-0.113983296,-5.52,55.2,-32.04
1554880624561,-9.11712,-1.6525976999999998,2.3888147,-0.082025364,-0.02876214,-0.11504856,-5.58,55.44,-31.98
1554880624582,-9.126697,-2.179322,2.417545,-0.07563378,-0.026631612000000002,-0.08841695,-5.58,55.56,-31.92
1554880624602,-9.461885,-2.3229742,2.7096379,-0.04261058,0.015978966,-0.07350325,-5.58,55.62,-31.92
1554880624622,-9.3661175,-2.4091654,2.556409,0.004261058,0.023435817999999997,-0.035153727999999995,-5.58,55.68,-31.86
1554880624642,-9.069236,-2.3852234,2.2260091,0.07563378,0.0063915867,0.011717908999999999,-5.58,55.68,-31.86
1554880624661,-9.121908,-2.03567,2.144606,0.11717909,-0.014913702,-0.008522116,-5.58,55.68,-31.8
1554880624681,-9.246407000000001,-1.9782091,2.1015105,0.09054748,-0.04474111,-0.010652645,-5.58,55.68,-31.8
1554880624701,-9.165004,-2.1266496,2.3888147,-0.013848438000000001,-0.043675844000000005,0.047936900000000005,-5.64,55.68,-31.74
1554880624722,-9.155427,-2.2559366,2.3936029999999997,-0.12250541,-0.035153727999999995,0.035153727999999995,-5.7,55.68,-31.62
1554880624742,-8.959103,-2.1027076,2.4271219,-0.07030745599999999,-0.034088463,-0.0063915867,-5.76,55.74,-31.5
1554880624761,-8.901641999999999,-2.1027076,2.8963853999999998,0.06498113,-0.013848438000000001,-0.022370555,-5.76,55.86,-31.38
1554880624782,-8.983044999999999,-2.1218612,2.7335799,0.165116,-0.0010652645,-0.039414786,-5.82,55.92,-31.32
1554880624802,-9.093178,-2.0691888,2.1254525,0.15552860000000002,-0.04474111,-0.034088463,-5.82,55.98,-31.2
1554880624822,-8.887277000000001,-2.0308816000000003,2.3026235,0.054328485999999995,-0.060720075,-0.025566347000000003,-5.88,56.1,-31.2
1554880624842,-8.973467999999999,-2.1841104,2.7048495,0.054328485999999995,-0.06711166,-0.053263225,-5.88,56.16,-31.2
1554880624861,-9.064447,-2.3517046,2.7766755,0.23648871,-0.054328485999999995,-0.07989483,-5.88,56.16,-31.2
1554880624881,-9.346964,-2.356493,2.5228900000000003,0.38029942,-0.020240024,-0.04580637,-5.88,56.16,-31.32
1554880624902,-9.260772,-2.1505916000000003,2.5995044999999997,0.3568636,-0.013848438000000001,-0.012783173500000002,-5.82,56.1,-31.38
1554880624922,-8.978256,-1.9303252,2.498948,0.23861924,-0.017044231,-0.0053263223,-5.82,55.92,-31.5
1554880624941,-9.011775,-1.8920178,2.7623102999999998,0.165116,-0.007456851,-0.002130529,-5.82,55.8,-31.62
1554880624962,-9.083601,-2.0069396,2.6138697,0.15233281,-0.011717908999999999,0.00958738,-5.82,55.56,-31.74
1554880624982,-9.102755,-2.0404584,2.8293478,0.128897,-0.0063915867,0.02130529,-5.76,55.38,-31.86
1554880625002,-9.198523,-2.0213048,2.7383683,0.13102753,0.0,0.012783173500000002,-5.76,55.2,-32.04
1554880625022,-9.184157,-1.9351135,2.570774,0.15765914,0.014913702,0.034088463,-5.64,55.08,-32.16
1554880625041,-9.121908,-1.963844,2.273893,0.11504856,0.017044231,0.068176925,-5.52,54.96,-32.34
1554880625061,-9.002198,-1.7579426,2.3983915000000002,0.013848438000000001,0.007456851,0.08841695,-5.4,54.78,-32.46
1554880625082,-9.011775,-1.4371196000000002,2.6282349,-0.13209279,0.0053263223,0.080960095,-5.34,54.66,-32.58
1554880625101,-9.179369,-1.5807717,2.5228900000000003,-0.15339808,0.007456851,0.05539375,-5.28,54.6,-32.7
1554880625122,-9.23683,-1.9446903000000002,2.484583,-0.16298546,-0.0053263223,0.05219796,-5.22,54.54,-32.76
1554880625142,-9.088389,-1.9782091,2.2691047,-0.22690132,-0.036218993,0.06711166,-5.16,54.48,-32.76
1554880625162,-9.002198,-1.8872293999999998,2.570774,-0.24394555,-0.051132694000000006,0.027696876000000002,-5.1,54.48,-32.7
1554880625181,-9.275136999999999,-1.9351135,2.5851393,-0.24820662,-0.06285059999999999,-0.0053263223,-5.1,54.48,-32.58
1554880625201,-9.476251,-1.9446903000000002,2.8054059,-0.29827404,-0.058589544,0.034088463,-5.1,54.48,-32.46
1554880625222,-9.198523,-1.8680758000000002,2.6856956000000003,-0.25885928,-0.07456851,0.09267801,-5.1,54.6,-32.28
1554880625242,-8.901641999999999,-2.0931308,2.7000610000000003,-0.10759171,-0.05752428,0.15233281,-5.04,54.72,-32.04
1554880625261,-9.059659,-1.9303252,2.441487,0.053263225,-0.083090626,0.113983296,-4.98,54.84,-31.8
1554880625282,-9.308656,-1.8728642,2.1158757,0.06711166,-0.09161274,0.09374327,-4.92,55.02,-31.62
1554880625306,-9.11712,-1.5376761,2.5803509,-0.08735169,-0.06498113,0.12037488,-4.8,55.26,-31.38
1554880625321,-9.054871,-1.5903485000000002,2.6138697,-0.16085494,-0.04474111,0.12676647,-4.8,55.32,-31.32
1554880625341,-9.184157,-1.8106151000000001,2.7335799,-0.17363810000000002,-0.036218993,0.1107875,-4.74,55.5,-31.32
1554880625361,-9.064447,-1.8632874,2.6856956000000003,-0.22796659,-0.03195793,0.13422333,-4.68,55.56,-31.26
1554880625382,-9.02614,-1.9015948,2.8006175,-0.26312032,-0.036218993,0.14274544,-4.68,55.68,-31.26
1554880625401,-8.983044999999999,-1.738789,2.7623102999999998,-0.23755397,-0.07137272,0.13528858,-4.68,55.74,-31.26
1554880625421,-9.102755,-1.8106151000000001,2.5803509,-0.19281286,-0.099069595,0.14594123,-4.74,55.74,-31.26
1554880625441,-9.030928999999999,-1.834557,2.6426,-0.18961707,-0.11611383,0.14061491,-4.74,55.74,-31.26
1554880625461,-9.030928999999999,-1.9159599999999999,2.6952724,-0.18961707,-0.12357068,0.10013486,-4.74,55.74,-31.2
1554880625482,-9.141062,-1.9159599999999999,2.7335799,-0.17896444,-0.10333065,0.06604639400000001,-4.74,55.8,-31.14
1554880625501,-9.179369,-1.7914615000000003,2.6426,-0.15659387,-0.11611383,0.060720075,-4.74,55.92,-31.08
1554880625522,-9.179369,-1.738789,2.819771,-0.15552860000000002,-0.082025364,0.07563378,-4.74,55.98,-31.02
1554880625542,-10.070012,-1.7196354,4.055179,0.004261058,0.05965481,0.03195793,-4.8,56.1,-30.96
1554880625562,-9.940725,-1.9303252,3.164536,0.34514567,0.022370555,0.02876214,-4.8,56.16,-30.9
1554880625582,-8.700529,-1.5376761,3.7582982000000005,0.55074173,0.11824436,0.27590349999999997,-4.8,56.28,-30.84
1554880625601,-8.480263,-1.6956933999999997,3.5236663999999998,0.9193232,0.12144015,0.22583607,-4.8,56.34,-30.78
1554880625621,-8.259995,-2.0308816000000003,1.5699978,0.87777793,0.039414786,0.15020229,-4.86,56.4,-30.72
1554880625642,-8.724471000000001,-1.6813281999999998,1.3210008,0.38242993,0.00958738,0.13741912,-4.8,56.34,-30.72
1554880625662,-8.647857,-1.2791021999999999,1.9147629000000002,-0.07137272,-0.036218993,0.13848437,-4.74,56.34,-30.72
1554880625682,-8.317456,-0.53211135,3.4614172,-0.22050974,0.06391586,0.034088463,-4.62,56.22,-30.78
1554880625701,-8.8777,-0.6039374,1.7280151000000001,0.09374327,-0.023435817999999997,-0.18216023,-4.44,56.04,-30.9
1554880625722,-8.992621,-0.57041854,2.3600842999999996,0.13848437,0.01917476,-0.29933932,-4.32,55.68,-31.08
1554880625742,-8.772355000000001,-0.99658644,2.178125,0.017044231,-0.015978966,-0.39414784,-4.2,55.38,-31.2
1554880625761,-8.781932000000001,-1.7579426,2.1254525,-0.34940675,-0.05219796,-0.34940675,-4.14,55.02,-31.38
1554880625781,-8.499416,-2.2559366,2.6473885,-0.7755125,-0.06711166,-0.31318775,-4.14,54.72,-31.44
1554880625801,-8.413225,-2.4666264,2.7814639,-0.99708754,-0.07669904,-0.34727620000000003,-4.14,54.42,-31.56
1554880625821,-8.671799,-2.4905684,2.7766755,-1.0226538,-0.04261058,-0.38349520000000004,-4.26,54.18,-31.62
1554880625841,-8.686164,-2.2415714,3.2124202,-0.8032094,-0.03834952,-0.43249738,-4.38,54.3,-31.62
1554880625861,-8.63828,-2.203264,3.2507273999999997,-0.3653857,-0.06924219,-0.5113269,-4.56,54.54,-31.62
1554880625881,-8.604761,-2.0260932,3.1836896,0.06285059999999999,-0.099069595,-0.5699165,-4.74,54.9,-31.44
1554880625901,-8.686164,-2.2655133999999997,2.6521769,0.34621096,-0.101200126,-0.6135923000000001,-4.92,55.38,-31.26
1554880625922,-8.896853,-2.6533740000000003,2.6521769,0.4133226,-0.10759171,-0.6380934,-5.04,55.86,-31.02
1554880625942,-9.155427,-2.8161798,3.0065188,0.33662358,-0.128897,-0.6317018,-5.28,56.4,-30.78
1554880625962,-9.284714,-2.7252002,2.9921536,0.25885928,-0.16618125,-0.6018744,-5.64,56.88,-30.6
1554880625981,-8.978256,-2.4762032000000005,2.5803509,0.27803403,-0.22050974,-0.5965481,-6.0,57.3,-30.36
1554880626001,-9.064447,-2.5528176,2.3505075,0.38029942,-0.28442562,-0.6103965,-6.36,57.48,-30.18
1554880626022,-9.02614,-2.7012582000000003,2.0632033,0.34940675,-0.36432046,-0.57098174,-6.66,57.54,-30.12
1554880626042,-8.8777,-2.878429,2.168548,0.14168017,-0.40586576,-0.55287224,-6.96,57.48,-30.24
1554880626062,-8.686164,-2.9885623,2.3936029999999997,-0.10226539,-0.4314321,-0.5795039000000001,-7.26,57.36,-30.54
1554880626081,-8.532935,-3.208829,2.7096379,-0.2545982,-0.43888897,-0.567786,-7.56,57.3,-30.84
1554880626101,-8.317456,-3.4530375,3.1358056,-0.2695119,-0.43036684,-0.50387007,-8.04,57.12,-31.14
1554880626122,-8.322245,-3.5679589999999997,3.1693244,-0.23861924,-0.4079963,-0.44847634,-8.52,57.0,-31.44
1554880626141,-8.341399000000001,-3.7259765,3.4231097999999998,-0.22690132,-0.39095205,-0.42717105,-9.0,56.88,-31.68
1554880626162,-8.212111,-3.6876693,4.016872,-0.21944448,-0.38242993,-0.39308259999999995,-9.48,56.7,-31.86
1554880626182,-8.130709,-3.8313212,4.0695443,-0.09587380000000001,-0.38562572,-0.34727620000000003,-9.96,56.64,-31.92
1554880626202,-8.145074000000001,-3.74513,4.0695443,0.09054748,-0.39947417,-0.28975195,-10.56,56.52,-31.92
1554880626222,-8.255207,-3.6780925000000004,3.8205473,0.22050974,-0.4261058,-0.23861924,-11.1,56.46,-31.8
1554880626241,-8.317456,-3.5248635000000004,3.9498343,0.19920446,-0.45167214,-0.21092236,-11.58,56.4,-31.68
1554880626261,-8.446744,-3.5488055,3.8061821000000005,0.13528858,-0.4857606,-0.21837921,-11.88,56.34,-31.56
1554880626281,-8.528147,-3.6733038000000002,3.8157589999999995,0.058589544,-0.5422196,-0.22796659,-12.0,56.28,-31.5
1554880626301,-8.513782,-3.7403417,3.8013937000000007,0.0053263223,-0.59867865,-0.21944448,-12.12,56.28,-31.5
1554880626321,-8.576031,-3.7499184999999997,3.8205473,-0.00958738,-0.66579026,-0.25353295,-12.3,56.22,-31.56
1554880626342,-8.566454,-3.8025907999999995,4.0264487,-0.024501082,-0.7392935,-0.28868666,-12.54,56.22,-31.56
1554880626362,-8.51857,-3.8839936,3.8732197,-0.07137272,-0.80747044,-0.26418558,-12.78,56.16,-31.68
1554880626382,-8.293514,-3.9031472000000003,4.136582,-0.084155895,-0.88843054,-0.24820662,-13.2,55.98,-31.68
1554880626401,-8.106767,-3.8839936,4.0025067000000005,-0.05965481,-0.9779128,-0.26525086,-13.68,55.86,-31.74
1554880626421,-8.121132000000001,-3.8121676,4.1892543,-0.12037488,-1.0535465,-0.24607609,-14.16,55.68,-31.8
1554880626443,-7.967903,-3.8696284,4.6393642,-0.24074976,-1.0769824,-0.20240025,-14.7,55.5,-31.8
1554880626463,-7.5273699999999995,-3.9845502,5.036802,-0.27696875,-1.0929613,-0.14168017,-15.24,55.38,-31.74
1554880626482,-7.3071036,-4.2383356,4.9218802,-0.14168017,-1.1132014,-0.039414786,-15.78,55.26,-31.74
1554880626502,-6.8665705,-4.228758999999999,5.1038394,-0.015978966,-1.1526161,0.05752428,-16.38,55.14,-31.74
1554880626521,-6.6941880000000005,-4.300585,5.429451,0.07776430000000001,-1.1728562,0.06391586,-16.92,55.08,-31.68
1554880626542,-6.469133,-4.362833999999999,6.1333459999999995,0.05752428,-1.1408982,0.14274544,-17.52,55.14,-31.68
1554880626561,-6.167464,-4.5352163,6.305729,-0.017044231,-1.0546118,0.29827404,-18.12,55.14,-31.62
1554880626581,-5.731719,-4.353257,6.238691,-0.06391586,-0.9576728000000001,0.38029942,-18.72,55.2,-31.56
1554880626603,-5.482722,-3.888782,5.788581400000001,-0.013848438000000001,-0.8543421,0.24394555,-19.5,55.26,-31.44
1554880626622,-5.2624555,-3.86484,5.9130797,-0.041545313,-0.76592517,0.14913702,-19.98,55.26,-31.32
1554880626642,-5.1571107000000005,-4.3819875999999995,6.1046157,-0.080960095,-0.67218184,0.16085494,-20.34,55.2,-31.14
1554880626661,-4.7165775000000005,-4.9135003,6.3727665,-0.11717909,-0.47617322,0.19813919,-20.64,55.14,-30.96
1554880626682,-4.3718123,-4.7602715,6.1764417,-0.017044231,-0.31851408,0.10546118,-20.82,55.08,-30.72
1554880626702,-4.376600700000001,-4.089895200000001,5.7119665,0.15020229,-0.16618125,-0.046871635999999994,-20.82,55.08,-30.48
1554880626722,-4.711789,-3.8025907999999995,5.6257753,0.15126756,-0.020240024,-0.12783173,-20.82,55.02,-30.3
1554880626741,-5.080496,-3.9414546,5.707178,-0.03195793,0.10972224,-0.094808534,-20.88,54.96,-30.12
1554880626761,-5.104438,-4.147355999999999,5.9226565,-0.24501082,0.23968449999999997,-0.08628642,-20.88,54.9,-30.0
1554880626782,-5.3390699999999995,-4.051588,6.0519433,-0.38349520000000004,0.3653857,-0.21731395,-20.94,54.9,-29.88
1554880626802,-5.7365074,-3.6924577000000003,5.94181,-0.46871635,0.43782368,-0.35792887,-21.06,54.9,-29.76
1554880626822,-6.100425700000001,-3.8744167999999997,5.9801173,-0.5134575,0.46765109999999993,-0.37284255,-21.12,54.96,-29.7
1554880626841,-6.397307,-4.0276456,6.18123,-0.60080916,0.45912898,-0.34834146,-21.24,55.02,-29.7
1554880626862,-6.8569937,-4.018069000000001,6.085462000000001,-0.69987875,0.41119209999999995,-0.38775626,-21.3,55.08,-29.7
1554880626882,-7.091625,-3.888782,5.7454852999999995,-0.7456851,0.3536678,-0.41864893,-21.42,55.2,-29.64
1554880626902,-7.0485296,-3.888782,5.295376,-0.7765778,0.30999196,-0.38882150000000004,-21.54,55.38,-29.58
1554880626922,-7.0820484,-4.156933,5.348048,-0.8309063,0.30146983,-0.35899413,-21.66,55.68,-29.46
1554880626942,-7.28795,-4.252701,5.156512,-0.8809737,0.3334278,-0.330232,-21.78,55.92,-29.22
1554880626962,-7.311891999999999,-4.362833999999999,4.7830167,-0.9864349,0.36325517,-0.32170987,-21.78,56.28,-28.92
1554880626982,-7.216124000000001,-4.463390400000001,4.409521,-1.2144015,0.40266997,-0.29507825,-21.84,56.64,-28.5
1554880627001,-7.0102224,-4.827309,4.553173,-1.478587,0.43995422,-0.24181503,-21.9,56.94,-28.02
1554880627022,-7.1155677,-5.157709,4.7830167,-1.6234629999999999,0.43356264,-0.18535602,-21.9,57.36,-27.42
1554880627041,-7.053317999999999,-5.468955,4.586692,-1.619202,0.37603834,-0.12783173,-21.96,57.78,-26.64
1554880627061,-7.077260000000001,-5.9047,4.500500700000001,-1.5425029,0.29294774,-0.027696876000000002,-22.02,58.26,-25.8
1554880627082,-6.8569937,-6.0531406,4.7830167,-1.3443637,0.18961707,0.06391586,-22.2,58.86,-24.9
1554880627101,-6.593631299999999,-6.1249666,4.7878050000000005,-1.0247844000000002,0.07563378,0.08948222,-22.44,59.46,-24.06
1554880627121,-6.6079965,-6.0770826,4.5483847,-0.76485986,-0.034088463,0.1107875,-22.62,60.0,-23.28
1554880627141,-6.6654577,-5.981314,4.256292,-0.6146576,-0.11824436,0.14061491,-22.8,60.6,-22.44
1554880627161,-6.7612257,-5.7802014,4.0264487,-0.5123922000000001,-0.17470337,0.14913702,-22.98,61.26,-21.66
1554880627181,-6.6510925,-5.7083755,3.7343562000000006,-0.44847634,-0.19813919,0.15339808,-23.04,61.8,-20.94
1554880627201,-6.6893997,-5.751471,3.5763388,-0.45060685,-0.19068234,0.16724652,-23.16,62.28,-20.4
1554880627222,-6.6989765,-5.852027400000001,3.470994,-0.5028047999999999,-0.17044231,0.18216023,-23.1,62.7,-19.8
1554880627242,-6.588842999999999,-5.856816,3.5045127999999997,-0.56459016,-0.13954964,0.19068234,-22.98,62.94,-19.32
1554880627262,-6.4547677000000006,-5.919065,3.6625300000000003,-0.6114618,-0.10972224,0.20026971,-22.74,63.24,-18.72
1554880627281,-6.4547677000000006,-6.0627174,3.6481647000000006,-0.6423545,-0.08735169,0.2130529,-22.62,63.54,-18.18
1554880627303,-6.363788,-5.938218599999999,3.8109705000000003,-0.65194184,-0.083090626,0.21411815,-22.44,63.96,-17.7
1554880627322,-6.445191,-5.9477954,3.8061821000000005,-0.6625945,-0.08522116,0.21198763,-22.26,64.32,-17.28
1554880627342,-6.4404025,-5.9047,3.7870286,-0.6775081999999999,-0.10013486,0.19174760000000002,-22.14,64.62,-16.92
1554880627362,-6.4547677000000006,-5.938218599999999,3.8013937000000007,-0.67537767,-0.13209279,0.18216023,-22.08,64.98,-16.62
1554880627382,-6.6367273,-6.0291986,3.8588544999999996,-0.63383234,-0.15765914,0.19174760000000002,-22.02,65.28,-16.2
1554880627401,-6.7133417,-5.852027400000001,3.863643,-0.5603291,-0.18642128,0.19174760000000002,-21.96,65.58,-15.78
1554880627421,-6.847417,-5.799355,3.767875,-0.46978164,-0.20026971,0.19281286,-21.9,65.88,-15.36
1554880627442,-6.9288197,-5.828085400000001,3.6050692000000004,-0.3717773,-0.21624869,0.22264028,-21.84,66.12,-14.46
1554880627462,-6.895301,-5.952584,3.4997244,-0.3153183,-0.21837921,0.24501082,-21.78,66.3,-13.86
1554880627482,-6.7851677,-5.952584,3.3752258,-0.2908172,-0.21944448,0.24394555,-21.72,66.54,-13.26
1554880627502,-6.7612257,-5.9717374,3.245939,-0.30146983,-0.21092236,0.24074976,-21.6,66.78,-12.66
1554880627522,-6.7516490000000005,-6.005256,3.1405939999999997,-0.33449304,-0.20772657,0.23329292,-21.42,67.14,-12.12
1554880627542,-6.804321300000001,-6.1249666,3.1118636000000004,-0.3717773,-0.19387813,0.22477080000000002,-21.24,67.44,-11.7
1554880627562,-7.101202000000001,-6.373963400000001,2.8101943,-0.38242993,-0.18535602,0.18216023,-21.12,67.74,-11.34
1554880627581,-6.924031299999999,-6.431424,2.819771,-0.39201729999999996,-0.18322548,0.14594123,-21.0,67.92,-11.22
1554880627601,-6.6941880000000005,-6.5271926,2.9059622000000003,-0.44208476,-0.17576863,0.06498113,-20.76,68.28,-10.98
1554880627621,-6.5984197,-6.512827400000001,2.7814639,-0.40053943,-0.1470065,0.07456851,-20.64,68.52,-10.8
1554880627641,-6.4643445,-6.522404,2.5899277,-0.30360037,-0.111852765,0.10439592,-20.52,68.64,-10.56
1554880627662,-6.540959,-6.4457892999999995,2.331354,-0.1949434,-0.07243799,0.12144015,-20.46,68.76,-10.2
1554880627681,-6.555324000000001,-6.503250599999999,2.4223334999999997,-0.101200126,-0.05219796,0.10865697,-20.4,68.7,-9.84
1554880627702,-6.6415157,-6.369175,2.273893,-0.068176925,-0.043675844000000005,0.08948222,-20.4,68.7,-9.66
1554880627723,-6.7468604999999995,-6.259042,2.1158757,-0.046871635999999994,-0.05752428,0.037284255,-20.34,68.64,-9.0
1554880627741,-7.077260000000001,-6.215946,2.0105310000000003,-0.051132694000000006,-0.082025364,0.010652645,-20.28,68.64,-8.64
1554880627762,-7.1730285,-6.206369400000001,1.9434932,-0.068176925,-0.11611383,0.0053263223,-20.28,68.58,-8.28
1554880627782,-7.345411,-6.182427400000001,1.9722236000000002,-0.08735169,-0.15020229,-0.010652645,-20.22,68.58,-8.04
1554880627801,-7.5561004,-6.1967926,1.8477252,-0.113983296,-0.19068234,-0.014913702,-20.22,68.52,-7.86
1554880627821,-7.6135616,-6.206369400000001,1.8477252,-0.14168017,-0.23009712,0.004261058,-20.16,68.58,-7.74
1554880627841,-7.771578999999999,-6.2638300000000005,1.6944963,-0.1470065,-0.26738137,0.034088463,-20.1,68.58,-7.74
1554880627862,-7.7428484,-6.3883285999999995,1.8189948,-0.11611383,-0.31212249999999997,0.06391586,-20.1,68.64,-7.74
1554880627881,-7.627927000000001,-6.464943,1.8046296000000002,-0.096939065,-0.34088463,0.08522116,-20.04,68.7,-7.8
1554880627901,-7.335833999999999,-6.4457892999999995,1.6849195,-0.13422333,-0.35153726,0.10972224,-20.04,68.7,-7.8
1554880627921,-7.1826053,-6.2781954,1.6609775000000002,-0.23116238,-0.3717773,0.112918034,-19.98,68.76,-7.8
1554880627941,-6.991069,-6.091448000000001,1.7615339,-0.36005938,-0.40586576,0.10865697,-19.98,68.76,-7.74
1554880627962,-7.015011,-6.005256,1.632247,-0.51026165,-0.43569317,0.113983296,-19.92,68.76,-7.62
1554880627981,-6.981492,-6.0531406,1.9003976999999999,-0.6466155,-0.46765109999999993,0.12676647,-19.92,68.76,-7.5
1554880628001,-7.0724716,-6.2638300000000005,1.9339164,-0.6593986999999999,-0.4857606,0.15020229,-19.86,68.82,-7.38
1554880628022,-6.9719152,-6.225523,2.0153193,-0.57311225,-0.48363006,0.18109496,-19.86,68.82,-7.08
1554880628041,-6.947973299999999,-6.239888,1.8429368000000002,-0.47404268,-0.46339005,0.20026971,-19.86,68.94,-6.84
1554880628061,-6.823475,-6.201581,1.7328035,-0.41864893,-0.43782368,0.21411815,-19.86,69.12,-6.42
1554880628081,-6.837839999999999,-6.168062,1.7040731,-0.44421527,-0.40053943,0.22583607,-19.8,69.36,-6.0
1554880628101,-6.804321300000001,-6.182427400000001,1.6418238,-0.51771855,-0.36325517,0.23222765,-19.68,69.6,-5.58
1554880628123,-6.919242999999999,-6.182427400000001,1.8716671000000003,-0.58269966,-0.3270362,0.221575,-19.44,69.84,-5.16
1554880628141,-6.981492,-6.2446766,2.0632033,-0.60933125,-0.31212249999999997,0.2034655,-19.2,70.08,-4.74
1554880628161,-7.0245875999999985,-6.282984,2.2068555,-0.5944176,-0.30146983,0.2034655,-18.9,70.2,-4.32
1554880628181,-7.1586633,-6.4505777,2.5611973,-0.5134575,-0.3057309,0.2066613,-18.42,70.32,-3.72
1554880628202,-7.2352777,-6.4266357,2.4079683,-0.44847634,-0.31105720000000003,0.19387813,-18.12,70.38,-3.24
1554880628221,-7.268796400000001,-6.4793080000000005,2.5516205000000003,-0.37603834,-0.3206446,0.16298546,-17.82,70.32,-2.82
1554880628241,-7.2592196,-6.4457892999999995,2.484583,-0.34514567,-0.31851408,0.13315806,-17.7,70.26,-2.64
1554880628262,-7.0102224,-6.531981,2.508525,-0.36325517,-0.3057309,0.07882957,-17.4,70.14,-2.04
1554880628281,-6.924031299999999,-6.431424,2.532467,-0.38456047,-0.29294774,0.040480047000000005,-17.34,70.08,-1.86
1554880628301,-6.71813,-6.5271926,2.6569653,-0.38562572,-0.25566345,0.004261058,-17.16,69.96,-1.2
1554880628321,-6.6893997,-6.4362125,2.6378117000000003,-0.34621096,-0.20985709,0.0053263223,-17.04,69.96,-0.72
1554880628342,-6.540959,-6.2446766,2.5995044999999997,-0.2908172,-0.17257284,0.0063915867,-16.92,70.02,-0.3
1554880628361,-6.7612257,-6.0866594,2.6282349,-0.2428803,-0.13741912,0.0063915867,-16.8,70.08,0.06
1554880628382,-6.770802499999999,-5.9956794,2.475006,-0.19068234,-0.10865697,0.010652645,-16.68,70.14,0.36
1554880628401,-6.631939,-5.990891,2.321777,-0.13741912,-0.07243799,0.018109497,-16.56,70.2,0.6
1554880628421,-6.646304,-5.9142766,2.2307975,-0.08628642,-0.025566347000000003,0.008522116,-16.44,70.26,0.84
1554880628442,-6.612785000000001,-5.9047,1.9818004,-0.068176925,0.022370555,0.0031957934000000003,-16.38,70.38,1.02
1554880628461,-6.71813,-5.9717374,2.0919337,-0.08522116,0.06924219,0.0063915867,-16.32,70.44,1.2
1554880628481,-6.7851677,-6.1249666,1.8908207,-0.12570119999999999,0.09374327,-0.014913702,-16.32,70.5,1.32
1554880628502,-6.7277070000000005,-6.1632739999999995,1.9003976999999999,-0.16618125,0.10652645,-0.034088463,-16.32,70.56,1.44
1554880628522,-6.885724000000001,-6.282984,1.9482816000000003,-0.18002969,0.10013486,-0.047936900000000005,-16.32,70.62,1.56
1554880628542,-6.8761472999999995,-6.335656,1.9482816000000003,-0.16298546,0.06498113,-0.07989483,-16.32,70.68,1.68
1554880628561,-6.9767036,-6.5511346,2.1829132999999996,-0.13102753,0.047936900000000005,-0.094808534,-16.32,70.68,1.8
1554880628581,-7.0341644,-6.488885,2.130241,-0.083090626,0.040480047000000005,-0.10013486,-16.32,70.68,1.86
1554880628602,-7.043741000000001,-6.4266357,1.9722236000000002,-0.047936900000000005,0.049002163,-0.10013486,-16.26,70.62,1.98
1554880628622,-7.029375999999999,-6.536769400000001,2.0775685,-0.040480047000000005,0.07030745599999999,-0.096939065,-16.26,70.62,2.04
1554880628641,-7.0581064,-6.4362125,2.0536265,-0.03195793,0.09374327,-0.09161274,-16.26,70.56,2.16
1554880628662,-6.8522053,-6.6229606,2.0632033,-0.07776430000000001,0.12037488,-0.080960095,-16.26,70.5,2.22
1554880628682,-6.799533,-6.5607114,1.9434932,-0.1107875,0.1438107,-0.07669904,-16.26,70.44,2.28
1554880628702,-6.885724000000001,-6.632537400000001,2.1158757,-0.10333065,0.15659387,-0.080960095,-16.32,70.38,2.34
1554880628722,-6.828263300000001,-6.642114,2.0967221,-0.07350325,0.17044231,-0.07989483,-16.32,70.38,2.4
1554880628742,-6.823475,-6.675633,2.1015105,-0.020240024,0.18748654,-0.08735169,-16.38,70.32,2.46
1554880628761,-6.8761472999999995,-6.517616,2.0105310000000003,0.029827405,0.18642128,-0.11504856,-16.44,70.32,2.58
1554880628781,-6.933608,-6.603807000000001,2.1493945,0.037284255,0.18535602,-0.12783173,-16.5,70.32,2.7
1554880628802,-7.0485296,-6.5942300000000005,2.0679917000000003,0.036218993,0.18322548,-0.13209279,-16.5,70.32,2.76
1554880628822,-7.0820484,-6.5655,1.929128,0.04580637,0.19068234,-0.13209279,-16.62,70.26,2.82
1554880628842,-7.153875,-6.579865,1.9961656000000003,0.094808534,0.19920446,-0.12144015,-16.74,70.26,2.88
1554880628862,-7.1634517,-6.464943,2.0201077,0.13635385,0.21518342,-0.09161274,-16.92,70.2,2.94
1554880628881,-7.2448545,-6.464943,1.7280151000000001,0.16298546,0.23009712,-0.060720075,-17.04,70.14,3.0
1554880628901,-7.1395097000000005,-6.3883285999999995,1.6944963,0.1768339,0.23542345,-0.034088463,-17.16,70.08,3.0
1554880628921,-7.302314999999999,-6.3548098,1.4598645000000001,0.20133498,0.23009712,-0.018109497,-17.28,70.02,2.94
1554880628942,-7.345411,-6.350021400000001,1.4167688999999999,0.19174760000000002,0.2066613,0.0010652645,-17.34,70.02,2.82
1554880628962,-7.3310455999999995,-6.350021400000001,1.3976152,0.16085494,0.17470337,0.015978966,-17.46,70.02,2.76
1554880628982,-7.5082164,-6.359598,1.2491747,0.13102753,0.12676647,0.037284255,-17.52,70.02,2.64
1554880629001,-7.4986396,-6.4793080000000005,1.1055226,0.11717909,0.07563378,0.05219796,-17.46,70.08,2.58
1554880629022,-7.4842744,-6.508039,1.0959458,0.09587380000000001,0.014913702,0.058589544,-17.4,70.08,2.52
1554880629041,-7.345411,-6.4505777,1.2443863000000002,0.06711166,-0.051132694000000006,0.06711166,-17.4,70.14,2.46
1554880629061,-7.383717999999999,-6.359598,1.4167688999999999,0.040480047000000005,-0.10439592,0.07563378,-17.4,70.2,2.4
1554880629081,-7.326257000000001,-6.2542534000000005,1.5221136999999998,0.014913702,-0.1438107,0.08735169,-17.34,70.26,2.4
1554880629101,-7.311891999999999,-6.177639,1.6130934,-0.010652645,-0.17044231,0.10226539,-17.34,70.26,2.28
1554880629122,-7.3166804,-6.1249666,1.7806876,-0.027696876000000002,-0.17470337,0.112918034,-17.34,70.32,2.16
1554880629141,-7.350199000000001,-6.0483522,1.7711107,-0.041545313,-0.16192019,0.128897,-17.34,70.32,2.04
1554880629162,-7.134721300000001,-6.0531406,1.9195513,-0.04474111,-0.13741912,0.1470065,-17.34,70.32,1.86
1554880629181,-7.144297999999999,-6.033987000000001,2.0105310000000003,-0.02130529,-0.10546118,0.15126756,-17.28,70.32,1.74
1554880629202,-7.110779300000001,-6.0244102,1.8716671000000003,0.0031957934000000003,-0.07669904,0.14274544,-17.28,70.26,1.62
1554880629221,-6.9527617,-6.1153900000000005,1.9434932,0.026631612000000002,-0.060720075,0.12570119999999999,-17.22,70.26,1.62
1554880629242,-6.9719152,-6.1345434,1.7950528000000001,0.053263225,-0.037284255,0.10439592,-17.22,70.2,1.56
1554880629261,-6.8809357,-6.177639,1.6801311,0.05965481,-0.026631612000000002,0.08522116,-17.16,70.2,1.62
1554880629282,-6.9383965,-6.072294,1.6849195,0.06285059999999999,-0.023435817999999997,0.039414786,-17.1,70.14,1.68
1554880629302,-6.981492,-6.215946,1.9387047999999998,0.05965481,-0.022370555,0.002130529,-16.98,70.14,1.74
1554880629321,-7.0245875999999985,-6.201581,1.7758990000000001,0.051132694000000006,-0.023435817999999997,-0.018109497,-16.8,70.14,1.8
1554880629341,-7.177817,-6.1632739999999995,2.0009542000000002,0.046871635999999994,-0.029827405,-0.04261058,-16.62,70.2,1.8
1554880629362,-7.110779300000001,-6.120178,1.9147629000000002,0.053263225,-0.03834952,-0.05965481,-16.44,70.2,1.74
1554880629382,-7.2209125,-6.072294,1.8285716,0.05219796,-0.039414786,-0.05219796,-16.32,70.26,1.68
1554880629402,-7.2113357,-6.1489085999999995,1.881244,0.039414786,-0.039414786,-0.051132694000000006,-16.14,70.32,1.56
1554880629422,-7.1490865,-6.1967926,1.8189948,0.00958738,-0.039414786,-0.053263225,-16.02,70.38,1.44
1554880629442,-7.029375999999999,-6.2638300000000005,1.9434932,0.0031957934000000003,-0.039414786,-0.046871635999999994,-15.9,70.38,1.32
1554880629462,-7.1155677,-6.2781954,1.7136499,0.013848438000000001,-0.03834952,-0.04474111,-15.84,70.38,1.32
1554880629481,-7.216124000000001,-6.2446766,2.0919337,0.022370555,-0.04580637,-0.05752428,-15.84,70.38,1.32
1554880629501,-7.134721300000001,-6.182427400000001,1.9243397,0.03834952,-0.05006743,-0.06711166,-15.84,70.38,1.32
1554880629521,-7.062895,-6.0770826,1.8189948,0.05539375,-0.040480047000000005,-0.05539375,-15.9,70.44,1.38
1554880629541,-7.125144500000001,-6.1106014,2.0871453,0.07030745599999999,-0.024501082,-0.040480047000000005,-15.9,70.44,1.5
1554880629561,-7.2592196,-6.0244102,1.9243397,0.07989483,-0.010652645,-0.036218993,-15.96,70.44,1.56
1554880629582,-7.1586633,-5.9477954,1.8237831999999998,0.07563378,-0.002130529,-0.037284255,-15.96,70.5,1.68
1554880629602,-7.1730285,-6.0531406,1.8860323,0.054328485999999995,0.0010652645,-0.027696876000000002,-16.02,70.5,1.74
1554880629622,-7.153875,-6.187216,1.8860323,0.034088463,0.0031957934000000003,-0.022370555,-16.02,70.56,1.74
1554880629642,-7.134721300000001,-6.0531406,1.8237831999999998,0.012783173500000002,-0.0010652645,-0.027696876000000002,-16.08,70.62,1.74
1554880629661,-7.134721300000001,-6.081871,1.9674352,0.0031957934000000003,-0.011717908999999999,-0.033023197000000004,-16.08,70.62,1.74
1554880629681,-7.062895,-6.057929,1.8381484000000001,-0.0031957934000000003,-0.02130529,-0.034088463,-16.14,70.68,1.74
1554880629701,-7.2448545,-6.2303114,1.7423803,-0.03089267,-0.035153727999999995,-0.046871635999999994,-16.14,70.68,1.68
1554880629721,-7.1634517,-6.297349,1.8668787,-0.07243799,-0.05006743,-0.06178534,-16.14,70.74,1.62
1554880629741,-7.1826053,-6.3021374,1.9482816000000003,-0.08522116,-0.06178534,-0.05965481,-16.2,70.74,1.56
1554880629761,-7.1826053,-6.2303114,1.8908207,-0.07989483,-0.07243799,-0.04474111,-16.2,70.8,1.5
1554880629782,-7.1490865,-6.1967926,1.9865887999999998,-0.06924219,-0.07882957,-0.041545313,-16.2,70.86,1.44
1554880629801,-7.101202000000001,-6.14412,1.8620903000000002,-0.08948222,-0.09267801,-0.04580637,-16.26,70.92,1.44
1554880629822,-7.134721300000001,-6.14412,1.9818004,-0.12250541,-0.10759171,-0.039414786,-16.26,70.98,1.44
1554880629841,-7.2113357,-6.177639,1.9722236000000002,-0.14594123,-0.12250541,-0.036218993,-16.26,70.98,1.44
1554880629861,-7.311891999999999,-6.091448000000001,2.0679917000000003,-0.14487597,-0.13102753,-0.03834952,-16.26,71.04,1.44
1554880629881,-7.335833999999999,-6.0866594,2.1254525,-0.12783173,-0.13741912,-0.041545313,-16.2,71.04,1.56
1554880629902,-7.393294999999999,-5.976526,1.8620903000000002,-0.08948222,-0.14168017,-0.03195793,-16.2,71.1,1.62
1554880629922,-7.417236999999999,-6.005256,1.8333599999999999,-0.083090626,-0.13954964,-0.026631612000000002,-16.2,71.04,1.74
1554880629941,-7.4746976,-6.033987000000001,1.8333599999999999,-0.10226539,-0.14487597,-0.013848438000000001,-16.2,71.04,1.8
1554880629963,-7.4507556,-6.072294,1.8142063999999998,-0.12357068,-0.15126756,0.007456851,-16.2,70.98,1.8
1554880629983,-7.4028716,-6.120178,1.8142063999999998,-0.13102753,-0.17257284,0.014913702,-16.2,70.98,1.86
1554880630003,-7.4363904000000005,-6.0483522,1.7615339,-0.13635385,-0.19813919,0.018109497,-16.2,70.98,1.86
1554880630023,-7.350199000000001,-6.0531406,1.7423803,-0.15126756,-0.21837921,0.024501082,-16.2,70.92,1.92
1554880630043,-7.311891999999999,-6.072294,1.8429368000000002,-0.17896444,-0.23861924,0.014913702,-16.14,70.86,1.98
1554880630062,-7.2304892999999995,-6.1106014,1.6897078999999997,-0.21624869,-0.25140239999999997,0.0010652645,-16.08,70.86,2.1
1554880630082,-7.1969705,-6.0483522,1.6705543,-0.23542345,-0.25885928,-0.00958738,-16.02,70.74,2.28
1554880630102,-7.134721300000001,-6.1249666,1.7902644,-0.25672874,-0.26418558,-0.008522116,-15.96,70.68,2.52
1554880630122,-7.0820484,-6.215946,1.8429368000000002,-0.26631612,-0.26631612,0.004261058,-15.84,70.62,2.7
1554880630141,-7.134721300000001,-6.187216,1.7040731,-0.25033715,-0.25353295,0.01917476,-15.72,70.56,2.94
1554880630162,-6.9719152,-6.2207346,1.809418,-0.221575,-0.23648871,0.014913702,-15.66,70.5,3.12
1554880630181,-7.110779300000001,-6.3021374,1.8189948,-0.18109496,-0.21411815,0.00958738,-15.6,70.44,3.36
1554880630202,-7.201759,-6.4266357,2.0632033,-0.16937704,-0.18322548,-0.01917476,-15.6,70.26,3.54
1554880630221,-6.7372837,-6.541558,2.082357,-0.16831179,-0.18109496,-0.094808534,-15.54,70.02,3.66
1554880630242,-6.823475,-6.627749000000001,2.3265655,-0.19068234,-0.15339808,-0.13635385,-15.48,69.66,3.84
1554880630262,-6.828263300000001,-6.4840965,2.3409307,-0.19707392,-0.17044231,-0.17044231,-15.48,69.42,3.96
1554880630281,-6.8569937,-6.4122705,2.5133132999999996,-0.13315806,-0.17576863,-0.18535602,-15.48,69.12,4.08
1554880630302,-6.780379300000001,-6.335656,2.3983915000000002,-0.053263225,-0.18748654,-0.165116,-15.48,68.88,4.2
1554880630322,-6.895301,-6.359598,2.4319102999999997,-0.02130529,-0.18535602,-0.13635385,-15.48,68.7,4.38
1554880630342,-7.0102224,-6.311714,2.4319102999999997,0.037284255,-0.18961707,-0.16405073,-15.54,68.58,4.5
1554880630362,-6.947973299999999,-6.3165026,2.331354,0.054328485999999995,-0.18322548,-0.14487597,-15.54,68.64,4.62
1554880630385,-6.885724000000001,-6.330868,2.4893713,0.08522116,-0.14594123,-0.13528858,-15.54,68.82,4.74
1554880630402,-7.0102224,-6.2781954,2.355296,0.14487597,-0.094808534,-0.165116,-15.6,69.06,4.86
1554880630422,-6.924031299999999,-6.3787518,2.2451627,0.16831179,-0.022370555,-0.17576863,-15.66,69.24,4.98
1554880630442,-6.871359,-6.541558,2.498948,0.13954964,0.047936900000000005,-0.15659387,-15.72,69.42,4.98
1554880630462,-6.95755,-6.637326,2.6617537000000002,0.14274544,0.10439592,-0.17470337,-15.78,69.6,5.04
1554880630483,-6.9288197,-6.666056,2.5228900000000003,0.17470337,0.14274544,-0.18642128,-15.9,69.72,5.04
1554880630501,-6.742072,-6.824073299999999,2.508525,0.1949434,0.15339808,-0.1949434,-15.96,69.84,5.04
1554880630522,-6.631939,-6.7905545,2.484583,0.20985709,0.14487597,-0.2034655,-16.02,69.9,4.98
1554880630542,-6.813898,-6.8575919999999995,2.6090812999999997,0.23861924,0.13102753,-0.22264028,-16.14,70.02,4.98
1554880630562,-6.813898,-6.819285000000001,2.4510639,0.24820662,0.11930962,-0.19387813,-16.2,70.08,4.86
1554880630582,-6.708553299999999,-6.7187285,2.4271219,0.30892670000000005,0.101200126,-0.16618125,-16.26,70.14,4.74
1554880630602,-6.555324000000001,-6.7570357,2.3026235,0.36645097,0.084155895,-0.16085494,-16.38,70.2,4.62
1554880630621,-6.4739213,-6.7330937,2.7287915000000003,0.32490566,0.08522116,-0.13848437,-16.56,70.26,4.5
1554880630641,-6.5265937,-6.8049197,2.6521769,0.29933932,0.10759171,-0.12783173,-16.68,70.32,4.38
1554880630662,-6.540959,-6.800131299999999,2.6282349,0.32170987,0.1470065,-0.13102753,-16.98,70.32,4.08
1554880630682,-6.3302693,-6.699575,2.5516205000000003,0.37816888,0.18216023,-0.112918034,-17.1,70.32,3.78
1554880630702,-6.2632318,-6.656479400000001,2.5037365,0.49534798,0.20559604,-0.10759171,-17.28,70.32,3.42
1554880630722,-6.2967505,-6.7330937,2.3026235,0.531567,0.22903186,-0.10226539,-17.46,70.26,3.06
1554880630742,-6.191406,-6.6085954,2.498948,0.42290998,0.26312032,-0.068176925,-17.58,70.26,2.7
1554880630762,-6.272808599999999,-6.536769400000001,2.475006,0.34940675,0.29827404,-0.06391586,-17.7,70.26,2.34
1554880630782,-6.3302693,-6.5942300000000005,2.2164322999999997,0.31212249999999997,0.31105720000000003,-0.080960095,-17.82,70.26,2.04
1554880630805,-6.397307,-6.417059,2.355296,0.3174488,0.31105720000000003,-0.07456851,-17.88,70.26,1.74
1554880630821,-6.38773,-6.4601545,2.2451627,0.3568636,0.29614353,-0.05539375,-17.94,70.26,1.5
1554880630843,-6.291962,-6.335656,2.3026235,0.34727620000000003,0.27803403,-0.02876214,-18.06,70.32,1.2
1554880630861,-6.2345014,-6.273407,2.5516205000000003,0.26312032,0.26205507,-0.03195793,-18.06,70.44,0.96
1554880630883,-6.4260373,-6.1489085999999995,2.5133132999999996,0.19707392,0.23009712,-0.05965481,-18.12,70.56,0.72
1554880630902,-6.5265937,-5.9717374,2.6426,0.17044231,0.19920446,-0.06604639400000001,-18.12,70.68,0.48
1554880630922,-6.4739213,-6.2207346,2.4941597,0.20240025,0.16724652,-0.05752428,-18.12,70.74,0.3
1554880630942,-6.4882865,-6.2542534000000005,2.6952724,0.22903186,0.15020229,-0.046871635999999994,-18.18,70.86,0.06
1554880630962,-6.5840545,-6.287772,2.747945,0.2428803,0.12037488,-0.06178534,-18.18,70.92,-0.18
1554880630982,-6.6415157,-6.259042,2.7766755,0.25672874,0.08948222,-0.083090626,-18.24,70.98,-0.42
1554880631002,-6.6941880000000005,-6.2207346,2.8820202,0.23755397,0.047936900000000005,-0.08628642,-18.24,70.98,-0.6
1554880631022,-6.612785000000001,-6.2207346,2.9059622000000003,0.24181503,0.004261058,-0.10865697,-18.3,70.92,-0.72
1554880631041,-6.627150500000001,-6.4266357,2.795829,0.27803403,-0.024501082,-0.13528858,-18.3,70.92,-0.9
1554880631061,-6.564901,-6.3979053,2.7862522999999997,0.28975195,-0.043675844000000005,-0.15552860000000002,-18.36,70.92,-1.08
1554880631082,-6.627150500000001,-6.488885,2.867655,0.22050974,-0.036218993,-0.17789917,-18.36,70.86,-1.32
1554880631101,-6.445191,-6.5511346,3.044826,0.1587244,-0.043675844000000005,-0.19174760000000002,-18.36,70.92,-1.5
1554880631121,-6.4739213,-6.637326,3.0352492,0.13528858,0.002130529,-0.19387813,-18.36,70.92,-1.74
1554880631142,-6.3925184999999995,-6.680421400000001,3.1022868,0.18961707,0.05219796,-0.14913702,-18.42,70.98,-1.98
1554880631162,-6.3302693,-6.7283053,3.2507273999999997,0.20772657,0.10865697,-0.08735169,-18.42,70.98,-2.1
1554880631182,-6.191406,-6.6947865,3.3129766000000003,0.22050974,0.15552860000000002,-0.080960095,-18.42,71.04,-2.28
1554880631201,-6.129156,-6.5990186,3.2028434,0.26418558,0.17576863,-0.09054748,-18.48,71.04,-2.46
1554880631221,-6.023811299999999,-6.4122705,3.3081882000000005,0.29933932,0.20985709,-0.10439592,-18.54,71.1,-2.64
1554880631241,-6.1578870000000006,-6.3787518,3.1405939999999997,0.33555830000000003,0.21411815,-0.12783173,-18.6,71.1,-2.76
1554880631262,-6.272808599999999,-6.215946,3.2172085999999998,0.34727620000000003,0.23116238,-0.1587244,-18.72,71.16,-2.94
1554880631282,-6.349423000000001,-6.1967926,3.1405939999999997,0.34301516,0.25353295,-0.17576863,-18.84,71.16,-3.0
1554880631302,-6.627150500000001,-6.330868,2.8341362,0.27696875,0.27057716,-0.18642128,-18.96,71.16,-3.18
1554880631322,-6.7851677,-6.259042,2.7144263,0.22050974,0.25672874,-0.21518342,-19.02,71.16,-3.36
1554880631342,-6.847417,-6.129755,2.5516205000000003,0.15446335,0.22796659,-0.21731395,-19.14,71.16,-3.6
1554880631362,-6.924031299999999,-6.14412,2.594716,-0.0010652645,0.20879184,-0.2034655,-19.26,71.16,-3.9
1554880631382,-7.029375999999999,-6.359598,2.460641,-0.19813919,0.1587244,-0.18109496,-19.5,71.22,-4.14
1554880631402,-6.9288197,-6.3787518,2.297835,-0.314253,0.10226539,-0.16298546,-19.62,71.22,-4.44
1554880631422,-7.0820484,-6.4266357,2.4702177000000005,-0.31957933,0.011717908999999999,-0.17470337,-19.74,71.22,-4.68
1554880631442,-7.101202000000001,-6.627749000000001,2.441487,-0.27164245,-0.03834952,-0.12463594,-19.86,71.22,-4.92
1554880631462,-7.0102224,-6.8671690000000005,2.484583,-0.26312032,-0.09267801,-0.047936900000000005,-19.98,71.22,-5.04
1554880631482,-6.7277070000000005,-6.7043633,2.460641,-0.34834146,-0.12357068,-0.010652645,-20.1,71.16,-5.1
1554880631501,-6.679823,-6.6852098,2.6090812999999997,-0.44954160000000004,-0.15020229,0.0063915867,-20.22,71.16,-5.04
1554880631522,-6.5265937,-6.5846534,2.5611973,-0.52411014,-0.19813919,0.026631612000000002,-20.34,71.16,-4.86
1554880631542,-6.5361705,-6.5942300000000005,2.7096379,-0.5006742999999999,-0.21837921,0.025566347000000003,-20.34,71.16,-4.74
1554880631562,-6.5265937,-6.7091517000000005,3.2698810000000003,-0.39627838,-0.25033715,-0.020240024,-20.34,71.16,-4.5
1554880631581,-6.497863300000001,-6.7283053,3.5332432000000003,-0.2609898,-0.28868666,-0.099069595,-20.34,71.16,-4.2
1554880631602,-6.4499793,-6.7522473,3.4183214,-0.10333065,-0.2876214,-0.13209279,-20.4,71.16,-3.84
1554880631621,-6.349423000000001,-7.0826473,3.1836896,0.10865697,-0.26205507,-0.11504856,-20.46,71.16,-3.6
1554880631642,-6.26802,-7.3843164,3.221997,0.3717773,-0.23009712,-0.08948222,-20.46,71.22,-3.3
1554880631661,-6.114791,-7.3460092999999995,3.044826,0.61572284,-0.18109496,-0.020240024,-20.46,71.22,-3.0
1554880631682,-6.009446,-7.2262993,2.6665419999999997,0.7126619000000001,-0.12463594,0.046871635999999994,-20.52,71.22,-2.64
1554880631703,-5.961562000000001,-7.116166000000001,2.475006,0.6498113,-0.10759171,0.049002163,-20.58,71.22,-2.46
1554880631722,-5.8801594,-6.938994999999999,2.235586,0.57417756,-0.10652645,0.060720075,-20.58,71.22,-2.46
1554880631743,-5.813122,-6.642114,2.307412,0.46019423,-0.1107875,0.07456851,-20.64,71.16,-2.58
1554880631762,-5.612008599999999,-6.570288000000001,2.5228900000000003,0.34940675,-0.098004326,0.058589544,-20.64,71.16,-2.76
1554880631782,-5.535394,-6.321291,2.6042929,0.20453078,-0.07243799,0.024501082,-20.64,71.16,-3.0
1554880631802,-5.3821654,-6.0866594,2.9346926,0.07137272,-0.058589544,-0.014913702,-20.58,71.1,-3.3
1554880631822,-5.6551046,-6.225523,2.9442697,-0.036218993,-0.027696876000000002,-0.012783173500000002,-20.46,71.1,-3.66
1554880631841,-5.7843914000000005,-6.3787518,3.1358056,-0.113983296,-0.0031957934000000003,-0.018109497,-20.34,71.1,-4.02
1554880631861,-5.693412,-6.239888,3.1118636000000004,-0.15552860000000002,0.002130529,-0.06924219,-20.22,71.1,-4.38
1554880631882,-5.8274870000000005,-6.3165026,3.164536,-0.18322548,0.024501082,-0.10972224,-20.04,71.1,-4.68
1554880631901,-5.990292500000001,-6.282984,3.116652,-0.22477080000000002,0.026631612000000002,-0.12463594,-19.92,71.16,-4.86
1554880631921,-5.975927400000001,-6.5655,3.1405939999999997,-0.25353295,0.022370555,-0.14487597,-19.74,71.16,-4.98
1554880631942,-6.019023000000001,-6.6085954,3.020884,-0.25033715,0.013848438000000001,-0.18855181,-19.62,71.28,-5.1
1554880631961,-6.2105594,-6.517616,3.2650926,-0.23755397,0.012783173500000002,-0.22264028,-19.5,71.34,-5.04
1554880631981,-6.26802,-6.637326,3.0544027999999996,-0.25992453,0.007456851,-0.22370553,-19.5,71.34,-4.98
1554880632002,-6.2488665999999995,-6.7522473,3.0974984,-0.28655612,-0.011717908999999999,-0.22903186,-19.5,71.4,-4.92
1554880632022,-6.26802,-6.9198413,3.1214404,-0.2876214,-0.02876214,-0.25140239999999997,-19.56,71.46,-4.8
1554880632042,-6.229712999999999,-6.996455999999999,2.7431567,-0.32490566,-0.05539375,-0.26631612,-19.62,71.52,-4.56
1554880632062,-6.172251999999999,-6.9246297000000006,2.9346926,-0.40053943,-0.06285059999999999,-0.26205507,-19.74,71.58,-4.26
1554880632082,-6.191406,-7.140108000000001,2.7096379,-0.44421527,-0.082025364,-0.25246766,-19.92,71.58,-4.02
1554880632102,-6.066907,-7.2167225,2.7575218999999995,-0.47723848,-0.08735169,-0.22050974,-20.04,71.58,-3.72
1554880632124,-5.8226986,-7.255029700000001,2.7623102999999998,-0.5187838,-0.09587380000000001,-0.20026971,-20.16,71.64,-3.48
1554880632142,-5.851429,-7.154473299999999,2.7144263,-0.55074173,-0.07669904,-0.18322548,-20.34,71.64,-3.18
1554880632161,-5.8466406,-7.211933999999999,2.7431567,-0.5539375,-0.06498113,-0.14594123,-20.46,71.64,-2.94
1554880632181,-5.664681400000001,-7.269394999999999,2.9346926,-0.49321744,-0.039414786,-0.10333065,-20.58,71.58,-2.76
1554880632201,-5.588066599999999,-7.3699512,2.7623102999999998,-0.42290998,-0.014913702,-0.07137272,-20.76,71.52,-2.58
1554880632222,-5.722142,-7.374739599999999,2.6090812999999997,-0.35579833,0.02130529,-0.05752428,-20.88,71.52,-2.34
1554880632244,-5.765238,-7.307702000000001,2.3505075,-0.350472,0.049002163,-0.101200126,-21.06,71.4,-1.86
1554880632262,-5.6982,-7.317278999999999,2.4462755,-0.34408042,0.054328485999999995,-0.13635385,-21.12,71.34,-1.68
1554880632282,-5.7700260000000005,-7.4034699999999996,2.2260091,-0.34301516,0.04261058,-0.15233281,-21.3,71.28,-1.32
1554880632301,-5.707777,-7.5471225,2.1733365,-0.37603834,0.033023197000000004,-0.12676647,-21.42,71.16,-0.96
1554880632321,-5.78918,-7.599794999999999,2.1829132999999996,-0.38349520000000004,0.013848438000000001,-0.13528858,-21.6,71.04,-0.66
1554880632341,-5.8274870000000005,-7.623736999999999,2.178125,-0.36432046,-0.008522116,-0.15446335,-21.72,70.92,-0.3
1554880632361,-6.019023000000001,-7.6333137,2.0344729999999998,-0.32810146,-0.025566347000000003,-0.13315806,-21.84,70.74,0.0
1554880632381,-6.133945,-7.867945,1.8908207,-0.3153183,-0.043675844000000005,-0.07776430000000001,-21.9,70.56,0.18
1554880632401,-5.985504,-7.7147164,1.8429368000000002,-0.330232,-0.06498113,-0.022370555,-22.02,70.32,0.42
1554880632421,-6.1530986,-7.590217999999999,1.8956091,-0.33768883,-0.07989483,0.047936900000000005,-22.02,70.26,0.54
1554880632442,-6.2009826,-7.379528,1.8429368000000002,-0.29827404,-0.06711166,0.09374327,-22.08,70.02,0.96
1554880632462,-6.3446345,-7.3124905,1.7328035,-0.221575,-0.07350325,0.096939065,-22.14,69.84,1.32
1554880632482,-6.220136,-7.3843164,1.857302,-0.16831179,-0.04580637,0.14168017,-22.14,69.72,1.62
1554880632502,-6.0716953,-7.2646065,1.6609775000000002,-0.07776430000000001,-0.025566347000000003,0.18216023,-22.14,69.66,1.92
1554880632522,-6.2057709999999995,-7.140108000000001,1.5221136999999998,0.0031957934000000003,-0.014913702,0.21731395,-22.14,69.6,2.22
1554880632542,-6.3111157,-6.9485717000000005,1.5412674,0.07882957,-0.026631612000000002,0.221575,-22.14,69.6,2.4
1554880632561,-6.349423000000001,-7.101800999999999,1.2156559,0.12357068,-0.08841695,0.20985709,-22.14,69.6,2.58
1554880632581,-6.244078,-7.2023573,1.2348095,0.06924219,-0.13848437,0.22477080000000002,-22.14,69.54,2.64
1554880632601,-6.167464,-7.1975690000000005,1.407192,0.0010652645,-0.18855181,0.20879184,-22.14,69.48,2.7
1554880632622,-6.05733,-7.2406645,1.5316905,-0.07563378,-0.22264028,0.16937704,-22.08,69.42,2.7
1554880632641,-5.8945246,-7.417835,1.6226702,-0.14061491,-0.24927188,0.13635385,-22.02,69.3,2.7
1554880632661,-5.7987566,-7.623736999999999,1.9387047999999998,-0.18855181,-0.257794,0.096939065,-21.9,69.24,2.76
1554880632682,-5.9184665999999995,-7.6764092,2.2260091,-0.18961707,-0.24607609,0.04261058,-21.78,69.18,2.88
1554880632702,-5.913678,-7.585429700000001,2.1877017000000003,-0.12144015,-0.23009712,0.008522116,-21.6,69.12,2.94
1554880632722,-5.8322754,-7.49445,2.0344729999999998,-0.02876214,-0.20559604,-0.008522116,-21.42,69.06,3.06
1554880632742,-5.760449400000001,-7.379528,2.0919337,0.017044231,-0.15552860000000002,-0.0031957934000000003,-21.24,69.06,3.18
1554880632762,-5.731719,-7.2215110000000005,1.809418,0.014913702,-0.1107875,0.018109497,-21.12,69.06,3.36
1554880632781,-5.7700260000000005,-7.173627000000001,1.9818004,0.02876214,-0.07137272,0.034088463,-20.94,69.12,3.54
1554880632802,-5.7987566,-7.1592617,2.0488381,0.034088463,-0.037284255,0.025566347000000003,-20.82,69.24,3.66
1554880632822,-5.755661,-7.2071457,2.0153193,0.041545313,-0.013848438000000001,-0.0063915867,-20.82,69.24,3.84
1554880632842,-5.7843914000000005,-6.9725137,1.9387047999999998,0.035153727999999995,0.010652645,-0.025566347000000003,-20.76,69.3,3.96
1554880632863,-5.9998693,-7.029975,1.7950528000000001,0.013848438000000001,0.022370555,-0.043675844000000005,-20.76,69.36,4.02
1554880632882,-6.172251999999999,-7.1448965,1.5508442,-0.068176925,0.035153727999999995,-0.035153727999999995,-20.76,69.42,4.14
1554880632902,-6.129156,-7.1065892999999996,1.7854759999999998,-0.112918034,0.03089267,-0.036218993,-20.7,69.48,4.14
1554880632922,-6.133945,-7.2406645,1.8142063999999998,-0.12037488,0.03089267,-0.05752428,-20.7,69.48,4.2
1554880632942,-6.2009826,-7.211933999999999,1.8237831999999998,-0.11930962,0.011717908999999999,-0.080960095,-20.7,69.48,4.2
1554880632962,-6.229712999999999,-7.2502413,1.8237831999999998,-0.06711166,-0.015978966,-0.10226539,-20.7,69.48,4.2
1554880632982,-6.272808599999999,-7.3843164,1.6561891,-0.012783173500000002,-0.029827405,-0.09587380000000001,-20.64,69.42,4.2
1554880633002,-6.191406,-7.365163000000001,1.8046296000000002,-0.040480047000000005,-0.029827405,-0.05539375,-20.64,69.42,4.2
1554880633022,-6.196194,-7.3364325,1.7950528000000001,-0.036218993,-0.027696876000000002,-0.027696876000000002,-20.64,69.42,4.2
1554880633042,-6.1530986,-7.3029137,1.7711107,0.010652645,-0.01917476,-0.015978966,-20.64,69.36,4.2
1554880633061,-6.023811299999999,-7.1975690000000005,2.0679917000000003,0.05965481,-0.007456851,-0.015978966,-20.64,69.24,4.2
1554880633081,-6.009446,-7.2981253,1.9339164,0.083090626,-0.0010652645,-0.024501082,-20.64,69.18,4.2
1554880633101,-5.932832,-7.2023573,2.0009542000000002,0.08628642,0.013848438000000001,-0.036218993,-20.64,69.06,4.2
1554880633122,-5.985504,-7.317278999999999,1.9482816000000003,0.07563378,0.043675844000000005,-0.027696876000000002,-20.64,69.0,4.2
1554880633142,-5.837064,-7.0012445,1.7902644,0.09267801,0.05752428,-0.036218993,-20.64,68.94,4.2
1554880633162,-5.8945246,-6.9916677,1.4694413,0.07669904,0.047936900000000005,-0.05006743,-20.58,68.88,4.2
1554880633182,-6.023811299999999,-7.140108000000001,1.3784616000000003,-0.039414786,0.03834952,-0.04261058,-20.52,68.82,4.2
1554880633202,-6.05733,-7.006033,1.4838065,-0.083090626,0.00958738,-0.068176925,-20.46,68.82,4.14
1554880633222,-6.1387334000000005,-7.1688385,1.6035166,-0.084155895,-0.0010652645,-0.096939065,-20.46,68.82,4.14
1554880633242,-6.2392898,-7.0634937,1.7232267,-0.14913702,-0.014913702,-0.113983296,-20.4,68.94,4.08
1554880633262,-6.172251999999999,-7.0347633,1.5604209999999998,-0.22370553,-0.025566347000000003,-0.13635385,-20.4,69.06,4.08
1554880633282,-6.191406,-7.1353197,1.7088615000000003,-0.3057309,-0.027696876000000002,-0.14168017,-20.34,69.12,4.02
1554880633302,-6.26802,-7.3029137,1.5412674,-0.40586576,-0.047936900000000005,-0.12144015,-20.34,69.18,3.96
1554880633322,-6.191406,-7.4561424,1.7328035,-0.53263223,-0.047936900000000005,-0.08522116,-20.34,69.12,3.96
1554880633342,-5.9280434,-7.6572556,1.8956091,-0.6040049,-0.049002163,-0.049002163,-20.34,69.12,4.02
1554880633362,-5.8466406,-7.662044,1.4885948999999998,-0.5592638000000001,-0.034088463,-0.029827405,-20.4,69.0,4.14
1554880633381,-5.985504,-7.2885485,1.632247,-0.47404268,-0.017044231,-0.047936900000000005,-20.46,68.88,4.26
1554880633401,-5.942408599999999,-7.4465656000000005,1.4598645000000001,-0.38029942,-0.025566347000000003,-0.084155895,-20.52,68.64,4.5
1554880633422,-5.971139,-7.5710645,1.2348095,-0.27057716,-0.018109497,-0.10013486,-20.58,68.4,4.74
1554880633442,-5.9280434,-7.5471225,1.3257892,-0.17044231,0.010652645,-0.09267801,-20.64,68.16,5.16
1554880633462,-5.899312999999999,-7.6093717000000005,1.2635399,-0.08735169,0.023435817999999997,-0.10226539,-20.76,67.98,5.52
1554880633483,-5.8945246,-7.743447,1.1965023000000001,-0.09587380000000001,0.034088463,-0.11717909,-20.82,67.8,5.94
1554880633503,-5.9184665999999995,-7.4322004,1.1677719,-0.17789917,0.03089267,-0.12996227,-20.88,67.62,6.24
1554880633521,-5.861006,-7.5136037,0.9475053,-0.20772657,0.0053263223,-0.13315806,-21.0,67.5,6.54
1554880633541,-5.8322754,-7.5950065,1.1773487,-0.27164245,0.008522116,-0.10013486,-21.06,67.32,6.72
1554880633562,-5.889736,-7.561487700000001,0.98102415,-0.32810146,0.015978966,-0.08735169,-21.12,67.14,6.96
1554880633582,-5.8945246,-7.6572556,0.9091981,-0.36645097,0.01917476,-0.10013486,-21.18,66.96,7.08
1554880633601,-5.995081,-7.508815299999999,1.134253,-0.38775626,0.020240024,-0.12570119999999999,-21.3,66.84,7.14
1554880633621,-5.947197,-7.451353999999999,0.81343,-0.24607609,-0.007456851,-0.16192019,-21.42,66.72,7.2
1554880633642,-5.995081,-7.8104844,0.85652566,-0.12676647,-0.00958738,-0.15020229,-21.48,66.6,7.26
1554880633662,-5.8274870000000005,-7.891887,1.110311,-0.11717909,0.0010652645,-0.11717909,-21.6,66.48,7.38
1554880633681,-5.746084,-7.9301944,0.99538934,-0.101200126,0.017044231,-0.11717909,-21.66,66.36,7.56
1554880633701,-5.875371,-7.9541364,0.86131406,-0.101200126,0.039414786,-0.10759171,-21.78,66.3,7.74
1554880633722,-5.717354,-7.958925,0.74639237,-0.06285059999999999,0.036218993,-0.10546118,-21.84,66.24,7.92
1554880633741,-5.693412,-7.9301944,0.8230068000000001,-0.07030745599999999,0.03834952,-0.06924219,-21.9,66.18,8.04
1554880633762,-5.6790465999999995,-7.7386584,0.46387658,-0.11504856,0.024501082,-0.06178534,-21.96,66.12,8.16
1554880633782,-5.530606,-7.911041,0.55485624,-0.22583607,0.01917476,-0.051132694000000006,-22.02,66.06,8.28
1554880633801,-5.5497594,-7.781753999999999,0.5117606,-0.32384038,0.02130529,-0.029827405,-22.02,65.94,8.34
1554880633821,-5.645528,-7.5471225,0.5021838,-0.33875409999999995,0.007456851,-0.034088463,-22.08,65.82,8.4
1554880633842,-5.865794,-7.5519110000000005,0.44951138,-0.15765914,-0.024501082,-0.05219796,-22.08,65.7,8.34
1554880633861,-6.042965000000001,-7.992444,0.22445641,-0.007456851,-0.04474111,-0.02876214,-22.08,65.58,8.34
1554880633882,-6.0046577,-8.160038,0.41599256,-0.011717908999999999,-0.02130529,0.02130529,-22.08,65.4,8.34
1554880633901,-5.7843914000000005,-7.7147164,0.76075757,-0.002130529,-0.020240024,0.008522116,-22.14,65.22,8.34
1554880633922,-5.659893,-7.772177,0.5931635000000001,0.02876214,-0.017044231,-0.029827405,-22.14,65.1,8.34
1554880633942,-5.722142,-7.566275999999999,0.6985083000000001,-0.018109497,0.010652645,-0.05219796,-22.14,64.92,8.4
1554880633962,-5.7125654,-7.561487700000001,0.46387658,-0.112918034,0.013848438000000001,-0.068176925,-22.2,64.86,8.4
1554880633982,-5.683835,-7.6524673,0.46387658,-0.23648871,0.018109497,-0.07350325,-22.26,64.8,8.46
1554880634001,-5.66947,-7.877522,0.40162733,-0.3153183,0.022370555,-0.083090626,-22.32,64.74,8.52
1554880634022,-5.659893,-7.896675599999999,0.43514615,-0.31638354,0.011717908999999999,-0.10013486,-22.38,64.74,8.58
1554880634041,-5.5258174,-7.896675599999999,0.7128736,-0.20026971,0.033023197000000004,-0.11611383,-22.44,64.68,8.7
1554880634062,-5.4970870000000005,-7.877522,0.14784196,-0.05965481,0.041545313,-0.12037488,-22.5,64.62,8.76
1554880634082,-5.7365074,-8.069058,0.008978256,-0.07137272,0.036218993,-0.09587380000000001,-22.56,64.62,8.88
1554880634101,-5.7700260000000005,-8.069058,0.09995792,-0.07989483,-0.011717908999999999,-0.10759171,-22.56,64.56,9.0
1554880634122,-5.650316,-8.073847,0.30107087,-0.0010652645,-0.027696876000000002,-0.094808534,-22.62,64.5,9.18
1554880634141,-5.693412,-8.006809,0.34895490000000007,0.023435817999999997,-0.0053263223,-0.06711166,-22.62,64.44,9.24
1554880634162,-5.616797,-7.997232400000001,0.29628247,0.039414786,-0.008522116,-0.049002163,-22.74,64.32,9.36
1554880634182,-5.6886234,-7.963713,0.39683893,0.082025364,0.0053263223,-0.054328485999999995,-22.8,64.26,9.48
1554880634201,-5.6790465999999995,-8.011598,0.45429978,0.12250541,0.013848438000000001,-0.056459017,-22.86,64.26,9.6
1554880634225,-5.602432,-7.891887,0.3585317,0.08841695,0.024501082,-0.035153727999999995,-22.92,64.2,9.72
1554880634241,-5.7125654,-8.116942,0.20051439,0.046871635999999994,0.035153727999999995,-0.04474111,-23.04,64.14,9.9
1554880634262,-5.616797,-7.997232400000001,0.52133745,0.04261058,0.002130529,-0.09161274,-23.04,64.14,9.96
1554880634282,-5.410896,-7.829638,0.27712885,0.10546118,0.013848438000000001,-0.12570119999999999,-23.16,64.08,10.08
1554880634302,-5.430049400000001,-7.743447,0.05686229,0.084155895,0.03195793,-0.08522116,-23.16,64.08,10.2
1554880634322,-5.5162406,-7.8009076,0.25797522,0.02876214,0.013848438000000001,-0.08948222,-23.16,64.08,10.2
1554880634342,-5.521029,-7.743447,0.3345897,-0.058589544,-0.0063915867,-0.11611383,-23.16,64.08,10.14
1554880634361,-5.57849,-7.829638,0.109534726,-0.19813919,-0.017044231,-0.101200126,-23.16,64.08,10.02
1554880634381,-5.57849,-7.829638,0.12868834,-0.30040458,-0.013848438000000001,-0.07563378,-23.16,64.08,9.9
1554880634403,-5.5976434,-7.882310400000001,0.25318682,-0.36964676,-0.027696876000000002,-0.080960095,-23.22,64.14,9.78
1554880634422,-5.3725886,-7.896675599999999,0.24839842,-0.350472,-0.041545313,-0.101200126,-23.28,64.14,9.72
1554880634443,-5.449203,-7.992444,-0.04369418,-0.28229508,-0.04474111,-0.09054748,-23.28,64.14,9.66
1554880634461,-5.731719,-8.289325,-0.14903906,-0.28868666,-0.026631612000000002,-0.06604639400000001,-23.28,64.08,9.6
1554880634482,-5.621585400000001,-8.145673,0.15741876,-0.3685815,-0.023435817999999997,-0.082025364,-23.34,63.96,9.6
1554880634502,-5.530606,-8.193557,-0.15861586,-0.31638354,-0.04580637,-0.12357068,-23.34,63.84,9.72
1554880634522,-5.588066599999999,-8.241441,-0.19213470000000002,-0.23116238,-0.008522116,-0.08735169,-23.34,63.66,9.96
1554880634542,-5.530606,-8.112153999999999,-0.04369418,-0.20133498,0.002130529,-0.07243799,-23.34,63.54,10.14
1554880634562,-5.530606,-8.346786,0.032920275,-0.18109496,-0.01917476,-0.10759171,-23.34,63.3,10.32
1554880634582,-5.3821654,-8.15525,-0.077213004,-0.12037488,-0.041545313,-0.12144015,-23.4,63.12,10.5
1554880634601,-5.2289367,-7.934983,-0.26396075,-0.008522116,-0.023435817999999997,-0.083090626,-23.4,62.88,10.68
1554880634621,-5.3678,-8.002021000000001,-0.5177461,0.08948222,-0.020240024,-0.058589544,-23.4,62.64,10.86
1554880634641,-5.5641245999999995,-8.145673,-0.10594343,0.098004326,-0.036218993,-0.083090626,-23.4,62.58,11.1
1554880634662,-5.3582234,-7.973290400000001,0.037708677,0.07776430000000001,-0.027696876000000002,-0.082025364,-23.4,62.4,11.16
1554880634681,-5.21936,-7.882310400000001,-0.15382746,0.07243799,0.007456851,-0.04580637,-23.46,62.28,11.22
1554880634702,-5.0996494000000006,-8.069058,0.109534726,0.012783173500000002,0.011717908999999999,-0.036218993,-23.46,62.16,11.28
1554880634722,-5.3103394999999995,-8.217499,-0.16819267,-0.16085494,0.027696876000000002,0.011717908999999999,-23.46,62.04,11.34
1554880634742,-5.473145,-7.934983,0.38726214,-0.07030745599999999,0.05539375,-0.07563378,-23.52,61.98,11.4
1554880634761,-5.1810527,-7.724292999999999,0.032920275,0.09054748,0.05006743,-0.10865697,-23.58,61.92,11.4
1554880634781,-4.941632299999999,-7.729081599999999,-0.4985925,0.099069595,0.056459017,-0.07137272,-23.64,61.92,11.4
1554880634802,-5.1523223,-8.025963,-0.5895722,-0.047936900000000005,0.05965481,-0.083090626,-23.7,61.86,11.34
1554880634822,-5.386954,-8.06427,-0.3309984,-0.25033715,0.043675844000000005,-0.13315806,-23.76,61.86,11.34
1554880634842,-5.401319,-8.040328,-0.17776948,-0.37071204,0.03834952,-0.099069595,-23.88,61.86,11.34
1554880634862,-5.209783,-8.121731,-0.29747957,-0.31638354,0.06711166,-0.036218993,-23.94,61.8,11.34
1554880634881,-5.272032299999999,-8.341997000000001,-0.4890157,-0.17257284,0.037284255,-0.056459017,-24.0,61.8,11.34
1554880634901,-5.415684,-8.289325,-0.19213470000000002,-0.05965481,0.033023197000000004,-0.10546118,-24.06,61.68,11.4
1554880634922,-5.45878,-8.217499,-0.36930559999999996,0.027696876000000002,0.03195793,-0.09054748,-24.12,61.56,11.4
1554880634941,-5.161899,-8.203134,-0.3645172,0.027696876000000002,0.039414786,-0.040480047000000005,-24.18,61.44,11.4
1554880634962,-5.032612,-8.193557,-0.20649989,-0.035153727999999995,0.051132694000000006,-0.04474111,-24.24,61.32,11.4
1554880634981,-5.233725,-8.169615,-0.374094,-0.07243799,0.051132694000000006,-0.09161274,-24.36,61.2,11.46
1554880635002,-5.319916200000001,-8.121731,-0.42676646,-0.05965481,0.034088463,-0.13741912,-24.42,61.08,11.46
1554880635021,-5.21936,-8.078635,-0.05805939,0.010652645,0.026631612000000002,-0.19174760000000002,-24.54,61.02,11.46
1554880635042,-5.0757074,-8.016386,-0.3788824,0.09587380000000001,0.036218993,-0.23648871,-24.6,60.9,11.46
1554880635061,-5.1475334,-7.85358,-0.52732295,0.094808534,0.07456851,-0.24181503,-24.72,60.9,11.46
1554880635081,-5.1475334,-7.7769656000000005,-0.3357868,0.023435817999999997,0.098004326,-0.25033715,-24.9,60.78,11.46
1554880635102,-5.3103394999999995,-7.724292999999999,-0.9151836,-0.039414786,0.09587380000000001,-0.28122982,-25.02,60.72,11.46
1554880635121,-5.4683566,-7.887099,-1.0684125,-0.111852765,0.07882957,-0.29507825,-25.08,60.6,11.46
1554880635141,-5.4396260000000005,-8.002021000000001,-0.7332243,-0.17257284,0.05965481,-0.2972088,-25.2,60.54,11.46
1554880635162,-5.1906295,-8.040328,-0.86251116,-0.20026971,0.029827405,-0.29507825,-25.32,60.42,11.46
