TimeStamp,Ax,Ay,Az,Gx,Gy,Gz,Mx,My,Mz
1554107817342,-8.7771435,-2.8592752999999997,2.7910407000000004,0.29614353,0.10865697,-0.23968449999999997,6.6,18.9,19.2
1554107817363,-8.920795,-2.6581624,2.130241,0.43995422,0.039414786,-0.23755397,6.6,19.02,19.2
1554107817382,-8.748413000000001,-3.4099417,1.8285716,0.25033715,0.05965481,-0.07882957,6.6,19.2,19.26
1554107817402,-8.470686,-3.4913447,1.9578583999999999,0.07989483,0.03834952,-0.14807177,6.54,19.44,19.26
1554107817423,-8.690952000000001,-2.9502552000000004,2.130241,-0.007456851,0.04261058,-0.26631612,6.6,19.74,19.26
1554107817442,-8.571242,-2.9454667999999997,2.1972785,-0.054328485999999995,0.08735169,-0.24607609,6.54,20.04,19.26
1554107817462,-8.379706,-2.9741971,2.3409307,-0.053263225,0.13954964,-0.2876214,6.54,20.34,19.26
1554107817483,-8.39886,-2.8832173,2.321777,-0.06178534,0.18855181,-0.42717105,6.6,20.58,19.26
1554107817503,-8.317456,-2.9741971,2.4223334999999997,-0.10226539,0.22903186,-0.52411014,6.42,20.88,19.26
1554107817523,-8.298303,-3.0891187,2.3169887000000005,-0.15552860000000002,0.26844665,-0.5592638000000001,6.18,21.12,19.32
1554107817542,-8.197746,-3.4961330000000004,2.2164322999999997,-0.20240025,0.30253512,-0.6114618,5.88,21.3,19.38
1554107817563,-8.145074000000001,-3.6062663,2.1493945,-0.25566345,0.3270362,-0.69774824,5.52,21.36,19.44
1554107817583,-8.283937,-3.6349967000000003,1.8189948,-0.330232,0.3536678,-0.76272935,5.22,21.48,19.56
1554107817603,-8.461109,-4.013280399999999,1.7184383,-0.406931,0.38775626,-0.77231675,4.92,21.54,19.68
1554107817623,-8.221688,-4.0994720000000004,1.4981716999999999,-0.5113269,0.40053943,-0.82344943,4.56,21.72,19.8
1554107817642,-8.0684595,-4.243124,1.6035166,-0.6540724,0.45273739999999996,-0.9214538000000001,4.26,21.96,19.98
1554107817662,-8.087613000000001,-4.348469000000001,1.6657659,-0.7755125,0.5049353,-0.9981528000000001,4.08,22.26,20.16
1554107817682,-7.9487495,-4.4442368,1.5939398,-0.8543421,0.55287224,-1.0620687,4.08,22.56,20.46
1554107817703,-7.987056699999999,-4.6022544000000005,1.5508442,-0.9139969000000001,0.5901565,-1.1377025,3.96,22.92,20.82
1554107817722,-7.881711999999999,-4.7985787,1.0720038,-1.0396981,0.6412892,-1.1888351000000001,3.78,23.22,21.24
1554107817743,-7.6853875999999985,-5.105036699999999,0.74639237,-1.1739215,0.71798825,-1.2175972,3.3,23.46,21.72
1554107817763,-7.575253999999999,-5.555146700000001,0.43514615,-1.3624732,0.8213189000000001,-1.2729911,2.76,23.7,22.2
1554107817782,-7.4842744,-5.837662,0.15263036,-1.490305,0.91825795,-1.3177321000000002,2.16,23.7,22.8
1554107817802,-7.383717999999999,-5.943007,-0.12988544,-1.4615428,0.97897804,-1.3464943,1.56,23.58,23.58
1554107817822,-7.3166804,-6.541558,-0.12988544,-1.2751216,1.0301107,-1.3124058,0.84,23.34,24.3
1554107817842,-7.1873937,-7.020397999999999,-0.7044938000000001,-0.9587379999999999,0.98856544,-1.1781825000000001,-0.3,22.8,25.2
1554107817862,-6.943185000000001,-7.3460092999999995,-1.039682,-0.6125271,0.95128113,-1.0812434,-1.2,22.38,25.74
1554107817883,-6.8522053,-7.3364325,-1.264737,-0.2545982,0.92784536,-1.0045444,-1.62,22.2,26.04
1554107817903,-6.756437299999999,-7.4034699999999996,-1.3413515,0.05006743,0.9129315999999998,-0.9757822,-2.46,21.72,26.52
1554107817924,-6.6079965,-7.599794999999999,-1.9015948,0.39521313,0.88949585,-0.89588743,-3.66,21.0,27.24
1554107817945,-6.4020953,-7.848791599999999,-2.0548236,0.56672066,0.89801794,-0.77231675,-4.44,20.64,27.54
1554107817962,-6.1818290000000005,-7.939771,-2.0644004000000002,0.5944176,0.89375687,-0.7616641,-5.28,20.4,27.84
1554107817983,-6.26802,-7.7769656000000005,-1.9829974999999997,0.54648066,0.8841694999999999,-0.77870834,-6.18,20.34,28.2
1554107818002,-6.05733,-7.772177,-1.9686323000000001,0.50173956,0.8628642,-0.7595335999999999,-7.14,20.52,28.5
1554107818022,-5.7939680000000005,-7.6428905,-2.0069396,0.5091964,0.8522116,-0.69987875,-8.04,20.82,28.74
1554107818043,-5.635950599999999,-7.5758529999999995,-1.8537107,0.5475459,0.8383630999999999,-0.6945524000000001,-8.88,21.18,28.98
1554107818064,-5.60722,-7.3843164,-1.6334441000000002,0.6125271,0.8447546999999999,-0.69668293,-9.6,21.72,29.22
1554107818082,-5.521029,-7.398681599999999,-1.8106151000000001,0.62104917,0.81705785,-0.70840085,-10.38,22.26,29.34
1554107818102,-5.60722,-7.7578119999999995,-1.8249803,0.5336975,0.7861651999999999,-0.67005134,-11.1,22.86,29.46
1554107818123,-5.1475334,-8.179192,-2.2272062000000004,0.4101268,0.7776430000000001,-0.6103965,-11.82,23.4,29.52
1554107818143,-4.975151,-8.212710000000001,-2.0644004000000002,0.30040458,0.8032094,-0.64341974,-12.54,23.94,29.52
1554107818162,-4.975151,-7.848791599999999,-1.8154035,0.28975195,0.8309063,-0.7339671999999999,-13.2,24.36,29.58
1554107818183,-4.9512089999999995,-7.834426400000001,-1.9494787,0.29614353,0.83942837,-0.68176925,-13.92,24.84,29.58
1554107818203,-4.6495394999999995,-8.313267,-2.212841,0.2545982,0.82344943,-0.572047,-14.58,25.38,29.58
1554107818223,-4.3813889999999995,-8.653243,-2.1601684,0.19387813,0.87138635,-0.59867865,-15.3,25.8,29.58
1554107818242,-4.280833,-8.557475,-2.107496,0.17896444,0.8926915999999999,-0.6679208000000001,-15.96,26.22,29.58
1554107818263,-4.4005427,-8.284536,-2.1841104,0.15020229,0.8948221,-0.67324716,-16.62,26.58,29.52
1554107818283,-4.247314,-8.739435,-2.0931308,0.10013486,0.88843054,-0.54648066,-17.4,26.94,29.52
1554107818303,-4.1371803,-8.959702,-2.4809916000000003,0.026631612000000002,0.8511463,-0.47936899999999993,-18.12,27.24,29.46
1554107818323,-4.189853,-9.405023,-2.3517046,-0.13528858,0.8341021000000001,-0.43782368,-18.84,27.42,29.34
1554107818342,-4.074930999999999,-9.677961,-2.3612813999999998,-0.15552860000000002,0.8117314999999999,-0.4048005,-19.68,27.48,29.28
1554107818362,-3.9552212,-9.649231,-2.308609,-0.04580637,0.7765778,-0.350472,-20.64,27.42,29.22
1554107818383,-4.0892963,-9.223063,-2.533664,0.12144015,0.7233145999999999,-0.34301516,-21.42,27.42,29.1
1554107818403,-4.0174704,-8.983644,-2.6629508,0.23116238,0.6743124,-0.32170987,-22.26,27.42,29.04
1554107818422,-4.0318356,-9.069835000000001,-2.6485856,0.25140239999999997,0.6199839,-0.25033715,-22.98,27.3,28.92
1554107818442,-4.146757,-9.069835000000001,-2.2080526000000003,0.25566345,0.55606806,-0.2034655,-23.7,27.18,28.86
1554107818463,-4.338293599999999,-8.897452000000001,-2.4953567999999997,0.1949434,0.43462790000000007,-0.14913702,-24.36,27.06,28.74
1554107818483,-4.285621,-8.792108,-2.782661,0.08948222,0.3334278,-0.09374327,-24.96,27.0,28.68
1554107818503,-4.1371803,-9.045893,-2.5671828,0.014913702,0.3291667,-0.039414786,-25.38,26.88,28.56
1554107818523,-4.003105000000001,-8.916606,-2.1410147999999998,0.03089267,0.3323625,-0.035153727999999995,-25.68,26.82,28.5
1554107818542,-3.9456443999999995,-8.739435,-2.1122843999999996,0.15765914,0.32277513,-0.06924219,-25.98,26.76,28.32
1554107818563,-3.8307227999999998,-8.4234,-2.5432408,0.24820662,0.29507825,-0.02130529,-26.4,26.76,28.14
1554107818583,-3.6870705999999998,-8.552686999999999,-2.5576060000000003,0.2727077,0.28549087,0.07456851,-26.76,26.76,27.96
1554107818602,-3.3901896000000002,-8.849568,-2.7156234,0.294013,0.2908172,0.13422333,-27.06,26.82,27.78
1554107818622,-3.241749,-9.017161999999999,-2.6007016,0.31851408,0.33129725,0.12250541,-27.36,26.82,27.6
1554107818643,-3.4284968,-8.839992,-2.8592752999999997,0.34727620000000003,0.386691,0.054328485999999995,-27.54,26.88,27.3
1554107818662,-3.5146879999999996,-8.854357,-2.5576060000000003,0.31957933,0.44847634,0.04261058,-27.6,26.94,27.24
1554107818683,-3.7158010000000004,-8.983644,-2.2655133999999997,0.34514567,0.5091964,0.13209279,-27.84,27.18,27.0
1554107818703,-3.4332852,-9.156025999999999,-2.6437972000000003,0.31318775,0.5400891,0.18855181,-28.02,27.42,26.88
1554107818722,-3.3087866000000004,-9.213486999999999,-2.5001452,0.26205507,0.64341974,0.19068234,-28.26,27.66,26.82
1554107818742,-3.3854012000000004,-9.021951,-2.4762032000000005,0.2428803,0.7126619000000001,0.15020229,-28.38,27.9,26.64
1554107818763,-3.5386300000000004,-8.806473,-2.4139538,0.23116238,0.7318366999999999,0.1470065,-28.62,28.14,26.34
1554107818782,-3.6200330000000003,-8.715492999999999,-2.1218612,0.23968449999999997,0.7456851,0.16085494,-28.8,28.32,25.98
1554107818804,-3.8067808,-8.739435,-2.107496,0.28122982,0.721184,0.18855181,-29.1,28.56,25.68
1554107818823,-3.7301662,-8.883087,-2.2703017999999995,0.38349520000000004,0.72970617,0.20026971,-29.34,28.68,25.32
1554107818843,-3.8163576,-8.854357,-2.2463598,0.5123922000000001,0.78936094,0.18002969,-29.64,28.92,24.96
1554107818863,-3.7924154000000003,-8.911817999999998,-2.131438,0.58056915,0.7882956999999999,0.15978967,-29.82,29.1,24.66
1554107818883,-3.7301662,-8.959702,-2.5719712,0.6348976,0.7307714,0.14061491,-30.0,29.4,24.36
1554107818903,-3.6056678,-9.223063,-2.9071592999999996,0.60720074,0.7222493000000001,0.082025364,-30.36,29.7,23.94
1554107818923,-3.5817258,-9.385869,-2.7587189999999997,0.49108690000000005,0.7616641,-0.022370555,-30.72,30.12,23.52
1554107818942,-3.7493198,-9.007586,-2.0691888,0.41864893,0.7520766999999999,-0.14274544,-31.08,30.6,23.1
1554107818962,-4.103661499999999,-8.634089,-2.1888987999999996,0.42077947,0.6945524000000001,-0.14487597,-31.44,31.08,22.74
1554107818983,-4.3047748,-8.533533,-2.2463598,0.4282363,0.6583334,-0.05006743,-31.86,31.56,22.32
1554107819003,-4.1419687000000005,-8.940548,-2.6677392,0.3568636,0.6444850000000001,0.011717908999999999,-32.34,31.98,21.96
1554107819022,-4.0462008,-8.969278,-2.1649568,0.21518342,0.6892261,-0.027696876000000002,-32.88,32.34,21.54
1554107819042,-4.1802763999999994,-8.739435,-2.107496,0.17896444,0.6828345,-0.14274544,-33.3,32.7,21.06
1554107819063,-4.3478703,-8.222287,-2.1697452,0.14594123,0.6263755,-0.15446335,-33.66,32.94,20.7
1554107819083,-4.4675803,-8.370728,-2.1649568,0.16937704,0.53263223,-0.033023197000000004,-33.96,33.12,20.46
1554107819103,-4.036624,-8.772953999999999,-2.4187422,0.16937704,0.45806372,0.05539375,-34.2,33.24,20.22
1554107819123,-3.9073372,-9.0842,-2.2224178,0.16618125,0.44741106,-0.014913702,-34.44,33.36,20.04
1554107819143,-4.0509889999999995,-8.84478,-2.083554,0.20559604,0.42717105,-0.17363810000000002,-34.68,33.42,19.74
1554107819162,-4.156333999999999,-8.758589,-2.0691888,0.20026971,0.38029942,-0.1768339,-34.8,33.48,19.5
1554107819183,-3.9743748,-8.801684,-2.1936872000000003,0.13102753,0.33449304,-0.060720075,-34.92,33.54,19.2
1554107819203,-3.8690300000000004,-9.069835000000001,-2.0117279999999997,0.007456851,0.34088463,0.037284255,-35.04,33.54,18.96
1554107819222,-3.8690300000000004,-8.916606,-2.212841,-0.06498113,0.29614353,0.07669904,-35.16,33.6,18.78
1554107819242,-3.9456443999999995,-8.787319,-2.0213048,-0.04580637,0.2727077,0.08948222,-35.34,33.6,18.6
1554107819262,-3.9456443999999995,-8.729858,-1.7579426,0.06178534,0.28229508,0.14913702,-35.58,33.66,18.42
1554107819283,-3.6966474000000002,-8.701127,-2.15538,0.16724652,0.26418558,0.17576863,-35.76,33.72,18.3
1554107819303,-3.7445314,-9.055469500000001,-2.4426842,0.22370553,0.28229508,0.18216023,-35.94,33.78,18.06
1554107819323,-3.4428620000000003,-8.921394,-2.3229742,0.22050974,0.2876214,0.15659387,-36.06,33.84,17.82
1554107819343,-3.7924154000000003,-8.729858,-2.0213048,0.25353295,0.28016454,0.06498113,-36.18,33.9,17.58
1554107819362,-3.7684733999999995,-8.820838,-2.2080526000000003,0.28336033,0.24927188,0.04261058,-36.3,33.96,17.34
1554107819383,-3.7062242,-8.849568,-2.1841104,0.23329292,0.24927188,0.11824436,-36.42,34.08,17.1
1554107819403,-3.7828386,-9.065046,-2.1122843999999996,0.18216023,0.23968449999999997,0.128897,-36.48,34.14,16.92
1554107819423,-3.7110126000000005,-8.978855000000001,-2.3229742,0.15552860000000002,0.20985709,0.07456851,-36.54,34.26,16.68
1554107819443,-3.6296098,-9.026739,-2.3229742,0.14487597,0.24074976,0.015978966,-36.54,34.44,16.5
1554107819463,-3.8546648,-8.686762,-1.939902,0.13635385,0.23435818,-0.022370555,-36.54,34.62,16.32
1554107819482,-3.8115692,-8.471283999999999,-1.8584990000000001,0.13528858,0.18642128,-0.00958738,-36.6,34.74,16.2
1554107819503,-3.9791632000000003,-8.528744999999999,-1.2503718000000001,0.17363810000000002,0.1587244,0.04261058,-36.66,35.1,16.02
1554107819523,-4.0557775000000005,-8.456919000000001,-2.059612,0.14807177,0.051132694000000006,0.07456851,-36.66,35.22,15.9
1554107819543,-3.9647980000000005,-8.581417,-1.9877859,0.06178534,0.04580637,0.10972224,-36.66,35.28,15.84
1554107819562,-3.8929720000000003,-8.792108,-1.9782091,-0.07456851,0.06711166,0.07669904,-36.72,35.52,15.66
1554107819582,-3.8833952000000003,-8.653243,-2.0691888,-0.15339808,0.08948222,-0.043675844000000005,-36.72,35.7,15.54
1554107819603,-4.2760444,-8.418612,-2.0213048,-0.17896444,0.06711166,-0.101200126,-36.78,35.88,15.36
1554107819623,-4.271256,-8.519167999999999,-2.0308816000000003,-0.19281286,0.049002163,-0.043675844000000005,-36.84,36.0,15.18
1554107819644,-4.1180267,-8.801684,-2.1410147999999998,-0.17150758,0.043675844000000005,-0.015978966,-36.84,36.12,15.12
1554107819664,-3.98874,-8.978855000000001,-2.2080526000000003,-0.09587380000000001,0.04261058,-0.047936900000000005,-36.84,36.18,15.06
1554107819684,-4.132391999999999,-9.012374000000001,-2.107496,0.049002163,0.05006743,-0.056459017,-36.84,36.24,15.0
1554107819703,-4.0270470000000005,-8.878299,-2.2655133999999997,0.1107875,0.0,-0.0031957934000000003,-36.84,36.3,15.0
1554107819723,-3.6343982000000006,-8.835203,-2.5001452,0.1438107,0.015978966,0.036218993,-36.84,36.3,15.0
1554107819743,-4.213794999999999,-8.921394,-2.0404584,0.053263225,0.058589544,0.10865697,-36.84,36.3,15.0
1554107819763,-4.2425256,-9.055469500000001,-2.0548236,-0.26844665,0.0053263223,0.23648871,-36.9,36.3,15.0
1554107819782,-4.132391999999999,-8.921394,-1.963844,-0.4282363,-0.02130529,0.24607609,-36.9,36.3,15.0
1554107819802,-4.261679,-8.820838,-2.0548236,-0.43569317,-0.023435817999999997,0.19920446,-36.9,36.24,15.06
1554107819822,-4.333505000000001,-8.787319,-1.9494787,-0.30999196,0.007456851,0.2130529,-36.9,36.24,15.06
1554107819843,-4.429273,-8.81605,-1.9686323000000001,-0.029827405,-0.0010652645,0.2609898,-36.9,36.24,15.12
1554107819862,-4.4005427,-8.729858,-2.1984756,0.08522116,0.007456851,0.27164245,-36.9,36.24,15.18
1554107819883,-4.4484267,-8.806473,-2.2080526000000003,0.15446335,0.03195793,0.27057716,-36.9,36.24,15.24
1554107819903,-4.4005427,-8.69155,-2.260725,0.13741912,0.053263225,0.28229508,-36.84,36.3,15.3
1554107819923,-4.534618,-8.950125,-2.5240872000000003,0.13848437,0.101200126,0.31318775,-36.72,36.3,15.36
1554107819943,-4.4819455,-9.065046,-2.380435,0.12037488,0.11611383,0.350472,-36.6,36.42,15.48
1554107819962,-4.4723687000000005,-8.873510000000001,-2.1218612,0.13422333,0.10759171,0.33875409999999995,-36.48,36.54,15.48
1554107819982,-4.6830587,-8.5862055,-2.2894554,0.21624869,0.051132694000000006,0.29188246,-36.3,36.72,15.54
1554107820003,-4.611232299999999,-8.389880999999999,-2.3948002,0.28336033,0.036218993,0.30892670000000005,-36.12,36.9,15.54
1554107820022,-4.673482,-8.279748,-2.7204118,0.37816888,0.08735169,0.35899413,-36.0,37.14,15.54
1554107820043,-4.4101195,-8.222287,-2.4474726,0.39095205,0.14061491,0.34301516,-35.82,37.38,15.48
1554107820062,-4.4244847,-8.121731,-2.1027076,0.39201729999999996,0.1470065,0.24927188,-35.7,37.68,15.42
1554107820083,-4.534618,-7.949348,-2.3421277999999996,0.37816888,0.111852765,0.19600865,-35.58,37.92,15.3
1554107820102,-4.5920787,-7.791331,-2.4091654,0.34621096,0.09587380000000001,0.19387813,-35.58,38.1,15.24
1554107820122,-4.711789,-8.002021000000001,-2.4474726,0.29188246,0.07137272,0.17470337,-35.46,38.28,15.18
1554107820142,-4.692635500000001,-7.73387,-2.15538,0.20985709,0.068176925,0.10865697,-35.46,38.46,15.0
1554107820162,-4.831499,-7.719505000000001,-2.1745335999999997,0.16618125,0.05965481,-0.008522116,-35.4,38.58,14.82
1554107820183,-4.8602295,-7.6572556,-2.0883423999999997,0.13848437,0.05752428,-0.09161274,-35.28,38.82,14.4
1554107820203,-4.7357309999999995,-7.8248496,-1.8393455,0.12996227,0.058589544,-0.12357068,-35.28,38.94,14.22
1554107820222,-4.654328,-7.958925,-2.1458032000000005,0.14913702,0.035153727999999995,-0.17896444,-35.22,39.18,14.04
1554107820242,-4.429273,-8.083424,-1.8776526000000002,0.14061491,0.01917476,-0.25246766,-35.04,39.6,13.74
1554107820262,-4.4915223,-8.174403,-2.0069396,0.11611383,0.0053263223,-0.27696875,-35.04,39.72,13.62
1554107820282,-4.5298295,-8.495225999999999,-2.059612,0.033023197000000004,-0.023435817999999997,-0.31957933,-34.86,40.08,13.38
1554107820303,-4.462791999999999,-8.523956,-2.0548236,-0.047936900000000005,-0.053263225,-0.34514567,-34.8,40.26,13.26
1554107820322,-4.434061499999999,-8.701127,-2.4570496,-0.08628642,-0.09374327,-0.3270362,-34.68,40.38,13.2
1554107820343,-4.4580035,-8.739435,-2.0165164,-0.09054748,-0.113983296,-0.27164245,-34.68,40.5,13.26
1554107820362,-4.429273,-8.839992,-1.8154035,-0.06498113,-0.15765914,-0.24074976,-34.62,40.56,13.26
1554107820382,-4.343082,-8.519167999999999,-1.6573862000000001,-0.0010652645,-0.22690132,-0.23861924,-34.62,40.5,13.2
1554107820403,-4.362235500000001,-8.251018,-1.8872293999999998,0.07243799,-0.28016454,-0.2695119,-34.62,40.44,13.14
1554107820422,-4.3718123,-8.179192,-1.6047136999999998,0.09587380000000001,-0.24607609,-0.25992453,-34.68,40.44,13.08
1554107820443,-4.223372,-8.308478,-1.4706384,0.07882957,-0.22477080000000002,-0.24501082,-34.8,40.44,13.02
1554107820463,-3.9983168,-8.236652000000001,-1.5903485000000002,-0.018109497,-0.25033715,-0.27377295,-34.92,40.44,12.96
1554107820483,-3.8833952000000003,-8.284536,-1.738789,-0.12357068,-0.25672874,-0.2908172,-35.04,40.44,12.96
1554107820502,-3.9121256,-8.361151,-1.6621746,-0.20133498,-0.23542345,-0.2727077,-35.1,40.44,12.96
1554107820523,-3.6918589999999996,-8.658031,-1.6956933999999997,-0.2972088,-0.18109496,-0.22690132,-35.22,40.44,13.08
1554107820543,-3.7828386,-9.021951,-1.7340006000000001,-0.36005938,-0.11717909,-0.19600865,-35.28,40.44,13.14
1554107820563,-3.6343982000000006,-9.065046,-1.4514848,-0.4048005,-0.08841695,-0.23009712,-35.34,40.32,13.26
1554107820582,-3.8019924,-9.012374000000001,-1.8393455,-0.3653857,-0.099069595,-0.28122982,-35.34,40.14,13.5
1554107820602,-3.7828386,-9.017161999999999,-1.8489223000000001,-0.2545982,-0.07563378,-0.24181503,-35.4,39.84,13.68
1554107820622,-3.8498763999999994,-9.132083999999999,-1.7818846999999998,-0.084155895,-0.094808534,-0.19707392,-35.4,39.6,13.86
1554107820642,-3.8642415999999997,-9.237428999999999,-1.6813281999999998,-0.035153727999999995,-0.11930962,-0.17470337,-35.46,39.36,14.04
1554107820662,-3.8833952000000003,-9.328408,-1.6669630000000002,-0.017044231,-0.16192019,-0.17150758,-35.58,39.12,14.22
1554107820683,-3.8833952000000003,-9.199121,-1.5041572,-0.011717908999999999,-0.18216023,-0.17150758,-35.64,38.82,14.4
1554107820703,-3.8738184,-8.993219999999999,-1.6095021,0.03089267,-0.22690132,-0.17363810000000002,-35.76,38.64,14.58
1554107820723,-3.7445314,-8.7538,-1.8106151000000001,0.14168017,-0.24074976,-0.12144015,-35.88,38.34,14.7
1554107820743,-3.5338415999999997,-8.926183,-1.9494787,0.16405073,-0.21624869,-0.08628642,-35.94,38.22,14.76
1554107820763,-3.5625722,-9.223063,-2.03567,0.12996227,-0.14594123,-0.08522116,-36.06,38.1,14.82
1554107820782,-3.490746,-9.261371,-1.8584990000000001,0.06178534,-0.043675844000000005,-0.12144015,-36.12,37.98,14.88
1554107820803,-3.6679169999999996,-9.361927,-1.7914615000000003,0.017044231,-0.02130529,-0.18002969,-36.18,37.92,14.88
1554107820825,-3.6487634,-9.314043,-1.7483658,-0.024501082,0.0031957934000000003,-0.18642128,-36.24,37.8,14.88
1554107820843,-3.2944214,-9.390657000000001,-1.6909049999999999,0.0,0.004261058,-0.10333065,-36.24,37.68,14.88
1554107820862,-3.3470940000000002,-9.452907000000002,-1.5472529,0.04261058,0.00958738,-0.09587380000000001,-36.24,37.62,14.88
1554107820883,-3.3470940000000002,-9.055469500000001,-1.6909049999999999,0.10013486,-0.004261058,-0.11930962,-36.3,37.62,14.88
1554107820903,-3.3901896000000002,-8.959702,-1.5951369,0.13635385,0.01917476,-0.11504856,-36.3,37.62,14.88
1554107820923,-3.4763808,-8.7538,-1.6095021,0.18109496,0.015978966,-0.10972224,-36.3,37.62,14.88
1554107820942,-3.371036,-8.734647,-1.7531542000000002,0.1949434,-0.004261058,-0.12676647,-36.3,37.56,14.88
1554107820963,-3.3375172999999996,-8.950125,-1.6142905,0.13635385,0.047936900000000005,-0.113983296,-36.3,37.56,14.88
1554107820982,-3.4093432,-9.141661000000001,-1.5328877,0.112918034,0.10865697,-0.10865697,-36.36,37.56,14.88
1554107821002,-3.1507695,-9.093777000000001,-1.7340006000000001,0.043675844000000005,0.11611383,-0.13209279,-36.36,37.56,14.94
1554107821023,-3.1986535,-9.376292,-2.0500352,-0.07669904,0.16724652,-0.1107875,-36.42,37.56,14.94
1554107821043,-3.3087866000000004,-9.644442999999999,-1.4850036,-0.17789917,0.21198763,-0.09054748,-36.42,37.56,14.88
1554107821064,-3.3375172999999996,-9.548675,-1.3940238999999999,-0.18535602,0.22583607,-0.10759171,-36.48,37.62,14.88
1554107821083,-3.4859576,-9.314043,-1.9877859,-0.1470065,0.18216023,-0.12144015,-36.54,37.62,14.88
1554107821102,-3.2944214,-9.189544999999999,-1.9015948,-0.12037488,0.19387813,-0.11824436,-36.6,37.62,14.88
1554107821122,-3.4045547999999997,-9.242217,-1.5855601000000001,-0.084155895,0.24501082,-0.112918034,-36.72,37.62,14.88
1554107821142,-3.5051112,-8.921394,-1.6142905,-0.008522116,0.26631612,-0.12463594,-36.78,37.62,14.88
1554107821162,-3.6296098,-8.729858,-1.6238673000000001,0.054328485999999995,0.26205507,-0.13422333,-36.84,37.56,14.82
1554107821182,-3.6918589999999996,-8.576628999999999,-1.7435773999999997,0.06604639400000001,0.27164245,-0.11824436,-36.9,37.5,14.76
1554107821203,-3.6631286,-8.792108,-1.5951369,0.06498113,0.29827404,-0.10652645,-37.02,37.44,14.64
1554107821223,-3.5817258,-8.84478,-1.7962499,0.08628642,0.25992453,-0.12783173,-37.14,37.32,14.58
1554107821242,-3.5529952000000007,-8.907029,-1.8872293999999998,0.07882957,0.23329292,-0.12037488,-37.26,37.26,14.46
1554107821262,-3.5817258,-9.179967999999999,-1.4466964,0.060720075,0.24714136,-0.07882957,-37.32,37.14,14.34
1554107821282,-3.5242648,-9.342773,-1.5759833,0.07563378,0.18642128,-0.05539375,-37.5,37.02,14.22
1554107821302,-3.323152,-9.505579,-1.714847,0.084155895,0.14274544,-0.036218993,-37.8,36.9,13.98
1554107821324,-3.3470940000000002,-9.539098,-1.9303252,0.11717909,0.14594123,-0.05006743,-37.98,36.84,13.86
1554107821342,-3.4332852,-9.476849000000001,-1.5520413,0.12783173,0.1587244,-0.08628642,-38.16,36.78,13.8
1554107821362,-3.4476504,-9.299678,-1.5041572,0.16831179,0.14913702,-0.11611383,-38.28,36.66,13.74
1554107821383,-3.3614593,-9.160814,-1.6478093,0.1768339,0.14168017,-0.096939065,-38.46,36.6,13.5
1554107821403,-3.3997664,-9.012374000000001,-1.6047136999999998,0.17576863,0.13528858,-0.09267801,-38.58,36.54,13.32
1554107821423,-3.2369606,-8.950125,-2.0069396,0.13528858,0.14807177,-0.07989483,-38.7,36.42,13.14
1554107821442,-3.394978,-8.883087,-1.8776526000000002,0.1107875,0.19174760000000002,-0.06178534,-38.76,36.3,12.96
1554107821464,-3.3518825,-8.796896,-1.7340006000000001,0.06924219,0.21411815,-0.054328485999999995,-38.82,36.18,12.78
1554107821482,-3.4284968,-8.69155,-1.7483658,0.07030745599999999,0.21837921,-0.06604639400000001,-38.82,36.12,12.54
1554107821503,-3.3518825,-8.806473,-2.03567,0.07350325,0.22690132,-0.080960095,-38.88,36.06,12.36
1554107821522,-3.2082303,-8.959702,-2.03567,0.05752428,0.23755397,-0.08948222,-38.94,36.12,12.24
1554107821542,-3.2273839,-9.136872,-2.107496,0.056459017,0.21518342,-0.11824436,-39.06,36.12,12.12
1554107821563,-3.1603463,-9.069835000000001,-1.8872293999999998,0.051132694000000006,0.16298546,-0.17576863,-39.12,36.24,12.06
1554107821582,-3.2896330000000003,-9.021951,-1.882441,0.029827405,0.10333065,-0.18002969,-39.24,36.3,11.94
1554107821603,-3.2034418999999996,-8.954913000000001,-1.6573862000000001,0.004261058,0.054328485999999995,-0.17363810000000002,-39.3,36.42,11.88
1554107821623,-3.217807,-8.998009,-1.9015948,-0.014913702,0.010652645,-0.19281286,-39.42,36.48,11.76
1554107821642,-3.1411927000000004,-9.065046,-1.7675193999999999,-0.05006743,-0.041545313,-0.22903186,-39.48,36.6,11.7
1554107821663,-3.0597897,-9.218275,-1.9351135,-0.094808534,-0.040480047000000005,-0.28655612,-39.6,36.66,11.64
1554107821683,-2.9017725,-9.088988,-1.7531542000000002,-0.10013486,-0.056459017,-0.3206446,-39.66,36.72,11.58
1554107821702,-3.0358477,-9.141661000000001,-1.9925743000000002,-0.10226539,-0.07989483,-0.34194988,-39.78,36.66,11.46
1554107821722,-3.0310593,-9.184756,-1.8489223000000001,-0.12463594,-0.09161274,-0.33555830000000003,-39.9,36.54,11.4
1554107821743,-3.0071173,-9.256582,-1.4466964,-0.11717909,-0.11504856,-0.32170987,-40.08,36.36,11.4
1554107821763,-2.9113493,-9.390657000000001,-1.7435773999999997,-0.11504856,-0.15765914,-0.28975195,-40.2,36.12,11.4
1554107821782,-2.8491,-9.47206,-1.9829974999999997,-0.13209279,-0.15126756,-0.25566345,-40.32,35.88,11.34
1554107821802,-2.8491,-9.534309,-1.6956933999999997,-0.13315806,-0.08948222,-0.221575,-40.44,35.64,11.34
1554107821822,-2.825158,-9.644442999999999,-1.5520413,-0.098004326,-0.096939065,-0.22050974,-40.56,35.34,11.28
1554107821843,-2.705448,-9.438541,-1.6621746,-0.047936900000000005,-0.11824436,-0.2066613,-40.62,34.98,11.28
1554107821862,-2.7150247000000003,-9.381081,-1.7962499,0.0063915867,-0.11717909,-0.16192019,-40.68,34.68,11.28
1554107821883,-2.7102362999999996,-9.428965,-1.7052702000000002,0.0063915867,-0.101200126,-0.111852765,-40.68,34.5,11.34
1554107821903,-2.6623523,-9.405023,-1.6573862000000001,-0.0031957934000000003,-0.07350325,-0.10759171,-40.74,34.32,11.34
1554107821922,-2.5809495,-9.275736,-1.8010383,0.00958738,-0.07669904,-0.12037488,-40.74,34.14,11.4
1554107821943,-2.6431987,-9.275736,-1.8680758000000002,0.026631612000000002,-0.049002163,-0.09267801,-40.74,34.02,11.46
1554107821963,-2.6048915,-9.419388,-1.5089456,0.06285059999999999,-0.00958738,-0.05539375,-40.8,33.9,11.58
1554107821983,-2.5091232999999997,-9.452907000000002,-1.6286557,0.09161274,-0.024501082,-0.049002163,-40.86,33.78,11.64
1554107822002,-2.5043349999999998,-9.32362,-1.6478093,0.10333065,-0.03834952,-0.051132694000000006,-40.86,33.72,11.76
1554107822022,-2.4708161,-9.433753,-1.8537107,0.08522116,-0.03089267,-0.039414786,-40.92,33.66,11.82
1554107822043,-2.5091232999999997,-9.409811,-1.6047136999999998,0.06604639400000001,-0.013848438000000001,-0.039414786,-40.98,33.6,11.88
1554107822064,-2.5378537,-9.558251,-1.7292121999999999,0.040480047000000005,-0.012783173500000002,-0.043675844000000005,-41.1,33.54,11.94
1554107822082,-2.6240451,-9.395446000000002,-1.6286557,0.002130529,0.0053263223,-0.022370555,-41.22,33.54,12.0
1554107822103,-2.6192567,-9.47206,-1.5328877,-0.011717908999999999,0.00958738,-0.00958738,-41.22,33.54,12.06
1554107822122,-2.5713725,-9.448118,-1.5520413,-0.011717908999999999,0.00958738,-0.00958738,-41.28,33.48,12.06
1554107822143,-2.6384103,-9.376292,-1.7052702000000002,-0.002130529,0.06498113,0.002130529,-41.4,33.48,12.0
1554107822162,-2.5330652999999996,-9.381081,-1.5951369,0.046871635999999994,0.07030745599999999,-0.018109497,-41.52,33.54,12.0
1554107822182,-2.6527755,-9.428965,-1.7483658,0.098004326,0.058589544,-0.023435817999999997,-41.58,33.54,12.06
1554107822202,-2.6001031,-9.208698,-1.7340006000000001,0.13102753,0.06498113,-0.013848438000000001,-41.64,33.48,12.06
1554107822223,-2.7150247000000003,-9.309255,-1.7770962,0.13528858,0.07350325,-0.012783173500000002,-41.58,33.48,12.06
1554107822242,-2.695871,-9.20391,-1.834557,0.10013486,0.049002163,-0.018109497,-41.58,33.48,12.0
1554107822263,-2.6767175,-9.223063,-1.8872293999999998,0.06711166,0.017044231,-0.020240024,-41.58,33.42,12.0
1554107822283,-2.6767175,-9.179967999999999,-1.7770962,0.041545313,0.008522116,-0.025566347000000003,-41.52,33.48,12.0
1554107822302,-2.681506,-9.266159,-1.6813281999999998,0.025566347000000003,0.00958738,-0.036218993,-41.52,33.48,12.0
1554107822322,-2.8203697,-9.156025999999999,-1.7531542000000002,0.025566347000000003,-0.007456851,-0.06924219,-41.46,33.48,11.88
1554107822342,-2.7246015,-9.0794115,-1.9829974999999997,0.04474111,-0.034088463,-0.08948222,-41.46,33.54,11.82
1554107822363,-2.7341783,-9.208698,-1.9015948,0.05965481,-0.03834952,-0.10226539,-41.4,33.6,11.76
1554107822383,-2.7581203,-9.194333,-1.8537107,0.06391586,-0.04580637,-0.101200126,-41.4,33.66,11.7
1554107822402,-2.7485435000000003,-9.318831,-1.7866731,0.035153727999999995,-0.07882957,-0.099069595,-41.34,33.72,11.58
1554107822423,-2.695871,-9.256582,-1.882441,0.004261058,-0.11611383,-0.101200126,-41.28,33.72,11.52
1554107822443,-2.6240451,-9.333197,-1.8106151000000001,0.0,-0.11824436,-0.10333065,-41.28,33.72,11.46
1554107822462,-2.585738,-9.405023,-1.7531542000000002,-0.0010652645,-0.113983296,-0.09374327,-41.28,33.78,11.34
1554107822482,-2.5330652999999996,-9.371504,-1.7914615000000003,0.0053263223,-0.12037488,-0.07882957,-41.28,33.78,11.34
1554107822503,-2.6048915,-9.35235,-1.8010383,0.0031957934000000003,-0.12037488,-0.07137272,-41.28,33.84,11.34
1554107822523,-2.4899697,-9.390657000000001,-1.7100586,-0.002130529,-0.112918034,-0.060720075,-41.28,33.84,11.34
1554107822543,-2.5474305,-9.366715,-1.8058267,-0.008522116,-0.11504856,-0.053263225,-41.34,33.9,11.4
1554107822562,-2.3894134,-9.390657000000001,-1.6956933999999997,-0.029827405,-0.13209279,-0.04580637,-41.4,33.96,11.4
1554107822583,-2.3798366,-9.333197,-1.8249803,-0.046871635999999994,-0.1438107,-0.029827405,-41.4,34.02,11.4
1554107822602,-2.4181437000000003,-9.32362,-1.6956933999999997,-0.047936900000000005,-0.15233281,-0.012783173500000002,-41.46,34.08,11.4
1554107822622,-2.3942018,-9.199121,-1.7435773999999997,-0.06498113,-0.15020229,-0.015978966,-41.4,34.08,11.34
1554107822643,-2.3319526,-9.270947,-1.7340006000000001,-0.08522116,-0.113983296,-0.023435817999999997,-41.34,34.14,11.34
1554107822662,-2.4133554,-9.314043,-1.5233108,-0.082025364,-0.08522116,-0.05006743,-41.22,34.14,11.34
1554107822688,-2.4181437000000003,-9.409811,-1.3269863000000002,-0.05219796,-0.053263225,-0.07350325,-41.1,34.02,11.46
1554107822703,-2.456451,-9.424176,-1.4275428,-0.037284255,-0.054328485999999995,-0.07456851,-41.04,33.96,11.52
1554107822722,-2.4612392999999995,-9.433753,-1.4562732,-0.026631612000000002,-0.04474111,-0.056459017,-40.98,33.9,11.58
1554107822743,-2.4468741,-9.529521,-1.4562732,-0.017044231,-0.03195793,-0.02876214,-40.92,33.78,11.7
1554107822763,-2.5139117000000004,-9.433753,-1.6621746,-0.01917476,-0.036218993,-0.023435817999999997,-40.8,33.66,11.88
1554107822784,-2.4756044999999998,-9.424176,-1.5759833,-0.02130529,0.002130529,-0.02130529,-40.74,33.54,12.06
1554107822803,-2.60968,-9.448118,-1.3988123,-0.0063915867,0.026631612000000002,-0.040480047000000005,-40.8,33.48,12.24
1554107822823,-2.6527755,-9.299678,-1.4706384,0.011717908999999999,0.026631612000000002,-0.056459017,-40.8,33.36,12.36
1554107822843,-2.6288335,-9.309255,-1.5616181,0.026631612000000002,0.01917476,-0.049002163,-40.8,33.3,12.48
1554107822862,-2.542642,-9.318831,-1.5089456,0.04580637,0.0053263223,-0.034088463,-40.86,33.3,12.48
1554107822883,-2.566584,-9.285313,-1.7340006000000001,0.04580637,0.010652645,-0.008522116,-40.92,33.3,12.48
1554107822902,-2.528277,-9.428965,-1.7531542000000002,0.034088463,0.033023197000000004,-0.007456851,-40.98,33.3,12.48
1554107822923,-2.6671407000000005,-9.294889,-1.6142905,0.007456851,0.054328485999999995,-0.011717908999999999,-41.04,33.3,12.48
1554107822942,-2.6479871,-9.237428999999999,-1.6047136999999998,-0.0010652645,0.05219796,-0.026631612000000002,-41.16,33.36,12.42
1554107822962,-2.5953147,-9.294889,-1.6525976999999998,0.010652645,0.05752428,-0.03195793,-41.28,33.36,12.42
1554107822983,-2.5187001,-9.366715,-1.7052702000000002,0.026631612000000002,0.058589544,-0.02876214,-41.34,33.36,12.36
1554107823003,-2.6623523,-9.395446000000002,-1.6430208999999998,0.015978966,0.06711166,-0.018109497,-41.46,33.36,12.3
1554107823023,-2.7198130000000003,-9.361927,-1.6142905,0.002130529,0.05752428,-0.01917476,-41.52,33.36,12.24
1554107823043,-2.566584,-9.218275,-1.5472529,-0.007456851,0.020240024,-0.02876214,-41.58,33.36,12.24
1554107823062,-2.6001031,-9.179967999999999,-1.5951369,0.007456851,-0.00958738,-0.040480047000000005,-41.58,33.36,12.12
1554107823082,-2.6001031,-9.088988,-1.6861166,0.017044231,-0.02130529,-0.05965481,-41.46,33.42,12.06
1554107823103,-2.5474305,-9.194333,-1.6909049999999999,0.015978966,-0.03834952,-0.09267801,-41.34,33.54,12.0
1554107823123,-2.542642,-9.328408,-1.6095021,0.007456851,-0.043675844000000005,-0.09374327,-41.22,33.6,11.94
1554107823143,-2.566584,-9.35235,-1.6765398,-0.0053263223,-0.060720075,-0.07989483,-41.16,33.66,11.94
1554107823162,-2.4899697,-9.342773,-1.6525976999999998,-0.02130529,-0.080960095,-0.05965481,-41.1,33.72,11.94
1554107823183,-2.456451,-9.285313,-1.7004818,-0.034088463,-0.099069595,-0.036218993,-40.98,33.84,11.88
1554107823202,-2.4420857000000002,-9.395446000000002,-1.762731,-0.026631612000000002,-0.07669904,-0.022370555,-40.92,33.84,11.88
1554107823223,-2.4037786,-9.337985,-1.4514848,-0.020240024,-0.04261058,-0.023435817999999997,-40.92,33.84,11.94
1554107823243,-2.5378537,-9.318831,-1.6286557,-0.018109497,-0.018109497,-0.03195793,-40.98,33.78,12.0
1554107823263,-2.432509,-9.414599,-1.6142905,-0.024501082,-0.004261058,-0.036218993,-40.98,33.72,12.06
1554107823282,-2.4612392999999995,-9.390657000000001,-1.4802152,-0.029827405,0.018109497,-0.04261058,-41.1,33.66,12.06
1554107823302,-2.4468741,-9.395446000000002,-1.5233108,-0.02876214,0.039414786,-0.053263225,-41.1,33.66,12.06
1554107823323,-2.4947581000000003,-9.318831,-1.4706384,-0.008522116,0.043675844000000005,-0.06391586,-41.1,33.6,12.06
1554107823343,-2.5234885,-9.366715,-1.6334441000000002,0.025566347000000003,0.039414786,-0.060720075,-41.16,33.54,12.12
1554107823362,-2.4612392999999995,-9.481637,-1.5711948999999998,0.041545313,0.043675844000000005,-0.05006743,-41.16,33.48,12.12
1554107823383,-2.456451,-9.395446000000002,-1.738789,0.04474111,0.043675844000000005,-0.05752428,-41.16,33.48,12.12
1554107823403,-2.4516625,-9.409811,-1.5903485000000002,0.033023197000000004,0.05006743,-0.058589544,-41.16,33.48,12.12
1554107823423,-2.6001031,-9.376292,-1.5089456,0.039414786,0.068176925,-0.058589544,-41.16,33.48,12.12
1554107823443,-2.4420857000000002,-9.256582,-1.6382325,0.051132694000000006,0.06711166,-0.05539375,-41.16,33.48,12.12
1554107823462,-2.4372973,-9.213486999999999,-1.6909049999999999,0.05219796,0.07989483,-0.03834952,-41.16,33.48,12.12
1554107823482,-2.4037786,-9.160814,-1.5711948999999998,0.03834952,0.10652645,-0.020240024,-41.16,33.48,12.12
1554107823502,-2.4420857000000002,-9.227852,-1.5041572,0.023435817999999997,0.11504856,-0.01917476,-41.1,33.48,12.06
1554107823523,-2.4899697,-9.213486999999999,-1.7052702000000002,0.013848438000000001,0.12144015,-0.01917476,-41.1,33.48,12.06
1554107823543,-2.5330652999999996,-9.20391,-1.8010383,0.0010652645,0.12570119999999999,-0.04474111,-41.1,33.48,12.06
1554107823563,-2.7724855,-9.44333,-1.7004818,-0.008522116,0.12357068,-0.07456851,-41.04,33.54,12.06
1554107823583,-3.0741549999999997,-9.706693,-1.7435773999999997,-0.023435817999999997,0.11824436,-0.07030745599999999,-41.04,33.54,12.0
1554107823603,-3.2465374,-10.017939,-1.8680758000000002,-0.03834952,0.09587380000000001,-0.034088463,-41.04,33.54,12.0
1554107823623,-3.4476504,-10.3770685,-1.9973627,-0.027696876000000002,0.03089267,0.04474111,-41.04,33.54,12.0
1554107823643,-3.7158010000000004,-10.487202,-2.03567,-0.004261058,-0.020240024,0.13422333,-41.1,33.54,12.0
1554107823662,-3.9695864000000003,-10.659583999999999,-2.0739772000000003,0.02130529,-0.08628642,0.28868666,-41.16,33.6,12.0
1554107823682,-4.232949,-10.554239,-2.059612,0.027696876000000002,-0.17044231,0.45060685,-41.22,33.6,12.0
1554107823702,-4.3287168,-10.439318,-1.9159599999999999,0.029827405,-0.26738137,0.5795039000000001,-41.22,33.6,12.0
1554107823724,-4.6495394999999995,-10.171167,-1.5999253,0.025566347000000003,-0.37284255,0.7094661,-41.22,33.66,12.0
1554107823742,-4.548983,-9.855133,-1.7292121999999999,0.04474111,-0.51026165,0.85327685,-41.1,33.72,12.0
1554107823762,-4.9320555,-9.644442999999999,-1.7818846999999998,0.05006743,-0.6423545,1.0056095999999999,-40.92,33.84,12.0
1554107823783,-5.114014599999999,-9.639654,-1.8441339,0.027696876000000002,-0.7275756,1.1291803,-40.5,34.44,12.0
1554107823803,-5.080496,-9.448118,-1.6861166,-0.053263225,-0.80533993,1.2442288000000001,-40.26,34.68,12.0
1554107823823,-5.2145715,-9.47206,-1.7866731,-0.128897,-0.8863,1.3337111000000001,-39.78,35.28,12.0
1554107823842,-5.272032299999999,-9.428965,-1.9207484000000001,-0.20559604,-0.95234644,1.4231933,-39.3,35.82,12.12
1554107823862,-5.3582234,-9.227852,-1.6047136999999998,-0.23435818,-1.0141318000000001,1.5094798,-38.64,36.48,12.3
1554107823883,-5.473145,-9.0315275,-1.5424645000000001,-0.1470065,-1.1036139999999999,1.6138756,-37.38,37.62,12.78
1554107823902,-5.592855,-8.902241,-1.5041572,-0.011717908999999999,-1.1313108,1.6671387999999998,-36.3,38.58,13.14
1554107823922,-5.588066599999999,-8.825626,-1.5520413,0.112918034,-1.1238540000000001,1.6831179,-35.76,39.0,13.32
1554107823943,-5.717354,-8.212710000000001,-1.0109516,0.2972088,-1.1068097,1.6852484,-33.84,40.14,14.1
1554107823963,-5.8322754,-7.872733599999999,-1.0013748,0.3898868,-1.1195928999999998,1.6809874,-32.46,40.92,14.58
1554107823983,-6.1818290000000005,-7.484873299999999,-0.8960299999999999,0.41864893,-1.1185277,1.6650082999999998,-30.96,41.76,15.06
1554107824003,-6.172251999999999,-6.9246297000000006,-0.65660983,0.3685815,-1.0982877,1.6479641,-29.22,42.72,15.48
1554107824022,-6.143522,-6.8288617,-0.66618663,0.27483824,-1.0663296999999998,1.6309198999999999,-27.6,43.74,15.78
1554107824042,-6.349423000000001,-6.5990186,-0.40282443,0.14061491,-0.99495703,1.6181368,-25.98,44.82,15.96
1554107824062,-6.617573299999999,-6.503250599999999,-0.0724246,0.06711166,-0.91825795,1.551025,-24.48,45.72,16.2
1554107824083,-6.646304,-6.0483522,0.19093758,0.10759171,-0.8426242,1.4764565,-22.92,46.5,16.26
1554107824102,-6.7133417,-5.919065,0.31543607,0.24927188,-0.7755125,1.4487596999999999,-21.42,47.22,16.26
1554107824123,-6.8091097000000005,-5.919065,0.6218939,0.4708469,-0.7254451,1.4551512,-19.98,47.76,16.32
1554107824142,-6.861782000000001,-5.847239,1.0767921999999999,0.737163,-0.71159667,1.4370418,-18.54,48.18,16.26
1554107824162,-6.9527617,-5.655703,0.96665895,0.9736517,-0.73609775,1.3741912,-17.28,48.48,16.2
1554107824183,-7.302314999999999,-5.119402,1.3784616000000003,1.1068097,-0.70200926,1.3134711000000001,-16.02,48.66,16.08
1554107824202,-7.3549875999999985,-4.9422307,1.4502877,1.1366372,-0.6668556,1.3187973,-14.82,48.6,15.78
1554107824223,-7.2592196,-4.573524,1.6801311,1.144094,-0.60507023,1.3315805,-13.68,48.66,15.36
1554107824242,-7.192182000000001,-4.31495,1.929128,1.1142666,-0.5336975,1.3038836999999999,-12.48,48.78,14.76
1554107824262,-7.1730285,-3.9223008000000004,2.3026235,1.0812434,-0.4708469,1.2367721,-11.28,49.14,14.04
1554107824283,-7.067683000000001,-3.3859997,2.4271219,1.0322412,-0.37071204,1.0471549,-10.14,49.44,13.26
1554107824302,-7.134721300000001,-3.2423477000000003,2.3840263,0.96299905,-0.27590349999999997,0.91612744,-9.12,49.8,12.48
1554107824322,-7.3071036,-3.0364463,2.532467,0.86499476,-0.19920446,0.8362325999999999,-8.22,50.1,11.76
1554107824343,-7.4363904000000005,-3.007716,2.3744495,0.71798825,-0.14274544,0.75420725,-7.26,50.4,11.1
1554107824362,-7.6518690000000005,-3.0268695,2.1924900000000003,0.50600064,-0.094808534,0.628506,-6.3,50.7,10.5
1554107824382,-8.063671000000001,-2.8640637000000004,2.40318,0.2428803,-0.036218993,0.44847634,-5.4,51.0,9.9
1554107824403,-8.566454,-2.4570496,2.5611973,0.012783173500000002,-0.011717908999999999,0.26418558,-4.68,51.12,9.42
1554107824422,-8.8777,-2.3038206000000003,2.8820202,-0.13315806,-0.004261058,0.23968449999999997,-4.14,51.06,9.0
1554107824442,-8.99741,-2.107496,2.867655,-0.13635385,0.0,0.28442562,-3.66,51.0,8.64
1554107824462,-8.930372,-2.3517046,3.0496144,-0.07243799,0.010652645,0.35473305,-3.24,50.94,8.28
1554107824482,-8.781932000000001,-2.5959132,3.198055,0.013848438000000001,-0.010652645,0.38882150000000004,-2.88,50.88,7.98
1554107824503,-8.676587,-2.6437972000000003,2.9203273999999997,0.047936900000000005,-0.04474111,0.31638354,-2.58,50.82,7.68
1554107824523,-8.872911,-2.3756466,2.7096379,0.04261058,-0.046871635999999994,0.19920446,-2.4,50.76,7.44
1554107824542,-9.121908,-2.2080526000000003,2.532467,-0.0010652645,-0.023435817999999997,0.14807177,-2.28,50.7,7.26
1554107824562,-9.064447,-2.0979192,2.690484,-0.027696876000000002,-0.03195793,0.13209279,-2.16,50.64,7.26
1554107824583,-9.174581,-1.9829974999999997,2.7048495,-0.037284255,-0.06391586,0.15552860000000002,-2.1,50.58,7.2
1554107824603,-9.050082000000002,-2.2224178,2.6809072,-0.041545313,-0.049002163,0.21411815,-1.98,50.4,7.14
1554107824622,-8.987833,-2.5432408,2.867655,-0.026631612000000002,-0.02876214,0.23222765,-1.92,50.28,7.14
1554107824642,-8.963891,-2.4187422,2.891597,-0.004261058,-0.03834952,0.16192019,-1.74,50.16,7.08
1554107824665,-8.987833,-2.0979192,2.6856956000000003,0.004261058,-0.05752428,0.12144015,-1.62,50.04,7.08
1554107824683,-9.002198,-1.9590555,2.7096379,0.010652645,-0.056459017,0.15126756,-1.38,49.92,7.08
1554107824703,-8.901641999999999,-1.9542671000000003,2.6330232999999996,0.06178534,-0.058589544,0.16405073,-1.14,49.68,7.02
1554107824723,-8.949525999999999,-1.8728642,2.7240029999999997,0.07563378,-0.058589544,0.15552860000000002,-1.02,49.62,7.02
1554107824743,-9.006986999999999,-1.6382325,2.6665419999999997,0.047936900000000005,-0.03195793,0.128897,-0.78,49.5,7.08
1554107824762,-8.983044999999999,-1.738789,2.7096379,-0.008522116,-0.007456851,0.14061491,-0.6,49.44,7.14
1554107824782,-9.045294,-1.762731,2.690484,-0.046871635999999994,0.004261058,0.1438107,-0.48,49.44,7.14
1554107824803,-9.021352,-1.6286557,2.570774,-0.06391586,-0.008522116,0.098004326,-0.3,49.32,7.14
1554107824822,-8.820239,-1.5759833,2.6569653,-0.06498113,-0.0063915867,0.084155895,-0.12,49.26,7.14
1554107824842,-8.920795,-1.5520413,2.9203273999999997,-0.047936900000000005,0.0053263223,0.094808534,-0.06,49.2,7.14
1554107824863,-8.916007,-1.9015948,2.8532897999999998,-0.051132694000000006,-0.025566347000000003,0.096939065,0.12,49.02,7.08
1554107824883,-8.925583999999999,-1.8584990000000001,2.6569653,-0.084155895,-0.047936900000000005,0.03834952,0.18,48.96,7.08
1554107824903,-9.208099,-1.6669630000000002,2.5037365,-0.18429075,-0.022370555,-0.013848438000000001,0.42,48.78,7.08
1554107824922,-9.370906,-1.8920178,2.7814639,-0.23222765,-0.0053263223,0.049002163,0.54,48.66,7.08
1554107824943,-9.217675999999999,-2.0069396,2.7766755,-0.2130529,-0.03195793,0.07776430000000001,0.72,48.54,7.14
1554107824962,-9.222465,-1.762731,2.8389246,-0.15552860000000002,-0.06924219,0.047936900000000005,0.84,48.42,7.14
1554107824983,-9.165004,-1.762731,2.8485014,-0.11824436,-0.10439592,0.07030745599999999,0.84,48.36,7.26
1554107825003,-8.887277000000001,-1.6334441000000002,2.8054059,-0.03834952,-0.08522116,0.08735169,0.9,48.3,7.32
1554107825022,-9.050082000000002,-1.5280992,3.1022868,-0.008522116,-0.08735169,0.06498113,0.96,48.3,7.44
1554107825043,-9.093178,-1.5664065,2.6856956000000003,-0.05539375,-0.06604639400000001,0.04261058,0.96,48.24,7.5
1554107825063,-8.930372,-1.441908,2.7240029999999997,-0.12037488,-0.05752428,0.0053263223,0.96,48.18,7.56
1554107825083,-9.078813,-1.5616181,2.8149827000000003,-0.19068234,0.0,-0.02876214,0.96,48.12,7.62
1554107825102,-8.892064999999999,-1.9303252,2.9682117000000003,-0.19174760000000002,0.033023197000000004,0.010652645,0.96,48.06,7.68
1554107825122,-8.930372,-2.03567,2.8628666000000003,-0.15446335,0.034088463,0.004261058,1.02,48.0,7.74
1554107825143,-8.978256,-1.8537107,2.7240029999999997,-0.1470065,0.034088463,-0.068176925,1.02,47.88,7.74
1554107825163,-9.040505,-1.5711948999999998,2.7527334999999997,-0.15339808,0.041545313,-0.068176925,1.08,47.82,7.74
1554107825183,-9.112331,-1.5376761,2.9346926,-0.14487597,0.053263225,-0.03834952,1.14,47.76,7.74
1554107825202,-9.188946000000001,-1.9351135,2.8101943,-0.1107875,0.02876214,0.054328485999999995,1.14,47.7,7.74
1554107825223,-8.820239,-2.0979192,2.843713,-0.12037488,-0.015978966,0.07243799,1.2,47.64,7.74
1554107825242,-8.8777,-1.7531542000000002,3.0496144,-0.04580637,0.0031957934000000003,-0.037284255,1.2,47.64,7.74
1554107825263,-9.275136999999999,-1.3413515,2.690484,0.0,-0.013848438000000001,-0.08948222,1.2,47.58,7.74
1554107825283,-8.868122999999999,-1.7244238,2.8101943,-0.07243799,-0.007456851,-0.002130529,1.2,47.58,7.74
1554107825302,-9.006986999999999,-1.8249803,2.9059622000000003,-0.098004326,-0.014913702,-0.04580637,1.2,47.52,7.8
1554107825323,-9.050082000000002,-1.7962499,2.8772318,-0.13848437,-0.018109497,-0.09161274,1.2,47.46,7.8
1554107825342,-8.781932000000001,-2.0021513,2.4941597,-0.11930962,-0.068176925,-0.082025364,1.2,47.4,7.86
1554107825362,-8.825027,-1.6669630000000002,2.6138697,-0.09054748,-0.01917476,-0.12676647,1.2,47.34,7.98
1554107825382,-9.016563,-1.762731,2.5372553,-0.13741912,0.0053263223,-0.13102753,1.26,47.28,8.1
1554107825402,-9.02614,-2.0979192,2.5420437000000002,-0.18748654,0.015978966,-0.07350325,1.32,47.22,8.22
1554107825423,-8.896853,-2.0213048,2.4271219,-0.21837921,0.025566347000000003,-0.09374327,1.32,47.16,8.34
1554107825442,-9.030928999999999,-1.9494787,2.5276785,-0.2034655,0.034088463,-0.13209279,1.38,47.16,8.46
1554107825463,-8.738836000000001,-1.7579426,2.7862522999999997,-0.14274544,0.04580637,-0.12570119999999999,1.38,47.1,8.64
1554107825482,-8.528147,-1.9063831999999998,2.6617537000000002,-0.06178534,0.09161274,-0.18429075,1.32,47.1,8.82
1554107825503,-8.556877,-1.7052702000000002,3.0017304,-0.037284255,0.13741912,-0.32384038,1.26,47.1,9.0
1554107825522,-8.504205,-1.4083891000000002,2.460641,-0.082025364,0.10759171,-0.45699844,1.14,47.04,9.24
1554107825542,-8.37013,-1.5328877,2.5276785,-0.14274544,0.10013486,-0.45699844,1.08,47.04,9.36
1554107825562,-8.403648,-2.2224178,2.6521769,-0.19707392,0.06604639400000001,-0.44741106,0.96,46.98,9.54
1554107825583,-8.365341,-2.5049335999999998,2.5995044999999997,-0.24501082,0.058589544,-0.5209143,0.9,46.98,9.66
1554107825602,-8.24563,-2.5145104,2.5995044999999997,-0.28868666,0.060720075,-0.6689861,0.78,47.1,9.78
1554107825622,-8.0445175,-2.6725276,2.594716,-0.30360037,0.07456851,-0.793622,0.54,47.28,9.84
1554107825644,-8.082825,-2.4283189999999997,2.7431567,-0.28122982,0.06391586,-0.8564726,0.3,47.46,9.9
1554107825664,-7.972691499999999,-2.4905684,3.1022868,-0.23542345,0.03089267,-0.87351686,0.06,47.64,9.9
1554107825683,-7.97748,-2.806603,2.6378117000000003,-0.17363810000000002,-0.02130529,-0.91186637,-0.18,47.82,9.96
1554107825703,-7.714117999999999,-3.1657330000000004,2.345719,-0.12144015,-0.03089267,-1.015197,-0.48,48.0,10.14
1554107825723,-7.5034279999999995,-3.3764230000000004,2.4271219,-0.10226539,-0.02876214,-1.1526161,-0.78,48.18,10.38
1554107825743,-7.5082164,-3.4961330000000004,2.297835,-0.13315806,-0.013848438000000001,-1.2634037,-1.26,48.42,10.56
1554107825763,-7.479486,-3.7547068999999995,2.178125,-0.21518342,-0.022370555,-1.3432984,-1.8,48.6,10.74
1554107825782,-7.350199000000001,-4.137779,2.0248961,-0.3153183,-0.011717908999999999,-1.438107,-2.4,48.78,10.92
1554107825802,-7.3071036,-4.597466000000001,2.0105310000000003,-0.38456047,0.03089267,-1.5414376,-2.94,49.02,11.1
1554107825823,-7.225700999999999,-4.9901147,2.0871453,-0.39095205,0.07243799,-1.6149409,-3.6,49.32,11.22
1554107825843,-7.038953,-5.4210709999999995,1.9099745,-0.36964676,0.08841695,-1.6255935,-4.44,49.56,11.4
1554107825863,-6.8905125,-5.727529,1.9387047999999998,-0.33555830000000003,0.10439592,-1.6724651999999998,-5.46,49.86,11.46
1554107825883,-6.9958572,-6.192004,1.8046296000000002,-0.27696875,0.12037488,-1.7193368999999998,-6.48,50.22,11.64
1554107825902,-6.8091097000000005,-6.4840965,1.8908207,-0.1768339,0.12996227,-1.6990968000000002,-7.44,50.52,11.82
1554107825922,-6.7229185,-6.6516910000000005,1.7136499,-0.068176925,0.13635385,-1.6735305,-8.58,50.82,12.06
1554107825943,-6.5026517,-6.8863225,1.4598645000000001,-0.010652645,0.16937704,-1.6863136000000003,-9.66,51.0,12.3
1554107825963,-6.349423000000001,-6.8719573,1.2731166999999999,-0.06711166,0.21411815,-1.7108147,-10.68,51.18,12.54
1554107825983,-6.3589997,-7.1353197,1.0576386,-0.22796659,0.25353295,-1.7278589,-11.76,51.3,12.72
1554107826003,-6.229712999999999,-7.5950065,1.1294646000000002,-0.44634579999999996,0.2790993,-1.6969663000000001,-12.72,51.48,12.9
1554107826022,-5.899312999999999,-7.915829,1.2587515,-0.62531024,0.2908172,-1.6660736,-13.8,51.6,13.08
1554107826042,-5.779603,-8.140884,1.1198878,-0.6583334,0.28229508,-1.6437031000000002,-15.0,51.6,13.08
1554107826062,-5.4970870000000005,-8.389880999999999,1.2491747,-0.6199839,0.28655612,-1.6021577,-16.2,51.6,13.2
1554107826083,-5.449203,-8.638878,1.4263457,-0.50813115,0.28229508,-1.5797871,-17.34,51.42,13.44
1554107826103,-5.1235914000000005,-8.849568,1.1725603,-0.35153726,0.2790993,-1.5446335,-18.42,51.18,13.68
1554107826123,-5.185841,-8.988432000000001,1.0193313,-0.22264028,0.30679616,-1.4796523000000001,-19.62,50.94,13.92
1554107826142,-5.0757074,-9.0842,0.85652566,-0.18748654,0.3536678,-1.4050837999999999,-20.88,50.58,14.22
1554107826162,-4.927267,-9.179967999999999,0.64583594,-0.20879184,0.4133226,-1.3454291,-22.2,50.1,14.46
1554107826183,-4.7357309999999995,-9.366715,0.43035775,-0.35473305,0.4644553,-1.2708606000000002,-23.34,49.5,14.7
1554107826203,-4.879383,-9.577405,0.46387658,-0.53263223,0.5091964,-1.2048141,-24.42,48.78,14.88
1554107826223,-4.7500963,-9.68275,0.39205053,-0.65194184,0.5305017,-1.1163971000000001,-25.38,48.06,15.0
1554107826242,-4.510676,-9.68275,0.39205053,-0.65726817,0.52411014,-1.0173275,-26.34,47.46,15.0
1554107826262,-4.4963107,-9.797672,0.44472298,-0.5603291,0.5305017,-0.9171927,-27.42,46.86,15.0
1554107826283,-4.280833,-9.721058,0.32501290000000005,-0.39734364,0.5209143,-0.8298409999999999,-28.56,46.14,15.06
1554107826303,-4.4196963,-9.721058,0.21487960000000003,-0.22264028,0.5368933000000001,-0.7456851,-29.58,45.3,15.06
1554107826323,-4.0845080000000005,-9.673173,0.28191724,-0.08522116,0.567786,-0.6775081999999999,-30.42,44.4,15.12
1554107826343,-4.0462008,-9.500791,0.04249708,-0.02130529,0.56672066,-0.62317973,-31.26,43.68,15.12
1554107826363,-4.036624,-9.491214,0.023343466,-0.027696876000000002,0.57311225,-0.5454154,-31.98,43.14,15.12
1554107826382,-3.9121256,-9.481637,-0.25917232,-0.14168017,0.5603291,-0.46871635,-32.64,42.48,15.18
1554107826403,-3.8738184,-9.467272,-0.3788824,-0.31957933,0.5336975,-0.41438788,-33.24,41.88,15.18
1554107826423,-3.6200330000000003,-9.68275,-0.25438392,-0.47297743,0.47617322,-0.34514567,-33.9,40.86,15.18
1554107826442,-3.6008794,-9.654019,-0.19692309,-0.45699844,0.38136467,-0.30786142,-34.38,40.2,15.18
1554107826463,-3.4237084,-9.658808,-0.31663316,-0.33875409999999995,0.28229508,-0.27483824,-34.8,39.84,15.12
1554107826483,-3.371036,-9.644442999999999,-0.20649989,-0.17576863,0.22264028,-0.22796659,-35.28,39.48,15.12
1554107826503,-3.241749,-9.634866,-0.22086509999999998,-0.040480047000000005,0.19813919,-0.18642128,-35.64,39.12,15.12
1554107826522,-3.1603463,-9.586982,-0.43634325,0.029827405,0.16085494,-0.17044231,-36.12,38.7,15.06
1554107826542,-3.1794999,-9.467272,-0.40761283,0.03089267,0.12783173,-0.15765914,-36.54,38.34,15.0
1554107826563,-2.9496564999999997,-9.357139,-0.30226797,-0.008522116,0.11611383,-0.14061491,-36.96,38.04,15.0
1554107826583,-3.040636,-9.467272,-0.55605334,-0.04474111,0.10333065,-0.12676647,-37.32,37.8,14.94
1554107826603,-2.791639,-9.433753,-0.6183026,-0.10013486,0.10439592,-0.08628642,-37.5,37.62,14.88
1554107826623,-2.767697,-9.586982,-0.5847838000000001,-0.111852765,0.099069595,-0.060720075,-37.62,37.5,14.88
1554107826643,-2.6479871,-9.625289,-0.6278794,-0.094808534,0.08522116,-0.049002163,-37.74,37.26,14.82
1554107826662,-2.6240451,-9.563039999999999,-0.55605334,-0.05006743,0.06924219,-0.04580637,-37.86,37.08,14.76
1554107826682,-2.6479871,-9.47206,-0.39803603,0.0063915867,0.06498113,-0.034088463,-37.92,36.9,14.64
1554107826703,-2.5234885,-9.419388,-0.65182143,0.05752428,0.04580637,-0.014913702,-38.04,36.78,14.64
1554107826723,-2.633622,-9.47206,-0.6183026,0.05539375,0.037284255,-0.0063915867,-38.1,36.66,14.58
1554107826742,-2.7198130000000003,-9.582193,-0.5895722,0.049002163,0.040480047000000005,-0.010652645,-38.16,36.54,14.52
1554107826762,-2.657564,-9.452907000000002,-0.7667431,0.02876214,0.040480047000000005,-0.02130529,-38.22,36.42,14.4
1554107826782,-2.6719291000000003,-9.357139,-0.623091,0.023435817999999997,0.058589544,-0.025566347000000003,-38.22,36.3,14.34
1554107826803,-2.6910827,-9.280524,-0.6278794,0.0010652645,0.06285059999999999,-0.029827405,-38.28,36.24,14.34
1554107826822,-2.5761611,-9.409811,-0.66618663,-0.039414786,0.07669904,-0.037284255,-38.28,36.24,14.28
1554107826842,-2.6767175,-9.371504,-0.8098387,-0.082025364,0.06711166,-0.034088463,-38.28,36.24,14.28
1554107826863,-2.6144682999999995,-9.452907000000002,-0.7092823,-0.10652645,0.07243799,-0.03834952,-38.34,36.24,14.28
1554107826883,-2.6910827,-9.553463,-0.83856916,-0.101200126,0.07030745599999999,-0.02876214,-38.28,36.24,14.28
1554107826903,-2.6431987,-9.405023,-0.6087258000000001,-0.07243799,0.054328485999999995,-0.029827405,-38.28,36.24,14.28
1554107826923,-2.6767175,-9.385869,-0.66618663,-0.012783173500000002,0.039414786,-0.037284255,-38.34,36.24,14.28
1554107826943,-2.7198130000000003,-9.223063,-0.7715314999999999,0.020240024,0.03195793,-0.03195793,-38.34,36.3,14.28
1554107826962,-2.695871,-9.261371,-0.76195467,0.020240024,0.026631612000000002,-0.035153727999999995,-38.34,36.3,14.28
1554107826982,-2.7341783,-9.328408,-0.9103952,-0.039414786,0.020240024,-0.036218993,-38.34,36.3,14.22
1554107827002,-2.7150247000000003,-9.251794,-1.0205284,-0.094808534,0.020240024,-0.06604639400000001,-38.34,36.3,14.16
1554107827025,-2.6719291000000003,-9.47206,-0.66618663,-0.128897,0.03195793,-0.06498113,-38.34,36.24,14.1
1554107827044,-2.7485435000000003,-9.543886,-0.65182143,-0.11504856,0.02876214,-0.060720075,-38.34,36.24,14.04
1554107827063,-2.7629087,-9.496002,-0.9103952,-0.09587380000000001,0.02876214,-0.07563378,-38.34,36.18,13.98
1554107827083,-2.6192567,-9.625289,-0.88645315,-0.080960095,0.047936900000000005,-0.056459017,-38.34,36.12,13.98
1554107827103,-2.6527755,-9.519944,-0.9247603999999999,-0.040480047000000005,0.037284255,-0.034088463,-38.34,36.06,13.92
1554107827123,-2.6384103,-9.385869,-0.84814596,-0.014913702,0.014913702,-0.027696876000000002,-38.4,36.0,13.86
1554107827142,-2.6862943,-9.35235,-1.0205284,-0.029827405,-0.0063915867,-0.018109497,-38.4,35.94,13.92
1554107827162,-2.6144682999999995,-9.390657000000001,-0.96785605,-0.06711166,0.0010652645,-0.010652645,-38.4,35.88,13.92
1554107827183,-2.6240451,-9.428965,-0.6853402,-0.10546118,0.008522116,-0.012783173500000002,-38.46,35.82,13.92
1554107827202,-2.7006595,-9.314043,-0.8194155000000001,-0.09161274,0.0,-0.020240024,-38.46,35.82,13.98
1554107827223,-2.6144682999999995,-9.376292,-1.0205284,-0.09374327,-0.007456851,-0.007456851,-38.46,35.82,13.98
1554107827242,-2.566584,-9.496002,-1.0157399999999999,-0.10226539,0.012783173500000002,-0.012783173500000002,-38.52,35.82,13.98
1554107827262,-2.6384103,-9.543886,-0.8146270999999999,-0.06285059999999999,0.007456851,-0.015978966,-38.52,35.7,13.98
1554107827283,-2.657564,-9.558251,-1.0157399999999999,-0.046871635999999994,-0.0031957934000000003,-0.004261058,-38.58,35.64,13.98
1554107827302,-2.5809495,-9.610924,-1.073201,-0.011717908999999999,0.0063915867,-0.0053263223,-38.58,35.52,14.04
1554107827323,-2.6384103,-9.596559,-0.7236475,0.033023197000000004,0.020240024,-0.014913702,-38.64,35.4,14.04
1554107827342,-2.6623523,-9.32362,-0.8242039000000001,0.080960095,-0.00958738,-0.033023197000000004,-38.7,35.28,14.1
1554107827362,-2.5474305,-9.376292,-0.97743285,0.08841695,-0.026631612000000002,-0.025566347000000003,-38.7,35.1,14.1
1554107827383,-2.6479871,-9.366715,-0.84814596,0.06285059999999999,-0.024501082,-0.027696876000000002,-38.7,34.98,14.16
1554107827403,-2.6767175,-9.218275,-0.86729956,0.025566347000000003,-0.03195793,-0.039414786,-38.7,34.86,14.16
1554107827422,-2.6001031,-9.213486999999999,-0.9439139999999999,0.008522116,-0.039414786,-0.049002163,-38.7,34.68,14.22
1554107827442,-2.6479871,-9.247005,-0.9487024,-0.010652645,-0.027696876000000002,-0.046871635999999994,-38.76,34.56,14.28
1554107827463,-2.7006595,-9.1512375,-0.8098387,0.004261058,0.014913702,-0.068176925,-38.76,34.5,14.34
1554107827482,-2.7724855,-9.247005,-0.9295488000000001,0.025566347000000003,0.015978966,-0.07030745599999999,-38.76,34.44,14.34
1554107827503,-2.633622,-9.314043,-0.9103952,0.03089267,0.041545313,-0.040480047000000005,-38.82,34.44,14.4
1554107827522,-2.5809495,-9.342773,-0.96785605,0.026631612000000002,0.053263225,-0.036218993,-38.88,34.44,14.46
1554107827542,-2.6719291000000003,-9.414599,-1.0013748,0.008522116,0.06498113,-0.02130529,-38.94,34.56,14.52
1554107827563,-2.657564,-9.462483,-1.0875661,0.0,0.07137272,-0.0010652645,-39.0,34.62,14.58
1554107827583,-2.6527755,-9.409811,-1.0013748,-0.011717908999999999,0.07563378,0.0,-39.0,34.68,14.58
1554107827602,-2.6288335,-9.275736,-1.049259,-0.017044231,0.060720075,-0.020240024,-38.94,34.8,14.64
1554107827623,-2.695871,-9.275736,-1.1881226,-0.011717908999999999,0.05006743,-0.020240024,-38.94,34.92,14.52
1554107827643,-2.6527755,-9.357139,-0.96785605,-0.02130529,0.040480047000000005,-0.037284255,-38.88,35.04,14.4
1554107827663,-2.657564,-9.299678,-1.0971429,-0.020240024,0.040480047000000005,-0.05006743,-38.82,35.1,14.28
1554107827682,-2.6623523,-9.179967999999999,-1.0540473,-0.02876214,0.017044231,-0.05539375,-38.7,35.22,14.16
1554107827702,-2.6623523,-9.299678,-0.99179804,-0.034088463,-0.008522116,-0.060720075,-38.64,35.28,14.04
1554107827723,-2.6384103,-9.376292,-0.98700964,-0.047936900000000005,-0.014913702,-0.07030745599999999,-38.52,35.34,13.98
1554107827743,-2.6767175,-9.361927,-0.8912416,-0.058589544,-0.018109497,-0.08841695,-38.46,35.4,13.92
1554107827763,-2.6048915,-9.381081,-0.9247603999999999,-0.06178534,-0.024501082,-0.07989483,-38.52,35.46,13.92
1554107827782,-2.6001031,-9.491214,-0.98700964,-0.054328485999999995,-0.036218993,-0.07350325,-38.46,35.46,13.92
1554107827802,-2.6192567,-9.496002,-0.9247603999999999,-0.047936900000000005,-0.053263225,-0.07776430000000001,-38.46,35.46,14.04
1554107827823,-2.5570072999999995,-9.553463,-1.1689690000000001,-0.03089267,-0.06285059999999999,-0.07669904,-38.46,35.46,14.1
1554107827843,-2.6384103,-9.529521,-0.99658644,0.002130529,-0.06498113,-0.07776430000000001,-38.46,35.4,14.16
1554107827862,-2.6431987,-9.519944,-1.0540473,0.01917476,-0.06604639400000001,-0.07669904,-38.46,35.34,14.28
1554107827883,-2.5809495,-9.539098,-0.95827925,0.0063915867,-0.05752428,-0.05539375,-38.46,35.28,14.28
1554107827903,-2.6001031,-9.529521,-1.1785458,-0.007456851,-0.054328485999999995,-0.05006743,-38.46,35.22,14.28
1554107827923,-2.5474305,-9.543886,-1.0013748,-0.015978966,-0.020240024,-0.039414786,-38.4,35.16,14.28
1554107827943,-2.566584,-9.251794,-1.0348936,-0.012783173500000002,-0.0063915867,-0.040480047000000005,-38.4,35.1,14.28
1554107827963,-2.5474305,-9.251794,-1.0923545000000001,-0.007456851,0.007456851,-0.033023197000000004,-38.4,35.1,14.34
1554107827983,-2.528277,-9.294889,-1.0013748,0.002130529,0.02130529,-0.025566347000000003,-38.4,35.04,14.34
1554107828003,-2.6048915,-9.285313,-1.0923545000000001,0.008522116,0.03089267,-0.033023197000000004,-38.34,35.04,14.4
1554107828022,-2.566584,-9.261371,-1.1689690000000001,0.0010652645,0.029827405,-0.037284255,-38.34,35.04,14.46
1554107828042,-2.5617957000000002,-9.371504,-1.1019313,-0.027696876000000002,0.039414786,-0.05219796,-38.28,35.1,14.52
1554107828063,-2.566584,-9.376292,-0.98222125,-0.036218993,0.03195793,-0.06711166,-38.28,35.1,14.58
1554107828083,-2.4660277,-9.337985,-1.2216414,-0.05752428,0.012783173500000002,-0.07669904,-38.28,35.1,14.58
1554107828103,-2.5617957000000002,-9.390657000000001,-1.3269863000000002,-0.06924219,0.0053263223,-0.07882957,-38.28,35.1,14.64
1554107828122,-2.5761611,-9.35235,-0.9199719999999999,-0.06498113,0.010652645,-0.07137272,-38.28,35.1,14.64
1554107828143,-2.4085669999999997,-9.371504,-1.1641805,-0.056459017,-0.00958738,-0.080960095,-38.28,35.1,14.64
1554107828163,-2.6719291000000003,-9.452907000000002,-1.3509283,-0.06391586,-0.0031957934000000003,-0.080960095,-38.34,35.1,14.64
1554107828183,-2.585738,-9.357139,-0.9343372,-0.06391586,0.025566347000000003,-0.07137272,-38.4,35.1,14.64
1554107828202,-2.4756044999999998,-9.309255,-1.0109516,-0.047936900000000005,0.008522116,-0.06498113,-38.46,35.04,14.52
1554107828223,-2.5905263,-9.32362,-1.2886791000000002,-0.04474111,0.008522116,-0.053263225,-38.52,34.98,14.46
1554107828243,-2.5953147,-9.433753,-1.0827777,-0.043675844000000005,0.039414786,-0.049002163,-38.58,34.92,14.34
1554107828263,-2.5953147,-9.414599,-0.98222125,-0.03195793,0.046871635999999994,-0.058589544,-38.64,34.86,14.28
1554107828283,-2.4899697,-9.390657000000001,-1.1115081,-0.007456851,0.039414786,-0.053263225,-38.7,34.74,14.22
1554107828303,-2.432509,-9.424176,-1.1354501000000001,0.012783173500000002,0.05539375,-0.039414786,-38.76,34.74,14.16
1554107828322,-2.4372973,-9.481637,-1.049259,0.015978966,0.06711166,-0.049002163,-38.88,34.56,14.1
1554107828342,-2.480393,-9.328408,-1.1210848999999998,0.034088463,0.05006743,-0.07350325,-38.94,34.5,14.1
1554107828363,-2.4229321,-9.381081,-1.2503718000000001,0.05219796,0.037284255,-0.06285059999999999,-39.0,34.44,14.1
1554107828382,-2.4899697,-9.424176,-1.2312181999999998,0.05219796,0.035153727999999995,-0.05752428,-39.06,34.44,14.16
1554107828403,-2.5474305,-9.409811,-1.1450268999999997,0.025566347000000003,0.03834952,-0.068176925,-39.06,34.44,14.16
1554107828422,-2.5713725,-9.496002,-1.0875661,0.01917476,0.047936900000000005,-0.05752428,-39.12,34.44,14.16
1554107828442,-2.566584,-9.510367,-1.192911,0.017044231,0.047936900000000005,-0.046871635999999994,-39.12,34.44,14.16
1554107828463,-2.5809495,-9.496002,-1.2072762,0.025566347000000003,0.049002163,-0.03089267,-39.12,34.5,14.16
1554107828482,-2.5570072999999995,-9.529521,-1.0971429,0.035153727999999995,0.043675844000000005,-0.022370555,-39.12,34.5,14.16
1554107828503,-2.5330652999999996,-9.448118,-1.3317747,0.047936900000000005,0.03195793,-0.002130529,-39.12,34.5,14.16
1554107828522,-2.5474305,-9.32362,-1.2455834,0.05752428,0.023435817999999997,0.015978966,-39.18,34.5,14.16
1554107828542,-2.5713725,-9.304466,-1.1115081,0.056459017,0.035153727999999995,0.008522116,-39.24,34.44,14.16
1554107828563,-2.542642,-9.381081,-1.1162965,0.05965481,0.039414786,0.0053263223,-39.3,34.44,14.16
1554107828582,-2.552219,-9.208698,-1.1785458,0.00958738,0.040480047000000005,-0.002130529,-39.3,34.44,14.16
1554107828602,-2.6527755,-9.342773,-1.192911,-0.020240024,0.047936900000000005,-0.013848438000000001,-39.36,34.5,14.16
1554107828623,-2.5378537,-9.314043,-1.0684125,-0.04474111,0.05219796,-0.033023197000000004,-39.36,34.5,14.1
1554107828643,-2.60968,-9.409811,-1.2934675,-0.04580637,0.04580637,-0.04261058,-39.42,34.56,14.1
1554107828663,-2.5378537,-9.486425,-1.0827777,-0.025566347000000003,0.05006743,-0.017044231,-39.48,34.62,14.1
1554107828682,-2.552219,-9.481637,-1.1450268999999997,-0.0010652645,0.04261058,-0.018109497,-39.48,34.68,14.1
1554107828702,-2.5953147,-9.452907000000002,-1.1833341999999998,0.014913702,0.025566347000000003,-0.012783173500000002,-39.48,34.68,14.1
1554107828723,-2.5809495,-9.467272,-1.216853,0.012783173500000002,0.015978966,-0.008522116,-39.54,34.74,14.04
1554107828744,-2.6144682999999995,-9.481637,-1.2838906,-0.008522116,0.00958738,-0.0053263223,-39.54,34.8,14.04
1554107828763,-2.5809495,-9.510367,-1.240795,-0.015978966,0.008522116,-0.013848438000000001,-39.6,34.8,14.04
1554107828783,-2.5617957000000002,-9.409811,-1.0971429,0.0,-0.0063915867,-0.017044231,-39.6,34.8,14.04
1554107828802,-2.5234885,-9.32362,-1.1881226,0.020240024,-0.024501082,-0.023435817999999997,-39.6,34.8,13.98
1554107828823,-2.4372973,-9.218275,-1.049259,0.027696876000000002,-0.025566347000000003,-0.043675844000000005,-39.6,34.74,13.92
1554107828842,-2.456451,-9.237428999999999,-1.1976993999999999,-0.007456851,-0.025566347000000003,-0.05752428,-39.6,34.74,13.92
1554107828862,-2.4181437000000003,-9.280524,-1.1785458,-0.056459017,-0.018109497,-0.068176925,-39.66,34.74,13.86
1554107828882,-2.4947581000000003,-9.361927,-1.1354501000000001,-0.083090626,-0.013848438000000001,-0.083090626,-39.66,34.68,13.86
1554107828903,-2.4037786,-9.385869,-1.216853,-0.07882957,-0.011717908999999999,-0.09267801,-39.66,34.68,13.8
1554107828923,-2.4133554,-9.371504,-1.2360066,-0.06391586,-0.014913702,-0.082025364,-39.72,34.68,13.68
1554107828942,-2.4037786,-9.563039999999999,-1.1785458,-0.060720075,-0.014913702,-0.06711166,-39.78,34.68,13.68
1554107828962,-2.3223755,-9.601347,-1.1881226,-0.07030745599999999,-0.0053263223,-0.06604639400000001,-39.84,34.62,13.62
1554107828983,-2.327164,-9.644442999999999,-1.3317747,-0.07030745599999999,0.017044231,-0.05965481,-39.84,34.62,13.62
1554107829003,-2.2936451,-9.610924,-1.3844471,-0.054328485999999995,0.041545313,-0.04474111,-39.9,34.62,13.62
1554107829023,-2.2122424,-9.524733,-1.039682,-0.043675844000000005,0.07137272,-0.02876214,-39.96,34.56,13.74
1554107829042,-2.2888567,-9.438541,-1.0684125,-0.043675844000000005,0.09161274,-0.023435817999999997,-39.96,34.56,13.74
1554107829062,-2.2888567,-9.35235,-1.073201,-0.036218993,0.12996227,-0.002130529,-39.96,34.5,13.92
1554107829083,-2.2697031,-9.35235,-0.87687635,-0.007456851,0.1587244,0.0053263223,-39.9,34.44,13.98
1554107829103,-2.2888567,-9.414599,-0.9295488000000001,0.010652645,0.19707392,0.015978966,-39.9,34.44,14.1
1554107829122,-2.1643584,-9.505579,-0.9008184000000001,0.020240024,0.22583607,0.018109497,-39.84,34.38,14.16
1554107829142,-2.1308396000000003,-9.59177,-1.1210848999999998,0.020240024,0.30466563,0.00958738,-39.84,34.38,14.28
1554107829162,-2.135628,-9.697116000000001,-1.1210848999999998,0.013848438000000001,0.37603834,-0.007456851,-39.78,34.32,14.28
1554107829183,-2.0350714,-9.807249,-1.2312181999999998,0.0053263223,0.42930159999999995,-0.0010652645,-39.72,34.32,14.28
1554107829202,-2.0111293999999997,-9.960478,-1.1881226,0.008522116,0.4825648,0.025566347000000003,-39.72,34.38,14.28
1554107829222,-2.1021092,-9.936536,-1.1833341999999998,0.027696876000000002,0.5091964,0.05219796,-39.72,34.38,14.28
1554107829242,-1.9440918000000003,-9.89344,-1.3796587,0.094808534,0.5539375,0.09374327,-39.72,34.44,14.16
1554107829262,-1.9393034,-9.625289,-1.2312181999999998,0.16192019,0.588026,0.12676647,-39.78,34.44,13.98
1554107829282,-2.0781669999999997,-9.47206,-1.1976993999999999,0.19387813,0.6125271,0.14168017,-39.78,34.44,13.74
1554107829302,-2.1308396000000003,-9.314043,-1.3030443,0.20559604,0.6412892,0.1438107,-39.84,34.44,13.44
1554107829322,-2.1021092,-9.208698,-1.4323312,0.17789917,0.6870956,0.15659387,-39.9,34.44,13.14
1554107829343,-2.1021092,-9.132083999999999,-1.3844471,0.12676647,0.7414241,0.1438107,-40.02,34.44,12.78
1554107829363,-2.15957,-9.122507,-1.4227544,0.12144015,0.78936094,0.12357068,-40.08,34.38,12.36
1554107829382,-2.2026656000000004,-9.208698,-1.4562732,0.13954964,0.8181231,0.10865697,-40.26,34.38,11.88
1554107829402,-2.135628,-9.189544999999999,-1.4323312,0.18322548,0.8341021000000001,0.080960095,-40.44,34.44,11.52
1554107829422,-2.15957,-9.318831,-1.6238673000000001,0.21198763,0.8905610999999999,0.029827405,-40.56,34.56,11.16
1554107829443,-2.0925324,-9.467272,-1.6669630000000002,0.18322548,0.9406285,0.0010652645,-40.68,34.68,10.8
1554107829462,-2.1212628,-9.524733,-1.7818846999999998,0.12250541,0.9757822,-0.0031957934000000003,-40.86,34.8,10.44
1554107829482,-2.0398598000000003,-9.879075,-1.963844,0.08948222,1.0088054,0.0031957934000000003,-40.98,34.98,9.96
1554107829502,-2.0733786,-9.883863,-1.7818846999999998,0.094808534,1.0578076,0.008522116,-41.1,35.1,9.6
1554107829522,-2.0398598000000003,-9.917382,-1.6478093,0.14168017,1.0748518999999999,0.025566347000000003,-41.22,35.22,9.18
1554107829543,-2.0398598000000003,-9.946113,-1.8154035,0.21092236,1.0855045,0.05752428,-41.34,35.34,8.7
1554107829563,-2.1787236,-9.903017,-1.8632874,0.27483824,1.1004181999999998,0.07669904,-41.46,35.34,8.16
1554107829583,-2.0781669999999997,-9.77373,-2.0644004000000002,0.31105720000000003,1.1302456,0.096939065,-41.64,35.34,7.68
1554107829603,-2.0829554,-9.768942,-1.8106151000000001,0.3153183,1.1536813999999997,0.11824436,-41.88,35.34,7.2
1554107829623,-2.0685901999999996,-9.749788,-1.9542671000000003,0.3153183,1.1771171999999999,0.12996227,-42.12,35.34,6.6
1554107829643,-1.9440918000000003,-9.754577000000001,-1.8776526000000002,0.3206446,1.2016183,0.12676647,-42.42,35.34,5.94
1554107829663,-1.8770541,-9.701903999999999,-1.8489223000000001,0.35153726,1.2420983,0.1438107,-42.66,35.4,5.16
1554107829682,-1.8148049,-9.601347,-1.5807717,0.40266997,1.3134711000000001,0.1470065,-42.9,35.46,4.38
1554107829702,-1.9009962,-9.462483,-1.5376761,0.4644553,1.3646038,0.12570119999999999,-43.08,35.58,3.54
1554107829723,-1.9009962,-9.021951,-1.6909049999999999,0.50813115,1.4082796999999998,0.10759171,-43.32,35.94,2.34
1554107829743,-1.8674773,-9.088988,-1.7962499,0.5134575,1.433846,0.101200126,-43.32,36.06,1.86
1554107829762,-2.054225,-8.883087,-1.882441,0.5113269,1.4636733999999998,0.07882957,-43.38,36.3,0.96
1554107829782,-2.15957,-8.993219999999999,-1.5999253,0.5028047999999999,1.5020228999999998,0.06391586,-43.38,36.6,0.06
1554107829803,-2.1787236,-9.088988,-1.7292121999999999,0.49534798,1.5094798,0.043675844000000005,-43.38,36.9,-0.84
1554107829823,-2.2170308,-8.911817999999998,-1.7483658,0.49002165,1.5137408,0.035153727999999995,-43.38,37.26,-2.4
1554107829843,-2.2457612,-9.041103999999999,-1.8297686999999998,0.5070659000000001,1.5030881,0.037284255,-43.38,37.32,-2.94
1554107829862,-2.255338,-9.0315275,-1.6286557,0.5113269,1.4817829,0.041545313,-43.38,37.44,-4.02
1554107829883,-2.4133554,-9.055469500000001,-2.0069396,0.5134575,1.4210628,0.043675844000000005,-43.32,37.44,-5.1
1554107829903,-2.3319526,-9.156025999999999,-2.1027076,0.49428272,1.381648,0.051132694000000006,-43.32,37.44,-6.12
1554107829922,-2.5043349999999998,-9.218275,-2.0452468,0.49534798,1.3464943,0.03195793,-43.32,37.38,-7.44
1554107829943,-2.657564,-9.1272955,-2.0644004000000002,0.45486793,1.284709,0.043675844000000005,-43.26,37.32,-8.28
1554107829962,-2.7389667,-9.218275,-1.9925743000000002,0.41119209999999995,1.2218584,0.05965481,-43.2,37.26,-8.7
1554107829983,-2.7581203,-9.395446000000002,-2.3517046,0.34727620000000003,1.1568771999999998,0.07989483,-42.96,37.14,-9.96
1554107830003,-2.930503,-9.44333,-2.260725,0.32810146,1.1249193000000002,0.047936900000000005,-42.78,37.08,-10.8
1554107830023,-3.2513257999999996,-9.390657000000001,-1.9829974999999997,0.3206446,1.0855045,0.02876214,-42.6,37.08,-11.64
1554107830043,-3.4524388,-9.405023,-2.0117279999999997,0.2972088,1.0045444,0.09054748,-42.42,37.08,-12.48
1554107830063,-3.6774937999999993,-9.318831,-1.9351135,0.22583607,0.9193232,0.1768339,-42.24,37.08,-13.32
1554107830083,-3.916914,-9.725846,-2.1410147999999998,0.15552860000000002,0.809601,0.30253512,-42.06,37.08,-14.16
1554107830102,-4.1419687000000005,-9.850344999999999,-2.380435,0.15020229,0.79681784,0.3717773,-41.82,37.14,-14.88
1554107830122,-4.462791999999999,-9.673173,-1.6669630000000002,0.2908172,0.86499476,0.4314321,-41.64,37.14,-15.54
1554107830143,-4.8506527,-9.711481,-0.9487024,0.39734364,0.8213189000000001,0.56885123,-41.4,37.14,-16.14
1554107830163,-4.817133999999999,-9.59177,-1.0013748,0.38242993,0.6103965,0.63702816,-40.98,37.2,-16.68
1554107830183,-4.7788267,-9.989208,-1.2982559,0.39840892,0.4708469,0.68816084,-40.56,37.26,-17.16
1554107830202,-4.644751,-10.367492,-1.0779893,0.5134575,0.3653857,0.8064051999999999,-40.08,37.38,-17.64
1554107830222,-4.534618,-10.233417,-1.3748703000000002,0.531567,0.26312032,0.8905610999999999,-39.48,37.62,-18.12
1554107830242,-4.501099,-10.271724,-1.738789,0.48149952,0.18002969,1.051416,-38.82,37.86,-18.6
1554107830262,-4.405330999999999,-10.353127,-1.5999253,0.45273739999999996,0.13528858,1.1813782,-38.22,38.22,-19.02
1554107830283,-4.367024,-9.888652,-1.4083891000000002,0.4644553,0.080960095,1.3731258999999998,-37.68,38.64,-19.38
1554107830303,-4.343082,-9.654019,-1.5855601000000001,0.5134575,0.04580637,1.5052186,-37.2,39.06,-19.62
1554107830323,-4.405330999999999,-9.357139,-1.4036007,0.5656554,0.029827405,1.5286545,-36.66,39.48,-19.92
1554107830343,-4.501099,-9.093777000000001,-1.3174095,0.5837649,0.037284255,1.4913702,-35.88,39.9,-20.16
1554107830362,-4.606444000000001,-8.820838,-1.2934675,0.55606806,0.05006743,1.4572818,-34.98,40.26,-20.4
1554107830382,-4.8267107000000005,-8.696339,-1.1833341999999998,0.43356264,0.047936900000000005,1.454086,-34.14,40.62,-20.76
1554107830403,-4.9559975,-8.5383215,-1.3078326999999998,0.2428803,0.010652645,1.4913702,-33.24,40.92,-21.12
1554107830423,-5.2002063,-8.57184,-1.2216414,0.09587380000000001,-0.020240024,1.5222628999999999,-32.28,41.4,-21.42
1554107830443,-5.420472599999999,-8.480861,-1.1162965,0.04474111,-0.047936900000000005,1.5488945,-31.32,41.88,-21.66
1554107830462,-5.726930599999999,-8.370728,-1.1450268999999997,0.06498113,-0.08522116,1.5680691999999998,-30.18,42.42,-21.9
1554107830482,-6.066907,-8.203134,-1.0923545000000001,0.15339808,-0.10759171,1.5957662000000001,-29.04,43.02,-22.08
1554107830502,-6.3925184999999995,-8.073847,-0.86729956,0.26205507,-0.15126756,1.6394419999999998,-27.96,43.62,-22.26
1554107830522,-6.947973299999999,-7.729081599999999,-1.2695253999999998,0.350472,-0.22796659,1.6426378000000001,-27.06,44.28,-22.32
1554107830543,-7.2065472999999995,-7.6285253,-0.88166475,0.37816888,-0.25246766,1.6714,-26.1,44.88,-22.38
1554107830562,-7.225700999999999,-7.49445,-0.65660983,0.330232,-0.32490566,1.7470337,-25.14,45.42,-22.38
1554107830582,-7.3071036,-7.0587053,-0.3453636,0.34194988,-0.4250405,1.7971011000000001,-24.24,45.72,-22.38
1554107830602,-7.383717999999999,-6.508039,-0.0053869537,0.43462790000000007,-0.5475459,1.8791265,-23.22,46.02,-22.38
1554107830622,-7.5800424,-5.9142766,0.15741876,0.5613944000000001,-0.6540724,1.9579561,-22.32,46.2,-22.38
1554107830643,-7.723694999999999,-5.4545900000000005,0.39683893,0.66365975,-0.7254451,1.9845877,-21.3,46.32,-22.5
1554107830662,-7.699753,-4.9853263,0.8230068000000001,0.7414241,-0.7595335999999999,1.9515644,-20.34,46.38,-22.56
1554107830682,-7.967903,-4.2862196,0.9044097,0.79042625,-0.77231675,1.8823223000000002,-19.2,46.38,-22.74
1554107830703,-7.876923599999999,-3.8265328000000003,1.0911574,0.7840345999999999,-0.74035877,1.8301243999999999,-18.06,46.38,-23.1
1554107830722,-7.7428484,-3.6828809000000002,1.3736732,0.7584683000000001,-0.7094661,1.7853831999999998,-16.86,46.26,-23.46
1554107830742,-7.6614455999999995,-2.8401217,1.8956091,0.8330368,-0.6103965,1.6714,-15.24,45.78,-24.12
1554107830762,-7.675811,-2.4187422,2.1972785,0.88843054,-0.5219796,1.587244,-14.7,45.6,-24.42
1554107830783,-7.445967,-1.7818846999999998,2.2882583,0.9395633,-0.42077947,1.433846,-13.5,44.94,-25.2
1554107830803,-7.4746976,-1.4706384,2.168548,0.92038846,-0.3270362,1.293231,-12.9,44.4,-25.8
1554107830823,-7.6710224,-0.87687635,2.273893,0.8266452,-0.20879184,1.1100056,-12.42,43.74,-26.34
1554107830843,-8.006210000000001,-0.6039374,2.4271219,0.6892261,-0.12570119999999999,0.9214538000000001,-12.06,42.9,-26.88
1554107830862,-8.513782,-0.6135142,2.2691047,0.5592638000000001,-0.1107875,0.7946873000000001,-11.64,42.0,-27.3
1554107830883,-8.882488,-0.65182143,2.0727801,0.44101948,-0.13102753,0.700944,-11.22,41.04,-27.78
1554107830902,-9.083601,-0.6853402,2.0871453,0.2972088,-0.10333065,0.6061354999999999,-10.62,40.02,-28.14
1554107830923,-9.203311,-0.86729956,2.2499511,0.10759171,-0.11611383,0.5134575,-10.02,39.06,-28.5
1554107830942,-9.23683,-0.7715314999999999,2.1398177000000005,-0.0031957934000000003,-0.12144015,0.42397526,-9.36,38.22,-28.8
1554107830963,-9.232041,-0.56563014,2.178125,-0.12037488,-0.07350325,0.27696875,-8.76,37.44,-29.1
1554107830982,-9.5385,-0.374094,2.3983915000000002,-0.23435818,0.0010652645,0.2034655,-8.22,36.84,-29.4
1554107831003,-9.437942999999999,-1.0205284,2.4797945,-0.29188246,0.00958738,0.32490566,-7.8,36.36,-29.58
1554107831023,-9.260772,-1.1067197,2.4079683,-0.27483824,-0.018109497,0.39201729999999996,-7.5,36.06,-29.76
1554107831042,-8.590396,-0.99179804,2.9442697,-0.10546118,-0.06178534,0.30892670000000005,-7.32,36.0,-29.88
1554107831063,-8.963891,-0.35494040000000004,2.8341362,0.23116238,-0.10972224,0.10972224,-7.26,36.0,-30.0
1554107831083,-8.939949,-0.3645172,2.5276785,0.48363006,-0.1470065,0.12783173,-7.26,36.0,-30.12
1554107831103,-9.021352,-0.52732295,1.9387047999999998,0.47191215,-0.16298546,0.20026971,-7.26,36.0,-30.24
1554107831122,-9.198523,-0.88166475,1.7758990000000001,0.30466563,-0.12996227,0.20985709,-7.2,36.06,-30.3
1554107831143,-9.270349000000001,-0.85293436,1.9434932,-0.07989483,-0.07137272,0.10439592,-7.2,36.06,-30.36
1554107831163,-9.370906,-0.4794389,2.355296,-0.314253,-0.07030745599999999,0.039414786,-7.14,36.12,-30.42
1554107831183,-9.294291000000001,-0.32142156,2.5420437000000002,-0.24714136,-0.07456851,0.07776430000000001,-7.14,36.06,-30.48
1554107831203,-9.107543,-0.42676646,2.4797945,-0.068176925,-0.06498113,0.11611383,-7.08,35.94,-30.54
1554107831223,-9.198523,-0.694917,2.3744495,0.068176925,-0.058589544,0.13422333,-7.08,35.82,-30.6
1554107831242,-9.222465,-0.45070848,2.1637597,0.128897,-0.054328485999999995,0.07563378,-7.02,35.7,-30.6
1554107831263,-9.308656,-0.4938041,2.5372553,0.04580637,-0.022370555,0.03195793,-6.96,35.58,-30.6
1554107831282,-9.246407000000001,-0.54647654,2.5995044999999997,-0.017044231,-0.00958738,0.03195793,-6.96,35.4,-30.54
1554107831303,-9.23683,-0.54168814,2.2164322999999997,-0.04580637,0.0,0.008522116,-6.9,35.34,-30.48
1554107831323,-9.303867,-0.4794389,2.2643162999999995,-0.037284255,0.007456851,-0.004261058,-6.84,35.22,-30.42
1554107831342,-9.121908,-0.5943606,2.3409307,-0.0010652645,-0.015978966,0.0,-6.84,35.16,-30.42
1554107831365,-9.533711,-0.5033809,2.475006,0.040480047000000005,-0.023435817999999997,-0.011717908999999999,-6.72,35.28,-30.48
1554107831383,-9.370906,-0.66618663,2.7431567,-0.017044231,-0.029827405,0.0063915867,-6.72,35.28,-30.48
1554107831402,-9.361329,-0.86251116,2.2930467,-0.017044231,-0.05965481,-0.04261058,-6.6,35.34,-30.54
1554107831423,-9.208099,-0.55605334,2.6617537000000002,0.018109497,-0.05219796,-0.10546118,-6.54,35.4,-30.66
1554107831443,-9.169792,-0.30226797,2.6521769,0.040480047000000005,-0.083090626,-0.068176925,-6.48,35.4,-30.72
1554107831462,-9.155427,-0.53689975,2.6234465,0.02130529,-0.08628642,-0.037284255,-6.42,35.46,-30.84
1554107831482,-9.275136999999999,-0.53211135,2.7431567,-0.051132694000000006,-0.058589544,-0.06178534,-6.42,35.46,-30.96
1554107831502,-9.337387,-0.57041854,2.5133132999999996,-0.068176925,-0.09587380000000001,-0.112918034,-6.42,35.46,-31.02
1554107831522,-9.509769,-0.66139823,2.570774,-0.098004326,-0.084155895,-0.07669904,-6.42,35.46,-31.02
1554107831542,-9.227253,-0.96306765,2.4558525,-0.13635385,-0.10333065,-0.05219796,-6.36,35.4,-31.08
1554107831563,-9.323022,-0.87687635,2.5995044999999997,-0.16831179,-0.07776430000000001,-0.07989483,-6.36,35.4,-31.08
1554107831583,-8.7771435,-0.6853402,3.068768,-0.12250541,-0.041545313,-0.10013486,-6.36,35.4,-31.02
1554107831602,-8.959103,-0.3309984,2.7623102999999998,0.12037488,-0.101200126,-0.14168017,-6.36,35.34,-31.02
1554107831622,-9.313444,0.21966799999999997,2.2068555,0.2609898,-0.083090626,-0.19920446,-6.36,35.28,-31.02
1554107831643,-8.834603999999999,-0.88166475,2.297835,0.06924219,-0.054328485999999995,-0.010652645,-6.36,35.22,-31.02
1554107831662,-8.628703,-0.9247603999999999,2.6426,-0.053263225,-0.043675844000000005,-0.07563378,-6.36,35.16,-31.02
1554107831682,-8.7292595,-0.7715314999999999,2.4271219,-0.111852765,-0.037284255,-0.26738137,-6.42,35.16,-31.02
1554107831703,-8.470686,-0.8194155000000001,2.5276785,-0.13209279,0.05752428,-0.28975195,-6.48,35.16,-31.02
1554107831723,-8.566454,-0.6853402,2.5468319999999998,-0.13102753,0.09054748,-0.39414784,-6.54,35.22,-31.02
1554107831742,-8.667010000000001,-0.5943606,2.5420437000000002,-0.23968449999999997,0.13741912,-0.5251754,-6.66,35.34,-31.02
1554107831762,-8.523358,-1.049259,2.4223334999999997,-0.36432046,0.15552860000000002,-0.5411543000000001,-6.78,35.52,-31.02
1554107831783,-8.1402855,-1.3557166999999999,2.4797945,-0.5028047999999999,0.18216023,-0.61678815,-6.96,35.7,-30.96
1554107831802,-8.0684595,-1.3365631000000002,2.3840263,-0.60933125,0.22370553,-0.753142,-7.08,35.94,-30.78
1554107831822,-8.049306,-1.4227544,2.3983915000000002,-0.69348717,0.25992453,-0.8341021000000001,-7.26,36.18,-30.54
1554107831842,-7.9343843,-1.7483658,2.2403743,-0.7574029999999999,0.27803403,-0.8948221,-7.44,36.54,-30.3
1554107831863,-7.785944000000001,-2.0308816000000003,2.0871453,-0.8245146999999999,0.28655612,-0.9864349,-7.56,37.08,-30.0
1554107831882,-7.6518690000000005,-2.2463598,2.1158757,-0.8671253000000001,0.30146983,-1.1153319,-7.74,37.74,-29.76
1554107831902,-7.6375036,-2.380435,2.1493945,-0.85966843,0.32490566,-1.2655341999999998,-7.92,38.4,-29.4
1554107831922,-7.5034279999999995,-2.7922377999999997,1.8908207,-0.8319715,0.34727620000000003,-1.3944311000000003,-8.16,39.0,-29.1
1554107831943,-7.7189064,-3.2998084999999997,1.6370354,-0.8277104999999999,0.37071204,-1.5520903,-8.4,39.66,-28.62
1554107831962,-7.728483,-3.6637269999999997,1.311424,-0.85753787,0.40373522,-1.6831179,-8.76,40.38,-28.14
1554107831985,-7.7189064,-3.9414546,1.2635399,-0.88843054,0.43675843,-1.7811221999999998,-9.42,41.76,-27.24
1554107832003,-7.7332716,-4.6022544000000005,1.3640964,-0.9257148000000001,0.47404268,-1.8588865,-9.72,42.18,-26.94
1554107832023,-7.7189064,-5.253476999999999,1.2970588,-0.9076053,0.531567,-1.9281287,-10.38,42.84,-26.4
1554107832042,-7.723694999999999,-5.492897,1.1246762,-0.8383630999999999,0.58483016,-1.9941751,-11.16,43.44,-25.8
1554107832063,-7.728483,-5.6604915,0.9475053,-0.7435546,0.6380934,-2.0229373,-12.12,44.04,-25.26
1554107832083,-7.6231384,-6.096236,0.6937199000000001,-0.6562029,0.6498113,-2.0122845000000003,-13.2,44.76,-24.72
1554107832103,-7.632714999999999,-6.570288000000001,0.28191724,-0.6018744,0.67537767,-1.9664781999999998,-14.22,45.48,-24.18
1554107832123,-7.61835,-7.1448965,-0.10594343,-0.60507023,0.76485986,-1.9174759999999997,-15.18,46.2,-23.64
1554107832142,-7.8050976,-7.4705076,-0.350152,-0.6860303000000001,0.8831041999999999,-1.8727348999999998,-16.2,46.68,-23.22
1554107832163,-7.824250999999999,-7.681197599999999,-0.65660983,-0.8032094,0.99921805,-1.7821875,-17.28,47.1,-22.86
1554107832183,-7.848192999999999,-7.858368400000001,-0.87208796,-0.8990832000000001,1.0418286,-1.619202,-18.36,47.46,-22.44
1554107832203,-7.7332716,-8.069058,-1.0444705,-0.9406285,1.063134,-1.433846,-19.38,47.76,-21.96
1554107832223,-7.603985000000001,-8.227076,-1.2934675,-0.8607336999999999,1.0620687,-1.2431636000000001,-20.16,47.94,-21.48
1554107832243,-7.6518690000000005,-8.39467,-1.2551602,-0.62744075,1.0386329,-1.0365024,-21.0,48.06,-20.82
1554107832263,-7.603985000000001,-8.27496,-1.417966,-0.29294774,0.95234644,-0.8064051999999999,-21.84,48.06,-20.22
1554107832283,-7.359775999999999,-8.437764999999999,-1.4993688,0.023435817999999997,0.8586031999999999,-0.5496765,-22.62,48.06,-19.8
1554107832303,-7.101202000000001,-8.5143795,-1.963844,0.2428803,0.7616641,-0.3536678,-23.34,48.06,-19.44
1554107832322,-6.766014,-8.523956,-2.107496,0.29827404,0.67963874,-0.23968449999999997,-23.94,48.12,-19.02
1554107832343,-6.703765,-8.279748,-2.1649568,0.22796659,0.61891866,-0.18429075,-24.36,48.12,-18.66
1554107832362,-6.5984197,-8.002021000000001,-2.1697452,0.11824436,0.58056915,-0.1438107,-24.84,48.24,-18.24
1554107832382,-6.4787097000000005,-7.848791599999999,-1.939902,-0.12463594,0.48043427,-0.05965481,-25.08,48.24,-18.12
1554107832403,-6.291962,-7.85358,-1.9303252,-0.2727077,0.39521313,-0.026631612000000002,-25.14,48.3,-18.18
1554107832422,-6.1626754,-7.719505000000001,-2.0739772000000003,-0.38775626,0.30253512,-0.020240024,-25.26,48.3,-18.24
1554107832443,-6.0860605,-7.484873299999999,-2.059612,-0.48149952,0.22796659,-0.034088463,-25.26,48.24,-18.24
1554107832462,-6.0525417,-7.6093717000000005,-1.9446903000000002,-0.4825648,0.15339808,-0.07563378,-25.26,48.24,-18.3
1554107832482,-5.995081,-7.614160000000001,-2.0691888,-0.42397526,0.083090626,-0.08522116,-25.2,48.18,-18.36
1554107832503,-5.961562000000001,-7.791331,-2.1649568,-0.32170987,0.04261058,-0.07989483,-25.08,48.18,-18.42
1554107832522,-5.750872599999999,-7.896675599999999,-2.2415714,-0.22264028,0.024501082,-0.08628642,-25.02,48.12,-18.42
1554107832543,-5.90889,-7.896675599999999,-2.083554,-0.10013486,0.02876214,-0.12144015,-24.9,48.12,-18.36
1554107832563,-5.8179099999999995,-7.6189485,-2.0548236,0.051132694000000006,0.02130529,-0.18429075,-24.84,48.12,-18.3
1554107832582,-5.8801594,-7.566275999999999,-2.308609,0.13422333,-0.039414786,-0.17789917,-24.72,48.12,-18.18
1554107832603,-5.774814599999999,-7.6189485,-2.3469162,0.113983296,-0.05965481,-0.10972224,-24.66,48.12,-18.12
1554107832623,-5.7987566,-7.8009076,-2.4283189999999997,0.054328485999999995,-0.051132694000000006,-0.08735169,-24.54,48.12,-18.0
1554107832642,-5.7700260000000005,-7.767389,-2.4809916000000003,-0.013848438000000001,-0.07030745599999999,-0.128897,-24.54,48.18,-17.94
1554107832663,-5.66947,-7.7003509999999995,-2.4187422,-0.10226539,-0.08948222,-0.15978967,-24.48,48.18,-17.82
1554107832683,-5.7365074,-7.5950065,-2.3181857999999997,-0.13741912,-0.09054748,-0.15765914,-24.48,48.24,-17.7
1554107832702,-5.8466406,-7.724292999999999,-2.3708582000000002,-0.14487597,-0.08735169,-0.12996227,-24.54,48.3,-17.64
1554107832722,-5.659893,-7.791331,-2.2224178,-0.15339808,-0.04580637,-0.08628642,-24.54,48.36,-17.64
1554107832742,-5.760449400000001,-7.939771,-2.308609,-0.12250541,-0.049002163,-0.06391586,-24.54,48.42,-17.58
1554107832763,-5.726930599999999,-7.9301944,-2.3038206000000003,-0.1107875,-0.05539375,-0.043675844000000005,-24.6,48.48,-17.52
1554107832783,-5.760449400000001,-7.7147164,-2.1936872000000003,-0.09054748,-0.06178534,-0.03195793,-24.66,48.54,-17.46
1554107832802,-5.7125654,-7.504027000000001,-2.4283189999999997,-0.083090626,-0.099069595,-0.017044231,-24.72,48.6,-17.4
1554107832822,-5.626374,-7.504027000000001,-2.3900118,-0.08841695,-0.096939065,-0.007456851,-24.78,48.66,-17.34
1554107832843,-5.78918,-7.5710645,-2.3660697999999996,-0.099069595,-0.07563378,0.008522116,-24.9,48.72,-17.22
1554107832863,-5.683835,-7.614160000000001,-2.3469162,-0.11824436,-0.07563378,-0.02876214,-24.96,48.78,-17.16
1554107832882,-5.741296,-7.5327573,-2.509722,-0.15126756,-0.080960095,-0.07030745599999999,-25.02,48.78,-17.1
1554107832902,-5.612008599999999,-7.527969000000001,-2.5288756,-0.19813919,-0.07137272,-0.068176925,-25.08,48.84,-17.04
1554107832923,-5.626374,-7.398681599999999,-2.2750902,-0.23755397,-0.06178534,-0.07776430000000001,-25.14,48.84,-16.98
1554107832942,-5.841851999999999,-7.4609309999999995,-2.7347770000000002,-0.23861924,-0.053263225,-0.09161274,-25.14,48.9,-16.92
1554107832963,-5.722142,-7.566275999999999,-2.7204118,-0.27057716,-0.020240024,-0.10972224,-25.2,48.9,-16.92
1554107832982,-5.7365074,-7.5471225,-2.7204118,-0.25885928,-0.0010652645,-0.15020229,-25.26,48.96,-16.86
1554107833003,-5.664681400000001,-7.5758529999999995,-2.7347770000000002,-0.24714136,0.0010652645,-0.14594123,-25.26,48.96,-16.8
1554107833023,-5.626374,-7.585429700000001,-2.7970262000000004,-0.21944448,-0.018109497,-0.10652645,-25.32,49.02,-16.68
1554107833043,-5.693412,-7.724292999999999,-2.830545,-0.19068234,-0.033023197000000004,-0.058589544,-25.32,49.02,-16.5
1554107833063,-5.7029886,-7.891887,-2.8161798,-0.18216023,-0.02130529,-0.07030745599999999,-25.38,49.08,-16.26
1554107833083,-5.7365074,-7.614160000000001,-2.7635074,-0.15659387,-0.00958738,-0.12676647,-25.44,49.14,-16.02
1554107833103,-5.7700260000000005,-7.6668324000000005,-2.9933507,-0.12570119999999999,-0.02130529,-0.13209279,-25.44,49.26,-15.72
1554107833123,-5.746084,-7.671621000000001,-2.8975825,-0.13635385,-0.036218993,-0.07669904,-25.5,49.38,-15.48
1554107833143,-5.57849,-7.6333137,-2.7682957999999998,-0.1438107,-0.051132694000000006,-0.082025364,-25.5,49.56,-15.24
1554107833163,-5.5976434,-7.5471225,-2.9215245,-0.15659387,-0.08841695,-0.08522116,-25.5,49.68,-15.06
1554107833183,-5.621585400000001,-7.791331,-2.959832,-0.16724652,-0.07669904,-0.05006743,-25.56,49.8,-14.88
1554107833202,-5.45878,-7.7769656000000005,-2.8257565,-0.15339808,-0.07350325,-0.05752428,-25.62,49.92,-14.82
1554107833223,-5.4683566,-7.647678999999999,-2.8161798,-0.10546118,-0.07137272,-0.07989483,-25.74,50.04,-14.82
1554107833242,-5.45878,-7.5519110000000005,-2.8209682000000003,-0.06711166,-0.07137272,-0.07137272,-25.8,50.04,-14.76
1554107833262,-5.4970870000000005,-7.685986,-2.7347770000000002,-0.00958738,-0.051132694000000006,-0.053263225,-25.86,50.04,-14.7
1554107833283,-5.4061074,-7.585429700000001,-2.8544869999999998,0.002130529,-0.023435817999999997,-0.09161274,-26.04,49.92,-14.58
1554107833302,-5.473145,-7.7626004,-2.902371,-0.00958738,0.0063915867,-0.11611383,-26.1,49.92,-14.52
1554107833322,-5.401319,-7.508815299999999,-2.8496985,-0.05006743,0.040480047000000005,-0.13635385,-26.22,49.86,-14.46
1554107833344,-5.511451999999999,-7.504027000000001,-2.629432,-0.034088463,0.07456851,-0.1470065,-26.34,49.74,-14.28
1554107833363,-5.3821654,-7.719505000000001,-2.6246436,-0.024501082,0.06604639400000001,-0.111852765,-26.46,49.68,-14.22
1554107833383,-5.3678,-7.839214999999999,-3.0508115,-0.024501082,0.035153727999999995,-0.082025364,-26.46,49.68,-14.1
1554107833403,-5.530606,-7.949348,-3.1848867000000003,-0.036218993,0.06285059999999999,-0.099069595,-26.52,49.74,-14.04
1554107833423,-5.521029,-7.839214999999999,-2.9406781000000004,-0.034088463,0.11611383,-0.17044231,-26.52,49.8,-13.98
1554107833443,-5.6982,-7.73387,-2.8544869999999998,-0.023435817999999997,0.10865697,-0.18002969,-26.58,49.8,-13.98
1554107833462,-5.621585400000001,-7.743447,-3.141791,-0.06604639400000001,0.056459017,-0.068176925,-26.64,49.86,-13.92
1554107833483,-5.4779334,-7.901464,-3.4674027,-0.09587380000000001,0.017044231,0.018109497,-26.64,49.86,-13.86
1554107833503,-5.430049400000001,-7.877522,-3.1896752999999998,-0.083090626,0.004261058,0.0,-26.64,49.92,-13.8
1554107833522,-5.7365074,-7.623736999999999,-2.9646204,-0.053263225,-0.007456851,-0.014913702,-26.64,49.92,-13.74
1554107833542,-5.650316,-7.662044,-2.8975825,-0.047936900000000005,-0.04580637,0.0053263223,-26.7,49.92,-13.68
1554107833562,-5.415684,-7.5566993,-3.0651767000000003,-0.007456851,-0.094808534,-0.026631612000000002,-26.7,49.86,-13.68
1554107833583,-5.5258174,-7.4034699999999996,-2.8401217,0.04580637,-0.12250541,-0.05965481,-26.7,49.8,-13.62
1554107833603,-5.430049400000001,-7.3460092999999995,-3.0699651,0.046871635999999994,-0.18535602,-0.012783173500000002,-26.64,49.8,-13.62
1554107833623,-5.4061074,-7.451353999999999,-2.9550436,0.004261058,-0.17576863,0.027696876000000002,-26.64,49.8,-13.56
1554107833642,-5.482722,-7.599794999999999,-2.7204118,-0.06498113,-0.14168017,0.00958738,-26.64,49.74,-13.62
1554107833662,-5.707777,-7.4992385,-2.6198552000000004,-0.10865697,-0.09161274,-0.051132694000000006,-26.64,49.74,-13.62
1554107833683,-5.425261,-7.441777,-2.9837740000000004,-0.12783173,-0.12357068,-0.11504856,-26.64,49.68,-13.62
1554107833703,-5.391742,-7.341221000000001,-2.9119477000000002,-0.09374327,-0.10652645,-0.10652645,-26.64,49.68,-13.68
1554107833722,-5.487509999999999,-7.4561424,-3.1082723,-0.03089267,-0.07563378,-0.08628642,-26.64,49.62,-13.74
1554107833742,-5.415684,-7.451353999999999,-2.7730842,-0.03089267,-0.058589544,-0.07989483,-26.64,49.62,-13.8
1554107833763,-5.4539914000000005,-7.585429700000001,-3.1800982999999996,-0.02876214,-0.09161274,-0.09054748,-26.64,49.56,-13.86
1554107833783,-5.334281400000001,-7.6189485,-3.2950199999999996,-0.05752428,-0.09161274,-0.09161274,-26.64,49.56,-13.92
1554107833803,-5.334281400000001,-7.9062524000000005,-3.2615013,-0.10333065,-0.06498113,-0.12996227,-26.64,49.5,-13.92
1554107833823,-5.391742,-7.85358,-3.2758665000000002,-0.12357068,-0.05219796,-0.2130529,-26.64,49.44,-13.86
1554107833842,-5.511451999999999,-7.542333999999999,-2.9933507,-0.080960095,-0.05539375,-0.21944448,-26.76,49.44,-13.8
1554107833862,-5.530606,-7.791331,-2.9837740000000004,-0.018109497,-0.12463594,-0.15233281,-26.82,49.38,-13.74
1554107833883,-5.482722,-7.834426400000001,-3.2375592999999996,-0.029827405,-0.20133498,-0.082025364,-26.94,49.38,-13.62
1554107833903,-5.4779334,-7.781753999999999,-3.117849,-0.08628642,-0.24714136,-0.10226539,-27.0,49.38,-13.5
1554107833922,-5.5641245999999995,-7.7769656000000005,-3.0364463,-0.16085494,-0.30146983,-0.11504856,-27.12,49.38,-13.38
1554107833942,-5.693412,-7.834426400000001,-2.9789855,-0.20985709,-0.30146983,-0.068176925,-27.18,49.38,-13.2
1554107833962,-5.7843914000000005,-7.911041,-2.9741971,-0.18216023,-0.3153183,-0.027696876000000002,-27.3,49.38,-13.02
1554107833983,-5.631162000000001,-8.236652000000001,-2.8161798,-0.113983296,-0.26525086,-0.029827405,-27.48,49.44,-12.84
1554107834004,-5.650316,-8.270171000000001,-2.9167361,-0.03089267,-0.23116238,-0.05006743,-27.54,49.44,-12.78
1554107834022,-5.5162406,-7.8248496,-2.6342204,0.12676647,-0.22370553,-0.08628642,-27.6,49.44,-12.66
1554107834044,-5.5976434,-7.882310400000001,-2.212841,0.28442562,-0.3270362,0.0,-27.72,49.5,-12.54
1554107834062,-5.45878,-8.030750999999999,-2.7874494,0.3568636,-0.37710363,0.10013486,-27.72,49.5,-12.48
1554107834083,-5.4922986,-8.174403,-2.7347770000000002,0.4165184,-0.37284255,0.16618125,-27.84,49.5,-12.3
1554107834102,-5.434838,-7.896675599999999,-3.007716,0.37390783,-0.37603834,0.165116,-27.9,49.5,-12.3
1554107834123,-5.521029,-7.7147164,-2.3517046,0.19600865,-0.33555830000000003,0.16405073,-27.96,49.5,-12.3
1554107834142,-5.6551046,-7.561487700000001,-2.8401217,0.018109497,-0.3685815,0.15765914,-28.02,49.5,-12.36
1554107834162,-5.530606,-7.6333137,-2.8113914,-0.07137272,-0.30786142,0.14594123,-28.02,49.5,-12.36
1554107834183,-5.7700260000000005,-7.2454529999999995,-2.0548236,-0.16831179,-0.22690132,0.10439592,-28.02,49.5,-12.36
1554107834203,-5.865794,-7.3460092999999995,-2.03567,-0.31638354,-0.26525086,0.099069595,-28.02,49.44,-12.42
1554107834222,-5.57849,-7.413047,-2.4953567999999997,-0.47191215,-0.314253,0.10439592,-28.02,49.44,-12.42
1554107834242,-5.5737014,-7.451353999999999,-2.8257565,-0.5411543000000001,-0.28016454,0.07882957,-28.02,49.44,-12.42
1554107834264,-5.7029886,-7.5471225,-2.4139538,-0.6018744,-0.15126756,0.06285059999999999,-28.02,49.44,-12.42
1554107834283,-5.741296,-7.4896617,-2.3421277999999996,-0.61891866,-0.1107875,0.046871635999999994,-27.96,49.56,-12.42
1554107834302,-5.861006,-7.4322004,-2.3948002,-0.628506,-0.09374327,0.013848438000000001,-27.96,49.74,-12.3
1554107834322,-5.8466406,-7.4992385,-2.4522612,-0.6263755,-0.111852765,0.0010652645,-27.96,49.92,-12.0
1554107834343,-5.8466406,-7.5183919999999995,-3.1226375,-0.5656554,-0.12463594,0.002130529,-27.96,50.16,-11.64
1554107834363,-5.8179099999999995,-7.5471225,-2.8640637000000004,-0.45273739999999996,-0.06924219,0.013848438000000001,-27.96,50.34,-11.16
1554107834382,-5.90889,-7.5327573,-2.3133974,-0.29188246,-0.054328485999999995,0.022370555,-27.9,50.52,-10.74
1554107834402,-5.985504,-7.475296000000001,-2.3229742,-0.10333065,-0.12676647,0.013848438000000001,-27.9,50.76,-10.26
1554107834422,-5.961562000000001,-7.3220673,-2.8496985,0.09267801,-0.15339808,-0.007456851,-27.78,50.88,-9.84
1554107834442,-5.9567738,-6.9342065,-3.4865562999999993,0.13209279,-0.10759171,-0.0010652645,-27.66,51.0,-9.42
1554107834463,-6.042965000000001,-7.053917,-2.4139538,-0.012783173500000002,0.034088463,0.035153727999999995,-27.6,51.0,-9.06
1554107834482,-6.2105594,-7.2646065,-2.0165164,-0.07456851,0.0063915867,0.01917476,-27.48,51.06,-8.94
1554107834502,-5.932832,-7.0347633,-2.9646204,-0.09054748,-0.11824436,-0.041545313,-27.42,51.12,-8.82
1554107834523,-5.9280434,-6.795342999999999,-3.2854433,-0.096939065,-0.058589544,-0.12357068,-27.3,51.12,-8.82
1554107834543,-6.042965000000001,-7.044339999999999,-2.4570496,-0.08841695,0.035153727999999995,-0.11717909,-27.24,51.06,-8.82
1554107834562,-6.1530986,-6.9725137,-2.5240872000000003,-0.16831179,-0.025566347000000003,-0.06391586,-27.24,51.0,-8.76
1554107834583,-6.114791,-7.1065892999999996,-3.4530375,-0.26631612,-0.094808534,-0.101200126,-27.24,50.94,-8.76
1554107834603,-6.019023000000001,-6.9916677,-3.4243068999999995,-0.45273739999999996,-0.029827405,-0.14061491,-27.24,50.88,-8.7
1554107834623,-6.2153480000000005,-7.154473299999999,-3.0747535,-0.61678815,0.043675844000000005,-0.14274544,-27.24,50.82,-8.64
1554107834642,-6.2871737,-7.331644,-2.8353333,-0.7435546,-0.0063915867,-0.14807177,-27.3,50.76,-8.52
1554107834662,-6.133945,-7.379528,-3.4386723,-0.7680557,-0.113983296,-0.16405073,-27.3,50.76,-8.28
1554107834683,-6.0860605,-7.307702000000001,-4.0803185,-0.67537767,-0.10865697,-0.17257284,-27.3,50.88,-8.1
1554107834703,-6.0908489999999995,-7.4705076,-3.2950199999999996,-0.5305017,-0.05006743,-0.13741912,-27.3,51.06,-7.86
1554107834723,-6.081272,-7.3938932,-2.6677392,-0.27377295,-0.10759171,-0.1470065,-27.36,51.18,-7.62
1554107834743,-6.0333879999999995,-7.4465656000000005,-2.9406781000000004,-0.056459017,-0.28336033,-0.1768339,-27.42,51.3,-7.26
1554107834762,-5.961562000000001,-7.077858999999999,-4.3819875999999995,0.10226539,-0.38242993,-0.1768339,-27.66,51.36,-6.9
1554107834783,-6.0381765,-7.1353197,-3.3381157,0.101200126,-0.13741912,-0.09054748,-27.84,51.42,-6.48
1554107834802,-6.2632318,-7.5758529999999995,-2.3756466,0.0053263223,-0.13209279,-0.007456851,-28.08,51.42,-6.12
1554107834822,-5.9280434,-7.3843164,-3.2998084999999997,-0.033023197000000004,-0.2695119,-0.049002163,-28.32,51.48,-5.82
1554107834843,-6.129156,-7.2885485,-3.3764230000000004,-0.14168017,-0.22796659,-0.07456851,-28.5,51.36,-5.58
1554107834862,-6.2345014,-7.2167225,-3.7307648999999996,-0.21944448,-0.15659387,-0.02876214,-28.68,51.3,-5.28
1554107834883,-6.617573299999999,-7.4705076,-2.4139538,-0.16724652,-0.16724652,0.0,-28.92,51.18,-5.04
1554107834903,-6.679823,-7.5758529999999995,-2.9502552000000004,-0.07456851,-0.33129725,-0.011717908999999999,-28.98,51.18,-4.98
1554107834922,-6.703765,-7.8152729999999995,-4.1282024,-0.0010652645,-0.5091964,0.033023197000000004,-28.92,51.18,-4.86
1554107834943,-7.0006455999999995,-7.7865424,-4.755483,0.0053263223,-0.5635249,0.056459017,-28.8,51.12,-4.8
1554107834963,-7.6231384,-8.179192,-2.6102784,-0.096939065,-0.5390238,0.21731395,-28.74,51.12,-4.74
1554107834983,-7.8003089999999995,-8.169615,-2.8113914,-0.19068234,-0.80107886,0.37390783,-28.68,51.12,-4.68
1554107835003,-7.4124484,-8.030750999999999,-3.6828809000000002,-0.19281286,-1.0407634,0.5368933000000001,-28.56,51.12,-4.56
1554107835022,-7.699753,-7.968502,-3.3859997,-0.15765914,-1.0365024,0.65194184,-28.32,51.12,-4.26
1554107835042,-7.632714999999999,-7.508815299999999,-2.5767596,-0.10013486,-1.0088054,0.6988135,-28.26,51.06,-4.14
1554107835062,-7.3310455999999995,-6.9150529999999995,-1.762731,-0.27377295,-1.1930962,0.76485986,-27.84,51.06,-3.72
1554107835083,-7.675811,-6.642114,-3.1753099999999996,-0.34727620000000003,-1.3187973,0.7254451,-27.48,51.18,-3.42
1554107835103,-7.603985000000001,-6.1153900000000005,-3.1944637000000005,-0.43888897,-1.2889700000000002,0.74781567,-27.12,51.3,-3.12
1554107835123,-7.632714999999999,-6.187216,-1.9686323000000001,-0.46552056,-1.1696603,0.813862,-26.7,51.42,-2.76
1554107835143,-7.4699089999999995,-5.7754129999999995,-1.7531542000000002,-0.48469532,-1.1973573,0.87564737,-26.16,51.6,-2.4
1554107835163,-7.4124484,-5.689222,-1.6478093,-0.44528055,-1.3422332000000001,0.8969527,-25.44,51.78,-2.04
1554107835182,-7.5082164,-5.8328739999999994,-1.9782091,-0.34621096,-1.4881744,0.87777793,-24.72,52.08,-1.74
1554107835204,-7.374141000000001,-5.751471,-2.2655133999999997,-0.111852765,-1.6149409,0.78936094,-23.82,52.44,-1.44
1554107835222,-7.268796400000001,-5.4354362,-1.0827777,0.111852765,-1.5574166999999999,0.69668293,-22.98,52.8,-1.08
1554107835244,-7.393294999999999,-5.167286,-0.99179804,0.29614353,-1.603223,0.5656554,-22.14,53.04,-0.72
1554107835264,-7.5321584,-4.7937902999999995,-0.14425065,0.49641323,-1.5542208,0.40586576,-21.3,53.34,-0.36
1554107835282,-7.3645644,-4.803367,0.26276365,0.7520766999999999,-1.5733956,0.3653857,-20.52,53.52,-0.06
1554107835302,-7.4699089999999995,-5.382764,0.18614918,1.5638082,-1.4157364,0.39308259999999995,-19.74,53.76,0.12
1554107835323,-7.513005000000001,-5.1385555,1.4885948999999998,1.9973708,-1.1920309,0.5123922000000001,-19.02,53.94,0.12
1554107835343,-7.465121000000001,-4.6501384,1.4024036,2.441586,-1.0727214,0.54435015,-18.42,54.06,0.0
1554107835362,-7.4746976,-4.4921207,1.5173253,2.8336034,-0.90973586,0.4133226,-18.06,54.18,-0.6
1554107835383,-7.6135616,-4.3197384,1.6609775000000002,3.1755533,-0.8319715,0.2790993,-17.7,54.24,-1.68
1554107835403,-7.991845,-3.9989154,1.6897078999999997,3.3768883,-0.74035877,0.257794,-17.34,54.36,-3.0
1554107835423,-8.63828,-3.5535938999999996,2.2164322999999997,2.9454563,-0.70627034,0.38029942,-16.92,54.42,-4.56
1554107835449,-8.791509,-3.4386723,1.5125369,2.5577,-0.737163,0.44954160000000004,-16.74,54.42,-5.4
1554107835462,-8.159439,-3.7211879999999997,2.2164322999999997,1.6905746,-0.5006742999999999,0.48363006,-16.38,54.3,-8.1
1554107835484,-8.571242,-3.328539,2.5851393,1.3699301000000002,-0.41864893,0.4878911,-16.2,53.58,-11.04
1554107835502,-8.456321,-2.8736405,3.0160956000000003,1.0183928,-0.3568636,0.5028047999999999,-16.14,53.22,-12.06
1554107835523,-8.269572,-2.5911248,3.3225534,0.6018744,-0.35579833,0.44634579999999996,-15.96,52.38,-13.92
1554107835542,-8.566454,-3.0699651,4.117428299999999,0.50387007,-0.386691,0.41438788,-15.84,51.42,-15.42
1554107835562,-8.336611,-2.9167361,3.7822402000000004,0.7254451,-0.45273739999999996,0.40586576,-15.78,50.4,-16.74
1554107835582,-8.279149,-2.7060466,4.0120835,1.0141318000000001,-0.39095205,0.40373522,-15.78,49.38,-17.82
1554107835602,-8.446744,-2.5480292,4.3903675,1.0812434,-0.38882150000000004,0.44954160000000004,-15.72,48.3,-18.78
1554107835623,-8.264783999999999,-2.380435,3.5284547999999996,0.9289106,-0.39627838,0.48149952,-15.66,47.34,-19.56
1554107835642,-8.279149,-2.5528176,3.9689879999999995,0.71159667,-0.27590349999999997,0.48363006,-15.54,46.68,-20.46
1554107835662,-8.159439,-2.4331074,4.2754455,0.5858955,-0.20453078,0.41545314,-15.42,46.2,-21.24
1554107835683,-8.255207,-1.9686323000000001,4.246715,0.47936899999999993,-0.23648871,0.330232,-15.24,45.66,-22.2
1554107835703,-8.274361,-1.7004818,3.9594111000000005,0.41758367,-0.26631612,0.314253,-15.12,45.42,-22.8
1554107835723,-8.331821000000001,-1.7531542000000002,3.6337996,0.34834146,-0.257794,0.34514567,-14.82,45.24,-23.4
1554107835744,-8.192958,-2.0260932,4.1461587,0.221575,-0.18002969,0.4261058,-14.58,45.0,-23.94
1554107835762,-7.996633500000001,-2.1218612,4.1796775,0.06711166,-0.16405073,0.41864893,-14.28,44.76,-24.48
1554107835783,-7.9008656,-2.212841,4.500500700000001,0.00958738,-0.1470065,0.31318775,-13.98,44.52,-24.9
1554107835802,-7.891288799999999,-1.6190788999999999,4.4526167,0.04261058,-0.11717909,0.22583607,-13.62,44.28,-25.14
1554107835823,-8.058883,-1.6765398,4.9745526,0.17896444,-0.058589544,0.24927188,-13.32,44.04,-25.26
1554107835842,-7.7572136,-1.6765398,4.6920366,0.24074976,-0.043675844000000005,0.29188246,-13.08,43.86,-25.38
1554107835863,-7.9391727,-1.7196354,4.23235,0.14168017,-0.04261058,0.19068234,-12.78,43.74,-25.5
1554107835883,-8.173803999999999,-1.5616181,4.361637,-0.013848438000000001,-0.051132694000000006,0.11717909,-12.6,43.62,-25.56
1554107835903,-8.24563,-1.5855601000000001,4.433463,-0.011717908999999999,-0.05965481,0.15659387,-12.42,43.5,-25.68
1554107835922,-8.078036,-1.6909049999999999,5.0942625999999995,0.13422333,-0.06711166,0.1949434,-12.18,43.5,-25.8
1554107835943,-7.943961,-1.4706384,4.529230999999999,0.32490566,-0.13848437,0.13528858,-12.06,43.44,-25.92
1554107835963,-7.8386164,-0.98222125,4.4717703,0.26631612,-0.16831179,0.07243799,-11.88,43.44,-26.04
1554107835982,-7.881711999999999,-1.039682,4.538808,0.039414786,-0.16405073,-0.008522116,-11.76,43.38,-26.1
1554107836002,-8.183380999999999,-1.2216414,4.7399206,-0.06391586,-0.14168017,-0.08841695,-11.64,43.38,-26.16
1554107836023,-8.51857,-1.3461398999999998,4.979341000000001,-0.08628642,-0.13315806,-0.049002163,-11.52,43.32,-26.16
1554107836042,-8.135497,-1.46585,4.955399,-0.11824436,-0.13954964,-0.040480047000000005,-11.46,43.26,-26.16
1554107836062,-8.078036,-1.0971429,4.931457,-0.07030745599999999,-0.12463594,-0.10652645,-11.46,43.2,-26.16
1554107836083,-8.954314,-1.2838906,5.180454,0.014913702,-0.082025364,-0.08628642,-11.52,43.2,-26.16
1554107836103,-7.9391727,-1.4754268,4.6393642,0.0053263223,-0.12996227,-0.01917476,-11.52,43.14,-26.16
1554107836122,-7.6375036,-1.0779893,5.309741000000001,0.26525086,-0.11611383,-0.07882957,-11.52,43.14,-26.16
1554107836142,-8.288725999999999,-1.0157399999999999,3.9019501000000005,0.38349520000000004,-0.16085494,-0.12250541,-11.52,43.14,-26.22
1554107836162,-8.240842,-1.5376761,4.8452660000000005,0.22903186,-0.10439592,0.0,-11.52,43.08,-26.28
1554107836183,-7.369353,-0.9247603999999999,4.888361499999999,0.06924219,-0.10972224,-0.14168017,-11.46,43.02,-26.34
1554107836203,-8.078036,-0.96785605,4.4717703,-0.0031957934000000003,-0.1438107,-0.221575,-11.46,43.02,-26.4
1554107836222,-7.996633500000001,-1.0157399999999999,4.6776714,-0.21092236,-0.11930962,-0.17576863,-11.46,42.96,-26.46
1554107836242,-8.283937,-1.3892354999999998,4.859630999999999,-0.28122982,-0.084155895,-0.17789917,-11.52,42.96,-26.52
1554107836263,-8.09719,-1.0205284,5.089474,-0.24820662,-0.02130529,-0.23861924,-11.64,42.9,-26.58
1554107836283,-7.943961,-0.9343372,5.1038394,-0.32597092,0.037284255,-0.29827404,-11.88,42.84,-26.64
1554107836302,-8.010999,-1.2360066,4.433463,-0.33449304,0.0053263223,-0.25246766,-12.12,42.84,-26.64
1554107836322,-7.7572136,-1.6430208999999998,4.6441526,-0.4016047,0.026631612000000002,-0.15233281,-12.3,42.84,-26.7
1554107836343,-7.738060000000001,-1.8058267,4.4526167,-0.43782368,0.023435817999999997,-0.21198763,-12.54,42.84,-26.7
1554107836362,-7.5561004,-1.5759833,4.56275,-0.49747851,0.05539375,-0.31318775,-12.72,42.9,-26.7
1554107836383,-7.7428484,-1.3940238999999999,4.8404775,-0.5251754,0.07989483,-0.40373522,-12.84,43.02,-26.7
1554107836402,-7.872135000000001,-1.3365631000000002,4.6537294000000005,-0.51452273,0.05219796,-0.4261058,-13.02,43.26,-26.64
1554107836423,-7.771578999999999,-1.8249803,4.136582,-0.5049353,0.011717908999999999,-0.39095205,-13.02,43.44,-26.52
1554107836443,-7.603985000000001,-2.2655133999999997,4.246715,-0.572047,0.008522116,-0.38242993,-12.96,43.74,-26.28
1554107836463,-7.6470804,-2.332551,4.371214,-0.7073356,0.014913702,-0.52411014,-12.9,44.1,-25.98
1554107836483,-7.7572136,-2.203264,4.174889,-0.86499476,0.0063915867,-0.6412892,-12.96,44.52,-25.68
1554107836503,-7.517792999999999,-2.2655133999999997,4.1892543,-0.9821738000000001,-0.02130529,-0.6870956,-13.02,44.94,-25.32
1554107836523,-7.599196000000001,-2.2511482000000003,4.11264,-1.0183928,-0.04580637,-0.7520766999999999,-13.26,45.36,-24.9
1554107836543,-7.311891999999999,-2.5288756,4.007295,-1.0215886,-0.08628642,-0.8117314999999999,-13.5,45.72,-24.3
1554107836563,-7.1395097000000005,-2.5001452,4.0743327,-0.9587379999999999,-0.16298546,-0.9321064,-13.8,46.14,-23.76
1554107836583,-7.0820484,-2.5863364,3.8971617,-0.8926915999999999,-0.23329292,-1.0365024,-14.1,46.68,-23.16
1554107836602,-7.101202000000001,-2.7922377999999997,3.887585,-0.8021441,-0.2876214,-1.1408982,-14.52,47.22,-22.68
1554107836623,-6.9527617,-3.5057099999999997,3.8013937000000007,-0.7861651999999999,-0.33875409999999995,-1.1387677,-14.94,47.7,-22.14
1554107836643,-6.9527617,-4.180875,3.7822402000000004,-0.83942837,-0.3898868,-1.1590078000000001,-15.42,48.06,-21.54
1554107836662,-6.9862804,-4.377199,3.8684312999999997,-0.9938916999999999,-0.40586576,-1.2538162,-16.5,48.72,-20.46
1554107836683,-7.0724716,-4.621408,3.9306807999999998,-1.180313,-0.40266997,-1.3315805,-16.92,48.96,-20.1
1554107836703,-7.0102224,-4.956596,4.466982,-1.2452941000000002,-0.37390783,-1.3411678999999999,-17.76,49.38,-19.32
1554107836724,-6.8186865,-5.133767,4.931457,-1.0599382,-0.386691,-1.3496901000000001,-18.78,49.74,-18.54
1554107836743,-6.517017,-5.253476999999999,4.854842700000001,-0.7030744999999999,-0.44847634,-1.3891048000000001,-19.8,49.98,-17.82
1554107836762,-6.0621184999999995,-5.2343235,4.7016134,-0.2609898,-0.53263223,-1.4444987,-21.24,50.28,-16.8
1554107836783,-5.60722,-5.4114943,3.9211037,-0.07243799,-0.66365975,-1.5020228999999998,-22.2,50.52,-16.2
1554107836803,-5.319916200000001,-6.0291986,3.4422636,0.08948222,-0.65194184,-1.5094798,-23.1,50.64,-15.66
1554107836823,-5.0613421999999995,-6.637326,3.341707,0.15126756,-0.55606806,-1.3337111000000001,-23.94,50.58,-15.18
1554107836843,-4.5537715,-6.512827400000001,3.6290112,-0.06604639400000001,-0.49002165,-1.1877699,-24.9,50.46,-14.94
1554107836862,-4.1515455,-6.522404,3.020884,-0.45486793,-0.4889564,-1.3092101,-25.86,50.28,-14.7
1554107836884,-4.0078936,-6.6852098,2.4941597,-1.1206582,-0.36005938,-1.4050837999999999,-26.88,49.92,-14.58
1554107836902,-4.036624,-7.5566993,2.9011737999999996,-1.4157364,-0.22050974,-1.3230585,-28.02,49.44,-14.34
1554107836923,-4.036624,-8.021174,3.6194344,-1.4966966,-0.13528858,-1.2335763000000002,-29.34,48.9,-14.1
1554107836943,-3.643975,-8.260594000000001,3.5954924,-1.2942963,-0.1107875,-1.2740563,-30.6,48.3,-13.86
1554107836962,-3.7924154000000003,-8.595782,3.3464954,-0.8745821,-0.068176925,-1.2452941000000002,-31.8,47.7,-13.44
1554107836982,-3.8690300000000004,-8.796896,3.1693244,-0.6348976,-0.041545313,-1.0727214,-32.82,47.22,-12.9
1554107837003,-3.7301662,-8.878299,2.8485014,-0.64341974,-0.04474111,-0.97258645,-33.66,46.74,-12.3
1554107837023,-3.2369606,-9.256582,3.164536,-0.86499476,-0.03195793,-1.026915,-34.38,46.32,-11.64
1554107837043,-3.5242648,-9.299678,3.2267854,-0.9331716999999998,-0.03195793,-1.0567423,-35.04,46.02,-10.98
1554107837062,-3.4093432,-9.840767999999999,3.0065188,-0.902279,0.0,-0.89588743,-35.76,45.6,-10.38
1554107837083,-3.3327288999999998,-10.214263,3.2267854,-0.9012136999999999,0.047936900000000005,-0.7350325,-36.3,45.12,-9.78
1554107837103,-3.3135752999999997,-10.305242999999999,3.0831332000000002,-0.8926915999999999,0.05539375,-0.71798825,-36.9,44.7,-9.12
1554107837123,-3.2848446000000004,-10.195109,3.0591912,-0.8298409999999999,0.049002163,-0.6892261,-37.44,44.1,-8.46
1554107837143,-3.2609026,-10.348338,3.3464954,-0.700944,0.034088463,-0.5613944000000001,-37.98,43.5,-7.92
1554107837162,-3.1507695,-10.381857,3.2986114,-0.5518069999999999,0.0063915867,-0.43462790000000007,-38.52,42.96,-7.44
1554107837183,-2.954445,-9.993997,3.2028434,-0.44208476,0.023435817999999997,-0.3749731,-39.06,42.42,-7.02
1554107837203,-2.9879637000000003,-9.874286999999999,3.2363622000000003,-0.3653857,0.07137272,-0.34408042,-39.48,41.88,-6.54
1554107837223,-2.8682537,-9.759364999999999,3.1070752,-0.30786142,0.12037488,-0.29827404,-39.9,41.46,-6.06
1554107837242,-2.7485435000000003,-9.792883999999999,2.8532897999999998,-0.27483824,0.165116,-0.23861924,-40.26,41.16,-5.64
1554107837263,-2.7868507,-9.783307,2.8149827000000003,-0.23222765,0.21092236,-0.20240025,-40.56,40.86,-5.4
1554107837282,-2.8778305,-9.673173,2.5803509,-0.16724652,0.22690132,-0.16618125,-40.86,40.68,-5.22
1554107837306,-2.7820622999999998,-9.390657000000001,2.307412,-0.11717909,0.24714136,-0.09587380000000001,-41.1,40.44,-5.1
1554107837323,-2.753332,-9.199121,2.235586,-0.11504856,0.294013,-0.03834952,-41.46,40.02,-4.92
1554107837342,-2.791639,-9.0315275,2.1398177000000005,-0.13422333,0.32384038,-0.047936900000000005,-41.64,39.72,-4.92
1554107837362,-2.8203697,-8.897452000000001,2.0392613,-0.13954964,0.33662358,-0.06178534,-41.7,39.48,-4.92
1554107837382,-2.7724855,-8.835203,1.8142063999999998,-0.14061491,0.33981937,-0.09374327,-41.82,38.76,-4.92
1554107837402,-2.657564,-8.696339,1.8716671000000003,-0.13954964,0.34194988,-0.12144015,-41.94,38.28,-4.92
1554107837423,-2.552219,-8.734647,1.6130934,-0.1107875,0.32810146,-0.1587244,-42.12,37.68,-4.92
1554107837442,-2.6767175,-9.012374000000001,1.4838065,-0.040480047000000005,0.32490566,-0.17789917,-42.36,37.08,-4.92
1554107837462,-2.6671407000000005,-9.012374000000001,1.5891514,0.007456851,0.30999196,-0.18535602,-42.6,36.42,-4.92
1554107837482,-2.7581203,-9.170391,1.287482,-0.0031957934000000003,0.27803403,-0.20879184,-42.9,35.76,-4.98
1554107837503,-2.7102362999999996,-9.337985,1.2779051000000001,-0.060720075,0.25140239999999997,-0.21092236,-43.2,35.16,-4.98
1554107837522,-2.753332,-9.409811,1.2635399,-0.112918034,0.22796659,-0.20026971,-43.5,34.62,-4.98
1554107837542,-2.7772740000000002,-9.428965,1.2539631000000002,-0.18109496,0.20985709,-0.18322548,-43.68,34.14,-4.92
1554107837562,-2.8060042999999997,-9.658808,1.1917138999999999,-0.221575,0.20559604,-0.17044231,-43.92,33.72,-4.92
1554107837583,-2.944868,-9.788095,1.4694413,-0.19920446,0.16831179,-0.13635385,-44.1,33.42,-4.98
1554107837602,-2.9400797,-9.649231,1.4981716999999999,-0.14274544,0.10972224,-0.112918034,-44.16,33.18,-4.98
1554107837622,-2.8491,-9.668385,1.4359225,-0.058589544,0.054328485999999995,-0.07776430000000001,-44.22,33.0,-5.04
1554107837642,-2.72939,-9.596559,1.2779051000000001,0.035153727999999995,0.023435817999999997,-0.037284255,-44.22,32.76,-5.1
1554107837663,-2.7772740000000002,-9.596559,1.4502877,0.083090626,0.008522116,-0.0053263223,-44.28,32.58,-5.22
1554107837682,-2.6384103,-9.567828,1.4215573000000001,0.07669904,0.011717908999999999,0.011717908999999999,-44.28,32.46,-5.34
1554107837702,-2.633622,-9.381081,1.4311341,0.06711166,0.033023197000000004,0.039414786,-44.28,32.4,-5.46
1554107837722,-2.681506,-9.424176,1.5747862,0.039414786,0.07350325,0.094808534,-44.28,32.28,-5.58
1554107837742,-2.6288335,-9.385869,1.4119805,-0.011717908999999999,0.10226539,0.112918034,-44.28,32.22,-5.7
1554107837763,-2.7341783,-9.357139,1.4502877,-0.03834952,0.11717909,0.11824436,-44.28,32.16,-5.76
1554107837782,-2.767697,-9.337985,1.2970588,-0.015978966,0.112918034,0.11504856,-44.28,32.1,-5.82
1554107837802,-2.7820622999999998,-9.376292,1.3640964,0.037284255,0.11717909,0.12570119999999999,-44.28,32.22,-5.88
1554107837822,-2.8921957000000003,-9.481637,1.7328035,0.080960095,0.12144015,0.16192019,-44.28,32.46,-5.88
1554107837843,-2.9257145,-9.44333,1.6849195,0.113983296,0.11824436,0.17470337,-44.22,32.7,-5.88
1554107837862,-2.9113493,-9.366715,1.4742297,0.13102753,0.12463594,0.16937704,-44.16,33.0,-5.88
1554107837882,-3.145981,-9.223063,1.5125369,0.13315806,0.13848437,0.19174760000000002,-44.1,33.3,-5.88
1554107837902,-3.1555579,-9.529521,1.6514006,0.13635385,0.15659387,0.2428803,-44.04,33.66,-5.88
1554107837922,-3.1794999,-9.496002,1.5125369,0.13102753,0.15978967,0.2695119,-43.92,33.96,-6.0
1554107837942,-3.2848446000000004,-9.409811,1.4838065,0.12676647,0.14487597,0.2727077,-43.86,34.2,-6.18
1554107837962,-3.3997664,-9.361927,1.38325,0.11504856,0.12250541,0.29294774,-43.74,34.26,-6.3
1554107837982,-3.3614593,-9.223063,1.4263457,0.1470065,0.10759171,0.32810146,-43.68,34.14,-6.54
1554107838002,-3.4093432,-9.32362,1.6944963,0.22370553,0.11504856,0.35899413,-43.62,34.02,-6.72
1554107838022,-3.4093432,-9.376292,1.8908207,0.32810146,0.128897,0.35792887,-43.56,33.84,-6.9
1554107838042,-3.5721489999999996,-8.959702,1.9674352,0.45699844,0.13422333,0.33555830000000003,-43.38,33.72,-7.08
1554107838063,-3.6200330000000003,-8.859145,1.9387047999999998,0.531567,0.09587380000000001,0.3334278,-43.26,33.66,-7.26
1554107838082,-3.4955344,-8.792108,1.6609775000000002,0.5400891,0.060720075,0.38242993,-43.08,33.66,-7.32
1554107838102,-3.5003227999999997,-8.911817999999998,2.0248961,0.5411543000000001,0.12144015,0.40053943,-42.84,33.96,-7.44
1554107838122,-3.7253778,-8.883087,2.0488381,0.49641323,0.12250541,0.35579833,-42.6,34.32,-7.56
1554107838142,-3.916914,-8.643666,1.9722236000000002,0.35153726,0.13954964,0.30999196,-42.3,34.74,-7.68
1554107838162,-3.7110126000000005,-8.643666,1.9722236000000002,0.10546118,0.13102753,0.28016454,-41.94,35.1,-7.8
1554107838183,-3.6774937999999993,-8.792108,1.4167688999999999,-0.09054748,0.10759171,0.25353295,-41.46,35.64,-8.04
1554107838202,-3.6200330000000003,-8.581417,1.5029601000000001,-0.11824436,0.13848437,0.26525086,-41.34,35.82,-8.1
1554107838222,-3.8833952000000003,-8.447341999999999,1.7663223000000001,-0.083090626,0.24607609,0.30040458,-41.04,36.06,-8.28
1554107838242,-4.0509889999999995,-8.322844,1.7806876,-0.21624869,0.24501082,0.39414784,-40.74,36.42,-8.52
1554107838263,-3.9839516,-8.519167999999999,1.8716671000000003,-0.24927188,0.19813919,0.42930159999999995,-40.62,36.48,-8.64
1554107838282,-4.074930999999999,-8.485649,1.4167688999999999,-0.1587244,0.11504856,0.4016047,-40.44,36.66,-8.7
1554107838302,-3.98874,-8.370728,1.1198878,-0.0031957934000000003,0.13209279,0.3536678,-40.32,36.9,-8.76
1554107838322,-4.2664676,-8.227076,1.7758990000000001,0.18855181,0.19174760000000002,0.28549087,-40.14,37.26,-8.82
1554107838342,-4.4963107,-7.882310400000001,1.7806876,0.14168017,0.112918034,0.30466563,-39.78,37.74,-8.88
1554107838363,-4.6016555,-8.049905,1.4838065,-0.10759171,0.00958738,0.3685815,-39.42,38.22,-8.88
1554107838382,-4.5633483,-8.365939,0.9091981,-0.4016047,-0.06391586,0.39521313,-39.06,38.64,-8.94
1554107838402,-4.6208089999999995,-8.476072,1.2348095,-0.5752428,-0.027696876000000002,0.34408042,-38.64,39.0,-8.94
1554107838422,-5.080496,-8.5622635,1.5795746000000002,-0.7052050999999999,0.0010652645,0.33875409999999995,-38.28,39.36,-9.0
1554107838442,-5.2768207,-8.782531,1.2779051000000001,-0.8852348,-0.02876214,0.43462790000000007,-37.92,39.66,-9.0
1554107838462,-5.434838,-8.849568,1.1007341999999998,-1.0173275,-0.06285059999999999,0.54648066,-37.44,40.08,-9.06
1554107838483,-5.544971,-8.974067,0.39205053,-1.0354371,-0.07456851,0.5901565,-37.08,40.56,-8.94
1554107838502,-5.57849,-8.825626,0.86131406,-0.9938916999999999,-0.04474111,0.59867865,-36.84,40.8,-8.64
1554107838522,-5.8849480000000005,-8.859145,1.4167688999999999,-0.92464954,-0.08735169,0.62317973,-36.54,41.22,-8.16
1554107838542,-6.0860605,-8.811261,1.1007341999999998,-0.7584683000000001,-0.26418558,0.72011876,-36.18,41.64,-7.56
1554107838562,-5.971139,-8.873510000000001,0.3824737,-0.5816344,-0.37390783,0.79894835,-35.7,42.18,-6.9
1554107838582,-6.1387334000000005,-8.854357,0.3776853,-0.44101948,-0.4079963,0.8042746999999999,-35.22,42.84,-6.06
1554107838602,-6.301539,-8.930971000000001,0.6218939,-0.49747851,-0.46232477,0.79255676,-34.74,43.62,-5.22
1554107838622,-6.4643445,-8.509591,0.7368156,-0.57098174,-0.5219796,0.77444726,-34.32,44.34,-4.38
1554107838642,-6.684611299999999,-8.322844,0.66498953,-0.5400891,-0.59761333,0.8000136,-33.84,45.0,-3.66
1554107838662,-6.813898,-8.294113000000001,0.6745663000000001,-0.47191215,-0.63383234,0.92784536,-33.42,45.66,-3.12
1554107838682,-6.6510925,-8.27496,0.85173726,-0.37603834,-0.6412892,1.0450244,-32.7,46.32,-2.7
1554107838702,-6.569689299999999,-7.848791599999999,1.0720038,-0.2876214,-0.67963874,1.0833739,-31.98,46.86,-2.22
1554107838722,-6.6367273,-7.4992385,1.1534066,-0.15339808,-0.74035877,1.063134,-31.2,47.4,-1.74
1554107838743,-6.569689299999999,-7.3843164,1.0911574,0.06924219,-0.76912093,1.0492854999999999,-30.42,47.7,-1.5
1554107838762,-6.5840545,-7.0251865,1.0528502,0.33449304,-0.76272935,1.0439591000000001,-29.64,48.06,-1.14
1554107838782,-6.670246000000001,-6.6229606,1.2060791000000002,0.5954828000000001,-0.75633776,1.0120013,-28.8,48.42,-0.84
1554107838802,-6.6654577,-6.206369400000001,1.158195,0.8522116,-0.7637946,0.9853696,-27.9,48.9,-0.48
1554107838822,-6.708553299999999,-5.880758,1.584363,1.0524813,-0.7574029999999999,1.0056095999999999,-26.88,49.5,-0.12
1554107838842,-6.780379300000001,-5.607819,1.7711107,1.1813782,-0.7765778,1.0279802,-26.1,50.04,0.12
1554107838862,-6.569689299999999,-5.497685400000001,1.5891514,1.2420983,-0.7233145999999999,0.9821738000000001,-25.38,50.58,0.12
1554107838882,-6.593631299999999,-5.0571527000000005,2.2260091,1.2783173,-0.6018744,0.85966843,-24.6,51.06,0.0
