TimeStamp,Ax,Ay,Az,Gx,Gy,Gz,Mx,My,Mz
1554104630653,-4.8267107000000005,-10.190321,5.257068,0.4857606,0.3153183,1.865278,2.58,63.0,24.48
1554104630673,-5.2145715,-7.6428905,3.8684312999999997,1.4647386,0.46658584,2.0112193,3.18,62.28,26.22
1554104630693,-5.66947,-5.5695120000000005,2.915539,1.7172063999999998,0.5273059,2.0442424,3.9,61.68,27.9
1554104630713,-6.0860605,-4.137779,2.28347,1.5094798,0.44421527,1.937716,4.86,61.02,29.46
1554104630733,-5.9807158,-3.3572693,2.1350293,1.0684601999999999,0.3057309,1.7374463,5.88,60.6,30.66
1554104630752,-6.0046577,-2.9981391,2.355296,0.6583334,0.25140239999999997,1.5659386999999998,6.9,60.42,31.08
1554104630773,-6.325481,-3.328539,2.508525,0.09374327,0.18002969,1.3315805,7.74,60.54,30.96
1554104630792,-6.497863300000001,-3.8313212,2.9011737999999996,-0.16618125,0.19281286,1.1749867,8.7,60.96,30.66
1554104630812,-6.5792660000000005,-4.0994720000000004,3.1262288,-0.094808534,0.18109496,1.015197,9.66,61.5,30.18
1554104630832,-6.3446345,-4.0372224,2.867655,0.06498113,0.17789917,0.8767126000000001,10.62,62.1,29.7
1554104630852,-6.4739213,-3.9510313999999997,3.0113072,0.21092236,0.24820662,0.7350325,11.58,62.7,29.22
1554104630872,-6.7468604999999995,-3.793014,3.2507273999999997,0.35899413,0.25353295,0.53795856,12.42,63.18,28.86
1554104630893,-7.0006455999999995,-3.5727474999999997,2.7910407000000004,0.41545314,0.24074976,0.4133226,13.26,63.54,28.56
1554104630913,-7.2113357,-3.769072,2.5037365,0.30999196,0.20772657,0.34940675,13.98,63.66,28.44
1554104630933,-7.369353,-3.970185,2.891597,0.101200126,0.16192019,0.2428803,14.7,63.66,28.56
1554104630953,-7.4699089999999995,-4.3436804,3.1070752,0.033023197000000004,0.07350325,0.13954964,15.3,63.6,28.62
1554104630972,-7.599196000000001,-4.549582,3.1022868,0.004261058,0.036218993,0.12144015,15.72,63.54,28.68
1554104630993,-7.9343843,-4.43466,3.0639796,-0.07882957,0.018109497,0.13209279,15.96,63.48,28.74
1554104631014,-8.149861999999999,-4.3676224,3.245939,-0.1438107,-0.03195793,0.08735169,16.08,63.42,28.8
1554104631033,-8.082825,-4.6884456,3.4566288,-0.12783173,-0.07030745599999999,0.07989483,16.14,63.36,28.74
1554104631052,-8.006210000000001,-4.8320975,3.4183214,0.018109497,-0.05219796,0.13315806,16.2,63.36,28.74
1554104631073,-8.101977999999999,-4.659715,3.3225534,0.113983296,-0.046871635999999994,0.19281286,16.26,63.36,28.68
1554104631093,-7.920019,-4.300585,3.3225534,0.07563378,-0.04474111,0.21837921,16.38,63.36,28.68
1554104631113,-7.9248075,-4.0755300000000005,3.3273417999999997,-0.027696876000000002,-0.033023197000000004,0.221575,16.5,63.36,28.62
1554104631133,-7.7667904000000005,-3.9989154,3.4997244,0.011717908999999999,-0.040480047000000005,0.20453078,16.62,63.36,28.62
1554104631153,-7.551311999999999,-3.7355532999999994,3.3512837999999996,0.25353295,-0.04580637,0.13209279,16.8,63.36,28.62
1554104631173,-7.268796400000001,-2.926313,3.6816837999999996,0.4857606,-0.011717908999999999,0.025566347000000003,16.98,63.36,28.56
1554104631193,-8.010999,-2.179322,2.5276785,0.53263223,0.01917476,-0.084155895,17.16,63.36,28.5
1554104631213,-8.494628,-2.7299886000000004,1.8333599999999999,-0.0063915867,0.0031957934000000003,0.007456851,17.28,63.36,28.44
1554104631232,-7.97748,-3.2902317,4.007295,-0.5411543000000001,-0.04261058,-0.13315806,17.4,63.36,28.38
1554104631252,-7.407660000000001,-2.6390088,3.7008373999999997,-0.44954160000000004,-0.068176925,-0.43356264,17.52,63.36,28.32
1554104631273,-7.747636999999999,-3.3476925000000004,3.3464954,-0.34301516,0.101200126,-0.42077947,17.58,63.36,28.26
1554104631293,-7.455544000000001,-3.86484,2.8532897999999998,-0.50387007,0.033023197000000004,-0.47297743,17.58,63.36,28.2
1554104631312,-6.895301,-3.3812113,2.532467,-0.7861651999999999,-0.03089267,-0.58056915,17.58,63.3,28.2
1554104631333,-6.684611299999999,-2.6437972000000003,2.2164322999999997,-1.1675298,-0.02876214,-0.6764429,17.52,63.3,28.2
1554104631353,-6.1530986,-1.7292121999999999,1.7854759999999998,-1.591505,-0.06498113,-0.8064051999999999,17.46,63.24,28.32
1554104631373,-5.386954,-1.7483658,1.3066356000000001,-1.9536950000000002,-0.20985709,-1.0684601999999999,17.34,63.24,28.68
1554104631393,-4.43885,-2.9167361,0.6841431,-2.4564998,-0.40586576,-1.4721955,17.16,63.18,29.22
1554104631413,-4.0701427,-3.4578260000000003,0.5021838,-3.0178943,-0.39947417,-1.8844528000000003,16.92,63.06,29.76
1554104631433,-4.376600700000001,-3.9653966,0.19572599,-3.2565134,-0.21731395,-2.1752700000000003,16.44,62.7,30.48
1554104631453,-4.721366000000001,-4.420294999999999,-0.7332243,-3.4631748,-0.101200126,-2.3318639,15.66,61.92,31.38
1554104631473,-4.228160400000001,-6.1489085999999995,-1.049259,-3.7241644999999997,-0.14807177,-2.5310683,14.82,60.9,32.46
1554104631493,-3.5913025999999997,-7.379528,-0.7763199000000001,-3.8211036,-0.10865697,-2.8570392000000004,13.92,59.46,33.78
1554104631513,-3.6200330000000003,-8.902241,-2.0739772000000003,-3.6858150000000003,0.21411815,-2.9273467,12.96,57.6,35.34
1554104631533,-4.5202527,-10.113707000000002,-3.8073792,-3.7870152000000004,0.5784385999999999,-2.5875272999999996,11.82,55.32,36.9
1554104631553,-5.2385135,-11.818378,-4.520851,-4.043744,0.74461985,-2.167813,10.5,52.74,38.28
1554104631573,-6.1243677000000005,-13.556567999999999,-4.420294999999999,-3.4993937000000006,0.58269966,-2.1699438,9.12,49.56,39.78
1554104631592,-5.8322754,-13.920487,-3.8983587999999996,-2.698315,0.46765109999999993,-1.8716697,7.92,46.2,41.22
1554104631612,-4.5777135,-13.235745000000001,-3.0268695,-1.8716697,0.55074173,-1.2261194,6.84,42.84,42.6
1554104631633,-4.865018,-13.07294,-2.3708582000000002,-1.0759171,0.47191215,-0.87138635,5.7,39.36,43.8
1554104631652,-5.60722,-13.111247,-2.461838,-0.32277513,0.20985709,-0.74781567,4.62,36.12,44.7
1554104631672,-5.1235914000000005,-12.98196,-2.7347770000000002,0.19813919,0.018109497,-0.4165184,3.6,33.12,45.36
1554104631693,-4.841076,-11.985972,-2.9167361,0.65513766,-0.096939065,-0.20985709,2.64,30.54,45.9
1554104631713,-4.692635500000001,-10.822391,-2.9646204,0.94488955,-0.17257284,-0.10759171,1.92,28.32,46.32
1554104631733,-4.1132383,-9.922171,-3.141791,1.0428939,-0.28229508,0.0063915867,1.44,26.76,46.62
1554104631753,-3.5242648,-9.261371,-2.9167361,1.0045444,-0.33875409999999995,0.08735169,1.02,25.92,46.86
1554104631773,-3.0885203,-8.84478,-2.8544869999999998,0.89588743,-0.314253,0.12570119999999999,0.72,25.8,46.92
1554104631793,-2.7724855,-8.648455,-2.9502552000000004,0.809601,-0.28122982,0.13848437,0.54,26.16,46.98
1554104631813,-2.5953147,-8.361151,-3.079542,0.7350325,-0.23435818,0.12783173,0.48,26.64,47.04
1554104631833,-2.4085669999999997,-8.251018,-3.1082723,0.6508765999999999,-0.18002969,0.12463594,0.48,27.42,46.98
1554104631853,-2.4851813,-8.06427,-3.0125043,0.51452273,-0.15978967,0.10439592,0.6,28.26,46.92
1554104631873,-2.5761611,-8.131308,-2.902371,0.34408042,-0.15126756,0.046871635999999994,0.72,29.22,46.8
1554104631893,-2.930503,-8.385093,-2.4809916000000003,0.24820662,-0.16937704,-0.053263225,0.78,30.18,46.74
1554104631913,-3.2944214,-8.667608,-2.1841104,0.22370553,-0.16405073,-0.12250541,0.96,30.96,46.62
1554104631933,-3.5338415999999997,-9.136872,-2.107496,0.31212249999999997,-0.18002969,-0.1587244,1.14,31.5,46.5
1554104631953,-3.4811692,-9.093777000000001,-2.2511482000000003,0.4133226,-0.21731395,-0.15126756,1.26,31.98,46.38
1554104631973,-3.4428620000000003,-9.036316000000001,-2.4570496,0.4250405,-0.27590349999999997,-0.13209279,1.38,32.4,46.26
1554104631993,-3.5434184,-9.0315275,-2.260725,0.294013,-0.32597092,-0.15339808,1.5,32.94,46.08
1554104632012,-3.6822822,-9.170391,-1.8297686999999998,0.21944448,-0.38882150000000004,-0.19387813,1.62,33.42,45.96
1554104632033,-3.6822822,-9.256582,-1.5041572,0.34940675,-0.4101268,-0.2034655,1.8,33.84,45.84
1554104632053,-3.5769374,-9.361927,-1.3509283,0.45806372,-0.4048005,-0.19281286,1.86,33.96,45.72
1554104632073,-3.5529952000000007,-9.227852,-1.2695253999999998,0.76485986,-0.38349520000000004,-0.17257284,2.16,34.74,45.42
1554104632092,-3.5577837999999997,-9.021951,-1.0444705,0.75420725,-0.36218992,-0.15978967,2.22,34.98,45.36
1554104632113,-3.5338415999999997,-8.825626,-1.0636241000000002,0.63702816,-0.37710363,-0.15659387,2.34,35.52,45.24
1554104632132,-3.5290532,-8.739435,-0.9487024,0.49534798,-0.3898868,-0.1768339,2.52,36.0,45.12
1554104632153,-3.5721489999999996,-8.787319,-0.87687635,0.35579833,-0.42397526,-0.19068234,2.76,36.66,45.0
1554104632173,-3.3997664,-8.806473,-0.6374562,0.26525086,-0.4644553,-0.19068234,3.0,37.26,44.94
1554104632192,-3.0789435000000003,-9.098564999999999,-0.56563014,0.24607609,-0.45699844,-0.20985709,3.18,37.8,44.88
1554104632212,-2.9640217,-9.098564999999999,-0.4890157,0.25353295,-0.44101948,-0.22264028,3.3,38.1,44.88
1554104632233,-3.0262709,-9.179967999999999,-0.29747957,0.2695119,-0.4165184,-0.21411815,3.48,38.88,44.82
1554104632253,-2.930503,-9.074622999999999,-0.20171149,0.2695119,-0.39627838,-0.21518342,3.66,39.36,44.76
1554104632273,-2.9831752999999996,-9.208698,-0.3453636,0.16405073,-0.39734364,-0.20879184,3.84,39.72,44.7
1554104632293,-2.7581203,-9.395446000000002,-0.110731825,-0.014913702,-0.38775626,-0.18322548,4.02,40.14,44.58
1554104632312,-2.7629087,-9.467272,0.08080431,-0.05752428,-0.34088463,-0.18642128,4.2,40.5,44.46
1554104632333,-2.7581203,-9.491214,0.14784196,-0.013848438000000001,-0.26738137,-0.17576863,4.38,40.68,44.34
1554104632353,-2.6910827,-9.414599,0.08080431,-0.01917476,-0.19600865,-0.13954964,4.62,40.86,44.22
1554104632373,-2.882619,-9.170391,0.008978256,-0.04261058,-0.14807177,-0.13528858,4.86,41.04,44.16
1554104632392,-2.7150247000000003,-9.318831,0.13826515,-0.08841695,-0.10546118,-0.13102753,5.04,41.16,44.04
1554104632413,-2.657564,-9.299678,0.12868834,-0.14274544,-0.041545313,-0.10972224,5.28,41.28,43.92
1554104632432,-2.681506,-9.44333,0.31064767,-0.111852765,0.022370555,-0.10013486,5.4,41.34,43.86
1554104632453,-2.9113493,-9.725846,0.10474633,-0.0063915867,0.07456851,-0.08948222,5.58,41.4,43.86
1554104632472,-2.882619,-9.68275,-0.019752163,0.054328485999999995,0.10972224,-0.041545313,5.64,41.46,43.86
1554104632493,-2.8443117,-9.68275,-0.0005985504,0.094808534,0.13635385,-0.0031957934000000003,5.7,41.46,43.86
1554104632513,-2.873042,-9.500791,0.061650693,0.12037488,0.17896444,0.034088463,5.7,41.46,43.86
1554104632533,-2.9783869,-9.481637,-0.010175358,0.1768339,0.19707392,0.06604639400000001,5.7,41.46,43.86
1554104632556,-3.1316159,-9.256582,-0.04369418,0.26418558,0.20453078,0.07989483,5.76,41.46,43.86
1554104632572,-3.1555579,-9.184756,-0.077213004,0.34514567,0.20026971,0.07776430000000001,5.76,41.4,43.86
1554104632592,-3.2321722999999998,-9.045893,-0.3357868,0.33768883,0.18216023,0.06391586,5.76,41.4,43.86
1554104632613,-3.1842883,-9.088988,-0.46028528,0.26844665,0.14913702,0.051132694000000006,5.76,41.4,43.86
1554104632633,-3.0741549999999997,-9.1033535,-0.5081693,0.2066613,0.13848437,0.04474111,5.76,41.4,43.86
1554104632653,-3.1316159,-9.1272955,-0.5129577000000001,0.01917476,0.10226539,0.025566347000000003,5.76,41.58,43.8
1554104632672,-3.2513257999999996,-9.1272955,-0.23523031,-0.024501082,0.07776430000000001,0.008522116,5.7,41.7,43.68
1554104632692,-3.1842883,-9.337985,-0.23044191,0.004261058,0.05539375,0.017044231,5.7,41.82,43.56
1554104632712,-2.9831752999999996,-9.381081,-0.077213004,0.07882957,0.053263225,0.025566347000000003,5.64,41.94,43.38
1554104632733,-2.9735985,-9.184756,-0.091578215,0.15339808,0.04580637,0.015978966,5.58,42.06,43.2
1554104632753,-2.9017725,-9.108141999999999,-0.014963761,0.13209279,0.058589544,0.017044231,5.46,42.18,43.08
1554104632773,-3.0358477,-9.021951,-0.11552023,0.09267801,0.06498113,0.0010652645,5.4,42.3,42.9
1554104632792,-2.9209259999999997,-8.954913000000001,0.032920275,0.11611383,0.07030745599999999,-0.02130529,5.34,42.36,42.72
1554104632812,-2.954445,-8.978855000000001,-0.0053869537,0.12996227,0.07776430000000001,-0.03089267,5.28,42.36,42.6
1554104632833,-2.8634652999999997,-8.892664,-0.038905777,0.06178534,0.09587380000000001,-0.05006743,5.16,42.3,42.6
1554104632852,-2.9400797,-9.0315275,0.02813187,-0.027696876000000002,0.09587380000000001,-0.09054748,5.04,42.24,42.54
1554104632872,-2.9879637000000003,-9.242217,-0.0053869537,-0.06391586,0.10333065,-0.12144015,4.98,42.12,42.6
1554104632893,-3.0358477,-9.500791,0.11432313,-0.07456851,0.113983296,-0.13102753,4.92,42.0,42.66
1554104632912,-2.992752,-9.601347,0.17657238,-0.049002163,0.13635385,-0.13741912,4.86,41.82,42.72
1554104632932,-3.2273839,-9.610924,0.08559271,0.012783173500000002,0.1587244,-0.13635385,4.86,41.7,42.72
1554104632952,-3.2321722999999998,-9.563039999999999,0.0712275,0.041545313,0.17044231,-0.101200126,4.8,41.58,42.72
1554104632972,-3.1268275,-9.476849000000001,0.037708677,0.054328485999999995,0.15978967,-0.06604639400000001,4.74,41.52,42.78
1554104632993,-3.0885203,-9.275736,-0.038905777,0.047936900000000005,0.15978967,-0.040480047000000005,4.68,41.46,42.78
1554104633012,-3.2513257999999996,-9.1512375,-0.02932897,0.025566347000000003,0.17470337,-0.01917476,4.56,41.4,42.84
1554104633032,-3.4189199999999995,-9.160814,-0.04369418,0.025566347000000003,0.17150758,-0.02130529,4.5,41.46,42.84
1554104633053,-3.4620156000000004,-9.11293,-0.17776948,0.03195793,0.14913702,-0.025566347000000003,4.38,41.46,42.78
1554104633073,-3.394978,-9.160814,-0.10594343,0.024501082,0.11717909,-0.018109497,4.26,41.52,42.78
1554104633092,-3.3183637000000004,-9.285313,-0.27353755,-0.013848438000000001,0.07989483,-0.018109497,4.14,41.64,42.78
1554104633113,-3.3423057000000003,-9.342773,-0.110731825,-0.020240024,0.040480047000000005,-0.022370555,4.02,41.88,42.78
1554104633133,-3.2752678,-9.505579,-0.15861586,0.036218993,0.0010652645,-0.03195793,3.9,42.18,42.78
1554104633153,-3.1364042999999997,-9.357139,-0.16819267,0.051132694000000006,-0.041545313,-0.015978966,3.84,42.42,42.78
1554104633173,-2.9975405,-9.462483,-0.38845924,0.047936900000000005,-0.05539375,-0.00958738,3.84,42.72,42.78
1554104633193,-2.9209259999999997,-9.275736,-0.14425065,0.05752428,-0.06285059999999999,-0.01917476,3.84,42.96,42.84
1554104633221,-2.873042,-9.266159,-0.12030864,0.07776430000000001,-0.05965481,-0.02130529,3.9,43.08,42.9
1554104633232,-2.834735,-9.0842,0.047285482000000004,0.082025364,-0.07350325,-0.022370555,3.9,43.2,42.9
1554104633253,-2.8682537,-9.041103999999999,0.05207389,0.05219796,-0.04261058,-0.037284255,3.96,43.44,42.96
1554104633272,-2.9496564999999997,-8.926183,0.18614918,0.007456851,-0.017044231,-0.049002163,4.02,43.56,42.96
1554104633293,-3.0262709,-9.007586,-0.04369418,-0.011717908999999999,-0.002130529,-0.06391586,4.08,43.62,42.96
1554104633312,-2.96881,-8.921394,0.037708677,-0.033023197000000004,-0.002130529,-0.07563378,4.14,43.62,42.96
1554104633333,-2.9783869,-9.122507,0.008978256,-0.09161274,-0.007456851,-0.09374327,4.08,43.56,43.02
1554104633352,-2.992752,-9.242217,-0.010175358,-0.13741912,-0.015978966,-0.11717909,4.14,43.56,43.02
1554104633373,-2.9879637000000003,-9.428965,0.109534726,-0.1438107,-0.01917476,-0.11930962,4.14,43.56,43.02
1554104633393,-3.0214825000000003,-9.548675,0.14784196,-0.10865697,-0.025566347000000003,-0.10546118,4.14,43.56,43.02
1554104633413,-2.8921957000000003,-9.606135,0.02813187,-0.06391586,-0.025566347000000003,-0.07456851,4.2,43.56,43.08
1554104633432,-2.9257145,-9.548675,-0.019752163,-0.025566347000000003,-0.014913702,-0.04474111,4.26,43.56,43.08
1554104633453,-2.9352913,-9.610924,0.05207389,0.0010652645,-0.007456851,-0.02876214,4.26,43.5,43.14
1554104633472,-3.0358477,-9.563039999999999,0.09516951400000001,0.056459017,0.004261058,-0.012783173500000002,4.2,43.5,43.2
1554104633492,-2.954445,-9.309255,0.02813187,0.09161274,0.017044231,-0.007456851,4.2,43.44,43.2
1554104633512,-2.8778305,-9.314043,0.19093758,0.084155895,0.020240024,-0.008522116,4.14,43.44,43.26
1554104633534,-2.9113493,-9.251794,0.18136078,0.05752428,0.024501082,-0.010652645,4.14,43.38,43.26
1554104633554,-2.9640217,-9.304466,-0.05327099,0.054328485999999995,0.027696876000000002,-0.017044231,4.08,43.38,43.2
1554104633574,-2.8778305,-9.199121,-0.0005985504,0.049002163,0.033023197000000004,-0.023435817999999997,4.02,43.38,43.2
1554104633594,-2.8395232999999998,-9.237428999999999,-0.04369418,0.047936900000000005,0.026631612000000002,-0.041545313,3.96,43.38,43.14
1554104633613,-2.7772740000000002,-9.093777000000001,0.19093758,0.00958738,0.034088463,-0.03834952,3.96,43.38,43.08
1554104633633,-2.9017725,-9.275736,-0.0005985504,0.007456851,0.03195793,-0.049002163,3.9,43.38,43.02
1554104633653,-3.0214825000000003,-9.309255,0.09516951400000001,0.015978966,0.029827405,-0.049002163,3.84,43.38,42.96
1554104633673,-2.9640217,-9.165602999999999,0.05686229,0.026631612000000002,0.03195793,-0.040480047000000005,3.84,43.38,42.96
1554104633692,-2.9257145,-9.170391,-0.05327099,0.027696876000000002,0.033023197000000004,-0.03834952,3.78,43.38,42.9
1554104633716,-3.0789435000000003,-9.251794,-0.06284779,0.013848438000000001,0.035153727999999995,-0.03834952,3.78,43.38,42.9
1554104633732,-3.0214825000000003,-9.309255,0.09995792,0.024501082,0.027696876000000002,-0.049002163,3.72,43.38,42.84
1554104633753,-2.9831752999999996,-9.280524,0.17657238,0.02876214,0.027696876000000002,-0.049002163,3.72,43.38,42.84
1554104633772,-2.8874072999999996,-9.251794,0.09516951400000001,0.002130529,0.033023197000000004,-0.043675844000000005,3.66,43.38,42.84
1554104633792,-2.9352913,-9.32362,0.05686229,-0.014913702,0.027696876000000002,-0.05006743,3.66,43.38,42.84
1554104633814,-2.9352913,-9.452907000000002,0.3681085,0.008522116,0.02876214,-0.056459017,3.6,43.38,42.84
1554104633832,-3.040636,-9.409811,0.20051439,0.02876214,0.02876214,-0.058589544,3.6,43.44,42.84
1554104633852,-3.0119057000000002,-9.438541,0.12389994,0.037284255,0.03195793,-0.053263225,3.6,43.44,42.84
1554104633873,-2.930503,-9.424176,0.018555064,0.05539375,0.040480047000000005,-0.053263225,3.6,43.5,42.84
1554104633893,-2.944868,-9.385869,0.23882163,0.07137272,0.051132694000000006,-0.04474111,3.6,43.5,42.78
1554104633913,-3.0023289,-9.251794,0.09995792,0.07243799,0.05752428,-0.03834952,3.54,43.56,42.78
1554104633933,-3.0502129,-9.218275,0.17178397,0.04580637,0.053263225,-0.03834952,3.54,43.62,42.78
1554104633953,-2.96881,-9.294889,-0.048482585999999994,0.03089267,0.047936900000000005,-0.04474111,3.42,43.68,42.78
1554104633973,-2.8969840000000002,-9.309255,0.023343466,0.054328485999999995,0.054328485999999995,-0.047936900000000005,3.36,43.74,42.72
1554104633992,-2.8921957000000003,-9.275736,-0.06284779,0.07563378,0.05965481,-0.046871635999999994,3.3,43.8,42.72
1554104634012,-2.8299465,-9.108141999999999,-0.038905777,0.054328485999999995,0.046871635999999994,-0.040480047000000005,3.24,43.86,42.66
1554104634032,-2.8538885,-9.160814,-0.091578215,0.026631612000000002,0.037284255,-0.04474111,3.18,43.86,42.6
1554104634053,-3.0071173,-9.074622999999999,0.12868834,0.02876214,0.041545313,-0.06178534,3.12,43.92,42.6
1554104634072,-3.0789435000000003,-9.251794,-0.019752163,0.029827405,0.035153727999999995,-0.06604639400000001,3.06,43.86,42.54
1554104634093,-2.944868,-9.065046,0.20051439,0.046871635999999994,0.036218993,-0.07776430000000001,3.0,43.86,42.54
1554104634113,-2.9783869,-9.141661000000001,0.032920275,0.036218993,0.036218993,-0.07882957,3.0,43.92,42.48
1554104634132,-3.0933087,-9.156025999999999,0.061650693,0.0,0.03834952,-0.07776430000000001,3.0,43.92,42.48
1554104634152,-2.9879637000000003,-9.20391,-0.0005985504,-0.039414786,0.027696876000000002,-0.08948222,2.94,43.86,42.42
1554104634172,-3.0119057000000002,-9.247005,0.15741876,-0.07350325,0.011717908999999999,-0.094808534,2.94,43.92,42.42
1554104634193,-2.834735,-9.409811,0.17178397,-0.11611383,0.008522116,-0.08628642,2.94,43.92,42.42
1554104634212,-2.8969840000000002,-9.596559,0.20530279,-0.10546118,0.013848438000000001,-0.08522116,2.88,43.92,42.42
1554104634232,-2.992752,-9.721058,0.3393781,-0.018109497,0.02130529,-0.06711166,2.88,43.92,42.48
1554104634254,-3.0071173,-9.697116000000001,0.20530279,0.05752428,0.041545313,-0.040480047000000005,2.88,43.92,42.48
1554104634273,-2.9592332999999997,-9.534309,0.25318682,0.07456851,0.06285059999999999,-0.012783173500000002,2.88,43.98,42.54
1554104634300,-3.1076740000000003,-9.543886,0.22924481,0.06285059999999999,0.084155895,0.022370555,2.88,44.04,42.54
1554104634312,-3.0214825000000003,-9.639654,0.24839842,0.06604639400000001,0.09374327,0.041545313,2.88,44.04,42.54
1554104634332,-2.8443117,-9.563039999999999,0.20051439,0.07563378,0.10652645,0.06391586,2.88,44.1,42.54
1554104634353,-2.834735,-9.510367,0.44951138,0.082025364,0.12037488,0.07989483,2.88,44.16,42.48
1554104634372,-2.6527755,-9.44333,0.29628247,0.10226539,0.14061491,0.09374327,2.88,44.16,42.48
1554104634395,-2.8203697,-9.32362,0.16220717,0.13635385,0.16298546,0.10333065,2.82,44.28,42.48
1554104634414,-2.7629087,-9.11293,0.08080431,0.16405073,0.19281286,0.10333065,2.76,44.28,42.42
1554104634433,-2.8634652999999997,-9.0842,-0.0005985504,0.15552860000000002,0.20133498,0.08522116,2.76,44.28,42.36
1554104634452,-2.834735,-8.916606,0.22445641,0.10333065,0.18429075,0.060720075,2.7,44.28,42.3
1554104634472,-2.882619,-8.883087,-0.019752163,0.0010652645,0.19174760000000002,0.04474111,2.64,44.34,42.3
1554104634492,-2.8491,-8.930971000000001,0.20530279,-0.07882957,0.2066613,0.025566347000000003,2.58,44.4,42.3
1554104634513,-2.9257145,-9.045893,0.28670564,-0.056459017,0.21411815,-0.017044231,2.52,44.52,42.36
1554104634533,-3.0023289,-9.136872,-0.091578215,0.084155895,0.21731395,-0.04261058,2.46,44.58,42.36
1554104634553,-3.0597897,-9.017161999999999,-0.05805939,0.14594123,0.22796659,-0.04261058,2.4,44.64,42.42
1554104634572,-3.1411927000000004,-8.772953999999999,-0.26874915,0.10546118,0.21731395,-0.06498113,2.4,44.7,42.42
1554104634593,-3.2848446000000004,-8.859145,-0.4890157,-0.03195793,0.1768339,-0.08841695,2.22,44.82,42.48
1554104634613,-3.2513257999999996,-9.1033535,-0.3309984,-0.10226539,0.12996227,-0.10013486,2.1,44.88,42.42
1554104634632,-3.1842883,-9.280524,-0.10115502,-0.10333065,0.10226539,-0.101200126,1.98,44.88,42.3
1554104634652,-3.0166939999999998,-9.481637,-0.11552023,-0.06178534,0.09161274,-0.07776430000000001,1.92,44.88,42.24
1554104634673,-3.1603463,-9.519944,-0.14903906,-0.041545313,0.10759171,-0.051132694000000006,1.74,44.88,42.12
1554104634693,-3.3566709,-9.47206,-0.350152,-0.026631612000000002,0.08841695,-0.05006743,1.62,44.88,42.0
1554104634713,-3.2369606,-9.390657000000001,-0.08200141,0.002130529,0.05752428,-0.024501082,1.44,44.82,41.94
1554104634732,-3.2369606,-9.433753,-0.16340427,0.022370555,0.05752428,0.008522116,1.32,44.82,41.82
1554104634755,-3.1747115000000004,-9.247005,0.032920275,-0.0010652645,0.060720075,0.026631612000000002,1.26,44.82,41.76
1554104634772,-3.1651347000000003,-9.179967999999999,-0.04369418,-0.037284255,0.058589544,0.023435817999999997,1.14,44.76,41.76
1554104634794,-3.2321722999999998,-9.213486999999999,0.023343466,-0.05006743,0.05006743,0.015978966,1.08,44.76,41.76
1554104634813,-3.2609026,-9.218275,-0.0053869537,-0.05006743,0.046871635999999994,0.015978966,1.02,44.76,41.76
1554104634833,-3.169923,-9.179967999999999,0.09516951400000001,-0.036218993,0.043675844000000005,0.008522116,1.02,44.76,41.82
1554104634853,-3.1603463,-9.132083999999999,-0.024540568,-0.018109497,0.039414786,-0.00958738,0.96,44.76,41.82
1554104634873,-3.2034418999999996,-9.247005,-0.13467385,-0.015978966,0.02876214,-0.022370555,0.96,44.76,41.82
1554104634892,-3.1794999,-9.170391,-0.0005985504,-0.024501082,0.020240024,-0.036218993,0.96,44.76,41.82
1554104634912,-3.2752678,-9.242217,-0.048482585999999994,-0.036218993,0.0031957934000000003,-0.040480047000000005,0.96,44.76,41.82
1554104634933,-3.2513257999999996,-9.136872,-0.26874915,-0.05219796,-0.014913702,-0.04474111,0.96,44.76,41.88
1554104634952,-3.2848446000000004,-9.242217,-0.3453636,-0.06391586,-0.026631612000000002,-0.041545313,0.96,44.76,41.88
1554104634973,-3.2800562000000006,-9.227852,-0.3357868,-0.05006743,-0.041545313,-0.03834952,0.96,44.76,41.94
1554104634993,-3.3279405,-9.160814,-0.27353755,-0.037284255,-0.060720075,-0.039414786,0.96,44.7,41.94
1554104635013,-3.2944214,-9.251794,-0.20649989,-0.06604639400000001,-0.07882957,-0.03195793,0.96,44.64,42.0
1554104635032,-3.2896330000000003,-9.189544999999999,-0.16819267,-0.098004326,-0.09267801,-0.02876214,0.96,44.58,42.0
1554104635052,-3.2369606,-9.208698,-0.30226797,-0.09587380000000001,-0.09587380000000001,-0.035153727999999995,1.02,44.52,42.0
1554104635073,-3.2225955,-9.170391,-0.20171149,-0.10652645,-0.09267801,-0.02130529,1.02,44.46,42.0
1554104635093,-3.2752678,-9.381081,-0.09636662,-0.111852765,-0.10759171,-0.026631612000000002,1.02,44.34,42.0
1554104635112,-3.0550013,-9.261371,-0.14903906,-0.099069595,-0.112918034,-0.036218993,1.02,44.28,42.0
1554104635133,-3.0693667000000002,-9.251794,-0.25438392,-0.08948222,-0.10865697,-0.036218993,1.08,44.16,41.94
1554104635153,-3.1268275,-9.285313,-0.19692309,-0.08522116,-0.10439592,-0.039414786,1.08,44.04,41.94
1554104635173,-3.1076740000000003,-9.20391,-0.45070848,-0.05219796,-0.10546118,-0.041545313,1.14,43.92,41.88
1554104635193,-2.954445,-9.342773,-0.24959552,-0.022370555,-0.10439592,-0.026631612000000002,1.2,43.8,41.88
1554104635212,-2.9400797,-9.285313,-0.26396075,-0.013848438000000001,-0.098004326,-0.029827405,1.2,43.68,41.94
1554104635233,-2.9831752999999996,-9.213486999999999,-0.3453636,-0.04261058,-0.10333065,-0.03195793,1.26,43.56,41.94
1554104635254,-3.0358477,-9.342773,-0.39803603,-0.04580637,-0.10759171,-0.033023197000000004,1.32,43.44,41.94
1554104635272,-2.9352913,-9.35235,-0.21128829999999998,-0.023435817999999997,-0.10759171,-0.035153727999999995,1.32,43.38,41.94
1554104635292,-2.7868507,-9.208698,-0.40282443,0.018109497,-0.09054748,-0.04261058,1.44,43.32,42.0
1554104635312,-2.9831752999999996,-9.132083999999999,-0.21607670000000004,0.018109497,-0.07350325,-0.053263225,1.56,43.32,42.06
1554104635333,-2.9783869,-9.141661000000001,-0.30226797,-0.026631612000000002,-0.07137272,-0.06178534,1.62,43.32,42.12
1554104635353,-2.930503,-9.223063,-0.4842273,-0.06604639400000001,-0.07243799,-0.07563378,1.74,43.38,42.24
1554104635373,-2.9017725,-9.318831,-0.11552023,-0.094808534,-0.06498113,-0.07456851,1.86,43.44,42.36
1554104635392,-2.8395232999999998,-9.366715,-0.0724246,-0.06498113,-0.040480047000000005,-0.07456851,1.98,43.5,42.42
1554104635412,-2.992752,-9.44333,-0.17776948,-0.013848438000000001,-0.03089267,-0.07137272,2.04,43.5,42.54
1554104635433,-2.992752,-9.309255,-0.26874915,0.023435817999999997,-0.012783173500000002,-0.06391586,2.16,43.5,42.66
1554104635453,-2.96881,-9.237428999999999,-0.3357868,0.02876214,-0.002130529,-0.07030745599999999,2.16,43.5,42.84
1554104635473,-2.8969840000000002,-9.199121,-0.25917232,0.0,-0.002130529,-0.07137272,2.16,43.56,42.9
1554104635493,-2.858677,-9.098564999999999,-0.25438392,-0.011717908999999999,-0.0010652645,-0.08948222,2.16,43.56,42.96
1554104635513,-2.9113493,-9.275736,-0.10594343,0.036218993,0.0053263223,-0.10652645,2.16,43.5,42.9
1554104635533,-2.8921957000000003,-9.390657000000001,-0.24959552,0.07243799,0.008522116,-0.11611383,2.16,43.5,42.9
1554104635553,-2.8491,-9.318831,-0.3645172,0.049002163,0.023435817999999997,-0.11611383,2.22,43.5,42.9
1554104635573,-2.9113493,-9.486425,-0.23044191,0.010652645,0.026631612000000002,-0.12463594,2.22,43.44,42.84
1554104635593,-2.9640217,-9.481637,-0.5081693,-0.039414786,0.018109497,-0.10865697,2.22,43.44,42.84
1554104635612,-2.930503,-9.68275,-0.350152,-0.09161274,0.010652645,-0.094808534,2.22,43.44,42.78
1554104635633,-2.8921957000000003,-9.615712,-0.31184477,-0.07350325,0.010652645,-0.10652645,2.22,43.38,42.72
1554104635653,-3.0023289,-9.606135,-0.350152,-0.008522116,0.011717908999999999,-0.10652645,2.16,43.38,42.72
1554104635673,-2.8778305,-9.601347,-0.38367084,0.026631612000000002,0.0010652645,-0.07350325,2.1,43.32,42.66
1554104635692,-2.9257145,-9.270947,-0.43155485,-0.012783173500000002,-0.013848438000000001,-0.023435817999999997,2.04,43.26,42.6
1554104635713,-3.064578,-9.35235,-0.28790274,-0.13635385,-0.017044231,0.015978966,1.98,43.2,42.6
1554104635733,-3.0502129,-9.433753,-0.41718966,-0.33129725,0.0063915867,0.039414786,1.92,43.2,42.6
1554104635753,-3.0789435000000003,-9.405023,-0.18255788,-0.6263755,0.024501082,0.10226539,1.86,43.14,42.54
1554104635773,-2.858677,-9.620500999999999,0.40641573,-1.0343717,0.07669904,0.18429075,1.74,43.08,42.54
1554104635792,-2.8634652999999997,-10.070611,0.9044097,-1.438107,0.24607609,0.294013,1.74,43.02,42.54
1554104635812,-3.083732,-10.683527,1.4311341,-1.6596819999999999,0.52411014,0.49002165,1.68,42.9,42.6
1554104635833,-3.0789435000000003,-11.377844999999999,1.2491747,-1.4998924,0.8969527,0.8000136,1.68,42.66,42.78
1554104635853,-2.8921957000000003,-11.669938,1.0528502,-1.0226538,1.1845741,1.0258497,1.74,42.12,43.08
1554104635872,-2.6719291000000003,-11.569381,0.7272388000000001,-0.38882150000000004,1.3731258999999998,1.107875,1.74,41.34,43.38
1554104635893,-2.4085669999999997,-10.3770685,-0.5081693,0.7914915,1.6799221000000002,1.171791,1.74,40.32,43.74
1554104635912,-2.4612392999999995,-9.299678,-1.5041572,1.3923006000000002,1.8216022,1.1558118999999998,1.68,39.36,43.98
1554104635933,-2.8682537,-8.500014,-2.6533740000000003,1.7076189999999998,1.7811221999999998,1.0237192,1.56,38.4,44.28
1554104635953,-3.2082303,-8.002021000000001,-3.342904,1.784318,1.6042882,0.81705785,1.2,37.62,44.46
1554104635973,-3.5290532,-7.719505000000001,-4.2383356,1.6181368,1.361408,0.62744075,0.66,37.2,44.58
1554104635993,-3.9408559999999997,-7.6668324000000005,-4.530428,1.3369069,1.1004181999999998,0.45167214,0.12,37.14,44.4
1554104636012,-4.3047748,-7.283760000000001,-4.7937902999999995,1.0652645,0.83516735,0.31212249999999997,-0.54,37.62,43.98
1554104636033,-4.3861775000000005,-7.015609700000001,-4.755483,0.8586031999999999,0.5752428,0.22796659,-1.2,38.4,43.38
1554104636053,-4.4005427,-6.800131299999999,-4.702811,0.6668556,0.330232,0.14913702,-1.92,39.48,42.78
1554104636073,-4.213794999999999,-6.632537400000001,-4.463390400000001,0.46978164,0.07563378,0.03195793,-2.52,40.68,42.18
1554104636093,-4.156333999999999,-6.666056,-4.209605000000001,0.31212249999999997,-0.14913702,-0.098004326,-3.12,41.94,41.58
1554104636112,-4.228160400000001,-6.771400999999999,-4.013280399999999,0.19707392,-0.31957933,-0.19813919,-3.48,43.08,41.04
1554104636132,-4.228160400000001,-6.7043633,-3.8073792,0.07456851,-0.4857606,-0.29614353,-3.66,44.04,40.56
1554104636153,-4.323928400000001,-6.689997999999999,-3.481768,-0.10333065,-0.6498113,-0.42184472,-3.84,44.82,40.2
1554104636173,-4.0797195,-7.0347633,-3.031658,-0.33875409999999995,-0.8490158000000001,-0.5539375,-3.9,45.36,39.9
1554104636193,-4.0318356,-7.480085000000001,-2.212841,-0.5858955,-0.9960223,-0.66152924,-3.9,45.9,39.78
1554104636213,-4.098873,-8.251018,-1.2982559,-0.76592517,-1.1014834999999998,-0.7499462,-3.9,46.26,39.66
1554104636233,-4.2664676,-9.0842,-0.3357868,-0.813862,-1.1579423999999998,-0.8117314999999999,-3.84,46.5,39.54
1554104636253,-4.5154643,-9.615712,0.30107087,-0.67963874,-1.1419635000000001,-0.79894835,-3.72,46.56,39.54
1554104636272,-4.434061499999999,-10.003573,0.27712885,-0.49428272,-1.099353,-0.7041398,-3.54,46.56,39.6
1554104636292,-4.103661499999999,-10.506355000000001,-0.019752163,-0.37071204,-1.0695255,-0.5965481,-3.18,46.26,39.78
1554104636313,-3.7828386,-10.6117,0.5069722,-0.43462790000000007,-1.0855045,-0.48043427,-2.7,45.54,40.14
1554104636333,-3.3470940000000002,-10.64043,1.0097545,-0.48469532,-1.071656,-0.4048005,-2.52,45.24,40.26
1554104636352,-3.1890767,-10.740988,1.1821371,-0.40266997,-0.9406285,-0.2790993,-2.22,44.64,40.62
1554104636373,-3.0358477,-10.659583999999999,1.1725603,-0.06285059999999999,-0.7414241,-0.12570119999999999,-1.74,43.74,41.22
1554104636393,-3.1986535,-10.295666,0.85173726,0.18961707,-0.5965481,-0.09161274,-1.5,43.14,41.7
1554104636413,-3.2321722999999998,-9.903017,0.42078096,0.33129725,-0.49641323,-0.113983296,-1.2,42.66,42.06
1554104636433,-3.3279405,-9.304466,-0.0676362,0.36325517,-0.41758367,-0.14274544,-1.02,42.24,42.36
1554104636452,-3.4524388,-9.141661000000001,-0.27832595,0.28016454,-0.36432046,-0.12357068,-0.78,41.94,42.6
1554104636472,-3.2752678,-8.930971000000001,-0.350152,0.15659387,-0.3206446,-0.07989483,-0.54,41.82,42.78
1554104636493,-3.1603463,-8.854357,-0.32142156,0.09161274,-0.24820662,-0.053263225,-0.24,41.82,42.9
1554104636513,-3.1794999,-8.768166,-0.41240123,0.043675844000000005,-0.18002969,-0.03089267,0.06,41.76,43.02
1554104636533,-3.2369606,-8.863934,-0.45070848,0.01917476,-0.13315806,-0.036218993,0.36,41.88,43.08
1554104636552,-3.3470940000000002,-8.811261,-0.3357868,-0.0063915867,-0.098004326,-0.06498113,0.66,42.06,43.02
1554104636572,-3.1364042999999997,-8.983644,-0.4985925,-0.0053263223,-0.07456851,-0.07882957,0.9,42.24,42.96
1554104636593,-3.1986535,-8.854357,-0.4890157,-0.002130529,-0.024501082,-0.09161274,1.14,42.42,42.84
1554104636613,-3.2896330000000003,-9.017161999999999,-0.7236475,-0.04261058,-0.010652645,-0.11504856,1.26,42.6,42.78
1554104636632,-3.4763808,-9.136872,-0.7332243,-0.16724652,-0.035153727999999995,-0.165116,1.32,42.78,42.66
1554104636652,-3.5529952000000007,-9.266159,-0.6183026,-0.29294774,-0.10439592,-0.21944448,1.38,42.96,42.54
1554104636673,-3.1555579,-9.409811,-0.5177461,-0.38136467,-0.15233281,-0.24927188,1.5,43.08,42.48
1554104636693,-3.2082303,-9.47206,-0.44113165,-0.32277513,-0.1768339,-0.27057716,1.56,43.08,42.42
1554104636713,-3.2130187,-9.548675,-0.41240123,-0.18002969,-0.21411815,-0.25140239999999997,1.56,43.08,42.36
1554104636732,-3.2130187,-9.500791,-0.27353755,-0.06178534,-0.23648871,-0.19174760000000002,1.56,42.96,42.3
1554104636752,-3.2082303,-9.510367,-0.0676362,0.011717908999999999,-0.24074976,-0.15765914,1.56,42.9,42.3
1554104636773,-3.1986535,-9.333197,-0.091578215,0.09587380000000001,-0.20559604,-0.10013486,1.56,42.66,42.36
1554104636792,-3.1890767,-9.156025999999999,-0.12509704,0.19707392,-0.16298546,-0.054328485999999995,1.56,42.48,42.36
1554104636812,-3.2082303,-9.285313,-0.077213004,0.30786142,-0.113983296,-0.00958738,1.56,42.3,42.54
1554104636836,-3.1411927000000004,-9.328408,-0.42197806,0.33129725,-0.08735169,0.004261058,1.5,42.12,42.66
1554104636853,-2.8634652999999997,-9.529521,-0.35494040000000004,0.25353295,-0.07350325,0.010652645,1.5,41.94,42.78
1554104636873,-2.753332,-9.496002,-0.32621,0.19600865,-0.02876214,-0.0063915867,1.5,41.82,42.9
1554104636892,-2.7485435000000003,-9.156025999999999,-0.23523031,0.18535602,0.023435817999999997,-0.0031957934000000003,1.5,41.7,43.02
1554104636912,-2.7820622999999998,-8.892664,-0.15382746,0.19068234,0.07137272,0.022370555,1.5,41.64,43.08
1554104636935,-2.882619,-8.854357,-0.40761283,0.22477080000000002,0.082025364,0.034088463,1.56,41.82,43.2
1554104636953,-2.767697,-8.859145,-0.24480712,0.20240025,0.08735169,0.051132694000000006,1.62,42.0,43.2
1554104636972,-2.7437549999999997,-9.017161999999999,-0.24480712,0.257794,0.13954964,0.022370555,1.62,42.18,43.14
1554104636994,-3.0741549999999997,-8.7538,-0.40761283,0.30040458,0.14807177,-0.035153727999999995,1.74,42.42,43.08
1554104637014,-3.3087866000000004,-8.57184,-0.30705637,0.22264028,0.12144015,-0.06498113,1.8,42.66,43.02
1554104637033,-3.2704793999999997,-8.648455,-0.52253455,0.07030745599999999,0.07563378,-0.08628642,1.92,42.9,43.02
1554104637053,-3.3135752999999997,-8.81605,-0.5177461,-0.10652645,0.037284255,-0.082025364,1.98,43.14,42.96
1554104637073,-3.0023289,-8.854357,-0.3645172,-0.17470337,0.018109497,-0.07350325,2.04,43.26,42.9
1554104637093,-2.9017725,-8.911817999999998,-0.30705637,-0.09587380000000001,0.018109497,-0.07669904,2.1,43.44,42.78
1554104637113,-2.873042,-9.074622999999999,-0.36930559999999996,-0.036218993,0.007456851,-0.080960095,2.16,43.5,42.72
1554104637132,-2.7581203,-8.988432000000001,-0.43634325,-0.04261058,-0.022370555,-0.08628642,2.22,43.56,42.66
1554104637153,-2.8155810000000003,-8.969278,-0.35494040000000004,-0.05219796,-0.01917476,-0.07243799,2.16,43.62,42.6
1554104637172,-2.8682537,-8.729858,-0.24959552,-0.07989483,-0.051132694000000006,-0.11717909,2.16,43.62,42.54
1554104637192,-2.882619,-8.868722,-0.29747957,-0.16298546,-0.11930962,-0.2130529,2.04,43.62,42.54
1554104637213,-2.5953147,-9.11293,-0.16819267,-0.23542345,-0.18535602,-0.28655612,1.98,43.62,42.48
1554104637233,-2.633622,-9.342773,0.061650693,-0.2972088,-0.18535602,-0.35792887,1.86,43.56,42.48
1554104637253,-3.098097,-9.644442999999999,-0.010175358,-0.24927188,-0.17789917,-0.4282363,1.8,43.56,42.48
1554104637272,-3.4859576,-9.701903999999999,-0.010175358,-0.15020229,-0.20453078,-0.4133226,1.74,43.5,42.48
1554104637292,-3.6200330000000003,-9.812037,-0.04369418,-0.1470065,-0.22264028,-0.34194988,1.74,43.44,42.48
1554104637313,-3.6727053999999995,-10.108918,0.3345897,-0.13848437,-0.26738137,-0.28229508,1.68,43.2,42.6
1554104637333,-3.5673605999999998,-10.180744,0.28191724,-0.05539375,-0.26631612,-0.19281286,1.68,43.02,42.72
1554104637352,-3.2034418999999996,-10.128072,0.46866497,0.046871635999999994,-0.24927188,-0.11717909,1.74,42.84,42.78
1554104637372,-2.8921957000000003,-9.840767999999999,0.27712885,0.13954964,-0.25566345,-0.08948222,1.74,42.6,42.84
1554104637393,-2.5905263,-9.749788,-0.19213470000000002,0.09161274,-0.24820662,-0.04474111,1.8,42.42,42.9
1554104637413,-2.4133554,-9.615712,-0.091578215,0.017044231,-0.23009712,-0.007456851,1.86,42.24,43.02
1554104637433,-2.2122424,-9.405023,0.05207389,-0.00958738,-0.19281286,0.017044231,1.92,42.12,43.08
1554104637453,-2.1547816,-9.170391,0.12389994,0.017044231,-0.16724652,0.013848438000000001,1.98,42.0,43.14
1554104637473,-2.2888567,-9.452907000000002,-0.0676362,0.07669904,-0.13209279,0.002130529,2.04,41.94,43.08
1554104637493,-2.4037786,-9.390657000000001,0.0712275,0.10652645,-0.08522116,0.00958738,2.04,41.88,43.02
1554104637513,-2.4420857000000002,-9.486425,0.43993455,0.20879184,-0.034088463,0.002130529,2.1,41.94,42.96
1554104637533,-2.4372973,-9.519944,0.30107087,0.37390783,-0.0010652645,-0.026631612000000002,2.22,41.94,42.84
1554104637552,-2.384625,-9.452907000000002,0.008978256,0.45806372,0.05219796,-0.025566347000000003,2.34,41.94,42.78
1554104637572,-2.4516625,-9.242217,-0.0005985504,0.26631612,0.06711166,-0.0063915867,2.4,42.0,42.72
1554104637592,-2.456451,-9.342773,0.11432313,0.05539375,0.05539375,0.0,2.46,42.18,42.66
1554104637612,-2.5570072999999995,-9.467272,0.31543607,-0.034088463,0.04261058,-0.034088463,2.52,42.42,42.6
1554104637633,-2.4899697,-9.644442999999999,0.3633201,0.023435817999999997,0.036218993,-0.027696876000000002,2.58,42.66,42.54
1554104637653,-2.3750482,-9.725846,0.25797522,0.21518342,0.060720075,-0.027696876000000002,2.64,42.9,42.54
1554104637673,-2.657564,-9.496002,0.023343466,0.38775626,0.10226539,-0.05006743,2.7,43.2,42.54
1554104637692,-3.0310593,-9.280524,-0.28790274,0.3334278,0.12250541,-0.03195793,2.7,43.44,42.54
1554104637713,-2.9831752999999996,-9.266159,-0.12030864,0.10546118,0.082025364,-0.020240024,2.7,43.68,42.6
1554104637732,-2.6671407000000005,-9.476849000000001,0.05686229,-0.027696876000000002,0.035153727999999995,-0.018109497,2.7,43.86,42.6
1554104637752,-2.4899697,-9.548675,-0.0005985504,-0.056459017,0.05752428,0.018109497,2.7,43.92,42.6
1554104637772,-2.566584,-9.433753,-0.12509704,-0.03834952,0.080960095,0.068176925,2.7,43.98,42.54
1554104637793,-2.5570072999999995,-9.093777000000001,0.018555064,-0.036218993,0.07137272,0.07456851,2.7,43.98,42.54
1554104637812,-2.5091232999999997,-9.184756,-0.26396075,-0.07563378,0.02876214,0.056459017,2.7,43.98,42.42
1554104637832,-2.4133554,-9.199121,-0.110731825,-0.19281286,0.013848438000000001,0.018109497,2.7,43.98,42.36
1554104637855,-2.542642,-8.930971000000001,-0.04369418,-0.36432046,-0.0031957934000000003,-0.008522116,2.64,44.04,42.24
1554104637873,-2.7772740000000002,-8.878299,0.032920275,-0.47191215,-0.024501082,-0.04580637,2.58,44.04,42.18
1554104637893,-3.0358477,-9.036316000000001,-0.038905777,-0.5230448000000001,-0.056459017,-0.06498113,2.46,44.04,42.12
1554104637912,-2.9879637000000003,-9.491214,-0.21128829999999998,-0.5422196,-0.098004326,-0.04580637,2.4,43.98,42.06
1554104637932,-2.9783869,-9.491214,-0.57041854,-0.57417756,-0.12144015,-0.034088463,2.28,43.86,42.12
1554104637953,-2.9496564999999997,-9.424176,-0.8912416,-0.77125144,-0.12144015,0.0010652645,2.22,43.74,42.18
1554104637973,-2.8203697,-9.256582,-0.82899237,-1.0748518999999999,-0.14594123,0.015978966,2.22,43.56,42.3
1554104637993,-2.7868507,-9.6923275,-0.3309984,-1.1899004,-0.1470065,0.0,2.22,43.2,42.48
1554104638013,-2.7820622999999998,-9.634866,-0.38845924,-1.0173275,-0.10972224,0.023435817999999997,2.28,42.78,42.72
1554104638032,-2.5378537,-9.510367,-1.1354501000000001,-0.9044095,-0.051132694000000006,0.08948222,2.4,42.12,43.02
1554104638052,-2.7868507,-9.318831,-1.5759833,-1.0056095999999999,-0.036218993,0.041545313,2.52,40.98,43.68
1554104638073,-2.8395232999999998,-9.519944,-1.5089456,-1.0727214,-0.054328485999999995,-0.023435817999999997,2.58,40.14,44.04
1554104638092,-2.7868507,-9.634866,-1.6382325,-1.0066749,-0.04580637,-0.024501082,2.7,39.18,44.4
1554104638113,-2.5617957000000002,-9.371504,-1.9159599999999999,-0.8863,-0.027696876000000002,0.00958738,2.76,38.22,44.64
1554104638132,-2.6431987,-9.11293,-2.0308816000000003,-0.76592517,0.0053263223,0.03195793,2.88,37.2,44.94
1554104638152,-2.657564,-9.160814,-1.9159599999999999,-0.7318366999999999,0.015978966,0.05752428,2.88,36.06,45.12
1554104638172,-2.6479871,-10.032304,-1.6861166,-0.53795856,-0.018109497,0.022370555,2.94,35.1,45.3
1554104638193,-2.5043349999999998,-10.214263,-1.4610616,0.0,0.043675844000000005,-0.0031957934000000003,2.94,34.26,45.3
1554104638212,-2.4468741,-10.041881,-2.0644004000000002,0.55074173,0.14274544,0.05219796,2.94,33.48,45.24
1554104638232,-2.7102362999999996,-9.644442999999999,-1.9829974999999997,0.8681905000000001,0.1768339,0.06924219,3.0,32.82,45.24
1554104638253,-2.8107927000000004,-9.730635000000001,-1.5041572,1.0365024,0.17576863,0.060720075,2.94,32.28,45.3
1554104638273,-2.8155810000000003,-10.037092,-1.1546037,1.2218584,0.18642128,0.10759171,2.94,31.92,45.36
1554104638292,-2.7868507,-10.22384,-0.47465047,1.6596819999999999,0.26312032,0.11930962,2.94,32.04,45.42
1554104638313,-2.9113493,-10.515932000000001,-0.024540568,2.3062975,0.33662358,0.12144015,2.94,32.64,45.54
1554104638332,-2.9592332999999997,-10.319608,0.22445641,3.1308122000000003,0.45380265,0.15659387,2.88,33.42,45.54
1554104638352,-3.4189199999999995,-9.898228999999999,-0.3357868,3.6996634,0.5230448000000001,0.23116238,2.88,34.68,45.54
1554104638372,-3.2848446000000004,-9.491214,-0.38845924,3.5100464999999996,0.47510794,0.32277513,2.82,36.3,45.36
1554104638393,-3.5194763999999994,-9.548675,2.6569653,3.3864758000000004,0.54435015,0.18322548,2.76,38.28,45.0
1554104638414,-4.060566000000001,-11.009138,2.40318,4.233361,0.59228706,0.31851408,2.76,40.68,44.34
1554104638433,-3.3039982000000006,-10.185533,1.8429368000000002,4.4560013,0.6317018,0.5656554,2.7,43.26,43.14
1554104638452,-3.5338415999999997,-8.322844,2.0440497,4.0181775,0.6327670999999999,0.39521313,2.64,46.02,41.76
1554104638473,-4.2185836,-7.2023573,2.5611973,3.3491913999999996,0.58483016,0.2695119,2.58,48.78,39.96
1554104638493,-4.232949,-6.9102645,2.9730000000000003,2.7547739,0.5273059,0.37816888,2.58,51.6,38.04
1554104638512,-3.6631286,-6.7330937,3.0544027999999996,2.198706,0.46125950000000004,0.49747851,2.52,54.24,35.88
1554104638532,-3.5194763999999994,-6.6852098,3.7104141999999998,1.4860438999999999,0.39095205,0.45167214,2.52,56.64,33.6
1554104638553,-3.9025488,-6.627749000000001,4.634576,1.0567423,0.3323625,0.31105720000000003,2.52,58.68,31.44
1554104638573,-3.9647980000000005,-6.531981,4.8165355000000005,0.92464954,0.23968449999999997,0.25033715,2.58,60.42,29.46
1554104638592,-3.98874,-6.3165026,4.6154222,0.7669904000000001,0.14487597,0.16298546,2.64,61.86,27.9
1554104638613,-4.209007,-6.1489085999999995,4.7925935,0.61572284,0.09267801,0.07669904,2.7,62.88,26.58
1554104638633,-4.3574470000000005,-6.1058129999999995,4.4861355000000005,0.63915867,0.058589544,0.09374327,2.82,63.6,25.5
1554104638653,-4.271256,-6.0291986,4.2993879999999995,0.44315,0.036218993,0.12144015,3.0,64.08,24.54
1554104638672,-4.4675803,-5.976526,4.194042700000001,0.11611383,0.023435817999999997,0.08841695,3.06,64.38,23.88
1554104638692,-4.314351599999999,-6.0866594,4.7159786,-0.28975195,0.0010652645,0.07243799,3.18,64.62,23.4
1554104638712,-4.232949,-6.6612678,5.4102974,-0.38349520000000004,-0.002130529,0.05539375,3.3,64.8,22.98
1554104638732,-4.2999864,-6.7091517000000005,5.1086279999999995,-0.24181503,-0.03834952,0.053263225,3.36,64.92,22.68
1554104638752,-4.3574470000000005,-5.8663926,4.5100775,-0.25885928,-0.10333065,0.012783173500000002,3.42,65.04,22.44
1554104638773,-4.2760444,-5.607819,3.9354692000000004,-0.6892261,-0.18642128,0.0053263223,3.48,65.16,22.26
1554104638792,-4.146757,-6.033987000000001,4.1844660000000005,-1.2921658,-0.25566345,-0.020240024,3.48,65.22,22.14
1554104638813,-3.8307227999999998,-7.092224000000001,5.113416,-1.6106798999999998,-0.27590349999999997,-0.05006743,3.48,65.28,22.14
1554104638833,-3.7684733999999995,-8.188768,5.4390279999999995,-1.3507552999999999,-0.2695119,-0.07776430000000001,3.54,65.34,22.26
1554104638852,-3.6822822,-8.160038,5.319318,-0.84581995,-0.27377295,-0.07030745599999999,3.6,65.34,22.5
1554104638872,-3.7445314,-7.484873299999999,4.4382515,-0.5656554,-0.29827404,-0.084155895,3.6,65.34,22.98
1554104638892,-4.0318356,-7.0012445,4.2131963,-0.66579026,-0.3206446,-0.07456851,3.66,65.22,23.64
1554104638913,-4.3478703,-7.1353197,4.3424835,-0.90014845,-0.3653857,-0.07882957,3.66,65.04,24.6
1554104638933,-4.0701427,-8.030750999999999,4.941033999999999,-0.85753787,-0.37816888,-0.098004326,3.72,64.8,25.26
1554104638953,-3.7780502,-8.246229,5.2810106,-0.5454154,-0.37390783,-0.14594123,3.78,64.56,25.98
1554104638973,-3.9935283999999998,-7.958925,5.218761,-0.24927188,-0.29827404,-0.18961707,3.84,64.26,26.7
1554104638993,-4.1419687000000005,-7.542333999999999,4.5962687,-0.23435818,-0.26418558,-0.20559604,3.9,63.84,27.42
1554104639012,-4.156333999999999,-7.480085000000001,4.5723267,-0.386691,-0.21518342,-0.19600865,4.02,63.36,27.9
1554104639032,-4.0557775000000005,-7.8152729999999995,4.2419267,-0.51026165,-0.18748654,-0.17789917,4.08,62.94,28.2
1554104639054,-4.0078936,-8.160038,4.500500700000001,-0.45486793,-0.19387813,-0.1438107,4.2,62.58,28.44
1554104639072,-3.7062242,-7.7626004,4.4765587,-0.3323625,-0.19174760000000002,-0.098004326,4.26,62.22,28.86
1554104639092,-3.6535518,-7.614160000000001,4.208408,-0.28016454,-0.18535602,-0.06498113,4.32,61.98,29.16
1554104639120,-3.6200330000000003,-7.4896617,4.1078515,-0.3174488,-0.19068234,-0.053263225,4.38,61.74,29.52
1554104639134,-3.6583402,-7.480085000000001,3.9641995000000003,-0.330232,-0.19387813,-0.06391586,4.38,61.56,29.76
1554104639153,-4.0270470000000005,-7.839214999999999,4.1222167,-0.26205507,-0.19707392,-0.094808534,4.44,61.5,30.0
1554104639172,-4.0318356,-8.236652000000001,3.8061821000000005,-0.12357068,-0.25140239999999997,-0.15126756,4.5,61.5,30.24
1554104639192,-3.9983168,-8.30369,3.7487214,-0.024501082,-0.2972088,-0.27377295,4.5,61.5,30.48
1554104639214,-3.7924154000000003,-8.073847,3.6290112,-0.084155895,-0.37923414,-0.3536678,4.56,61.44,30.72
1554104639232,-3.2704793999999997,-8.059482000000001,3.5045127999999997,-0.28655612,-0.41438788,-0.33662358,4.56,61.44,30.9
1554104639252,-3.1794999,-8.18398,3.6433763999999997,-0.4282363,-0.43249738,-0.3291667,4.56,61.38,31.08
1554104639273,-3.2465374,-8.4234,3.9546227,-0.4101268,-0.46019423,-0.26312032,4.56,61.26,31.14
1554104639293,-3.0502129,-8.576628999999999,3.9163153,-0.2545982,-0.48043427,-0.19281286,4.56,61.08,31.26
1554104639313,-2.9161377,-8.351574000000001,4.055179,-0.11717909,-0.47297743,-0.13315806,4.56,60.96,31.32
1554104639333,-2.9017725,-8.116942,3.7056258,-0.054328485999999995,-0.45806372,-0.084155895,4.5,60.84,31.44
1554104639353,-3.040636,-7.882310400000001,3.5763388,-0.017044231,-0.43995422,-0.03089267,4.5,60.72,31.56
1554104639373,-2.9400797,-7.915829,3.6577415,-0.010652645,-0.43249738,0.011717908999999999,4.5,60.6,31.8
1554104639392,-2.7389667,-8.030750999999999,3.5332432000000003,-0.014913702,-0.39947417,0.03195793,4.5,60.48,31.98
1554104639412,-2.6288335,-8.385093,3.5763388,-0.00958738,-0.31638354,0.020240024,4.56,60.42,32.22
1554104639433,-2.657564,-8.519167999999999,3.696049,0.035153727999999995,-0.22690132,-0.012783173500000002,4.62,60.36,32.4
1554104639453,-2.825158,-8.5383215,3.4039562000000005,0.012783173500000002,-0.16192019,-0.037284255,4.68,60.36,32.58
1554104639475,-2.6288335,-8.624513,3.6625300000000003,-0.07882957,-0.12463594,-0.06711166,4.8,60.3,32.76
1554104639493,-2.4947581000000003,-9.012374000000001,4.079121,-0.15233281,-0.09587380000000001,-0.10226539,4.86,60.18,32.88
1554104639512,-2.255338,-9.237428999999999,4.4382515,-0.099069595,-0.083090626,-0.12357068,4.98,60.12,33.0
1554104639532,-1.9536686,-9.093777000000001,4.6633059999999995,0.040480047000000005,-0.07350325,-0.13209279,5.04,60.0,32.94
1554104639574,-2.0398598000000003,-8.097789,4.256292,0.22583607,-0.10013486,-0.16192019,5.1,59.82,32.88
1554104639574,-2.0398598000000003,-8.097789,4.256292,0.22583607,-0.10013486,-0.16192019,5.1,59.82,32.88
1554104639593,-2.1547816,-7.877522,4.395156,0.18322548,-0.11504856,-0.18748654,5.1,59.76,32.88
1554104639613,-2.4468741,-7.7769656000000005,4.4238862999999995,0.08841695,-0.13954964,-0.22050974,5.1,59.7,32.88
1554104639632,-2.528277,-8.040328,4.433463,-0.03834952,-0.16724652,-0.23329292,5.04,59.64,32.82
1554104639653,-2.585738,-8.227076,4.4957123,-0.07563378,-0.15978967,-0.23222765,4.98,59.58,32.76
1554104639673,-2.5378537,-8.45213,4.2419267,0.013848438000000001,-0.1470065,-0.22583607,4.92,59.58,32.76
1554104639692,-2.5617957000000002,-8.30369,4.32333,0.07243799,-0.12250541,-0.21092236,4.92,59.58,32.76
1554104639712,-2.5091232999999997,-8.227076,3.9115269999999995,0.15446335,-0.07030745599999999,-0.20559604,4.92,59.52,32.7
1554104639734,-2.6288335,-8.083424,3.9641995000000003,0.14487597,-0.011717908999999999,-0.19813919,4.86,59.52,32.7
1554104639752,-2.5617957000000002,-8.179192,3.6337996,0.036218993,0.07882957,-0.17150758,4.8,59.52,32.64
1554104639773,-2.633622,-8.236652000000001,3.54282,-0.046871635999999994,0.13528858,-0.15552860000000002,4.74,59.52,32.58
1554104639793,-2.6623523,-8.322844,3.5859156000000003,-0.096939065,0.17896444,-0.12676647,4.74,59.58,32.46
1554104639813,-2.6001031,-8.169615,3.2746694,-0.12144015,0.19281286,-0.099069595,4.68,59.58,32.4
1554104639833,-2.7246015,-8.169615,3.470994,-0.16937704,0.18748654,-0.082025364,4.62,59.64,32.34
1554104639852,-2.7341783,-8.102577,3.413533,-0.20026971,0.15765914,-0.083090626,4.56,59.7,32.22
1554104639873,-2.7581203,-8.231864,3.5332432000000003,-0.20879184,0.10759171,-0.07776430000000001,4.5,59.76,32.16
1554104639893,-2.6192567,-8.4234,3.5715504,-0.23648871,0.06285059999999999,-0.07776430000000001,4.44,59.82,32.16
1554104639914,-2.5809495,-8.758589,3.6816837999999996,-0.22796659,0.012783173500000002,-0.09587380000000001,4.38,59.82,32.16
1554104639933,-2.3942018,-9.026739,3.887585,-0.18748654,-0.02876214,-0.083090626,4.26,59.88,32.22
1554104639952,-2.2026656000000004,-9.160814,3.7966053,-0.10333065,-0.060720075,-0.056459017,4.14,59.94,32.28
1554104639973,-2.006341,-8.897452000000001,3.9881415000000002,-0.07030745599999999,-0.06285059999999999,-0.02876214,4.08,59.94,32.34
1554104639993,-2.0398598000000003,-8.715492999999999,3.8540661,-0.058589544,-0.053263225,-0.024501082,4.02,59.88,32.4
1554104640013,-1.9871874,-8.619724,3.9833531000000004,-0.053263225,-0.033023197000000004,-0.05006743,3.96,59.88,32.46
1554104640033,-1.9823990000000002,-8.744224,3.9641995000000003,-0.056459017,-0.0031957934000000003,-0.08948222,3.9,59.82,32.46
1554104640052,-1.8243817,-8.739435,4.1317935,-0.043675844000000005,0.046871635999999994,-0.11611383,3.84,59.82,32.52
1554104640073,-1.8962077000000002,-8.839992,3.9785647000000006,-0.002130529,0.08735169,-0.1470065,3.78,59.76,32.46
1554104640092,-2.0590134,-8.902241,3.8301241000000004,0.017044231,0.10013486,-0.18322548,3.78,59.7,32.58
1554104640113,-2.006341,-8.749011999999999,3.9306807999999998,-0.00958738,0.07882957,-0.20453078,3.78,59.58,32.64
1554104640132,-1.9201498,-8.825626,4.0216603,-0.037284255,0.058589544,-0.21944448,3.72,59.34,32.76
1554104640153,-1.9823990000000002,-8.84478,4.1844660000000005,0.008522116,0.051132694000000006,-0.18855181,3.66,59.04,32.88
1554104640172,-2.0015526,-8.672397,4.103063,0.17150758,0.06498113,-0.15126756,3.54,58.62,33.0
1554104640192,-2.1691467999999996,-8.409035000000001,3.9689879999999995,0.3206446,0.082025364,-0.11611383,3.36,58.26,33.12
1554104640215,-2.2026656000000004,-8.112153999999999,3.7535098,0.37071204,0.113983296,-0.10013486,3.12,57.9,33.24
1554104640233,-2.3080103,-8.212710000000001,3.54282,0.3206446,0.17150758,-0.096939065,2.88,57.6,33.24
1554104640252,-2.3415293999999998,-8.289325,3.5859156000000003,0.27057716,0.21731395,-0.10759171,2.7,57.42,33.24
1554104640272,-2.4277205000000004,-8.504802999999999,3.5811272000000005,0.23648871,0.26205507,-0.12250541,2.46,57.3,33.12
1554104640292,-2.3942018,-8.648455,3.6290112,0.19387813,0.32384038,-0.128897,2.28,57.36,33.06
1554104640313,-2.3942018,-8.926183,4.1270050000000005,0.19387813,0.39095205,-0.13315806,2.16,57.6,33.0
1554104640333,-2.4133554,-8.969278,4.0025067000000005,0.26205507,0.43782368,-0.12250541,2.04,57.9,32.88
1554104640352,-2.3080103,-8.763377,3.9163153,0.33662358,0.45699844,-0.10759171,2.04,58.14,32.7
1554104640372,-2.3175871,-8.519167999999999,3.9258924,0.34514567,0.4708469,-0.10972224,2.1,58.38,32.52
1554104640394,-2.5330652999999996,-8.385093,3.7582982000000005,0.34194988,0.45593318,-0.11504856,2.1,58.68,32.4
1554104640412,-2.4612392999999995,-8.337209,3.7199910000000003,0.33981937,0.43036684,-0.10865697,2.1,58.86,32.22
1554104640435,-2.4851813,-8.236652000000001,3.7535098,0.33555830000000003,0.37390783,-0.10759171,2.1,59.1,31.98
1554104640453,-2.4708161,-8.289325,3.7487214,0.29507825,0.3323625,-0.10439592,2.04,59.16,31.86
1554104640472,-2.3319526,-8.193557,3.3752258,0.21944448,0.294013,-0.10865697,1.98,59.28,31.56
1554104640493,-2.327164,-8.356361999999999,3.6529531000000004,0.1587244,0.2695119,-0.1107875,1.92,59.34,31.14
1554104640513,-2.2888567,-8.590994,3.8588544999999996,0.17150758,0.24501082,-0.12357068,1.86,59.46,30.84
1554104640533,-2.1260512,-8.763377,3.8492777,0.22264028,0.22264028,-0.128897,1.8,59.58,30.54
1554104640553,-1.8243817,-8.705916,3.743933,0.29188246,0.23648871,-0.13315806,1.68,59.76,30.3
1554104640572,-1.6950948000000001,-8.509591,3.5332432000000003,0.330232,0.28549087,-0.14594123,1.62,59.88,30.0
1554104640593,-1.8195933000000002,-8.294113000000001,3.54282,0.34088463,0.31638354,-0.18109496,1.5,60.0,29.76
1554104640613,-1.9632453999999997,-8.059482000000001,3.3704373999999997,0.25140239999999997,0.32490566,-0.24820662,1.38,60.12,29.52
1554104640633,-2.0446482,-8.174403,3.54282,0.08841695,0.3206446,-0.34834146,1.2,60.3,29.28
1554104640652,-2.3080103,-8.835203,3.8109705000000003,-0.049002163,0.29827404,-0.4708469,1.02,60.42,29.1
1554104640672,-2.3032220000000003,-9.376292,4.1317935,-0.11504856,0.2876214,-0.5475459,0.72,60.54,28.92
1554104640693,-1.9776106,-9.7641535,4.4143095,-0.07456851,0.2908172,-0.5613944000000001,0.36,60.66,28.74
1554104640713,-1.5801731,-9.534309,4.194042700000001,0.07989483,0.34621096,-0.5219796,-0.3,60.72,28.5
1554104640733,-1.6950948000000001,-9.055469500000001,4.2754455,0.165116,0.3898868,-0.50173956,-0.54,60.78,28.38
1554104640752,-1.6041151000000002,-8.385093,4.371214,0.15020229,0.4282363,-0.48149952,-0.96,60.78,28.26
1554104640772,-1.6998832,-8.069058,4.447828299999999,0.10226539,0.47723848,-0.47617322,-1.56,60.78,28.14
1554104640792,-1.7286136000000003,-8.174403,4.5340195,0.13954964,0.51026165,-0.44528055,-1.92,60.66,28.14
1554104640813,-1.6711528000000002,-7.9876556,4.7878050000000005,0.22690132,0.5219796,-0.41758367,-2.28,60.6,28.02
1554104640833,-1.8004397,-7.858368400000001,4.6680946,0.30999196,0.5219796,-0.41438788,-2.46,60.42,27.9
1554104640853,-1.7477672,-7.5950065,4.529230999999999,0.3291667,0.5113269,-0.38882150000000004,-2.64,60.3,27.72
1554104640872,-1.6089035,-7.317278999999999,4.4717703,0.30040458,0.5049353,-0.38136467,-2.88,60.18,27.48
1554104640893,-1.8291701,-7.1113777,4.524442700000001,0.19600865,0.535828,-0.4101268,-3.18,60.12,27.18
1554104640913,-2.1930888,-7.3268557,4.9218802,0.1470065,0.5656554,-0.45699844,-3.48,60.0,26.88
1554104640933,-2.6431987,-7.527969000000001,4.7255554,0.18216023,0.56245965,-0.5432849000000001,-3.78,59.94,26.58
1554104640953,-3.064578,-7.891887,4.9458222,0.165116,0.5368933000000001,-0.6828345,-4.14,59.94,26.22
1554104640972,-3.2273839,-8.399458000000001,5.180454,0.054328485999999995,0.45273739999999996,-0.8479504999999999,-4.5,59.94,25.98
1554104640993,-2.8107927000000004,-8.916606,5.156512,-0.14913702,0.3334278,-0.9502159,-4.8,59.88,25.68
1554104641013,-2.3702598,-9.539098,5.501277,-0.32277513,0.28868666,-0.9139969000000001,-5.22,59.76,25.5
1554104641033,-2.552219,-9.385869,5.37199,-0.23968449999999997,0.30253512,-0.7840345999999999,-5.58,59.58,25.32
1554104641053,-2.992752,-8.705916,5.5347957999999995,-0.011717908999999999,0.31638354,-0.5901565,-6.06,59.28,25.08
1554104641072,-3.0214825000000003,-7.839214999999999,5.060744000000001,0.24820662,0.28975195,-0.38562572,-6.6,58.92,24.84
1554104641093,-3.0502129,-7.0491285,4.529230999999999,0.31957933,0.2695119,-0.31105720000000003,-7.26,58.5,24.6
1554104641113,-3.2130187,-6.675633,4.347272,0.28655612,0.2695119,-0.26844665,-7.98,58.14,24.36
1554104641132,-3.2800562000000006,-6.7426705,4.2036195,0.19281286,0.2545982,-0.21944448,-8.64,57.78,24.06
1554104641153,-3.0071173,-7.2646065,4.23235,0.10333065,0.23222765,-0.165116,-9.18,57.42,23.7
1554104641172,-2.7964275,-7.623736999999999,4.32333,0.07882957,0.23009712,-0.13741912,-9.66,57.12,23.34
1554104641192,-2.6527755,-7.9062524000000005,4.270657,0.096939065,0.22370553,-0.12996227,-10.08,56.88,23.04
1554104641212,-2.3558946,-8.279748,4.1844660000000005,0.07882957,0.20453078,-0.12250541,-10.44,56.76,22.74
1554104641232,-2.0398598000000003,-8.696339,4.222773,0.04580637,0.18002969,-0.09054748,-10.62,56.58,22.5
1554104641252,-1.8148049,-8.413822999999999,4.1078515,0.0063915867,0.18535602,-0.09587380000000001,-10.74,56.46,22.26
1554104641273,-2.1499932,-8.107366,3.293823,-0.12783173,0.17044231,-0.098004326,-10.8,56.28,22.14
1554104641292,-2.2936451,-8.083424,4.68246,-0.350472,0.10972224,-0.082025364,-10.86,56.16,21.96
1554104641312,-2.183512,-8.346786,5.075108999999999,-0.3749731,0.037284255,-0.03834952,-10.98,56.04,21.9
1554104641333,-2.0685901999999996,-8.27496,4.735132,-0.24074976,-0.033023197000000004,-0.027696876000000002,-11.1,55.92,21.84
1554104641352,-2.2888567,-7.968502,4.5914803,-0.15552860000000002,-0.08628642,-0.015978966,-11.16,55.86,21.84
1554104641372,-2.4468741,-7.767389,4.624999,-0.1438107,-0.13102753,0.01917476,-11.22,55.74,21.84
1554104641392,-2.4372973,-7.6764092,4.419098,-0.19920446,-0.17044231,0.06178534,-11.28,55.74,21.84
1554104641413,-2.4085669999999997,-7.834426400000001,4.7399206,-0.25140239999999997,-0.19920446,0.10013486,-11.28,55.68,21.78
1554104641433,-2.2409727999999998,-8.069058,4.8069587,-0.22583607,-0.19920446,0.11504856,-11.28,55.68,21.78
1554104641452,-2.2361843999999995,-8.212710000000001,4.6297874000000006,-0.18322548,-0.19068234,0.12250541,-11.34,55.68,21.84
1554104641472,-2.2313959999999997,-8.279748,4.5723267,-0.15339808,-0.17576863,0.13954964,-11.28,55.68,21.9
1554104641492,-2.2361843999999995,-8.337209,4.5819035,-0.1470065,-0.17470337,0.15659387,-11.28,55.68,22.14
1554104641512,-2.3175871,-8.370728,4.385579,-0.16192019,-0.18002969,0.15765914,-11.28,55.74,22.44
1554104641533,-2.3415293999999998,-8.361151,4.538808,-0.18002969,-0.19068234,0.19387813,-11.28,55.8,22.74
1554104641553,-2.2505496,-8.361151,4.586692,-0.20240025,-0.20879184,0.21944448,-11.22,55.92,23.16
1554104641573,-2.2505496,-8.504802999999999,4.6297874000000006,-0.2130529,-0.20985709,0.25033715,-11.1,55.98,23.4
1554104641593,-2.1978772,-8.552686999999999,4.601057,-0.19920446,-0.22477080000000002,0.26844665,-11.04,55.98,23.52
1554104641612,-2.2744915,-8.4425535,4.6920366,-0.14807177,-0.2545982,0.2972088,-10.74,56.04,23.88
1554104641632,-2.0494366000000004,-8.39467,4.5723267,-0.096939065,-0.27803403,0.31638354,-10.62,56.1,24.0
1554104641653,-2.2122424,-8.361151,4.5148660000000005,-0.023435817999999997,-0.31638354,0.33555830000000003,-10.26,56.16,24.06
1554104641673,-2.3415293999999998,-8.251018,4.577115,0.015978966,-0.34727620000000003,0.3536678,-9.96,56.1,24.12
1554104641693,-2.336741,-8.169615,4.5148660000000005,0.05752428,-0.3717773,0.37923414,-9.72,56.1,24.3
1554104641713,-2.4660277,-8.069058,4.5914803,0.080960095,-0.38562572,0.41971418,-9.48,56.1,24.48
1554104641733,-2.4899697,-8.097789,4.6441526,0.098004326,-0.386691,0.45699844,-9.18,56.16,24.72
1554104641753,-2.5474305,-8.116942,4.56275,0.11930962,-0.39734364,0.46552056,-8.94,56.34,24.9
1554104641772,-2.6527755,-8.069058,4.7255554,0.099069595,-0.39308259999999995,0.41545314,-8.7,56.58,25.14
1554104641792,-3.0023289,-8.385093,4.586692,-0.012783173500000002,-0.41119209999999995,0.30892670000000005,-8.34,56.88,25.38
1554104641813,-2.8299465,-8.863934,4.409521,-0.28549087,-0.44208476,0.2034655,-8.04,57.18,25.56
1554104641833,-2.4899697,-9.845556,4.308964700000001,-0.5592638000000001,-0.43888897,0.17789917,-7.74,57.48,25.68
1554104641853,-1.5610195,-10.238205,4.0599675,-0.6689861,-0.39414784,0.29507825,-7.38,57.72,25.8
1554104641872,-1.364695,-9.658808,4.0503907,-0.4250405,-0.2908172,0.43249738,-7.08,58.02,25.98
1554104641893,-1.6519991000000003,-8.954913000000001,3.8780080999999997,-0.13741912,-0.21731395,0.51771855,-6.78,58.2,26.16
1554104641913,-1.9201498,-7.911041,3.5763388,0.22477080000000002,-0.19068234,0.5901565,-6.42,58.38,26.4
1554104641933,-1.8195933000000002,-7.1592617,3.2890346,0.3291667,-0.2130529,0.5592638000000001,-6.12,58.38,26.7
1554104641952,-1.8818424999999999,-6.800131299999999,3.0639796,0.26205507,-0.26205507,0.46871635,-5.76,58.32,26.94
1554104641973,-1.7525556,-6.929417999999999,3.1741127999999996,0.07350325,-0.3323625,0.3749731,-5.34,58.32,27.24
1554104641993,-1.6328455,-7.542333999999999,3.2267854,-0.09587380000000001,-0.36432046,0.27483824,-4.98,58.32,27.48
1554104642013,-1.8387468999999996,-7.9301944,3.2746694,-0.18429075,-0.36112466,0.17470337,-4.5,58.44,27.66
1554104642033,-2.006341,-8.337209,3.2507273999999997,-0.29188246,-0.35153726,0.10865697,-4.08,58.56,27.72
1554104642052,-1.8962077000000002,-8.648455,3.116652,-0.39627838,-0.32384038,0.113983296,-3.6,58.68,27.78
1554104642073,-2.0398598000000003,-8.993219999999999,3.2028434,-0.4101268,-0.2876214,0.13315806,-3.24,58.8,27.84
1554104642093,-2.5570072999999995,-9.20391,3.0831332000000002,-0.314253,-0.24394555,0.15978967,-2.94,58.92,27.96
1554104642112,-2.7724855,-9.146449,3.0879216,-0.20772657,-0.24394555,0.18855181,-2.76,59.04,28.08
1554104642133,-2.566584,-9.165602999999999,3.044826,-0.16724652,-0.2727077,0.21411815,-2.52,59.16,28.2
1554104642153,-2.5378537,-9.199121,2.8963853999999998,-0.14594123,-0.25140239999999997,0.21198763,-2.28,59.28,28.38
1554104642173,-2.906561,-9.026739,3.0496144,-0.17044231,-0.21731395,0.19174760000000002,-2.1,59.34,28.56
1554104642192,-2.9735985,-9.309255,3.0974984,-0.21731395,-0.18855181,0.22477080000000002,-1.92,59.34,28.74
1554104642213,-2.7724855,-9.677961,3.5523968,-0.23116238,-0.13528858,0.2609898,-1.68,59.34,28.92
1554104642233,-2.6431987,-9.414599,3.9211037,-0.15446335,-0.080960095,0.27590349999999997,-1.44,59.34,29.1
1554104642252,-2.7006595,-9.050680999999999,4.2658687,-0.07563378,-0.04261058,0.27377295,-1.2,59.28,29.22
1554104642273,-2.7868507,-8.916606,4.280234,-0.020240024,-0.025566347000000003,0.27803403,-1.02,59.34,29.46
1554104642293,-2.8682537,-8.567052,4.4957123,0.05006743,-0.046871635999999994,0.27483824,-0.84,59.34,29.58
1554104642313,-2.8969840000000002,-8.251018,4.4382515,0.1107875,-0.09054748,0.27377295,-0.72,59.34,29.76
1554104642333,-2.8538885,-8.116942,4.117428299999999,0.165116,-0.111852765,0.27483824,-0.66,59.4,29.88
1554104642353,-2.8538885,-7.968502,3.5811272000000005,0.20985709,-0.15233281,0.24501082,-0.6,59.4,30.06
1554104642372,-2.882619,-7.796119,3.2411506,0.221575,-0.17789917,0.20240025,-0.48,59.4,30.18
1554104642392,-2.8538885,-7.820061,3.3752258,0.1768339,-0.1768339,0.15339808,-0.36,59.46,30.3
1554104642413,-2.791639,-7.877522,3.2794578000000003,0.08841695,-0.15765914,0.07776430000000001,-0.18,59.46,30.42
1554104642433,-2.681506,-7.877522,3.3704373999999997,-0.011717908999999999,-0.11930962,-0.026631612000000002,0.06,59.52,30.48
1554104642452,-2.8443117,-7.973290400000001,3.494936,-0.10759171,-0.07030745599999999,-0.1470065,0.48,59.52,30.6
1554104642472,-2.60968,-8.107366,3.3464954,-0.18961707,-0.024501082,-0.17576863,0.72,59.58,30.6
1554104642493,-2.834735,-8.337209,3.4518404,-0.2876214,0.043675844000000005,-0.18642128,1.02,59.7,30.66
1554104642513,-2.9592332999999997,-8.57184,3.9354692000000004,-0.29188246,0.07776430000000001,-0.15659387,1.26,59.82,30.72
1554104642533,-2.9352913,-8.7538,4.246715,-0.19813919,0.09161274,-0.11717909,1.44,59.88,30.72
1554104642552,-3.1076740000000003,-8.643666,4.217984700000001,-0.051132694000000006,0.101200126,-0.08735169,1.56,60.0,30.72
1554104642573,-3.5003227999999997,-8.614936,4.1317935,0.096939065,0.10333065,-0.07669904,1.62,60.06,30.72
1554104642592,-3.643975,-8.533533,3.9737763,0.18002969,0.07669904,-0.06285059999999999,1.62,60.18,30.78
1554104642612,-3.5865142,-8.552686999999999,3.7295678,0.18109496,0.029827405,-0.06498113,1.68,60.24,30.78
1554104642632,-3.3087866000000004,-8.672397,3.4087446000000003,0.112918034,-0.004261058,-0.096939065,1.68,60.3,30.84
1554104642653,-2.9783869,-8.782531,3.3081882000000005,-0.002130529,-0.002130529,-0.11611383,1.62,60.24,30.84
1554104642672,-2.681506,-8.696339,3.221997,-0.10333065,0.014913702,-0.12676647,1.62,60.24,30.84
1554104642692,-2.6192567,-8.629301,3.2028434,-0.13102753,0.036218993,-0.10972224,1.56,60.24,30.84
1554104642713,-2.552219,-8.681973,3.3800142,-0.07669904,0.04261058,-0.07669904,1.44,60.18,30.78
1554104642733,-2.528277,-8.327632000000001,3.3369186,0.015978966,0.02876214,-0.051132694000000006,1.32,60.18,30.78
1554104642753,-2.4660277,-8.126519,3.4039562000000005,0.068176925,-0.008522116,-0.03834952,1.26,60.18,30.78
1554104642772,-2.5330652999999996,-7.944559599999999,3.4422636,0.06391586,-0.020240024,-0.04261058,1.14,60.18,30.78
1554104642793,-2.6144682999999995,-7.848791599999999,3.470994,0.039414786,-0.033023197000000004,-0.06391586,1.02,60.06,30.78
1554104642812,-2.7341783,-7.834426400000001,3.1741127999999996,-0.037284255,-0.04261058,-0.082025364,0.96,60.0,30.78
1554104642835,-2.767697,-8.222287,3.3033997999999998,-0.19387813,-0.05006743,-0.12463594,0.84,59.82,30.84
1554104642853,-2.6719291000000003,-8.30369,3.5811272000000005,-0.27696875,-0.027696876000000002,-0.15765914,0.78,59.7,30.84
1554104642873,-2.834735,-8.337209,3.3225534,-0.43995422,0.023435817999999997,-0.17257284,0.78,59.52,30.84
1554104642893,-2.7868507,-8.7538,3.1070752,-0.753142,0.068176925,-0.13422333,0.72,59.4,30.84
1554104642913,-2.6384103,-9.156025999999999,2.9011737999999996,-1.1611383,0.09587380000000001,-0.08628642,0.72,59.22,30.9
1554104642932,-2.528277,-9.462483,3.3991678,-1.4615428,0.15020229,-0.068176925,0.72,59.1,30.96
1554104642953,-2.5761611,-9.529521,3.2603042,-1.5137408,0.16192019,-0.06178534,0.66,59.04,31.14
1554104642973,-2.5378537,-8.954913000000001,2.7766755,-1.5861788,0.16405073,-0.05006743,0.66,58.92,31.5
1554104642992,-2.4612392999999995,-8.978855000000001,2.3696610000000002,-1.6628778000000002,0.17363810000000002,-0.041545313,0.66,58.8,31.86
1554104643013,-2.5139117000000004,-9.596559,2.5851393,-1.562743,0.17363810000000002,-0.03089267,0.66,58.26,32.34
1554104643033,-2.3750482,-9.950901,2.0679917000000003,-1.220793,0.21624869,-0.011717908999999999,0.66,57.54,33.0
1554104643053,-2.552219,-9.376292,1.4598645000000001,-0.9896306999999999,0.23009712,0.01917476,0.6,56.76,33.66
1554104643073,-2.9209259999999997,-8.825626,1.1438298,-1.0418286,0.22370553,0.0053263223,0.6,55.92,34.5
1554104643092,-3.1124623,-8.5622635,1.2348095,-1.1217233999999998,0.1587244,-0.036218993,0.54,54.96,35.34
1554104643113,-3.0789435000000003,-9.036316000000001,1.0241197,-1.099353,0.13422333,0.002130529,0.42,53.94,36.24
1554104643133,-2.9783869,-9.835979,1.2587515,-0.85327685,0.13954964,0.040480047000000005,0.3,52.74,36.84
1554104643152,-2.8443117,-10.099341,0.97144735,-0.45167214,0.16405073,0.09267801,0.18,51.48,37.56
1554104643175,-2.8682537,-9.979631,1.0384849,-0.053263225,0.19600865,0.12676647,0.0,50.22,38.4
1554104643192,-3.0358477,-9.6923275,0.75118077,0.12463594,0.19281286,0.12357068,-0.06,49.92,38.64
1554104643213,-3.0358477,-9.974843,0.87089086,0.21198763,0.19600865,0.16831179,-0.12,49.26,39.0
1554104643233,-3.265691,-9.816825999999999,1.0384849,0.26205507,0.20453078,0.1949434,-0.24,48.72,39.24
1554104643253,-3.7684733999999995,-9.821614,1.1629834,0.31105720000000003,0.221575,0.22264028,-0.3,48.0,39.48
1554104643273,-3.9600096,-9.926959,1.2443863000000002,0.28868666,0.22477080000000002,0.25353295,-0.36,47.88,39.48
1554104643292,-4.453215,-10.300454,1.6083049999999999,0.30360037,0.23116238,0.30999196,-0.36,47.7,39.48
1554104643312,-4.630386,-10.779295,1.8429368000000002,0.37284255,0.22796659,0.44208476,-0.42,47.7,39.48
1554104643333,-4.76925,-10.932524,1.929128,0.52624065,0.24074976,0.66365975,-0.48,47.82,39.42
1554104643353,-4.841076,-10.946889,1.9961656000000003,0.72651035,0.27590349999999997,0.83516735,-0.54,48.12,39.36
1554104643373,-5.046977,-10.731411,2.0392613,0.9672601000000001,0.30679616,1.0056095999999999,-0.54,48.48,39.3
1554104643393,-5.070919,-10.487202,2.144606,1.171791,0.3323625,1.1835088,-0.54,48.96,39.18
1554104643413,-4.912902,-10.113707000000002,1.9099745,1.3401027,0.34834146,1.3283848,-0.48,49.62,39.06
1554104643432,-4.984728,-10.046669,1.8429368000000002,1.4476944,0.37390783,1.3997575,-0.48,49.98,38.88
1554104643453,-5.12838,-9.601347,1.8237831999999998,1.5456988,0.41758367,1.5094798,-0.3,51.42,38.46
1554104643473,-5.094861,-9.11293,1.7088615000000003,1.5712651000000002,0.44421527,1.6117451,-0.06,52.44,38.04
1554104643493,-4.917690299999999,-8.643666,1.4598645000000001,1.6149409,0.46658584,1.6745956999999998,0.42,53.46,37.44
1554104643512,-5.085284,-8.121731,1.3449427999999999,1.6266588,0.5006742999999999,1.700162,1.02,54.48,36.78
1554104643532,-5.396530599999999,-7.508815299999999,1.335366,1.6309198999999999,0.5134575,1.6959009999999999,1.68,55.68,36.0
1554104643553,-5.602432,-7.1209545,1.5029601000000001,1.7172063999999998,0.51665324,1.6714,2.46,56.88,35.1
1554104643573,-5.5258174,-6.627749000000001,1.5173253,1.7235979,0.4708469,1.6554209999999998,3.3,58.02,34.02
1554104643593,-5.4779334,-5.713164,1.6944963,1.5776566,0.46765109999999993,1.6298546,4.26,59.1,32.88
1554104643612,-5.774814599999999,-5.0906715,1.6370354,1.3923006000000002,0.49321744,1.5211976999999999,5.28,60.12,31.98
1554104643632,-6.2105594,-4.463390400000001,2.1877017000000003,1.2900352,0.44101948,1.3837786,6.42,61.14,31.02
1554104643653,-6.4643445,-3.9989154,2.40318,1.1888351000000001,0.33129725,1.2719258,7.26,62.22,30.24
1554104643672,-6.540959,-3.8313212,2.3936029999999997,1.0290455,0.2609898,1.2026836,8.1,63.18,29.46
1554104643692,-6.9096660000000005,-3.8744167999999997,2.5420437000000002,0.77444726,0.21092236,1.0652645,9.06,63.96,28.74
1554104643713,-7.177817,-3.8121676,3.2698810000000003,0.7041398,0.10865697,0.86606,9.9,64.56,28.08
1554104643733,-7.125144500000001,-3.7163997,3.245939,0.793622,0.054328485999999995,0.8085357,10.86,65.04,27.48
1554104643752,-7.067683000000001,-3.2184057,3.1932666000000003,0.84581995,0.07137272,0.80747044,11.7,65.4,26.88
1554104643772,-7.3885064,-2.8018146,3.0017304,0.7882956999999999,0.08628642,0.77444726,12.36,65.7,26.28
1554104643793,-7.7093296,-2.9502552000000004,3.1118636000000004,0.6242449999999999,0.07989483,0.70627034,12.96,65.94,25.68
1554104643813,-7.771578999999999,-3.2710779999999997,2.915539,0.4857606,0.058589544,0.5997439,13.56,66.06,25.08
1554104643832,-7.848192999999999,-3.127426,3.0160956000000003,0.36751625,0.04261058,0.5251754,14.22,66.12,24.42
1554104643852,-8.030152000000001,-2.7156234,3.293823,0.23009712,0.068176925,0.5187838,14.82,66.24,23.88
1554104643872,-8.159439,-2.7491422,3.4757824,0.068176925,0.07456851,0.49215218,15.36,66.3,23.46
1554104643893,-8.121132000000001,-3.103484,3.7487214,-0.060720075,0.058589544,0.42930159999999995,15.84,66.36,23.1
1554104643913,-8.135497,-3.2758665000000002,3.9402574999999995,-0.036218993,0.04580637,0.38242993,16.2,66.36,22.86
1554104643933,-7.97748,-3.0460230999999998,3.9163153,0.07243799,0.025566347000000003,0.34727620000000003,16.62,66.36,22.62
1554104643952,-7.963114699999999,-2.6007016,3.743933,0.18322548,0.0063915867,0.28975195,17.04,66.3,22.5
1554104643973,-8.145074000000001,-2.4283189999999997,3.4901476000000002,0.15765914,-0.027696876000000002,0.24181503,17.34,66.18,22.38
1554104643993,-8.034941,-2.4474726,3.5571851999999997,-0.037284255,-0.082025364,0.20985709,17.58,66.0,22.32
1554104644012,-8.001422,-2.6007016,3.6433763999999997,-0.24074976,-0.1107875,0.16831179,17.7,65.88,22.26
1554104644032,-8.058883,-2.6437972000000003,3.6481647000000006,-0.3323625,-0.11504856,0.16724652,18.0,65.7,22.14
1554104644052,-7.9008656,-2.9406781000000004,3.9306807999999998,-0.32170987,-0.08735169,0.18216023,18.18,65.58,22.08
1554104644073,-7.7811556,-2.8832173,3.8827964999999995,-0.13635385,-0.04261058,0.14168017,18.54,65.46,22.02
1554104644092,-7.6470804,-2.5863364,4.0934862999999995,0.07776430000000001,-0.002130529,0.08735169,18.78,65.4,21.96
1554104644113,-7.7572136,-1.9494787,3.7008373999999997,0.25885928,0.008522116,0.017044231,18.84,65.4,21.96
1554104644133,-8.537724,-2.6342204,2.0775685,0.4079963,-0.05965481,0.060720075,19.2,65.4,21.9
1554104644153,-8.312667999999999,-3.0172927000000005,3.0735563999999997,0.10652645,-0.10439592,0.07882957,19.44,65.4,21.9
1554104644173,-8.470686,-1.5041572,3.5236663999999998,-0.24181503,-0.111852765,-0.10226539,19.62,65.4,21.96
1554104644192,-8.834603999999999,-1.6238673000000001,4.0503907,-0.49215218,-0.05752428,-0.17576863,19.74,65.4,21.96
1554104644212,-8.767567,-2.0500352,3.7966053,-0.664725,-0.05752428,-0.1768339,19.8,65.4,22.02
1554104644233,-8.049306,-2.5432408,4.217984700000001,-0.7414241,-0.07776430000000001,-0.10546118,19.98,65.34,22.08
1554104644253,-7.4842744,-2.7491422,4.3903675,-0.51771855,-0.08522116,-0.1768339,20.1,65.34,22.14
1554104644273,-7.302314999999999,-2.2176294,4.1413703,-0.221575,-0.05752428,-0.28655612,20.16,65.28,22.26
1554104644293,-7.2592196,-1.4610616,3.9115269999999995,-0.101200126,-0.033023197000000004,-0.39308259999999995,20.1,65.22,22.38
1554104644313,-7.0102224,-1.4802152,3.4662056000000003,-0.13741912,-0.053263225,-0.5123922000000001,20.04,65.22,22.44
1554104644333,-6.38773,-2.3852234,3.1932666000000003,-0.38456047,-0.1587244,-0.8149273,19.86,65.1,22.56
1554104644353,-5.966350599999999,-3.1082723,3.4662056000000003,-0.6359629,-0.21411815,-1.0226538,19.68,65.04,22.68
1554104644373,-5.717354,-3.5392287000000002,3.317765,-0.74675035,-0.20133498,-1.1302456,19.44,64.98,22.8
1554104644392,-5.9567738,-3.9797617999999995,3.0591912,-0.73822826,-0.21624869,-1.1835088,19.02,64.92,23.04
1554104644413,-5.8083334,-4.147355999999999,2.7527334999999997,-0.7041398,-0.2908172,-1.2389026,18.48,64.86,23.34
1554104644433,-5.3725886,-5.0763063,3.0352492,-0.6103965,-0.41971418,-1.3635385,17.94,64.86,23.64
1554104644452,-5.683835,-5.583876999999999,2.273893,-0.63915867,-0.4016047,-1.4295848999999998,17.28,64.92,24.0
1554104644473,-6.244078,-5.7083755,1.8189948,-0.76912093,-0.41758367,-1.4807175,16.56,64.92,24.36
1554104644493,-6.354211299999999,-5.2199583,1.4407108999999998,-0.9139969000000001,-0.5411543000000001,-1.5254587,15.84,64.98,24.84
1554104644513,-5.4683566,-4.7842135,1.7711107,-1.1941614,-0.7616641,-1.587244,15.06,64.98,25.38
1554104644533,-4.3526587,-5.0284224,2.6378117000000003,-1.4274544,-0.9374326999999999,-1.8450380000000002,14.4,65.04,25.92
1554104644553,-4.232949,-5.9621606,3.2076318,-1.2889700000000002,-0.9470200999999999,-2.1102889,13.74,65.04,26.46
1554104644572,-4.367024,-6.9677253,3.0304607999999997,-0.902279,-0.8745821,-2.2828617,13.08,65.04,26.88
1554104644592,-4.7740383,-7.0634937,2.2643162999999995,-0.531567,-0.9225190000000001,-2.3957797999999997,12.36,64.98,27.3
1554104644613,-4.6591167,-6.7570357,2.475006,-0.6956177,-1.010936,-2.4586303,11.52,64.92,27.72
1554104644632,-4.6160207,-7.2262993,2.819771,-1.3134711000000001,-1.0333065000000001,-2.5161545,10.5,64.86,28.08
1554104644653,-4.707000700000001,-9.136872,3.164536,-1.9132148999999998,-0.99708754,-2.521481,9.48,64.68,28.5
1554104644672,-4.4819455,-10.697892,3.9211037,-2.1869879,-0.9086706,-2.3680830000000004,8.46,64.26,28.98
1554104644693,-4.6255975,-12.258911,4.5723267,-1.9728698,-0.664725,-2.0516994,6.84,63.24,29.88
1554104644712,-4.9081135,-12.905346,4.577115,-1.474326,-0.5187838,-1.8397116999999998,6.3,62.7,30.3
1554104644733,-4.831499,-12.670714,4.0839095,-0.9683254000000001,-0.4165184,-1.4658038999999998,5.1,61.62,31.2
1554104644752,-4.596867,-12.517485,3.8732197,-0.6135923000000001,-0.33129725,-1.1206582,3.78,60.36,32.04
1554104644773,-4.841076,-11.713034,3.3752258,-0.4101268,-0.34834146,-0.7637946,2.46,58.14,33.3
1554104644792,-4.7022123,-11.588534,2.8054059,-0.4261058,-0.38775626,-0.5209143,2.1,57.36,33.66
1554104644812,-4.0270470000000005,-11.306019000000001,2.3840263,-0.5613944000000001,-0.53263223,-0.26738137,1.26,55.98,34.38
1554104644833,-3.1124623,-11.325172,3.4231097999999998,-0.45593318,-0.59867865,0.02876214,0.18,54.3,35.34
1554104644852,-2.4277205000000004,-11.2725,3.7056258,0.014913702,-0.515588,0.14487597,-0.48,53.46,35.76
1554104644872,-2.183512,-10.726623,3.1070752,0.41864893,-0.4016047,0.19281286,-0.72,53.16,35.88
1554104644892,-2.1883004,-9.697116000000001,2.6761188999999996,0.73290193,-0.22690132,0.2545982,-1.02,52.74,36.06
1554104644913,-2.1308396000000003,-9.0315275,2.1206641,0.76592517,-0.096939065,0.2609898,-1.08,52.44,36.3
1554104644932,-1.9057846,-8.629301,1.7471686999999998,0.5305017,-0.06178534,0.23968449999999997,-1.14,52.5,36.48
1554104644953,-1.6184803,-8.614936,1.8189948,0.2876214,-0.020240024,0.2034655,-1.08,52.8,36.6
1554104644973,-1.5753847,-8.519167999999999,1.9243397,0.07137272,0.0,0.14913702,-0.96,53.1,36.72
1554104644992,-1.5035586,-8.84478,2.2786815,-0.082025364,0.015978966,0.094808534,-0.78,53.46,36.78
1554104645013,-1.3982137,-8.854357,2.5755625,-0.07989483,0.026631612000000002,0.054328485999999995,-0.66,53.82,36.78
1554104645033,-1.7764976000000003,-8.629301,2.3840263,0.05539375,0.041545313,0.022370555,-0.54,54.12,36.66
1554104645053,-2.0446482,-8.471283999999999,2.3744495,0.06498113,0.013848438000000001,-0.004261058,-0.36,54.48,36.6
1554104645072,-2.2074540000000002,-8.595782,2.460641,0.014913702,0.008522116,-0.03834952,-0.24,54.84,36.48
1554104645092,-2.3463178,-8.686762,2.4223334999999997,-0.040480047000000005,-0.018109497,-0.049002163,-0.12,55.08,36.36
1554104645113,-2.456451,-8.921394,2.4510639,-0.080960095,-0.02130529,-0.040480047000000005,0.0,55.14,36.3
1554104645133,-2.6910827,-9.098564999999999,2.570774,-0.099069595,-0.041545313,-0.043675844000000005,0.06,55.14,36.18
1554104645153,-2.6910827,-9.213486999999999,2.5037365,-0.080960095,-0.07776430000000001,-0.029827405,0.12,55.14,36.06
1554104645173,-2.5234885,-9.275736,2.6042929,-0.049002163,-0.098004326,-0.004261058,0.24,55.14,36.0
1554104645192,-2.6240451,-9.371504,2.5851393,-0.017044231,-0.09267801,0.008522116,0.3,55.14,36.0
1554104645212,-2.7102362999999996,-9.165602999999999,2.4223334999999997,0.0031957934000000003,-0.08628642,0.023435817999999997,0.36,55.08,36.06
1554104645233,-2.8538885,-8.839992,2.3169887000000005,-0.012783173500000002,-0.098004326,0.053263225,0.36,55.02,36.12
1554104645252,-2.695871,-8.739435,2.0248961,-0.07243799,-0.12783173,0.07456851,0.42,54.96,36.18
1554104645273,-2.5713725,-8.878299,2.3888147,-0.15552860000000002,-0.14913702,0.09374327,0.48,54.9,36.24
1554104645293,-2.6001031,-9.11293,2.3026235,-0.17044231,-0.15126756,0.09161274,0.48,54.84,36.3
1554104645312,-2.6623523,-8.993219999999999,2.2547395,-0.12996227,-0.14913702,0.096939065,0.54,54.78,36.42
1554104645333,-2.657564,-8.954913000000001,2.0871453,-0.10013486,-0.15233281,0.10865697,0.54,54.72,36.6
1554104645353,-2.528277,-8.974067,2.235586,-0.13741912,-0.17363810000000002,0.11824436,0.54,54.66,36.72
1554104645372,-2.2649147999999997,-9.165602999999999,2.4223334999999997,-0.18642128,-0.18322548,0.12144015,0.6,54.66,36.84
1554104645393,-1.9728221999999997,-9.199121,2.2882583,-0.11717909,-0.13422333,0.10652645,0.6,54.66,36.9
1554104645413,-2.15957,-9.093777000000001,2.3026235,-0.04580637,-0.07137272,0.10013486,0.66,54.66,37.02
1554104645432,-2.2888567,-8.916606,2.2882583,-0.03195793,-0.03195793,0.07882957,0.72,54.66,37.14
1554104645452,-2.2888567,-8.974067,2.2307975,-0.06285059999999999,-0.0031957934000000003,0.05006743,0.84,54.72,37.2
1554104645473,-2.1930888,-9.065046,2.178125,-0.10865697,0.014913702,0.02876214,1.02,54.72,37.2
1554104645493,-2.327164,-9.208698,2.178125,-0.14594123,0.02130529,-0.002130529,1.26,54.72,37.2
1554104645512,-2.2888567,-9.170391,2.154183,-0.14807177,0.027696876000000002,-0.03195793,1.5,54.72,37.2
1554104645532,-2.4660277,-9.170391,2.1877017000000003,-0.14594123,0.024501082,-0.05219796,1.74,54.72,37.2
1554104645553,-2.5761611,-9.055469500000001,1.9387047999999998,-0.15552860000000002,0.0010652645,-0.06498113,1.98,54.72,37.2
1554104645573,-2.7198130000000003,-9.179967999999999,2.0153193,-0.15233281,-0.036218993,-0.07989483,2.22,54.72,37.26
1554104645593,-2.6719291000000003,-9.237428999999999,2.0775685,-0.11824436,-0.06498113,-0.07776430000000001,2.46,54.72,37.26
1554104645614,-2.7102362999999996,-9.199121,2.1493945,-0.058589544,-0.07989483,-0.060720075,2.58,54.66,37.32
1554104645633,-2.753332,-9.1272955,2.1877017000000003,-0.014913702,-0.08522116,-0.024501082,2.64,54.6,37.32
1554104645652,-2.6623523,-9.007586,2.0536265,-0.002130529,-0.09054748,0.014913702,2.7,54.54,37.38
1554104645673,-2.6479871,-8.868722,1.8956091,-0.002130529,-0.07776430000000001,0.040480047000000005,2.76,54.48,37.44
1554104645693,-2.6767175,-8.835203,1.8189948,-0.049002163,-0.06711166,0.06178534,2.76,54.42,37.44
1554104645713,-2.6144682999999995,-8.892664,1.9818004,-0.1470065,-0.049002163,0.058589544,2.76,54.36,37.44
1554104645732,-2.8060042999999997,-9.045893,2.2499511,-0.22796659,-0.033023197000000004,0.06285059999999999,2.76,54.24,37.44
1554104645752,-2.695871,-9.256582,2.3840263,-0.19813919,-0.014913702,0.07350325,2.82,54.12,37.44
1554104645773,-2.5570072999999995,-9.251794,2.3265655,-0.08841695,0.0053263223,0.06604639400000001,2.82,54.0,37.56
1554104645793,-2.5474305,-9.156025999999999,2.2451627,-0.010652645,0.027696876000000002,0.026631612000000002,2.82,53.88,37.68
1554104645812,-2.6910827,-9.136872,2.0967221,-0.027696876000000002,0.024501082,-0.00958738,2.82,53.7,37.98
1554104645833,-2.5713725,-9.036316000000001,2.144606,-0.07563378,-0.015978966,-0.03195793,2.82,53.64,38.04
1554104645853,-2.5809495,-9.304466,2.2164322999999997,-0.101200126,-0.03834952,-0.046871635999999994,2.76,53.52,38.22
1554104645872,-2.542642,-9.256582,2.235586,-0.07776430000000001,-0.02876214,-0.05219796,2.82,53.4,38.4
1554104645892,-2.7341783,-9.266159,2.28347,-0.017044231,-0.0063915867,-0.06391586,2.82,53.22,38.52
1554104645913,-2.882619,-9.170391,1.8620903000000002,0.043675844000000005,-0.0053263223,-0.053263225,2.82,53.04,38.64
1554104645933,-2.8969840000000002,-9.026739,1.809418,0.07030745599999999,-0.004261058,-0.049002163,2.88,52.92,38.7
1554104645953,-2.9831752999999996,-9.026739,1.7088615000000003,0.054328485999999995,-0.011717908999999999,-0.043675844000000005,2.88,52.86,38.64
1554104645973,-2.7964275,-9.074622999999999,1.7758990000000001,0.01917476,-0.020240024,-0.03195793,2.88,52.8,38.52
1554104645993,-2.7437549999999997,-9.0315275,1.6514006,0.0053263223,-0.007456851,-0.02876214,2.94,52.74,38.4
1554104646012,-2.6623523,-9.132083999999999,1.7758990000000001,0.0063915867,-0.0031957934000000003,-0.03195793,2.94,52.62,38.28
1554104646032,-2.566584,-9.045893,1.8477252,0.02130529,-0.00958738,-0.03089267,2.88,52.56,38.16
1554104646053,-2.4133554,-9.108141999999999,1.857302,0.00958738,-0.011717908999999999,-0.023435817999999997,2.88,52.62,38.04
1554104646073,-2.5187001,-9.017161999999999,1.9722236000000002,0.0063915867,-0.0031957934000000003,-0.03089267,2.88,52.68,37.98
1554104646093,-2.5378537,-9.021951,1.8860323,0.007456851,-0.0063915867,-0.04580637,2.94,52.86,37.92
1554104646112,-2.4037786,-8.873510000000001,1.8142063999999998,-0.011717908999999999,-0.010652645,-0.06178534,2.94,52.98,37.86
1554104646133,-2.5617957000000002,-9.036316000000001,1.9674352,-0.037284255,-0.013848438000000001,-0.09161274,2.94,53.04,37.86
1554104646153,-2.5091232999999997,-9.045893,2.0871453,-0.03834952,-0.008522116,-0.10333065,2.94,53.16,37.86
1554104646172,-2.6240451,-9.136872,2.0296845,-0.017044231,0.0010652645,-0.11930962,3.0,53.28,37.86
1554104646192,-2.6431987,-9.0794115,1.9434932,-0.02130529,0.0063915867,-0.12144015,3.0,53.28,37.86
1554104646212,-2.825158,-9.093777000000001,1.9626468000000001,-0.03089267,0.01917476,-0.1107875,3.0,53.28,37.92
1554104646232,-2.8969840000000002,-9.184756,1.9243397,-0.056459017,0.024501082,-0.094808534,2.94,53.28,37.98
1554104646252,-3.0119057000000002,-9.1272955,1.9339164,-0.06604639400000001,0.022370555,-0.080960095,2.94,53.1,38.04
1554104646272,-2.9879637000000003,-9.088988,1.8668787,-0.06391586,-0.0010652645,-0.06711166,2.88,53.04,38.1
1554104646293,-2.8538885,-9.136872,1.9003976999999999,-0.060720075,-0.043675844000000005,-0.034088463,2.88,52.92,38.16
1554104646312,-2.882619,-9.247005,1.8764555,-0.03834952,-0.06711166,-0.020240024,2.82,52.86,38.22
1554104646333,-2.8299465,-9.237428999999999,1.8764555,0.002130529,-0.084155895,-0.0010652645,2.82,52.8,38.34
1554104646352,-2.791639,-9.088988,1.8956091,0.027696876000000002,-0.099069595,0.024501082,2.76,52.8,38.4
1554104646372,-2.7389667,-9.074622999999999,1.8956091,0.024501082,-0.10865697,0.03195793,2.82,52.8,38.4
1554104646393,-2.633622,-9.045893,2.130241,0.025566347000000003,-0.10333065,0.03089267,2.82,52.8,38.4
1554104646412,-2.7581203,-8.93576,2.0344729999999998,0.04474111,-0.098004326,0.018109497,2.88,52.8,38.4
1554104646433,-2.7437549999999997,-8.796896,1.8285716,0.007456851,-0.10013486,0.0031957934000000003,2.88,52.74,38.34
1554104646453,-2.7629087,-8.978855000000001,1.857302,-0.05539375,-0.113983296,-0.033023197000000004,2.94,52.68,38.34
1554104646473,-2.7724855,-9.026739,2.0536265,-0.099069595,-0.13528858,-0.06285059999999999,3.0,52.62,38.34
1554104646493,-2.8299465,-9.036316000000001,2.0440497,-0.10972224,-0.15339808,-0.07882957,3.06,52.56,38.34
1554104646512,-2.873042,-9.11293,2.1015105,-0.098004326,-0.15978967,-0.07350325,3.12,52.5,38.4
1554104646532,-2.8778305,-9.318831,2.154183,-0.02876214,-0.15978967,-0.05219796,3.24,52.5,38.46
1554104646552,-2.7102362999999996,-9.309255,1.9099745,0.049002163,-0.15552860000000002,-0.022370555,3.3,52.5,38.52
1554104646573,-2.7006595,-9.194333,1.7184383,0.037284255,-0.15765914,-0.008522116,3.42,52.5,38.58
1554104646592,-2.6862943,-9.122507,1.7328035,-0.010652645,-0.16724652,0.00958738,3.54,52.5,38.64
1554104646613,-2.4037786,-9.179967999999999,1.9434932,-0.02876214,-0.17789917,0.025566347000000003,3.72,52.56,38.7
1554104646633,-2.3798366,-9.093777000000001,1.9339164,0.0,-0.1768339,0.04474111,3.78,52.56,38.7
1554104646653,-2.4420857000000002,-8.983644,1.8237831999999998,0.022370555,-0.15659387,0.05752428,3.84,52.56,38.7
1554104646672,-2.3750482,-8.897452000000001,2.0153193,0.002130529,-0.13528858,0.051132694000000006,3.96,52.62,38.7
1554104646692,-2.5378537,-8.902241,2.0679917000000003,-0.053263225,-0.13102753,0.026631612000000002,4.02,52.62,38.64
1554104646713,-2.4133554,-9.184756,2.0009542000000002,-0.12463594,-0.13528858,0.007456851,4.08,52.62,38.64
1554104646733,-2.4372973,-9.424176,2.3026235,-0.13635385,-0.12996227,0.0,4.08,52.62,38.64
1554104646752,-2.384625,-9.328408,2.2882583,-0.08628642,-0.10972224,0.012783173500000002,4.02,52.62,38.64
1554104646772,-2.27928,-9.414599,2.2691047,-0.02876214,-0.07882957,0.027696876000000002,4.02,52.62,38.64
1554104646793,-2.3463178,-9.251794,2.2164322999999997,0.027696876000000002,-0.02876214,0.05219796,3.96,52.62,38.64
1554104646813,-2.3750482,-8.93576,2.0392613,0.026631612000000002,0.03089267,0.068176925,3.96,52.56,38.7
1554104646833,-2.4995465,-8.911817999999998,2.1254525,-0.014913702,0.06711166,0.06711166,4.02,52.56,38.76
1554104646852,-2.60968,-8.792108,2.0344729999999998,-0.07669904,0.09054748,0.056459017,4.08,52.56,38.82
1554104646872,-2.6623523,-8.921394,2.0248961,-0.12783173,0.10013486,0.056459017,4.14,52.56,38.88
1554104646893,-2.7006595,-9.0842,1.8716671000000003,-0.14594123,0.099069595,0.056459017,4.26,52.5,38.94
1554104646913,-2.7868507,-9.098564999999999,1.6849195,-0.15020229,0.083090626,0.06285059999999999,4.32,52.5,39.0
1554104646932,-2.7341783,-9.0842,1.6370354,-0.13209279,0.06391586,0.060720075,4.44,52.5,39.0
1554104646952,-2.7006595,-9.007586,1.5604209999999998,-0.13209279,0.033023197000000004,0.046871635999999994,4.5,52.44,39.06
1554104646973,-2.834735,-9.069835000000001,1.5556326,-0.1587244,0.011717908999999999,0.02876214,4.56,52.44,39.06
1554104646993,-2.791639,-9.0794115,1.5125369,-0.18748654,-0.010652645,0.0053263223,4.56,52.38,39.06
1554104647012,-2.8491,-9.098564999999999,1.6035166,-0.19920446,-0.02876214,-0.007456851,4.62,52.2,39.12
1554104647032,-2.6431987,-9.223063,1.6561891,-0.1768339,-0.034088463,-0.0053263223,4.68,52.08,39.12
1554104647053,-2.7198130000000003,-9.337985,1.6035166,-0.10013486,-0.03195793,-0.0031957934000000003,4.74,51.96,39.18
1554104647073,-2.7150247000000003,-9.213486999999999,1.6370354,-0.06924219,-0.020240024,-0.0031957934000000003,4.8,51.78,39.24
1554104647092,-2.6623523,-9.227852,1.5939398,-0.049002163,-0.004261058,-0.020240024,4.86,51.66,39.24
1554104647113,-2.6048915,-9.376292,1.7854759999999998,-0.039414786,0.007456851,-0.020240024,4.92,51.48,39.3
1554104647133,-2.4756044999999998,-9.333197,1.7136499,-0.00958738,0.041545313,-0.018109497,4.98,51.36,39.36
1554104647153,-2.5761611,-9.35235,1.7232267,0.04474111,0.083090626,-0.010652645,4.98,51.3,39.42
1554104647173,-2.6048915,-9.146449,1.6083049999999999,0.09267801,0.10759171,-0.0031957934000000003,5.04,51.24,39.48
1554104647192,-2.5761611,-9.041103999999999,1.7184383,0.09374327,0.13315806,-0.00958738,5.04,51.24,39.48
1554104647213,-2.8107927000000004,-8.969278,1.5125369,0.04474111,0.1470065,-0.017044231,5.04,51.24,39.54
1554104647233,-3.0358477,-9.045893,1.4694413,-0.00958738,0.12783173,-0.025566347000000003,5.1,51.3,39.6
1554104647253,-2.9640217,-9.160814,1.5891514,-0.026631612000000002,0.11504856,-0.03834952,5.1,51.3,39.6
1554104647272,-3.0597897,-9.136872,1.4215573000000001,-0.040480047000000005,0.10013486,-0.04580637,5.1,51.3,39.66
1554104647293,-3.1555579,-9.218275,1.4407108999999998,-0.040480047000000005,0.07030745599999999,-0.05006743,5.1,51.3,39.66
1554104647313,-2.9592332999999997,-9.275736,1.6370354,-0.04580637,0.02130529,-0.04474111,5.04,51.3,39.72
1554104647333,-2.944868,-9.11293,1.5316905,-0.037284255,-0.007456851,-0.04580637,4.92,51.3,39.72
1554104647352,-2.906561,-9.299678,1.4742297,-0.023435817999999997,-0.026631612000000002,-0.049002163,4.86,51.3,39.72
1554104647372,-2.8060042999999997,-9.218275,1.5029601000000001,-0.0053263223,-0.043675844000000005,-0.04580637,4.8,51.3,39.72
1554104647392,-2.8203697,-9.1272955,1.4407108999999998,0.012783173500000002,-0.043675844000000005,-0.04474111,4.74,51.3,39.72
1554104647412,-2.7437549999999997,-9.0794115,1.3497312,0.008522116,-0.02130529,-0.03195793,4.68,51.3,39.78
1554104647433,-2.8682537,-9.041103999999999,1.4790181,-0.00958738,-0.013848438000000001,-0.03195793,4.62,51.24,39.78
1554104647454,-2.9257145,-9.050680999999999,1.5029601000000001,-0.046871635999999994,0.002130529,-0.025566347000000003,4.62,51.24,39.78
1554104647474,-2.8778305,-9.199121,1.5269021,-0.06285059999999999,0.01917476,-0.033023197000000004,4.56,51.24,39.78
1554104647492,-2.9735985,-9.309255,1.3976152,-0.060720075,0.049002163,-0.029827405,4.62,51.24,39.78
1554104647512,-2.9975405,-9.32362,1.3640964,-0.04474111,0.07456851,-0.007456851,4.62,51.24,39.78
1554104647533,-2.9879637000000003,-9.199121,1.4024036,-0.026631612000000002,0.10013486,0.018109497,4.62,51.18,39.78
1554104647553,-3.098097,-9.218275,1.3880384,-0.012783173500000002,0.12144015,0.026631612000000002,4.56,51.18,39.78
1554104647572,-3.1890767,-9.1512375,1.4263457,0.0010652645,0.12250541,0.029827405,4.56,51.24,39.84
1554104647593,-3.1076740000000003,-9.1033535,1.3162124,0.02876214,0.111852765,0.041545313,4.44,51.24,39.84
1554104647613,-3.0741549999999997,-8.988432000000001,1.3257892,0.06498113,0.08948222,0.05752428,4.38,51.18,39.84
1554104647633,-3.0502129,-8.892664,1.3449427999999999,0.08522116,0.068176925,0.06178534,4.32,51.18,39.84
1554104647652,-3.0885203,-8.81605,1.1677719,0.06711166,0.046871635999999994,0.05539375,4.26,51.18,39.9
1554104647673,-3.1028854999999997,-8.763377,1.4263457,0.023435817999999997,0.0031957934000000003,0.026631612000000002,4.2,51.18,39.9
1554104647693,-3.1842883,-8.729858,1.4024036,-0.011717908999999999,-0.013848438000000001,-0.0031957934000000003,4.14,51.18,39.9
1554104647713,-3.1555579,-8.978855000000001,1.335366,-0.07243799,-0.03089267,-0.029827405,4.08,51.24,39.96
1554104647733,-3.0789435000000003,-9.160814,1.3210008,-0.10226539,-0.035153727999999995,-0.037284255,4.08,51.24,39.96
1554104647753,-3.1268275,-9.1272955,1.4119805,-0.09374327,-0.020240024,-0.04580637,4.08,51.24,39.96
1554104647773,-3.1603463,-9.342773,1.2635399,-0.07456851,-0.027696876000000002,-0.046871635999999994,4.14,51.3,39.9
1554104647793,-3.0166939999999998,-9.428965,1.359308,-0.046871635999999994,-0.029827405,-0.03834952,4.14,51.3,39.9
1554104647812,-3.0023289,-9.366715,1.407192,-0.0031957934000000003,-0.0063915867,-0.03089267,4.2,51.3,39.84
1554104647833,-3.0550013,-9.223063,1.3162124,0.047936900000000005,0.007456851,-0.02130529,4.2,51.3,39.84
1554104647852,-2.9592332999999997,-9.136872,1.2731166999999999,0.084155895,0.02130529,-0.01917476,4.26,51.24,39.78
1554104647872,-3.098097,-9.141661000000001,1.1965023000000001,0.098004326,0.049002163,-0.020240024,4.26,51.18,39.72
1554104647892,-3.083732,-9.012374000000001,1.1246762,0.06711166,0.05539375,-0.041545313,4.26,51.18,39.72
1554104647913,-3.0885203,-8.926183,1.1917138999999999,0.02876214,0.049002163,-0.054328485999999995,4.26,51.12,39.72
1554104647933,-3.1890767,-8.926183,1.2539631000000002,0.007456851,0.046871635999999994,-0.05539375,4.26,51.12,39.72
1554104647952,-3.2034418999999996,-9.0315275,1.3545196000000002,0.0,0.04474111,-0.051132694000000006,4.2,51.06,39.78
1554104647972,-3.2225955,-9.036316000000001,1.632247,0.024501082,0.041545313,-0.05006743,4.26,51.06,39.78
1554104647993,-3.145981,-9.108141999999999,1.4502877,0.06285059999999999,0.035153727999999995,-0.054328485999999995,4.26,51.0,39.84
1554104648013,-3.1603463,-9.179967999999999,1.4598645000000001,0.10013486,0.020240024,-0.06391586,4.32,51.0,39.84
1554104648032,-3.0214825000000003,-9.199121,1.4502877,0.12783173,0.012783173500000002,-0.06498113,4.32,51.0,39.84
1554104648053,-2.873042,-9.342773,1.6274586000000002,0.15233281,0.014913702,-0.05965481,4.32,51.0,39.9
1554104648074,-2.8682537,-9.165602999999999,1.5125369,0.18642128,0.033023197000000004,-0.041545313,4.38,51.0,39.9
1554104648092,-2.882619,-8.998009,1.4215573000000001,0.19174760000000002,0.046871635999999994,-0.03089267,4.38,50.94,39.84
1554104648113,-2.9257145,-8.854357,1.4885948999999998,0.16724652,0.053263225,-0.046871635999999994,4.38,50.94,39.84
1554104648133,-2.8969840000000002,-8.839992,1.584363,0.14061491,0.07776430000000001,-0.056459017,4.26,50.94,39.84
1554104648153,-3.0358477,-8.672397,1.5269021,0.10333065,0.08948222,-0.084155895,4.14,50.94,39.78
1554104648172,-3.145981,-8.782531,1.5077485000000002,0.015978966,0.07882957,-0.12570119999999999,4.02,50.94,39.72
1554104648192,-3.2273839,-9.065046,1.6849195,-0.06285059999999999,0.049002163,-0.16831179,3.9,50.94,39.6
1554104648212,-3.083732,-9.309255,1.7232267,-0.082025364,0.01917476,-0.19387813,3.78,50.94,39.48
1554104648233,-3.169923,-9.558251,1.6178818000000001,-0.07456851,-0.00958738,-0.20240025,3.66,50.94,39.3
1554104648253,-3.0262709,-9.668385,1.9482816000000003,-0.04580637,-0.04580637,-0.1949434,3.54,50.94,39.18
1554104648272,-2.954445,-9.558251,2.0201077,0.02876214,-0.07563378,-0.17789917,3.42,51.0,39.0
1554104648293,-2.7629087,-9.491214,1.8477252,0.17044231,-0.094808534,-0.15446335,3.36,51.3,38.94
1554104648312,-2.7772740000000002,-9.074622999999999,1.6561891,0.28229508,-0.08841695,-0.13954964,3.36,51.48,38.88
1554104648332,-2.882619,-8.796896,1.6178818000000001,0.29507825,-0.08948222,-0.12996227,3.36,51.6,38.88
1554104648354,-2.7246015,-8.681973,1.7663223000000001,0.2034655,-0.09161274,-0.13422333,3.36,51.9,38.88
1554104648372,-2.4899697,-8.710705,1.6370354,0.12676647,-0.05965481,-0.15552860000000002,3.36,52.08,38.94
1554104648392,-2.6001031,-8.701127,1.5269021,0.06604639400000001,-0.014913702,-0.14807177,3.36,52.26,39.0
1554104648413,-2.5761611,-8.806473,1.6944963,0.00958738,0.024501082,-0.12783173,3.36,52.44,39.06
1554104648435,-2.6001031,-8.969278,1.8429368000000002,0.015978966,0.058589544,-0.12357068,3.36,52.5,39.06
1554104648452,-2.7389667,-8.950125,1.9818004,0.034088463,0.080960095,-0.12037488,3.36,52.5,39.06
1554104648472,-2.8107927000000004,-8.825626,1.8716671000000003,0.008522116,0.08735169,-0.13102753,3.3,52.44,39.0
1554104648493,-2.954445,-8.940548,1.8764555,-0.06924219,0.07243799,-0.14807177,3.3,52.44,38.94
1554104648514,-2.8491,-9.208698,1.8429368000000002,-0.13528858,0.043675844000000005,-0.15233281,3.3,52.44,38.88
1554104648533,-2.7341783,-9.409811,1.9003976999999999,-0.16405073,0.018109497,-0.13315806,3.24,52.44,38.82
1554104648553,-2.7389667,-9.539098,2.0440497,-0.13741912,0.0,-0.111852765,3.24,52.44,38.76
1554104648573,-2.681506,-9.615712,1.9387047999999998,-0.068176925,-0.017044231,-0.084155895,3.18,52.38,38.7
1554104648592,-2.7006595,-9.44333,2.1398177000000005,0.020240024,-0.037284255,-0.060720075,3.18,52.38,38.64
1554104648613,-2.6862943,-9.294889,2.1110873,0.083090626,-0.05539375,-0.049002163,3.18,52.38,38.58
1554104648633,-2.7102362999999996,-9.098564999999999,2.0009542000000002,0.12144015,-0.06604639400000001,-0.06285059999999999,3.18,52.38,38.58
1554104648653,-2.5234885,-9.017161999999999,1.7184383,0.12570119999999999,-0.07243799,-0.07350325,3.12,52.38,38.58
1554104648672,-2.480393,-8.988432000000001,1.6035166,0.09161274,-0.083090626,-0.07989483,3.12,52.38,38.58
1554104648692,-2.4516625,-8.854357,1.6370354,0.033023197000000004,-0.09587380000000001,-0.08735169,3.06,52.32,38.58
1554104648713,-2.4181437000000003,-8.950125,1.857302,-0.01917476,-0.10226539,-0.08628642,3.0,52.32,38.58
1554104648732,-2.3654714,-9.036316000000001,1.6705543,-0.039414786,-0.10439592,-0.09587380000000001,2.94,52.32,38.52
1554104648753,-2.3942018,-8.921394,1.881244,-0.049002163,-0.10013486,-0.101200126,2.88,52.26,38.52
1554104648773,-2.4612392999999995,-8.792108,1.6083049999999999,-0.094808534,-0.098004326,-0.11930962,2.82,52.26,38.52
1554104648792,-2.4085669999999997,-8.950125,1.7423803,-0.17576863,-0.11504856,-0.13848437,2.76,52.26,38.46
1554104648812,-2.3175871,-9.275736,1.9913772,-0.22903186,-0.12463594,-0.13954964,2.76,52.2,38.46
1554104648832,-2.2409727999999998,-9.567828,1.9626468000000001,-0.21411815,-0.111852765,-0.13102753,2.7,52.2,38.46
1554104648853,-2.3798366,-9.59177,1.977012,-0.06711166,-0.12037488,-0.16618125,2.7,52.14,38.46
1554104648873,-2.2361843999999995,-9.582193,1.8956091,0.047936900000000005,-0.13635385,-0.16192019,2.76,52.14,38.46
1554104648893,-2.087744,-9.405023,1.7567455,0.029827405,-0.15020229,-0.15765914,2.76,52.14,38.46
1554104648913,-2.2888567,-9.357139,2.1158757,-0.07563378,-0.15020229,-0.1768339,2.76,52.08,38.46
1554104648933,-2.4372973,-9.543886,1.9387047999999998,-0.1470065,-0.15233281,-0.18642128,2.82,52.02,38.46
1554104648952,-2.336741,-9.639654,2.0488381,-0.14594123,-0.16085494,-0.18535602,2.88,52.02,38.52
1554104648973,-2.27928,-9.663596,2.0201077,-0.07882957,-0.15020229,-0.15659387,2.94,51.96,38.52
1554104648992,-2.327164,-9.697116000000001,1.8956091,0.053263225,-0.13102753,-0.111852765,3.0,51.9,38.58
1554104649013,-2.3032220000000003,-9.247005,1.6609775000000002,0.18748654,-0.10972224,-0.07137272,3.0,51.9,38.64
1554104649033,-2.2026656000000004,-8.825626,1.4646529,0.22264028,-0.10546118,-0.047936900000000005,3.06,51.9,38.7
1554104649052,-2.2074540000000002,-8.5383215,1.4024036,0.18002969,-0.09374327,-0.05006743,3.12,51.84,38.76
1554104649072,-2.2266076,-8.552686999999999,1.5077485000000002,0.09374327,-0.07669904,-0.06604639400000001,3.12,51.9,38.82
1554104649093,-2.15957,-8.495225999999999,1.5604209999999998,-0.04580637,-0.06498113,-0.08948222,3.18,51.9,38.88
1554104649113,-2.135628,-8.614936,1.5652093999999999,-0.12250541,-0.054328485999999995,-0.094808534,3.18,51.9,38.88
1554104649132,-2.1308396000000003,-8.81605,1.6753427,-0.21837921,-0.046871635999999994,-0.099069595,3.18,51.9,38.88
1554104649153,-2.0829554,-9.266159,1.6178818000000001,-0.26525086,-0.05539375,-0.10759171,3.18,51.84,38.94
1554104649172,-2.1499932,-9.505579,1.8333599999999999,-0.25672874,-0.06285059999999999,-0.10226539,3.18,51.78,38.94
1554104649193,-2.1068976000000004,-9.601347,1.8668787,-0.21624869,-0.07350325,-0.09161274,3.24,51.72,38.94
1554104649213,-2.0781669999999997,-9.7641535,1.857302,-0.13741912,-0.08522116,-0.07989483,3.24,51.6,39.06
1554104649232,-2.0590134,-9.768942,2.0536265,-0.05752428,-0.099069595,-0.05752428,3.3,51.48,39.12
1554104649253,-1.8818424999999999,-9.596559,1.9243397,0.015978966,-0.096939065,-0.03834952,3.3,51.36,39.24
1554104649272,-2.0781669999999997,-9.563039999999999,1.9674352,0.040480047000000005,-0.083090626,-0.035153727999999995,3.3,51.3,39.3
1554104649293,-2.1499932,-9.539098,1.7663223000000001,0.05539375,-0.07776430000000001,-0.041545313,3.3,51.18,39.42
1554104649313,-1.9919758,-9.524733,1.7950528000000001,0.07776430000000001,-0.07350325,-0.03834952,3.3,51.12,39.48
1554104649334,-1.9823990000000002,-9.285313,1.6897078999999997,0.09587380000000001,-0.05965481,-0.03195793,3.24,51.12,39.54
1554104649354,-1.9967641999999999,-9.160814,1.5939398,0.10226539,-0.04261058,-0.040480047000000005,3.18,51.06,39.6
1554104649374,-2.054225,-9.1272955,1.5939398,0.112918034,-0.026631612000000002,-0.051132694000000006,3.12,51.06,39.54
1554104649393,-1.9728221999999997,-9.021951,1.5316905,0.12144015,-0.017044231,-0.058589544,3.12,51.06,39.54
1554104649412,-2.0685901999999996,-8.96449,1.5269021,0.07882957,-0.0031957934000000003,-0.06178534,3.06,51.06,39.48
1554104649432,-2.0781669999999997,-8.96449,1.5364790000000002,0.0053263223,0.010652645,-0.07243799,3.06,51.06,39.42
1554104649452,-2.1164744,-9.11293,1.6705543,-0.046871635999999994,0.018109497,-0.07350325,3.12,51.06,39.42
1554104649473,-2.054225,-9.242217,1.5699978,-0.084155895,0.02130529,-0.06604639400000001,3.12,51.12,39.36
1554104649493,-2.0207062,-9.491214,1.6849195,-0.10652645,0.03089267,-0.07563378,3.12,51.12,39.3
1554104649513,-2.054225,-9.500791,1.7280151000000001,-0.10333065,0.037284255,-0.07563378,3.18,51.18,39.3
1554104649533,-2.1643584,-9.721058,1.7711107,-0.082025364,0.02130529,-0.060720075,3.24,51.18,39.3
1554104649552,-1.9728221999999997,-9.567828,1.8142063999999998,-0.03089267,0.012783173500000002,-0.047936900000000005,3.3,51.24,39.3
1554104649573,-1.8483237000000001,-9.639654,1.8285716,0.036218993,0.018109497,-0.03195793,3.3,51.24,39.18
1554104649592,-1.9249381999999997,-9.467272,1.7280151000000001,0.06604639400000001,0.027696876000000002,-0.033023197000000004,3.36,51.24,39.0
1554104649612,-2.0111293999999997,-9.44333,1.8189948,0.06604639400000001,0.020240024,-0.043675844000000005,3.36,51.3,38.88
1554104649633,-1.9009962,-9.496002,1.7902644,0.058589544,-0.0010652645,-0.04474111,3.36,51.3,38.76
1554104649652,-1.8531121,-9.424176,1.7902644,0.06178534,-0.004261058,-0.05539375,3.3,51.36,38.7
1554104649673,-1.9871874,-9.333197,1.8716671000000003,0.058589544,0.00958738,-0.05006743,3.18,51.42,38.64
1554104649692,-2.1164744,-9.328408,1.8189948,0.053263225,0.0063915867,-0.040480047000000005,3.06,51.48,38.52
1554104649713,-1.958457,-9.299678,1.7184383,0.03089267,0.002130529,-0.034088463,3.0,51.54,38.46
1554104649733,-1.9009962,-9.227852,1.7663223000000001,0.046871635999999994,0.0063915867,-0.03834952,2.88,51.6,38.52
1554104649753,-1.8818424999999999,-9.141661000000001,1.6561891,0.05965481,0.015978966,-0.041545313,2.82,51.66,38.58
1554104649772,-1.8579005000000002,-9.108141999999999,1.6226702,0.041545313,0.017044231,-0.05006743,2.82,51.66,38.64
1554104649792,-1.8435352999999999,-9.165602999999999,1.6753427,0.00958738,0.018109497,-0.06285059999999999,2.82,51.72,38.7
1554104649813,-1.8483237000000001,-9.390657000000001,1.8381484000000001,-0.017044231,0.024501082,-0.07243799,2.88,51.72,38.76
1554104649832,-1.9057846,-9.663596,1.7806876,0.00958738,0.029827405,-0.07243799,2.94,51.66,38.82
1554104649853,-1.7525556,-9.366715,1.5077485000000002,0.053263225,0.010652645,-0.06711166,2.94,51.66,38.88
1554104649873,-1.685518,-9.041103999999999,1.7711107,0.017044231,0.036218993,-0.08522116,2.94,51.66,38.94
1554104649893,-1.9153613999999999,-9.467272,1.9147629000000002,-0.05006743,0.06285059999999999,-0.08522116,2.94,51.6,39.0
1554104649913,-1.8291701,-9.759364999999999,2.1398177000000005,-0.007456851,0.07989483,-0.07776430000000001,2.82,51.54,39.06
1554104649932,-1.7381904,-9.668385,1.8333599999999999,0.101200126,0.12357068,-0.046871635999999994,2.7,51.54,39.12
1554104649952,-1.9201498,-9.567828,1.9243397,0.19707392,0.17150758,-0.025566347000000003,2.58,51.48,39.18
1554104649973,-1.8674773,-9.433753,1.9195513,0.21198763,0.19920446,0.0,2.46,51.42,39.18
1554104649993,-1.8483237000000001,-9.342773,1.8956091,0.22370553,0.21944448,0.010652645,2.4,51.48,39.18
1554104650013,-1.7956512999999998,-9.170391,2.0632033,0.2545982,0.2545982,0.012783173500000002,2.34,51.6,39.18
1554104650033,-1.7525556,-9.017161999999999,1.9099745,0.25566345,0.28442562,0.0031957934000000003,2.4,51.78,39.18
1554104650052,-1.8339584999999998,-8.921394,2.0248961,0.20985709,0.29294774,-0.017044231,2.4,51.96,39.12
1554104650072,-1.8579005000000002,-8.883087,2.0392613,0.1438107,0.28442562,-0.04474111,2.46,52.14,39.12
1554104650093,-1.8962077000000002,-8.878299,2.0153193,0.053263225,0.27057716,-0.07563378,2.46,52.32,39.06
1554104650112,-2.0638018,-9.223063,2.0775685,-0.036218993,0.2545982,-0.10226539,2.4,52.5,38.94
1554104650132,-2.0446482,-9.20391,2.2260091,-0.04580637,0.23755397,-0.12783173,2.28,52.68,38.88
1554104650153,-2.1164744,-9.261371,2.1972785,0.0,0.21944448,-0.13422333,2.16,52.74,38.76
1554104650173,-2.2122424,-9.270947,2.0153193,0.014913702,0.20240025,-0.12250541,1.98,52.8,38.58
1554104650192,-2.2313959999999997,-9.309255,1.9387047999999998,0.023435817999999997,0.1768339,-0.11930962,1.86,52.8,38.46
1554104650212,-2.327164,-9.294889,1.9865887999999998,0.043675844000000005,0.14807177,-0.11611383,1.68,52.8,38.34
1554104650233,-2.2361843999999995,-9.199121,1.6418238,0.054328485999999995,0.12463594,-0.1107875,1.56,52.8,38.22
1554104650252,-2.2505496,-9.275736,1.7280151000000001,0.0031957934000000003,0.10013486,-0.10226539,1.44,52.8,38.16
1554104650272,-2.2936451,-9.438541,2.0679917000000003,-0.010652645,0.06924219,-0.101200126,1.32,52.8,38.1
1554104650293,-2.2840683,-9.44333,1.857302,0.004261058,0.05219796,-0.08841695,1.2,52.8,38.04
1554104650313,-2.1930888,-9.405023,1.8237831999999998,0.012783173500000002,0.037284255,-0.07669904,1.08,52.8,37.98
1554104650333,-2.2313959999999997,-9.275736,1.8908207,-0.05539375,0.0063915867,-0.05965481,1.02,52.74,37.98
1554104650353,-2.0111293999999997,-9.333197,2.0248961,-0.05752428,-0.011717908999999999,-0.047936900000000005,0.9,52.74,37.92
1554104650372,-1.9919758,-9.381081,2.0967221,0.0031957934000000003,-0.025566347000000003,-0.03834952,0.78,52.68,37.92
1554104650393,-1.9249381999999997,-9.314043,2.0919337,0.06924219,-0.014913702,-0.034088463,0.66,52.68,37.98
1554104650412,-1.9632453999999997,-9.20391,1.881244,0.10546118,-0.015978966,-0.033023197000000004,0.54,52.68,37.98
1554104650433,-1.9536686,-9.108141999999999,1.8764555,0.09054748,-0.01917476,-0.04474111,0.42,52.62,38.04
1554104650452,-1.8818424999999999,-9.136872,2.0344729999999998,0.040480047000000005,-0.012783173500000002,-0.05219796,0.36,52.62,38.04
1554104650473,-1.8195933000000002,-9.1512375,2.130241,0.004261058,-0.0010652645,-0.06604639400000001,0.24,52.62,38.04
1554104650492,-1.9871874,-9.294889,2.0775685,0.007456851,0.011717908999999999,-0.06604639400000001,0.24,52.62,38.04
1554104650512,-1.9201498,-9.266159,2.3169887000000005,0.023435817999999997,0.039414786,-0.054328485999999995,0.18,52.62,38.04
1554104650533,-2.0446482,-9.261371,2.0536265,0.053263225,0.060720075,-0.047936900000000005,0.12,52.56,38.04
1554104650552,-2.0685901999999996,-9.088988,2.0488381,0.051132694000000006,0.07989483,-0.04580637,0.12,52.56,37.98
1554104650572,-2.0398598000000003,-8.974067,1.8716671000000003,0.014913702,0.09161274,-0.05539375,0.12,52.5,37.92
1554104650593,-2.0733786,-9.179967999999999,2.0775685,-0.027696876000000002,0.09374327,-0.05539375,0.12,52.44,37.86
1554104650613,-2.1404164,-9.165602999999999,2.0009542000000002,-0.03834952,0.09054748,-0.056459017,0.12,52.44,37.86
1554104650633,-2.087744,-9.275736,1.9387047999999998,-0.035153727999999995,0.08735169,-0.051132694000000006,0.18,52.44,37.8
1554104650652,-2.1021092,-9.371504,2.0727801,-0.023435817999999997,0.07563378,-0.041545313,0.18,52.44,37.8
1554104650672,-2.0015526,-9.285313,1.7711107,-0.0010652645,0.068176925,-0.037284255,0.24,52.44,37.8
1554104650693,-1.9871874,-9.405023,2.1158757,0.014913702,0.068176925,-0.03195793,0.24,52.5,37.8
1554104650713,-1.8962077000000002,-9.247005,2.1206641,0.029827405,0.07243799,-0.027696876000000002,0.24,52.5,37.8
1554104650732,-1.9009962,-9.223063,2.130241,0.04261058,0.084155895,-0.03195793,0.24,52.56,37.8
1554104650752,-2.0829554,-9.20391,2.0440497,0.02876214,0.094808534,-0.04261058,0.12,52.62,37.74
1554104650773,-2.111686,-9.299678,2.082357,0.0063915867,0.10546118,-0.051132694000000006,0.0,52.68,37.68
1554104650793,-2.0494366000000004,-9.424176,2.1206641,-0.015978966,0.10759171,-0.05219796,-0.06,52.68,37.68
1554104650813,-2.1164744,-9.496002,2.0009542000000002,-0.013848438000000001,0.11824436,-0.05219796,-0.18,52.74,37.56
1554104650833,-2.2697031,-9.486425,2.0536265,0.02130529,0.12463594,-0.05219796,-0.3,52.74,37.5
1554104650853,-2.2697031,-9.524733,2.0679917000000003,0.06924219,0.11717909,-0.039414786,-0.42,52.68,37.38
1554104650873,-2.2936451,-9.270947,2.2786815,0.08841695,0.10972224,-0.014913702,-0.54,52.62,37.26
1554104650892,-2.2266076,-9.194333,1.8237831999999998,0.12357068,0.08948222,-0.002130529,-0.54,52.62,37.2
1554104650912,-2.2984335,-9.088988,1.9626468000000001,0.11504856,0.06711166,0.0031957934000000003,-0.54,52.62,37.08
1554104650933,-2.2840683,-9.11293,1.8860323,0.07456851,0.029827405,-0.004261058,-0.54,52.62,36.96
1554104650953,-2.2888567,-9.194333,1.7663223000000001,0.04261058,0.0,-0.010652645,-0.54,52.68,36.9
1554104650972,-2.2409727999999998,-9.156025999999999,1.8189948,0.017044231,-0.029827405,-0.00958738,-0.54,52.68,36.9
1554104650993,-2.1883004,-9.184756,1.881244,0.004261058,-0.051132694000000006,-0.007456851,-0.54,52.74,36.9
1554104651013,-2.0159178,-9.247005,1.9913772,0.027696876000000002,-0.05965481,-0.012783173500000002,-0.6,52.8,36.84
1554104651033,-1.8866308999999997,-9.165602999999999,1.9003976999999999,0.043675844000000005,-0.06178534,-0.014913702,-0.6,52.86,36.84
1554104651052,-1.958457,-9.132083999999999,1.9674352,0.02130529,-0.05539375,-0.012783173500000002,-0.6,52.92,36.84
1554104651072,-1.9009962,-9.184756,2.178125,0.012783173500000002,-0.047936900000000005,-0.022370555,-0.6,52.98,36.84
1554104651093,-1.9680338,-9.136872,2.0727801,0.00958738,-0.02876214,-0.024501082,-0.6,53.04,36.9
1554104651113,-2.0494366000000004,-9.141661000000001,2.144606,-0.020240024,-0.011717908999999999,-0.03195793,-0.6,53.1,36.9
1554104651133,-2.0973208,-9.194333,2.1829132999999996,-0.04580637,-0.007456851,-0.04261058,-0.54,53.16,36.9
1554104651152,-2.0494366000000004,-9.20391,2.154183,-0.047936900000000005,-0.0053263223,-0.04474111,-0.54,53.28,36.9
1554104651172,-2.1499932,-9.242217,2.1158757,-0.049002163,-0.00958738,-0.043675844000000005,-0.54,53.28,36.9
1554104651193,-2.1164744,-9.371504,2.0488381,-0.047936900000000005,-0.015978966,-0.035153727999999995,-0.54,53.28,36.9
1554104651213,-2.1164744,-9.309255,2.2068555,-0.017044231,-0.020240024,-0.029827405,-0.54,53.28,36.9
1554104651233,-2.2026656000000004,-9.199121,2.1110873,0.002130529,-0.025566347000000003,-0.024501082,-0.48,53.28,36.9
1554104651252,-2.15957,-9.285313,1.9865887999999998,0.014913702,-0.04261058,-0.01917476,-0.48,53.28,36.9
1554104651273,-2.1068976000000004,-9.20391,2.0679917000000003,0.018109497,-0.058589544,-0.018109497,-0.54,53.28,36.9
1554104651293,-2.0733786,-9.141661000000001,2.0201077,0.012783173500000002,-0.06711166,-0.022370555,-0.54,53.22,36.9
1554104651312,-1.9632453999999997,-9.170391,2.0296845,0.011717908999999999,-0.07456851,-0.02130529,-0.54,53.1,36.9
1554104651332,-2.0111293999999997,-9.098564999999999,2.0201077,0.014913702,-0.07137272,-0.02876214,-0.6,53.04,36.9
1554104651353,-2.0159178,-9.132083999999999,2.1015105,-0.012783173500000002,-0.07243799,-0.043675844000000005,-0.66,52.98,36.9
1554104651372,-1.8626889,-9.251794,2.0344729999999998,-0.05219796,-0.082025364,-0.06391586,-0.72,52.92,36.9
1554104651392,-1.8914193,-9.357139,2.168548,-0.07776430000000001,-0.07776430000000001,-0.07563378,-0.72,52.86,36.9
1554104651413,-1.8148049,-9.428965,2.1398177000000005,-0.068176925,-0.06391586,-0.08522116,-0.78,52.86,36.96
1554104651433,-1.8531121,-9.505579,2.1493945,-0.04261058,-0.05006743,-0.07776430000000001,-0.72,52.86,37.02
1554104651453,-1.9440918000000003,-9.448118,2.2547395,-0.008522116,-0.03834952,-0.06285059999999999,-0.72,52.92,37.08
1554104651473,-1.958457,-9.529521,2.1972785,0.03195793,-0.024501082,-0.047936900000000005,-0.66,52.98,37.2
1554104651493,-1.9153613999999999,-9.424176,2.273893,0.080960095,-0.014913702,-0.035153727999999995,-0.54,53.04,37.32
1554104651512,-1.8818424999999999,-9.275736,2.1829132999999996,0.098004326,-0.004261058,-0.035153727999999995,-0.42,53.04,37.44
1554104651532,-1.9967641999999999,-9.366715,2.2068555,0.08522116,0.014913702,-0.03089267,-0.3,53.04,37.5
1554104651552,-1.9488802,-9.275736,2.2691047,0.08735169,0.03834952,-0.02130529,-0.18,53.04,37.62
1554104651573,-2.0781669999999997,-9.132083999999999,1.8142063999999998,0.09267801,0.056459017,-0.013848438000000001,-0.06,52.98,37.68
1554104651593,-2.0398598000000003,-9.184756,1.9818004,0.068176925,0.05965481,-0.00958738,0.0,52.98,37.68
1554104651612,-2.1452047999999997,-9.208698,2.1110873,0.02876214,0.053263225,-0.008522116,0.06,53.04,37.68
1554104651632,-2.1452047999999997,-9.285313,1.9818004,0.03089267,0.047936900000000005,-0.00958738,0.12,53.1,37.62
1554104651653,-2.1404164,-9.184756,2.0201077,0.054328485999999995,0.03834952,-0.0010652645,0.18,53.22,37.44
1554104651673,-2.0685901999999996,-9.146449,2.0105310000000003,0.068176925,0.01917476,-0.0031957934000000003,0.18,53.28,37.38
1554104651693,-2.054225,-9.088988,1.9913772,0.07456851,0.0031957934000000003,-0.013848438000000001,0.18,53.4,37.2
1554104651713,-2.1547816,-9.11293,2.082357,0.05752428,-0.008522116,-0.017044231,0.18,53.52,37.08
1554104651733,-2.0685901999999996,-8.926183,2.1637597,0.03834952,-0.010652645,-0.027696876000000002,0.24,53.52,36.9
1554104651753,-2.0925324,-9.017161999999999,2.0919337,0.012783173500000002,-0.002130529,-0.023435817999999997,0.24,53.52,36.78
1554104651772,-2.0302830000000003,-9.0842,2.2643162999999995,0.00958738,-0.008522116,-0.025566347000000003,0.24,53.52,36.66
1554104651792,-1.9536686,-9.11293,2.307412,0.0,0.002130529,-0.026631612000000002,0.24,53.4,36.6
1554104651813,-2.0111293999999997,-9.146449,2.0488381,-0.00958738,0.018109497,-0.03195793,0.18,53.4,36.6
1554104651833,-1.9680338,-9.237428999999999,2.1206641,-0.025566347000000003,0.033023197000000004,-0.033023197000000004,0.18,53.34,36.6
1554104651853,-2.111686,-9.170391,2.082357,-0.041545313,0.041545313,-0.037284255,0.18,53.34,36.6
1554104651873,-2.0446482,-9.213486999999999,2.0632033,-0.051132694000000006,0.041545313,-0.04261058,0.18,53.34,36.6
1554104651892,-2.0685901999999996,-9.1512375,2.1254525,-0.03834952,0.046871635999999994,-0.03834952,0.12,53.4,36.6
1554104651913,-2.1499932,-9.1512375,2.0727801,-0.027696876000000002,0.046871635999999994,-0.03195793,0.06,53.52,36.66
1554104651932,-2.0638018,-9.141661000000001,2.297835,-0.02130529,0.037284255,-0.036218993,-0.06,53.58,36.72
1554104651952,-2.183512,-9.223063,2.0775685,-0.015978966,0.026631612000000002,-0.04261058,-0.12,53.58,36.72
1554104651972,-2.2170308,-9.275736,2.1733365,-0.017044231,0.018109497,-0.043675844000000005,-0.18,53.64,36.78
1554104651993,-2.135628,-9.237428999999999,2.1972785,-0.037284255,0.013848438000000001,-0.03834952,-0.24,53.7,36.84
1554104652013,-2.15957,-9.218275,2.2307975,-0.05006743,0.0063915867,-0.034088463,-0.3,53.76,36.84
1554104652032,-2.2170308,-9.237428999999999,2.2451627,-0.05539375,-0.007456851,-0.040480047000000005,-0.36,53.76,36.9
1554104652052,-2.2026656000000004,-9.280524,2.2786815,-0.05752428,-0.024501082,-0.05006743,-0.42,53.82,36.9
1554104652072,-2.1499932,-9.366715,2.2307975,-0.043675844000000005,-0.034088463,-0.051132694000000006,-0.36,53.82,36.9
1554104652093,-2.0973208,-9.32362,2.0536265,-0.004261058,-0.047936900000000005,-0.03195793,-0.36,53.82,36.9
1554104652113,-2.0207062,-9.256582,1.9387047999999998,0.03089267,-0.051132694000000006,-0.025566347000000003,-0.36,53.76,36.9
1554104652132,-2.0590134,-9.098564999999999,2.0871453,0.041545313,-0.05539375,-0.02130529,-0.36,53.7,36.9
1554104652152,-2.054225,-9.050680999999999,1.8668787,0.029827405,-0.05752428,-0.02876214,-0.36,53.64,36.9
1554104652172,-2.0015526,-8.988432000000001,1.9865887999999998,-0.029827405,-0.06178534,-0.040480047000000005,-0.36,53.52,36.9
1554104652192,-1.9776106,-9.108141999999999,2.0296845,-0.06604639400000001,-0.060720075,-0.053263225,-0.36,53.46,36.9
1554104652212,-1.9536686,-9.242217,1.9818004,-0.07030745599999999,-0.05539375,-0.053263225,-0.3,53.4,36.9
1554104652233,-1.9680338,-9.357139,1.9626468000000001,-0.06178534,-0.039414786,-0.04474111,-0.3,53.34,36.9
1554104652252,-1.9488802,-9.385869,2.168548,-0.051132694000000006,-0.024501082,-0.03834952,-0.24,53.28,36.84
1554104652272,-2.087744,-9.266159,2.2547395,-0.039414786,-0.00958738,-0.040480047000000005,-0.18,53.22,36.84
1554104652293,-2.0781669999999997,-9.165602999999999,2.2307975,-0.039414786,-0.0031957934000000003,-0.04261058,-0.18,53.28,36.84
1554104652313,-2.0973208,-9.270947,2.130241,-0.040480047000000005,0.0031957934000000003,-0.04580637,-0.12,53.28,36.84
1554104652333,-2.0494366000000004,-9.20391,2.1924900000000003,-0.041545313,0.0063915867,-0.051132694000000006,-0.06,53.28,36.84
1554104652352,-2.1930888,-9.318831,2.1829132999999996,-0.029827405,0.004261058,-0.060720075,0.0,53.22,36.84
1554104652372,-2.1260512,-9.247005,2.1877017000000003,-0.040480047000000005,-0.0010652645,-0.056459017,0.0,53.22,36.9
1554104652393,-2.1308396000000003,-9.270947,2.0392613,-0.041545313,-0.010652645,-0.05219796,0.0,53.16,36.96
1554104652413,-2.1691467999999996,-9.376292,2.0967221,-0.026631612000000002,-0.024501082,-0.049002163,0.0,53.1,37.08
1554104652433,-2.1308396000000003,-9.35235,2.082357,-0.017044231,-0.037284255,-0.04261058,-0.06,53.04,37.2
1554104652453,-2.0302830000000003,-9.194333,1.9482816000000003,-0.0053263223,-0.051132694000000006,-0.040480047000000005,-0.06,52.98,37.32
1554104652472,-2.0398598000000003,-9.156025999999999,1.9578583999999999,0.0010652645,-0.06391586,-0.034088463,-0.12,52.92,37.44
1554104652492,-2.0207062,-9.223063,1.7758990000000001,-0.013848438000000001,-0.06498113,-0.027696876000000002,-0.18,52.92,37.5
1554104652513,-2.0111293999999997,-9.1512375,1.9434932,-0.023435817999999997,-0.06604639400000001,-0.03834952,-0.24,52.86,37.44
1554104652533,-1.9488802,-9.1512375,1.9339164,-0.02876214,-0.06924219,-0.04474111,-0.24,52.8,37.38
