TimeStamp,Ax,Ay,Az,Gx,Gy,Gz,Mx,My,Mz
1554103151222,-8.001422,-2.7491422,5.3624134,0.9374326999999999,-0.03089267,1.1845741,23.64,-18.3,-25.62
1554103151243,-7.8673470000000005,-2.2894554,5.242703,0.9715212,-0.027696876000000002,1.2016183,23.4,-19.98,-25.56
1554103151262,-7.752425,-1.9446903000000002,4.8165355000000005,0.94808537,-0.040480047000000005,1.1930962,23.04,-21.3,-25.56
1554103151282,-7.776367,-1.7866731,4.8500543,0.902279,-0.053263225,1.1856394,22.86,-21.96,-25.56
1554103151303,-7.603985000000001,-1.2695253999999998,4.768651,0.8788431999999999,-0.06924219,1.1451592,22.26,-24.06,-25.32
1554103151323,-7.61835,-0.97743285,4.538808,0.82344943,-0.06285059999999999,1.1089402,21.66,-25.44,-25.14
1554103151344,-7.7189064,-0.42197806,4.3664255,0.70200926,-0.07350325,1.0865698000000001,21.12,-26.88,-24.96
1554103151363,-7.4986396,-0.12509704,4.4286747,0.55287224,-0.10546118,1.0333065000000001,20.58,-28.2,-24.72
1554103151383,-7.4124484,-0.11552023,4.5723267,0.47297743,-0.13209279,0.9416938,20.04,-29.58,-24.54
1554103151402,-7.441178999999999,0.09995792,4.8739963,0.46552056,-0.15339808,0.87990844,19.5,-30.9,-24.3
1554103151423,-7.2304892999999995,0.18614918,4.931457,0.50600064,-0.16192019,0.81918836,18.96,-32.22,-24.06
1554103151442,-7.254431200000001,0.47345337,4.835689,0.52411014,-0.14913702,0.72651035,18.48,-33.3,-23.88
1554103151462,-7.216124000000001,0.7080852,4.830900700000001,0.44101948,-0.15339808,0.6743124,18.06,-34.38,-23.7
1554103151485,-7.0964136,0.88525605,5.089474,0.32277513,-0.15552860000000002,0.6114618,17.7,-35.34,-23.58
1554103151502,-7.1155677,0.76554596,5.151723400000001,0.20240025,-0.13209279,0.5230448000000001,17.34,-36.24,-23.46
1554103151523,-7.043741000000001,0.8086416000000001,5.458181400000001,0.19068234,-0.11504856,0.48682585,16.92,-37.14,-23.28
1554103151543,-6.708553299999999,1.2395979,5.635351999999999,0.2695119,-0.10013486,0.39840892,16.38,-37.86,-23.1
1554103151563,-7.029375999999999,1.7136499,5.194819,0.34194988,-0.051132694000000006,0.22583607,15.96,-38.58,-22.98
1554103151583,-7.254431200000001,1.0576386,5.295376,0.18429075,-0.040480047000000005,0.1470065,15.6,-39.06,-22.86
1554103151602,-7.714117999999999,0.45429978,5.6784476999999995,-0.037284255,-0.035153727999999995,0.113983296,15.24,-39.54,-22.74
1554103151623,-7.6710224,0.29149407,6.0663085,-0.026631612000000002,-0.046871635999999994,0.16085494,14.94,-40.02,-22.68
1554103151643,-7.522581599999999,0.65541273,6.128557700000001,0.17257284,-0.07243799,0.19707392,14.7,-40.44,-22.62
1554103151662,-7.5561004,1.0289081,6.071097,0.35153726,-0.06924219,0.20133498,14.4,-40.8,-22.56
1554103151682,-7.565677,1.6849195,6.1094040000000005,0.41864893,-0.06711166,0.20133498,14.22,-41.04,-22.5
1554103151702,-7.747636999999999,1.6035166,5.7646394,0.31638354,-0.03195793,0.1587244,14.16,-41.22,-22.38
1554103151722,-7.8050976,1.5364790000000002,5.774216,0.18429075,-0.03089267,0.1107875,14.04,-41.34,-22.26
1554103151742,-7.7907324000000004,1.2443863000000002,5.716755,0.1470065,-0.046871635999999994,0.13528858,13.92,-41.58,-22.2
1554103151762,-7.723694999999999,1.1198878,5.6497173,0.2034655,-0.056459017,0.12570119999999999,13.74,-41.82,-22.14
1554103151783,-7.723694999999999,1.3162124,5.5539494000000005,0.29294774,-0.06711166,0.1438107,13.5,-42.06,-22.02
1554103151803,-7.6710224,1.584363,5.4390279999999995,0.31318775,-0.07882957,0.16192019,13.26,-42.42,-21.96
1554103151823,-7.728483,1.6561891,5.204396,0.2695119,-0.08948222,0.17576863,13.02,-42.78,-21.84
1554103151843,-7.5034279999999995,1.632247,5.213972599999999,0.18322548,-0.08522116,0.18109496,12.78,-43.2,-21.72
1554103151863,-7.359775999999999,1.7471686999999998,5.635351999999999,0.14913702,-0.07243799,0.15446335,12.6,-43.56,-21.66
1554103151883,-7.2304892999999995,1.6849195,5.295376,0.18855181,-0.04580637,0.1438107,12.36,-43.92,-21.6
1554103151903,-7.4124484,1.7471686999999998,5.37199,0.17363810000000002,-0.027696876000000002,0.17470337,12.18,-44.22,-21.54
1554103151923,-7.077260000000001,1.7998412,5.3384714,0.20133498,-0.012783173500000002,0.15233281,12.0,-44.46,-21.42
1554103151943,-7.192182000000001,2.1398177000000005,5.4007206,0.18429075,0.027696876000000002,0.11504856,11.88,-44.64,-21.3
1554103151962,-6.8426285,1.9626468000000001,5.2618566,0.21518342,0.04474111,0.058589544,11.82,-44.76,-21.24
1554103151982,-7.1826053,2.1924900000000003,5.0798974,0.24714136,0.0053263223,-0.015978966,11.7,-44.82,-21.18
1554103152002,-7.0724716,2.1206641,5.132569999999999,0.13635385,-0.014913702,-0.034088463,11.64,-45.0,-21.12
1554103152023,-7.3789296,1.8142063999999998,5.462969999999999,-0.068176925,-0.022370555,-0.053263225,11.52,-45.24,-21.06
1554103152043,-7.546523599999999,1.7711107,5.7359085,-0.13209279,-0.0031957934000000003,-0.013848438000000001,11.4,-45.48,-20.94
1554103152063,-7.493850999999999,1.8429368000000002,5.831677,-0.046871635999999994,-0.00958738,-0.02130529,11.28,-45.72,-20.88
1554103152083,-7.6135616,2.1254525,5.61141,0.002130529,-0.004261058,-0.023435817999999997,11.1,-46.02,-20.7
1554103152103,-7.441178999999999,2.0201077,5.7646394,-0.024501082,-0.0031957934000000003,-0.03834952,11.04,-46.26,-20.64
1554103152122,-7.627927000000001,2.0201077,5.9801173,-0.013848438000000001,0.01917476,-0.034088463,10.92,-46.5,-20.52
1554103152142,-7.6949644,1.95307,5.659294,0.014913702,0.027696876000000002,-0.018109497,10.86,-46.68,-20.4
1554103152163,-7.642291999999999,2.0632033,5.807735,0.043675844000000005,0.024501082,-0.027696876000000002,10.86,-46.74,-20.34
1554103152183,-7.4507556,2.1206641,5.6401405,0.07776430000000001,-0.0031957934000000003,-0.029827405,10.8,-46.68,-20.28
1554103152202,-7.369353,2.0057424999999998,5.635351999999999,0.06604639400000001,-0.00958738,-0.00958738,10.8,-46.68,-20.22
1554103152223,-7.61835,2.0871453,5.472546599999999,0.026631612000000002,-0.0010652645,-0.017044231,10.8,-46.68,-20.16
1554103152243,-7.2592196,2.4702177000000005,5.8651957999999995,0.047936900000000005,0.013848438000000001,-0.03195793,10.8,-46.68,-20.1
1554103152263,-7.398083,2.6521769,5.37199,0.15339808,0.011717908999999999,-0.09054748,10.8,-46.68,-20.04
1554103152282,-7.7428484,2.3648727000000003,5.1900306,0.007456851,0.0053263223,-0.12996227,10.8,-46.68,-20.04
1554103152303,-7.608772999999999,1.6561891,5.252279799999999,-0.25033715,-0.0063915867,-0.10652645,10.86,-46.68,-19.98
1554103152323,-7.383717999999999,1.4024036,5.6545057,-0.23329292,-0.00958738,-0.020240024,10.86,-46.68,-19.98
1554103152343,-7.4986396,1.7854759999999998,5.462969999999999,-0.05006743,0.014913702,0.0,10.86,-46.68,-19.98
1554103152363,-7.5082164,2.1972785,5.3049526,-0.035153727999999995,0.013848438000000001,0.00958738,10.86,-46.68,-19.98
1554103152383,-7.3549875999999985,2.4462755,4.936245400000001,-0.09161274,0.01917476,0.010652645,10.86,-46.68,-20.04
1554103152403,-7.517792999999999,2.379238,4.797382,-0.39947417,0.013848438000000001,-0.056459017,10.92,-46.62,-20.04
1554103152423,-7.489063000000001,1.7902644,5.142146599999999,-0.6178534000000001,0.0031957934000000003,-0.05219796,10.92,-46.56,-20.1
1554103152443,-7.4746976,1.857302,5.692813,-0.6199839,-0.00958738,-0.041545313,10.92,-46.5,-20.1
1554103152462,-7.383717999999999,1.9961656000000003,5.5826797,-0.44208476,-0.018109497,-0.04474111,11.04,-46.38,-20.22
1554103152482,-7.4028716,2.3840263,5.3815669999999995,-0.4101268,0.0010652645,-0.05752428,11.04,-46.2,-20.34
1554103152502,-7.6135616,2.1493945,5.5539494000000005,-0.52624065,0.05006743,-0.16298546,11.16,-46.02,-20.52
1554103152522,-7.929596000000001,2.1877017000000003,5.539584,-0.567786,0.06711166,-0.20026971,11.22,-45.72,-20.76
1554103152543,-7.599196000000001,1.6801311,5.319318,-0.68389976,0.06498113,-0.20133498,11.28,-45.42,-21.06
1554103152562,-7.584830800000001,1.1677719,5.4055089999999995,-0.793622,0.06391586,-0.21837921,11.34,-45.06,-21.36
1554103152583,-7.8146744,0.8948328999999999,5.462969999999999,-0.83942837,0.025566347000000003,-0.18535602,11.4,-44.52,-21.72
1554103152603,-7.891288799999999,0.31064767,5.817312,-0.81066626,-0.0063915867,-0.13848437,11.46,-43.92,-22.14
1554103152622,-7.771578999999999,0.20051439,5.8987145,-0.6562029,-0.025566347000000003,-0.10013486,11.46,-43.26,-22.56
1554103152642,-7.5944076,0.45908818,5.482123400000001,-0.535828,-0.040480047000000005,-0.02876214,11.46,-42.66,-22.92
1554103152663,-7.3789296,0.9283517,5.458181400000001,-0.5496765,-0.029827405,0.025566347000000003,11.46,-42.0,-23.28
1554103152683,-7.105990400000001,0.789488,5.506065400000001,-0.6562029,0.0031957934000000003,-0.046871635999999994,11.46,-41.4,-23.7
1554103152703,-6.8809357,0.7128736,5.6784476999999995,-0.7552725,0.033023197000000004,-0.111852765,11.52,-40.8,-24.0
1554103152723,-6.885724000000001,0.6937199000000001,5.597045,-0.7520766999999999,0.080960095,-0.13422333,11.52,-40.14,-24.3
1554103152743,-7.0245875999999985,0.76554596,5.453393,-0.7861651999999999,0.11504856,-0.17789917,11.58,-39.54,-24.66
1554103152762,-7.125144500000001,0.5979519,5.04159,-0.8863,0.15020229,-0.23648871,11.58,-39.06,-24.96
1554103152782,-7.513005000000001,0.6075286999999999,5.175665400000001,-1.144094,0.16937704,-0.28336033,11.64,-38.46,-25.26
1554103152803,-7.417236999999999,0.047285482000000004,5.7502737,-1.293231,0.13315806,-0.34834146,11.64,-37.8,-25.56
1554103152822,-7.690175999999999,-0.7236475,5.917868,-1.171791,0.11504856,-0.39627838,11.7,-37.02,-25.8
1554103152843,-8.058883,-0.9103952,6.267421700000001,-0.93423694,0.08948222,-0.34088463,11.76,-36.18,-26.04
1554103152863,-7.8865004,-1.0253168,5.817312,-0.753142,0.04474111,-0.30786142,11.82,-35.28,-26.22
1554103152883,-7.6710224,-0.84814596,5.740697,-0.7456851,0.013848438000000001,-0.31318775,11.94,-34.38,-26.4
1554103152903,-7.61835,-1.2360066,6.2817870000000005,-0.7797736,-0.010652645,-0.294013,12.36,-32.88,-26.64
1554103152923,-7.632714999999999,-1.441908,6.291363700000001,-0.59761333,-0.01917476,-0.30146983,12.6,-31.74,-26.82
1554103152942,-7.589619,-1.3269863000000002,6.18123,-0.32277513,-0.011717908999999999,-0.27057716,12.9,-30.72,-27.0
1554103152963,-7.398083,-1.1546037,5.994482499999999,-0.22370553,0.0053263223,-0.27164245,13.02,-30.24,-27.12
1554103152983,-7.2592196,-0.95827925,5.668871,-0.23435818,0.010652645,-0.33981937,13.38,-28.98,-27.36
1554103153002,-7.110779300000001,-1.0971429,5.8891377,-0.29933932,-0.010652645,-0.36964676,13.62,-28.2,-27.54
1554103153023,-7.1634517,-1.3365631000000002,5.5922565,-0.26525086,-0.0063915867,-0.40586576,13.8,-27.54,-27.72
1554103153042,-7.2592196,-1.3078326999999998,5.549161,-0.221575,-0.0010652645,-0.46552056,13.86,-26.88,-27.9
1554103153062,-7.062895,-1.3892354999999998,5.300164,-0.25566345,-0.010652645,-0.5049353,13.92,-26.28,-28.02
1554103153083,-7.091625,-1.6478093,5.333683000000001,-0.36964676,-0.0031957934000000003,-0.5187838,13.98,-25.86,-28.14
1554103153102,-7.2640080000000005,-1.8728642,5.3384714,-0.45912898,0.004261058,-0.51984906,14.04,-25.38,-28.26
1554103153123,-7.2448545,-2.2655133999999997,5.472546599999999,-0.44421527,0.041545313,-0.53476274,14.1,-24.96,-28.38
1554103153142,-7.345411,-2.2942438,5.4486045999999995,-0.37390783,0.08522116,-0.53795856,14.22,-24.48,-28.5
1554103153162,-7.383717999999999,-2.2750902,5.348048,-0.33875409999999995,0.13209279,-0.5209143,14.34,-24.06,-28.62
1554103153183,-7.4268136,-2.2319946,5.4486045999999995,-0.36964676,0.17363810000000002,-0.50813115,14.46,-23.46,-28.74
1554103153203,-7.5321584,-2.4378957999999997,5.276222,-0.39414784,0.20772657,-0.5070659000000001,14.52,-22.92,-28.8
1554103153223,-7.632714999999999,-2.5240872000000003,5.3384714,-0.4314321,0.25353295,-0.48043427,14.64,-22.38,-28.86
1554103153243,-7.6949644,-2.5863364,5.266645,-0.44954160000000004,0.27590349999999997,-0.4878911,14.76,-21.84,-28.98
1554103153262,-7.97748,-3.0172927000000005,5.3145294000000005,-0.41545314,0.26205507,-0.50600064,14.94,-21.3,-29.04
1554103153282,-8.006210000000001,-3.0699651,5.3863554,-0.37390783,0.22264028,-0.44634579999999996,15.3,-20.76,-29.1
1554103153303,-8.058883,-3.2279825,5.367202,-0.3206446,0.18535602,-0.39627838,15.66,-20.16,-29.16
1554103153322,-8.111555000000001,-3.2950199999999996,5.242703,-0.294013,0.14487597,-0.3536678,15.96,-19.44,-29.22
1554103153342,-8.039729,-3.328539,5.395932,-0.28868666,0.10226539,-0.3057309,16.32,-18.72,-29.22
1554103153363,-7.9583262999999995,-3.3764230000000004,5.204396,-0.2695119,0.07882957,-0.25885928,16.62,-18.06,-29.28
1554103153383,-7.97748,-3.4913447,5.194819,-0.22264028,0.06285059999999999,-0.20559604,16.98,-17.46,-29.22
1554103153402,-8.010999,-3.5966894999999997,4.941033999999999,-0.20133498,0.04580637,-0.17576863,17.28,-16.86,-29.22
1554103153423,-7.963114699999999,-3.7163997,4.869208,-0.20559604,0.008522116,-0.14168017,17.46,-16.32,-29.16
1554103153443,-7.762002000000001,-3.6254199000000003,5.237914599999999,-0.14913702,-0.01917476,-0.12570119999999999,17.52,-15.84,-29.16
1554103153464,-7.656657000000001,-3.4578260000000003,5.0942625999999995,-0.12676647,-0.026631612000000002,-0.10226539,17.52,-15.42,-29.1
1554103153483,-7.6375036,-3.4195184999999997,4.9745526,-0.11930962,-0.026631612000000002,-0.094808534,17.58,-15.12,-29.1
1554103153502,-7.747636999999999,-3.4961330000000004,5.137358,-0.15233281,-0.037284255,-0.09374327,17.58,-14.94,-29.1
1554103153523,-7.6614455999999995,-3.6014779000000003,4.9745526,-0.20559604,-0.05752428,-0.09054748,17.7,-14.76,-29.16
1554103153543,-7.5800424,-3.7163997,5.1660886,-0.20453078,-0.07030745599999999,-0.07882957,17.76,-14.64,-29.22
1554103153563,-7.675811,-3.7403417,5.185242,-0.12996227,-0.07882957,-0.05752428,17.76,-14.46,-29.28
1554103153583,-7.551311999999999,-3.7020345,5.122993,-0.06924219,-0.080960095,-0.047936900000000005,17.82,-14.28,-29.4
1554103153603,-7.4363904000000005,-3.6924577000000003,5.142146599999999,-0.06604639400000001,-0.07669904,-0.05219796,17.82,-14.1,-29.46
1554103153623,-7.445967,-3.6110547,4.9841294000000005,-0.07456851,-0.06924219,-0.053263225,17.82,-13.86,-29.58
1554103153643,-7.5800424,-3.8696284,5.0463786,-0.05006743,-0.06285059999999999,-0.060720075,17.82,-13.62,-29.7
1554103153662,-7.5273699999999995,-3.7116113,4.9506106,-0.012783173500000002,-0.05219796,-0.09267801,17.82,-13.38,-29.76
1554103153683,-7.4746976,-3.7211879999999997,4.8021703,0.0010652645,-0.04261058,-0.111852765,17.76,-13.08,-29.82
1554103153703,-7.4746976,-3.840898,4.8261123,-0.014913702,-0.037284255,-0.12357068,17.76,-12.84,-29.82
1554103153723,-7.374141000000001,-3.8983587999999996,4.941033999999999,-0.014913702,-0.033023197000000004,-0.15126756,17.82,-12.42,-29.88
1554103153742,-7.254431200000001,-3.6733038000000002,4.869208,0.002130529,-0.024501082,-0.15765914,17.82,-12.36,-29.88
1554103153762,-7.3310455999999995,-3.6828809000000002,4.9745526,0.024501082,-0.013848438000000001,-0.16405073,17.94,-12.18,-29.88
1554103153783,-7.445967,-3.5823242999999994,4.907515,0.008522116,-0.014913702,-0.17363810000000002,17.94,-12.12,-29.88
1554103153803,-7.369353,-3.5583823,5.1660886,-0.05006743,-0.02876214,-0.15978967,18.0,-12.12,-29.82
1554103153823,-7.3166804,-3.6254199000000003,5.3049526,-0.029827405,-0.039414786,-0.1587244,18.06,-12.18,-29.76
1554103153843,-7.431602000000001,-3.5009214999999996,5.295376,0.011717908999999999,-0.020240024,-0.165116,18.06,-12.18,-29.76
1554103153863,-7.3214690000000004,-3.4578260000000003,5.1996074,0.007456851,0.014913702,-0.15233281,18.06,-12.18,-29.76
1554103153884,-7.2113357,-3.4530375,5.065532,-0.04474111,0.05006743,-0.15339808,18.0,-12.12,-29.76
1554103153902,-7.345411,-3.4865562999999993,5.185242,-0.10013486,0.09161274,-0.12676647,17.94,-12.12,-29.7
1554103153923,-7.3885064,-3.6876693,5.1996074,-0.13741912,0.112918034,-0.06924219,17.88,-12.0,-29.7
1554103153944,-7.3071036,-3.6541502,5.1660886,-0.113983296,0.1107875,-0.04474111,17.82,-11.94,-29.7
1554103153964,-7.3166804,-3.6924577000000003,5.0080714,-0.09374327,0.084155895,0.002130529,17.82,-11.88,-29.7
1554103153983,-7.2640080000000005,-3.6780925000000004,4.8500543,-0.08522116,0.05219796,0.02876214,17.76,-11.76,-29.7
1554103154002,-7.407660000000001,-3.7355532999999994,4.883573,-0.07350325,0.029827405,0.05219796,17.76,-11.64,-29.76
1554103154022,-7.541735000000001,-3.8073792,4.759074,-0.053263225,0.007456851,0.06285059999999999,17.82,-11.58,-29.7
1554103154042,-7.5944076,-3.8504747999999998,4.7542860000000005,-0.05965481,-0.020240024,0.054328485999999995,17.82,-11.52,-29.7
1554103154064,-7.656657000000001,-3.9079356,4.6297874000000006,-0.07776430000000001,-0.046871635999999994,0.002130529,17.88,-11.46,-29.7
1554103154083,-7.4507556,-4.065953299999999,4.8787847,-0.07989483,-0.07563378,-0.06391586,17.94,-11.4,-29.7
1554103154103,-7.201759,-3.9079356,5.146935,-0.03834952,-0.09267801,-0.080960095,18.0,-11.28,-29.7
1554103154123,-7.2448545,-3.9031472000000003,4.888361499999999,0.07243799,-0.10013486,-0.011717908999999999,18.0,-11.16,-29.7
1554103154142,-7.2831616,-3.8744167999999997,4.8069587,0.13422333,-0.094808534,0.024501082,18.06,-11.1,-29.7
1554103154162,-7.393294999999999,-3.7594953,4.4526167,0.20026971,-0.053263225,0.05219796,18.12,-11.04,-29.7
1554103154183,-7.335833999999999,-3.5871127,4.2850223,0.18642128,-0.00958738,0.05965481,18.12,-10.98,-29.7
1554103154203,-7.2304892999999995,-3.5440169999999998,4.347272,0.14061491,0.02876214,0.04474111,18.12,-10.92,-29.7
1554103154222,-7.110779300000001,-3.8121676,4.3568487000000005,0.07563378,0.07989483,-0.0010652645,18.12,-10.86,-29.7
1554103154243,-6.9862804,-3.793014,4.395156,0.053263225,0.111852765,-0.0053263223,18.12,-10.86,-29.7
1554103154263,-7.062895,-3.7307648999999996,4.32333,0.047936900000000005,0.13102753,-0.011717908999999999,18.12,-10.86,-29.7
1554103154283,-7.1395097000000005,-3.5775358999999995,4.529230999999999,-0.011717908999999999,0.12996227,-0.035153727999999995,18.12,-10.92,-29.7
1554103154302,-7.2113357,-3.6302083,4.6537294000000005,-0.07456851,0.10652645,-0.060720075,18.12,-11.04,-29.7
1554103154322,-7.2592196,-3.6637269999999997,4.9458222,-0.09054748,0.08628642,-0.07989483,18.12,-11.1,-29.64
1554103154343,-7.240066000000001,-3.4913447,5.075108999999999,-0.07137272,0.05219796,-0.07776430000000001,18.06,-11.22,-29.64
1554103154363,-7.3310455999999995,-3.3764230000000004,5.204396,-0.04474111,0.037284255,-0.06178534,18.12,-11.34,-29.64
1554103154384,-7.3789296,-3.3141737,5.233126,-0.043675844000000005,0.033023197000000004,-0.047936900000000005,18.18,-11.4,-29.64
1554103154402,-7.61835,-3.1848867000000003,5.257068,-0.03089267,0.03089267,-0.037284255,18.24,-11.46,-29.64
1554103154423,-7.584830800000001,-3.1465794999999996,5.3288946,-0.039414786,0.03089267,-0.03195793,18.3,-11.52,-29.64
1554103154443,-7.8386164,-3.3764230000000004,5.2810106,-0.084155895,0.034088463,-0.011717908999999999,18.42,-11.52,-29.58
1554103154462,-7.8290396,-3.4099417,5.252279799999999,-0.11717909,0.037284255,-0.004261058,18.42,-11.52,-29.52
1554103154482,-7.943961,-3.697246,5.3863554,-0.11824436,0.03195793,0.012783173500000002,18.48,-11.46,-29.52
1554103154503,-7.8625584,-3.6733038000000002,5.2810106,-0.09054748,0.018109497,0.06604639400000001,18.54,-11.46,-29.46
1554103154523,-7.747636999999999,-3.5631707,5.075108999999999,-0.04474111,-0.002130529,0.12357068,18.54,-11.4,-29.46
1554103154542,-8.183380999999999,-3.5679589999999997,4.687248,-0.039414786,-0.020240024,0.15446335,18.54,-11.4,-29.4
1554103154562,-8.537724,-3.8983587999999996,4.68246,-0.12144015,-0.027696876000000002,0.07563378,18.48,-11.4,-29.4
1554103154583,-8.006210000000001,-3.9414546,5.180454,-0.18002969,-0.07137272,-0.10652645,18.48,-11.34,-29.34
1554103154602,-7.2975270000000005,-3.9510313999999997,4.955399,-0.099069595,-0.096939065,-0.111852765,18.48,-11.34,-29.34
1554103154623,-7.2592196,-3.7403417,5.0511669999999995,-0.013848438000000001,-0.08841695,0.05965481,18.54,-11.28,-29.4
1554103154642,-7.407660000000001,-3.4530375,4.466982,0.15020229,-0.07456851,0.15446335,18.66,-11.22,-29.4
1554103154662,-7.3885064,-3.151368,3.9689879999999995,0.16831179,-0.046871635999999994,0.16192019,18.66,-11.16,-29.46
1554103154683,-7.4124484,-3.1896752999999998,3.8349125,0.07350325,0.0031957934000000003,0.13848437,18.78,-11.04,-29.46
1554103154703,-7.311891999999999,-3.4482489999999997,3.8205473,-0.047936900000000005,0.054328485999999995,0.06924219,18.9,-10.92,-29.52
1554103154722,-7.2448545,-3.6876693,3.9163153,-0.09267801,0.07669904,0.008522116,18.84,-10.8,-29.58
1554103154743,-7.2640080000000005,-3.6828809000000002,4.2419267,-0.12676647,0.07669904,-0.039414786,18.78,-10.74,-29.64
1554103154762,-7.3166804,-3.816956,4.447828299999999,-0.16192019,0.06178534,-0.07776430000000001,18.72,-10.68,-29.64
1554103154783,-7.3166804,-3.946243,4.6441526,-0.18535602,0.027696876000000002,-0.09161274,18.6,-10.62,-29.7
1554103154803,-7.565677,-3.9175123999999997,4.9218802,-0.19387813,-0.007456851,-0.084155895,18.48,-10.74,-29.7
1554103154823,-7.675811,-3.9558197999999996,5.185242,-0.16298546,-0.04474111,-0.07350325,18.36,-10.86,-29.76
1554103154842,-7.7572136,-3.8025907999999995,5.0463786,-0.10865697,-0.07776430000000001,-0.07137272,18.24,-10.92,-29.76
1554103154863,-7.728483,-3.8265328000000003,5.003283000000001,-0.07243799,-0.09374327,-0.06711166,18.18,-10.98,-29.76
1554103154882,-7.762002000000001,-3.8600516000000002,5.0080714,-0.054328485999999995,-0.096939065,-0.06924219,18.18,-10.86,-29.76
1554103154902,-7.785944000000001,-3.793014,5.1038394,-0.03195793,-0.09374327,-0.06924219,18.24,-10.68,-29.7
1554103154923,-7.881711999999999,-3.7403417,4.931457,-0.012783173500000002,-0.082025364,-0.058589544,18.24,-10.5,-29.7
1554103154942,-7.833828,-3.6541502,5.0224366,0.0053263223,-0.082025364,-0.049002163,18.24,-10.32,-29.7
1554103154962,-7.728483,-3.5392287000000002,4.7542860000000005,0.011717908999999999,-0.09054748,-0.053263225,18.3,-10.02,-29.7
1554103154983,-7.5800424,-3.5248635000000004,4.859630999999999,-0.007456851,-0.10439592,-0.049002163,18.24,-9.84,-29.7
1554103155002,-7.5321584,-3.7547068999999995,4.941033999999999,-0.0010652645,-0.112918034,-0.037284255,18.24,-9.6,-29.7
1554103155022,-7.3549875999999985,-3.6924577000000003,4.6776714,0.04580637,-0.11717909,-0.039414786,18.18,-9.42,-29.7
1554103155042,-7.326257000000001,-3.4865562999999993,4.6154222,0.056459017,-0.10865697,-0.041545313,18.12,-9.42,-29.7
1554103155062,-7.359775999999999,-3.5488055,4.6680946,0.004261058,-0.11504856,-0.05219796,18.0,-9.48,-29.76
1554103155082,-7.369353,-3.615843,4.6633059999999995,-0.035153727999999995,-0.12463594,-0.060720075,17.88,-9.48,-29.82
1554103155102,-7.383717999999999,-3.7020345,4.7542860000000005,-0.017044231,-0.12996227,-0.058589544,17.82,-9.6,-29.88
1554103155123,-7.28795,-3.7786489000000003,4.7303440000000005,0.013848438000000001,-0.13954964,-0.07243799,17.7,-9.66,-29.88
1554103155142,-7.2975270000000005,-3.8073792,4.672883000000001,0.002130529,-0.13528858,-0.07456851,17.58,-9.66,-29.94
1554103155162,-7.3549875999999985,-3.7499184999999997,4.9841294000000005,-0.020240024,-0.13209279,-0.07243799,17.52,-9.72,-30.0
1554103155183,-7.2209125,-3.7738605000000005,4.8404775,-0.018109497,-0.12676647,-0.06285059999999999,17.46,-9.72,-30.0
1554103155203,-7.249642999999999,-3.8313212,5.003283000000001,0.004261058,-0.111852765,-0.040480047000000005,17.46,-9.78,-30.0
1554103155223,-7.326257000000001,-3.74513,4.979341000000001,0.036218993,-0.09267801,-0.035153727999999995,17.46,-9.78,-29.94
1554103155242,-7.254431200000001,-3.6445735,4.988918,0.039414786,-0.07030745599999999,-0.037284255,17.4,-9.78,-29.94
1554103155262,-7.302314999999999,-3.7499184999999997,5.0846860000000005,0.024501082,-0.047936900000000005,-0.03089267,17.34,-9.78,-29.94
1554103155283,-7.2304892999999995,-3.7834373,5.1086279999999995,0.047936900000000005,-0.035153727999999995,-0.022370555,17.28,-9.78,-29.94
1554103155303,-7.153875,-3.769072,5.0798974,0.083090626,-0.013848438000000001,-0.024501082,17.16,-9.78,-29.94
1554103155322,-7.2304892999999995,-3.6206315000000004,4.912303400000001,0.09587380000000001,0.007456851,-0.014913702,17.1,-9.78,-29.94
1554103155342,-7.254431200000001,-3.5248635000000004,4.888361499999999,0.082025364,0.025566347000000003,-0.023435817999999997,16.98,-9.84,-29.94
1554103155362,-7.225700999999999,-3.4721910000000005,4.979341000000001,0.06924219,0.033023197000000004,-0.029827405,16.86,-9.96,-30.06
1554103155386,-7.2975270000000005,-3.639785,4.6680946,0.07882957,0.041545313,-0.036218993,16.8,-10.08,-30.12
1554103155405,-7.2065472999999995,-3.6780925000000004,4.8261123,0.08841695,0.041545313,-0.043675844000000005,16.74,-10.2,-30.12
1554103155422,-7.153875,-3.520075,4.7782279999999995,0.06285059999999999,0.04474111,-0.05006743,16.74,-10.32,-30.18
1554103155442,-7.192182000000001,-3.5966894999999997,4.7925935,0.05219796,0.06178534,-0.053263225,16.74,-10.5,-30.18
1554103155463,-7.326257000000001,-3.615843,4.9218802,0.036218993,0.07776430000000001,-0.043675844000000005,16.74,-10.68,-30.18
1554103155482,-7.302314999999999,-3.5631707,4.8404775,0.01917476,0.07882957,-0.046871635999999994,16.74,-10.8,-30.18
1554103155502,-7.240066000000001,-3.6637269999999997,5.01286,0.010652645,0.07669904,-0.039414786,16.8,-10.92,-30.24
1554103155522,-7.2640080000000005,-3.5727474999999997,4.9218802,0.018109497,0.07669904,-0.04261058,16.8,-10.98,-30.24
1554103155543,-7.3310455999999995,-3.4961330000000004,4.9458222,0.02876214,0.07456851,-0.056459017,16.86,-11.04,-30.18
1554103155563,-7.4028716,-3.5057099999999997,4.744708999999999,0.0,0.06498113,-0.056459017,16.86,-11.1,-30.18
1554103155582,-7.5034279999999995,-3.6685154000000004,4.830900700000001,-0.022370555,0.054328485999999995,-0.06498113,16.92,-11.1,-30.12
1554103155602,-7.5944076,-3.7211879999999997,4.9218802,-0.025566347000000003,0.033023197000000004,-0.068176925,16.98,-11.1,-30.12
1554103155624,-7.541735000000001,-3.6541502,4.8739963,-0.0063915867,0.013848438000000001,-0.051132694000000006,16.98,-11.1,-30.12
1554103155642,-7.445967,-3.7211879999999997,4.9984946,0.011717908999999999,-0.0031957934000000003,-0.040480047000000005,17.04,-11.04,-30.06
1554103155665,-7.5608889999999995,-3.6254199000000003,4.797382,0.014913702,-0.00958738,-0.020240024,17.04,-11.04,-30.06
1554103155683,-7.4699089999999995,-3.6589386,4.907515,-0.0010652645,-0.010652645,-0.011717908999999999,17.1,-10.98,-30.0
1554103155704,-7.6135616,-3.6254199000000003,4.888361499999999,-0.0063915867,-0.0063915867,-0.027696876000000002,17.1,-10.98,-30.0
1554103155723,-7.551311999999999,-3.74513,5.027225,0.0031957934000000003,-0.0031957934000000003,-0.013848438000000001,17.1,-10.92,-29.94
1554103155743,-7.5369470000000005,-3.7307648999999996,5.0080714,0.027696876000000002,-0.0010652645,-0.00958738,17.1,-10.86,-29.94
1554103155762,-7.4842744,-3.6062663,4.821324,0.037284255,0.0,0.00958738,17.1,-10.8,-29.88
1554103155782,-7.445967,-3.4961330000000004,4.955399,0.025566347000000003,0.0,0.01917476,17.16,-10.74,-29.82
1554103155803,-7.513005000000001,-3.5104983,4.955399,0.018109497,-0.002130529,0.029827405,17.28,-10.74,-29.76
1554103155823,-7.4124484,-3.5823242999999994,4.7303440000000005,0.037284255,-0.0053263223,0.029827405,17.34,-10.68,-29.76
1554103155843,-7.398083,-3.5583823,4.6920366,0.033023197000000004,-0.00958738,0.026631612000000002,17.46,-10.68,-29.7
1554103155863,-7.278373200000001,-3.5631707,4.8069587,-0.013848438000000001,-0.0031957934000000003,0.017044231,17.52,-10.62,-29.7
1554103155882,-7.374141000000001,-3.6445735,4.9027267,-0.026631612000000002,-0.011717908999999999,0.0010652645,17.58,-10.62,-29.7
1554103155903,-7.1873937,-3.6733038000000002,4.979341000000001,0.0063915867,-0.010652645,-0.0053263223,17.64,-10.68,-29.76
1554103155923,-7.28795,-3.6828809000000002,4.907515,0.015978966,-0.004261058,-0.011717908999999999,17.7,-10.68,-29.76
1554103155943,-7.144297999999999,-3.6062663,4.835689,-0.007456851,-0.0031957934000000003,-0.023435817999999997,17.7,-10.74,-29.76
1554103155963,-7.168239999999999,-3.6302083,4.8739963,-0.018109497,0.0,-0.034088463,17.64,-10.74,-29.76
1554103155982,-7.383717999999999,-3.5535938999999996,5.01286,-0.02130529,0.0031957934000000003,-0.054328485999999995,17.58,-10.74,-29.76
1554103156002,-7.398083,-3.74513,4.883573,-0.01917476,0.0,-0.07456851,17.46,-10.8,-29.76
1554103156022,-7.359775999999999,-3.7882257000000004,4.912303400000001,-0.014913702,-0.0063915867,-0.080960095,17.4,-10.8,-29.76
1554103156044,-7.2592196,-3.8744167999999997,5.0942625999999995,-0.0010652645,-0.012783173500000002,-0.084155895,17.4,-10.8,-29.76
1554103156064,-7.3645644,-3.8456864,5.0942625999999995,0.037284255,-0.008522116,-0.07989483,17.46,-10.8,-29.76
1554103156084,-7.417236999999999,-3.8025907999999995,5.113416,0.07776430000000001,-0.0031957934000000003,-0.080960095,17.46,-10.74,-29.76
1554103156104,-7.407660000000001,-3.6876693,4.9745526,0.09161274,-0.0010652645,-0.082025364,17.52,-10.74,-29.76
1554103156123,-7.422025,-3.6014779000000003,5.0559554,0.07882957,0.0031957934000000003,-0.08522116,17.58,-10.8,-29.76
1554103156143,-7.3166804,-3.6062663,5.127781400000001,0.082025364,0.008522116,-0.084155895,17.58,-10.8,-29.76
1554103156163,-7.3549875999999985,-3.7355532999999994,4.9937059999999995,0.12144015,0.012783173500000002,-0.09054748,17.64,-10.8,-29.76
1554103156183,-7.407660000000001,-3.6349967000000003,4.9937059999999995,0.14487597,0.015978966,-0.096939065,17.7,-10.86,-29.76
1554103156203,-7.278373200000001,-3.7259765,5.0224366,0.14168017,0.022370555,-0.099069595,17.76,-10.92,-29.76
1554103156222,-7.2209125,-3.6876693,4.926668599999999,0.12570119999999999,0.03834952,-0.099069595,17.76,-10.98,-29.76
1554103156242,-7.350199000000001,-3.5775358999999995,4.9984946,0.14274544,0.04580637,-0.10333065,17.76,-11.04,-29.82
1554103156263,-7.393294999999999,-3.6445735,4.797382,0.15552860000000002,0.049002163,-0.10652645,17.76,-11.1,-29.88
1554103156283,-7.225700999999999,-3.6062663,5.003283000000001,0.16618125,0.040480047000000005,-0.10333065,17.76,-11.16,-29.88
1554103156302,-7.3789296,-3.4482489999999997,4.8979383,0.17150758,0.039414786,-0.10333065,17.82,-11.34,-29.94
1554103156322,-7.3789296,-3.5009214999999996,4.9027267,0.16192019,0.033023197000000004,-0.10226539,17.76,-11.46,-29.94
1554103156342,-7.393294999999999,-3.4003648999999996,4.9027267,0.15126756,0.035153727999999995,-0.10226539,17.76,-11.58,-29.94
1554103156362,-7.445967,-3.5488055,5.075108999999999,0.15233281,0.03089267,-0.10439592,17.76,-11.7,-29.94
1554103156383,-7.3166804,-3.4674027,4.9027267,0.16192019,0.029827405,-0.10333065,17.76,-11.88,-29.88
1554103156402,-7.431602000000001,-3.5248635000000004,4.7494974,0.13848437,0.03195793,-0.10333065,17.76,-12.06,-29.88
1554103156423,-7.383717999999999,-3.5535938999999996,5.04159,0.12463594,0.034088463,-0.101200126,17.76,-12.3,-29.82
1554103156442,-7.422025,-3.6541502,5.1038394,0.12996227,0.041545313,-0.08628642,17.7,-12.48,-29.76
1554103156463,-7.3214690000000004,-3.4195184999999997,4.9218802,0.13315806,0.056459017,-0.07989483,17.7,-12.66,-29.64
1554103156483,-7.383717999999999,-3.3141737,4.8787847,0.12783173,0.054328485999999995,-0.080960095,17.7,-12.84,-29.58
1554103156503,-7.493850999999999,-3.3524809999999996,5.027225,0.09054748,0.053263225,-0.07882957,17.64,-12.96,-29.52
1554103156523,-7.2640080000000005,-3.3716345000000003,4.9984946,0.07776430000000001,0.03834952,-0.083090626,17.64,-13.14,-29.46
1554103156543,-7.268796400000001,-3.4099417,4.936245400000001,0.08735169,0.04474111,-0.07456851,17.64,-13.2,-29.4
1554103156562,-7.5561004,-3.2902317,4.7016134,0.07137272,0.054328485999999995,-0.058589544,17.58,-13.32,-29.34
1554103156583,-7.699753,-3.2662897,4.7303440000000005,0.04261058,0.04261058,-0.07137272,17.58,-13.38,-29.34
1554103156602,-7.5800424,-3.4003648999999996,4.955399,0.033023197000000004,0.03195793,-0.06498113,17.58,-13.44,-29.34
1554103156622,-7.4699089999999995,-3.4578260000000003,5.0559554,0.039414786,0.026631612000000002,-0.054328485999999995,17.58,-13.5,-29.34
1554103156643,-7.5369470000000005,-3.4434607,4.8069587,0.03195793,0.034088463,-0.040480047000000005,17.58,-13.56,-29.34
1554103156663,-7.5369470000000005,-3.3476925000000004,4.7830167,0.007456851,0.037284255,-0.03834952,17.64,-13.62,-29.28
1554103156682,-7.599196000000001,-3.481768,4.7782279999999995,-0.007456851,0.03195793,-0.037284255,17.7,-13.68,-29.28
1554103156702,-7.5082164,-3.3907879999999997,4.931457,-0.00958738,0.023435817999999997,-0.03195793,17.76,-13.74,-29.28
1554103156723,-7.489063000000001,-3.3189620000000004,5.0463786,0.0031957934000000003,0.012783173500000002,-0.03089267,17.82,-13.8,-29.28
1554103156742,-7.465121000000001,-3.4386723,4.9506106,-0.004261058,0.0053263223,-0.013848438000000001,17.88,-13.8,-29.28
1554103156762,-7.422025,-3.4147300000000005,5.036802,-0.014913702,0.0031957934000000003,-0.007456851,18.0,-13.86,-29.28
1554103156783,-7.479486,-3.3764230000000004,5.0080714,-0.02130529,0.008522116,-0.002130529,18.06,-13.86,-29.28
1554103156803,-7.6135616,-3.3812113,4.9745526,-0.023435817999999997,0.0031957934000000003,-0.002130529,18.12,-13.86,-29.28
1554103156823,-7.3885064,-3.5104983,5.01286,-0.025566347000000003,-0.0053263223,-0.007456851,18.12,-13.92,-29.28
1554103156842,-7.5082164,-3.4626143,4.883573,-0.022370555,-0.002130529,-0.004261058,18.18,-13.98,-29.28
1554103156862,-7.441178999999999,-3.5057099999999997,4.821324,-0.037284255,0.002130529,0.0010652645,18.24,-13.98,-29.28
1554103156883,-7.455544000000001,-3.4482489999999997,4.8739963,-0.046871635999999994,-0.008522116,0.008522116,18.24,-14.04,-29.28
1554103156903,-7.513005000000001,-3.4338839999999995,4.9027267,-0.037284255,-0.024501082,0.011717908999999999,18.3,-14.1,-29.34
1554103156922,-7.522581599999999,-3.4913447,4.8739963,-0.035153727999999995,-0.034088463,0.025566347000000003,18.3,-14.1,-29.34
1554103156942,-7.455544000000001,-3.4338839999999995,4.89315,-0.04474111,-0.029827405,0.029827405,18.3,-14.16,-29.34
1554103156964,-7.4986396,-3.3764230000000004,4.9218802,-0.05539375,-0.025566347000000003,0.035153727999999995,18.3,-14.16,-29.34
1554103156983,-7.541735000000001,-3.3476925000000004,4.931457,-0.068176925,-0.024501082,0.03834952,18.3,-14.04,-29.28
1554103157003,-7.5082164,-3.3955764999999998,4.941033999999999,-0.07137272,-0.027696876000000002,0.034088463,18.3,-13.92,-29.28
1554103157023,-7.546523599999999,-3.3764230000000004,4.955399,-0.07030745599999999,-0.03089267,0.04474111,18.24,-13.8,-29.28
1554103157043,-7.575253999999999,-3.5104983,4.8452660000000005,-0.07350325,-0.03195793,0.051132694000000006,18.24,-13.68,-29.28
1554103157062,-7.5082164,-3.4434607,5.0080714,-0.07456851,-0.034088463,0.058589544,18.24,-13.62,-29.28
1554103157082,-7.4268136,-3.4003648999999996,4.8165355000000005,-0.06498113,-0.027696876000000002,0.06711166,18.24,-13.5,-29.28
1554103157102,-7.398083,-3.3620577000000003,4.960187400000001,-0.07137272,-0.027696876000000002,0.06285059999999999,18.18,-13.44,-29.28
1554103157123,-7.422025,-3.3907879999999997,4.759074,-0.09374327,-0.027696876000000002,0.06498113,18.18,-13.38,-29.28
1554103157144,-7.5369470000000005,-3.3907879999999997,5.01286,-0.11504856,-0.029827405,0.05752428,18.18,-13.32,-29.28
1554103157162,-7.4507556,-3.3572693,4.907515,-0.09054748,-0.034088463,0.051132694000000006,18.12,-13.38,-29.28
1554103157182,-7.489063000000001,-3.3859997,4.7925935,-0.07776430000000001,-0.03834952,0.05219796,18.12,-13.38,-29.28
1554103157203,-7.311891999999999,-3.4865562999999993,5.113416,-0.08841695,-0.03195793,0.051132694000000006,18.12,-13.38,-29.28
1554103157222,-7.4268136,-3.4865562999999993,4.9745526,-0.08735169,-0.018109497,0.037284255,18.06,-13.38,-29.28
1554103157243,-7.5034279999999995,-3.481768,4.979341000000001,-0.08628642,-0.014913702,0.03089267,18.06,-13.38,-29.28
1554103157263,-7.311891999999999,-3.4482489999999997,5.01286,-0.06711166,-0.02130529,0.033023197000000004,18.06,-13.38,-29.34
1554103157283,-7.28795,-3.5104983,4.9218802,-0.056459017,-0.018109497,0.026631612000000002,18.0,-13.38,-29.4
1554103157302,-7.5369470000000005,-3.4338839999999995,5.0080714,-0.060720075,-0.013848438000000001,0.018109497,18.0,-13.38,-29.46
1554103157322,-7.359775999999999,-3.5631707,4.941033999999999,-0.04261058,-0.015978966,0.007456851,18.0,-13.38,-29.58
1554103157343,-7.4363904000000005,-3.5966894999999997,4.7830167,-0.018109497,-0.00958738,0.0,18.0,-13.38,-29.64
1554103157363,-7.417236999999999,-3.481768,5.0320134,-0.025566347000000003,-0.011717908999999999,-0.0053263223,18.0,-13.38,-29.7
1554103157383,-7.359775999999999,-3.5057099999999997,5.113416,-0.01917476,-0.011717908999999999,-0.0053263223,18.0,-13.38,-29.76
1554103157402,-7.455544000000001,-3.5009214999999996,5.1038394,0.022370555,0.0,-0.017044231,18.0,-13.38,-29.76
1554103157423,-7.5273699999999995,-3.3381157,5.0224366,0.051132694000000006,0.004261058,-0.027696876000000002,18.0,-13.32,-29.76
1554103157443,-7.479486,-3.2758665000000002,4.883573,0.03834952,0.004261058,-0.037284255,17.94,-13.32,-29.76
1554103157463,-7.5082164,-3.256713,4.9506106,0.011717908999999999,0.0010652645,-0.053263225,17.88,-13.26,-29.7
1554103157483,-7.517792999999999,-3.4003648999999996,5.027225,0.027696876000000002,-0.0063915867,-0.058589544,17.82,-13.26,-29.64
1554103157503,-7.5369470000000005,-3.3572693,4.8739963,0.05965481,-0.004261058,-0.05965481,17.76,-13.2,-29.58
1554103157522,-7.493850999999999,-3.3524809999999996,4.9841294000000005,0.06924219,0.0031957934000000003,-0.051132694000000006,17.76,-13.2,-29.58
1554103157542,-7.513005000000001,-3.2471360000000002,4.912303400000001,0.06391586,0.00958738,-0.05006743,17.7,-13.2,-29.52
1554103157562,-7.584830800000001,-3.3237504999999996,4.821324,0.049002163,0.020240024,-0.04580637,17.64,-13.14,-29.58
1554103157582,-7.517792999999999,-3.2662897,5.0511669999999995,0.06178534,0.018109497,-0.051132694000000006,17.58,-13.2,-29.58
1554103157602,-7.4603324,-3.2231941,4.912303400000001,0.07137272,0.0063915867,-0.05752428,17.64,-13.2,-29.64
1554103157623,-7.5034279999999995,-3.2423477000000003,4.907515,0.06285059999999999,0.007456851,-0.06178534,17.7,-13.26,-29.64
1554103157642,-7.575253999999999,-3.2758665000000002,4.912303400000001,0.058589544,0.00958738,-0.06391586,17.7,-13.26,-29.7
1554103157662,-7.517792999999999,-3.2998084999999997,4.931457,0.04474111,0.008522116,-0.07137272,17.7,-13.32,-29.76
1554103157683,-7.603985000000001,-3.3476925000000004,5.003283000000001,0.04261058,0.011717908999999999,-0.068176925,17.76,-13.38,-29.76
1554103157702,-7.455544000000001,-3.2423477000000003,4.979341000000001,0.06711166,0.02130529,-0.06498113,17.82,-13.44,-29.76
1554103157724,-7.541735000000001,-3.232771,4.859630999999999,0.08841695,0.024501082,-0.06924219,17.82,-13.56,-29.76
1554103157743,-7.5369470000000005,-3.3333273,4.797382,0.06924219,0.026631612000000002,-0.06285059999999999,17.88,-13.62,-29.7
1554103157763,-7.4842744,-3.4051532999999994,4.8404775,0.051132694000000006,0.024501082,-0.06604639400000001,17.88,-13.68,-29.7
1554103157782,-7.4603324,-3.4195184999999997,4.7925935,0.060720075,0.020240024,-0.05006743,17.88,-13.68,-29.7
1554103157803,-7.5082164,-3.3333273,4.907515,0.07456851,0.01917476,-0.03834952,17.88,-13.68,-29.64
1554103157823,-7.589619,-3.2662897,4.931457,0.09054748,0.011717908999999999,-0.03195793,17.94,-13.68,-29.64
1554103157844,-7.6375036,-3.2615013,4.7542860000000005,0.07350325,0.013848438000000001,-0.034088463,17.94,-13.68,-29.58
1554103157862,-7.6614455999999995,-3.1465794999999996,4.797382,0.053263225,0.014913702,-0.023435817999999997,17.94,-13.74,-29.52
1554103157883,-7.603985000000001,-3.2998084999999997,4.941033999999999,0.039414786,0.0063915867,-0.01917476,18.0,-13.74,-29.46
1554103157902,-7.599196000000001,-3.342904,5.194819,0.05006743,0.0,-0.012783173500000002,18.0,-13.74,-29.4
1554103157922,-7.5608889999999995,-3.1848867000000003,4.955399,0.07563378,0.0010652645,0.0,18.0,-13.8,-29.4
1554103157943,-7.599196000000001,-3.1657330000000004,5.0511669999999995,0.09161274,0.0053263223,-0.0031957934000000003,17.94,-13.8,-29.34
1554103157963,-7.690175999999999,-3.0460230999999998,5.089474,0.07776430000000001,0.002130529,-0.00958738,17.94,-13.86,-29.28
1554103157983,-7.541735000000001,-2.9981391,5.242703,0.06178534,-0.00958738,-0.014913702,17.94,-13.92,-29.28
1554103158003,-7.584830800000001,-3.1130607000000006,5.0463786,0.06711166,-0.017044231,-0.027696876000000002,17.94,-13.92,-29.28
1554103158022,-7.513005000000001,-3.0556,5.113416,0.07563378,-0.026631612000000002,-0.035153727999999995,17.94,-13.98,-29.22
1554103158043,-7.345411,-3.103484,4.955399,0.12037488,-0.004261058,-0.05539375,17.94,-14.04,-29.22
1554103158062,-7.608772999999999,-2.8832173,4.931457,0.082025364,0.018109497,-0.08522116,17.94,-14.1,-29.22
1554103158083,-7.517792999999999,-3.0891187,4.768651,0.06924219,0.007456851,-0.096939065,17.94,-14.16,-29.22
1554103158103,-7.4028716,-3.0603882999999996,4.9458222,0.07030745599999999,0.020240024,-0.10759171,17.94,-14.22,-29.16
1554103158123,-7.3071036,-3.0508115,4.931457,0.10333065,0.020240024,-0.12676647,17.94,-14.28,-29.16
1554103158142,-7.2640080000000005,-2.9933507,4.9937059999999995,0.10972224,0.036218993,-0.15126756,18.0,-14.4,-29.1
1554103158162,-7.350199000000001,-3.1226375,5.065532,0.06604639400000001,0.06498113,-0.17150758,18.0,-14.46,-29.04
1554103158183,-7.513005000000001,-3.1992521000000003,4.744708999999999,0.027696876000000002,0.07776430000000001,-0.18216023,18.12,-14.58,-28.98
1554103158202,-7.575253999999999,-3.2375592999999996,5.0463786,0.01917476,0.06178534,-0.18216023,18.24,-14.64,-28.92
1554103158223,-7.4603324,-3.3189620000000004,5.089474,0.047936900000000005,0.05752428,-0.18642128,18.36,-14.7,-28.92
1554103158243,-7.6518690000000005,-3.3524809999999996,5.0559554,0.020240024,0.06924219,-0.1587244,18.48,-14.7,-28.86
1554103158262,-7.795521000000001,-3.3764230000000004,5.0511669999999995,0.025566347000000003,0.046871635999999994,-0.14168017,18.6,-14.76,-28.8
1554103158282,-7.7572136,-3.4482489999999997,4.979341000000001,0.07350325,0.033023197000000004,-0.12144015,18.72,-14.82,-28.8
1554103158302,-7.843405000000001,-3.4147300000000005,4.960187400000001,0.07137272,0.02876214,-0.096939065,18.84,-14.82,-28.8
1554103158323,-7.9583262999999995,-3.3572693,5.027225,0.0031957934000000003,0.00958738,-0.056459017,18.9,-14.82,-28.8
1554103158343,-7.920019,-3.4578260000000003,5.1086279999999995,0.025566347000000003,-0.0010652645,-0.02130529,18.84,-14.82,-28.8
1554103158362,-8.145074000000001,-3.6014779000000003,5.099051,0.03195793,-0.013848438000000001,0.041545313,18.78,-14.82,-28.8
1554103158382,-8.279149,-3.4913447,5.1086279999999995,0.02876214,-0.015978966,0.08841695,18.72,-14.82,-28.8
1554103158402,-8.240842,-3.520075,5.1038394,0.043675844000000005,-0.035153727999999995,0.18322548,18.6,-14.82,-28.8
1554103158422,-8.221688,-3.5009214999999996,5.003283000000001,0.05219796,-0.035153727999999995,0.24607609,18.48,-14.82,-28.8
1554103158443,-8.164227499999999,-3.2710779999999997,5.01286,0.07350325,-0.03089267,0.32597092,18.36,-14.82,-28.8
1554103158462,-8.269572,-3.141791,5.1660886,0.054328485999999995,-0.04580637,0.41758367,18.3,-14.82,-28.8
1554103158483,-8.145074000000001,-3.007716,4.89315,0.05965481,-0.07030745599999999,0.49534798,18.24,-14.82,-28.8
1554103158503,-8.413225,-2.926313,5.113416,0.05006743,-0.09587380000000001,0.5475459,18.18,-14.82,-28.74
1554103158523,-8.341399000000001,-2.5623944,5.218761,0.07243799,-0.15233281,0.6146576,18.18,-14.94,-28.74
1554103158543,-8.231264999999999,-2.782661,5.357625,0.05752428,-0.2066613,0.65513766,18.18,-15.12,-28.68
1554103158563,-8.178593,-2.4905684,5.242703,0.113983296,-0.25033715,0.716923,18.18,-15.36,-28.68
1554103158582,-8.145074000000001,-2.131438,5.3384714,0.15446335,-0.3057309,0.76592517,18.12,-15.72,-28.68
1554103158602,-8.106767,-2.1458032000000005,5.472546599999999,0.15020229,-0.34194988,0.7978831000000001,18.06,-16.14,-28.68
1554103158622,-8.082825,-2.059612,5.486912,0.15020229,-0.36964676,0.8181231,17.88,-16.56,-28.68
1554103158643,-8.010999,-2.0452468,5.716755,0.19068234,-0.38029942,0.8628642,17.46,-17.1,-28.74
1554103158663,-7.8290396,-1.8537107,5.812523400000001,0.2876214,-0.37390783,0.87990844,16.98,-17.64,-28.86
1554103158683,-7.5704656,-1.7196354,5.879561,0.3717773,-0.3334278,0.88843054,16.44,-18.12,-28.98
1554103158703,-7.551311999999999,-1.3940238999999999,5.6784476999999995,0.39414784,-0.2876214,0.8926915999999999,15.9,-18.54,-29.16
1554103158722,-7.359775999999999,-1.1737574,5.415086,0.36218992,-0.25246766,0.8873653,15.36,-18.84,-29.28
1554103158743,-7.3549875999999985,-0.98700964,5.5204306,0.29294774,-0.22583607,0.87351686,14.82,-19.14,-29.4
1554103158762,-7.278373200000001,-0.9247603999999999,5.6736593,0.28229508,-0.21624869,0.86499476,14.28,-19.5,-29.46
1554103158782,-7.2352777,-0.9247603999999999,5.6161985,0.34088463,-0.21198763,0.8522116,13.92,-20.04,-29.58
1554103158803,-7.2209125,-0.623091,5.5347957999999995,0.42077947,-0.20026971,0.8319715,13.62,-20.58,-29.64
1554103158822,-7.1155677,-0.14903906,5.37199,0.44847634,-0.18642128,0.8042746999999999,13.26,-21.18,-29.7
1554103158842,-7.091625,0.023343466,5.2474914,0.34834146,-0.18855181,0.7669904000000001,12.9,-21.84,-29.7
1554103158863,-7.1873937,-0.04369418,5.812523400000001,0.18642128,-0.20453078,0.71585774,12.36,-23.04,-29.7
1554103158882,-7.374141000000001,0.19572599,5.8268886,0.2066613,-0.20559604,0.6924219,11.94,-23.94,-29.76
1554103158903,-7.359775999999999,0.23882163,5.855619,0.25885928,-0.22264028,0.6689861,11.76,-24.36,-29.76
1554103158923,-7.2352777,0.3537433,6.0040593,0.36005938,-0.21198763,0.6178534000000001,11.1,-25.68,-29.76
1554103158942,-7.3166804,0.86610246,5.6401405,0.40266997,-0.18429075,0.58909124,10.62,-26.4,-29.76
1554103158963,-7.2304892999999995,0.9187749,5.855619,0.27803403,-0.16085494,0.531567,10.38,-27.0,-29.76
1554103158985,-7.2352777,0.8086416000000001,6.085462000000001,0.14913702,-0.13848437,0.46658584,10.08,-27.54,-29.7
1554103159003,-7.1490865,0.95708215,6.1046157,0.1768339,-0.12783173,0.4314321,9.66,-28.02,-29.7
1554103159022,-7.2448545,1.0097545,5.9082913,0.2545982,-0.12676647,0.37923414,9.24,-28.5,-29.7
1554103159043,-7.2592196,1.1390414,6.0327897,0.27803403,-0.13741912,0.34408042,8.88,-28.98,-29.7
1554103159062,-7.144297999999999,1.2970588,5.9801173,0.20985709,-0.13209279,0.30040458,8.46,-29.34,-29.7
1554103159082,-7.043741000000001,1.0720038,5.9849057,0.15765914,-0.12037488,0.24927188,8.1,-29.7,-29.7
1554103159103,-7.105990400000001,0.97623575,6.0519433,0.13209279,-0.10759171,0.22370553,7.74,-30.06,-29.7
1554103159122,-7.019799000000001,1.1438298,6.023213,0.15659387,-0.096939065,0.221575,7.38,-30.48,-29.7
1554103159142,-6.9144545,1.2012907,6.257845,0.1768339,-0.07030745599999999,0.18109496,7.08,-30.84,-29.7
1554103159163,-7.0245875999999985,1.4694413,6.0280013,0.17150758,-0.051132694000000006,0.17044231,6.96,-31.14,-29.76
1554103159183,-6.95755,1.2348095,6.0758852999999995,0.14594123,-0.05965481,0.15126756,6.84,-31.32,-29.76
1554103159202,-6.8569937,1.1150993999999999,6.0327897,0.10759171,-0.053263225,0.12037488,6.72,-31.56,-29.76
1554103159222,-7.053317999999999,1.5077485000000002,5.94181,0.15765914,-0.054328485999999995,0.11824436,6.6,-31.68,-29.76
1554103159243,-6.95755,1.5699978,5.8221,0.15020229,-0.04474111,0.05006743,6.42,-31.8,-29.64
1554103159263,-6.9862804,1.7423803,5.975329,0.10759171,-0.037284255,0.03089267,6.24,-31.8,-29.58
1554103159283,-6.981492,1.4790181,6.1524997,0.07030745599999999,-0.03195793,0.012783173500000002,6.12,-31.86,-29.46
1554103159303,-7.120356,1.5460558,6.013636,0.094808534,-0.029827405,0.0,6.0,-31.92,-29.34
1554103159322,-6.933608,1.3976152,6.128557700000001,0.19387813,-0.035153727999999995,-0.026631612000000002,5.94,-31.92,-29.28
1554103159343,-6.9719152,1.6370354,5.917868,0.2727077,-0.04580637,-0.05965481,5.82,-31.98,-29.16
1554103159362,-6.9671270000000005,1.6801311,5.917868,0.2609898,-0.06604639400000001,-0.06391586,5.76,-32.04,-29.1
1554103159382,-6.9144545,1.7902644,5.7502737,0.07350325,-0.10013486,-0.07563378,5.7,-32.1,-29.1
1554103159403,-7.28795,2.2212207000000004,7.1006035999999995,-0.07989483,-0.06711166,-0.06924219,5.64,-32.28,-29.1
1554103159423,-7.2065472999999995,1.311424,6.3488245,-0.053263225,-0.041545313,-0.09374327,5.64,-32.58,-29.1
1554103159442,-7.4699089999999995,1.4933833,6.7606273,0.024501082,-0.036218993,-0.07030745599999999,5.7,-32.88,-29.04
1554103159462,-7.0102224,1.5125369,5.802946599999999,0.10972224,-0.03834952,-0.051132694000000006,5.7,-33.18,-28.98
1554103159483,-7.2304892999999995,2.0296845,6.0184245,0.080960095,-0.040480047000000005,-0.07456851,5.7,-33.48,-28.92
1554103159503,-7.144297999999999,1.6178818000000001,5.817312,0.058589544,-0.049002163,-0.056459017,5.7,-33.66,-28.86
1554103159523,-6.780379300000001,2.9634232999999996,6.06152,0.10972224,-0.02130529,-0.11717909,5.76,-33.84,-28.8
1554103159543,-7.465121000000001,1.7998412,5.587468,-0.056459017,-0.002130529,-0.22690132,5.76,-34.02,-28.74
1554103159564,-7.441178999999999,1.0576386,6.320094,-0.36005938,-0.015978966,-0.15765914,5.76,-34.02,-28.68
1554103159582,-6.828263300000001,1.2156559,6.4110737,-0.07456851,-0.040480047000000005,-0.083090626,5.76,-33.96,-28.68
1554103159603,-7.2592196,1.4119805,5.6497173,0.17257284,-0.02130529,-0.12037488,5.76,-33.9,-28.68
1554103159622,-7.0341644,1.7088615000000003,5.587468,0.036218993,-0.004261058,-0.06604639400000001,5.76,-33.78,-28.74
1554103159642,-6.8330517,1.6178818000000001,5.8987145,-0.09267801,0.018109497,-0.05965481,5.76,-33.72,-28.8
1554103159664,-6.631939,1.9003976999999999,5.707178,-0.058589544,0.029827405,-0.084155895,5.82,-33.72,-28.8
1554103159683,-6.4164605,2.0392613,5.467758,-0.046871635999999994,0.051132694000000006,-0.14061491,5.82,-33.72,-28.8
1554103159703,-6.7468604999999995,2.4558525,5.266645,-0.22477080000000002,0.06285059999999999,-0.24607609,5.82,-33.72,-28.86
1554103159724,-6.789956,1.4646529,5.525219,-0.515588,0.056459017,-0.28122982,5.82,-33.72,-28.86
1554103159743,-7.038953,0.8086416000000001,5.9322333,-0.67963874,0.05219796,-0.28442562,5.82,-33.66,-28.92
1554103159763,-7.1873937,0.75118077,5.812523400000001,-0.6466155,0.054328485999999995,-0.25246766,5.88,-33.66,-28.92
1554103159782,-7.5082164,0.7703344,5.6545057,-0.5432849000000001,0.05219796,-0.24714136,6.0,-33.54,-28.92
1554103159802,-7.3071036,0.9475053,5.807735,-0.5592638000000001,0.03834952,-0.24074976,6.06,-33.42,-28.86
1554103159823,-6.9048777,1.0097545,6.2099605,-0.6135923000000001,0.043675844000000005,-0.23861924,6.18,-33.06,-28.92
1554103159842,-6.7516490000000005,0.8230068000000001,6.449381,-0.6402239000000001,0.098004326,-0.3057309,6.36,-32.4,-29.04
1554103159863,-7.019799000000001,1.0049661,5.903503,-0.6956177,0.14274544,-0.37284255,6.48,-31.86,-29.16
1554103159883,-6.7516490000000005,0.76554596,5.9849057,-0.8245146999999999,0.14807177,-0.37284255,6.6,-31.2,-29.34
1554103159904,-6.7277070000000005,0.14784196,6.0184245,-0.91186637,0.18535602,-0.4708469,6.72,-30.48,-29.64
1554103159923,-6.617573299999999,-0.04369418,6.1381345000000005,-0.87032104,0.22050974,-0.5539375,6.84,-29.64,-29.88
1554103159943,-6.4787097000000005,-0.29747957,5.798158,-0.7307714,0.23861924,-0.58696073,6.96,-28.68,-30.18
1554103159963,-6.588842999999999,-0.010175358,5.7263317,-0.59867865,0.24714136,-0.69029135,7.14,-27.66,-30.48
1554103159983,-6.627150500000001,-0.41240123,5.644929,-0.5123922000000001,0.23542345,-0.74248934,7.38,-26.88,-30.72
1554103160003,-6.6654577,-0.9008184000000001,5.348048,-0.49215218,0.24074976,-0.8000136,7.68,-25.98,-30.96
1554103160022,-6.6989765,-1.0205284,5.295376,-0.49002165,0.23542345,-0.85540736,8.04,-25.14,-31.08
1554103160042,-6.9862804,-1.2886791000000002,5.443816,-0.44528055,0.2130529,-0.90973586,8.46,-24.24,-31.2
1554103160063,-6.837839999999999,-1.6238673000000001,5.573103,-0.3717773,0.2034655,-0.9257148000000001,8.82,-23.22,-31.2
1554103160083,-6.9288197,-1.8489223000000001,5.242703,-0.18961707,0.23648871,-0.9821738000000001,9.24,-22.38,-31.2
1554103160102,-7.249642999999999,-1.5903485000000002,5.027225,-0.23116238,0.27590349999999997,-0.97897804,9.66,-21.6,-31.2
1554103160122,-7.565677,-1.6813281999999998,5.2618566,-0.39308259999999995,0.28336033,-0.9683254000000001,10.08,-20.94,-31.14
1554103160143,-7.795521000000001,-2.15538,5.846042,-0.5123922000000001,0.26525086,-0.9555421999999999,10.5,-20.28,-31.14
1554103160163,-7.848192999999999,-2.5288756,5.740697,-0.39414784,0.26844665,-0.8841694999999999,10.92,-19.5,-31.2
1554103160182,-7.771578999999999,-2.48578,5.668871,-0.30786142,0.28655612,-0.8628642,11.34,-18.84,-31.2
1554103160202,-8.441956,-2.356493,5.501277,-0.33768883,0.30892670000000005,-0.86606,11.64,-18.36,-31.2
1554103160223,-8.327033,-2.8209682000000003,5.960963700000001,-0.40266997,0.2695119,-0.8159926,12.0,-17.88,-31.26
1554103160242,-8.135497,-3.3955764999999998,5.994482499999999,-0.29188246,0.27057716,-0.7616641,12.36,-17.4,-31.26
1554103160262,-8.154651,-3.4386723,5.6880245,-0.08522116,0.28016454,-0.6849651,12.72,-16.92,-31.2
1554103160282,-8.101977999999999,-3.1657330000000004,5.3049526,-0.004261058,0.28122982,-0.61572284,13.02,-16.32,-31.2
1554103160302,-8.149861999999999,-3.2375592999999996,5.300164,-0.09267801,0.28442562,-0.5816344,13.32,-15.72,-31.2
1554103160322,-8.087613000000001,-3.4482489999999997,5.544372599999999,-0.20879184,0.257794,-0.5368933000000001,13.56,-15.24,-31.14
1554103160342,-7.8625584,-3.7020345,5.5922565,-0.16298546,0.26312032,-0.47191215,13.92,-14.76,-31.14
1554103160363,-7.972691499999999,-3.7211879999999997,5.3145294000000005,-0.008522116,0.28229508,-0.42717105,14.22,-14.16,-31.08
1554103160384,-7.915230800000001,-3.1705215,4.8979383,0.02130529,0.2695119,-0.37816888,14.52,-13.62,-31.02
1554103160403,-7.8577699999999995,-3.2231941,4.8979383,-0.10013486,0.26205507,-0.36964676,14.82,-13.08,-31.02
1554103160422,-8.039729,-3.5535938999999996,5.348048,-0.18855181,0.2428803,-0.34621096,15.06,-12.6,-30.96
1554103160442,-7.723694999999999,-3.6637269999999997,5.1900306,-0.10652645,0.22477080000000002,-0.30999196,15.36,-12.24,-30.9
1554103160462,-7.905653999999999,-3.615843,5.1900306,0.043675844000000005,0.23222765,-0.30786142,15.6,-11.94,-30.78
1554103160483,-8.049306,-3.6541502,4.8787847,0.14594123,0.23542345,-0.28549087,15.96,-11.58,-30.66
1554103160502,-7.967903,-3.5727474999999997,4.759074,0.10652645,0.24181503,-0.27803403,16.02,-11.52,-30.6
1554103160523,-7.991845,-3.5009214999999996,4.835689,-0.051132694000000006,0.22796659,-0.25033715,16.5,-11.34,-30.48
1554103160542,-8.025364,-3.7211879999999997,4.830900700000001,-0.09267801,0.21518342,-0.22690132,16.68,-11.28,-30.42
1554103160562,-8.207322999999999,-3.8121676,4.9218802,-0.02130529,0.17896444,-0.20879184,16.98,-11.28,-30.36
1554103160583,-8.101977999999999,-3.6349967000000003,4.835689,0.06391586,0.12250541,-0.20240025,17.4,-11.16,-30.3
1554103160602,-8.015787,-3.6254199000000003,4.7207669999999995,0.054328485999999995,0.09161274,-0.2034655,17.64,-11.04,-30.24
1554103160622,-7.852981599999999,-3.6589386,4.821324,-0.007456851,0.05219796,-0.19600865,17.76,-11.04,-30.24
1554103160643,-7.8050976,-3.793014,4.9506106,-0.018109497,0.012783173500000002,-0.19600865,18.0,-10.92,-30.24
1554103160664,-7.714117999999999,-3.8744167999999997,4.926668599999999,0.054328485999999995,-0.02876214,-0.18642128,18.24,-10.74,-30.18
1554103160683,-7.819463000000001,-3.7882257000000004,4.759074,0.07350325,-0.053263225,-0.19387813,18.3,-10.62,-30.18
1554103160703,-7.7093296,-3.8313212,4.9984946,0.037284255,-0.07669904,-0.19281286,18.3,-10.44,-30.12
1554103160723,-7.565677,-4.018069000000001,4.955399,0.035153727999999995,-0.096939065,-0.17576863,18.3,-10.32,-30.12
1554103160743,-7.4986396,-3.9797617999999995,4.960187400000001,0.07030745599999999,-0.111852765,-0.15339808,18.3,-10.26,-30.0
1554103160762,-7.4699089999999995,-3.970185,4.89315,0.10759171,-0.12250541,-0.12996227,18.3,-10.2,-29.94
1554103160784,-7.589619,-3.7978023999999997,5.04159,0.12570119999999999,-0.13209279,-0.13635385,18.36,-10.08,-29.88
1554103160803,-7.575253999999999,-3.769072,4.8165355000000005,0.112918034,-0.14274544,-0.13315806,18.36,-9.96,-29.76
1554103160823,-7.5034279999999995,-3.6828809000000002,4.8452660000000005,0.08735169,-0.16298546,-0.12783173,18.3,-9.9,-29.7
1554103160843,-7.2592196,-3.8456864,4.969764,0.084155895,-0.17257284,-0.13209279,18.3,-9.84,-29.64
1554103160862,-7.201759,-3.840898,5.0798974,0.111852765,-0.17044231,-0.10972224,18.3,-9.78,-29.58
1554103160883,-7.201759,-3.793014,4.9458222,0.13102753,-0.16618125,-0.09374327,18.3,-9.72,-29.52
1554103160902,-7.043741000000001,-3.9270894999999997,5.0320134,0.12144015,-0.15765914,-0.08841695,18.24,-9.66,-29.52
1554103160922,-7.105990400000001,-3.8121676,5.228338,0.10226539,-0.13528858,-0.058589544,18.18,-9.66,-29.52
1554103160944,-7.168239999999999,-3.7786489000000003,5.175665400000001,0.12144015,-0.12250541,-0.03195793,18.06,-9.72,-29.58
1554103160963,-7.105990400000001,-3.6302083,5.228338,0.12996227,-0.11930962,-0.004261058,17.94,-9.72,-29.58
1554103160983,-7.110779300000001,-3.5535938999999996,4.9841294000000005,0.113983296,-0.10546118,0.018109497,17.88,-9.84,-29.58
1554103161002,-7.1490865,-3.4195184999999997,5.0798974,0.096939065,-0.10013486,0.023435817999999997,17.76,-10.02,-29.64
1554103161023,-7.134721300000001,-3.4865562999999993,5.099051,0.056459017,-0.08522116,0.05219796,17.7,-10.2,-29.64
1554103161043,-7.3071036,-3.5631707,5.319318,0.043675844000000005,-0.068176925,0.047936900000000005,17.58,-10.38,-29.7
1554103161062,-7.201759,-3.5488055,5.252279799999999,0.058589544,-0.053263225,0.07030745599999999,17.46,-10.62,-29.82
1554103161082,-7.1586633,-3.5823242999999994,5.3288946,0.046871635999999994,-0.03834952,0.098004326,17.28,-10.86,-29.88
1554103161103,-7.005433999999999,-3.5392287000000002,5.34326,0.03834952,-0.026631612000000002,0.11930962,17.16,-11.1,-29.88
1554103161122,-7.0102224,-3.4290953,5.3528366,0.05006743,-0.010652645,0.14168017,17.04,-11.34,-29.94
1554103161142,-6.9527617,-3.3907879999999997,5.295376,0.068176925,0.0,0.15126756,16.86,-11.46,-30.0
1554103161162,-6.9144545,-3.3333273,5.233126,0.043675844000000005,0.007456851,0.14168017,16.8,-11.58,-30.0
1554103161183,-7.0102224,-3.4338839999999995,5.266645,0.017044231,0.012783173500000002,0.128897,16.74,-11.7,-30.06
1554103161202,-7.0006455999999995,-3.4626143,5.3815669999999995,0.035153727999999995,0.014913702,0.10972224,16.68,-11.76,-30.0
1554103161223,-7.086836999999999,-3.5583823,5.04159,0.039414786,0.023435817999999997,0.08735169,16.68,-11.88,-30.0
1554103161243,-7.067683000000001,-3.5152867,5.142146599999999,0.014913702,0.027696876000000002,0.054328485999999995,16.8,-12.0,-30.0
1554103161263,-6.95755,-3.7738605000000005,5.309741000000001,0.007456851,0.025566347000000003,0.04580637,16.86,-12.12,-30.0
1554103161282,-7.091625,-3.5871127,5.0798974,0.043675844000000005,0.027696876000000002,0.03089267,16.92,-12.24,-30.0
1554103161302,-7.086836999999999,-3.5775358999999995,4.907515,0.037284255,0.03089267,0.020240024,16.98,-12.36,-30.0
1554103161322,-7.192182000000001,-3.5104983,5.065532,0.0,0.03089267,0.0053263223,16.98,-12.48,-30.0
1554103161342,-7.153875,-3.4913447,5.075108999999999,-0.014913702,0.017044231,0.0053263223,16.92,-12.54,-30.0
1554103161363,-7.2304892999999995,-3.3620577000000003,5.060744000000001,-0.002130529,0.015978966,0.002130529,16.8,-12.6,-30.0
1554103161383,-7.302314999999999,-3.3955764999999998,5.127781400000001,0.018109497,0.002130529,0.0010652645,16.74,-12.6,-30.0
1554103161403,-7.383717999999999,-3.4530375,5.300164,-0.0031957934000000003,0.0,-0.0053263223,16.62,-12.66,-30.0
1554103161424,-7.335833999999999,-3.4195184999999997,5.2474914,-0.00958738,0.007456851,-0.017044231,16.56,-12.66,-30.0
1554103161443,-7.398083,-3.4482489999999997,5.3288946,0.012783173500000002,0.02130529,-0.018109497,16.5,-12.66,-30.0
1554103161463,-7.278373200000001,-3.3189620000000004,5.290587400000001,0.03089267,0.029827405,-0.020240024,16.44,-12.66,-30.0
1554103161483,-7.4746976,-3.3716345000000003,5.218761,-0.0031957934000000003,0.04474111,-0.012783173500000002,16.38,-12.66,-30.06
1554103161503,-7.455544000000001,-3.4338839999999995,5.132569999999999,-0.025566347000000003,0.040480047000000005,-0.027696876000000002,16.38,-12.66,-30.06
1554103161522,-7.517792999999999,-3.520075,5.266645,-0.020240024,0.02876214,-0.025566347000000003,16.44,-12.72,-30.06
1554103161543,-7.407660000000001,-3.4578260000000003,5.137358,0.02130529,0.013848438000000001,-0.012783173500000002,16.5,-12.78,-30.12
1554103161563,-7.350199000000001,-3.328539,5.137358,0.054328485999999995,0.012783173500000002,-0.002130529,16.56,-12.78,-30.12
1554103161582,-7.4268136,-3.2279825,5.0559554,0.051132694000000006,0.023435817999999997,0.020240024,16.74,-12.84,-30.12
1554103161602,-7.5034279999999995,-3.2615013,4.9745526,0.027696876000000002,0.027696876000000002,-0.0053263223,16.86,-12.9,-30.18
1554103161623,-7.417236999999999,-3.4003648999999996,5.003283000000001,0.013848438000000001,0.03089267,-0.01917476,16.92,-12.96,-30.18
1554103161643,-7.3166804,-3.3907879999999997,5.060744000000001,0.02130529,0.03089267,-0.035153727999999995,16.98,-12.96,-30.18
1554103161663,-7.273585000000001,-3.342904,4.835689,0.027696876000000002,0.024501082,-0.04580637,17.1,-13.02,-30.18
1554103161683,-7.2640080000000005,-3.3476925000000004,4.8787847,0.013848438000000001,0.022370555,-0.06178534,17.16,-13.02,-30.18
1554103161702,-7.369353,-3.3572693,4.8452660000000005,0.012783173500000002,0.017044231,-0.054328485999999995,17.16,-13.02,-30.18
1554103161724,-7.345411,-3.4626143,4.8787847,0.008522116,0.020240024,-0.054328485999999995,17.16,-13.02,-30.06
1554103161742,-7.273585000000001,-3.4003648999999996,4.7878050000000005,0.024501082,0.01917476,-0.06285059999999999,17.16,-13.08,-30.0
1554103161763,-7.407660000000001,-3.2902317,4.735132,0.024501082,0.015978966,-0.06924219,17.1,-13.08,-29.94
1554103161783,-7.5034279999999995,-3.5535938999999996,4.797382,0.010652645,0.015978966,-0.07030745599999999,17.1,-13.08,-29.82
1554103161803,-7.4507556,-3.4578260000000003,4.8165355000000005,0.00958738,0.023435817999999997,-0.084155895,17.16,-13.08,-29.76
1554103161822,-7.393294999999999,-3.4530375,4.797382,0.020240024,0.033023197000000004,-0.08628642,17.16,-13.08,-29.7
1554103161842,-7.4507556,-3.3859997,4.7734394,0.015978966,0.047936900000000005,-0.098004326,17.1,-13.08,-29.64
1554103161863,-7.4842744,-3.328539,4.5675383,-0.004261058,0.05965481,-0.098004326,17.1,-13.02,-29.64
1554103161882,-7.4124484,-3.2998084999999997,4.830900700000001,-0.015978966,0.06604639400000001,-0.099069595,17.1,-13.02,-29.64
1554103161902,-7.675811,-3.3381157,4.6297874000000006,-0.023435817999999997,0.08628642,-0.084155895,17.16,-12.96,-29.7
1554103161923,-7.752425,-3.2423477000000003,4.490924,-0.047936900000000005,0.09587380000000001,-0.07456851,17.16,-12.96,-29.76
1554103161942,-7.747636999999999,-3.520075,4.4957123,-0.07137272,0.094808534,-0.060720075,17.16,-12.9,-29.82
1554103161963,-7.7093296,-3.5104983,4.6441526,-0.080960095,0.099069595,-0.043675844000000005,17.16,-12.84,-29.88
1554103161983,-7.714117999999999,-3.5631707,4.6537294000000005,-0.07563378,0.10226539,-0.022370555,17.16,-12.84,-29.88
1554103162003,-7.7572136,-3.4195184999999997,4.5675383,-0.07243799,0.10546118,-0.0031957934000000003,17.16,-12.78,-29.88
1554103162022,-7.714117999999999,-3.3955764999999998,4.624999,-0.09267801,0.099069595,0.01917476,17.22,-12.78,-29.88
1554103162042,-7.6710224,-3.6062663,4.8165355000000005,-0.10652645,0.096939065,0.03195793,17.28,-12.72,-29.88
1554103162062,-7.5704656,-3.5248635000000004,4.8404775,-0.06711166,0.10546118,0.035153727999999995,17.34,-12.66,-29.82
1554103162083,-7.6614455999999995,-3.4099417,4.5723267,-0.02876214,0.10972224,0.05006743,17.4,-12.54,-29.82
1554103162103,-7.632714999999999,-3.4626143,4.5675383,-0.054328485999999995,0.11504856,0.05539375,17.52,-12.42,-29.76
1554103162123,-7.589619,-3.4674027,4.5100775,-0.08522116,0.12037488,0.05006743,17.58,-12.36,-29.7
1554103162143,-7.6710224,-3.5392287000000002,4.577115,-0.08735169,0.12250541,0.04580637,17.64,-12.24,-29.7
1554103162163,-7.5704656,-3.5104983,4.5962687,-0.07563378,0.12037488,0.03834952,17.7,-12.12,-29.7
1554103162182,-7.6231384,-3.481768,4.4861355000000005,-0.068176925,0.11611383,0.03089267,17.76,-12.06,-29.7
1554103162204,-7.565677,-3.5488055,4.44304,-0.08628642,0.11717909,0.020240024,17.82,-11.94,-29.7
1554103162223,-7.704541000000001,-3.5679589999999997,4.500500700000001,-0.10546118,0.111852765,0.011717908999999999,17.88,-11.94,-29.7
1554103162245,-7.785944000000001,-3.5152867,4.481347,-0.11611383,0.10333065,-0.008522116,17.94,-11.94,-29.7
1554103162266,-7.8625584,-3.5966894999999997,4.586692,-0.112918034,0.07563378,-0.03089267,18.06,-11.94,-29.64
1554103162283,-7.872135000000001,-3.5966894999999997,4.68246,-0.10333065,0.05006743,-0.022370555,18.12,-11.76,-29.64
1554103162302,-7.824250999999999,-3.5583823,4.5675383,-0.08522116,0.034088463,-0.024501082,18.18,-11.64,-29.58
1554103162322,-7.9248075,-3.4386723,4.601057,-0.083090626,0.014913702,-0.027696876000000002,18.24,-11.4,-29.58
1554103162343,-7.852981599999999,-3.4482489999999997,4.830900700000001,-0.08522116,-0.007456851,-0.02876214,18.36,-11.04,-29.52
1554103162362,-7.8386164,-3.4913447,4.7207669999999995,-0.08841695,-0.014913702,-0.03834952,18.36,-10.8,-29.4
1554103162383,-7.752425,-3.4099417,4.687248,-0.06498113,-0.020240024,-0.01917476,18.36,-10.56,-29.4
1554103162402,-7.881711999999999,-3.3955764999999998,4.8404775,-0.051132694000000006,-0.013848438000000001,0.0010652645,18.42,-10.38,-29.34
1554103162422,-7.896077,-3.2375592999999996,4.744708999999999,-0.056459017,-0.008522116,0.008522116,18.42,-10.2,-29.28
1554103162443,-7.891288799999999,-3.2471360000000002,4.6920366,-0.07030745599999999,-0.007456851,0.0,18.48,-10.2,-29.28
1554103162463,-7.9487495,-3.3381157,4.6920366,-0.07989483,-0.010652645,0.014913702,18.48,-10.26,-29.22
1554103162484,-7.963114699999999,-3.4290953,4.577115,-0.060720075,-0.015978966,0.033023197000000004,18.54,-10.32,-29.16
1554103162503,-7.896077,-3.4578260000000003,4.5100775,-0.046871635999999994,-0.02130529,0.06178534,18.6,-10.32,-29.16
1554103162523,-7.9008656,-3.3333273,4.524442700000001,-0.049002163,-0.026631612000000002,0.06391586,18.66,-10.38,-29.1
1554103162543,-7.852981599999999,-3.2423477000000003,4.5914803,-0.054328485999999995,-0.034088463,0.06924219,18.78,-10.38,-29.04
1554103162562,-7.8577699999999995,-3.2375592999999996,4.538808,-0.06178534,-0.04474111,0.084155895,18.84,-10.32,-29.04
1554103162583,-7.8003089999999995,-3.2710779999999997,4.4957123,-0.049002163,-0.05752428,0.094808534,18.84,-10.32,-29.04
1554103162604,-7.833828,-3.3572693,4.648941000000001,-0.03834952,-0.06711166,0.07776430000000001,18.9,-10.32,-29.04
1554103162623,-7.915230800000001,-3.3237504999999996,4.4286747,-0.04261058,-0.06498113,0.07243799,18.96,-10.32,-29.1
1554103162643,-7.896077,-3.4865562999999993,4.7925935,-0.049002163,-0.07243799,0.06285059999999999,18.96,-10.32,-29.22
1554103162663,-7.680599000000001,-3.5009214999999996,4.6202106,-0.036218993,-0.07882957,0.068176925,18.96,-10.26,-29.34
1554103162683,-7.513005000000001,-3.4913447,4.7255554,0.007456851,-0.06924219,0.06178534,18.9,-10.26,-29.46
1554103162704,-7.6375036,-3.481768,4.56275,0.012783173500000002,-0.04474111,0.080960095,18.78,-10.26,-29.58
1554103162723,-7.642291999999999,-3.3572693,4.524442700000001,-0.018109497,-0.02876214,0.07563378,18.72,-10.26,-29.7
1554103162742,-7.762002000000001,-3.2950199999999996,4.553173,-0.037284255,-0.026631612000000002,0.07563378,18.6,-10.32,-29.76
1554103162762,-7.666233999999999,-3.2184057,4.6680946,-0.037284255,-0.035153727999999995,0.06498113,18.48,-10.32,-29.82
1554103162783,-7.632714999999999,-3.2040405,4.3185415,-0.036218993,-0.036218993,0.05752428,18.36,-10.32,-29.82
1554103162803,-7.6949644,-3.2040405,4.6154222,-0.04580637,-0.036218993,0.05006743,18.24,-10.32,-29.64
1554103162823,-7.699753,-3.1465794999999996,4.4717703,-0.06498113,-0.026631612000000002,0.046871635999999994,18.12,-10.38,-29.52
1554103162843,-7.972691499999999,-3.0747535,4.313753,-0.08628642,-0.022370555,0.04580637,18.06,-10.38,-29.4
1554103162862,-7.97748,-3.0843303,4.4143095,-0.12250541,-0.027696876000000002,0.049002163,18.0,-10.44,-29.28
1554103162882,-7.996633500000001,-3.103484,4.409521,-0.14168017,-0.034088463,0.04580637,17.94,-10.44,-29.16
1554103162903,-7.967903,-3.1561562999999997,4.44304,-0.14168017,-0.040480047000000005,0.07030745599999999,17.94,-10.44,-29.04
1554103162923,-7.972691499999999,-3.1322143,4.385579,-0.14061491,-0.03834952,0.10333065,17.88,-10.44,-28.98
1554103162943,-8.121132000000001,-3.0412347,4.3568487000000005,-0.17363810000000002,-0.02130529,0.12676647,17.88,-10.44,-28.98
1554103162963,-8.130709,-3.0412347,4.538808,-0.20559604,-0.020240024,0.13848437,17.88,-10.38,-29.1
1554103162983,-8.0445175,-3.1609447,4.5675383,-0.2130529,-0.023435817999999997,0.15659387,17.88,-10.38,-29.22
1554103163002,-8.034941,-3.2279825,4.447828299999999,-0.2034655,-0.03195793,0.16618125,17.88,-10.26,-29.34
1554103163023,-7.881711999999999,-3.1465794999999996,4.4717703,-0.19174760000000002,-0.037284255,0.18109496,17.88,-10.2,-29.46
1554103163043,-7.728483,-3.1753099999999996,4.5483847,-0.2034655,-0.029827405,0.18322548,17.88,-10.08,-29.58
1554103163062,-7.8577699999999995,-3.1322143,4.5914803,-0.21731395,-0.017044231,0.19387813,17.88,-10.02,-29.7
1554103163082,-7.9391727,-3.1609447,4.6154222,-0.21624869,-0.024501082,0.19174760000000002,17.82,-9.96,-29.76
1554103163102,-7.819463000000001,-3.151368,4.409521,-0.18748654,-0.04474111,0.18748654,17.82,-9.9,-29.82
1554103163123,-7.690175999999999,-3.127426,4.3999443,-0.19707392,-0.05539375,0.19281286,17.76,-9.78,-29.88
1554103163143,-7.6614455999999995,-3.0891187,4.538808,-0.21092236,-0.056459017,0.18109496,17.76,-9.66,-29.88
1554103163163,-7.795521000000001,-3.0747535,4.553173,-0.21837921,-0.05965481,0.16937704,17.7,-9.54,-29.88
1554103163183,-7.9104424,-3.1657330000000004,4.4238862999999995,-0.2130529,-0.06178534,0.15233281,17.58,-9.12,-29.88
1554103163202,-7.8003089999999995,-3.1130607000000006,4.3329067000000006,-0.22050974,-0.05752428,0.1438107,17.52,-9.0,-29.88
1554103163225,-7.8050976,-3.1226375,4.490924,-0.23329292,-0.047936900000000005,0.12996227,17.46,-8.52,-29.88
1554103163243,-7.872135000000001,-3.141791,4.5196543,-0.21411815,-0.04580637,0.11824436,17.4,-8.34,-29.94
1554103163263,-7.9008656,-3.1465794999999996,4.5340195,-0.19920446,-0.053263225,0.10972224,17.34,-7.98,-29.94
1554103163282,-7.795521000000001,-3.103484,4.4526167,-0.20453078,-0.053263225,0.10439592,17.28,-7.56,-29.94
1554103163303,-7.8290396,-3.1800982999999996,4.490924,-0.21731395,-0.05006743,0.08841695,17.28,-7.32,-29.94
1554103163323,-7.8865004,-3.2471360000000002,4.586692,-0.21731395,-0.049002163,0.07456851,17.28,-7.2,-29.94
1554103163343,-7.943961,-3.1896752999999998,4.4717703,-0.19707392,-0.05752428,0.058589544,17.22,-7.14,-29.88
1554103163363,-8.015787,-3.2998084999999997,4.586692,-0.16937704,-0.05965481,0.054328485999999995,17.22,-7.08,-29.88
1554103163383,-8.0924015,-3.3812113,4.6202106,-0.15339808,-0.06924219,0.05219796,17.16,-7.08,-29.88
1554103163402,-7.991845,-3.342904,4.7159786,-0.13635385,-0.08522116,0.05965481,17.16,-7.02,-29.94
1554103163422,-8.006210000000001,-3.3812113,4.7782279999999995,-0.10546118,-0.098004326,0.068176925,17.16,-7.02,-30.0
1554103163442,-8.178593,-3.2758665000000002,4.7542860000000005,-0.06178534,-0.11611383,0.06924219,17.16,-6.96,-30.06
1554103163463,-8.255207,-3.1609447,4.759074,-0.02876214,-0.1438107,0.07776430000000001,17.1,-6.9,-30.18
1554103163482,-8.24563,-3.0843303,4.7399206,-0.011717908999999999,-0.19068234,0.07989483,16.98,-6.78,-30.24
1554103163503,-8.173803999999999,-3.0699651,4.859630999999999,0.029827405,-0.22796659,0.08948222,16.92,-6.72,-30.3
1554103163523,-8.121132000000001,-3.0891187,4.941033999999999,0.082025364,-0.23648871,0.094808534,16.74,-6.6,-30.36
1554103163543,-8.034941,-2.926313,4.9506106,0.113983296,-0.22690132,0.094808534,16.62,-6.48,-30.42
1554103163563,-7.967903,-2.9933507,4.912303400000001,0.11504856,-0.2034655,0.10865697,16.5,-6.42,-30.42
1554103163583,-7.991845,-2.9885623,4.7303440000000005,0.11717909,-0.18535602,0.10972224,16.32,-6.36,-30.36
1554103163603,-7.833828,-3.0508115,4.8452660000000005,0.15020229,-0.16405073,0.11717909,16.14,-6.3,-30.36
1554103163622,-7.824250999999999,-2.8736405,4.6297874000000006,0.165116,-0.14807177,0.128897,16.02,-6.24,-30.36
1554103163642,-7.953538000000001,-2.8640637000000004,4.821324,0.17150758,-0.15233281,0.14274544,15.9,-6.3,-30.36
1554103163663,-7.8290396,-2.7635074,4.7399206,0.16618125,-0.16405073,0.15233281,15.78,-6.36,-30.42
1554103163683,-7.920019,-2.5911248,4.8404775,0.18429075,-0.16405073,0.15233281,15.72,-6.6,-30.42
1554103163703,-7.8146744,-2.6198552000000004,4.8404775,0.18109496,-0.16618125,0.17044231,15.66,-6.84,-30.54
1554103163723,-7.8290396,-2.6437972000000003,5.003283000000001,0.17470337,-0.16298546,0.19068234,15.54,-7.14,-30.6
1554103163742,-7.776367,-2.4139538,4.9218802,0.17470337,-0.15233281,0.19707392,15.42,-7.44,-30.72
1554103163763,-7.632714999999999,-2.3660697999999996,4.883573,0.17150758,-0.14274544,0.1949434,15.36,-7.74,-30.78
1554103163783,-7.7667904000000005,-2.2894554,4.7782279999999995,0.15552860000000002,-0.12996227,0.18855181,15.24,-7.98,-30.9
1554103163803,-7.5944076,-2.2511482000000003,4.89315,0.1438107,-0.112918034,0.18216023,15.12,-8.28,-30.96
1554103163823,-7.642291999999999,-2.2990322,4.9937059999999995,0.12783173,-0.08948222,0.17470337,14.88,-8.52,-31.02
1554103163843,-7.5800424,-2.1170728,5.01286,0.099069595,-0.054328485999999995,0.16405073,14.64,-8.7,-31.08
1554103163863,-7.61835,-2.107496,4.8069587,0.10226539,-0.024501082,0.16298546,14.46,-8.88,-31.14
1554103163883,-7.513005000000001,-2.0452468,5.04159,0.09161274,-0.008522116,0.16298546,14.28,-9.06,-31.14
1554103163903,-7.6135616,-2.1505916000000003,4.8787847,0.06924219,0.0053263223,0.16192019,14.1,-9.18,-31.14
1554103163923,-7.6470804,-2.0117279999999997,4.744708999999999,0.06604639400000001,0.02130529,0.16405073,13.92,-9.36,-31.14
1554103163943,-7.728483,-1.9494787,4.8739963,0.047936900000000005,0.033023197000000004,0.15552860000000002,13.74,-9.48,-31.2
1554103163962,-7.7428484,-1.8537107,4.7878050000000005,0.018109497,0.029827405,0.14061491,13.62,-9.66,-31.2
1554103163982,-7.690175999999999,-1.9111716,4.835689,-0.004261058,0.023435817999999997,0.13635385,13.56,-9.78,-31.2
1554103164003,-7.738060000000001,-2.0260932,4.931457,-0.0010652645,0.022370555,0.12037488,13.56,-9.84,-31.26
1554103164022,-7.762002000000001,-1.762731,4.926668599999999,-0.022370555,0.02130529,0.10652645,13.56,-9.96,-31.26
1554103164043,-7.852981599999999,-1.9159599999999999,5.0463786,-0.03834952,0.020240024,0.094808534,13.56,-9.96,-31.32
1554103164062,-7.809886,-1.8393455,4.859630999999999,-0.041545313,0.013848438000000001,0.09161274,13.56,-10.14,-31.32
1554103164083,-7.8865004,-1.7962499,4.936245400000001,-0.06178534,-0.002130529,0.07030745599999999,13.5,-10.38,-31.32
1554103164103,-7.738060000000001,-1.8872293999999998,5.142146599999999,-0.06178534,-0.004261058,0.056459017,13.5,-10.56,-31.32
1554103164122,-7.704541000000001,-1.9686323000000001,5.075108999999999,-0.04580637,0.010652645,0.040480047000000005,13.5,-10.74,-31.32
1554103164143,-7.8146744,-1.8058267,5.237914599999999,-0.034088463,0.018109497,0.012783173500000002,13.5,-10.98,-31.32
1554103164162,-7.9008656,-1.8489223000000001,4.9937059999999995,-0.025566347000000003,0.018109497,0.008522116,13.44,-11.1,-31.32
1554103164183,-7.991845,-1.9446903000000002,5.237914599999999,-0.043675844000000005,0.004261058,-0.0010652645,13.44,-11.28,-31.26
1554103164203,-7.905653999999999,-2.0165164,5.209184,-0.039414786,-0.010652645,-0.012783173500000002,13.44,-11.34,-31.26
1554103164223,-7.7907324000000004,-1.9015948,5.228338,0.014913702,-0.017044231,-0.020240024,13.44,-11.28,-31.26
1554103164243,-7.852981599999999,-1.7962499,4.955399,0.033023197000000004,-0.014913702,-0.033023197000000004,13.44,-11.22,-31.2
1554103164263,-7.967903,-1.7340006000000001,5.156512,-0.0010652645,-0.03195793,-0.05539375,13.44,-11.16,-31.2
1554103164283,-7.8865004,-1.7244238,5.0224366,-0.02130529,-0.068176925,-0.080960095,13.44,-11.04,-31.14
1554103164304,-7.8865004,-1.7866731,5.180454,0.017044231,-0.10546118,-0.12144015,13.44,-10.92,-31.14
1554103164322,-7.819463000000001,-1.5951369,5.156512,0.083090626,-0.12463594,-0.14807177,13.44,-10.92,-31.08
1554103164343,-7.6614455999999995,-1.5520413,5.501277,0.15446335,-0.12996227,-0.18216023,13.38,-10.86,-31.08
1554103164362,-7.723694999999999,-1.6382325,5.357625,0.15233281,-0.10439592,-0.20240025,13.32,-10.86,-31.08
1554103164382,-7.97748,-1.6669630000000002,5.510854,0.15446335,-0.09054748,-0.23329292,13.26,-10.86,-31.08
1554103164403,-7.9391727,-1.8489223000000001,5.597045,0.15446335,-0.084155895,-0.27590349999999997,13.2,-10.92,-31.08
1554103164423,-7.8625584,-1.7962499,5.5826797,0.18855181,-0.08522116,-0.31105720000000003,13.14,-10.92,-31.08
1554103164443,-7.8625584,-2.0213048,5.558737799999999,0.25033715,-0.099069595,-0.31212249999999997,13.08,-10.98,-31.14
1554103164463,-7.8290396,-2.0979192,5.644929,0.27483824,-0.10013486,-0.2972088,13.08,-11.04,-31.14
1554103164482,-8.049306,-2.1984756,5.855619,0.314253,-0.099069595,-0.27696875,13.14,-11.04,-31.14
1554103164503,-7.833828,-2.2703017999999995,5.597045,0.36432046,-0.10013486,-0.22690132,13.2,-11.1,-31.2
1554103164522,-7.675811,-2.3373394,5.515642,0.35792887,-0.07989483,-0.19600865,13.2,-11.28,-31.2
1554103164542,-7.776367,-2.2894554,5.175665400000001,0.36112466,-0.07243799,-0.15765914,13.26,-11.4,-31.26
1554103164563,-7.785944000000001,-2.2080526000000003,5.482123400000001,0.33555830000000003,-0.06711166,-0.14487597,13.32,-11.64,-31.32
1554103164583,-7.6949644,-2.3038206000000003,5.3288946,0.2790993,-0.040480047000000005,-0.10013486,13.32,-12.0,-31.32
1554103164602,-7.6470804,-2.260725,5.252279799999999,0.25992453,-0.012783173500000002,-0.060720075,13.32,-12.36,-31.38
1554103164622,-7.6518690000000005,-2.1841104,5.515642,0.2545982,0.011717908999999999,-0.034088463,13.26,-12.78,-31.38
1554103164643,-7.627927000000001,-2.131438,5.252279799999999,0.24394555,0.035153727999999995,0.0010652645,13.2,-13.14,-31.38
1554103164663,-7.6231384,-2.083554,5.276222,0.26525086,0.054328485999999995,-0.018109497,13.14,-13.5,-31.38
1554103164683,-7.6853875999999985,-1.8010383,5.415086,0.25992453,0.06924219,-0.007456851,13.14,-13.8,-31.38
1554103164703,-7.690175999999999,-1.9111716,5.285799,0.18642128,0.08841695,0.010652645,13.14,-14.22,-31.38
1554103164723,-7.891288799999999,-2.0404584,5.357625,0.09374327,0.113983296,0.007456851,13.14,-14.64,-31.26
1554103164742,-8.130709,-2.2559366,5.357625,0.007456851,0.13315806,0.035153727999999995,13.2,-14.7,-31.26
1554103164762,-8.0924015,-2.3756466,5.525219,-0.03195793,0.14168017,0.09374327,13.26,-14.88,-31.26
1554103164782,-8.164227499999999,-2.15538,5.769428,0.020240024,0.15339808,0.16085494,13.32,-15.0,-31.2
1554103164802,-8.207322999999999,-2.0787656,5.659294,0.041545313,0.1768339,0.25140239999999997,13.38,-15.12,-31.2
1554103164822,-8.508992999999998,-1.834557,5.443816,0.02876214,0.18961707,0.31851408,13.44,-15.36,-31.2
1554103164846,-8.264783999999999,-2.059612,5.606621700000001,0.0,0.18748654,0.406931,13.44,-15.54,-31.14
1554103164863,-8.422802,-1.738789,5.482123400000001,0.02876214,0.20772657,0.4644553,13.44,-15.66,-31.14
1554103164884,-8.379706,-1.5855601000000001,5.357625,0.06711166,0.19707392,0.5251754,13.44,-15.78,-31.08
1554103164902,-8.465898,-1.5328877,5.501277,0.12037488,0.16937704,0.58909124,13.44,-15.9,-31.08
1554103164923,-8.485051,-1.3126211,5.319318,0.15659387,0.12357068,0.65726817,13.5,-16.02,-31.08
1554103164942,-8.379706,-1.0444705,5.175665400000001,0.15233281,0.08628642,0.70627034,13.56,-16.2,-31.08
1554103164963,-8.39886,-0.9056068000000002,5.1086279999999995,0.17576863,0.05219796,0.7030744999999999,13.56,-16.32,-31.08
1554103164983,-8.255207,-0.86729956,5.036802,0.26418558,-0.027696876000000002,0.74781567,13.56,-16.5,-31.14
1554103165003,-8.303091,-0.56563014,5.0798974,0.38136467,-0.080960095,0.75633776,13.56,-16.74,-31.14
1554103165024,-8.078036,-0.26874915,5.027225,0.45912898,-0.12570119999999999,0.7574029999999999,13.5,-17.16,-31.14
1554103165043,-8.039729,-0.05327099,5.0463786,0.46339005,-0.15659387,0.76059884,13.32,-17.64,-31.2
1554103165063,-7.843405000000001,0.090381116,5.175665400000001,0.45060685,-0.18748654,0.7584683000000001,13.14,-18.18,-31.2
1554103165083,-7.5944076,0.29149407,5.218761,0.46978164,-0.19920446,0.7584683000000001,13.08,-18.48,-31.26
1554103165103,-7.6135616,0.7799111999999999,5.1038394,0.49960902,-0.17896444,0.7350325,12.78,-19.5,-31.26
1554103165122,-7.7189064,1.0528502,5.146935,0.45912898,-0.17044231,0.6988135,12.54,-20.28,-31.2
1554103165143,-7.7428484,1.0049661,5.228338,0.4079963,-0.16618125,0.6412892,12.24,-20.94,-31.2
1554103165162,-7.4124484,1.2539631000000002,5.482123400000001,0.45380265,-0.17150758,0.60507023,12.0,-21.6,-31.2
1554103165182,-7.4842744,1.3928268,5.175665400000001,0.56459016,-0.17150758,0.5550028,11.76,-22.14,-31.2
1554103165203,-7.489063000000001,1.7567455,5.099051,0.58696073,-0.17257284,0.5070659000000001,11.58,-22.68,-31.14
1554103165222,-7.565677,1.7711107,5.0080714,0.52624065,-0.18216023,0.39734364,11.34,-23.22,-31.14
1554103165242,-7.3645644,1.9339164,5.295376,0.49428272,-0.19174760000000002,0.30999196,11.04,-23.88,-31.08
1554103165262,-7.3789296,1.9482816000000003,5.348048,0.5251754,-0.18642128,0.2545982,10.74,-24.6,-31.02
1554103165283,-7.465121000000001,1.7950528000000001,5.252279799999999,0.6466155,-0.165116,0.15126756,10.38,-25.26,-30.96
1554103165303,-7.6853875999999985,1.881244,5.0511669999999995,0.65513766,-0.17576863,0.12144015,10.08,-25.86,-30.78
1554103165323,-7.5082164,2.0248961,5.0559554,0.54648066,-0.19281286,0.113983296,9.84,-26.52,-30.6
1554103165343,-7.383717999999999,1.9434932,5.156512,0.38349520000000004,-0.19707392,0.10013486,9.54,-27.24,-30.36
1554103165362,-7.345411,1.881244,5.209184,0.27057716,-0.18642128,0.099069595,9.3,-28.02,-30.06
1554103165383,-7.3885064,1.8046296000000002,5.415086,0.32384038,-0.16831179,0.094808534,9.0,-28.74,-29.76
1554103165403,-7.422025,2.0392613,5.276222,0.41438788,-0.13954964,0.07030745599999999,8.76,-29.34,-29.46
1554103165423,-7.311891999999999,2.2786815,5.357625,0.46658584,-0.12570119999999999,0.05752428,8.52,-29.94,-29.22
1554103165442,-7.383717999999999,2.6090812999999997,5.0559554,0.45699844,-0.094808534,0.024501082,8.28,-30.6,-28.98
1554103165462,-7.455544000000001,2.5516205000000003,5.146935,0.38349520000000004,-0.07350325,-0.010652645,8.04,-31.26,-28.8
1554103165483,-7.374141000000001,2.3265655,5.113416,0.27377295,-0.049002163,-0.024501082,7.74,-31.86,-28.68
1554103165503,-7.642291999999999,2.2882583,5.146935,0.25672874,-0.029827405,-0.0063915867,7.5,-32.28,-28.62
1554103165523,-7.603985000000001,2.3744495,5.127781400000001,0.23968449999999997,-0.03089267,0.012783173500000002,7.26,-32.7,-28.56
1554103165543,-7.3645644,2.5516205000000003,5.34326,0.23329292,-0.034088463,0.013848438000000001,7.08,-33.06,-28.56
1554103165562,-7.086836999999999,2.6952724,5.6976013,0.30466563,-0.013848438000000001,-0.02130529,6.9,-33.36,-28.5
1554103165583,-7.374141000000001,2.6042929,5.027225,0.29507825,-0.0031957934000000003,-0.037284255,6.78,-33.72,-28.5
1554103165602,-7.4986396,2.6426,4.830900700000001,0.14168017,-0.027696876000000002,-0.02130529,6.78,-33.84,-28.44
1554103165622,-7.6375036,2.3983915000000002,5.0846860000000005,0.04474111,-0.05965481,-0.022370555,6.66,-34.26,-28.38
1554103165642,-7.690175999999999,3.4039562000000005,5.8651957999999995,0.03834952,-0.037284255,-0.026631612000000002,6.66,-34.38,-28.38
1554103165662,-7.2592196,2.2643162999999995,5.659294,-0.04580637,-0.037284255,-0.026631612000000002,6.6,-34.86,-28.2
1554103165683,-7.3406224,2.40318,5.3528366,0.004261058,-0.05219796,-0.03195793,6.6,-35.16,-28.08
1554103165702,-7.345411,2.7910407000000004,5.204396,0.13954964,-0.060720075,-0.0010652645,6.54,-35.34,-27.96
1554103165722,-7.2209125,3.0256724,5.2474914,0.09374327,-0.05752428,-0.04580637,6.54,-35.76,-27.9
1554103165742,-7.144297999999999,3.1453824,5.34326,0.03089267,-0.06285059999999999,-0.112918034,6.48,-36.06,-27.84
1554103165762,-7.144297999999999,2.690484,5.213972599999999,-0.09161274,-0.041545313,-0.18748654,6.48,-36.36,-27.66
1554103165783,-7.2975270000000005,2.417545,5.099051,-0.13315806,-0.023435817999999997,-0.2130529,6.48,-36.48,-27.66
1554103165803,-7.5704656,2.2307975,5.228338,-0.1107875,-0.020240024,-0.21731395,6.48,-36.78,-27.54
1554103165822,-7.4603324,2.0057424999999998,5.137358,-0.06711166,-0.01917476,-0.19281286,6.42,-36.84,-27.54
1554103165842,-7.2113357,2.202067,4.9841294000000005,-0.11824436,-0.0031957934000000003,-0.14594123,6.42,-36.96,-27.6
1554103165863,-7.2831616,2.417545,5.242703,-0.16405073,0.024501082,-0.128897,6.36,-36.9,-27.6
1554103165882,-7.2831616,2.4797945,5.3528366,-0.18002969,0.041545313,-0.13954964,6.36,-36.78,-27.6
1554103165903,-7.369353,2.594716,5.3384714,-0.25672874,0.056459017,-0.17470337,6.36,-36.6,-27.72
1554103165923,-7.3549875999999985,2.5372553,5.132569999999999,-0.3653857,0.051132694000000006,-0.18961707,6.42,-36.36,-27.78
1554103165945,-7.5082164,2.5851393,5.3815669999999995,-0.40906155,0.04261058,-0.24607609,6.48,-36.12,-27.84
1554103165963,-7.493850999999999,2.3361422999999997,5.453393,-0.5581986,0.041545313,-0.2790993,6.54,-35.7,-27.9
1554103165983,-7.728483,2.0536265,5.453393,-0.6359629,0.058589544,-0.3334278,6.66,-35.28,-27.96
1554103166003,-7.963114699999999,1.5077485000000002,5.7790045999999995,-0.6103965,0.04580637,-0.30146983,6.78,-34.74,-28.02
1554103166022,-7.675811,1.4790181,5.506065400000001,-0.55606806,0.041545313,-0.24820662,6.84,-34.2,-28.08
1554103166043,-7.589619,1.7806876,5.419874,-0.6540724,0.05752428,-0.25353295,6.96,-33.78,-28.14
1554103166063,-7.7572136,1.6514006,5.443816,-0.793622,0.056459017,-0.24501082,7.02,-33.24,-28.2
1554103166082,-7.632714999999999,1.2635399,5.8221,-0.8181231,0.07137272,-0.24501082,7.08,-32.64,-28.38
1554103166103,-7.441178999999999,0.789488,5.8268886,-0.7307714,0.11824436,-0.28336033,7.2,-31.98,-28.62
1554103166124,-7.5608889999999995,0.7990648,5.668871,-0.6018744,0.1438107,-0.25672874,7.32,-31.32,-28.86
1554103166143,-7.738060000000001,1.2204443,5.443816,-0.5230448000000001,0.12676647,-0.23435818,7.5,-30.54,-29.1
1554103166162,-7.627927000000001,0.82779527,5.2810106,-0.5070659000000001,0.10226539,-0.27590349999999997,7.74,-29.82,-29.34
1554103166183,-7.575253999999999,0.55006784,5.525219,-0.58269966,0.10546118,-0.30892670000000005,7.98,-29.22,-29.52
1554103166203,-7.666233999999999,0.46387658,5.395932,-0.5901565,0.1107875,-0.27483824,8.28,-28.62,-29.76
1554103166223,-7.445967,0.37289690000000003,5.4342394,-0.60933125,0.113983296,-0.23755397,8.52,-27.96,-29.94
1554103166242,-7.575253999999999,0.5117606,5.257068,-0.62317973,0.13209279,-0.2727077,8.76,-27.24,-30.0
1554103166262,-7.7811556,0.97144735,5.0463786,-0.63702816,0.13315806,-0.3270362,9.0,-26.58,-30.06
1554103166283,-7.445967,0.52133745,5.185242,-0.7765778,0.14913702,-0.41545314,9.12,-25.92,-30.06
1554103166302,-7.268796400000001,0.08559271,5.7215432999999996,-0.87777793,0.221575,-0.5028047999999999,9.24,-25.26,-30.12
1554103166323,-7.359775999999999,-0.22565351,5.3624134,-0.81066626,0.30786142,-0.5230448000000001,9.3,-24.54,-30.24
1554103166342,-7.1155677,-0.27832595,4.988918,-0.70627034,0.3685815,-0.57311225,9.48,-23.7,-30.42
1554103166363,-6.8569937,-0.14425065,4.8165355000000005,-0.69987875,0.40586576,-0.6625945,9.66,-22.74,-30.66
1554103166383,-6.9144545,-0.19213470000000002,5.0559554,-0.7595335999999999,0.41119209999999995,-0.72011876,9.78,-21.72,-30.84
1554103166403,-7.1490865,-0.5943606,5.209184,-0.65513766,0.43249738,-0.7552725,9.96,-20.64,-31.02
1554103166423,-7.551311999999999,-1.0013748,4.634576,-0.47617322,0.4889564,-0.8319715,10.2,-19.62,-31.2
1554103166443,-8.039729,-0.97743285,4.56275,-0.37816888,0.50387007,-0.9044095,10.44,-18.54,-31.32
1554103166462,-7.7811556,-1.073201,4.634576,-0.34621096,0.45593318,-0.94275904,10.86,-17.58,-31.5
1554103166482,-7.762002000000001,-1.4371196000000002,4.6297874000000006,-0.36005938,0.42397526,-0.9715212,11.4,-16.68,-31.56
1554103166503,-8.111555000000001,-1.9829974999999997,4.835689,-0.32384038,0.4016047,-0.9768475000000001,11.88,-15.78,-31.56
1554103166522,-8.39886,-2.1601684,4.835689,-0.24501082,0.34727620000000003,-0.94275904,12.3,-14.94,-31.5
1554103166542,-8.465898,-2.5192987999999996,4.9027267,-0.17150758,0.2790993,-0.8863,12.78,-14.04,-31.5
1554103166563,-8.37013,-2.8018146,4.8787847,-0.07456851,0.17789917,-0.84368944,13.5,-12.84,-31.44
1554103166583,-8.360553,-3.0460230999999998,4.6776714,0.015978966,0.10546118,-0.81066626,13.98,-12.12,-31.44
1554103166603,-8.394072,-3.0125043,4.6633059999999995,0.010652645,0.07030745599999999,-0.77125144,14.28,-11.82,-31.44
1554103166622,-8.317456,-3.093907,4.6441526,-0.036218993,0.025566347000000003,-0.721184,14.64,-11.22,-31.32
1554103166643,-8.226477000000001,-3.2279825,4.941033999999999,-0.03834952,-0.007456851,-0.69029135,15.0,-10.44,-31.08
1554103166662,-8.2169,-3.4099417,4.830900700000001,0.09161274,-0.034088463,-0.6423545,15.24,-10.02,-30.96
1554103166683,-8.283937,-3.1609447,4.9027267,0.20133498,-0.03834952,-0.60293967,15.48,-9.66,-30.78
1554103166703,-8.590396,-3.0172927000000005,4.5340195,0.27164245,-0.013848438000000001,-0.5699165,15.72,-9.42,-30.6
1554103166723,-8.408437,-2.959832,4.3999443,0.17789917,-0.00958738,-0.5400891,16.02,-9.3,-30.42
1554103166742,-8.346188,-2.8927941,4.337695,0.0063915867,-0.007456851,-0.49108690000000005,16.2,-9.12,-30.24
1554103166762,-8.159439,-3.1848867000000003,4.706402,-0.15446335,-0.002130529,-0.4250405,16.32,-8.94,-30.12
1554103166783,-8.461109,-3.3524809999999996,4.6393642,-0.21624869,0.01917476,-0.41119209999999995,16.44,-8.76,-30.06
1554103166803,-8.556877,-3.5248635000000004,4.7159786,-0.15765914,0.035153727999999995,-0.37071204,16.56,-8.64,-30.06
1554103166823,-8.413225,-3.3333273,4.7925935,-0.058589544,0.037284255,-0.35579833,16.68,-8.46,-30.12
1554103166843,-8.48984,-3.2184057,4.433463,0.010652645,0.043675844000000005,-0.30892670000000005,16.86,-8.22,-30.12
1554103166863,-8.408437,-3.2231941,4.7159786,-0.05219796,0.04261058,-0.26525086,16.92,-7.98,-30.12
1554103166882,-8.537724,-3.328539,4.7734394,-0.128897,0.034088463,-0.23968449999999997,16.98,-7.74,-30.12
1554103166904,-8.437167,-3.6014779000000003,4.830900700000001,-0.17896444,0.015978966,-0.20026971,17.04,-7.5,-30.12
1554103166922,-8.403648,-3.6876693,4.936245400000001,-0.08735169,0.00958738,-0.16937704,17.04,-7.2,-30.12
1554103166942,-8.231264999999999,-3.6733038000000002,4.797382,-0.002130529,0.0063915867,-0.12676647,17.1,-6.96,-30.12
1554103166963,-8.111555000000001,-3.6780925000000004,4.7925935,0.033023197000000004,0.013848438000000001,-0.08948222,17.16,-6.66,-30.06
1554103166983,-8.049306,-3.520075,4.6920366,0.02876214,0.018109497,-0.07030745599999999,17.16,-6.48,-30.06
1554103167002,-8.173803999999999,-3.7259765,4.44304,-0.00958738,0.011717908999999999,-0.037284255,17.22,-6.36,-30.06
1554103167023,-8.006210000000001,-3.639785,4.7303440000000005,0.002130529,0.0010652645,-0.02876214,17.22,-6.3,-30.0
1554103167043,-7.843405000000001,-3.6206315000000004,4.553173,0.05219796,-0.002130529,-0.010652645,17.22,-6.3,-30.0
1554103167062,-7.809886,-3.5248635000000004,4.4765587,0.07563378,-0.013848438000000001,0.0010652645,17.22,-6.24,-30.06
1554103167083,-7.848192999999999,-3.5392287000000002,4.4717703,0.07350325,-0.033023197000000004,0.014913702,17.22,-6.24,-30.06
1554103167103,-7.8003089999999995,-3.5057099999999997,4.2850223,0.07137272,-0.04580637,0.00958738,17.28,-6.24,-30.06
1554103167122,-7.723694999999999,-3.4961330000000004,4.466982,0.054328485999999995,-0.043675844000000005,0.013848438000000001,17.34,-6.18,-30.06
1554103167142,-7.833828,-3.520075,4.4765587,0.06178534,-0.037284255,0.0010652645,17.4,-6.18,-30.12
1554103167163,-7.7907324000000004,-3.4578260000000003,4.3329067000000006,0.07882957,-0.04261058,-0.007456851,17.4,-6.18,-30.12
1554103167182,-7.819463000000001,-3.4865562999999993,4.4143095,0.07776430000000001,-0.058589544,-0.007456851,17.4,-6.18,-30.12
1554103167202,-7.6949644,-3.5248635000000004,4.447828299999999,0.07350325,-0.05752428,-0.011717908999999999,17.34,-6.12,-30.18
1554103167223,-7.5800424,-3.481768,4.208408,0.07030745599999999,-0.05219796,-0.017044231,17.34,-6.18,-30.18
1554103167243,-7.5800424,-3.6589386,4.44304,0.043675844000000005,-0.029827405,-0.02876214,17.28,-6.18,-30.18
1554103167264,-7.5944076,-3.5535938999999996,4.3760023,0.018109497,-0.007456851,-0.046871635999999994,17.22,-6.24,-30.24
1554103167283,-7.666233999999999,-3.6302083,4.4238862999999995,0.0031957934000000003,0.0053263223,-0.04580637,17.16,-6.3,-30.3
1554103167303,-7.6375036,-3.5966894999999997,4.553173,0.014913702,0.011717908999999999,-0.04474111,17.1,-6.42,-30.3
1554103167322,-7.6231384,-3.4865562999999993,4.5483847,0.03195793,0.007456851,-0.041545313,16.98,-6.54,-30.3
1554103167343,-7.7907324000000004,-3.5009214999999996,4.6393642,0.03089267,0.0053263223,-0.036218993,16.98,-6.72,-30.36
1554103167363,-7.666233999999999,-3.4338839999999995,4.5914803,0.020240024,-0.0031957934000000003,-0.03089267,16.98,-6.84,-30.36
1554103167385,-7.6614455999999995,-3.3716345000000003,4.5100775,0.00958738,-0.00958738,-0.025566347000000003,16.92,-6.96,-30.36
1554103167404,-7.6949644,-3.4099417,4.5196543,0.0031957934000000003,-0.0053263223,-0.03089267,16.8,-7.02,-30.36
1554103167422,-7.6231384,-3.2471360000000002,4.5723267,0.023435817999999997,-0.0031957934000000003,-0.033023197000000004,16.74,-7.14,-30.36
1554103167444,-7.704541000000001,-3.208829,4.6393642,0.012783173500000002,-0.0010652645,-0.039414786,16.62,-7.14,-30.3
1554103167462,-7.728483,-3.1657330000000004,4.577115,-0.013848438000000001,-0.0010652645,-0.05006743,16.62,-7.14,-30.3
1554103167482,-7.7811556,-3.1753099999999996,4.44304,-0.04261058,0.004261058,-0.049002163,16.62,-7.14,-30.3
1554103167503,-7.9343843,-3.2806550000000003,4.6058455,-0.080960095,0.0031957934000000003,-0.05006743,16.62,-7.14,-30.3
1554103167523,-8.039729,-3.4865562999999993,4.735132,-0.08522116,-0.012783173500000002,-0.07137272,16.62,-7.08,-30.12
1554103167543,-8.078036,-3.7499184999999997,4.6058455,-0.082025364,-0.013848438000000001,-0.07669904,16.68,-7.08,-30.06
1554103167562,-7.762002000000001,-3.6206315000000004,4.854842700000001,-0.029827405,-0.026631612000000002,-0.07243799,16.68,-7.02,-30.0
1554103167582,-7.608772999999999,-3.5248635000000004,4.68246,0.027696876000000002,-0.02130529,-0.04474111,16.74,-7.02,-29.94
1554103167603,-7.5944076,-3.5488055,4.500500700000001,0.07669904,-0.010652645,-0.0031957934000000003,16.74,-6.96,-29.88
1554103167623,-7.6518690000000005,-3.4721910000000005,4.3760023,0.08522116,0.00958738,0.015978966,16.74,-6.96,-29.88
1554103167642,-7.5608889999999995,-3.4578260000000003,4.337695,0.05006743,0.02130529,0.008522116,16.8,-6.96,-29.82
1554103167662,-7.6375036,-3.4195184999999997,4.3281183,0.002130529,0.024501082,-0.00958738,16.86,-6.96,-29.88
1554103167683,-7.6231384,-3.3859997,4.347272,-0.025566347000000003,0.027696876000000002,-0.02130529,16.92,-6.96,-29.94
1554103167703,-7.699753,-3.3764230000000004,4.3281183,-0.04580637,0.026631612000000002,-0.018109497,16.98,-7.02,-29.94
1554103167722,-7.675811,-3.639785,4.385579,-0.06604639400000001,0.020240024,-0.014913702,17.04,-7.02,-30.0
1554103167743,-7.7811556,-3.5152867,4.4621935,-0.056459017,0.008522116,-0.007456851,17.1,-7.08,-30.06
1554103167763,-7.776367,-3.3572693,4.7016134,-0.041545313,-0.007456851,0.007456851,17.16,-7.08,-30.06
1554103167782,-7.9104424,-3.2423477000000003,4.648941000000001,0.007456851,-0.02130529,0.033023197000000004,17.22,-7.14,-30.06
1554103167803,-7.872135000000001,-3.2375592999999996,4.5100775,0.025566347000000003,-0.029827405,0.040480047000000005,17.22,-7.14,-30.06
1554103167822,-8.006210000000001,-3.2950199999999996,4.4957123,0.02876214,-0.027696876000000002,0.027696876000000002,17.22,-7.14,-30.06
1554103167843,-7.9343843,-3.2136172999999997,4.4765587,-0.01917476,-0.027696876000000002,0.004261058,17.16,-7.14,-30.06
1554103167863,-7.920019,-3.3812113,4.5723267,-0.014913702,-0.014913702,0.011717908999999999,17.16,-7.14,-30.12
1554103167882,-7.7428484,-3.4961330000000004,4.634576,0.0010652645,-0.0010652645,0.037284255,17.16,-7.08,-30.18
1554103167902,-7.819463000000001,-3.3764230000000004,4.538808,0.020240024,0.008522116,0.034088463,17.1,-7.08,-30.18
1554103167923,-7.848192999999999,-3.4386723,4.466982,0.015978966,0.018109497,0.04474111,17.1,-7.08,-30.24
1554103167943,-7.8290396,-3.4195184999999997,4.3760023,0.0031957934000000003,0.015978966,0.029827405,17.04,-7.14,-30.3
1554103167962,-7.7572136,-3.3045970000000002,4.5819035,0.008522116,0.007456851,0.008522116,16.98,-7.14,-30.3
1554103167983,-7.6231384,-3.2998084999999997,4.5675383,0.011717908999999999,0.0010652645,0.0010652645,16.98,-7.2,-30.36
1554103168003,-7.728483,-3.3859997,4.648941000000001,0.0053263223,-0.0053263223,0.002130529,16.98,-7.26,-30.36
1554103168022,-7.599196000000001,-3.3189620000000004,4.6680946,0.020240024,-0.014913702,-0.0063915867,16.92,-7.32,-30.36
1554103168042,-7.632714999999999,-3.328539,4.6058455,0.036218993,-0.018109497,-0.011717908999999999,16.92,-7.38,-30.36
1554103168063,-7.4699089999999995,-3.2902317,4.447828299999999,0.06498113,-0.018109497,-0.03089267,16.92,-7.44,-30.3
1554103168083,-7.398083,-3.2615013,4.2658687,0.06178534,-0.0053263223,-0.06498113,16.92,-7.44,-30.24
1554103168103,-7.398083,-3.1896752999999998,4.280234,0.015978966,0.0063915867,-0.082025364,16.92,-7.5,-30.24
1554103168123,-7.445967,-3.2854433,4.4717703,-0.0053263223,0.017044231,-0.09267801,16.92,-7.5,-30.18
1554103168142,-7.728483,-3.1705215,4.4957123,-0.004261058,0.011717908999999999,-0.08522116,16.86,-7.5,-30.18
1554103168162,-7.881711999999999,-3.1657330000000004,4.490924,-0.013848438000000001,-0.008522116,-0.082025364,16.86,-7.5,-30.12
1554103168183,-8.063671000000001,-3.2423477000000003,4.500500700000001,-0.056459017,-0.02130529,-0.10226539,16.92,-7.44,-30.12
1554103168202,-8.063671000000001,-3.4434607,4.601057,-0.084155895,-0.027696876000000002,-0.12463594,16.92,-7.44,-30.12
1554103168222,-7.9487495,-3.5823242999999994,4.8739963,-0.07776430000000001,-0.02876214,-0.13315806,17.04,-7.5,-30.18
1554103168243,-7.7332716,-3.5727474999999997,4.931457,-0.025566347000000003,-0.01917476,-0.098004326,17.1,-7.5,-30.18
1554103168263,-7.6949644,-3.3476925000000004,4.5196543,0.046871635999999994,0.0053263223,-0.022370555,17.16,-7.5,-30.18
1554103168283,-7.6614455999999995,-3.2998084999999997,4.5100775,0.07350325,0.02876214,0.004261058,17.16,-7.5,-30.18
1554103168303,-7.632714999999999,-3.1896752999999998,4.3185415,0.06391586,0.05752428,0.008522116,17.16,-7.56,-30.18
1554103168322,-7.7428484,-3.1322143,4.031237,0.03089267,0.06711166,-0.025566347000000003,17.16,-7.5,-30.18
1554103168343,-7.6853875999999985,-3.1992521000000003,4.11264,-0.03195793,0.06391586,-0.06498113,17.1,-7.5,-30.24
1554103168363,-7.738060000000001,-3.3572693,4.103063,-0.07989483,0.058589544,-0.10652645,16.92,-7.5,-30.18
1554103168383,-7.7572136,-3.4434607,4.385579,-0.11824436,0.04474111,-0.1107875,16.86,-7.44,-30.18
1554103168402,-7.833828,-3.5440169999999998,4.4621935,-0.12676647,0.036218993,-0.111852765,16.8,-7.44,-30.18
1554103168422,-7.7811556,-3.4338839999999995,4.648941000000001,-0.1107875,0.03089267,-0.10652645,16.8,-7.44,-30.18
1554103168442,-7.776367,-3.4721910000000005,4.6776714,-0.07243799,0.03195793,-0.08522116,16.8,-7.38,-30.18
1554103168463,-7.953538000000001,-3.3764230000000004,4.7878050000000005,-0.034088463,0.04474111,-0.09587380000000001,16.8,-7.32,-30.18
1554103168483,-7.819463000000001,-3.4195184999999997,4.6297874000000006,-0.05965481,0.056459017,-0.10226539,16.86,-7.32,-30.18
1554103168504,-7.881711999999999,-3.5535938999999996,4.6680946,-0.06285059999999999,0.068176925,-0.10759171,16.92,-7.26,-30.24
1554103168523,-7.967903,-3.7403417,4.960187400000001,-0.033023197000000004,0.07350325,-0.09161274,16.92,-7.2,-30.24
1554103168542,-8.001422,-3.6685154000000004,4.3999443,0.013848438000000001,0.07243799,-0.083090626,16.98,-7.2,-30.3
1554103168563,-7.996633500000001,-3.6828809000000002,4.687248,0.013848438000000001,0.06498113,-0.07350325,16.98,-7.08,-30.3
1554103168582,-7.795521000000001,-3.3955764999999998,4.4286747,0.029827405,0.049002163,-0.060720075,16.98,-6.96,-30.36
1554103168602,-7.8386164,-3.4674027,4.4238862999999995,0.046871635999999994,0.036218993,-0.040480047000000005,17.04,-6.9,-30.36
1554103168622,-7.7428484,-3.3764230000000004,4.3807906999999995,0.056459017,0.018109497,-0.033023197000000004,17.04,-6.78,-30.3
1554103168643,-7.785944000000001,-3.3620577000000003,4.313753,0.058589544,0.00958738,-0.029827405,17.04,-6.72,-30.24
1554103168663,-7.8386164,-3.2806550000000003,4.1557355000000005,0.022370555,-0.007456851,-0.027696876000000002,17.04,-6.6,-30.12
1554103168682,-8.006210000000001,-3.3524809999999996,4.1461587,-0.013848438000000001,-0.027696876000000002,-0.029827405,17.1,-6.48,-30.06
1554103168702,-8.0445175,-3.520075,4.3999443,-0.053263225,-0.039414786,-0.03834952,17.1,-6.42,-29.94
1554103168722,-8.087613000000001,-3.6780925000000004,4.4286747,-0.05219796,-0.04474111,-0.06498113,17.16,-6.36,-29.82
1554103168743,-7.929596000000001,-3.6637269999999997,4.6537294000000005,-0.0063915867,-0.043675844000000005,-0.083090626,17.16,-6.36,-29.76
1554103168763,-7.690175999999999,-3.615843,4.538808,0.03834952,-0.033023197000000004,-0.060720075,17.22,-6.3,-29.64
1554103168783,-7.699753,-3.4674027,4.3999443,0.06924219,-0.004261058,-0.024501082,17.22,-6.3,-29.58
1554103168803,-7.7093296,-3.4913447,4.170100700000001,0.09374327,0.022370555,0.0053263223,17.28,-6.24,-29.58
1554103168823,-7.6710224,-3.3907879999999997,4.0599675,0.094808534,0.04261058,-0.012783173500000002,17.34,-6.24,-29.64
1554103168843,-7.465121000000001,-3.4338839999999995,3.7870286,0.05965481,0.060720075,-0.020240024,17.4,-6.18,-29.64
1554103168862,-7.7332716,-3.5535938999999996,3.9785647000000006,0.017044231,0.07243799,-0.051132694000000006,17.46,-6.18,-29.64
1554103168883,-7.8146744,-3.4913447,3.9929300000000003,-0.039414786,0.05752428,-0.083090626,17.46,-6.18,-29.64
1554103168902,-7.8290396,-3.4626143,4.256292,-0.09161274,0.026631612000000002,-0.08948222,17.52,-6.12,-29.64
1554103168923,-7.8290396,-3.5966894999999997,4.1844660000000005,-0.09161274,-0.007456851,-0.084155895,17.58,-6.12,-29.7
1554103168943,-7.833828,-3.6541502,4.2898107,-0.07776430000000001,-0.029827405,-0.06391586,17.64,-6.12,-29.76
1554103168964,-7.8865004,-3.5440169999999998,4.447828299999999,-0.06285059999999999,-0.05219796,-0.06178534,17.7,-6.12,-29.76
1554103168982,-7.9487495,-3.5871127,4.3903675,-0.058589544,-0.06178534,-0.051132694000000006,17.7,-6.06,-29.82
1554103169003,-7.9104424,-3.5966894999999997,4.5148660000000005,-0.037284255,-0.054328485999999995,-0.049002163,17.76,-6.06,-29.82
1554103169022,-7.881711999999999,-3.4961330000000004,4.538808,0.002130529,-0.03834952,-0.04261058,17.76,-6.0,-29.88
1554103169043,-7.9391727,-3.5488055,4.4526167,0.026631612000000002,-0.013848438000000001,-0.040480047000000005,17.82,-5.94,-29.94
1554103169063,-8.020576,-3.5488055,4.3760023,0.013848438000000001,0.007456851,-0.047936900000000005,17.82,-5.94,-29.88
1554103169083,-7.991845,-3.5631707,4.280234,0.0063915867,0.01917476,-0.046871635999999994,17.88,-5.94,-29.88
1554103169102,-7.9008656,-3.6206315000000004,4.2610803,0.025566347000000003,0.01917476,-0.041545313,17.88,-5.88,-29.82
1554103169122,-7.738060000000001,-3.5823242999999994,4.174889,0.05006743,0.020240024,-0.037284255,17.88,-5.88,-29.82
1554103169143,-7.7093296,-3.6110547,4.160524,0.025566347000000003,0.01917476,-0.03834952,17.88,-5.94,-29.76
1554103169163,-7.714117999999999,-3.8265328000000003,4.208408,-0.0010652645,0.025566347000000003,-0.046871635999999994,17.88,-5.94,-29.7
1554103169183,-7.699753,-3.7499184999999997,4.194042700000001,0.015978966,0.024501082,-0.05006743,17.88,-6.0,-29.7
1554103169203,-7.7093296,-3.7594953,4.2850223,0.022370555,0.020240024,-0.04580637,17.88,-6.0,-29.7
1554103169223,-7.680599000000001,-3.6589386,4.447828299999999,0.024501082,0.01917476,-0.04474111,17.88,-6.0,-29.7
1554103169243,-7.699753,-3.6062663,4.2419267,0.017044231,0.023435817999999997,-0.043675844000000005,17.88,-6.0,-29.7
1554103169263,-7.738060000000001,-3.6014779000000003,4.4621935,0.015978966,0.02876214,-0.047936900000000005,17.88,-6.06,-29.64
1554103169283,-7.723694999999999,-3.5535938999999996,4.385579,0.03089267,0.036218993,-0.051132694000000006,17.94,-6.06,-29.7
1554103169302,-7.642291999999999,-3.5535938999999996,4.208408,0.047936900000000005,0.04580637,-0.056459017,17.94,-6.06,-29.7
1554103169323,-7.7811556,-3.5488055,4.3903675,0.046871635999999994,0.06711166,-0.06604639400000001,17.94,-6.12,-29.7
1554103169343,-7.7572136,-3.4626143,4.2945995,0.026631612000000002,0.08735169,-0.06711166,17.94,-6.12,-29.7
1554103169363,-7.7811556,-3.4626143,4.246715,0.023435817999999997,0.09587380000000001,-0.06711166,17.94,-6.12,-29.7
1554103169382,-7.905653999999999,-3.5392287000000002,4.1892543,0.043675844000000005,0.10226539,-0.068176925,17.94,-6.18,-29.7
1554103169402,-7.833828,-3.4865562999999993,4.1317935,0.035153727999999995,0.10439592,-0.068176925,17.94,-6.18,-29.7
1554103169422,-7.905653999999999,-3.5296519,4.079121,-0.002130529,0.10546118,-0.06391586,17.94,-6.24,-29.7
1554103169443,-7.9008656,-3.5679589999999997,4.0216603,-0.012783173500000002,0.099069595,-0.068176925,18.0,-6.24,-29.7
1554103169463,-7.8673470000000005,-3.6014779000000003,3.8827964999999995,-0.013848438000000001,0.08735169,-0.06604639400000001,18.06,-6.24,-29.7
1554103169483,-7.728483,-3.6206315000000004,3.9929300000000003,-0.023435817999999997,0.07776430000000001,-0.07243799,18.18,-6.24,-29.7
1554103169502,-7.5944076,-3.6445735,4.055179,-0.039414786,0.07030745599999999,-0.080960095,18.24,-6.3,-29.7
1554103169522,-7.565677,-3.6685154000000004,3.9067385000000003,-0.036218993,0.06178534,-0.08948222,18.36,-6.3,-29.7
1554103169543,-7.4124484,-3.6349967000000003,4.0025067000000005,-0.039414786,0.051132694000000006,-0.10439592,18.42,-6.24,-29.76
1554103169562,-7.369353,-3.6110547,3.8349125,-0.07776430000000001,0.05006743,-0.1470065,18.54,-6.24,-29.76
1554103169583,-7.455544000000001,-3.7786489000000003,4.064756,-0.11930962,0.06178534,-0.17150758,18.66,-6.18,-29.82
1554103169602,-7.608772999999999,-3.7355532999999994,3.9115269999999995,-0.14274544,0.07669904,-0.20559604,18.78,-6.18,-29.82
1554103169623,-7.704541000000001,-3.769072,3.9067385000000003,-0.14274544,0.094808534,-0.24927188,18.78,-6.18,-29.82
1554103169643,-7.771578999999999,-3.9270894999999997,3.9594111000000005,-0.15765914,0.10439592,-0.28016454,18.84,-6.12,-29.82
1554103169662,-8.015787,-3.9653966,4.23235,-0.165116,0.10972224,-0.29827404,18.9,-6.0,-29.82
1554103169682,-7.9822683,-4.1282024,4.313753,-0.15446335,0.11611383,-0.29188246,18.96,-5.82,-29.82
1554103169703,-8.030152000000001,-4.1138372,4.2036195,-0.113983296,0.12037488,-0.27377295,19.02,-5.64,-29.82
1554103169722,-8.145074000000001,-4.147355999999999,4.3329067000000006,-0.07137272,0.13528858,-0.25353295,19.08,-5.34,-29.76
1554103169742,-8.111555000000001,-4.0755300000000005,4.1557355000000005,-0.05752428,0.13422333,-0.23009712,19.08,-5.04,-29.7
1554103169764,-8.298303,-4.1665095999999995,4.0599675,-0.04474111,0.13741912,-0.2066613,19.08,-4.74,-29.7
1554103169783,-8.1402855,-4.032433999999999,4.2131963,-0.011717908999999999,0.13422333,-0.18535602,19.14,-4.5,-29.64
1554103169803,-8.111555000000001,-4.0563765,3.8732197,0.011717908999999999,0.12676647,-0.16937704,19.14,-4.26,-29.52
1554103169823,-8.178593,-4.094683600000001,3.9881415000000002,-0.014913702,0.111852765,-0.14487597,19.2,-4.02,-29.46
1554103169843,-8.073248,-4.180875,4.079121,-0.010652645,0.09161274,-0.12570119999999999,19.38,-3.9,-29.34
1554103169863,-8.010999,-4.185663,3.8540661,0.018109497,0.07243799,-0.09054748,19.5,-3.78,-29.22
1554103169883,-7.953538000000001,-4.31495,3.7774517999999997,0.056459017,0.05219796,-0.07669904,19.62,-3.66,-29.1
1554103169902,-7.881711999999999,-4.1904516,3.5571851999999997,0.05539375,0.02876214,-0.07563378,19.8,-3.66,-29.04
1554103169922,-7.872135000000001,-4.180875,3.7966053,0.037284255,0.008522116,-0.07563378,19.92,-3.6,-28.92
1554103169943,-7.972691499999999,-4.156933,3.7152026,0.049002163,0.0010652645,-0.09161274,19.98,-3.48,-28.8
1554103169963,-7.762002000000001,-4.19524,3.6625300000000003,0.039414786,-0.0053263223,-0.08522116,20.1,-3.36,-28.74
1554103169983,-7.714117999999999,-4.348469000000001,3.7247794,0.034088463,0.002130529,-0.09374327,20.16,-3.18,-28.62
1554103170003,-7.7332716,-4.324527,3.7535098,0.039414786,0.0010652645,-0.08948222,20.1,-3.06,-28.56
1554103170023,-7.8050976,-4.233547,3.5763388,0.043675844000000005,0.002130529,-0.098004326,20.1,-2.94,-28.56
1554103170042,-7.5800424,-4.3101616,3.6002807999999997,0.043675844000000005,0.007456851,-0.09267801,20.1,-2.88,-28.5
1554103170063,-7.603985000000001,-4.2862196,3.6721067,0.04580637,0.015978966,-0.098004326,20.1,-2.82,-28.44
1554103170082,-7.6853875999999985,-4.1186256000000006,3.7630866000000003,0.043675844000000005,0.026631612000000002,-0.11930962,20.1,-2.76,-28.44
1554103170102,-7.6949644,-4.089895200000001,3.6816837999999996,0.020240024,0.036218993,-0.13528858,20.1,-2.82,-28.38
1554103170122,-7.771578999999999,-4.209605000000001,3.7966053,0.011717908999999999,0.039414786,-0.1438107,20.1,-2.88,-28.44
1554103170143,-7.881711999999999,-4.300585,3.9115269999999995,0.022370555,0.043675844000000005,-0.13954964,20.1,-3.0,-28.44
1554103170162,-7.8865004,-4.252701,3.9019501000000005,0.03089267,0.04474111,-0.11930962,20.16,-3.12,-28.44
1554103170183,-7.915230800000001,-4.2957964,4.0120835,0.03089267,0.047936900000000005,-0.098004326,20.16,-3.24,-28.5
1554103170202,-8.030152000000001,-4.243124,4.016872,0.04474111,0.05219796,-0.083090626,20.16,-3.36,-28.56
1554103170223,-8.0445175,-4.2622776,4.0264487,0.07563378,0.051132694000000006,-0.047936900000000005,20.16,-3.42,-28.56
1554103170242,-7.991845,-4.243124,4.064756,0.08522116,0.043675844000000005,-0.036218993,20.16,-3.48,-28.62
1554103170263,-8.030152000000001,-4.1904516,4.0934862999999995,0.08735169,0.035153727999999995,-0.002130529,20.16,-3.42,-28.62
1554103170283,-8.101977999999999,-4.156933,3.9833531000000004,0.11824436,0.027696876000000002,0.020240024,20.16,-3.42,-28.68
1554103170302,-8.135497,-4.022857,4.0360255,0.12676647,0.023435817999999997,0.037284255,20.16,-3.36,-28.68
1554103170323,-8.1402855,-4.109049,4.1653123,0.13954964,0.018109497,0.056459017,20.22,-3.3,-28.68
1554103170342,-8.202535000000001,-4.0372224,4.0360255,0.16192019,0.007456851,0.07137272,20.22,-3.24,-28.68
1554103170362,-8.250419,-3.8313212,4.0934862999999995,0.21198763,-0.015978966,0.09587380000000001,20.28,-3.24,-28.68
1554103170383,-8.413225,-3.6924577000000003,4.409521,0.23648871,-0.04474111,0.14807177,20.28,-3.36,-28.62
1554103170402,-8.523358,-3.6924577000000003,4.371214,0.2609898,-0.08841695,0.18748654,20.34,-3.42,-28.56
1554103170422,-8.686164,-3.6302083,4.553173,0.28975195,-0.11930962,0.21092236,20.34,-3.6,-28.5
1554103170443,-8.887277000000001,-3.615843,4.5148660000000005,0.33555830000000003,-0.1768339,0.25885928,20.34,-3.84,-28.44
1554103170463,-8.863335000000001,-3.7738605000000005,4.6058455,0.34301516,-0.20879184,0.28868666,20.34,-4.08,-28.38
1554103170482,-8.628703,-3.8600516000000002,4.821324,0.38456047,-0.26418558,0.36005938,20.34,-4.44,-28.32
1554103170502,-8.566454,-3.9749733999999997,4.3807906999999995,0.43036684,-0.2695119,0.406931,20.34,-4.92,-28.32
1554103170523,-8.317456,-3.7307648999999996,4.5723267,0.45273739999999996,-0.2790993,0.46232477,20.28,-5.58,-28.32
1554103170543,-8.303091,-3.7116113,4.5819035,0.45273739999999996,-0.28016454,0.5336975,20.28,-6.12,-28.32
1554103170563,-8.288725999999999,-3.6110547,4.395156,0.45273739999999996,-0.27483824,0.5795039000000001,20.1,-6.66,-28.5
1554103170582,-8.312667999999999,-3.5009214999999996,4.419098,0.4825648,-0.27696875,0.6306366,19.98,-7.14,-28.62
1554103170602,-8.226477000000001,-3.3859997,4.5148660000000005,0.5091964,-0.28229508,0.67218184,19.86,-7.68,-28.8
1554103170622,-8.317456,-3.1800982999999996,4.4382515,0.5091964,-0.2727077,0.7137272,19.68,-8.34,-28.92
1554103170643,-8.403648,-2.9071592999999996,4.538808,0.5091964,-0.25672874,0.75420725,19.5,-9.18,-29.04
1554103170663,-8.408437,-2.8161798,4.553173,0.4889564,-0.23968449999999997,0.7957525,19.26,-10.14,-29.16
1554103170683,-8.585608,-2.6007016,4.586692,0.47297743,-0.23222765,0.8543421,18.96,-10.92,-29.22
1554103170703,-8.499416,-2.5623944,4.44304,0.46552056,-0.22264028,0.9139969000000001,18.6,-11.82,-29.28
1554103170723,-8.441956,-2.203264,4.68246,0.47936899999999993,-0.22050974,0.95660746,18.3,-12.72,-29.28
1554103170742,-8.441956,-1.9111716,4.5675383,0.48469532,-0.23861924,1.015197,18.0,-13.74,-29.28
1554103170762,-8.389283,-1.7866731,4.672883000000001,0.48363006,-0.24820662,1.0641992,17.76,-14.82,-29.28
1554103170783,-8.384495,-1.6717514,4.6154222,0.47936899999999993,-0.24714136,1.0695255,17.46,-15.9,-29.34
1554103170802,-8.240842,-1.2982559,4.6776714,0.43675843,-0.26738137,1.1142666,16.92,-17.22,-29.4
1554103170822,-7.9822683,-1.0684125,4.735132,0.43995422,-0.28336033,1.1377025,16.44,-18.18,-29.46
1554103170842,-7.809886,-0.83856916,4.7207669999999995,0.43888897,-0.28229508,1.1462245,16.26,-18.72,-29.46
1554103170862,-7.5608889999999995,-0.57999533,4.830900700000001,0.4261058,-0.28229508,1.139833,15.78,-19.92,-29.52
1554103170882,-7.465121000000001,-0.15382746,4.9506106,0.42290998,-0.2727077,1.128115,14.94,-21.6,-29.58
1554103170903,-7.335833999999999,0.23403321,5.0224366,0.43356264,-0.2609898,1.0950918,14.34,-22.62,-29.64
1554103170922,-7.268796400000001,0.47824179999999994,5.2474914,0.45380265,-0.25033715,1.0620687,14.04,-23.04,-29.64
1554103170943,-7.1395097000000005,0.87089086,5.295376,0.43356264,-0.22477080000000002,1.010936,13.02,-24.3,-29.64
1554103170962,-7.0006455999999995,0.9139864999999999,5.4390279999999995,0.41971418,-0.20772657,0.9821738000000001,12.66,-24.66,-29.64
1554103170983,-7.134721300000001,0.98102415,5.1613,0.43675843,-0.16618125,0.9331716999999998,11.76,-25.44,-29.64
1554103171010,-7.2065472999999995,1.4215573000000001,5.7215432999999996,0.48043427,-0.14913702,0.86499476,11.28,-25.86,-29.7
1554103171023,-7.249642999999999,1.6418238,5.290587400000001,0.55287224,-0.13209279,0.8319715,10.86,-26.28,-29.7
1554103171043,-7.28795,1.9243397,5.7263317,0.54648066,-0.101200126,0.74781567,10.38,-26.82,-29.7
1554103171062,-7.5321584,2.2260091,5.6640825,0.5123922000000001,-0.08628642,0.6785734,9.96,-27.54,-29.64
1554103171082,-7.632714999999999,2.144606,5.233126,0.46552056,-0.07669904,0.65513766,9.6,-28.32,-29.64
1554103171102,-7.656657000000001,2.297835,5.395932,0.4165184,-0.09587380000000001,0.59122175,9.3,-29.1,-29.64
1554103171123,-7.302314999999999,2.6234465,5.635351999999999,0.41971418,-0.12996227,0.5209143,9.06,-29.94,-29.58
1554103171142,-7.3549875999999985,2.4893713,5.113416,0.45060685,-0.12570119999999999,0.45060685,8.82,-30.78,-29.58
1554103171162,-7.1969705,2.5995044999999997,5.4964886,0.41758367,-0.12996227,0.36112466,8.52,-31.5,-29.52
1554103171183,-6.9623384,2.795829,5.089474,0.3717773,-0.14168017,0.29507825,8.28,-32.16,-29.52
1554103171202,-6.8186865,2.6426,5.089474,0.30360037,-0.1438107,0.21731395,8.04,-32.76,-29.4
1554103171222,-6.5744777,2.5851393,5.228338,0.23329292,-0.14487597,0.16618125,7.8,-33.12,-29.22
1554103171243,-6.8809357,2.4941597,5.802946599999999,0.27483824,-0.15552860000000002,0.094808534,7.44,-33.6,-29.04
1554103171262,-5.985504,2.8149827000000003,5.2618566,0.34088463,-0.14274544,0.054328485999999995,7.14,-34.02,-28.92
1554103171283,-6.435614,2.5516205000000003,5.127781400000001,0.27590349999999997,-0.082025364,-0.06391586,6.84,-34.38,-28.74
1554103171302,-7.422025,2.4941597,5.3145294000000005,0.31851408,-0.058589544,-0.111852765,6.54,-34.68,-28.56
1554103171322,-7.513005000000001,2.795829,4.8739963,0.35579833,-0.054328485999999995,-0.07882957,6.36,-34.98,-28.32
1554103171343,-7.3549875999999985,2.5037365,5.34326,0.27057716,-0.06498113,-0.12250541,6.12,-35.34,-28.14
1554103171363,-7.110779300000001,2.9059622000000003,5.506065400000001,0.3685815,-0.06924219,-0.101200126,5.94,-35.7,-28.02
1554103171383,-7.015011,2.9873652,5.146935,0.42077947,-0.05752428,-0.11717909,5.76,-36.0,-27.96
1554103171403,-7.0581064,2.747945,5.2618566,0.41864893,-0.043675844000000005,-0.15552860000000002,5.64,-36.3,-27.9
1554103171423,-7.3549875999999985,2.9682117000000003,5.659294,0.45167214,-0.06391586,-0.12783173,5.52,-36.66,-27.9
1554103171442,-7.168239999999999,3.3800142,5.606621700000001,0.5028047999999999,-0.05219796,-0.099069595,5.4,-37.02,-27.84
1554103171463,-7.2304892999999995,3.566762,5.467758,0.54648066,-0.027696876000000002,-0.13635385,5.34,-37.38,-27.78
1554103171483,-7.5034279999999995,3.7008373999999997,5.1038394,0.47936899999999993,0.015978966,-0.17363810000000002,5.28,-37.8,-27.72
1554103171503,-7.2975270000000005,3.317765,4.9745526,0.06285059999999999,-0.012783173500000002,-0.128897,5.22,-38.16,-27.6
1554103171523,-6.991069,3.3033997999999998,4.89315,0.027696876000000002,-0.083090626,-0.1107875,5.16,-38.52,-27.48
1554103171542,-7.1826053,3.6050692000000004,4.735132,0.082025364,-0.12250541,-0.1470065,5.22,-38.88,-27.36
1554103171562,-7.125144500000001,3.5140896,5.175665400000001,-0.10865697,-0.13635385,-0.14274544,5.22,-39.12,-27.12
1554103171583,-7.091625,3.1597476,5.333683000000001,-0.22583607,-0.12144015,-0.17257284,5.22,-39.36,-26.88
1554103171603,-7.240066000000001,2.7096379,5.319318,-0.24714136,-0.096939065,-0.13635385,5.28,-39.54,-26.58
1554103171623,-7.345411,2.6952724,5.506065400000001,-0.24714136,-0.07882957,-0.07882957,5.28,-39.72,-26.34
1554103171643,-7.4746976,3.0544027999999996,5.812523400000001,-0.051132694000000006,-0.08628642,-0.040480047000000005,5.28,-39.84,-26.16
1554103171662,-7.335833999999999,3.4278982000000005,5.333683000000001,0.11930962,-0.098004326,-0.04474111,5.28,-39.9,-26.04
1554103171684,-7.4028716,3.5380316,5.027225,0.004261058,-0.07882957,-0.043675844000000005,5.28,-39.9,-25.98
1554103171702,-7.359775999999999,3.245939,5.802946599999999,-0.15339808,-0.06498113,-0.02876214,5.22,-39.84,-25.92
1554103171723,-7.311891999999999,2.9251158,5.7646394,-0.17150758,-0.04580637,-0.00958738,5.22,-39.84,-25.92
1554103171743,-7.3885064,2.8293478,5.5922565,-0.13315806,-0.033023197000000004,0.012783173500000002,5.22,-39.78,-25.98
1554103171762,-7.1969705,3.0017304,5.597045,-0.014913702,-0.046871635999999994,0.027696876000000002,5.16,-39.72,-26.04
1554103171782,-7.105990400000001,3.2650926,5.4390279999999995,-0.0010652645,-0.056459017,0.004261058,5.1,-39.66,-26.16
1554103171803,-6.9383965,3.1118636000000004,5.472546599999999,-0.053263225,-0.049002163,0.037284255,5.1,-39.66,-26.34
1554103171822,-7.053317999999999,3.4326867999999995,5.4342394,-0.01917476,-0.03195793,-0.011717908999999999,5.1,-39.66,-26.46
1554103171843,-7.101202000000001,3.3464954,5.4102974,-0.0063915867,-0.040480047000000005,-0.05006743,5.1,-39.66,-26.52
1554103171862,-7.0964136,3.2794578000000003,5.395932,-0.025566347000000003,-0.03834952,-0.06924219,5.04,-39.72,-26.64
1554103171883,-7.28795,3.2172085999999998,5.817312,-0.096939065,-0.023435817999999997,-0.07776430000000001,5.04,-39.72,-26.7
1554103171903,-7.177817,2.9059622000000003,5.357625,-0.08841695,-0.004261058,-0.07350325,5.04,-39.72,-26.82
1554103171923,-7.61835,3.0160956000000003,5.0559554,-0.033023197000000004,-0.004261058,-0.082025364,5.04,-39.78,-26.88
1554103171943,-7.522581599999999,3.0735563999999997,5.831677,-0.06498113,-0.020240024,-0.026631612000000002,5.04,-39.78,-26.94
1554103171963,-7.067683000000001,3.0304607999999997,5.807735,-0.06498113,0.0010652645,0.024501082,5.1,-39.78,-26.88
1554103171982,-6.6750345,3.6050692000000004,5.9849057,0.051132694000000006,0.04580637,0.0,5.1,-39.78,-26.88
1554103172002,-5.923255,4.337695,5.831677,0.294013,0.10972224,-0.13741912,5.1,-39.72,-26.88
1554103172022,-6.6893997,3.9306807999999998,4.830900700000001,0.30892670000000005,0.16192019,-0.39095205,5.1,-39.66,-26.94
1554103172043,-7.168239999999999,3.8061821000000005,5.142146599999999,-0.022370555,0.13741912,-0.46978164,5.16,-39.6,-26.94
1554103172063,-7.2352777,2.8006175,5.0511669999999995,-0.30466563,0.10652645,-0.49321744,5.16,-39.54,-26.94
1554103172083,-7.881711999999999,1.7950528000000001,4.9458222,-0.3653857,0.07563378,-0.45699844,5.22,-39.48,-26.94
1554103172102,-7.5273699999999995,1.7375918999999997,4.969764,-0.27377295,0.05219796,-0.30892670000000005,5.28,-39.42,-27.0
