TimeStamp,Ax,Ay,Az,Gx,Gy,Gz,Mx,My,Mz
1554117686437,-7.492654300000001,-4.871003,3.4620156000000004,-0.48363006,-0.24714136,0.37071204,32.46,-8.58,9.12
1554117686457,-7.317278999999999,-4.7884035,3.4476504,-0.44101948,-0.20453078,0.34301516,32.46,-9.12,8.82
1554117686478,-7.1879919999999995,-4.7818192999999996,3.4093432,-0.41438788,-0.17576863,0.30999196,32.52,-9.6,8.58
1554117686498,-7.253833,-4.679467,3.4727894999999998,-0.3898868,-0.15659387,0.26418558,32.52,-10.02,8.34
1554117686519,-7.231087700000001,-4.6501384,3.5236663999999998,-0.39095205,-0.13741912,0.26844665,32.58,-10.56,8.1
1554117686538,-7.071872999999999,-4.7614684,3.4392707000000002,-0.34408042,-0.10546118,0.25246766,32.58,-11.1,7.8
1554117686557,-7.2448545,-4.811747,3.3159695,-0.28122982,-0.07776430000000001,0.165116,32.64,-11.52,7.44
1554117686578,-7.6231384,-4.5280337,3.3147724000000003,-0.31105720000000003,-0.07456851,0.11824436,32.64,-11.94,7.2
1554117686597,-7.8613615,-4.120421,3.5218705999999997,-0.41438788,-0.07456851,0.15126756,32.7,-12.24,6.9
1554117686617,-7.9278,-4.0737343,3.566762,-0.5230448000000001,-0.10013486,0.20026971,32.7,-12.6,6.72
1554117686638,-7.935581699999999,-4.202422599999999,3.8480806000000003,-0.49641323,-0.08841695,0.18429075,32.7,-13.08,6.6
1554117686658,-7.7769656000000005,-3.8612487,4.314351599999999,-0.30146983,-0.04474111,0.10226539,32.7,-13.44,6.54
1554117686677,-7.6907744000000005,-3.6565443999999996,4.101866200000001,-0.17896444,-0.024501082,0.05752428,32.7,-13.74,6.54
1554117686698,-7.752425,-3.9630023999999997,3.7804443999999995,-0.08841695,-0.011717908999999999,0.037284255,32.7,-13.98,6.6
1554117686718,-7.94037,-4.14975,3.5104983,-0.05539375,0.00958738,0.029827405,32.64,-14.22,6.6
1554117686737,-7.9337860000000004,-3.9630023999999997,3.1962593,-0.07669904,-0.029827405,0.007456851,32.58,-14.46,6.54
1554117686757,-7.7464395,-4.1371803,3.079542,-0.13635385,-0.07456851,0.04261058,32.52,-14.76,6.48
1554117686780,-7.7320743,-4.0264487,3.478775,-0.07137272,-0.049002163,0.0010652645,32.46,-14.94,6.3
1554117686797,-8.016386,-3.918111,3.2573112999999996,0.008522116,-0.06178534,-0.084155895,32.4,-14.94,6.12
1554117686817,-8.163031,-3.781043,3.2914288000000003,0.017044231,-0.043675844000000005,-0.08735169,32.34,-14.94,5.94
1554117686838,-7.730877400000001,-3.5087025,3.5883097999999998,-0.06498113,0.007456851,-0.058589544,32.28,-14.94,5.82
1554117686858,-7.9236107,-3.7343562000000006,3.1573534,-0.13741912,0.0010652645,-0.08522116,32.22,-15.0,5.7
1554117686878,-8.104372999999999,-3.7936125,3.1208419999999997,-0.20772657,-0.020240024,-0.10333065,32.16,-15.0,5.64
1554117686897,-8.159439,-3.8474822,3.425504,-0.21837921,-0.01917476,-0.08628642,32.16,-15.06,5.64
1554117686917,-8.040328,-3.8899790999999997,3.5146879999999996,-0.14274544,0.0053263223,-0.08841695,32.1,-15.06,5.64
1554117686938,-8.22109,-3.9312792,3.2585083999999997,-0.09054748,0.040480047000000005,-0.10226539,32.04,-15.12,5.58
1554117686958,-8.279149,-3.8139634,3.0909145000000002,-0.12037488,0.05539375,-0.09267801,31.98,-15.18,5.58
1554117686978,-8.175002000000001,-3.8337154000000004,3.0789435000000003,-0.25033715,0.049002163,-0.06498113,31.92,-15.24,5.58
1554117686997,-7.9864583,-3.8833952000000003,3.0831332000000002,-0.33662358,0.051132694000000006,-0.047936900000000005,31.92,-15.36,5.52
1554117687018,-7.8972745,-3.9223008000000004,3.1435869,-0.46019423,0.09587380000000001,-0.06924219,32.04,-15.36,5.52
1554117687037,-8.037335,-3.8498763999999994,3.2914288000000003,-0.5187838,0.13209279,-0.11717909,32.1,-15.42,5.52
1554117687058,-8.161235000000001,-3.7846344,3.503914,-0.54648066,0.16192019,-0.18216023,32.22,-15.42,5.52
1554117687078,-8.24204,-3.9791632000000003,3.3644519999999996,-0.5251754,0.16298546,-0.21944448,32.28,-15.42,5.52
1554117687098,-8.3629465,-4.289212,3.1962593,-0.48043427,0.16405073,-0.25033715,32.4,-15.42,5.52
1554117687117,-8.455722,-4.423287999999999,3.0723592999999996,-0.4644553,0.14168017,-0.29614353,32.46,-15.36,5.58
1554117687138,-8.448539,-4.524442700000001,2.9520507,-0.5603291,0.1107875,-0.31318775,32.52,-15.36,5.58
1554117687158,-8.309675,-4.575918,2.9376855,-0.64555025,0.084155895,-0.29507825,32.46,-15.3,5.58
1554117687178,-8.117541000000001,-4.780622,2.961029,-0.6593986999999999,0.07137272,-0.28549087,32.46,-15.36,5.58
1554117687197,-7.848791599999999,-4.832696,3.0933087,-0.58909124,0.07882957,-0.29614353,32.4,-15.3,5.58
1554117687217,-7.655460000000001,-4.7016134,3.0903158,-0.43249738,0.101200126,-0.3334278,32.34,-15.3,5.58
1554117687238,-7.57286,-4.7219644,2.835932,-0.2695119,0.13315806,-0.36112466,32.34,-15.3,5.58
1554117687258,-7.526173,-4.8189297,2.533664,-0.15765914,0.17470337,-0.3653857,32.34,-15.3,5.58
1554117687278,-7.376535400000001,-5.026028,2.0661959999999997,-0.09374327,0.2066613,-0.3685815,32.4,-15.3,5.58
1554117687298,-7.3220673,-5.113416,1.7812861,-0.10439592,0.23222765,-0.37923414,32.46,-15.18,5.58
1554117687318,-7.4471645,-5.185841,1.6364368,-0.165116,0.23648871,-0.37710363,32.52,-15.06,5.64
1554117687338,-7.529165700000001,-5.290587400000001,1.7034745,-0.23755397,0.22583607,-0.36432046,32.52,-14.88,5.7
1554117687358,-7.6722193,-5.429451,1.7304093,-0.26312032,0.2130529,-0.350472,32.58,-14.52,5.76
1554117687377,-7.779958199999999,-5.465364,1.7657237000000001,-0.24607609,0.21624869,-0.34514567,32.58,-14.16,5.88
1554117687397,-7.8248496,-5.4623713,1.8836381000000002,-0.18535602,0.21837921,-0.33768883,32.64,-13.8,6.0
1554117687418,-7.801506,-5.547365,1.9895816000000002,-0.113983296,0.22690132,-0.3206446,32.64,-13.44,6.18
1554117687438,-7.8865004,-5.7209449999999995,2.0033484,-0.043675844000000005,0.23222765,-0.31318775,32.64,-13.14,6.3
1554117687457,-7.929596000000001,-5.8364654,1.9057846,-0.012783173500000002,0.22903186,-0.30146983,32.64,-12.84,6.48
1554117687478,-7.963114699999999,-5.9262476,1.8142063999999998,-0.03089267,0.2066613,-0.28975195,32.64,-12.6,6.6
1554117687498,-7.941567,-6.0645127,1.7848773999999998,-0.09161274,0.165116,-0.2727077,32.64,-12.42,6.78
1554117687518,-7.901464,-6.213552,1.8243817,-0.14487597,0.11717909,-0.24181503,32.7,-12.3,6.9
1554117687538,-7.7572136,-6.3087215,1.9303252,-0.14913702,0.07350325,-0.20559604,32.7,-12.24,7.02
1554117687558,-7.705139599999999,-6.367379,1.9428947,-0.08841695,0.049002163,-0.17044231,32.7,-12.12,7.2
1554117687577,-7.626131,-6.2620344,1.9369092,-0.015978966,0.039414786,-0.15339808,32.7,-11.94,7.32
1554117687597,-7.583035499999999,-6.2093620000000005,1.8555063000000003,0.12676647,0.053263225,-0.11930962,32.7,-11.7,7.5
1554117687618,-7.590816499999999,-6.158485400000001,1.7262194,0.19281286,0.07243799,-0.09587380000000001,32.7,-11.58,7.56
1554117687637,-7.6243353,-5.954379599999999,1.5568296999999998,0.21624869,0.099069595,-0.053263225,32.7,-11.34,7.74
1554117687657,-7.5890207,-5.798158,1.4921862,0.17896444,0.10759171,-0.024501082,32.7,-11.22,7.8
1554117687677,-7.563882,-5.747281,1.4766238999999999,0.13741912,0.1107875,0.007456851,32.64,-11.1,7.92
1554117687698,-7.526173,-5.7023897,1.4502877,0.12037488,0.10972224,0.012783173500000002,32.64,-11.04,7.98
1554117687718,-7.541735000000001,-5.6485205,1.4921862,0.113983296,0.10652645,0.0,32.58,-10.98,8.04
1554117687737,-7.629123700000001,-5.635351999999999,1.4903905000000002,0.098004326,0.08735169,-0.01917476,32.52,-10.8,8.1
1554117687757,-7.616554300000001,-5.6030307,1.532289,0.06498113,0.068176925,-0.036218993,32.46,-10.68,8.16
1554117687778,-7.591415,-5.5940523,1.5915456000000001,0.03195793,0.04261058,-0.05006743,32.4,-10.5,8.28
1554117687797,-7.696759700000001,-5.5820813,1.6286557,0.0063915867,0.02876214,-0.06924219,32.34,-10.38,8.4
1554117687817,-7.7667904000000005,-5.618592700000001,1.6316483999999998,-0.012783173500000002,0.011717908999999999,-0.07776430000000001,32.34,-10.26,8.58
1554117687838,-7.765592999999999,-5.73531,1.6549919999999998,-0.043675844000000005,0.004261058,-0.06711166,32.28,-10.2,8.7
1554117687857,-7.7757688,-5.7634419999999995,1.7196354,-0.05539375,0.004261058,-0.05965481,32.28,-10.14,8.76
1554117687877,-7.785345599999999,-5.751471,1.6424223000000002,-0.05219796,0.0,-0.043675844000000005,32.22,-10.02,8.82
1554117687898,-7.821258500000001,-5.798158,1.5945383,-0.05752428,-0.0053263223,-0.03089267,32.22,-10.08,8.82
1554117687917,-7.7889365999999995,-5.7682304,1.697489,-0.05219796,-0.015978966,-0.011717908999999999,32.22,-10.08,8.88
1554117687937,-7.7889365999999995,-5.7125654,1.6077063999999999,-0.049002163,-0.034088463,0.013848438000000001,32.16,-10.14,8.82
1554117687958,-7.7590094,-5.641337999999999,1.6663644,-0.06498113,-0.051132694000000006,0.02130529,32.16,-10.14,8.76
1554117687978,-7.706336500000001,-5.631761,1.6561891,-0.06711166,-0.06924219,0.018109497,32.16,-10.14,8.7
1554117687997,-7.6351094,-5.651513,1.6358383,-0.06924219,-0.07563378,0.015978966,32.16,-10.14,8.64
1554117688017,-7.6231384,-5.635351999999999,1.6400281000000003,-0.07669904,-0.080960095,0.004261058,32.16,-10.2,8.58
1554117688038,-7.6093717000000005,-5.629367,1.6196774,-0.080960095,-0.07989483,0.0,32.16,-10.26,8.64
1554117688058,-7.634510499999999,-5.653308999999999,1.584363,-0.094808534,-0.07456851,0.0,32.22,-10.26,8.7
1554117688079,-7.633912,-5.6551046,1.6795325,-0.12570119999999999,-0.06924219,-0.008522116,32.22,-10.32,8.7
1554117688098,-7.6093717000000005,-5.680842,1.6597804,-0.13528858,-0.06711166,-0.0063915867,32.22,-10.38,8.76
1554117688117,-7.6267295,-5.6802435,1.7735048999999998,-0.13102753,-0.054328485999999995,-0.014913702,32.22,-10.38,8.76
1554117688137,-7.7039423,-5.701193,1.7441759,-0.113983296,-0.05539375,-0.041545313,32.22,-10.44,8.76
1554117688158,-7.7153149999999995,-5.731719,1.7100586,-0.10972224,-0.06285059999999999,-0.05006743,32.22,-10.44,8.76
1554117688178,-7.654263,-5.8095303,1.7573439999999998,-0.11824436,-0.07350325,-0.040480047000000005,32.22,-10.44,8.7
1554117688197,-7.5968018,-5.805341,1.8058267,-0.11504856,-0.07989483,-0.026631612000000002,32.22,-10.44,8.7
1554117688217,-7.5590934999999995,-5.7867856,1.7525556,-0.096939065,-0.07669904,-0.020240024,32.22,-10.44,8.64
1554117688238,-7.551311999999999,-5.753267,1.8303672,-0.05219796,-0.06498113,-0.018109497,32.22,-10.44,8.58
1554117688258,-7.6219410000000005,-5.719149,1.7184383,-0.0053263223,-0.043675844000000005,-0.022370555,32.22,-10.5,8.58
1554117688278,-7.691373,-5.6910176,1.6196774,0.007456851,-0.029827405,-0.022370555,32.22,-10.5,8.52
1554117688297,-7.6668324000000005,-5.7119665,1.4814123,-0.0053263223,-0.0031957934000000003,-0.018109497,32.22,-10.56,8.46
1554117688317,-7.693767,-5.7227407,1.4000093999999998,-0.056459017,0.010652645,-0.033023197000000004,32.22,-10.56,8.34
1554117688337,-7.6488757,-5.692813,1.3904326,-0.10013486,0.0053263223,-0.054328485999999995,32.22,-10.62,8.34
1554117688357,-7.669825,-5.730521700000001,1.4466964,-0.13635385,-0.011717908999999999,-0.07456851,32.22,-10.62,8.28
1554117688378,-7.69257,-5.783194,1.5035586,-0.15020229,-0.046871635999999994,-0.07989483,32.28,-10.68,8.22
1554117688399,-7.6171527,-5.910087,1.4425066,-0.128897,-0.07030745599999999,-0.06924219,32.34,-10.68,8.1
1554117688417,-7.553107700000001,-5.9938839999999995,1.4239515,-0.10759171,-0.06924219,-0.06285059999999999,32.34,-10.68,7.92
1554117688438,-7.4699089999999995,-6.0226144999999995,1.3694833999999998,-0.09374327,-0.06285059999999999,-0.043675844000000005,32.46,-10.74,7.74
1554117688458,-7.422025,-5.9998693,1.3497312,-0.07669904,-0.04474111,-0.01917476,32.58,-10.8,7.5
1554117688478,-7.387908,-6.013636,1.3359646,-0.060720075,-0.025566347000000003,-0.004261058,32.7,-10.86,7.32
1554117688498,-7.381922200000001,-6.0202203,1.3796587,-0.040480047000000005,0.0031957934000000003,0.007456851,32.82,-10.98,7.14
1554117688517,-7.392098,-6.023811299999999,1.3958195,-0.024501082,0.03834952,0.011717908999999999,32.88,-11.04,6.96
1554117688540,-7.3322425,-6.0399723,1.3676877,-0.007456851,0.07030745599999999,0.022370555,33.0,-11.16,6.84
1554117688558,-7.335833999999999,-6.089053599999999,1.3449427999999999,0.002130529,0.08841695,0.026631612000000002,33.06,-11.22,6.78
1554117688578,-7.368156,-6.0621184999999995,1.2868833999999998,0.011717908999999999,0.11504856,0.02876214,33.12,-11.34,6.84
1554117688598,-7.465121000000001,-6.005256,1.2988545,0.029827405,0.14274544,0.039414786,33.06,-11.46,6.96
1554117688618,-7.4705076,-5.937021700000001,1.2755108999999998,0.06178534,0.15659387,0.06391586,33.06,-11.52,7.08
1554117688637,-7.599794999999999,-5.8987145,1.1785458,0.09374327,0.17896444,0.09054748,33.0,-11.52,7.2
1554117688657,-7.6847887,-5.879561,1.1246762,0.10333065,0.17257284,0.10226539,33.0,-11.58,7.26
1554117688678,-7.6027875,-5.844844999999999,1.091756,0.08948222,0.16192019,0.12676647,32.94,-11.58,7.38
1554117688697,-7.538144,-5.8771667,1.0995371,0.068176925,0.15020229,0.14913702,32.94,-11.58,7.44
1554117688717,-7.507617999999999,-5.9106855000000005,1.1240777,0.06391586,0.14168017,0.1470065,32.88,-11.64,7.5
1554117688738,-7.435792,-5.8891377,1.1671733999999998,0.07989483,0.13528858,0.13209279,32.82,-11.64,7.56
1554117688757,-7.454347,-5.856816,1.2258313,0.099069595,0.12996227,0.10972224,32.82,-11.7,7.74
1554117688777,-7.4507556,-5.7634419999999995,1.2395979,0.10546118,0.12037488,0.09161274,32.82,-11.76,7.98
1554117688798,-7.421427,-5.7640405,1.2162545,0.10439592,0.1107875,0.06498113,32.82,-11.88,8.16
1554117688817,-7.399878999999999,-5.742492700000001,1.2018893,0.10759171,0.112918034,0.043675844000000005,32.82,-11.94,8.4
1554117688838,-7.5285673,-5.683236,1.1522094999999999,0.112918034,0.128897,0.0053263223,32.82,-12.06,8.64
1554117688857,-7.5698669999999995,-5.625177,1.1318588,0.08522116,0.14061491,-0.008522116,32.82,-12.18,8.88
1554117688877,-7.5962033,-5.6060233,1.1282675,0.058589544,0.15552860000000002,-0.007456851,32.82,-12.3,9.06
1554117688898,-7.7147164,-5.589264,1.2246342,0.03089267,0.17470337,-0.011717908999999999,32.82,-12.42,9.24
1554117688917,-7.727286,-5.595249,1.2431892,0.03195793,0.18535602,-0.00958738,32.82,-12.6,9.36
1554117688937,-7.719505000000001,-5.5886655,1.134253,0.04261058,0.19813919,-0.007456851,32.76,-12.66,9.36
1554117688958,-7.7590094,-5.4665610000000004,1.1336545,0.036218993,0.20772657,-0.010652645,32.7,-12.78,9.36
1554117688977,-7.8326306,-5.403115000000001,0.9911995000000001,0.002130529,0.19707392,-0.013848438000000001,32.7,-12.9,9.36
1554117688998,-7.883507700000001,-5.3923407,0.8936358,-0.06604639400000001,0.165116,-0.02876214,32.64,-13.08,9.42
1554117689018,-7.85358,-5.489306,0.8038531999999999,-0.15765914,0.10652645,-0.06498113,32.52,-13.26,9.42
1554117689038,-7.8733325,-5.6790465999999995,0.7846996,-0.24927188,0.04261058,-0.10652645,32.4,-13.44,9.54
1554117689058,-7.911639699999999,-5.849633,0.83856916,-0.30679616,-0.01917476,-0.14913702,32.22,-13.56,9.6
1554117689078,-7.9930425000000005,-5.967548000000001,0.7990648,-0.33662358,-0.08522116,-0.18109496,32.1,-13.68,9.66
1554117689098,-8.054692999999999,-6.001665,0.8038531999999999,-0.37284255,-0.14168017,-0.18961707,32.04,-13.68,9.72
1554117689118,-8.151060000000001,-6.0956373,0.760159,-0.4101268,-0.19920446,-0.18429075,31.92,-13.74,9.78
1554117689138,-8.165425,-6.079477,0.82121116,-0.4314321,-0.26205507,-0.16937704,31.86,-13.74,9.84
1554117689158,-8.073248,-6.0645127,0.8690952,-0.43675843,-0.31851408,-0.14807177,31.8,-13.74,9.9
1554117689178,-7.973290400000001,-6.1453169999999995,0.8475474000000001,-0.43462790000000007,-0.3749731,-0.13954964,31.8,-13.68,9.96
1554117689198,-7.706336500000001,-6.0980315,0.78649527,-0.44101948,-0.42184472,-0.128897,31.86,-13.62,9.96
1554117689217,-7.5668745,-6.1165867,0.7763199000000001,-0.46765109999999993,-0.45060685,-0.11717909,31.86,-13.62,9.9
1554117689237,-7.438784599999999,-6.0513449999999995,0.7469909,-0.50387007,-0.47404268,-0.128897,31.92,-13.68,9.72
1554117689258,-7.349601,-6.075287,0.7044938000000001,-0.5305017,-0.49108690000000005,-0.1587244,31.98,-13.74,9.48
1554117689278,-7.3591776,-6.0585275,0.7242460000000001,-0.5454154,-0.50387007,-0.20026971,31.98,-13.8,9.18
1554117689298,-7.450157000000001,-6.117185,0.682946,-0.5773733,-0.51665324,-0.22903186,32.04,-13.86,8.94
1554117689317,-7.485471700000001,-6.2141504,0.63087213,-0.6103965,-0.5454154,-0.23329292,32.04,-13.92,8.64
1554117689339,-7.4405804,-6.4002995,0.7386111999999999,-0.60933125,-0.5699165,-0.21092236,32.04,-13.92,8.16
1554117689359,-7.4645224,-6.479907,0.75357497,-0.58056915,-0.57417756,-0.18642128,32.1,-13.98,7.74
1554117689379,-7.5650787,-6.5349736,0.7386111999999999,-0.5294364,-0.5656554,-0.14168017,32.1,-13.92,7.26
1554117689398,-7.545925,-6.5906386,0.65182143,-0.4825648,-0.5496765,-0.10013486,32.22,-13.92,6.78
1554117689418,-7.422025,-6.7151369999999995,0.60932434,-0.4644553,-0.5305017,-0.06391586,32.28,-13.92,6.3
1554117689438,-7.213131,-6.903082,0.7248446,-0.47936899999999993,-0.5251754,-0.05539375,32.46,-13.92,5.82
1554117689458,-6.9587474,-7.0491285,0.8888474000000001,-0.50387007,-0.5230448000000001,-0.05539375,32.7,-13.92,5.34
1554117689478,-6.897695,-7.123947,1.0324994,-0.5049353,-0.51984906,-0.05752428,32.76,-13.92,5.1
1554117689497,-6.793547,-7.2759789999999995,1.2611457,-0.4282363,-0.50387007,-0.07882957,33.06,-13.92,4.32
1554117689518,-6.7636199999999995,-7.268198,1.3299791,-0.31957933,-0.46552056,-0.08628642,33.24,-13.98,3.84
1554117689538,-6.7091517000000005,-7.1371155,1.3605051000000001,-0.2130529,-0.41864893,-0.07776430000000001,33.42,-13.98,3.48
1554117689557,-6.6522894,-7.091027,1.3251906999999998,-0.13209279,-0.3685815,-0.068176925,33.54,-13.98,3.18
1554117689577,-6.541558,-7.021595,1.2940661,-0.082025364,-0.31957933,-0.06604639400000001,33.66,-13.98,2.82
1554117689597,-6.4487824,-6.9671270000000005,1.3198037,-0.034088463,-0.27377295,-0.07882957,33.72,-13.98,2.4
1554117689618,-6.469133,-7.037756,1.2366052,0.013848438000000001,-0.23009712,-0.10972224,33.72,-13.98,1.92
1554117689637,-6.420052,-7.050924,1.1647792,0.04580637,-0.19281286,-0.14274544,33.72,-13.98,1.38
1554117689657,-6.320692500000001,-7.0970125,1.1486181999999998,0.07243799,-0.15765914,-0.17896444,33.72,-13.98,0.96
1554117689677,-6.250662,-7.1514807000000005,1.1115081,0.098004326,-0.11504856,-0.2034655,33.72,-14.04,0.6
1554117689698,-6.2195373,-7.2215110000000005,1.1593921,0.13315806,-0.07456851,-0.21092236,33.72,-14.04,0.24
1554117689717,-6.2141504,-7.2460512999999995,1.22224,0.16405073,-0.04261058,-0.221575,33.72,-14.04,-0.06
1554117689738,-6.1632739999999995,-7.2975270000000005,1.2431892,0.22690132,0.011717908999999999,-0.22477080000000002,33.72,-14.04,-0.3
1554117689758,-6.089652,-7.2915410000000005,1.258153,0.28016454,0.06391586,-0.22264028,33.78,-14.04,-0.42
1554117689778,-6.06152,-7.261614,1.2934675,0.31851408,0.12357068,-0.22370553,33.84,-13.98,-0.48
1554117689798,-6.078878,-7.2245035,1.3036428999999998,0.34301516,0.17896444,-0.23435818,33.9,-13.92,-0.42
1554117689818,-6.147113,-7.2867527,1.3724761,0.36751625,0.22477080000000002,-0.24607609,33.96,-13.8,-0.42
1554117689838,-6.187216,-7.4758949999999995,1.4562732,0.40373522,0.2727077,-0.24074976,34.02,-13.56,-0.3
1554117689858,-6.2219315,-7.5507135,1.4688427,0.45806372,0.32384038,-0.221575,34.08,-13.38,-0.18
1554117689878,-6.2422824,-7.5710645,1.4586674,0.5123922000000001,0.37816888,-0.18855181,34.14,-13.14,0.0
1554117689897,-6.2530565000000005,-7.501034,1.4921862,0.5518069999999999,0.4314321,-0.16192019,34.2,-12.96,0.18
1554117689917,-6.2644286,-7.441777,1.4664485,0.6018744,0.48469532,-0.14913702,34.26,-12.72,0.48
1554117689937,-6.347626999999999,-7.445369,1.4377182,0.64555025,0.5368933000000001,-0.14913702,34.32,-12.42,0.78
1554117689958,-6.3464303,-7.355586,1.3479356000000002,0.69135666,0.57417756,-0.13954964,34.32,-12.12,1.14
1554117689978,-6.326678,-7.285556,1.2862848,0.71585774,0.60080916,-0.12463594,34.32,-11.82,1.44
1554117689998,-6.323685,-7.234678999999999,1.2372037,0.7094661,0.61572284,-0.11717909,34.26,-11.58,1.74
1554117690018,-6.350021400000001,-7.138911,1.2545617,0.6945524000000001,0.6306366,-0.12357068,34.2,-11.34,2.1
1554117690038,-6.5948286,-7.1101804,1.2641385,0.68176925,0.6444850000000001,-0.15126756,34.14,-11.1,2.4
1554117690058,-6.8731546,-7.1448965,1.2934675,0.67324716,0.6530071,-0.19600865,34.08,-10.86,2.76
1554117690077,-7.009025599999999,-7.250839699999999,1.2749124,0.6530071,0.6540724,-0.24074976,34.08,-10.44,3.18
1554117690097,-6.927024,-7.273585000000001,1.3551182,0.608266,0.6530071,-0.27696875,34.02,-10.14,3.6
1554117690118,-6.892308,-7.2729864,1.483208,0.5773733,0.6530071,-0.3057309,33.96,-9.84,4.08
1554117690138,-6.870760400000001,-7.2113357,1.7004818,0.6040049,0.6593986999999999,-0.314253,33.9,-9.54,4.5
1554117690157,-6.903082,-7.135917999999999,1.7262194,0.70840085,0.67963874,-0.30466563,33.84,-9.18,5.04
1554117690177,-6.9784994000000005,-6.901885000000001,1.4826093999999999,0.83516735,0.71798825,-0.29188246,33.84,-8.76,5.58
1554117690197,-7.0024414,-6.6606693,1.2707225,0.9406285,0.7584683000000001,-0.26205507,33.78,-8.04,6.54
1554117690218,-7.061099499999999,-6.5307837,1.0815806000000001,0.9598033000000001,0.76592517,-0.24820662,33.72,-7.56,7.14
1554117690238,-7.035361999999999,-6.463147599999999,1.0235212,0.9374326999999999,0.75633776,-0.23435818,33.66,-7.08,7.68
1554117690257,-6.940192,-6.537368,0.97623575,0.9374326999999999,0.7456851,-0.22903186,33.6,-6.84,7.92
1554117690278,-6.875549,-6.5206084,0.9636662,0.9576728000000001,0.69987875,-0.23116238,33.42,-5.94,8.76
1554117690298,-6.887519999999999,-6.4505777,1.0247183000000002,0.9619338,0.64768076,-0.2545982,33.18,-5.28,9.3
1554117690318,-7.019201,-6.349423000000001,1.1372458,0.92464954,0.5933523,-0.28868666,33.0,-4.56,9.9
1554117690338,-7.168239999999999,-6.1973910000000005,1.352724,0.8809737,0.52624065,-0.32170987,32.7,-3.9,10.44
1554117690358,-7.2885485,-6.0501475,1.62686,0.85966843,0.44847634,-0.34194988,32.46,-3.24,11.04
1554117690378,-7.4489600000000005,-5.9052987,1.7890673,0.8522116,0.37816888,-0.35153726,32.16,-2.64,11.58
1554117690398,-7.5016327,-5.7760115,1.8297686999999998,0.8522116,0.31957933,-0.35260254,31.86,-2.04,12.06
1554117690418,-7.512406299999999,-5.635950599999999,1.8195933000000002,0.8479504999999999,0.28868666,-0.32597092,31.62,-1.5,12.48
1554117690438,-7.4974427,-5.588066599999999,1.7609352999999999,0.8309063,0.28229508,-0.28442562,31.44,-0.9,12.9
1554117690457,-7.404069,-5.5042696,1.6723499,0.78936094,0.294013,-0.22583607,31.26,-0.36,13.2
1554117690477,-7.2927384,-5.4043117,1.5795746000000002,0.7233145999999999,0.31212249999999997,-0.18002969,31.08,0.12,13.44
1554117690498,-7.225700999999999,-5.3402667,1.5538370000000001,0.62744075,0.32170987,-0.15020229,30.96,0.66,13.68
1554117690518,-7.1724296,-5.3085437,1.6053122,0.49641323,0.314253,-0.13848437,30.84,1.2,13.68
1554117690537,-7.0946183000000005,-5.37199,1.6992846999999998,0.3568636,0.2876214,-0.13422333,30.72,1.8,13.74
1554117690557,-7.123348700000001,-5.5168395,1.8261773999999997,0.23755397,0.26738137,-0.13102753,30.6,2.28,13.8
1554117690577,-7.263409599999999,-5.681441,1.939902,0.15339808,0.24927188,-0.14274544,30.48,2.76,13.8
1554117690598,-7.3418193,-5.7598505,2.0769699,0.07563378,0.21731395,-0.13528858,30.42,3.12,13.86
1554117690617,-7.41185,-5.855619,2.2948422,0.007456851,0.17363810000000002,-0.10972224,30.3,3.48,13.92
1554117690637,-7.538144,-5.9597664,2.4067712,-0.041545313,0.12570119999999999,-0.07882957,30.24,3.84,13.98
1554117690657,-7.612364299999999,-6.1279593,2.5043349999999998,-0.06178534,0.082025364,-0.03834952,30.24,4.14,14.16
1554117690678,-7.623736999999999,-6.283582,2.5306710999999997,-0.035153727999999995,0.039414786,-0.010652645,30.18,4.32,14.34
1554117690697,-7.6267295,-6.431424,2.5181017000000003,-0.0031957934000000003,0.01917476,0.022370555,30.18,4.44,14.52
1554117690717,-7.687183,-6.463147599999999,2.4247277,0.015978966,0.02130529,0.05965481,30.12,4.62,14.7
1554117690738,-7.7218990000000005,-6.3865333,2.3642743,0.0053263223,0.020240024,0.101200126,30.06,4.74,14.88
1554117690758,-7.7344685,-6.3584013,2.3301568,-0.014913702,0.007456851,0.14487597,29.94,4.8,15.12
1554117690778,-7.751228,-6.2943563,2.3355439,-0.007456851,-0.004261058,0.18535602,29.88,4.86,15.3
1554117690798,-7.7440453,-6.1548940000000005,2.3068132,0.00958738,-0.037284255,0.21837921,29.82,4.8,15.42
1554117690817,-7.644686,-6.1746464,2.220622,0.024501082,-0.07989483,0.24820662,29.76,4.74,15.54
1554117690838,-7.376535400000001,-6.049549,2.0853498,0.034088463,-0.11611383,0.28655612,29.76,4.62,15.6
1554117690858,-7.1113777,-5.9412117,2.019509,0.047936900000000005,-0.13741912,0.30892670000000005,29.7,4.5,15.6
1554117690877,-6.955156,-5.831677,1.965041,0.07030745599999999,-0.15020229,0.3206446,29.7,4.32,15.6
1554117690897,-6.889914,-5.7466826,1.8902221999999997,0.08522116,-0.15446335,0.32597092,29.76,4.14,15.6
1554117690918,-6.8366427,-5.5407815000000005,1.8279729999999998,0.096939065,-0.14168017,0.3291667,29.76,3.9,15.54
1554117690941,-7.0593038,-5.4384294,1.9003976999999999,0.082025364,-0.13528858,0.30999196,29.76,3.66,15.54
1554117690961,-7.2364745,-5.415086,1.8818424999999999,0.025566347000000003,-0.12996227,0.30999196,29.76,3.24,15.3
1554117690978,-7.3047094,-5.449203,1.9207484000000001,-0.01917476,-0.12144015,0.30466563,29.82,3.12,15.24
1554117690997,-7.374141000000001,-5.499480999999999,1.9111716,-0.09587380000000001,-0.10013486,0.28229508,29.82,2.82,15.12
1554117691017,-7.4806833,-5.5748987,1.9309237000000001,-0.17789917,-0.07776430000000001,0.24501082,29.82,2.58,15.0
1554117691038,-7.6333137,-5.677251,2.1057005,-0.294013,-0.07137272,0.18109496,29.82,2.16,14.82
1554117691058,-7.620744,-5.756858,2.2780828,-0.37071204,-0.09054748,0.13209279,29.88,1.86,14.64
1554117691078,-7.655460000000001,-5.8322754,2.4636335,-0.4101268,-0.11611383,0.09374327,29.94,1.56,14.52
1554117691098,-7.6919713000000005,-5.93762,2.5887306,-0.4101268,-0.165116,0.054328485999999995,30.06,1.2,14.46
1554117691119,-7.634510499999999,-5.9705405,2.6821042999999998,-0.38029942,-0.21518342,0.035153727999999995,30.18,0.9,14.4
1554117691138,-7.6009917,-5.954379599999999,2.6473885,-0.34408042,-0.24820662,0.033023197000000004,30.3,0.6,14.34
1554117691157,-7.633912,-5.9849057,2.5588029999999997,-0.29294774,-0.27377295,0.041545313,30.42,0.24,14.28
1554117691177,-7.5321584,-5.8969190000000005,2.4666264,-0.23968449999999997,-0.28655612,0.05965481,30.54,-0.12,14.22
1554117691198,-7.3825210000000006,-5.7137623,2.2319946,-0.17896444,-0.27803403,0.09587380000000001,30.66,-0.42,14.16
1554117691219,-7.232883500000001,-5.5246205,2.1338322,-0.13315806,-0.25885928,0.13315806,30.72,-0.72,14.1
1554117691238,-7.259817999999999,-5.3660045,2.0488381,-0.1107875,-0.24394555,0.15978967,30.78,-0.96,13.98
1554117691257,-7.381922200000001,-5.278017500000001,2.0165164,-0.10226539,-0.23222765,0.1768339,30.84,-1.14,13.86
1554117691279,-7.452551400000001,-5.251083,2.0560207,-0.11717909,-0.21837921,0.19600865,30.78,-1.26,13.74
1554117691298,-7.477690700000001,-5.3300915,2.047641,-0.15020229,-0.2130529,0.19068234,30.78,-1.38,13.56
1554117691318,-7.627327999999999,-5.499480999999999,2.1254525,-0.1949434,-0.20133498,0.16298546,30.84,-1.38,13.44
1554117691338,-7.8170686,-5.734113,2.1888987999999996,-0.23329292,-0.18429075,0.10439592,30.84,-1.44,13.26
1554117691357,-7.848791599999999,-5.883152,2.3127987,-0.25246766,-0.18322548,0.068176925,30.84,-1.68,13.08
1554117691377,-7.9104424,-6.0716953,2.48159,-0.26205507,-0.17896444,0.034088463,30.84,-1.98,12.9
1554117691398,-7.994239299999999,-6.112396700000001,2.5905263,-0.26525086,-0.19920446,0.029827405,30.9,-2.22,12.54
1554117691418,-7.963114699999999,-6.108207,2.767697,-0.25033715,-0.23116238,0.05006743,30.96,-2.52,12.3
1554117691438,-7.85358,-6.078878,2.906561,-0.20026971,-0.26738137,0.07669904,30.96,-2.76,12.06
1554117691457,-7.7811556,-5.9585695,2.9149406000000004,-0.12357068,-0.2790993,0.10333065,31.08,-3.0,11.88
1554117691477,-7.782951400000001,-5.8586116,2.8119897999999997,-0.040480047000000005,-0.28549087,0.13528858,31.14,-3.24,11.7
1554117691499,-7.6931686,-5.671265,2.6719291000000003,0.0031957934000000003,-0.27057716,0.17363810000000002,31.26,-3.48,11.52
1554117691519,-7.6794020000000005,-5.565322,2.5222914,0.04474111,-0.25140239999999997,0.18748654,31.38,-3.54,11.34
1554117691539,-7.495647,-5.3815669999999995,2.3259668,0.06391586,-0.22050974,0.21198763,31.56,-3.54,11.16
1554117691558,-7.5046253,-5.2421045,2.2709002000000003,0.09054748,-0.18748654,0.21731395,31.74,-3.6,11.1
1554117691578,-7.5094137000000005,-5.148132299999999,2.12246,0.12037488,-0.1587244,0.2130529,31.86,-3.72,11.04
1554117691598,-7.476493400000001,-5.0631379999999995,2.018312,0.13422333,-0.14061491,0.2066613,31.98,-3.84,10.92
1554117691619,-7.4028716,-4.964976,2.0332758,0.10652645,-0.13635385,0.19920446,32.16,-4.2,10.74
1554117691637,-7.3352356,-4.9374423,2.0757727999999998,0.09374327,-0.13635385,0.19068234,32.22,-4.32,10.62
1554117691658,-7.407660000000001,-4.9320555,2.0111293999999997,0.07137272,-0.12996227,0.19281286,32.28,-4.56,10.5
1554117691678,-7.4735007,-4.914099,2.0524294,0.05965481,-0.12783173,0.18642128,32.34,-4.8,10.38
1554117691698,-7.475296000000001,-4.8973393,2.0751743,0.05006743,-0.12357068,0.18216023,32.34,-5.1,10.26
1554117691718,-7.5519110000000005,-4.8656163,2.1535845,0.033023197000000004,-0.10759171,0.18429075,32.28,-5.34,10.2
1554117691737,-7.7410526,-4.8201265,2.295441,0.025566347000000003,-0.07989483,0.18109496,32.28,-5.52,10.14
1554117691757,-7.9996266,-4.820725,2.441487,0.013848438000000001,-0.046871635999999994,0.18535602,32.34,-5.88,10.14
1554117691778,-8.126519,-4.888361499999999,2.5378537,-0.010652645,-0.004261058,0.18748654,32.34,-6.0,10.14
1554117691797,-8.358757,-4.961983,2.5671828,-0.046871635999999994,0.033023197000000004,0.17576863,32.46,-6.18,10.08
1554117691817,-8.376114999999999,-5.020641,2.7569232000000006,-0.10013486,0.034088463,0.15552860000000002,32.52,-6.36,10.02
1554117691837,-8.177396,-5.1343656,2.9562407000000004,-0.15446335,0.02130529,0.14168017,32.58,-6.6,9.96
1554117691857,-8.071452,-5.192425,3.1028854999999997,-0.18748654,-0.013848438000000001,0.11930962,32.58,-6.66,9.9
1554117691877,-7.7997108,-5.258864,3.3405099999999996,-0.21624869,-0.07882957,0.09161274,32.64,-6.9,9.84
1554117691898,-7.483077499999999,-5.2768207,3.4871547,-0.16192019,-0.14913702,0.080960095,32.64,-7.26,9.72
1554117691917,-7.603386,-5.345654,3.4973302000000004,-0.06391586,-0.17896444,0.080960095,32.64,-7.38,9.66
1554117691938,-7.634510499999999,-5.151723400000001,3.5314474000000002,0.08841695,-0.2130529,0.10226539,32.64,-7.56,9.6
1554117691958,-7.5770497,-5.031415,3.429694,0.27803403,-0.19920446,0.15552860000000002,32.58,-7.68,9.54
1554117691978,-7.6333137,-5.1170077,3.2369606,0.4708469,-0.13741912,0.18002969,32.58,-7.8,9.48
1554117691998,-7.6710224,-5.039196,3.1094694,0.6327670999999999,-0.04261058,0.165116,32.52,-8.04,9.42
1554117692018,-7.662044,-4.968567,2.9921536,0.70627034,0.014913702,0.14061491,32.46,-8.28,9.36
1554117692038,-7.480085000000001,-4.941033999999999,2.9987376,0.7052050999999999,0.056459017,0.10439592,32.46,-8.46,9.24
1554117692058,-7.402272999999999,-4.9164934,3.1364042999999997,0.5997439,0.05752428,0.06178534,32.46,-8.64,9.12
1554117692077,-7.423821,-4.8853683,3.3716345000000003,0.44741106,0.02130529,0.004261058,32.52,-8.82,9.06
1554117692097,-7.392696400000001,-4.903325,3.4997244,0.3057309,-0.024501082,-0.011717908999999999,32.52,-8.94,9.0
1554117692117,-7.417835,-4.8763905,3.520075,0.22370553,-0.046871635999999994,-0.012783173500000002,32.58,-9.06,8.94
1554117692137,-7.5549035,-4.847659999999999,3.627814,0.23968449999999997,-0.05219796,-0.029827405,32.58,-9.12,8.88
1554117692157,-7.544129400000001,-4.674679,3.6709096,0.33875409999999995,-0.03834952,-0.037284255,32.64,-9.06,8.88
1554117692178,-7.493252799999999,-4.495114,3.4901476000000002,0.45912898,-0.02130529,-0.03089267,32.7,-9.0,8.94
1554117692198,-7.5183919999999995,-4.2820295999999995,3.3650506,0.5251754,0.00958738,-0.025566347000000003,32.7,-8.94,9.0
1554117692218,-7.6853875999999985,-4.135384999999999,3.1753099999999996,0.47297743,0.029827405,-0.004261058,32.7,-8.88,9.06
1554117692238,-7.8942814,-4.1425676,3.110068,0.40906155,0.035153727999999995,0.014913702,32.7,-8.82,9.06
1554117692257,-8.026561000000001,-4.1916485,3.12982,0.2972088,0.025566347000000003,0.046871635999999994,32.64,-8.76,9.06
1554117692278,-7.943362700000001,-4.189853,3.2249897,0.17896444,-0.0031957934000000003,0.09054748,32.64,-8.76,9.06
1554117692298,-7.884106,-4.211999400000001,3.3123782,0.13635385,-0.0010652645,0.111852765,32.58,-8.7,9.06
1554117692318,-7.943362700000001,-4.226364599999999,3.4027589999999996,0.11611383,-0.0063915867,0.10226539,32.58,-8.64,9.06
1554117692337,-7.943362700000001,-4.155137,3.549404,0.12250541,-0.014913702,0.094808534,32.52,-8.64,9.06
1554117692357,-7.8613615,-4.0845080000000005,3.606865,0.13209279,-0.013848438000000001,0.10759171,32.52,-8.58,9.06
1554117692377,-7.675811,-4.0426097,3.5889084,0.14594123,0.0010652645,0.10013486,32.46,-8.58,9.06
1554117692398,-7.6285253,-3.8420951,3.6577415,0.12996227,0.03089267,0.06285059999999999,32.46,-8.58,9.06
1554117692418,-7.797316599999999,-3.9133226999999997,3.4793737,0.07563378,0.04261058,0.04261058,32.46,-8.52,9.06
1554117692437,-7.785345599999999,-3.86484,3.2968156000000004,-0.039414786,0.035153727999999995,0.026631612000000002,32.46,-8.58,9.06
1554117692462,-7.8027034,-3.8863877999999996,3.2926260000000003,-0.06924219,0.03195793,0.02130529,32.46,-8.58,9.06
1554117692478,-7.908048,-4.0809169999999995,3.4099417,-0.13315806,-0.014913702,0.00958738,32.46,-8.58,9.06
1554117692497,-7.826645399999999,-3.9875429,3.4596214,-0.15020229,-0.04474111,-0.004261058,32.4,-8.58,9.06
1554117692517,-7.913435000000001,-3.9863458,3.2662897,-0.25885928,-0.06711166,-0.013848438000000001,32.34,-8.64,9.06
1554117692537,-8.057087,-4.0785227,3.1058779999999997,-0.39308259999999995,-0.082025364,-0.020240024,32.34,-8.76,9.0
1554117692557,-8.080430999999999,-4.1186256000000006,3.1747115000000004,-0.4878911,-0.10972224,-0.03089267,32.34,-9.06,9.0
1554117692577,-7.811681699999999,-4.132391999999999,3.793014,-0.48469532,-0.07882957,-0.041545313,32.28,-9.42,9.0
1554117692598,-7.887099,-4.392761699999999,3.7972038,-0.37710363,-0.041545313,-0.058589544,32.22,-9.78,9.0
1554117692617,-7.974487299999999,-4.4149080000000005,3.8097733999999996,-0.30360037,-0.026631612000000002,-0.034088463,32.22,-10.14,9.0
1554117692637,-7.641692999999999,-4.56694,3.1070752,-0.22477080000000002,-0.05539375,-0.00958738,32.16,-10.38,9.0
1554117692657,-7.8577699999999995,-4.663905000000001,3.3961751000000002,-0.14274544,-0.025566347000000003,-0.098004326,32.16,-10.68,9.0
1554117692678,-8.163031,-4.504690599999999,4.0563765,-0.05752428,0.024501082,-0.1107875,32.16,-10.92,9.0
1554117692698,-7.8709383,-4.584896,3.8534677000000004,0.06498113,0.039414786,-0.039414786,32.16,-11.04,9.0
1554117692718,-7.591415,-4.5842977,3.6074634,0.16724652,0.049002163,-0.07350325,32.16,-10.98,9.0
1554117692738,-7.74225,-4.2538977,3.1783028,0.1768339,0.051132694000000006,-0.17789917,32.22,-10.74,9.06
1554117692757,-8.094197,-4.2395325,3.0681696,0.0031957934000000003,0.010652645,-0.16192019,32.28,-10.44,9.06
1554117692782,-7.9786773,-4.38917,3.1884782000000005,-0.06498113,-0.025566347000000003,-0.13315806,32.34,-10.32,9.12
1554117692798,-7.544129400000001,-4.56694,3.5170822,-0.0010652645,0.0063915867,-0.1768339,32.4,-10.08,9.12
1554117692819,-7.3424179999999994,-4.243124,3.6056678,0.1107875,0.083090626,-0.25566345,32.46,-9.9,9.06
1554117692838,-7.258621000000001,-4.0402154999999995,3.5410242,0.15659387,0.165116,-0.30786142,32.52,-9.78,9.0
1554117692857,-7.358579,-3.9905357000000006,3.2986114,0.058589544,0.22264028,-0.34514567,32.58,-9.66,9.0
1554117692877,-7.466916599999999,-3.9707835,3.1866825,-0.1470065,0.24394555,-0.39627838,32.58,-9.48,8.94
1554117692898,-7.413047,-4.162918,3.1519666,-0.32170987,0.2428803,-0.42077947,32.64,-9.36,8.88
1554117692918,-7.3460092999999995,-4.6806645,3.1543607999999996,-0.5049353,0.22477080000000002,-0.4133226,32.58,-9.12,8.94
1554117692938,-7.462726600000001,-5.08708,2.9640217,-0.5123922000000001,0.2034655,-0.4261058,32.58,-8.82,9.0
1554117692958,-7.756614999999999,-5.048773000000001,3.0484173,-0.45593318,0.2034655,-0.44101948,32.58,-8.52,9.18
1554117692978,-7.9307933,-5.191228,3.028665,-0.36112466,0.18535602,-0.44208476,32.58,-8.22,9.3
1554117692999,-7.7943234,-5.3444567,3.0334535,-0.24181503,0.17896444,-0.3898868,32.58,-7.98,9.48
1554117693018,-7.606977499999999,-5.3205147,2.926313,-0.1107875,0.17789917,-0.36325517,32.58,-7.68,9.66
1554117693037,-7.711125,-5.240309,2.9735985,0.004261058,0.20133498,-0.3749731,32.58,-7.26,9.84
1554117693058,-7.7733746,-5.122993,2.7473464,0.080960095,0.21837921,-0.37603834,32.58,-6.96,10.02
1554117693077,-7.788338,-5.0002904,2.6755204,0.096939065,0.23222765,-0.35260254,32.52,-6.78,10.08
1554117693097,-7.6470804,-5.056554,2.56419,0.051132694000000006,0.23329292,-0.33662358,32.52,-6.6,10.26
1554117693117,-7.548918,-5.1385555,2.5061307,-0.020240024,0.24607609,-0.31851408,32.52,-6.48,10.38
1554117693138,-7.5985975,-5.2462945,2.4241292000000003,-0.040480047000000005,0.25672874,-0.31957933,32.46,-6.24,10.56
1554117693157,-7.568670299999999,-5.2618566,2.3690627,-0.07989483,0.2695119,-0.32810146,32.4,-6.06,10.74
1554117693177,-7.516596300000001,-5.348048,2.385822,-0.084155895,0.27696875,-0.33129725,32.28,-5.88,10.92
1554117693197,-7.387309599999999,-5.5084596,2.3570917000000002,-0.10759171,0.2727077,-0.33662358,32.04,-5.76,11.04
1554117693218,-7.3507977,-5.577293,2.3936029999999997,-0.10865697,0.2727077,-0.34834146,31.8,-5.7,11.22
1554117693238,-7.398083,-5.7107697,2.3331497000000003,-0.08628642,0.27483824,-0.3653857,31.62,-5.64,11.46
1554117693257,-7.3914990000000005,-5.779603,2.3062148,-0.06711166,0.28229508,-0.37710363,31.44,-5.52,11.58
1554117693278,-7.311891999999999,-5.8502316,2.2511482000000003,-0.05752428,0.29188246,-0.37923414,31.32,-5.28,11.64
1554117693297,-7.241861999999999,-5.9531827,2.2050598,-0.04580637,0.2972088,-0.38349520000000004,31.14,-5.1,11.76
1554117693317,-7.3208704,-6.095039,2.1865046,-0.024501082,0.3174488,-0.38562572,30.96,-4.86,11.94
1554117693338,-7.3938932,-6.120178,2.1062990000000004,0.014913702,0.33981937,-0.3898868,30.96,-4.62,12.12
1554117693357,-7.357382,-6.1477113,2.018312,0.051132694000000006,0.3653857,-0.37923414,30.96,-4.38,12.3
1554117693377,-7.281964299999999,-6.149507,1.9201498,0.082025364,0.38775626,-0.36645097,30.96,-4.14,12.54
1554117693397,-7.259817999999999,-6.281187999999999,1.8836381000000002,0.098004326,0.40373522,-0.35579833,30.9,-3.9,12.78
1554117693417,-7.295731,-6.3805475,1.8279729999999998,0.111852765,0.406931,-0.36325517,30.84,-3.54,13.08
1554117693438,-7.2454529999999995,-6.4469867,1.7836802999999999,0.12676647,0.39840892,-0.36325517,30.78,-3.06,13.62
1554117693457,-7.083844,-6.529587,1.7621324,0.15020229,0.39308259999999995,-0.35899413,30.66,-2.7,13.92
1554117693477,-6.9719152,-6.5942300000000005,1.7992426,0.2034655,0.39734364,-0.36751625,30.6,-2.34,14.22
1554117693498,-6.816890700000001,-6.6486982999999995,1.8070238,0.28868666,0.41758367,-0.38882150000000004,30.48,-1.98,14.52
1554117693518,-6.6905966,-6.6265516,1.7172412000000001,0.35153726,0.44634579999999996,-0.4101268,30.42,-1.56,14.76
1554117693538,-6.689997999999999,-6.5708866,1.6627731,0.38882150000000004,0.48149952,-0.44208476,30.36,-1.02,15.0
1554117693558,-6.6941880000000005,-6.558317,1.6011223999999997,0.39201729999999996,0.515588,-0.45912898,30.36,-0.36,15.3
1554117693577,-6.6480994,-6.5906386,1.5143325,0.38882150000000004,0.5496765,-0.46765109999999993,30.3,0.06,15.48
1554117693597,-6.646304,-6.6720414,1.4700398000000001,0.37710363,0.5816344,-0.47723848,30.18,0.42,15.78
1554117693618,-6.710348599999999,-6.746262,1.4568716999999998,0.37071204,0.6018744,-0.4889564,30.12,0.84,16.08
1554117693638,-6.7642183000000005,-6.881533999999999,1.4784195,0.38242993,0.61891866,-0.49108690000000005,30.0,1.2,16.44
1554117693658,-6.745663,-6.955754300000001,1.4095862,0.4048005,0.6306366,-0.47830373,29.82,1.68,16.8
1554117693678,-6.7277070000000005,-6.9581485,1.4149733,0.42930159999999995,0.64768076,-0.46765109999999993,29.52,2.22,17.16
1554117693698,-6.7372837,-6.927623,1.3461398999999998,0.43995422,0.6530071,-0.45273739999999996,29.22,2.64,17.58
1554117693717,-6.6744356,-6.917447,1.3066356000000001,0.43569317,0.64341974,-0.43356264,28.74,3.0,18.06
1554117693737,-6.612785000000001,-6.9371996,1.3808558000000002,0.4250405,0.63383234,-0.41864893,28.32,3.42,18.48
1554117693758,-6.5481415,-6.9796963000000005,1.4443021999999999,0.44315,0.6327670999999999,-0.41119209999999995,27.84,4.02,18.9
1554117693777,-6.5379663,-7.0485296,1.3569138,0.47510794,0.6423545,-0.406931,27.42,4.74,19.2
1554117693797,-6.6307415999999995,-7.107187700000001,1.3251906999999998,0.50387007,0.6743124,-0.41545314,27.0,5.58,19.56
1554117693817,-6.6965823,-7.20954,1.3210008,0.50173956,0.6785734,-0.43249738,26.58,6.3,19.8
1554117693838,-6.555324000000001,-7.122151400000001,1.4359225,0.44634579999999996,0.69135666,-0.39947417,26.28,6.96,20.1
1554117693858,-6.5349736,-7.1125746,1.4251486,0.43462790000000007,0.7105314,-0.37390783,25.8,7.62,20.28
1554117693878,-6.4661403,-7.070676299999999,1.4000093999999998,0.46232477,0.7190535,-0.35579833,25.5,8.22,20.4
1554117693898,-6.415263700000001,-7.086238400000001,1.352724,0.49108690000000005,0.7233145999999999,-0.34834146,25.08,8.88,20.64
1554117693917,-6.5044474999999995,-7.079056,1.22224,0.5049353,0.7286409,-0.36964676,24.78,9.54,20.82
1554117693937,-6.602011,-7.046135400000001,1.1306617,0.5049353,0.71159667,-0.37603834,24.36,10.14,21.0
1554117693958,-6.5259953,-7.0503254,0.997185,0.47936899999999993,0.69668293,-0.36751625,23.94,10.62,21.36
1554117693978,-6.4757169999999995,-7.038354400000001,0.84335756,0.44741106,0.6785734,-0.37071204,23.52,11.1,21.78
1554117693998,-6.495469,-7.107786,0.7565677,0.39201729999999996,0.6380934,-0.3717773,23.1,11.58,22.2
1554117694018,-6.4523735,-7.1113777,0.8146270999999999,0.32490566,0.60507023,-0.38029942,22.8,12.06,22.62
1554117694037,-6.457162,-7.2071457,0.7673416999999999,0.31212249999999997,0.58483016,-0.39414784,22.38,12.6,23.04
1554117694058,-6.306926,-7.2047514999999995,0.7751228,0.3270362,0.5763081,-0.38562572,21.9,13.14,23.34
1554117694078,-6.30932,-7.231087700000001,0.7068880999999999,0.350472,0.56459016,-0.4079963,21.42,13.56,23.58
1554117694097,-6.3446345,-7.2149267,0.79367787,0.33449304,0.5475459,-0.42077947,21.0,13.8,23.88
1554117694117,-6.233304,-7.2951326000000005,0.8110358,0.29614353,0.54435015,-0.4079963,20.58,14.1,24.06
1554117694138,-6.225523,-7.239467599999999,0.7954735,0.24501082,0.5454154,-0.39947417,20.16,14.4,24.12
1554117694159,-6.2009826,-7.2107368,0.7733272,0.20559604,0.5400891,-0.39947417,19.68,14.64,24.24
1554117694178,-6.2087636,-7.316082000000001,0.79846627,0.18216023,0.55074173,-0.4048005,19.2,14.94,24.42
1554117694198,-6.1967926,-7.419631,0.7930793,0.16937704,0.5581986,-0.42290998,18.84,15.24,24.6
1554117694218,-6.1507044,-7.581838,0.7278373,0.12357068,0.5581986,-0.42717105,18.54,15.48,24.78
1554117694238,-6.115988300000001,-7.6638399999999995,0.6757634,0.07669904,0.55287224,-0.40906155,18.18,15.78,24.9
1554117694258,-6.190807,-7.7350674,0.54049104,0.058589544,0.5368933000000001,-0.3749731,17.76,16.14,25.08
1554117694278,-6.1381345000000005,-7.796717599999999,0.62129533,0.083090626,0.52624065,-0.34301516,16.98,16.62,25.26
1554117694298,-6.019622,-7.8146744,0.6787562,0.11930962,0.5113269,-0.31318775,16.74,16.8,25.32
1554117694318,-6.007052,-7.7793600000000005,0.70509243,0.15552860000000002,0.49002165,-0.30466563,15.96,17.22,25.62
1554117694338,-6.0142345,-7.8128785999999995,0.5327099000000001,0.18109496,0.46871635,-0.28655612,15.42,17.4,25.86
1554117694357,-5.946000000000001,-7.929596000000001,0.42377370000000003,0.19174760000000002,0.45060685,-0.25992453,14.88,17.58,26.1
1554117694378,-5.9747305,-7.9194207,0.31543607,0.15552860000000002,0.45060685,-0.22903186,14.34,17.7,26.34
1554117694398,-5.9890957,-7.948150999999999,0.47764325,0.07030745599999999,0.43569317,-0.20772657,13.8,17.88,26.58
1554117694419,-5.880758,-7.9786773,0.35254622,0.047936900000000005,0.4133226,-0.21092236,13.2,18.0,26.82
1554117694437,-5.792771,-7.937377000000001,0.35254622,0.014913702,0.41119209999999995,-0.18322548,12.72,18.18,27.0
1554117694457,-5.9388175,-7.9912467000000005,0.23283611,0.041545313,0.38242993,-0.18002969,12.3,18.36,27.12
1554117694478,-5.966350599999999,-7.9948380000000006,0.24660277,0.10333065,0.36964676,-0.18961707,12.0,18.48,27.18
1554117694498,-5.840056400000001,-7.869142500000001,0.45609543,0.07456851,0.37710363,-0.16724652,11.64,18.6,27.18
1554117694519,-5.769428,-7.994239299999999,0.5363011999999999,0.023435817999999997,0.38242993,-0.14061491,11.34,18.72,27.12
1554117694537,-5.8388596,-8.073847,0.46627077,0.010652645,0.39521313,-0.098004326,11.1,18.84,27.12
1554117694557,-5.8598084,-8.12233,0.3453636,0.07350325,0.37284255,-0.08628642,10.86,18.84,27.12
1554117694578,-5.876568,-8.09719,0.3226187,0.18535602,0.3323625,-0.099069595,10.68,18.78,27.12
1554117694598,-5.8837504,-7.994239299999999,0.34117374,0.28975195,0.29933932,-0.111852765,10.5,18.78,27.18
1554117694618,-5.8693852,-7.840412,0.25977087,0.2727077,0.26312032,-0.11930962,10.32,18.78,27.24
1554117694638,-5.811326,-7.9708962,0.076015905,0.1438107,0.2034655,-0.098004326,10.2,18.84,27.3
1554117694658,-5.7790045999999995,-8.027759,0.10115502,0.08522116,0.15126756,-0.08841695,10.02,18.84,27.36
1554117694678,-5.6485205,-7.983465700000001,0.045489833,0.099069595,0.111852765,-0.10013486,9.84,18.9,27.42
1554117694698,-5.5748987,-8.054692999999999,0.08259996,0.09267801,0.09267801,-0.09267801,9.66,18.96,27.48
1554117694718,-5.5539494000000005,-8.08462,0.2741361,0.05539375,0.08522116,-0.08522116,9.48,19.02,27.48
1554117694738,-5.4288526,-8.143877,0.2813187,0.046871635999999994,0.06498113,-0.06924219,9.36,19.08,27.54
1554117694758,-5.3444567,-8.180987,0.36391866,0.07243799,0.07137272,-0.046871635999999994,9.24,19.14,27.54
1554117694778,-5.263054,-8.248025,0.46507367,0.09587380000000001,0.09267801,-0.035153727999999995,9.12,19.14,27.54
1554117694798,-5.100847,-8.185177000000001,0.54767364,0.12570119999999999,0.13209279,-0.02876214,8.94,19.2,27.54
1554117694818,-5.170877,-8.180987,0.47644615,0.14807177,0.15978967,-0.037284255,8.88,19.26,27.54
1554117694837,-5.2421045,-8.072051,0.39324763,0.15552860000000002,0.16831179,-0.04474111,8.82,19.32,27.54
1554117694858,-5.2343235,-8.1319065,0.31124622,0.14061491,0.16724652,-0.04580637,8.82,19.38,27.54
1554117694878,-5.1798553,-8.201937,0.32441434,0.13848437,0.1438107,-0.058589544,8.76,19.44,27.54
1554117694898,-5.105036699999999,-8.186973,0.30226797,0.10546118,0.111852765,-0.07137272,8.76,19.56,27.54
1554117694918,-5.104438,-8.250419,0.38426940000000004,0.037284255,0.083090626,-0.06711166,8.76,19.68,27.48
1554117694937,-5.09546,-8.301296,0.47644615,0.02130529,0.058589544,-0.07669904,8.76,19.8,27.48
1554117694957,-5.068525,-8.317456,0.5057751,0.01917476,0.05006743,-0.09267801,8.76,19.86,27.48
1554117694978,-5.0810947,-8.29531,0.5554548,-0.011717908999999999,0.03089267,-0.10972224,8.7,19.98,27.42
1554117694998,-5.032612,-8.286931,0.58657944,-0.011717908999999999,0.025566347000000003,-0.111852765,8.7,20.04,27.42
1554117695018,-5.035006,-8.269572,0.587178,0.015978966,0.026631612000000002,-0.13422333,8.7,20.1,27.36
1554117695038,-5.04997,-8.330027000000001,0.5614403,-0.015978966,0.00958738,-0.13635385,8.58,20.16,27.36
1554117695058,-5.061941,-8.359954,0.5602431999999999,-0.01917476,-0.011717908999999999,-0.1438107,8.46,20.22,27.36
1554117695078,-5.1247888,-8.507197,0.4985925,-0.035153727999999995,-0.035153727999999995,-0.13528858,8.28,20.22,27.36
1554117695098,-5.0757074,-8.622119,0.6452374,-0.024501082,-0.05539375,-0.14274544,8.1,20.16,27.3
1554117695117,-4.979341000000001,-8.517372,0.670975,0.03195793,-0.07563378,-0.15233281,7.86,20.16,27.24
1554117695137,-4.993108,-8.492233,0.59974754,0.058589544,-0.09374327,-0.13102753,7.62,20.1,27.18
1554117695157,-4.956596,-8.431181,0.6440403,0.046871635999999994,-0.13422333,-0.11504856,7.44,20.1,27.18
1554117695177,-5.1798553,-8.353969000000001,0.4213795,0.113983296,-0.17789917,-0.1470065,7.14,20.1,27.18
1554117695198,-5.3522377,-8.210316,0.29747957,0.06285059999999999,-0.21837921,-0.16405073,7.08,20.1,27.12
1554117695218,-5.334281400000001,-8.254010000000001,0.50996494,-0.058589544,-0.24394555,-0.165116,7.02,20.1,27.12
1554117695242,-5.2026005,-8.474875,0.7164649000000001,-0.13315806,-0.22796659,-0.14487597,7.08,20.16,27.12
1554117695258,-5.140351,-8.479664,0.74519527,-0.10759171,-0.19707392,-0.14168017,7.2,20.16,27.12
1554117695278,-5.139752400000001,-8.385093,0.5823896,-0.034088463,-0.16405073,-0.13635385,7.32,20.16,27.18
1554117695298,-5.0559554,-8.280945,0.5410896,0.04580637,-0.12037488,-0.10759171,7.56,20.16,27.18
1554117695317,-4.905121,-8.074444999999999,0.49679685,0.101200126,-0.084155895,-0.09161274,7.74,20.16,27.06
1554117695337,-5.040992,-7.961917999999999,0.54408234,0.083090626,-0.101200126,-0.05539375,7.92,20.16,27.06
1554117695357,-5.2002063,-7.931989999999999,0.26276365,0.083090626,-0.13848437,-0.03834952,8.04,20.16,27.06
1554117695378,-5.144541,-7.7943234,0.25797522,0.041545313,-0.17363810000000002,-0.01917476,8.22,20.16,27.06
1554117695398,-4.911705,-7.914034,0.42975920000000006,-0.03089267,-0.18322548,0.011717908999999999,8.34,20.16,27.0
1554117695418,-4.8733974,-8.022969999999999,0.51116204,-0.04580637,-0.17470337,0.014913702,8.4,20.16,27.0
1554117695438,-4.868608999999999,-7.9236107,0.42197806,-0.025566347000000003,-0.16405073,-0.01917476,8.4,20.22,27.0
1554117695458,-4.9135003,-7.872733599999999,0.34955344,-0.036218993,-0.17470337,-0.053263225,8.34,20.22,27.0
1554117695478,-4.908712,-7.859565700000001,0.3333926,-0.07669904,-0.20453078,-0.060720075,8.34,20.28,27.0
1554117695498,-4.8267107000000005,-7.892486,0.3764882,-0.11717909,-0.22690132,-0.068176925,8.34,20.28,27.0
1554117695518,-4.807557,-7.946953999999999,0.42078096,-0.12570119999999999,-0.23755397,-0.083090626,8.34,20.28,27.0
1554117695537,-4.762067299999999,-8.051102,0.42018240000000007,-0.10226539,-0.23542345,-0.10652645,8.4,20.28,27.0
1554117695557,-4.712986,-8.123527000000001,0.3238158,-0.058589544,-0.22264028,-0.14274544,8.58,20.28,27.0
1554117695577,-4.6166196,-8.158841,0.3453636,-0.040480047000000005,-0.19174760000000002,-0.18748654,8.7,20.28,27.0
1554117695597,-4.5741224,-8.1402855,0.37948096,-0.04474111,-0.14487597,-0.21092236,8.88,20.22,27.0
1554117695618,-4.5298295,-8.088212,0.48662150000000004,-0.039414786,-0.096939065,-0.25353295,9.06,20.22,27.0
1554117695638,-4.4077253,-7.948150999999999,0.694917,-0.0031957934000000003,-0.039414786,-0.314253,9.18,20.16,27.0
1554117695658,-4.200028400000001,-7.797316599999999,0.98222125,0.101200126,0.00958738,-0.4282363,9.36,20.1,26.94
1554117695678,-4.061165,-7.555502000000001,1.163582,0.27483824,0.068176925,-0.58056915,9.42,20.1,26.94
1554117695697,-4.0001125,-7.263409599999999,1.1216834999999998,0.46019423,0.12463594,-0.753142,9.42,20.04,26.94
1554117695717,-4.0695443,-7.482479,0.42736499999999994,0.5336975,0.14274544,-0.9044095,9.36,20.04,26.94
1554117695738,-4.0599675,-7.6794020000000005,-0.0664391,0.30679616,0.15446335,-0.9821738000000001,9.3,20.1,26.88
1554117695761,-4.284424,-8.1881695,-0.28909984,-0.026631612000000002,0.13528858,-1.0450244,9.18,20.16,26.88
1554117695779,-4.420294999999999,-8.426393,-0.15801731,-0.20026971,0.128897,-1.0812434,9.0,20.34,26.88
1554117695798,-4.473566,-9.1590185,-0.28012159999999997,-0.24074976,0.09374327,-1.0780476,8.7,20.46,26.94
1554117695819,-4.292804,-9.816825999999999,-0.46267948,-0.21411815,0.08628642,-1.0663296999999998,8.4,20.7,26.94
1554117695838,-4.0839095,-10.053253,-0.30526072,-0.22690132,0.10333065,-1.0748518999999999,8.1,20.94,26.94
1554117695858,-4.048595,-10.023325,-0.020949265,-0.18535602,0.128897,-1.0641992,7.74,21.3,27.0
1554117695878,-3.9199066,-10.087969000000001,-0.13407529999999998,-0.08948222,0.12996227,-1.015197,7.32,21.6,27.12
1554117695899,-3.606865,-10.026319,-0.2896984,-0.046871635999999994,0.12037488,-0.93849796,6.9,21.9,27.24
1554117695918,-3.5290532,-10.080188,-0.43275195,-0.056459017,0.07669904,-0.89162636,6.54,22.14,27.3
1554117695938,-3.4213142,-9.87668,-0.50397944,-0.13209279,-0.013848438000000001,-0.813862,6.12,22.32,27.42
1554117695957,-3.2597055,-9.618107,-0.30765492,-0.17789917,-0.12676647,-0.716923,5.82,22.44,27.48
1554117695978,-3.063381,-9.363723,-0.13168110000000002,-0.19387813,-0.24181503,-0.628506,5.22,22.5,27.66
1554117695998,-2.789245,-9.189544999999999,-0.017956512,-0.18322548,-0.35260254,-0.5070659000000001,4.8,22.44,27.72
1554117696017,-2.718616,-9.16261,-0.010175358,-0.128897,-0.38349520000000004,-0.45380265,4.62,22.38,27.72
1554117696037,-2.682703,-9.002198,-0.06284779,-0.037284255,-0.4079963,-0.4016047,4.14,22.32,27.72
1554117696064,-2.6497827000000003,-8.9998045,-0.30585927,0.07030745599999999,-0.41545314,-0.32490566,3.84,22.26,27.72
1554117696077,-2.6318262000000003,-9.02614,-0.49919105,0.080960095,-0.4133226,-0.2727077,3.66,22.2,27.72
1554117696098,-2.6360161,-9.120711,-0.5943606,-0.020240024,-0.41119209999999995,-0.20133498,3.42,22.2,27.78
1554117696118,-2.5731683,-9.350553999999999,-0.5542577,-0.15765914,-0.42077947,-0.13635385,3.3,22.2,27.78
1554117696138,-2.456451,-9.668983,-0.39683893,-0.26418558,-0.4165184,-0.07350325,3.3,22.26,27.78
1554117696158,-2.3678656000000005,-9.941922,-0.27593175,-0.30999196,-0.39201729999999996,-0.041545313,3.36,22.26,27.84
1554117696177,-2.356493,-10.073604,-0.17776948,-0.30999196,-0.3568636,-0.029827405,3.42,22.26,27.9
1554117696197,-2.284667,-10.153211,-0.048482585999999994,-0.28229508,-0.32170987,-0.02876214,3.48,22.26,27.9
1554117696218,-2.156577,-10.140641,0.17537527,-0.25033715,-0.29294774,-0.043675844000000005,3.6,22.26,27.96
1554117696238,-1.9913772,-9.9951935,0.58538234,-0.20453078,-0.27164245,-0.08841695,3.72,22.2,27.96
1554117696258,-1.7202339,-9.68275,1.1575965,-0.128897,-0.25992453,-0.1768339,3.84,22.14,27.96
1554117696278,-1.4191631000000002,-9.11293,1.6735470000000001,0.015978966,-0.21092236,-0.314253,4.02,22.02,28.02
1554117696298,-1.0319009,-8.428787,2.0578163000000003,0.22903186,-0.14807177,-0.49215218,4.2,21.9,28.08
1554117696318,-0.62967503,-7.7560163,2.079364,0.48682585,-0.07669904,-0.71479243,4.32,21.78,28.14
1554117696338,-0.29867667,-7.2029557,2.059612,0.7456851,0.007456851,-0.9864349,4.5,21.72,28.2
1554117696358,0.046088383,-6.6205664,1.9812019,0.96299905,0.06604639400000001,-1.2836437,4.68,21.6,28.26
1554117696378,0.3417723,-6.282984,1.8860323,1.1121361,0.12144015,-1.5893745000000001,4.74,21.6,28.32
1554117696398,0.830788,-6.891111,1.4975731,1.1451592,0.15446335,-1.9057581000000001,4.74,21.72,28.26
1554117696418,1.7860744999999998,-7.942165400000001,0.94810385,0.95128113,0.11717909,-2.1805964,4.56,22.08,28.14
1554117696438,2.1757307,-7.479486,1.2970588,0.68389976,0.20240025,-2.3936493,4.08,22.62,27.96
1554117696458,2.5486276,-6.992864599999999,0.98940384,0.51771855,0.20559604,-2.6471822,3.42,23.28,27.78
1554117696478,2.6719291000000003,-7.554305,0.20590134,0.24501082,0.112918034,-2.8666267000000003,2.58,23.94,27.54
1554117696498,3.3662476999999997,-8.443152,-0.36511576,-0.25672874,0.00958738,-2.8815402999999997,1.62,24.6,27.3
1554117696518,4.212598000000001,-9.510367,-0.27832595,-0.6562029,0.007456851,-2.8144287999999995,0.54,25.32,27.06
1554117696538,5.052963,-10.115502000000001,0.5835866999999999,-0.67218184,0.014913702,-2.7675571,-0.66,25.98,26.88
1554117696558,5.5150437000000005,-11.023503,0.37110126,-0.47297743,-0.033023197000000004,-2.7696877,-2.1,26.58,26.76
1554117696578,5.7119665,-10.720038,-0.034117375,-0.53263223,-0.034088463,-2.6589,-3.48,26.94,26.82
1554117696597,6.381146,-11.86686,0.5967548,-0.52624065,0.060720075,-2.4383903,-4.98,27.0,27.0
1554117696617,6.63972,-13.484144,1.1701661,0.017044231,0.15233281,-2.1955101000000004,-6.6,26.76,27.24
1554117696637,5.807136,-13.420098999999999,1.2156559,0.6870956,0.14594123,-1.9110843999999998,-8.28,26.28,27.48
1554117696658,5.130175599999999,-12.447453999999999,0.5398925,0.9864349,0.08628642,-1.4849787,-9.96,25.62,27.78
1554117696681,4.975151,-11.702259,0.017357962,0.64555025,0.07030745599999999,-0.9033443000000001,-12.66,24.48,28.2
1554117696699,4.5926776,-11.237185499999999,0.24600422,0.27057716,0.10013486,-0.54435015,-13.5,24.06,28.32
1554117696719,3.9677907999999995,-10.712855000000001,0.95588505,-0.18216023,0.12783173,-0.10865697,-14.94,23.22,28.56
1554117696739,3.5338415999999997,-10.412982000000001,1.9847932000000001,-0.42184472,0.112918034,0.25992453,-16.86,21.96,28.74
1554117696759,3.4877534,-10.35193,2.5851393,-0.31105720000000003,0.094808534,0.37603834,-17.28,21.6,28.8
1554117696778,3.6703112,-10.315418,3.0699651,0.14594123,0.06498113,0.44421527,-17.94,21.12,28.74
1554117696798,3.9025488,-9.877279,2.9215245,0.7318366999999999,0.056459017,0.45486793,-18.42,20.76,28.68
1554117696818,4.079121,-9.275736,2.3834279,1.128115,0.06604639400000001,0.46871635,-18.72,20.58,28.56
1554117696838,4.2425256,-8.62152,2.0021513,1.2389026,0.07563378,0.50173956,-18.78,20.52,28.32
1554117696858,4.355053,-8.050502999999999,1.7076644,1.1068097,0.09161274,0.53795856,-18.78,20.64,28.02
1554117696877,4.4406457,-7.708132300000001,1.5969325,0.8021441,0.08841695,0.5592638000000001,-18.72,21.0,27.6
1554117696898,4.6633059999999995,-7.7350674,1.6735470000000001,0.4016047,0.05539375,0.57098174,-18.48,22.02,26.82
1554117696918,4.507085,-7.632714999999999,1.780089,0.16937704,0.034088463,0.5795039000000001,-18.24,22.74,26.28
1554117696938,4.735132,-7.6375036,1.8764555,0.013848438000000001,-0.05539375,0.59228706,-17.88,23.58,25.8
1554117696958,4.785411,-7.6321163,1.9937714,-0.05219796,-0.09374327,0.5209143,-17.52,24.48,25.32
1554117696978,4.5525746,-7.666233999999999,2.202067,-0.03195793,-0.13741912,0.4250405,-16.98,25.38,24.96
1554117696997,4.52145,-8.028357000000002,2.3959973,0.07350325,-0.21624869,0.35899413,-16.44,26.28,24.6
1554117697017,4.5280337,-8.303091,2.510919,0.28229508,-0.26525086,0.30466563,-15.78,27.06,24.36
1554117697039,4.435258999999999,-8.667608,2.3918076,0.44315,-0.3206446,0.25353295,-15.12,27.54,24.3
1554117697059,4.437054,-8.685564999999999,2.309806,0.49428272,-0.34514567,0.25566345,-14.64,27.96,24.3
1554117697079,4.375403400000001,-9.019556,2.3439236,0.53263223,-0.32384038,0.30999196,-14.1,28.5,24.24
1554117697099,4.302979,-9.774328,2.4432828,0.56672066,-0.31957933,0.36964676,-13.56,29.1,24.24
1554117697118,3.9959226,-9.862314999999999,2.707842,0.5997439,-0.32490566,0.43249738,-13.14,29.58,24.24
1554117697138,3.5146879999999996,-9.775525,2.7898436,0.608266,-0.3749731,0.5454154,-12.72,30.0,24.18
1554117697158,3.3704373999999997,-9.848549,2.9682117000000003,0.58056915,-0.43782368,0.7275756,-12.24,30.42,24.12
1554117697177,3.3303347000000003,-9.923966,3.1777040000000003,0.65513766,-0.47936899999999993,0.8767126000000001,-11.82,30.78,23.94
1554117697197,3.1148564999999997,-9.752781,3.3740287,0.78083885,-0.5209143,0.93423694,-11.34,31.08,23.7
1554117697218,2.9789855,-9.536703999999999,3.482965,0.87032104,-0.58909124,0.98750013,-10.62,31.56,23.22
1554117697237,2.9442697,-9.1829605,3.5500026,0.9416938,-0.6146576,1.0450244,-9.66,31.98,22.74
1554117697258,2.7742812999999997,-8.93576,3.5775358999999995,1.0024139,-0.61678815,1.0972224,-8.7,32.34,22.2
1554117697277,2.5450362999999996,-8.836999,3.5769374,0.9672601000000001,-0.6135923000000001,1.1249193000000002,-7.62,32.82,21.6
1554117697298,2.3744495,-8.698134,3.5817258,0.9044095,-0.60293967,1.1536813999999997,-6.54,33.3,20.88
1554117697317,2.1918917,-8.523956,3.4566288,0.8788431999999999,-0.59228706,1.160073,-5.34,33.78,20.22
1554117697337,2.0296845,-8.460510000000001,3.328539,0.84581995,-0.6040049,1.1590078000000001,-4.14,34.32,19.56
1554117697358,1.8267759,-8.492832,3.2501287,0.7776430000000001,-0.62317973,1.1504856,-2.88,34.92,18.96
1554117697378,1.6735470000000001,-8.640075999999999,3.2501287,0.67324716,-0.660464,1.1451592,-1.8,35.4,18.48
1554117697398,1.5346833,-8.694544,3.2513257999999996,0.62744075,-0.71798825,1.1462245,-0.84,35.7,18.0
1554117697418,1.3928268,-8.734048,3.2381577,0.6348976,-0.79681784,1.1547466999999998,0.12,36.0,17.46
1554117697438,1.3724761,-8.817844000000001,3.163339,0.6380934,-0.9012136999999999,1.1675298,1.14,36.24,16.98
1554117697458,1.3700819,-8.779537,3.2650926,0.6242449999999999,-0.9864349,1.1845741,2.22,36.48,16.44
1554117697478,1.3072342,-8.67958,3.3524809999999996,0.6348976,-1.051416,1.1867046,3.12,36.72,15.84
1554117697497,1.216853,-8.592789999999999,3.3081882000000005,0.62104917,-1.1142666,1.1856394,4.02,36.84,15.12
1554117697517,1.1414356,-8.529344,3.4057519999999997,0.62744075,-1.1632688,1.1813782,4.92,36.96,14.28
1554117697539,1.0354922,-8.347384,3.5392287000000002,0.6242449999999999,-1.2058792999999999,1.1771171999999999,5.82,36.96,13.56
1554117697560,1.0755951000000001,-8.537125,3.6727053999999995,0.5816344,-1.2420983,1.1707256000000001,6.66,37.02,12.84
1554117697579,1.2473791,-8.607155,3.7134068,0.51984906,-1.2431636000000001,1.1867046,7.5,36.96,12.18
1554117697599,1.2204443,-8.560468,3.8379053999999995,0.51665324,-1.1856394,1.1888351000000001,8.16,36.96,11.16
1554117697619,1.0109516,-8.650849000000001,4.0078936,0.5592638000000001,-1.1472898999999999,1.1749867,8.94,36.96,10.8
1554117697638,0.9235633,-8.791509,4.295198,0.61572284,-1.1345067,1.1813782,9.96,36.9,10.14
1554117697658,0.92535895,-8.875306,4.3520603,0.6348976,-1.1259845,1.200553,10.92,36.84,9.48
1554117697678,0.90141696,-8.702923,4.437054,0.54648066,-1.0887003,1.2325108999999999,11.7,36.78,9.0
1554117697698,0.9199719999999999,-8.664017999999999,4.753089,0.4282363,-1.0258497,1.2772521000000001,12.12,36.72,8.7
1554117697717,0.9636662,-8.5538845,4.868608999999999,0.34194988,-0.94275904,1.3113406,12.9,36.6,8.1
1554117697737,0.7613561,-8.416816,4.8733974,0.2790993,-0.82344943,1.325189,13.68,36.48,7.44
1554117697758,0.39743748,-8.401254,5.0882773,0.19813919,-0.69987875,1.3401027,15.18,36.12,6.54
1554117697778,0.13168110000000002,-8.453327,5.3660045,0.20879184,-0.6327670999999999,1.3624732,16.14,35.82,5.88
1554117697797,-0.047884032,-8.579621000000001,5.556343599999999,0.24181503,-0.5933523,1.397627,16.98,35.46,5.28
1554117697818,-0.15023616,-8.479065,5.522825,0.27057716,-0.5550028,1.433846,17.82,35.1,4.62
1554117697838,-0.41180268,-8.273164,5.365406,0.27377295,-0.4889564,1.4668691,18.66,34.62,4.02
1554117697859,-0.66738373,-8.111555000000001,5.429451,0.24501082,-0.45167214,1.470065,19.56,34.02,3.48
1554117697877,-0.7835025,-8.054094000000001,5.461174,0.2034655,-0.43462790000000007,1.4711303,20.4,33.42,3.0
1554117697897,-0.7882909,-7.9828672,5.482722,0.18109496,-0.39840892,1.4679343999999999,21.24,32.82,2.52
1554117697918,-0.8206126,-7.914034,5.539584,0.15659387,-0.3685815,1.4572818,21.96,32.34,2.16
1554117697938,-0.75956047,-7.7494326000000004,5.6108117,0.12357068,-0.32384038,1.4658038999999998,22.74,31.74,1.8
1554117697959,-0.79966336,-7.387908,5.565322,0.10652645,-0.23542345,1.4583471000000001,23.4,31.02,1.38
1554117697977,-0.96306765,-7.286154300000001,5.524022,0.082025364,-0.17044231,1.401888,24.12,30.24,1.02
1554117697997,-0.93852705,-7.083844,5.737106,0.010652645,-0.096939065,1.3571468999999998,25.08,29.34,0.66
1554117698018,-1.0127473,-7.057508,5.5545480000000005,-0.024501082,0.03089267,1.3092101,25.98,28.44,0.36
1554117698037,-1.1905168,-7.074866,5.6108117,-0.049002163,0.17150758,1.2271847,26.82,27.54,0.0
1554117698057,-1.2587515,-7.1454949999999995,5.8747725,-0.046871635999999994,0.29827404,1.1217233999999998,27.6,26.52,-0.36
1554117698078,-1.2378023,-7.268796400000001,5.740697,0.002130529,0.43036684,1.0279802,28.26,25.44,-0.6
1554117698098,-1.1001357,-7.561487700000001,5.5976434,-0.018109497,0.62744075,0.98750013,28.92,24.3,-0.84
1554117698118,-1.0354922,-7.4884644,5.2899885,-0.10333065,0.8841694999999999,0.93423694,29.46,23.4,-0.96
1554117698138,-1.4185646,-7.374141000000001,5.0403934,-0.18109496,1.2314457,0.8426242,29.94,22.56,-0.96
1554117698157,-1.9656396,-7.208941499999999,4.7441106,-0.28229508,1.4956313,0.8064051999999999,30.3,21.78,-0.78
1554117698177,-2.9251158,-7.056909599999999,4.256891,-0.51452273,1.5957662000000001,0.8447546999999999,30.66,21.06,-0.48
1554117698197,-3.8810010000000004,-7.2867527,3.4703953000000003,-0.99495703,1.5180018,0.9576728000000001,30.96,20.16,0.0
1554117698217,-4.4436383,-7.5112095000000005,3.1657330000000004,-1.5968314,1.3486248,1.0769824,31.32,19.14,0.66
1554117698238,-4.7506948,-7.3364325,3.9612067000000004,-2.0762005,1.2144015,1.1867046,31.62,18.06,1.44
1554117698258,-5.3205147,-8.271967,3.1405939999999997,-2.3094932999999997,0.80747044,1.3273195,31.92,16.92,2.34
1554117698278,-4.900931,-8.104971,2.4109612,-2.437325,0.47830373,1.3166668,32.1,15.6,3.36
1554117698298,-4.6812629999999995,-7.265205,2.7329812,-2.0357203,0.19600865,0.94275904,32.28,14.16,4.5
1554117698317,-5.3103394999999995,-7.797915,3.4973302000000004,-0.96939063,-0.014913702,0.5571333,32.4,12.6,5.58
1554117698337,-5.131373,-7.8649526,3.776853,0.27164245,-0.15126756,0.3653857,32.46,11.1,6.6
1554117698358,-4.797382,-7.6722193,3.5392287000000002,1.3230585,-0.12144015,0.19281286,32.52,9.66,7.38
1554117698378,-4.630985,-6.7863646,3.4548330000000003,1.8887137999999999,0.026631612000000002,0.04474111,32.58,8.4,8.04
1554117698398,-5.067328,-6.658873599999999,2.7323828,2.0932446,0.165116,-0.06604639400000001,32.58,7.38,8.52
1554117698418,-5.145139,-6.846818400000001,2.492364,1.8503643,0.28655612,-0.10439592,32.58,6.48,8.88
1554117698437,-4.945224,-6.345831400000001,2.735974,1.4189322,0.40906155,-0.15020229,32.64,5.88,9.18
1554117698457,-4.938639599999999,-6.0501475,2.8107927000000004,0.7637946,0.49002165,-0.20453078,32.64,5.52,9.24
1554117698478,-5.4126916,-6.3009405,2.8072014,-0.008522116,0.46765109999999993,-0.20772657,32.7,5.52,9.18
1554117698498,-5.7879825,-7.1951747,2.665345,-0.6317018,0.37071204,-0.1438107,32.7,5.76,9.12
1554117698518,-6.0411696,-7.9337860000000004,3.019687,-0.93849796,0.32810146,0.010652645,32.7,6.06,9.06
1554117698538,-6.5481415,-7.914034,4.1838675,-0.5209143,0.2790993,-0.01917476,32.7,6.36,9.06
1554117698558,-6.658873599999999,-7.5566993,3.8325183,0.05965481,0.2130529,0.053263225,32.64,6.9,9.06
1554117698578,-6.918046,-7.629123700000001,3.2752678,0.14061491,0.20453078,0.31638354,32.64,7.2,9.06
1554117698598,-6.8611835999999995,-7.240066000000001,4.1533413,0.21624869,0.22903186,0.37071204,32.58,7.38,9.18
1554117698618,-6.5391636,-6.619369,4.19943,0.51452273,0.23542345,0.36964676,32.58,7.5,9.3
1554117698638,-6.233304,-6.205172,4.1198225,0.7978831000000001,0.26631612,0.43995422,32.52,7.44,9.48
1554117698657,-6.117185,-5.934029,4.0216603,0.97471696,0.26205507,0.4079963,32.52,7.26,9.66
1554117698678,-6.213552,-5.556343599999999,3.7247794,1.0375676,0.22690132,0.28975195,32.46,7.08,9.84
1554117698697,-6.2979474,-5.4126916,3.2728736,0.96619487,0.15446335,0.18748654,32.4,6.96,9.96
1554117698717,-6.2315083,-5.4408236,2.8365304,0.71798825,0.07456851,0.13954964,32.4,6.78,10.08
1554117698737,-6.3703723,-5.4504004,2.7647044999999997,0.39414784,0.014913702,0.12037488,32.4,6.6,10.2
1554117698758,-6.5792660000000005,-5.7496753,2.873042,0.10439592,-0.035153727999999995,0.14807177,32.34,6.48,10.32
1554117698778,-6.6044054,-6.218340400000001,3.0741549999999997,-0.12570119999999999,-0.034088463,0.22264028,32.28,6.3,10.32
1554117698798,-6.5744777,-6.341043,3.441665,-0.22903186,-0.0031957934000000003,0.2876214,32.28,6.18,10.38
1554117698818,-6.5505357,-6.257845,3.7193922999999995,-0.18642128,0.03195793,0.31851408,32.28,6.18,10.38
1554117698838,-6.5948286,-6.1106014,3.9270894999999997,-0.04261058,0.06391586,0.34940675,32.22,6.18,10.44
1554117698857,-6.5990186,-5.997475,4.052785,0.15659387,0.09054748,0.3653857,32.22,6.12,10.44
1554117698877,-6.601413000000001,-5.738901599999999,4.032433999999999,0.34301516,0.10759171,0.34621096,32.22,6.0,10.44
1554117698898,-6.63553,-5.4498014,3.8977604,0.47830373,0.111852765,0.32277513,32.28,5.76,10.38
1554117698918,-6.697779,-5.273828,3.8624457999999997,0.55074173,0.112918034,0.32277513,32.28,5.46,10.38
1554117698938,-6.707356,-5.148132299999999,3.781043,0.5454154,0.11717909,0.32277513,32.28,5.16,10.38
1554117698958,-6.7881603,-5.026028,3.7427358999999996,0.4708469,0.11930962,0.31318775,32.28,4.8,10.38
1554117698977,-6.950966,-5.036802,3.7367504,0.3323625,0.11717909,0.28229508,32.28,4.38,10.38
1554117698997,-6.9904703999999995,-4.975151,3.7002387000000003,0.15765914,0.094808534,0.25033715,32.28,3.96,10.32
1554117699018,-6.975507,-4.9164934,3.74094,-0.06924219,0.054328485999999995,0.2428803,32.28,3.54,10.32
1554117699038,-6.933608,-4.9703627,3.8666358,-0.16298546,0.02130529,0.22050974,32.22,3.24,10.32
1554117699058,-6.898293499999999,-5.139154,3.9731777000000004,-0.16298546,-0.00958738,0.19813919,32.22,3.0,10.26
1554117699078,-6.9671270000000005,-5.1319714,4.1162314,-0.10759171,-0.017044231,0.18002969,32.16,2.88,10.26
1554117699098,-7.03596,-5.0397944,4.1383777,-0.034088463,-0.026631612000000002,0.14274544,32.16,2.7,10.26
1554117699118,-7.0664864000000005,-4.957195,4.105457299999999,0.0,-0.025566347000000003,0.11717909,32.16,2.64,10.26
1554117699138,-7.041347,-4.84347,4.11683,0.002130529,-0.027696876000000002,0.10013486,32.16,2.52,10.32
1554117699158,-7.0455369999999995,-4.7949877,4.032433999999999,-0.004261058,-0.024501082,0.08841695,32.16,2.4,10.32
1554117699178,-7.1125746,-4.824915,3.9091327000000007,-0.027696876000000002,-0.01917476,0.08841695,32.16,2.22,10.32
1554117699198,-7.208342599999999,-4.860828,3.8696284,-0.04474111,-0.017044231,0.07989483,32.22,2.04,10.38
1554117699217,-7.252635499999999,-4.817732299999999,3.8283286,-0.06285059999999999,-0.015978966,0.07137272,32.22,1.86,10.44
1554117699237,-7.3352356,-4.887164,3.755904,-0.080960095,-0.02130529,0.07350325,32.28,1.68,10.44
1554117699258,-7.323264599999999,-4.9703627,3.6703112,-0.13635385,-0.034088463,0.07669904,32.34,1.5,10.44
1554117699279,-7.37055,-5.0158525,3.7116113,-0.1949434,-0.056459017,0.07989483,32.34,1.32,10.44
1554117699298,-7.421427,-5.0421886,3.7229836000000005,-0.22264028,-0.07669904,0.101200126,32.4,1.14,10.44
1554117699318,-7.4399820000000005,-5.068525,3.7277720000000003,-0.21092236,-0.09161274,0.13102753,32.4,1.08,10.38
1554117699338,-7.4034699999999996,-5.090072599999999,3.693056,-0.19281286,-0.10652645,0.14913702,32.46,0.9,10.38
1554117699358,-7.380127000000001,-5.121197,3.7936125,-0.17470337,-0.12144015,0.15765914,32.46,0.66,10.38
1554117699377,-7.385514,-5.073912,3.9193082,-0.13741912,-0.12144015,0.17576863,32.4,0.42,10.32
1554117699397,-7.352593400000001,-4.9901147,3.8995559999999996,-0.09267801,-0.1107875,0.1949434,32.4,0.18,10.32
1554117699418,-7.345411,-4.9027267,3.8857894,-0.07030745599999999,-0.10333065,0.2034655,32.4,0.0,10.26
1554117699438,-7.349601,-4.823718,3.904943,-0.07030745599999999,-0.08841695,0.20985709,32.4,-0.24,10.26
1554117699457,-7.3807254,-4.802768700000001,3.915717,-0.06285059999999999,-0.08522116,0.21092236,32.4,-0.48,10.2
1554117699477,-7.3268557,-4.8279076,3.8965633,-0.07243799,-0.07456851,0.20985709,32.4,-0.72,10.14
1554117699498,-7.398083,-4.823718,3.8163576,-0.111852765,-0.054328485999999995,0.19707392,32.46,-0.96,10.08
1554117699518,-7.4758949999999995,-4.8901567,3.7828386,-0.14274544,-0.04474111,0.1949434,32.46,-1.02,10.02
1554117699538,-7.398083,-4.917092,3.7966053,-0.13848437,-0.03089267,0.19813919,32.46,-1.14,10.02
1554117699558,-7.511808,-4.841674299999999,3.743933,-0.12570119999999999,-0.018109497,0.20133498,32.52,-1.26,9.96
1554117699577,-7.568071400000001,-4.745906400000001,3.6816837999999996,-0.11611383,-0.014913702,0.22583607,32.52,-1.38,9.96
1554117699597,-7.629722,-4.705803400000001,3.5284547999999996,-0.10546118,-0.004261058,0.26738137,32.52,-1.74,9.96
1554117699618,-7.696759700000001,-4.6016555,3.4278982000000005,-0.113983296,0.0031957934000000003,0.29933932,32.52,-2.1,9.96
1554117699638,-7.705738,-4.5100775,3.4739866000000004,-0.13848437,0.010652645,0.32384038,32.52,-2.4,9.9
1554117699658,-7.675211999999999,-4.4262805,3.5338415999999997,-0.14594123,0.02130529,0.34621096,32.52,-2.88,9.9
1554117699679,-7.6572556,-4.375403400000001,3.5517980000000002,-0.14274544,0.035153727999999995,0.34727620000000003,32.52,-3.3,9.84
1554117699698,-7.620145299999999,-4.3664255,3.4763808,-0.14168017,0.05006743,0.34194988,32.52,-3.84,9.84
1554117699718,-7.5890207,-4.3664255,3.5751417,-0.1438107,0.06285059999999999,0.330232,32.52,-4.32,9.78
1554117699737,-7.5219830000000005,-4.3520603,3.6367924,-0.15446335,0.07030745599999999,0.30040458,32.52,-4.8,9.78
1554117699757,-7.512406299999999,-4.3807906999999995,3.6553473,-0.14594123,0.07137272,0.27057716,32.52,-5.1,9.78
1554117699778,-7.447763,-4.3598413,3.7181952000000003,-0.13315806,0.068176925,0.24074976,32.52,-5.46,9.72
1554117699798,-7.507617999999999,-4.3526587,3.7445314,-0.12783173,0.06924219,0.21092236,32.46,-5.76,9.72
1554117699818,-7.5231805,-4.3305125,3.70802,-0.12783173,0.05965481,0.16298546,32.46,-6.06,9.72
1554117699837,-7.5794440000000005,-4.3185415,3.7056258,-0.13848437,0.051132694000000006,0.12357068,32.46,-6.3,9.72
1554117699858,-7.658452499999999,-4.3436804,3.7277720000000003,-0.13209279,0.046871635999999994,0.080960095,32.4,-6.54,9.72
1554117699878,-7.759608,-4.374805,3.7032316,-0.10865697,0.04580637,0.051132694000000006,32.4,-6.72,9.78
1554117699898,-7.9236107,-4.334103599999999,3.6200330000000003,-0.09161274,0.04474111,0.023435817999999997,32.34,-6.96,9.78
1554117699918,-7.991845,-4.268862,3.5853171,-0.07456851,0.027696876000000002,0.0063915867,32.34,-7.14,9.78
1554117699937,-7.9846625,-4.240131400000001,3.5206735,-0.06391586,0.014913702,0.01917476,32.34,-7.38,9.72
1554117699957,-7.939771,-4.206013700000001,3.4440591,-0.05006743,0.002130529,0.023435817999999997,32.28,-7.5,9.66
1554117699978,-7.9307933,-4.1904516,3.3387144,-0.036218993,-0.0031957934000000003,0.014913702,32.28,-7.68,9.6
1554117699998,-8.009802,-4.200627,3.3063924,-0.03834952,-0.008522116,0.004261058,32.28,-7.8,9.54
1554117700018,-7.912836599999999,-4.1916485,3.3788169999999997,-0.046871635999999994,-0.015978966,-0.002130529,32.28,-7.98,9.48
1554117700038,-7.888296,-4.24073,3.3375172999999996,-0.05006743,-0.02130529,0.0063915867,32.28,-8.1,9.42
1554117700060,-7.892486,-4.1665095999999995,3.4207156000000003,-0.047936900000000005,-0.024501082,0.0010652645,32.22,-8.16,9.36
1554117700079,-7.9391727,-4.1683053999999995,3.4464532999999995,-0.035153727999999995,-0.023435817999999997,-0.011717908999999999,32.16,-8.28,9.36
1554117700099,-7.9487495,-4.1784806,3.4853592000000004,-0.027696876000000002,-0.018109497,-0.024501082,32.1,-8.4,9.36
1554117700119,-7.9529395,-4.207211,3.494936,-0.024501082,-0.010652645,-0.034088463,32.04,-8.46,9.3
1554117700139,-7.991845,-4.2251673,3.4452562000000007,-0.02130529,-0.0053263223,-0.041545313,31.98,-8.52,9.3
1554117700158,-7.9565306,-4.23654,3.425504,-0.014913702,-0.0063915867,-0.040480047000000005,31.92,-8.64,9.3
1554117700177,-7.9032598,-4.2862196,3.5176809999999996,0.0031957934000000003,-0.002130529,-0.034088463,31.92,-8.82,9.3
1554117700197,-7.8787193,-4.292804,3.470994,0.02876214,0.004261058,-0.03089267,31.92,-9.0,9.3
1554117700219,-7.9266033,-4.221576,3.4476504,0.05006743,0.012783173500000002,-0.037284255,31.92,-9.18,9.3
1554117700238,-7.8954787,-4.226364599999999,3.4027589999999996,0.051132694000000006,0.020240024,-0.040480047000000005,31.92,-9.36,9.36
1554117700258,-7.915829,-4.2161894,3.453636,0.04580637,0.029827405,-0.047936900000000005,31.98,-9.54,9.42
1554117700278,-7.8811135,-4.2251673,3.4931402,0.040480047000000005,0.035153727999999995,-0.054328485999999995,32.04,-9.66,9.54
1554117700297,-7.8332295,-4.262876,3.5033157,0.047936900000000005,0.040480047000000005,-0.054328485999999995,32.04,-9.78,9.6
1554117700317,-7.868544,-4.252701,3.5500026,0.07137272,0.046871635999999994,-0.06178534,32.1,-9.9,9.66
1554117700337,-7.8062944000000005,-4.268862,3.5236663999999998,0.10013486,0.05219796,-0.082025364,32.1,-9.9,9.78
1554117700358,-7.7649946,-4.376600700000001,3.5182792999999997,0.12996227,0.05752428,-0.10972224,32.1,-9.78,9.84
1554117700379,-7.6919713000000005,-4.433463,3.4608185,0.13741912,0.05752428,-0.12570119999999999,32.1,-9.72,9.9
1554117700397,-7.6800003,-4.451419400000001,3.4751837,0.1470065,0.07030745599999999,-0.14168017,32.16,-9.54,9.9
1554117700417,-7.723694999999999,-4.505289,3.4811692,0.16085494,0.08522116,-0.16618125,32.16,-9.42,9.9
1554117700437,-7.820061,-4.554370400000001,3.5751417,0.17150758,0.101200126,-0.18535602,32.16,-9.3,9.96
1554117700458,-7.773973,-4.574721,3.6415808,0.20453078,0.10865697,-0.18855181,32.16,-9.18,9.96
1554117700478,-7.731476,-4.56275,3.6553473,0.25353295,0.11930962,-0.18642128,32.16,-9.0,9.96
1554117700498,-7.7608047000000004,-4.541201999999999,3.6870705999999998,0.29614353,0.13422333,-0.19387813,32.16,-8.7,9.96
1554117700518,-7.7997108,-4.5142674000000005,3.7038300000000004,0.3334278,0.1438107,-0.20453078,32.16,-8.58,10.02
1554117700537,-7.7907324000000004,-4.4957123,3.7140055,0.36645097,0.1587244,-0.21624869,32.1,-8.4,10.02
1554117700557,-7.7614035999999995,-4.487332299999999,3.6918589999999996,0.39414784,0.17257284,-0.21837921,32.04,-8.28,10.14
1554117700578,-7.6734165999999995,-4.546589,3.7074212999999996,0.43356264,0.18642128,-0.22796659,32.04,-8.04,10.32
1554117700598,-7.5471225,-4.6160207,3.7253778,0.47936899999999993,0.1949434,-0.25033715,31.98,-7.74,10.44
1554117700618,-7.4339960000000005,-4.633379,3.657143,0.5305017,0.20559604,-0.27803403,31.98,-7.26,10.62
1554117700638,-7.504027000000001,-4.6818614,3.5739446000000004,0.5773733,0.22903186,-0.3153183,31.92,-6.9,10.74
1554117700658,-7.45315,-4.722563,3.5757402999999996,0.5944176,0.25246766,-0.350472,31.92,-6.54,10.92
1554117700678,-7.415441,-4.746505,3.5535938999999996,0.60507023,0.28016454,-0.36964676,31.92,-6.18,11.1
1554117700698,-7.41185,-4.7782279999999995,3.5649664,0.62104917,0.30999196,-0.386691,31.92,-5.82,11.22
1554117700717,-7.4310035999999995,-4.831499,3.5152867,0.6444850000000001,0.3323625,-0.40266997,31.92,-5.4,11.34
1554117700738,-7.396886299999999,-4.8452660000000005,3.5697547999999997,0.69348717,0.36645097,-0.43036684,31.98,-4.92,11.4
1554117700757,-7.384915400000001,-4.8506527,3.5715504,0.7339671999999999,0.39201729999999996,-0.45380265,31.98,-4.44,11.52
1554117700777,-7.322665700000001,-4.8542438,3.5799300000000005,0.77125144,0.4133226,-0.48363006,31.86,-4.02,11.58
1554117700798,-7.2885485,-4.8458643,3.5506010000000003,0.8159926,0.44847634,-0.5091964,31.8,-3.42,11.7
1554117700818,-7.3124905,-4.9164934,3.5224693,0.86179894,0.4889564,-0.5518069999999999,31.68,-2.82,11.88
1554117700838,-7.282563000000001,-4.906317700000001,3.425504,0.88843054,0.5251754,-0.59122175,31.56,-2.1,12.12
1554117700857,-7.2640080000000005,-4.9733553,3.3770216,0.9129315999999998,0.5635249,-0.61891866,31.44,-1.32,12.42
1554117700877,-7.36217,-5.018845,3.3369186,0.92464954,0.60080916,-0.65726817,31.26,-0.42,12.72
1554117700897,-7.378331,-5.0038815,3.3321302000000004,0.94488955,0.62104917,-0.6988135,31.14,0.54,13.14
1554117700919,-7.367557000000001,-4.9895163,3.2668881,0.96619487,0.63915867,-0.71479243,30.96,1.32,13.5
1554117700938,-7.426214999999999,-4.9972973,3.2267854,0.98110855,0.6530071,-0.7275756,30.78,2.04,13.86
1554117700958,-7.561487700000001,-5.0320134,3.2148144,0.9832390999999999,0.6668556,-0.74461985,30.54,2.76,14.28
1554117700978,-7.665635000000001,-5.0703206,3.288436,0.97471696,0.68176925,-0.74461985,30.36,3.54,14.64
1554117700997,-7.7039423,-5.109825,3.3201592000000004,0.9800433000000001,0.700944,-0.7307714,30.0,4.38,15.0
1554117701018,-7.732672999999999,-5.1475334,3.2920272000000006,0.9938916999999999,0.7222493000000001,-0.71585774,29.64,5.4,15.3
1554117701038,-7.7440453,-5.130774,3.301604,1.0045444,0.74035877,-0.6988135,29.28,6.3,15.54
1554117701058,-7.778163,-5.133767,3.2489316,1.015197,0.7595335999999999,-0.6828345,28.92,7.32,15.72
1554117701078,-7.7614035999999995,-5.0864816,3.12982,1.0098706,0.7637946,-0.6689861,28.56,8.58,15.9
1554117701097,-7.699753,-4.96318,3.0855273999999997,0.99921805,0.76485986,-0.6306366,28.26,9.78,16.08
1554117701117,-7.747636999999999,-4.899135,3.0250738,0.97897804,0.7574029999999999,-0.6061354999999999,27.9,10.98,16.26
1554117701138,-7.851186,-4.809353,2.9472623,0.9267801,0.73290193,-0.5997439,27.24,12.6,16.56
1554117701158,-7.881711999999999,-4.7818192999999996,2.9724014,0.88203895,0.7030744999999999,-0.5901565,26.82,13.56,16.74
1554117701178,-7.8709383,-4.8255134,2.9963433999999998,0.84368944,0.6764429,-0.57311225,26.34,14.46,16.92
1554117701198,-7.844003,-4.888361499999999,3.0711622000000003,0.81705785,0.6466155,-0.56459016,25.86,15.24,17.1
1554117701218,-7.731476,-4.900332499999999,3.0783447999999995,0.81066626,0.6317018,-0.5571333,25.38,16.02,17.22
1554117701237,-7.635708,-4.9398365,3.0184898,0.8127968000000001,0.6327670999999999,-0.55074173,24.9,16.74,17.4
1554117701257,-7.641692999999999,-4.868608999999999,2.932897,0.80107886,0.6348976,-0.54648066,24.42,17.52,17.46
1554117701277,-7.785345599999999,-4.8105497,2.902371,0.7637946,0.63915867,-0.5422196,23.94,18.3,17.52
1554117701297,-7.7578119999999995,-4.8141413,2.843713,0.70627034,0.63383234,-0.53476274,23.52,19.02,17.52
1554117701318,-7.6800003,-4.808754,2.8407204,0.6562029,0.62104917,-0.5251754,23.16,19.62,17.58
1554117701339,-7.699153999999999,-4.8644195,2.8389246,0.6221144000000001,0.608266,-0.5209143,22.74,20.22,17.58
1554117701359,-7.7039423,-4.819528,2.9095535,0.608266,0.59228706,-0.5113269,22.26,20.82,17.58
1554117701378,-7.589619,-4.8404775,2.8820202,0.60720074,0.5752428,-0.5049353,21.78,21.36,17.58
1554117701398,-7.517792999999999,-4.8722005,2.7694929,0.5944176,0.572047,-0.51452273,21.24,21.84,17.64
1554117701418,-7.474099000000001,-4.9278655,2.6922797999999997,0.56459016,0.5635249,-0.5411543000000001,20.76,22.32,17.64
1554117701438,-7.568670299999999,-4.9637785,2.6168625,0.53476274,0.55287224,-0.5763081,20.4,22.8,17.76
1554117701457,-7.5453267,-5.039196,2.5582043999999997,0.47617322,0.52411014,-0.5858955,20.1,23.34,17.82
1554117701477,-7.4483614000000005,-5.213972599999999,2.5061307,0.4261058,0.50173956,-0.59122175,19.5,23.94,17.94
1554117701498,-7.4016747,-5.363012,2.416348,0.39734364,0.48149952,-0.5954828000000001,19.02,24.6,18.06
1554117701517,-7.3753386,-5.4767364999999995,2.4570496,0.38029942,0.46125950000000004,-0.58909124,18.48,25.26,18.12
1554117701538,-7.3777327999999995,-5.6245785,2.4366987,0.36432046,0.44528055,-0.5795039000000001,18.0,25.74,18.18
1554117701557,-7.4322004,-5.667674,2.4361002,0.35473305,0.44315,-0.567786,17.4,26.34,18.24
1554117701577,-7.522581599999999,-5.750872599999999,2.4516625,0.34194988,0.44421527,-0.5603291,16.86,26.76,18.24
1554117701598,-7.465121000000001,-5.8502316,2.4588451,0.31851408,0.43462790000000007,-0.53795856,16.26,27.18,18.24
1554117701618,-7.452551400000001,-5.8945246,2.473809,0.31105720000000003,0.4282363,-0.5134575,15.66,27.54,18.18
1554117701638,-7.7189064,-5.976526,2.552219,0.3174488,0.41864893,-0.5028047999999999,15.24,27.78,18.12
1554117701658,-7.7889365999999995,-6.010045,2.6449943,0.33981937,0.3898868,-0.47723848,14.88,28.02,18.12
1554117701678,-7.5746554999999995,-6.059724299999999,2.5504234,0.37923414,0.3568636,-0.42077947,14.46,28.2,18.18
1554117701697,-7.4735007,-6.1064115,2.5181017000000003,0.4261058,0.33875409999999995,-0.38775626,14.1,28.5,18.3
1554117701717,-7.4723034,-6.001665,2.4145525,0.47830373,0.314253,-0.36964676,13.74,28.8,18.36
1554117701737,-7.4806833,-5.9118824,2.3415293999999998,0.50387007,0.29507825,-0.3323625,13.5,29.16,18.42
1554117701759,-7.428011,-5.969343,2.2852653999999997,0.5028047999999999,0.26738137,-0.31212249999999997,13.2,29.52,18.48
1554117701777,-7.3507977,-5.9825115,2.2762873,0.49108690000000005,0.24714136,-0.294013,12.96,29.94,18.54
1554117701800,-7.356185000000001,-6.0447607,2.2415714,0.47617322,0.23116238,-0.27803403,12.72,30.36,18.6
1554117701817,-7.299322599999999,-6.0782795,2.2559366,0.46125950000000004,0.21731395,-0.257794,12.36,30.78,18.6
1554117701837,-7.1945763,-6.149507,2.3223755,0.45806372,0.21198763,-0.24181503,12.06,31.14,18.54
1554117701857,-7.2831616,-6.2644286,2.2493525,0.47510794,0.20559604,-0.23542345,11.76,31.38,18.36
1554117701878,-7.422623599999999,-6.201581,2.1954830000000003,0.50173956,0.20453078,-0.22050974,11.46,31.68,18.12
1554117701898,-7.357382,-6.1524997,2.1481974,0.51452273,0.20026971,-0.18535602,11.22,31.86,17.76
1554117701919,-7.285556,-6.159084,2.0506337,0.5049353,0.19920446,-0.13954964,10.8,32.1,17.22
1554117701938,-7.3627687,-6.1411276,2.070386,0.49534798,0.20879184,-0.12996227,10.68,32.22,17.04
1554117701958,-7.405266,-6.0531406,2.0907366,0.48363006,0.22370553,-0.12037488,10.5,32.46,16.68
1554117701978,-7.404069,-6.0262055,2.1470002999999998,0.46765109999999993,0.23542345,-0.10652645,10.38,32.76,16.32
1554117701997,-7.2789717000000005,-6.007651,2.2319946,0.44847634,0.23968449999999997,-0.09374327,10.32,33.12,15.78
1554117702017,-7.225102000000001,-6.0142345,2.4432828,0.43249738,0.25033715,-0.07563378,10.26,33.36,15.6
1554117702037,-7.177217999999999,-5.975329,2.6396074,0.43782368,0.25672874,-0.06391586,10.2,33.6,15.48
1554117702058,-7.1514807000000005,-5.919664,2.7952304,0.46658584,0.26844665,-0.053263225,10.14,33.84,15.36
1554117702078,-7.0964136,-5.925649,2.92751,0.5113269,0.28016454,-0.056459017,10.02,34.08,15.24
1554117702097,-7.0515227,-5.862801599999999,2.930503,0.5635249,0.28655612,-0.06285059999999999,9.96,34.26,15.12
1554117702118,-7.0227923,-5.74369,2.906561,0.60293967,0.28975195,-0.05219796,9.96,34.38,14.88
1554117702138,-6.994660400000001,-5.5246205,2.8449101000000003,0.6348976,0.28229508,-0.04261058,9.84,34.5,14.7
1554117702158,-6.930016999999999,-5.4055089999999995,2.843713,0.6508765999999999,0.27483824,-0.037284255,9.72,34.74,14.46
1554117702178,-6.9605426999999995,-5.193622,2.8628666000000003,0.6668556,0.2908172,-0.034088463,9.6,35.04,14.16
1554117702198,-7.20535,-5.0332108,2.6797101000000003,0.67218184,0.31851408,-0.04580637,9.48,35.34,13.8
1554117702218,-7.607576,-4.938041,2.4827871,0.60933125,0.3536678,-0.058589544,9.3,35.64,13.38
1554117702238,-7.8637557000000005,-4.9308586,2.3876176,0.47936899999999993,0.37603834,-0.06604639400000001,9.12,35.94,13.02
1554117702257,-8.073248,-5.062539599999999,2.331354,0.2972088,0.39201729999999996,-0.06604639400000001,8.94,36.24,12.72
1554117702277,-8.236053,-5.2079873,2.4744074,0.1107875,0.3898868,-0.054328485999999995,8.82,36.54,12.42
1554117702299,-8.325836,-5.379173000000001,2.6665419999999997,-0.022370555,0.35899413,-0.024501082,8.64,36.9,12.12
1554117702317,-8.297106,-5.429451,2.8257565,-0.09587380000000001,0.30679616,0.03195793,8.58,37.14,11.94
1554117702338,-8.271967,-5.5084596,2.9939492000000003,-0.12357068,0.25246766,0.07776430000000001,8.46,37.32,11.7
1554117702358,-7.996035000000001,-5.432443599999999,3.1824925,-0.10759171,0.17896444,0.14061491,8.34,37.44,11.58
1554117702377,-7.781753999999999,-5.3157263,3.1603463,-0.018109497,0.13741912,0.20133498,8.28,37.62,11.46
1554117702397,-7.633912,-5.218761,3.0190883,0.101200126,0.12783173,0.23435818,8.28,37.74,11.46
1554117702417,-7.45315,-5.073313,2.7563248,0.20026971,0.14807177,0.25353295,8.22,37.86,11.4
1554117702438,-7.3029137,-4.956596,2.441487,0.23009712,0.1949434,0.26312032,8.22,37.74,11.4
1554117702458,-7.177217999999999,-4.970961,2.2427685,0.20559604,0.24074976,0.26312032,8.28,37.68,11.4
1554117702478,-7.179612,-4.9877205,2.0721814999999997,0.17470337,0.28549087,0.25566345,8.4,37.62,11.4
1554117702498,-7.281964299999999,-5.068525,2.0242975,0.15446335,0.31105720000000003,0.22264028,8.58,37.56,11.4
1554117702518,-7.48188,-5.0517654,2.0368671000000003,0.13528858,0.31212249999999997,0.18109496,8.76,37.5,11.4
1554117702537,-7.7201033,-5.085883,2.1146786,0.096939065,0.28975195,0.14168017,9.0,37.44,11.46
1554117702557,-7.9337860000000004,-5.121197,2.2870612,0.039414786,0.23968449999999997,0.10759171,9.18,37.38,11.46
1554117702577,-8.268375,-5.121197,2.5821466,-0.012783173500000002,0.18855181,0.084155895,9.42,37.38,11.46
1554117702597,-8.701127,-5.0242324,2.8311436000000003,-0.054328485999999995,0.11824436,0.05539375,9.66,37.44,11.46
1554117702618,-8.93576,-4.9338512,3.0238767,-0.08841695,0.022370555,0.018109497,9.78,37.44,11.46
1554117702642,-8.981848,-4.80636,3.2279825,-0.10546118,-0.10865697,-0.004261058,9.9,37.38,11.46
1554117702657,-8.913014,-4.783615,3.2315737999999996,-0.10333065,-0.18855181,-0.004261058,9.9,37.38,11.46
1554117702678,-8.675988,-4.8494554,3.1783028,-0.082025364,-0.28336033,-0.0053263223,9.9,37.38,11.46
1554117702698,-8.355764,-4.931457,3.0442273999999996,-0.043675844000000005,-0.35260254,0.008522116,9.84,37.32,11.46
1554117702719,-7.896675599999999,-5.0960584,2.7563248,0.0063915867,-0.38029942,0.053263225,9.78,37.26,11.4
1554117702739,-7.514800500000001,-5.146935,2.521693,0.058589544,-0.35153726,0.10439592,9.72,37.2,11.4
1554117702759,-7.192182000000001,-5.146935,2.3002293,0.11504856,-0.28336033,0.14594123,9.66,37.2,11.34
1554117702779,-6.933608,-4.97156,2.15538,0.15233281,-0.19068234,0.18216023,9.6,37.14,11.34
1554117702798,-6.841431,-4.720168599999999,2.094328,0.16618125,-0.080960095,0.20240025,9.54,37.14,11.34
1554117702818,-6.943185000000001,-4.445434,2.0991162999999995,0.16405073,0.020240024,0.18961707,9.54,37.14,11.34
1554117702838,-7.1580644,-4.264672,2.2224178,0.13422333,0.099069595,0.15233281,9.54,37.14,11.28
1554117702858,-7.3938932,-4.1760864,2.348712,0.07243799,0.15126756,0.10652645,9.72,37.14,11.22
1554117702878,-7.5561004,-4.226963,2.498948,0.00958738,0.16405073,0.06498113,9.78,37.14,11.16
1554117702897,-7.797316599999999,-4.285621,2.6120741,-0.09054748,0.15552860000000002,0.0,10.08,37.14,11.1
1554117702918,-8.121132000000001,-4.392163,2.8532897999999998,-0.16937704,0.12783173,-0.06711166,10.44,37.2,11.04
1554117702938,-8.405443,-4.4723687000000005,2.9903579,-0.1949434,0.096939065,-0.101200126,10.68,37.2,10.98
1554117702957,-8.610147,-4.541201999999999,3.0998926,-0.20240025,0.040480047000000005,-0.128897,10.86,37.2,10.92
1554117702979,-8.695142,-4.6297874000000006,3.0550013,-0.20026971,-0.018109497,-0.112918034,11.04,37.14,10.92
1554117702999,-8.632295,-4.776432499999999,3.0352492,-0.18642128,-0.07030745599999999,-0.07137272,11.22,37.08,10.86
1554117703017,-8.47308,-4.9057193,2.9011737999999996,-0.14913702,-0.1107875,-0.024501082,11.28,36.96,10.86
1554117703039,-8.282143,-4.9625816,2.8221653,-0.09587380000000001,-0.12676647,0.02130529,11.28,36.78,10.86
1554117703059,-8.010401,-4.926668599999999,2.8161798,-0.02130529,-0.12676647,0.06604639400000001,11.28,36.66,10.92
1554117703078,-7.7518270000000005,-4.8404775,2.8574797999999997,0.058589544,-0.10439592,0.09161274,11.28,36.54,10.86
1554117703099,-7.630321,-4.673482,2.8048072,0.12144015,-0.07563378,0.07776430000000001,11.22,36.48,10.86
1554117703118,-7.5483193,-4.547786,2.8269536,0.15126756,-0.05965481,0.040480047000000005,11.22,36.36,10.92
1554117703138,-7.451353999999999,-4.4149080000000005,2.9436709999999997,0.15765914,-0.05539375,-0.0053263223,11.22,36.3,10.92
1554117703157,-7.4896617,-4.3981485000000005,3.0424318,0.1587244,-0.05752428,-0.07563378,11.16,36.36,10.92
1554117703177,-7.69257,-4.4436383,3.028665,0.15978967,-0.05752428,-0.13635385,11.1,36.36,10.98
1554117703197,-7.811083,-4.5232453,2.995745,0.13954964,-0.068176925,-0.20026971,11.04,36.42,10.98
1554117703217,-7.94037,-4.631583,2.9161377,0.084155895,-0.07243799,-0.2428803,11.04,36.42,10.98
1554117703238,-8.164227499999999,-4.894945,2.7587189999999997,-0.01917476,-0.07776430000000001,-0.2790993,10.98,36.48,10.98
1554117703260,-8.226477000000001,-5.0122614,2.834735,-0.10226539,-0.080960095,-0.27164245,10.98,36.48,11.04
1554117703277,-8.310274,-5.0643353,2.949058,-0.19600865,-0.10013486,-0.22477080000000002,10.92,36.54,11.04
1554117703297,-8.213308999999999,-5.1660886,3.0825348,-0.20453078,-0.11930962,-0.1768339,10.92,36.6,11.04
1554117703318,-8.095993,-5.119402,3.1992521000000003,-0.1438107,-0.13315806,-0.082025364,10.92,36.66,11.1
1554117703338,-8.003217999999999,-4.968567,3.2333694,-0.051132694000000006,-0.13528858,-0.024501082,10.92,36.66,11.1
1554117703358,-7.892486,-4.7542860000000005,3.1310172,0.03195793,-0.12783173,0.029827405,10.86,36.72,11.16
1554117703378,-7.8062944000000005,-4.706402,3.0771477000000003,0.07882957,-0.111852765,0.06604639400000001,10.86,36.78,11.16
1554117703397,-7.7428484,-4.6920366,2.9771897999999997,0.099069595,-0.08841695,0.083090626,10.8,36.84,11.16
1554117703417,-7.793725,-4.722563,2.9101522,0.10226539,-0.06498113,0.10013486,10.8,36.84,11.16
1554117703438,-7.869142500000001,-4.842871700000001,2.8532897999999998,0.09054748,-0.053263225,0.12676647,10.8,36.78,11.1
1554117703458,-7.983465700000001,-4.9877205,2.9167361,0.060720075,-0.053263225,0.165116,10.74,36.78,11.04
1554117703478,-8.037933,-5.0517654,2.9083563999999997,0.04474111,-0.07030745599999999,0.20772657,10.74,36.78,10.98
1554117703498,-8.147469000000001,-5.080496,3.0304607999999997,0.043675844000000005,-0.08628642,0.24607609,10.74,36.72,10.92
1554117703518,-8.126519,-4.96737,3.1561562999999997,0.07137272,-0.10439592,0.26418558,10.8,36.72,10.92
1554117703537,-8.144476,-4.817133999999999,3.2016463,0.10865697,-0.111852765,0.28016454,10.98,36.72,10.86
1554117703557,-8.056489,-4.6483426,3.2351650000000003,0.13635385,-0.11611383,0.30146983,11.22,36.66,10.86
1554117703578,-7.931989999999999,-4.279037000000001,3.2465374,0.14913702,-0.12570119999999999,0.29614353,11.4,36.66,10.86
1554117703598,-8.020576,-4.208408,3.169923,0.12250541,-0.12463594,0.2790993,11.58,36.66,10.86
1554117703618,-8.034941,-4.0880995,3.2495303,0.013848438000000001,-0.12250541,0.26844665,11.76,36.66,10.86
1554117703638,-7.945757,-3.9534256,3.2716765,-0.113983296,-0.12996227,0.26418558,12.0,36.6,10.86
1554117703658,-7.7787614000000005,-3.9737763,3.2369606,-0.2130529,-0.1470065,0.26525086,12.18,36.6,10.86
1554117703678,-7.6746134999999995,-4.211999400000001,3.4302924,-0.22583607,-0.1438107,0.25246766,12.42,36.6,10.86
1554117703698,-7.5644803,-4.26946,3.5643678,-0.18535602,-0.128897,0.23755397,12.48,36.48,10.86
1554117703718,-7.5734587,-4.1539397000000005,3.5913025999999997,-0.08522116,-0.07137272,0.19813919,12.54,36.42,10.86
1554117703737,-7.682993400000001,-4.159326999999999,3.4362779999999997,-0.024501082,-0.02130529,0.17044231,12.6,36.24,10.8
1554117703757,-7.77517,-4.1796775,3.4476504,-0.03089267,0.024501082,0.15233281,12.78,36.06,10.8
1554117703777,-7.799111999999999,-4.1718965,3.3997664,-0.05965481,0.05006743,0.13741912,12.96,35.94,10.8
1554117703797,-7.826047,-4.211999400000001,3.359065,-0.056459017,0.05752428,0.13635385,13.14,35.76,10.74
1554117703817,-7.877522,-4.183269,3.2638955000000003,-0.0010652645,0.05539375,0.113983296,13.26,35.64,10.68
1554117703838,-7.9714947,-4.2012253,3.1693244,0.04580637,0.046871635999999994,0.09267801,13.44,35.46,10.68
1554117703858,-8.100183,-4.0707417,3.1364042999999997,0.03834952,0.039414786,0.08522116,13.56,35.34,10.68
1554117703878,-8.228871,-4.0402154999999995,3.233968,0.0010652645,0.025566347000000003,0.07776430000000001,13.74,35.28,10.62
1554117703898,-8.243236999999999,-4.043208,3.3973722,-0.014913702,0.00958738,0.084155895,13.86,35.22,10.62
1554117703919,-8.248025,-4.136582,3.3836055,0.025566347000000003,-0.0031957934000000003,0.094808534,13.92,35.22,10.56
1554117703938,-8.268974,-3.9779660000000003,3.6373908999999998,0.10865697,0.0,0.094808534,14.04,35.22,10.56
1554117703958,-8.246229,-3.8642415999999997,3.5954924,0.20879184,-0.004261058,0.098004326,14.1,35.22,10.56
1554117703979,-8.161833999999999,-3.8025907999999995,3.627814,0.25140239999999997,-0.004261058,0.10759171,14.22,35.16,10.56
1554117703999,-8.182184,-3.8289269999999997,3.6679169999999996,0.27164245,-0.010652645,0.094808534,14.28,35.16,10.56
1554117704018,-8.133701,-3.8031895,3.7110126000000005,0.27696875,-0.022370555,0.07776430000000001,14.4,35.16,10.56
1554117704037,-8.052299,-3.6792896,3.7834373,0.28868666,-0.03089267,0.054328485999999995,14.52,35.16,10.56
1554117704057,-8.034343,-3.6182373,3.657143,0.30786142,-0.036218993,0.040480047000000005,14.64,35.1,10.5
1554117704078,-8.165425,-3.5924997000000003,3.503914,0.31957933,-0.03089267,0.026631612000000002,14.82,35.1,10.5
1554117704097,-8.325836,-3.685275,3.478775,0.32490566,-0.024501082,0.013848438000000001,14.88,35.1,10.5
1554117704117,-8.300098,-3.4973302000000004,3.6822822,0.35260254,-0.0053263223,0.01917476,15.0,35.1,10.38
1554117704138,-8.228272,-3.5116954,3.6816837999999996,0.41545314,0.05006743,0.037284255,15.12,35.16,10.32
1554117704157,-8.200739,-3.5793315999999997,3.6236242999999995,0.47510794,0.10972224,0.012783173500000002,15.24,35.16,10.14
1554117704178,-8.358158,-3.5422212999999996,3.5212722000000003,0.5400891,0.17150758,-0.039414786,15.3,35.22,9.96
1554117704198,-8.50181,-3.4769794999999997,3.5404258,0.58269966,0.20985709,-0.10439592,15.36,35.28,9.72
1554117704218,-8.349778,-3.3973722,3.7223851999999997,0.6593986999999999,0.20772657,-0.12676647,15.42,35.34,9.36
1554117704238,-8.160637,-3.3955764999999998,3.5865142,0.8000136,0.18002969,-0.11717909,15.42,35.46,9.0
1554117704258,-8.142081,-3.3566709,3.513491,0.93636745,0.17789917,-0.1470065,15.42,35.52,8.64
1554117704278,-8.183380999999999,-3.0370448,3.4434607,1.0088054,0.17576863,-0.19813919,15.48,35.7,8.34
1554117704298,-8.335413,-2.971803,3.3207579,0.93849796,0.19281286,-0.19281286,15.48,35.94,7.92
1554117704318,-8.294113000000001,-2.9179332000000002,3.3099839999999996,0.76485986,0.18002969,-0.16085494,15.48,36.12,7.5
1554117704338,-8.251616499999999,-2.9191303,3.1789012000000003,0.60933125,0.18961707,-0.15020229,15.42,36.24,7.02
1554117704358,-8.288725999999999,-3.031658,3.3261447,0.37923414,0.17789917,-0.11717909,15.36,36.42,6.54
1554117704378,-8.278551,-3.0903158,3.6721067,0.19068234,0.15446335,-0.14594123,15.24,36.6,6.12
1554117704398,-8.221688,-2.7694929,3.3889925,0.11824436,0.10759171,-0.16937704,15.18,36.84,5.64
1554117704418,-8.374918,-2.7371712,3.3470940000000002,0.09587380000000001,0.112918034,-0.16724652,15.06,37.02,5.22
1554117704438,-8.516175,-2.7934349,3.317765,0.096939065,0.112918034,-0.16298546,14.94,37.14,4.8
1554117704458,-8.556278,-2.8850130000000003,3.4326867999999995,0.09374327,0.099069595,-0.11717909,14.82,37.14,4.5
1554117704478,-8.476671000000001,-2.979584,3.4207156000000003,0.13741912,0.09054748,-0.099069595,14.76,37.2,4.26
1554117704499,-8.346786,-2.8431146000000003,3.2429460999999997,0.15978967,0.10759171,-0.13528858,14.64,37.32,4.14
1554117704518,-8.429385,-2.5791538,3.0867245,0.12357068,0.12463594,-0.15552860000000002,14.64,37.38,4.08
1554117704538,-8.662222,-2.517503,2.9538465,-0.0031957934000000003,0.11824436,-0.13954964,14.64,37.38,4.08
1554117704557,-8.790312,-2.7335799,2.8461072,-0.19068234,0.083090626,-0.09161274,14.58,37.44,4.08
1554117704578,-8.667010000000001,-2.92751,3.1878796,-0.33449304,0.05539375,-0.09161274,14.46,37.56,4.08
1554117704598,-8.713099,-3.196858,3.5176809999999996,-0.30253512,0.040480047000000005,-0.08735169,14.4,37.62,4.14
1554117704617,-8.666411,-3.3746273999999996,3.645172,-0.17363810000000002,0.024501082,-0.068176925,14.28,37.68,4.14
1554117704637,-8.418612,-3.2986114,3.690662,-0.041545313,0.03089267,-0.015978966,14.22,37.74,4.2
1554117704658,-8.291719,-3.3608606,3.4249055,0.09161274,0.017044231,-0.0031957934000000003,14.16,37.8,4.26
1554117704678,-8.406042,-3.4853592000000004,3.1705215,0.15552860000000002,0.036218993,-0.06285059999999999,14.1,37.86,4.32
1554117704698,-8.437764999999999,-3.311181,3.3907879999999997,0.07563378,0.036218993,-0.08841695,13.98,37.92,4.38
1554117704717,-8.340200999999999,-3.2453402999999996,3.3782187000000006,0.05965481,0.0053263223,-0.082025364,13.92,37.86,4.5
1554117704737,-8.325836,-3.4141315999999997,3.2076318,0.07456851,0.008522116,-0.07350325,13.86,37.86,4.56
1554117704757,-8.207322999999999,-3.5296519,3.210026,0.027696876000000002,0.007456851,-0.09054748,13.8,37.86,4.62
1554117704778,-8.328231,-3.702633,3.329736,-0.013848438000000001,0.04580637,-0.13102753,13.74,37.92,4.68
1554117704798,-8.318653999999999,-3.4165258,3.366846,-0.09054748,0.01917476,-0.14594123,13.68,37.92,4.68
1554117704818,-8.058883,-3.4362779999999997,3.5326445,-0.036218993,0.014913702,-0.12996227,13.62,37.92,4.68
1554117704838,-7.6949644,-3.762488,3.6152446000000005,0.096939065,0.004261058,-0.15233281,13.62,37.98,4.62
1554117704858,-7.6919713000000005,-3.714604,3.2309752,0.20453078,-0.0063915867,-0.28655612,13.56,37.98,4.62
1554117704878,-8.297705,-3.5954924,2.7192147,0.15552860000000002,-0.01917476,-0.35792887,13.56,37.98,4.62
1554117704898,-8.618527,-3.6990415999999997,2.9975405,-0.06498113,-0.03089267,-0.32277513,13.5,38.04,4.56
1554117704918,-8.3312235,-3.7104141999999998,3.4045547999999997,-0.35153726,-0.029827405,-0.2695119,13.5,38.1,4.56
1554117704937,-8.182184,-3.7122097000000003,3.4111388,-0.44634579999999996,-0.0031957934000000003,-0.26205507,13.44,38.16,4.56
1554117704957,-8.14268,-3.8301241000000004,3.3351230000000003,-0.4644553,0.035153727999999995,-0.28868666,13.38,38.22,4.56
1554117704977,-8.016386,-3.654749,3.508104,-0.42930159999999995,0.07030745599999999,-0.32277513,13.38,38.34,4.56
1554117704997,-8.061277,-3.5793315999999997,3.697246,-0.38562572,0.10333065,-0.33129725,13.32,38.46,4.68
1554117705017,-7.9762830000000005,-3.7193922999999995,3.8696284,-0.36964676,0.10013486,-0.32490566,13.26,38.52,4.8
1554117705037,-7.833828,-3.8977604,3.7834373,-0.29827404,0.083090626,-0.34940675,13.14,38.64,5.04
1554117705057,-7.905653999999999,-3.9923312999999996,3.6463692,-0.21411815,0.07669904,-0.40053943,13.02,38.7,5.28
1554117705078,-7.965509,-4.0294414,3.3800142,-0.10759171,0.010652645,-0.45167214,12.78,38.76,5.58
1554117705098,-8.073248,-4.132391999999999,3.3686419,-0.023435817999999997,-0.041545313,-0.45273739999999996,12.48,38.76,5.82
1554117705118,-8.078036,-4.214393599999999,3.3674447999999995,0.033023197000000004,-0.10759171,-0.44634579999999996,12.06,38.82,6.06
1554117705137,-8.052897,-4.1862617,3.3746273999999996,0.05006743,-0.14487597,-0.44101948,11.82,38.82,6.24
1554117705158,-8.151658,-4.059369,3.316568,0.013848438000000001,-0.24714136,-0.4314321,11.16,38.82,6.54
1554117705178,-8.024766,-4.1611223,3.5380316,-0.07989483,-0.30360037,-0.4101268,10.74,38.82,6.66
1554117705198,-7.8757267,-4.4406457,3.7594953,-0.13528858,-0.31638354,-0.39734364,10.32,38.88,6.66
1554117705218,-7.750629400000001,-4.5938745,3.8337154000000004,-0.10759171,-0.26844665,-0.40053943,10.02,38.88,6.72
1554117705238,-7.539341,-4.477157,3.7774517999999997,-0.02876214,-0.20879184,-0.40906155,9.84,39.0,6.72
1554117705257,-7.49026,-4.538808,3.714604,0.013848438000000001,-0.16298546,-0.41971418,9.72,39.12,6.72
1554117705277,-7.5584945999999995,-4.692635500000001,3.6373908999999998,-0.00958738,-0.14168017,-0.4314321,9.72,39.24,6.84
1554117705297,-7.6333137,-4.8722005,3.4721910000000005,-0.04474111,-0.14274544,-0.43995422,9.72,39.36,6.9
1554117705318,-7.459734,-4.9278655,3.3327288999999998,-0.07030745599999999,-0.14061491,-0.45806372,9.6,39.48,6.96
1554117705338,-7.377134,-4.9494133,3.2136172999999997,-0.080960095,-0.16085494,-0.47510794,9.48,39.6,7.02
1554117705358,-7.2981253,-5.009867,3.2980127,-0.083090626,-0.18535602,-0.49960902,9.24,39.72,7.08
1554117705378,-7.268796400000001,-5.1319714,3.4147300000000005,-0.053263225,-0.2130529,-0.52624065,8.94,39.84,7.08
1554117705398,-7.208941499999999,-5.4246626,3.366846,-0.02130529,-0.21411815,-0.5432849000000001,8.64,39.9,7.14
1554117705418,-7.152677499999999,-5.4695540000000005,3.3105824,0.011717908999999999,-0.1768339,-0.54648066,8.04,39.96,7.14
1554117705438,-7.1748237999999995,-5.511451999999999,3.365649,0.00958738,-0.15446335,-0.54435015,7.68,40.02,7.14
1554117705458,-7.235875999999999,-5.652710400000001,3.4650084999999997,-0.034088463,-0.14168017,-0.5305017,7.38,40.08,7.14
1554117705477,-7.131129700000001,-5.851429,3.4374752,-0.07456851,-0.10865697,-0.4878911,7.08,40.08,7.14
1554117705497,-7.055712,-5.960963700000001,3.4099417,-0.09374327,-0.06498113,-0.46019423,6.84,40.14,7.14
1554117705517,-7.2352777,-6.1782374,3.4476504,-0.068176925,-0.022370555,-0.45380265,6.54,40.14,7.14
1554117705537,-7.156867500000001,-6.4469867,3.5027169999999996,-0.00958738,-0.0031957934000000003,-0.42184472,6.3,40.14,7.2
1554117705558,-7.0545154000000005,-6.7486562999999995,3.4739866000000004,0.06924219,0.008522116,-0.38136467,6.12,40.2,7.2
1554117705578,-6.975507,-6.7504516,3.245939,0.12783173,0.00958738,-0.34834146,6.0,40.2,7.2
1554117705598,-7.1167645,-6.627749000000001,3.2255882999999996,0.12357068,-0.02130529,-0.2972088,5.82,40.2,7.2
1554117705618,-6.9761050000000004,-6.499658999999999,3.2507273999999997,0.06604639400000001,-0.08628642,-0.22583607,5.64,40.26,7.2
1554117705638,-6.9126587,-6.30513,3.3686419,0.03195793,-0.15446335,-0.16085494,5.46,40.26,7.2
1554117705658,-6.8599863,-6.1195793,3.5063082999999997,0.056459017,-0.21411815,-0.12250541,5.1,40.26,7.2
1554117705678,-6.893505,-5.975927400000001,3.614646,0.10013486,-0.25033715,-0.07137272,4.8,40.32,7.14
1554117705699,-6.861782000000001,-5.884349299999999,3.4003648999999996,0.12037488,-0.26738137,-0.012783173500000002,4.56,40.38,7.14
1554117705718,-7.0940194000000005,-5.803545,3.2255882999999996,0.083090626,-0.26418558,0.035153727999999995,4.32,40.44,7.08
1554117705737,-7.1101804,-5.7347116,3.128623,0.013848438000000001,-0.2695119,0.06178534,4.08,40.5,7.08
1554117705757,-6.898293499999999,-5.779603,3.3219550000000004,-0.09161274,-0.2727077,0.13528858,3.9,40.56,7.02
1554117705777,-6.731298,-5.9442043,3.3848026,-0.13102753,-0.27483824,0.22050974,3.72,40.62,7.02
1554117705798,-6.3470287,-5.940613,3.4189199999999995,-0.128897,-0.26631612,0.3536678,3.66,40.68,6.96
1554117705818,-6.184223,-5.875371,3.4985273,-0.07989483,-0.24501082,0.43462790000000007,3.78,40.74,6.96
1554117705838,-6.172251999999999,-5.7909755999999994,3.5350387000000003,-0.0031957934000000003,-0.21731395,0.49108690000000005,3.84,40.74,6.96
1554117705858,-6.183624299999999,-5.570708799999999,3.5583823,0.06498113,-0.19707392,0.50600064,3.96,40.68,6.9
1554117705878,-6.0399723,-5.246893,3.5817258,0.058589544,-0.18642128,0.49960902,4.14,40.62,6.9
1554117705898,-6.0327897,-5.1744685,3.6966474000000002,0.00958738,-0.17789917,0.46019423,4.38,40.56,6.9
1554117705918,-6.010045,-5.0966569999999995,3.6326025,-0.07243799,-0.17470337,0.41225734,4.62,40.5,6.9
1554117705938,-6.0968347000000005,-4.7866077,3.4398693999999996,-0.21731395,-0.18216023,0.39840892,4.92,40.5,6.9
1554117705958,-6.473323000000001,-4.6255975,3.3961751000000002,-0.4314321,-0.21837921,0.38242993,5.22,40.5,6.96
1554117705977,-6.623558999999999,-4.9458222,3.4404678,-0.67005134,-0.26205507,0.41971418,5.52,40.5,6.96
1554117705997,-6.4457892999999995,-5.3079453,3.4739866000000004,-0.7680557,-0.28016454,0.44634579999999996,5.88,40.5,7.02
1554117706018,-6.5792660000000005,-5.4091,3.4147300000000005,-0.7595335999999999,-0.28442562,0.4079963,6.24,40.5,7.08
1554117706038,-7.141903999999999,-5.561132,3.4111388,-0.73290193,-0.27164245,0.34408042,6.6,40.44,7.2
1554117706058,-7.374739599999999,-5.8484364,3.4141315999999997,-0.70627034,-0.22796659,0.22264028,7.02,40.26,7.5
1554117706078,-6.9808936,-5.7784057,3.5344403,-0.7456851,-0.18642128,0.03195793,7.44,40.02,7.74
1554117706098,-6.5655,-5.514444999999999,3.9264907999999994,-0.9470200999999999,-0.19813919,-0.10652645,7.8,39.78,8.1
1554117706118,-6.703166,-4.9787426,4.39755,-1.1632688,-0.23222765,-0.07669904,8.1,39.48,8.52
1554117706138,-6.974908,-4.5795093,4.2754455,-1.171791,-0.2790993,0.018109497,8.4,39.12,9.0
1554117706157,-7.037756,-4.4119152999999995,4.1826706,-1.0290455,-0.30360037,0.025566347000000003,8.64,38.76,9.6
1554117706177,-6.943185000000001,-4.3999443,3.9683892999999997,-0.82877576,-0.33981937,-0.112918034,8.82,38.34,10.32
1554117706198,-6.7109475000000005,-4.888361499999999,3.4129345,-0.73290193,-0.36432046,-0.21944448,8.82,37.98,10.98
1554117706218,-6.818088,-5.1607018,3.1118636000000004,-0.70627034,-0.25353295,-0.28229508,8.76,37.68,11.52
1554117706238,-7.079056,-5.0403934,2.9442697,-0.60933125,-0.07350325,-0.36112466,8.7,37.2,12.36
1554117706258,-6.754042999999999,-5.009867,2.825158,-0.54648066,0.09374327,-0.32597092,8.64,36.84,12.84
1554117706278,-6.3871317,-4.969764,2.5737667,-0.45699844,0.24820662,-0.34834146,8.58,36.48,13.32
1554117706298,-6.415862000000001,-4.633379,2.4432828,-0.4016047,0.31212249999999997,-0.4889564,8.58,36.12,13.74
1554117706317,-6.684611299999999,-4.2012253,2.4157495,-0.4282363,0.26205507,-0.67218184,8.52,35.88,14.22
1554117706337,-6.599616999999999,-4.477157,2.0374656000000004,-0.6114618,0.07882957,-0.7797736,8.52,35.58,14.64
1554117706357,-6.4182562999999995,-4.811148,2.3714569,-0.8159926,-0.022370555,-0.82557994,8.4,35.34,15.06
1554117706378,-6.654085,-5.459976999999999,2.7072437000000003,-1.0013485999999998,-0.23861924,-1.031176,8.1,35.1,15.54
1554117706398,-6.567295,-5.5389857000000005,3.2489316,-0.9938916999999999,-0.3749731,-1.164334,7.74,34.92,16.02
1554117706418,-6.14412,-5.433641000000001,3.369839,-0.7861651999999999,-0.45699844,-1.2335763000000002,7.26,34.74,16.62
1554117706439,-5.665878299999999,-5.3043537,3.435081,-0.47297743,-0.5230448000000001,-1.3624732,6.66,34.56,17.16
1554117706457,-5.2008047,-5.631761,3.1483752999999997,-0.18748654,-0.6125271,-1.5851135,6.06,34.44,17.58
1554117706478,-4.506486,-6.670246000000001,2.1146786,-0.26525086,-0.74461985,-1.7193368999999998,5.46,34.26,17.88
1554117706498,-4.094683600000001,-7.050924,2.1990743,-0.6711166000000001,-0.77870834,-1.7768611,4.86,34.14,18.24
1554117706518,-4.3957543,-7.5626845000000005,2.267309,-1.1377025,-0.81918836,-1.8024273999999998,4.26,34.02,18.48
1554117706538,-4.410718,-8.815451,2.268506,-1.3848438,-0.9076053,-1.8695391,3.66,33.9,18.72
1554117706558,-4.073136,-9.841366,2.2307975,-1.4839133999999998,-0.89588743,-1.7491642,3.06,33.66,18.9
1554117706577,-3.2626984,-10.679337,2.0907366,-1.3699301000000002,-0.82877576,-1.4956313,2.4,33.18,19.14
1554117706597,-3.040636,-11.246164,1.822586,-1.3496901000000001,-0.7861651999999999,-1.5084145,1.86,32.64,19.44
1554117706618,-3.5751417,-11.843517,1.5233108,-1.381648,-0.73822826,-1.4317155000000001,1.2,31.98,19.92
1554117706638,-3.5122937999999992,-12.184691,1.3311761999999998,-1.2740563,-0.6593986999999999,-1.1163971000000001,0.48,31.26,20.58
1554117706658,-3.3620577000000003,-12.440272,1.240795,-1.0418286,-0.57098174,-0.8490158000000001,-0.24,30.42,21.3
1554117706678,-3.2794578000000003,-12.327146,1.4407108999999998,-0.70840085,-0.47936899999999993,-0.62317973,-0.9,29.46,22.08
1554117706698,-3.1226375,-11.971607,1.4443021999999999,-0.28868666,-0.39734364,-0.3568636,-1.44,28.38,22.92
1554117706718,-2.9424740000000003,-11.301829,1.1994951,0.12676647,-0.28975195,-0.09267801,-1.86,27.36,23.76
1554117706737,-2.7832594,-10.603919,0.9127894,0.37603834,-0.16405073,0.13422333,-2.16,26.7,24.48
1554117706758,-2.6749218,-10.061034,0.9600749,0.4282363,-0.07137272,0.28655612,-2.4,26.04,25.02
1554117706778,-2.678513,-9.806051,1.0223241,0.37071204,0.11611383,0.47510794,-2.58,25.56,25.44
1554117706798,-2.7006595,-9.844957,0.86011696,0.25672874,0.26631612,0.56885123,-2.7,25.26,25.62
1554117706818,-2.825158,-9.946113,0.7882909,0.07563378,0.40266997,0.64555025,-2.76,25.08,25.68
1554117706837,-2.8173769,-10.060435,0.9864110999999999,-0.14807177,0.48043427,0.73290193,-2.82,25.08,25.74
1554117706857,-2.5366566,-10.303447,1.3736732,-0.24607609,0.5251754,0.8181231,-2.82,25.2,25.62
1554117706877,-2.2571337000000002,-10.418967,1.7393875,-0.17576863,0.55287224,0.81705785,-2.88,25.32,25.5
1554117706899,-2.1871033,-10.120291,1.8441339,0.025566347000000003,0.5571333,0.7456851,-2.88,25.5,25.38
1554117706919,-2.3798366,-9.588778,1.7100586,0.2428803,0.531567,0.6583334,-2.88,25.62,25.26
1554117706939,-2.7509377,-9.136273,1.5239093000000001,0.39840892,0.47510794,0.52837116,-2.88,25.8,25.2
1554117706959,-3.0460230999999998,-8.6017685,1.3964181,0.44315,0.38029942,0.4048005,-2.82,25.86,25.14
1554117706978,-3.2609026,-8.47308,1.3563153000000001,0.39947417,0.28549087,0.3153183,-2.76,25.92,25.14
1554117706998,-3.316568,-8.544308000000001,1.2731166999999999,0.31318775,0.19813919,0.22796659,-2.64,26.04,25.14
1554117707018,-3.354875,-8.443152,1.3605051000000001,0.22370553,0.14487597,0.15020229,-2.58,26.16,25.08
1554117707038,-3.5356373999999997,-8.135497,1.6136919,0.10865697,0.11824436,0.07243799,-2.46,26.34,25.02
1554117707058,-3.8863877999999996,-7.8009076,1.7699136000000002,-0.018109497,0.101200126,0.0,-2.34,26.64,24.96
1554117707077,-4.355053,-7.6009917,1.8441339,-0.15978967,0.07350325,-0.07456851,-2.22,26.88,24.84
1554117707097,-4.782418,-7.5788455,1.9267338999999999,-0.28016454,0.002130529,-0.1470065,-2.1,27.12,24.78
1554117707118,-4.9464207,-7.766192,1.8884265,-0.33875409999999995,-0.08841695,-0.14807177,-2.04,27.36,24.66
1554117707138,-4.8069587,-8.154053,1.5508442,-0.35153726,-0.16085494,-0.05539375,-1.92,27.48,24.54
1554117707158,-4.6878470000000005,-8.514978,1.1791444,-0.3334278,-0.17896444,0.02130529,-1.86,27.48,24.48
1554117707178,-4.4113164000000005,-8.870517999999999,0.9648633,-0.28016454,-0.18748654,0.10333065,-1.86,27.48,24.48
1554117707197,-3.9869443999999996,-9.21229,0.9247603999999999,-0.17470337,-0.13954964,0.21411815,-1.8,27.36,24.54
1554117707217,-3.7235822999999995,-9.365519,0.8110358,-0.007456851,-0.047936900000000005,0.28442562,-1.8,27.18,24.6
1554117707237,-3.74094,-9.306861,0.5979519,0.11504856,0.03834952,0.28975195,-1.8,27.06,24.66
1554117707257,-3.7936125,-9.012374000000001,0.34715924,0.13102753,0.10013486,0.27483824,-1.74,26.94,24.72
1554117707279,-3.9594111000000005,-8.822035000000001,0.16699557,0.054328485999999995,0.12783173,0.25672874,-1.68,26.82,24.78
1554117707299,-4.055179,-8.661025,0.23822308,-0.08841695,0.10759171,0.22690132,-1.62,26.88,24.9
1554117707319,-4.115034,-8.620322999999999,0.33279404,-0.18216023,0.056459017,0.20240025,-1.56,26.94,24.96
1554117707339,-4.0665517,-8.463503,0.42377370000000003,-0.20879184,0.012783173500000002,0.17363810000000002,-1.44,26.94,25.02
1554117707359,-4.0815152999999995,-8.452729,0.41000703,-0.16085494,-0.03834952,0.14061491,-1.32,26.94,25.14
1554117707378,-4.0479965,-8.380303999999999,0.39803603,-0.113983296,-0.07776430000000001,0.11504856,-1.2,26.82,25.14
1554117707398,-4.092887999999999,-8.386289999999999,0.2896984,-0.10439592,-0.1107875,0.08522116,-1.08,26.76,25.2
1554117707418,-4.223970400000001,-8.350377,0.19871874,-0.12357068,-0.13741912,0.039414786,-0.96,26.7,25.2
1554117707438,-4.559757,-8.475474,0.06404489,-0.17150758,-0.15765914,-0.0063915867,-0.9,26.58,25.32
1554117707457,-4.829105,-8.605958,0.088585466,-0.26738137,-0.21198763,-0.080960095,-0.84,26.52,25.44
1554117707477,-4.9069166,-8.723274,0.21368249999999997,-0.34727620000000003,-0.28549087,-0.113983296,-0.72,26.4,25.5
1554117707497,-4.953005,-8.881889,0.2873042,-0.34621096,-0.34514567,-0.1107875,-0.72,26.34,25.62
1554117707518,-5.111022,-9.021951,0.34955344,-0.2727077,-0.4079963,-0.09587380000000001,-0.72,26.28,25.8
1554117707538,-5.160103299999999,-9.139266000000001,0.3854665,-0.18535602,-0.45380265,-0.033023197000000004,-0.66,26.28,25.98
1554117707558,-5.131373,-9.090784,0.39205053,-0.10013486,-0.46765109999999993,0.083090626,-0.48,26.28,26.16
1554117707578,-5.085883,-8.887876,0.38486794,-0.07243799,-0.46765109999999993,0.22903186,-0.3,26.22,26.34
1554117707597,-4.927267,-8.763377,0.41718966,-0.06604639400000001,-0.44847634,0.38029942,0.06,26.1,26.46
1554117707617,-4.762067299999999,-8.744224,0.52732295,-0.06498113,-0.4016047,0.4889564,0.42,26.04,26.58
1554117707637,-4.735132,-8.82802,0.5650316,-0.041545313,-0.33129725,0.5273059,0.84,25.98,26.7
1554117707658,-4.701015,-8.686164,0.5279215,-0.056459017,-0.24501082,0.5336975,1.2,25.86,26.76
1554117707678,-4.611831,-8.595184,0.35314476,-0.12570119999999999,-0.16724652,0.52624065,1.62,25.74,26.82
1554117707697,-4.7219644,-8.598177,0.38127659999999997,-0.25353295,-0.09161274,0.50387007,2.04,25.68,26.88
1554117707718,-4.9278655,-8.5473,0.58119243,-0.39095205,-0.05006743,0.45699844,2.46,25.62,26.88
1554117707740,-5.0541596,-8.546103,0.6823475,-0.5070659000000001,-0.036218993,0.42717105,2.88,25.62,26.94
1554117707758,-5.0972550000000005,-8.476671000000001,0.80924016,-0.572047,-0.03834952,0.4016047,3.3,25.62,27.0
1554117707777,-5.0697220000000005,-8.314464,0.8098387,-0.5837649,-0.054328485999999995,0.38775626,3.6,25.5,27.12
1554117707797,-5.1571107000000005,-8.077438,0.79008657,-0.535828,-0.07456851,0.37816888,3.9,25.38,27.18
1554117707819,-5.234922,-7.896077,0.7733272,-0.4889564,-0.10652645,0.3653857,4.14,25.26,27.24
1554117707838,-5.201403,-7.785944000000001,0.6787562,-0.43356264,-0.18535602,0.3174488,4.44,24.96,27.36
1554117707858,-5.027823400000001,-7.860164,0.33159694,-0.39521313,-0.23861924,0.25566345,4.74,24.66,27.48
1554117707878,-5.149329,-7.762002000000001,-0.10474633,-0.39521313,-0.25992453,0.16724652,5.04,24.3,27.66
1554117707898,-5.367202,-7.493850999999999,-0.53450555,-0.5251754,-0.29507825,0.12037488,5.28,23.82,27.9
1554117707918,-5.5258174,-7.5094137000000005,-0.9840169,-0.7882956999999999,-0.33662358,0.12144015,5.46,23.34,28.08
1554117707937,-5.6563015,-7.7183075,-1.0013748,-1.0663296999999998,-0.38136467,0.10439592,5.7,22.74,28.2
1554117707957,-5.779603,-7.941567,-0.7679402,-1.1611383,-0.46339005,0.05006743,5.94,22.02,28.38
1554117707978,-5.917868,-8.325238,-0.5955577,-1.0066749,-0.5635249,0.041545313,6.24,21.06,28.62
1554117707998,-5.85502,-8.374918,-0.38726214,-0.7978831000000001,-0.6295713000000001,0.07243799,6.54,20.46,28.8
1554117708017,-5.8221,-8.162432,-0.20590134,-0.28655612,-0.67537767,0.17150758,6.78,19.74,28.98
1554117708037,-5.8669910000000005,-7.9313917,-0.260968,0.101200126,-0.66579026,0.25140239999999997,7.02,19.14,29.22
1554117708057,-5.792771,-7.859565700000001,-0.40761283,0.30999196,-0.6221144000000001,0.29614353,7.38,18.6,29.4
1554117708078,-5.7107697,-7.8715367,-0.4938041,0.3653857,-0.53795856,0.28336033,7.74,18.12,29.58
1554117708100,-5.7520695,-7.873931,-0.5303157,0.27590349999999997,-0.44741106,0.26312032,8.1,17.82,29.76
1554117708118,-5.7700260000000005,-7.837419000000001,-0.46926352,0.07989483,-0.38775626,0.26312032,8.58,17.52,29.94
1554117708139,-5.703587000000001,-7.6800003,-0.25558102,-0.15659387,-0.36112466,0.2876214,9.0,17.34,30.06
1554117708157,-5.7454852999999995,-7.587225,-0.11791443,-0.35899413,-0.3717773,0.29614353,9.48,17.22,30.18
1554117708178,-5.8238955,-7.4896617,0.08499416,-0.46871635,-0.43036684,0.28122982,9.9,17.16,30.24
1554117708198,-5.9627595,-7.6189485,0.18614918,-0.43462790000000007,-0.47830373,0.25885928,10.44,17.1,30.24
1554117708218,-6.0651116,-7.654263,0.18974048,-0.28549087,-0.5049353,0.21837921,10.86,17.04,30.24
1554117708238,-6.149507,-7.533954,-0.05686229,-0.11824436,-0.49641323,0.17896444,11.28,16.92,30.18
1554117708258,-6.379949,-7.4363904000000005,-0.30226797,-0.02876214,-0.4878911,0.14061491,11.7,16.68,30.18
1554117708278,-6.588244400000001,-7.358579,-0.58657944,-0.040480047000000005,-0.4889564,0.12037488,12.12,16.44,30.12
1554117708298,-6.8210807,-7.168239999999999,-0.65541273,-0.13848437,-0.49215218,0.12250541,12.48,16.26,30.06
1554117708318,-7.083844,-7.0006455999999995,-0.62608373,-0.32810146,-0.5209143,0.13848437,12.9,16.02,30.0
1554117708337,-7.2364745,-7.011419999999999,-0.38965634,-0.5123922000000001,-0.5795039000000001,0.165116,13.2,15.78,29.88
1554117708357,-7.131129700000001,-7.1951747,-0.19692309,-0.63383234,-0.66365975,0.20453078,13.56,15.48,29.82
1554117708377,-6.963536,-7.3645644,0.07841010400000001,-0.6583334,-0.7254451,0.24927188,13.86,15.24,29.64
1554117708398,-6.8635779999999995,-7.277775,0.21308395,-0.5784385999999999,-0.78936094,0.2790993,14.22,15.06,29.46
1554117708418,-6.783372,-7.131129700000001,0.23762453,-0.46871635,-0.8319715,0.2876214,14.64,15.0,29.28
1554117708438,-6.7372837,-6.973711,0.17537527,-0.37603834,-0.8628642,0.28122982,15.0,14.82,29.16
1554117708458,-6.872555999999999,-6.941988,0.08738836,-0.33768883,-0.88203895,0.24927188,15.48,14.58,28.98
1554117708478,-7.013814,-6.949769,-0.0011971008,-0.31105720000000003,-0.88843054,0.19813919,16.02,14.16,28.8
1554117708498,-7.08564,-6.937798,-0.22505496,-0.30360037,-0.90973586,0.15765914,16.56,13.62,28.56
1554117708518,-7.1951747,-6.8958993,-0.30047232,-0.33449304,-0.9353021999999999,0.13848437,17.04,13.14,28.26
1554117708538,-7.29214,-6.907272,-0.28012159999999997,-0.4282363,-0.99069595,0.14274544,17.58,12.6,28.02
1554117708557,-7.3214690000000004,-7.021595,-0.32022446,-0.5571333,-1.0833739,0.18748654,18.06,12.12,27.78
1554117708577,-7.4184339999999995,-7.2484455,-0.28012159999999997,-0.6668556,-1.176052,0.23329292,18.6,11.58,27.54
1554117708597,-7.5094137000000005,-7.309498,-0.18076223,-0.7233145999999999,-1.2857742,0.26525086,19.26,11.1,27.24
