TimeStamp,Ax,Ay,Az,Gx,Gy,Gz,Mx,My,Mz
1554207310015,-9.275136999999999,-0.86251116,3.1741127999999996,-0.043675844000000005,0.080960095,0.14594123,2.04,7.38,-34.98
1554207310035,-9.203311,-0.7140707,2.9011737999999996,0.2695119,0.039414786,0.14168017,2.04,6.96,-35.1
1554207310054,-9.188946000000001,-0.18255788,2.5133132999999996,0.39947417,0.004261058,0.14594123,2.04,6.66,-35.16
1554207310074,-9.289502,0.14305355,2.3744495,0.3270362,-0.027696876000000002,0.12570119999999999,2.04,6.36,-35.22
1554207310094,-9.232041,0.18614918,2.28347,0.099069595,-0.043675844000000005,0.10013486,2.04,6.12,-35.22
1554207310115,-9.246407000000001,0.20530279,2.570774,-0.20772657,-0.037284255,0.09054748,1.98,5.94,-35.22
1554207310135,-9.198523,0.076015905,2.915539,-0.38136467,-0.00958738,0.07137272,1.98,5.82,-35.22
1554207310154,-9.050082000000002,-0.010175358,2.7096379,-0.38882150000000004,0.0010652645,0.037284255,1.98,5.7,-35.28
1554207310174,-8.99741,-0.12988544,2.819771,-0.30999196,0.014913702,0.015978966,1.98,5.64,-35.28
1554207310194,-9.112331,-0.25438392,2.8101943,-0.22050974,0.026631612000000002,0.024501082,1.98,5.64,-35.28
1554207310215,-9.222465,-0.42197806,2.40318,-0.23116238,0.025566347000000003,0.039414786,2.04,5.7,-35.34
1554207310234,-9.097966,-0.374094,2.6761188999999996,-0.31851408,0.014913702,0.03089267,2.04,5.76,-35.34
1554207310254,-9.069236,-0.42676646,2.9346926,-0.38242993,0.027696876000000002,0.0053263223,2.1,5.88,-35.34
1554207310274,-9.26556,-0.41718966,2.9969419999999998,-0.35579833,0.034088463,-0.004261058,2.22,6.0,-35.28
1554207310295,-9.270349000000001,-0.39324763,2.8772318,-0.33449304,0.033023197000000004,0.0010652645,2.28,6.18,-35.28
1554207310315,-9.447519999999999,-0.46507367,3.0113072,-0.31318775,0.036218993,0.0010652645,2.34,6.42,-35.22
1554207310335,-9.346964,-0.39803603,3.0879216,-0.294013,0.029827405,0.010652645,2.46,6.72,-35.16
1554207310355,-9.222465,-0.39803603,3.2363622000000003,-0.18002969,0.029827405,0.0010652645,2.52,7.08,-35.1
1554207310375,-9.279925,-0.26874915,3.0879216,-0.036218993,0.015978966,-0.007456851,2.58,7.32,-34.98
1554207310395,-9.227253,-0.14903906,2.8341362,0.056459017,-0.0010652645,-0.018109497,2.58,7.56,-34.92
1554207310414,-9.385271000000001,0.09995792,2.5420437000000002,0.03834952,-0.022370555,-0.029827405,2.64,7.8,-34.86
1554207310434,-9.279925,-0.05327099,2.570774,-0.10865697,-0.027696876000000002,-0.03089267,2.64,8.04,-34.8
1554207310454,-9.054871,-0.13946225,2.9921536,-0.23755397,-0.02876214,-0.043675844000000005,2.64,8.22,-34.74
1554207310477,-8.973467999999999,-0.4938041,3.1597476,-0.29188246,0.0010652645,-0.06711166,2.7,8.46,-34.62
1554207310495,-9.059659,-0.4794389,2.9107506,-0.23435818,0.015978966,-0.06178534,2.7,8.58,-34.62
1554207310514,-9.174581,-0.52253455,2.843713,-0.15552860000000002,0.011717908999999999,-0.05006743,2.76,8.64,-34.56
1554207310534,-9.121908,-0.6135142,2.6761188999999996,-0.05539375,-0.012783173500000002,-0.047936900000000005,2.82,8.82,-34.56
1554207310555,-9.3182335,-0.41240123,2.7048495,-0.0063915867,-0.012783173500000002,-0.056459017,2.88,8.94,-34.5
1554207310574,-9.303867,-0.43634325,2.7575218999999995,-0.017044231,-0.00958738,-0.060720075,2.94,9.06,-34.5
1554207310595,-9.246407000000001,-0.44113165,2.8485014,-0.08735169,0.002130529,-0.06178534,3.0,9.18,-34.5
1554207310615,-9.457097000000001,-0.5129577000000001,2.9730000000000003,-0.10439592,0.015978966,-0.03834952,3.0,9.24,-34.44
1554207310635,-9.404425,-0.44592008,3.0113072,-0.024501082,0.0053263223,-0.025566347000000003,3.0,9.36,-34.44
1554207310655,-9.241617999999999,-0.45549688,2.7431567,0.07350325,0.0,-0.037284255,3.0,9.42,-34.38
1554207310675,-9.198523,-0.32142156,2.7096379,0.128897,-0.0031957934000000003,-0.04580637,3.0,9.48,-34.38
1554207310695,-9.184157,-0.27353755,2.532467,0.12570119999999999,-0.002130529,-0.047936900000000005,3.0,9.48,-34.38
1554207310715,-9.23683,-0.20649989,2.7431567,0.040480047000000005,-0.004261058,-0.053263225,3.0,9.54,-34.38
1554207310735,-9.155427,-0.22086509999999998,2.8485014,-0.035153727999999995,-0.008522116,-0.06711166,3.0,9.6,-34.38
1554207310755,-8.973467999999999,-0.3357868,2.8293478,-0.07243799,-0.012783173500000002,-0.09161274,3.0,9.66,-34.38
1554207310774,-9.002198,-0.26874915,2.5133132999999996,-0.07563378,-0.01917476,-0.11930962,3.0,9.66,-34.32
1554207310795,-9.11712,-0.3788824,2.4941597,-0.10865697,-0.023435817999999997,-0.13635385,3.0,9.72,-34.32
1554207310815,-8.911219000000001,-0.5033809,2.5755625,-0.13422333,-0.029827405,-0.15978967,3.0,9.72,-34.32
1554207310834,-9.169792,-0.3597288,2.6473885,-0.07882957,-0.041545313,-0.19600865,3.0,9.72,-34.32
1554207310855,-9.337387,-0.3309984,2.498948,-0.053263225,-0.047936900000000005,-0.23435818,3.0,9.78,-34.32
1554207310874,-9.275136999999999,-0.40761283,2.4366987,-0.16192019,-0.046871635999999994,-0.24074976,3.06,9.78,-34.32
1554207310894,-9.208099,-0.53211135,2.6330232999999996,-0.28336033,-0.03195793,-0.23329292,3.12,9.9,-34.32
1554207310915,-9.23683,-0.623091,2.5611973,-0.31851408,-0.020240024,-0.24074976,3.12,9.96,-34.32
1554207310934,-9.193734,-0.55605334,2.8054059,-0.26418558,-0.013848438000000001,-0.26205507,3.18,10.02,-34.26
1554207310955,-9.030928999999999,-0.5895722,2.8054059,-0.20559604,-0.020240024,-0.28442562,3.24,10.2,-34.26
1554207310975,-8.949525999999999,-0.55126494,2.8820202,-0.18748654,-0.00958738,-0.32277513,3.24,10.32,-34.2
1554207310995,-8.7532015,-0.4794389,2.9394810000000002,-0.17363810000000002,0.002130529,-0.386691,3.24,10.56,-34.08
1554207311014,-8.710106,-0.43155485,3.0017304,-0.15978967,0.012783173500000002,-0.46658584,3.18,10.8,-33.96
1554207311036,-8.690952000000001,-0.4938041,2.6856956000000003,-0.21837921,0.011717908999999999,-0.5422196,3.06,11.1,-33.78
1554207311055,-8.595184,-0.6805518,2.6378117000000003,-0.35792887,-0.0053263223,-0.608266,2.88,11.46,-33.6
1554207311075,-8.537724,-0.86251116,2.7144263,-0.515588,-0.051132694000000006,-0.68389976,2.64,11.76,-33.42
1554207311095,-8.652645,-1.0684125,2.4319102999999997,-0.64341974,-0.101200126,-0.7499462,2.4,12.18,-33.3
1554207311115,-8.762777999999999,-1.3796587,2.6521769,-0.7584683000000001,-0.14594123,-0.7861651999999999,2.1,12.54,-33.12
1554207311135,-8.590396,-1.7340006000000001,2.6809072,-0.8511463,-0.19174760000000002,-0.8309063,1.86,12.96,-33.06
1554207311155,-8.293514,-2.0644004000000002,2.7623102999999998,-0.8863,-0.21092236,-0.902279,1.62,13.62,-33.0
1554207311175,-8.360553,-2.260725,2.7766755,-0.8426242,-0.24074976,-0.9960223,1.26,14.46,-32.88
1554207311196,-8.24563,-2.5384523999999997,2.6426,-0.8032094,-0.26418558,-1.0482203,1.02,15.06,-32.7
1554207311215,-8.030152000000001,-2.7347770000000002,2.8341362,-0.76592517,-0.28975195,-1.1057445,0.72,15.6,-32.46
1554207311234,-7.929596000000001,-3.0172927000000005,2.532467,-0.7286409,-0.29507825,-1.196292,0.36,16.2,-32.22
1554207311254,-7.848192999999999,-3.3812113,2.5228900000000003,-0.7094661,-0.29614353,-1.3017531999999998,-0.06,17.04,-31.98
1554207311274,-7.776367,-3.6254199000000003,2.3840263,-0.69987875,-0.30999196,-1.3933659,-0.54,17.88,-31.68
1554207311294,-7.383717999999999,-3.9031472000000003,2.345719,-0.6711166000000001,-0.34514567,-1.4796523000000001,-1.26,18.54,-31.44
1554207311314,-7.0245875999999985,-4.228758999999999,2.4558525,-0.5954828000000001,-0.36005938,-1.5733956,-2.1,19.14,-31.2
1554207311334,-6.770802499999999,-4.6980224,2.379238,-0.5219796,-0.386691,-1.6745956999999998,-2.94,19.74,-31.02
1554207311354,-6.679823,-5.1146135,2.154183,-0.51026165,-0.41119209999999995,-1.7789917000000002,-3.84,20.28,-30.84
1554207311374,-6.5505357,-5.191228,2.1493945,-0.5305017,-0.4048005,-1.8706043999999997,-4.74,20.82,-30.72
1554207311395,-6.4643445,-5.3971290000000005,2.4319102999999997,-0.58269966,-0.40586576,-1.9547603,-5.82,21.36,-30.54
1554207311414,-6.435614,-5.823297,2.4462755,-0.6625945,-0.38136467,-2.0378509,-6.96,21.66,-30.3
1554207311434,-6.26802,-6.321291,2.7335799,-0.7190535,-0.31851408,-2.0953753,-8.1,21.9,-30.0
1554207311454,-5.985504,-6.9102645,2.4462755,-0.6711166000000001,-0.25992453,-2.1124194,-9.12,22.14,-29.58
1554207311475,-5.803545,-7.3124905,2.2930467,-0.60933125,-0.20026971,-2.0847225,-10.02,22.32,-29.1
1554207311494,-5.707777,-7.413047,2.498948,-0.6306366,-0.17576863,-2.0591562,-10.92,22.44,-28.62
1554207311514,-5.233725,-7.599794999999999,2.6856956000000003,-0.6860303000000001,-0.13422333,-2.0378509,-11.94,22.62,-28.2
1554207311534,-5.0517654,-7.997232400000001,2.4319102999999997,-0.63915867,-0.06178534,-2.0357203,-13.08,22.74,-27.78
1554207311554,-4.8362875,-8.236652000000001,2.1829132999999996,-0.58269966,-0.035153727999999995,-2.0431771,-13.98,22.74,-27.36
1554207311575,-4.525041000000001,-8.313267,2.355296,-0.4708469,0.0053263223,-2.0634172,-14.82,22.74,-27.0
1554207311594,-4.2760444,-8.231864,2.1829132999999996,-0.34621096,0.07030745599999999,-2.0857878,-15.78,22.68,-26.76
1554207311614,-3.9408559999999997,-8.145673,1.9961656000000003,-0.25885928,0.12357068,-2.111354,-16.62,22.68,-26.58
1554207311634,-3.4715924,-8.346786,1.4646529,-0.19813919,0.1587244,-2.1497037,-17.64,22.62,-26.4
1554207311654,-3.083732,-7.839214999999999,1.0528502,-0.36964676,0.15765914,-2.2082932,-18.78,22.5,-26.28
1554207311674,-2.3606830000000003,-7.753023599999999,1.6178818000000001,-0.67218184,0.12144015,-2.3094932999999997,-19.92,22.32,-26.16
1554207311695,-1.6519991000000003,-8.270171000000001,2.4510639,-0.7755125,0.1587244,-2.4714136000000004,-21.0,21.9,-26.16
1554207311714,-1.067814,-9.227852,2.498948,-0.50600064,0.26525086,-2.586462,-21.96,21.3,-26.1
1554207311734,-0.79966336,-10.156802,1.5029601000000001,-0.02876214,0.33768883,-2.5971148,-22.8,20.58,-26.04
1554207311754,-0.7038953,-9.663596,1.1677719,0.05539375,0.35473305,-2.5033715,-23.64,19.8,-26.04
1554207311774,-0.5315128,-9.141661000000001,1.2443863000000002,-0.12783173,0.36112466,-2.4458472999999996,-24.36,18.9,-25.98
1554207311794,0.15322891,-10.233417,1.2300211,-0.38456047,0.3174488,-2.4937842,-25.26,17.76,-25.98
1554207311815,0.641646,-11.176732000000001,1.134253,-0.41545314,0.35153726,-2.4319987000000003,-26.16,16.44,-25.98
1554207311834,0.9911995000000001,-11.684303,0.8900445,-0.23009712,0.3653857,-2.2104237,-26.94,15.06,-25.98
1554207311854,1.1683705,-11.248558000000001,0.6314706999999999,-0.21411815,0.4079963,-1.9781961,-27.72,13.62,-26.04
1554207311874,1.6136919,-11.262922999999999,0.12389994,-0.51665324,0.36005938,-1.8492991,-28.56,12.36,-26.04
1554207311894,1.9871874,-11.775283,0.0712275,-0.8277104999999999,0.36112466,-1.6831179,-29.46,11.16,-26.16
1554207311914,2.4277205000000004,-12.74254,0.15263036,-0.90973586,0.38136467,-1.397627,-30.3,10.02,-26.22
1554207311935,2.2457612,-12.871827,0.18136078,-0.7094661,0.43995422,-1.0684601999999999,-31.08,9.06,-26.4
1554207311954,1.8674773,-12.182297,0.090381116,-0.43036684,0.47510794,-0.8447546999999999,-31.68,8.34,-26.58
1554207311974,1.5610195,-11.191097000000001,-0.11552023,-0.08735169,0.46552056,-0.6412892,-32.04,7.74,-26.82
1554207311994,1.4604629999999998,-10.391434,-0.0053869537,0.05539375,0.4079963,-0.5251754,-32.28,7.26,-27.0
1554207312014,1.3838485,-9.582193,-0.091578215,0.012783173500000002,0.33449304,-0.43888897,-32.52,7.02,-27.18
1554207312036,1.3694833999999998,-8.998009,0.13826515,-0.16298546,0.23329292,-0.39414784,-32.88,6.54,-27.48
1554207312057,1.5993267,-8.892664,0.3537433,-0.3153183,0.13528858,-0.4048005,-33.12,6.12,-27.6
1554207312075,1.6807296000000003,-8.772953999999999,0.5931635000000001,-0.39095205,0.08735169,-0.40053943,-33.42,5.64,-27.66
1554207312096,1.7381904,-8.45213,0.9283517,-0.3653857,0.07350325,-0.39840892,-33.66,5.1,-27.78
1554207312117,1.7621324,-8.212710000000001,0.8948328999999999,-0.22477080000000002,0.07137272,-0.45486793,-33.84,4.56,-27.84
1554207312136,2.0446482,-8.011598,0.6123171,-0.03834952,0.04580637,-0.5613944000000001,-34.02,4.08,-27.9
1554207312156,2.27928,-7.729081599999999,0.4878186,0.01917476,0.01917476,-0.664725,-34.2,3.66,-27.96
1554207312177,3.0166939999999998,-8.528744999999999,0.14784196,-0.02876214,-0.03089267,-0.76485986,-34.32,3.3,-28.02
1554207312196,3.5913025999999997,-8.93576,0.090381116,-0.20985709,-0.039414786,-0.77125144,-34.38,3.0,-28.08
1554207312215,3.9647980000000005,-9.223063,0.16220717,-0.36112466,0.025566347000000003,-0.69029135,-34.38,2.76,-28.14
1554207312235,4.122815,-9.649231,0.17178397,-0.45380265,0.082025364,-0.60720074,-34.44,2.52,-28.14
1554207312255,4.309563,-9.759364999999999,0.30107087,-0.45167214,0.12037488,-0.5944176,-34.5,2.4,-28.14
1554207312275,4.271256,-10.017939,0.26276365,-0.31212249999999997,0.12676647,-0.62104917,-34.62,2.1,-28.2
1554207312294,4.5441947,-10.329185,0.3441665,-0.16937704,0.08628642,-0.6562029,-34.8,1.86,-28.2
1554207312314,4.6686935,-10.266935,0.6171055000000001,-0.043675844000000005,0.047936900000000005,-0.68389976,-35.04,1.56,-28.2
1554207312334,4.55856,-10.118495,0.65062433,-0.0031957934000000003,-0.008522116,-0.7275756,-35.22,1.2,-28.2
1554207312359,4.5154643,-10.238205,0.7032967,-0.1470065,-0.12250541,-0.7254451,-35.4,0.78,-28.2
1554207312378,4.501099,-10.228628,0.6985083000000001,-0.32490566,-0.20133498,-0.66579026,-35.58,0.36,-28.14
1554207312399,4.2760444,-10.118495,0.6410475,-0.46125950000000004,-0.25246766,-0.5400891,-35.82,-0.06,-28.14
1554207312419,3.9264907999999994,-9.936536,0.6889314999999999,-0.47297743,-0.25885928,-0.37710363,-36.0,-0.42,-28.08
1554207312438,3.5673605999999998,-9.543886,0.7368156,-0.350472,-0.23968449999999997,-0.24181503,-36.3,-0.78,-27.96
1554207312454,3.394978,-8.993219999999999,0.3776853,-0.14913702,-0.21731395,-0.15765914,-36.42,-1.02,-27.72
1554207312474,3.5865142,-8.638878,0.22445641,0.10546118,-0.20772657,-0.12250541,-36.6,-1.26,-27.54
1554207312494,3.7732617999999993,-8.471283999999999,0.15741876,0.30466563,-0.1768339,-0.09374327,-36.84,-1.38,-27.3
1554207312514,3.8642415999999997,-7.939771,-0.32621,0.38029942,-0.12676647,-0.07563378,-36.96,-1.5,-27.12
1554207312534,4.1706996,-7.705139599999999,-0.53211135,0.34727620000000003,-0.10226539,-0.111852765,-37.14,-1.56,-26.88
1554207312555,4.5058875,-7.436989,-0.3788824,0.27377295,-0.10013486,-0.21837921,-37.26,-1.5,-26.76
1554207312574,4.759673,-7.211933999999999,-0.350152,0.2130529,-0.08522116,-0.36645097,-37.32,-1.5,-26.58
1554207312594,5.1092260000000005,-7.1113777,0.04249708,0.20133498,-0.083090626,-0.5656554,-37.38,-1.5,-26.52
1554207312614,5.626374,-7.566275999999999,0.3298013,0.24074976,-0.096939065,-0.7957525,-37.32,-1.62,-26.52
1554207312634,6.1578870000000006,-8.045116,0.40641573,0.24820662,-0.13315806,-0.9491506,-37.32,-1.92,-26.58
1554207312654,6.3302693,-8.140884,0.44472298,0.18642128,-0.13954964,-0.93849796,-37.32,-2.52,-26.58
1554207312675,6.2967505,-8.337209,0.45908818,-0.013848438000000001,-0.15978967,-0.8564726,-37.38,-3.24,-26.64
1554207312694,6.0956373,-8.523956,0.28670564,-0.34727620000000003,-0.19281286,-0.7339671999999999,-37.5,-3.96,-26.64
1554207312714,5.90889,-8.96449,0.20530279,-0.660464,-0.21624869,-0.57098174,-37.68,-4.74,-26.7
1554207312734,5.746084,-9.328408,0.45908818,-0.7914915,-0.18535602,-0.38562572,-37.92,-5.52,-26.7
1554207312754,5.741296,-9.505579,0.5069722,-0.6764429,-0.098004326,-0.25140239999999997,-38.16,-6.24,-26.76
1554207312774,5.449203,-9.361927,0.14305355,-0.3749731,0.0,-0.17363810000000002,-38.4,-7.02,-26.76
1554207312795,5.463568,-9.11293,0.32501290000000005,0.05539375,0.10226539,-0.111852765,-38.64,-7.68,-26.82
1554207312814,5.133168,-8.81605,-0.29747957,0.45486793,0.19387813,-0.03834952,-38.88,-8.28,-26.82
1554207312834,5.094861,-8.380303999999999,-0.6853402,0.69029135,0.22370553,0.002130529,-39.06,-8.7,-26.82
1554207312854,4.9703627,-8.016386,-0.6853402,0.72970617,0.19600865,-0.0031957934000000003,-39.24,-9.12,-26.88
1554207312874,5.248090299999999,-7.753023599999999,-0.53689975,0.58056915,0.128897,-0.043675844000000005,-39.3,-9.66,-26.88
1554207312894,5.386954,-7.781753999999999,-0.39803603,0.40373522,0.098004326,-0.08841695,-39.36,-9.96,-26.88
1554207312915,5.5258174,-7.5758529999999995,0.047285482000000004,0.29933932,0.083090626,-0.13528858,-39.36,-10.26,-27.0
1554207312934,5.5545480000000005,-7.49445,0.29149407,0.24501082,0.07669904,-0.1949434,-39.42,-10.38,-27.18
1554207312954,5.535394,-7.49445,0.64583594,0.27590349999999997,0.06924219,-0.23435818,-39.42,-10.32,-27.36
1554207312974,5.664681400000001,-7.3938932,0.56922144,0.2972088,0.05006743,-0.27057716,-39.42,-10.32,-27.6
1554207312994,5.8466406,-7.341221000000001,0.7272388000000001,0.24501082,0.046871635999999994,-0.30999196,-39.48,-10.38,-27.84
1554207313014,5.861006,-7.0730705,0.83737206,0.13528858,0.06604639400000001,-0.34834146,-39.54,-10.56,-28.08
1554207313035,5.913678,-7.307702000000001,0.96665895,0.017044231,0.094808534,-0.35792887,-39.54,-10.98,-28.32
1554207313054,6.0381765,-7.3364325,0.66020113,-0.05219796,0.128897,-0.34514567,-39.6,-11.34,-28.5
1554207313074,6.253655,-7.3699512,0.96187055,-0.05539375,0.15978967,-0.36964676,-39.6,-11.64,-28.62
1554207313094,6.2871737,-7.719505000000001,0.7224503999999999,-0.0010652645,0.17789917,-0.386691,-39.66,-12.0,-28.68
1554207313115,6.469133,-7.729081599999999,0.7751228,0.05219796,0.18855181,-0.38136467,-39.66,-12.36,-28.68
1554207313134,6.5792660000000005,-7.949348,0.34895490000000007,0.12570119999999999,0.17363810000000002,-0.37816888,-39.66,-12.78,-28.68
1554207313154,6.655881,-7.944559599999999,0.3585317,0.12676647,0.16298546,-0.3323625,-39.72,-13.08,-28.68
1554207313175,6.4739213,-7.7386584,0.3345897,0.11717909,0.15339808,-0.2790993,-39.66,-13.32,-28.68
1554207313194,6.4260373,-7.772177,0.25797522,0.07882957,0.11717909,-0.24714136,-39.66,-13.44,-28.68
1554207313214,6.291962,-7.992444,0.04249708,-0.007456851,0.040480047000000005,-0.18322548,-39.66,-13.74,-28.68
1554207313234,6.3685765,-8.06427,-0.019752163,-0.09374327,-0.0063915867,-0.101200126,-39.66,-14.04,-28.68
1554207313254,6.1866174,-8.107366,0.0712275,-0.15978967,-0.029827405,-0.037284255,-39.66,-14.46,-28.68
1554207313274,6.0333879999999995,-8.088212,0.43514615,-0.21198763,-0.05219796,0.047936900000000005,-39.66,-14.76,-28.74
1554207313294,5.995081,-8.121731,0.49260699999999996,-0.14274544,-0.05219796,0.10333065,-39.6,-15.06,-28.8
1554207313314,5.8179099999999995,-8.193557,0.56922144,0.015978966,-0.04474111,0.12783173,-39.54,-15.24,-28.86
1554207313334,5.722142,-7.887099,0.7942764,0.18109496,-0.054328485999999995,0.11824436,-39.48,-15.24,-28.92
1554207313355,5.645528,-7.872733599999999,0.83737206,0.3153183,-0.07989483,0.101200126,-39.36,-15.24,-28.98
1554207313374,5.7843914000000005,-7.681197599999999,0.81343,0.386691,-0.10652645,0.07776430000000001,-39.3,-15.12,-28.98
1554207313394,5.9567738,-7.681197599999999,0.95229375,0.42077947,-0.128897,0.049002163,-39.18,-15.0,-29.04
1554207313414,6.0908489999999995,-7.614160000000001,1.1246762,0.44528055,-0.13422333,0.03089267,-39.06,-14.76,-29.04
1554207313434,6.143522,-7.504027000000001,1.0576386,0.46871635,-0.13635385,0.00958738,-39.0,-14.58,-29.04
1554207313454,6.100425700000001,-7.398681599999999,1.0480618,0.48469532,-0.12250541,-0.0031957934000000003,-38.88,-14.4,-29.04
1554207313475,6.1578870000000006,-7.355586,0.87567925,0.46125950000000004,-0.113983296,-0.014913702,-38.76,-14.34,-29.04
1554207313494,6.1387334000000005,-7.1927805,0.8900445,0.3717773,-0.101200126,-0.00958738,-38.76,-14.4,-29.04
1554207313514,6.220136,-7.2262993,0.8996213,0.2545982,-0.09054748,-0.0053263223,-38.7,-14.4,-29.1
1554207313535,6.2488665999999995,-7.1975690000000005,0.7368156,0.12783173,-0.06924219,-0.01917476,-38.7,-14.52,-29.1
1554207313554,6.301539,-7.1975690000000005,0.8900445,0.022370555,-0.047936900000000005,-0.03834952,-38.7,-14.64,-29.16
1554207313574,6.244078,-7.3364325,0.9044097,-0.05539375,-0.034088463,-0.049002163,-38.7,-14.64,-29.22
1554207313594,6.1530986,-7.211933999999999,0.97623575,-0.10865697,-0.017044231,-0.06711166,-38.7,-14.64,-29.22
1554207313614,6.2009826,-7.3938932,0.8948328999999999,-0.16831179,-0.00958738,-0.08735169,-38.7,-14.46,-29.28
1554207313634,6.1626754,-7.4609309999999995,0.8996213,-0.24927188,-0.008522116,-0.07669904,-38.64,-14.04,-29.28
1554207313655,6.1818290000000005,-7.504027000000001,0.82779527,-0.32384038,-0.011717908999999999,-0.060720075,-38.58,-13.74,-29.22
1554207313674,6.2488665999999995,-7.753023599999999,0.81343,-0.35899413,-0.0031957934000000003,-0.049002163,-38.52,-13.32,-29.1
1554207313695,6.1387334000000005,-7.73387,1.0672153999999998,-0.3291667,0.014913702,-0.041545313,-38.4,-12.84,-29.04
1554207313715,6.191406,-7.877522,0.9091981,-0.24501082,0.029827405,-0.035153727999999995,-38.34,-12.42,-28.98
1554207313735,6.0956373,-7.882310400000001,0.76075757,-0.12037488,0.046871635999999994,-0.020240024,-38.28,-12.0,-28.92
1554207313754,6.019023000000001,-7.820061,0.8086416000000001,0.0031957934000000003,0.06285059999999999,0.0010652645,-38.22,-11.64,-28.86
1554207313774,6.100425700000001,-7.781753999999999,0.7128736,0.09054748,0.05006743,0.029827405,-38.22,-11.46,-28.8
1554207313794,6.0764837,-7.8104844,0.7224503999999999,0.20772657,0.041545313,0.056459017,-38.22,-11.46,-28.8
1554207313815,6.129156,-7.671621000000001,0.7224503999999999,0.30360037,0.037284255,0.05752428,-38.22,-11.4,-28.86
1554207313834,6.0381765,-7.484873299999999,0.82779527,0.3749731,0.02130529,0.04580637,-38.16,-11.34,-28.86
1554207313855,5.995081,-7.4896617,0.6889314999999999,0.4101268,-0.0031957934000000003,0.029827405,-38.16,-11.28,-28.92
1554207313875,5.985504,-7.341221000000001,0.85173726,0.39840892,-0.023435817999999997,0.026631612000000002,-38.04,-11.22,-28.92
1554207313895,5.947197,-7.3460092999999995,0.85652566,0.35579833,-0.036218993,0.024501082,-37.92,-11.22,-28.98
1554207313914,6.0333879999999995,-7.2789717000000005,1.0289081,0.31851408,-0.043675844000000005,0.012783173500000002,-37.8,-11.16,-28.98
1554207313937,6.0285997,-7.3268557,1.1534066,0.27590349999999997,-0.04580637,-0.018109497,-37.62,-11.16,-29.04
1554207313955,6.0860605,-7.355586,1.1917138999999999,0.23968449999999997,-0.05219796,-0.04261058,-37.5,-11.16,-29.1
1554207313974,6.0908489999999995,-7.4705076,1.110311,0.19281286,-0.049002163,-0.06178534,-37.38,-11.16,-29.16
1554207313996,6.0525417,-7.379528,1.2635399,0.12250541,-0.039414786,-0.07243799,-37.32,-11.1,-29.16
1554207314015,6.0716953,-7.413047,1.2204443,0.034088463,-0.026631612000000002,-0.07456851,-37.32,-11.1,-29.22
1554207314035,6.114791,-7.480085000000001,1.3784616000000003,-0.054328485999999995,-0.013848438000000001,-0.07030745599999999,-37.26,-11.16,-29.22
1554207314055,6.114791,-7.436989,1.2204443,-0.10439592,-0.0031957934000000003,-0.07456851,-37.38,-11.16,-29.28
1554207314075,6.143522,-7.542333999999999,1.0959458,-0.13209279,0.008522116,-0.08628642,-37.56,-11.28,-29.34
1554207314095,6.1578870000000006,-7.436989,1.2300211,-0.14487597,0.020240024,-0.082025364,-37.68,-11.34,-29.4
1554207314115,6.1243677000000005,-7.662044,1.1294646000000002,-0.15765914,0.03195793,-0.08522116,-37.8,-11.46,-29.4
1554207314135,6.042965000000001,-7.422623599999999,0.87089086,-0.1768339,0.036218993,-0.08735169,-37.92,-11.64,-29.4
1554207314155,6.0142345,-7.436989,1.0097545,-0.22050974,0.034088463,-0.080960095,-37.92,-11.76,-29.4
1554207314175,6.023811299999999,-7.6668324000000005,1.0720038,-0.26312032,0.034088463,-0.068176925,-37.92,-11.88,-29.4
1554207314195,6.0525417,-7.5950065,0.95229375,-0.2695119,0.035153727999999995,-0.056459017,-37.92,-12.0,-29.4
1554207314214,6.114791,-7.671621000000001,0.9427169,-0.25033715,0.04580637,-0.04580637,-37.86,-12.06,-29.4
1554207314234,6.0716953,-7.6524673,1.0145429,-0.21092236,0.046871635999999994,-0.04580637,-37.74,-12.0,-29.4
1554207314255,5.990292500000001,-7.7626004,1.1965023000000001,-0.17896444,0.04474111,-0.04261058,-37.56,-11.94,-29.4
1554207314274,6.0716953,-7.73387,0.95708215,-0.15020229,0.043675844000000005,-0.02876214,-37.44,-11.64,-29.34
1554207314294,6.047753299999999,-7.705139599999999,0.9139864999999999,-0.11717909,0.040480047000000005,-0.024501082,-37.38,-11.34,-29.34
1554207314315,6.066907,-7.719505000000001,0.74639237,-0.084155895,0.041545313,-0.025566347000000003,-37.32,-10.98,-29.34
1554207314335,5.951985400000001,-7.585429700000001,0.6985083000000001,-0.07137272,0.04261058,-0.023435817999999997,-37.32,-10.68,-29.34
1554207314355,6.0142345,-7.599794999999999,0.9235633,-0.06498113,0.034088463,-0.03195793,-37.32,-10.38,-29.34
1554207314375,6.019023000000001,-7.508815299999999,1.0001777,-0.06604639400000001,0.024501082,-0.041545313,-37.38,-10.14,-29.34
1554207314395,6.047753299999999,-7.5136037,0.8900445,-0.06711166,0.02876214,-0.053263225,-37.38,-10.02,-29.34
1554207314414,6.0285997,-7.5519110000000005,0.82779527,-0.07137272,0.02130529,-0.07989483,-37.38,-9.9,-29.34
1554207314434,6.0956373,-7.5519110000000005,0.789488,-0.07776430000000001,0.012783173500000002,-0.10759171,-37.44,-9.96,-29.34
1554207314455,6.1578870000000006,-7.4322004,0.8948328999999999,-0.10226539,0.0053263223,-0.12463594,-37.44,-9.96,-29.34
1554207314475,6.1387334000000005,-7.5327573,0.7942764,-0.14274544,0.0053263223,-0.12996227,-37.44,-10.02,-29.34
1554207314495,6.172251999999999,-7.566275999999999,0.6985083000000001,-0.1949434,0.010652645,-0.112918034,-37.44,-10.08,-29.34
1554207314514,6.229712999999999,-7.561487700000001,0.75596917,-0.23222765,0.017044231,-0.08628642,-37.44,-10.14,-29.34
1554207314534,6.291962,-7.7578119999999995,0.9427169,-0.23755397,0.018109497,-0.05965481,-37.44,-10.08,-29.34
1554207314555,6.2488665999999995,-7.7386584,0.8996213,-0.20453078,0.02876214,-0.040480047000000005,-37.44,-10.08,-29.34
1554207314575,6.105214,-7.8009076,0.86610246,-0.14913702,0.037284255,-0.037284255,-37.44,-10.02,-29.4
1554207314595,6.1578870000000006,-7.6907744000000005,0.7703344,-0.09267801,0.04261058,-0.03834952,-37.44,-9.96,-29.4
1554207314615,6.0333879999999995,-7.6285253,0.55006784,-0.056459017,0.04580637,-0.037284255,-37.44,-9.9,-29.4
1554207314634,6.009446,-7.614160000000001,0.39205053,-0.05752428,0.04261058,-0.035153727999999995,-37.44,-9.78,-29.4
1554207314655,6.100425700000001,-7.5375457,0.41599256,-0.084155895,0.041545313,-0.01917476,-37.5,-9.66,-29.34
1554207314674,6.2009826,-7.4992385,0.46866497,-0.10652645,0.036218993,-0.0053263223,-37.44,-9.6,-29.34
1554207314694,6.253655,-7.566275999999999,0.3681085,-0.10759171,0.036218993,-0.004261058,-37.44,-9.54,-29.34
1554207314714,6.320692500000001,-7.5950065,0.5979519,-0.07563378,0.03834952,-0.018109497,-37.44,-9.54,-29.34
1554207314734,6.2009826,-7.5375457,0.6123171,-0.04261058,0.025566347000000003,-0.023435817999999997,-37.44,-9.54,-29.28
1554207314755,5.966350599999999,-7.508815299999999,0.57400984,-0.011717908999999999,0.010652645,-0.026631612000000002,-37.5,-9.54,-29.28
1554207314775,6.066907,-7.6045833,0.7032967,-0.00958738,-0.008522116,-0.033023197000000004,-37.5,-9.6,-29.34
1554207314794,5.995081,-7.6428905,0.9091981,-0.011717908999999999,-0.011717908999999999,-0.033023197000000004,-37.56,-9.6,-29.28
1554207314815,6.0525417,-7.6907744000000005,0.8996213,-0.008522116,0.0031957934000000003,-0.040480047000000005,-37.56,-9.6,-29.34
1554207314835,5.990292500000001,-7.542333999999999,0.8996213,-0.00958738,0.02130529,-0.06178534,-37.56,-9.42,-29.34
1554207314855,6.0764837,-7.791331,0.85652566,-0.037284255,0.034088463,-0.07030745599999999,-37.56,-9.3,-29.34
1554207314874,6.100425700000001,-7.73387,0.8948328999999999,-0.083090626,0.049002163,-0.06711166,-37.56,-9.12,-29.34
1554207314894,6.081272,-7.6333137,0.55006784,-0.112918034,0.060720075,-0.05965481,-37.56,-8.94,-29.34
1554207314914,6.0621184999999995,-7.681197599999999,0.56922144,-0.12357068,0.06711166,-0.05539375,-37.44,-8.82,-29.4
1554207314936,6.1866174,-7.585429700000001,0.5069722,-0.111852765,0.07137272,-0.058589544,-37.38,-8.7,-29.34
1554207314955,6.1818290000000005,-7.566275999999999,0.5069722,-0.094808534,0.068176925,-0.06391586,-37.32,-8.58,-29.34
1554207314975,6.143522,-7.5758529999999995,0.4878186,-0.06604639400000001,0.058589544,-0.07350325,-37.26,-8.52,-29.34
1554207314995,6.2153480000000005,-7.5471225,0.56922144,-0.05006743,0.04474111,-0.08735169,-37.2,-8.58,-29.34
1554207315015,6.0764837,-7.6045833,0.48303019999999997,-0.04474111,0.033023197000000004,-0.09374327,-37.14,-8.58,-29.34
1554207315035,6.0525417,-7.542333999999999,0.65062433,-0.039414786,0.017044231,-0.10013486,-37.14,-8.64,-29.34
1554207315054,6.1578870000000006,-7.724292999999999,0.4878186,-0.029827405,0.0,-0.098004326,-37.08,-8.64,-29.34
1554207315074,6.0621184999999995,-7.599794999999999,0.7224503999999999,-0.02130529,0.0031957934000000003,-0.09267801,-37.08,-8.58,-29.34
1554207315095,6.1626754,-7.662044,0.5835866999999999,-0.0010652645,0.007456851,-0.080960095,-37.08,-8.46,-29.4
1554207315114,6.2057709999999995,-7.5950065,0.6314706999999999,0.0031957934000000003,0.017044231,-0.07350325,-37.08,-8.4,-29.4
1554207315135,6.1578870000000006,-7.5758529999999995,0.66020113,-0.0031957934000000003,0.023435817999999997,-0.068176925,-37.08,-8.34,-29.46
1554207315155,6.1387334000000005,-7.6045833,0.717662,-0.013848438000000001,0.035153727999999995,-0.060720075,-37.08,-8.34,-29.52
1554207315175,6.1578870000000006,-7.542333999999999,0.6171055000000001,-0.00958738,0.03834952,-0.05752428,-37.08,-8.34,-29.52
1554207315195,6.0956373,-7.6285253,0.5021838,-0.011717908999999999,0.039414786,-0.058589544,-37.08,-8.34,-29.52
1554207315215,6.1530986,-7.5710645,0.56922144,-0.012783173500000002,0.027696876000000002,-0.053263225,-37.08,-8.4,-29.52
1554207315234,6.114791,-7.6093717000000005,0.5979519,-0.004261058,0.022370555,-0.05219796,-37.08,-8.46,-29.52
1554207315254,6.0860605,-7.6285253,0.6410475,0.01917476,0.022370555,-0.04580637,-37.08,-8.52,-29.52
1554207315275,6.143522,-7.647678999999999,0.48303019999999997,0.049002163,0.018109497,-0.039414786,-37.08,-8.58,-29.52
1554207315295,6.1195793,-7.6333137,0.66498953,0.06924219,0.014913702,-0.036218993,-37.08,-8.64,-29.52
1554207315314,6.047753299999999,-7.5327573,0.56443304,0.07137272,0.010652645,-0.026631612000000002,-37.02,-8.7,-29.52
1554207315334,6.023811299999999,-7.561487700000001,0.741604,0.05219796,0.007456851,-0.01917476,-36.9,-8.7,-29.52
1554207315354,6.0764837,-7.542333999999999,0.65541273,0.035153727999999995,0.011717908999999999,-0.018109497,-36.84,-8.76,-29.58
1554207315375,6.1578870000000006,-7.6428905,0.56922144,0.025566347000000003,0.014913702,-0.018109497,-36.78,-8.76,-29.64
1554207315395,6.143522,-7.561487700000001,0.6841431,0.025566347000000003,0.02876214,-0.01917476,-36.72,-8.76,-29.7
1554207315416,6.1195793,-7.614160000000001,0.6123171,0.025566347000000003,0.035153727999999995,-0.026631612000000002,-36.6,-8.76,-29.76
1554207315436,6.0908489999999995,-7.5950065,0.6745663000000001,0.017044231,0.02876214,-0.03195793,-36.54,-8.76,-29.82
1554207315455,6.0908489999999995,-7.5471225,0.7128736,-0.002130529,0.02130529,-0.029827405,-36.48,-8.76,-29.88
1554207315475,6.066907,-7.5758529999999995,0.7128736,-0.025566347000000003,0.011717908999999999,-0.029827405,-36.48,-8.76,-29.94
1554207315494,6.042965000000001,-7.6524673,0.789488,-0.033023197000000004,0.002130529,-0.02876214,-36.48,-8.76,-29.94
1554207315514,6.0381765,-7.566275999999999,0.717662,-0.012783173500000002,0.0031957934000000003,-0.029827405,-36.48,-8.76,-29.94
1554207315535,6.0908489999999995,-7.705139599999999,0.75596917,0.027696876000000002,0.002130529,-0.033023197000000004,-36.54,-8.64,-29.88
1554207315555,5.9567738,-7.542333999999999,0.5931635000000001,0.039414786,0.004261058,-0.036218993,-36.54,-8.58,-29.82
1554207315575,6.081272,-7.5710645,0.6841431,0.03834952,0.0010652645,-0.04261058,-36.54,-8.58,-29.76
1554207315595,6.1100025,-7.6093717000000005,0.6841431,0.025566347000000003,-0.0031957934000000003,-0.04474111,-36.54,-8.52,-29.7
1554207315614,6.1100025,-7.542333999999999,0.8230068000000001,0.025566347000000003,-0.004261058,-0.053263225,-36.54,-8.58,-29.64
1554207315634,6.1626754,-7.566275999999999,0.7751228,0.026631612000000002,-0.010652645,-0.058589544,-36.48,-8.58,-29.58
1554207315655,6.229712999999999,-7.480085000000001,0.6362591,0.00958738,-0.011717908999999999,-0.049002163,-36.48,-8.7,-29.58
1554207315674,6.2009826,-7.4274119999999995,0.6410475,0.0010652645,-0.0053263223,-0.05006743,-36.54,-8.76,-29.58
1554207315695,6.229712999999999,-7.480085000000001,0.7368156,-0.020240024,-0.0053263223,-0.046871635999999994,-36.54,-8.88,-29.58
1554207315715,6.2009826,-7.436989,0.6410475,-0.02130529,-0.0031957934000000003,-0.05219796,-36.54,-9.0,-29.58
1554207315735,6.114791,-7.417835,0.5117606,-0.026631612000000002,-0.008522116,-0.06711166,-36.6,-9.06,-29.58
1554207315754,6.114791,-7.441777,0.65062433,-0.029827405,-0.02130529,-0.07350325,-36.6,-9.18,-29.64
1554207315774,6.1195793,-7.5519110000000005,0.56443304,-0.034088463,-0.02876214,-0.07030745599999999,-36.6,-9.18,-29.64
1554207315795,6.100425700000001,-7.6189485,0.56443304,-0.027696876000000002,-0.04261058,-0.06498113,-36.66,-9.18,-29.64
1554207315815,6.143522,-7.561487700000001,0.6889314999999999,-0.008522116,-0.05539375,-0.06285059999999999,-36.72,-9.12,-29.7
1554207315834,6.172251999999999,-7.681197599999999,0.5931635000000001,0.022370555,-0.06391586,-0.06924219,-36.72,-9.06,-29.7
1554207315855,6.291962,-7.6189485,0.6841431,0.04474111,-0.06924219,-0.07350325,-36.72,-9.06,-29.7
1554207315874,6.229712999999999,-7.5375457,0.74639237,0.056459017,-0.06924219,-0.07137272,-36.72,-9.06,-29.7
1554207315894,6.1818290000000005,-7.49445,0.6937199000000001,0.05539375,-0.06604639400000001,-0.06711166,-36.72,-9.0,-29.76
1554207315915,6.3063273,-7.5519110000000005,0.64583594,0.04474111,-0.060720075,-0.060720075,-36.72,-9.0,-29.76
1554207315934,6.2584434,-7.475296000000001,0.7368156,0.04474111,-0.056459017,-0.06391586,-36.78,-9.0,-29.76
1554207315955,6.2009826,-7.4609309999999995,0.7224503999999999,0.040480047000000005,-0.05752428,-0.06285059999999999,-36.78,-9.0,-29.76
1554207315975,6.2105594,-7.398681599999999,0.66020113,0.033023197000000004,-0.05539375,-0.054328485999999995,-36.78,-9.0,-29.7
1554207315994,6.26802,-7.4274119999999995,0.5069722,0.03089267,-0.051132694000000006,-0.054328485999999995,-36.84,-9.0,-29.64
1554207316014,6.315904,-7.4034699999999996,0.6841431,0.035153727999999995,-0.047936900000000005,-0.05752428,-36.84,-9.06,-29.64
1554207316035,6.397307,-7.441777,0.8038531999999999,0.037284255,-0.040480047000000005,-0.05965481,-36.84,-9.06,-29.64
1554207316055,6.339846,-7.374739599999999,0.6697779,0.025566347000000003,-0.027696876000000002,-0.06391586,-36.84,-9.06,-29.58
1554207316075,6.2249246,-7.3460092999999995,0.5979519,0.0010652645,-0.017044231,-0.06711166,-36.84,-9.12,-29.58
1554207316095,6.2871737,-7.413047,0.6841431,-0.02876214,-0.0010652645,-0.07989483,-36.84,-9.12,-29.52
1554207316115,6.3111157,-7.3364325,0.6889314999999999,-0.06604639400000001,0.014913702,-0.084155895,-36.84,-9.18,-29.52
1554207316135,6.4212489999999995,-7.3843164,0.74639237,-0.10226539,0.036218993,-0.08522116,-36.84,-9.24,-29.52
1554207316155,6.4068837,-7.3938932,0.7942764,-0.12357068,0.05752428,-0.099069595,-36.84,-9.3,-29.52
1554207316174,6.3589997,-7.355586,0.76554596,-0.14487597,0.06498113,-0.111852765,-36.84,-9.3,-29.52
1554207316194,6.325481,-7.413047,0.7032967,-0.16831179,0.06924219,-0.11504856,-36.84,-9.3,-29.52
1554207316216,6.315904,-7.3220673,0.6123171,-0.21837921,0.068176925,-0.10972224,-36.84,-9.36,-29.52
1554207316236,6.1770406,-7.255029700000001,0.5021838,-0.28016454,0.07456851,-0.09587380000000001,-36.84,-9.36,-29.52
1554207316255,6.277597,-7.2981253,0.5117606,-0.30892670000000005,0.082025364,-0.08948222,-36.84,-9.36,-29.52
1554207316279,6.2105594,-7.341221000000001,0.40641573,-0.27803403,0.096939065,-0.09054748,-36.84,-9.36,-29.58
1554207316295,6.2057709999999995,-7.173627000000001,0.55485624,-0.21198763,0.10759171,-0.084155895,-36.78,-9.36,-29.58
1554207316315,6.172251999999999,-7.1975690000000005,0.40162733,-0.10226539,0.10759171,-0.080960095,-36.78,-9.36,-29.58
1554207316334,6.3589997,-7.077858999999999,0.39205053,-0.037284255,0.10013486,-0.11824436,-36.72,-9.36,-29.58
1554207316355,6.354211299999999,-6.8288617,0.34895490000000007,-0.06391586,0.10226539,-0.14913702,-36.72,-9.36,-29.58
1554207316374,6.320692500000001,-6.9198413,0.22924481,-0.14487597,0.10226539,-0.15020229,-36.72,-9.36,-29.64
1554207316395,6.411672,-6.8719573,0.13347675,-0.24074976,0.08948222,-0.15765914,-36.72,-9.54,-29.64
1554207316414,6.5218053,-7.015609700000001,0.20530279,-0.30679616,0.084155895,-0.18109496,-36.72,-9.66,-29.64
1554207316435,6.617573299999999,-7.1305312999999995,0.42078096,-0.38136467,0.08948222,-0.20240025,-36.78,-9.9,-29.7
1554207316454,6.631939,-7.1209545,0.65062433,-0.40586576,0.13209279,-0.20240025,-36.84,-10.08,-29.76
1554207316475,6.5840545,-7.0730705,0.5021838,-0.3898868,0.18961707,-0.22370553,-36.9,-10.26,-29.76
1554207316495,6.631939,-7.140108000000001,0.88046765,-0.35579833,0.24074976,-0.27803403,-36.96,-10.38,-29.82
1554207316514,6.7372837,-7.020397999999999,1.2012907,-0.29507825,0.2972088,-0.34940675,-37.02,-10.38,-29.88
1554207316534,6.7372837,-6.666056,1.4311341,-0.20879184,0.37390783,-0.4314321,-37.02,-10.32,-29.88
1554207316555,6.6510925,-6.350021400000001,1.407192,-0.08628642,0.44954160000000004,-0.5592638000000001,-37.02,-10.08,-29.94
1554207316575,6.497863300000001,-6.010045,1.4359225,0.033023197000000004,0.48469532,-0.7073356,-36.96,-10.02,-29.94
1554207316594,6.531382,-5.6940102999999995,1.2635399,0.22690132,0.49747851,-1.0045444,-36.84,-9.66,-30.0
1554207316614,6.71813,-5.430648000000001,1.2539631000000002,0.36325517,0.51026165,-1.2442288000000001,-36.72,-9.54,-30.06
1554207316635,6.9958572,-5.3300915,0.86131406,0.4133226,0.4889564,-1.4689997,-36.54,-9.54,-30.36
1554207316655,7.522581599999999,-5.0284224,0.54527944,0.21624869,0.46019423,-1.6447683999999998,-36.42,-9.66,-30.66
1554207316674,8.255207,-4.7842135,0.12868834,-0.16085494,0.45273739999999996,-1.7427727,-36.3,-10.2,-30.96
1554207316696,8.935161,-4.745906400000001,0.17178397,-0.7307714,0.5550028,-1.7672738000000001,-36.18,-10.86,-31.26
1554207316714,9.097966,-4.8081555,0.22445641,-1.0482203,0.62317973,-1.7672738000000001,-36.06,-11.64,-31.56
1554207316734,9.088389,-4.860828,0.28191724,-1.3550163999999998,0.6945524000000001,-1.7779262999999998,-35.94,-12.42,-31.86
1554207316755,9.294291000000001,-4.8560395,0.018555064,-1.470065,0.72651035,-1.8002968999999998,-35.7,-13.2,-32.16
1554207316775,9.452309,-4.472967,0.12389994,-1.4317155000000001,0.74781567,-1.8098843,-35.4,-14.04,-32.46
1554207316794,9.696517,-4.3388919999999995,0.037708677,-1.2634037,0.7233145999999999,-1.7896442,-35.1,-14.82,-32.58
1554207316815,9.797073,-4.2862196,0.16220717,-1.0940266,0.6828345,-1.7566210999999998,-34.8,-15.48,-32.76
1554207316835,9.844957,-4.123414,0.26276365,-0.8873653,0.62317973,-1.7502294999999999,-34.44,-15.84,-33.12
1554207316855,9.792285000000001,-3.8265328000000003,0.5021838,-0.6444850000000001,0.531567,-1.7608821,-34.02,-16.08,-33.48
1554207316875,9.935937,-3.6780925000000004,0.34895490000000007,-0.35153726,0.43782368,-1.7502294999999999,-33.54,-16.32,-33.84
1554207316894,9.883265,-3.4578260000000003,0.53570265,-0.111852765,0.35899413,-1.7140104999999999,-33.06,-16.62,-34.2
1554207316914,9.835381,-3.4099417,0.7032967,0.27164245,0.29827404,-1.6671387999999998,-32.76,-17.04,-34.56
1554207316935,9.701305,-3.0986955000000003,0.56922144,0.50600064,0.24927188,-1.5883093000000001,-32.46,-17.46,-34.92
1554207316955,9.739613,-2.8449101000000003,0.55006784,0.65513766,0.20879184,-1.4775218,-32.22,-18.18,-35.22
1554207316974,9.677363,-2.6677392,0.39683893,0.7041398,0.17257284,-1.3454291,-31.98,-19.02,-35.52
1554207316994,9.552864999999999,-2.3756466,0.5931635000000001,0.6412892,0.13528858,-1.200553,-31.8,-19.98,-35.58
1554207317015,9.390058999999999,-2.2319946,0.65541273,0.48363006,0.08735169,-1.0620687,-31.62,-21.18,-35.7
1554207317036,9.500193,-2.0883423999999997,0.66020113,0.25353295,0.03089267,-0.9108011,-31.44,-22.5,-35.82
1554207317054,9.490616000000001,-2.083554,0.88046765,0.004261058,-0.02130529,-0.7488809000000001,-31.26,-23.76,-35.88
1554207317075,9.485827,-2.0787656,1.0145429,-0.16298546,-0.046871635999999994,-0.6348976,-31.08,-24.84,-35.94
1554207317095,9.509769,-2.3038206000000003,1.2252326999999998,-0.32170987,-0.07350325,-0.4878911,-30.9,-25.8,-36.0
1554207317115,9.476251,-2.308609,1.3736732,-0.4048005,-0.080960095,-0.34727620000000003,-30.72,-26.58,-36.06
1554207317134,9.504980999999999,-2.3469162,1.3497312,-0.40053943,-0.08522116,-0.22796659,-30.6,-27.24,-36.06
1554207317154,9.394848,-2.3373394,1.5891514,-0.33555830000000003,-0.09267801,-0.11717909,-30.48,-28.02,-36.12
1554207317174,9.485827,-2.332551,1.5412674,-0.20026971,-0.10013486,0.015978966,-30.42,-28.92,-36.12
1554207317195,9.476251,-2.2319946,1.5795746000000002,-0.06924219,-0.08522116,0.10972224,-30.48,-29.34,-36.18
1554207317214,9.610325999999999,-2.2080526000000003,1.6514006,0.013848438000000001,-0.07989483,0.17470337,-30.48,-29.52,-36.18
1554207317234,9.572019000000001,-2.0500352,1.5269021,0.10546118,-0.07776430000000001,0.257794,-30.54,-30.12,-36.18
1554207317254,9.586383999999999,-1.8441339,1.4981716999999999,0.13741912,-0.07456851,0.3270362,-30.6,-30.42,-36.3
1554207317275,9.595961,-1.834557,1.5556326,0.1587244,-0.068176925,0.40373522,-30.66,-30.66,-36.36
1554207317294,9.610325999999999,-1.8106151000000001,1.5891514,0.16618125,-0.053263225,0.47617322,-30.66,-30.66,-36.42
1554207317314,9.595961,-1.834557,1.4024036,0.165116,-0.036218993,0.51771855,-30.72,-30.48,-36.48
1554207317334,9.691728999999999,-1.7579426,1.3210008,0.1438107,-0.02130529,0.54435015,-30.72,-30.3,-36.54
1554207317355,9.816227,-1.6861166,1.4407108999999998,0.1107875,-0.010652645,0.5613944000000001,-30.78,-30.12,-36.6
1554207317374,9.77792,-1.8106151000000001,1.3784616000000003,0.08628642,-0.0053263223,0.55074173,-30.84,-29.94,-36.6
1554207317394,9.821015,-1.738789,1.5939398,0.082025364,0.0,0.5251754,-30.96,-29.76,-36.66
1554207317414,9.677363,-1.7196354,1.335366,0.11611383,-0.0031957934000000003,0.49002165,-31.08,-29.52,-36.66
1554207317435,9.725247,-1.7004818,1.5173253,0.14487597,-0.002130529,0.46978164,-31.14,-29.46,-36.66
1554207317455,9.749189,-1.7435773999999997,1.4167688999999999,0.27590349999999997,-0.00958738,0.3898868,-31.38,-29.16,-36.66
1554207317474,9.696517,-1.6238673000000001,1.4694413,0.33555830000000003,0.0,0.3323625,-31.56,-29.04,-36.66
1554207317495,9.576807,-1.7004818,1.3640964,0.3653857,0.00958738,0.27483824,-31.68,-28.92,-36.66
1554207317514,9.557653,-1.6956933999999997,1.2539631000000002,0.35579833,0.00958738,0.23329292,-31.86,-28.92,-36.72
1554207317534,9.514558000000001,-1.5807717,1.3210008,0.30786142,0.010652645,0.14061491,-31.98,-28.86,-36.72
1554207317554,9.504980999999999,-1.5472529,1.407192,0.2609898,0.0063915867,0.07030745599999999,-32.1,-28.86,-36.6
1554207317574,9.476251,-1.6286557,1.4024036,0.24607609,0.0,0.013848438000000001,-32.22,-28.92,-36.48
1554207317595,9.504980999999999,-1.7292121999999999,1.3880384,0.26312032,-0.0010652645,-0.04580637,-32.28,-29.04,-36.3
1554207317614,9.471461999999999,-1.7340006000000001,1.3784616000000003,0.29827404,-0.0010652645,-0.10333065,-32.34,-29.1,-36.18
1554207317634,9.481038999999999,-1.5951369,1.3210008,0.33875409999999995,0.0010652645,-0.1470065,-32.4,-29.28,-36.06
1554207317654,9.533711,-1.5855601000000001,1.2491747,0.3653857,0.0,-0.18109496,-32.46,-29.58,-35.94
1554207317674,9.595961,-1.6478093,1.1629834,0.36005938,0.002130529,-0.20240025,-32.46,-30.0,-35.88
1554207317695,9.490616000000001,-1.6190788999999999,1.287482,0.3323625,0.002130529,-0.221575,-32.52,-30.42,-35.76
1554207317714,9.485827,-1.5951369,1.2731166999999999,0.2876214,-0.002130529,-0.23435818,-32.52,-30.9,-35.76
1554207317734,9.524135000000001,-1.6190788999999999,1.2300211,0.24607609,-0.0010652645,-0.23648871,-32.58,-31.32,-35.76
1554207317754,9.414000999999999,-1.5711948999999998,1.311424,0.22264028,0.004261058,-0.23009712,-32.58,-31.74,-35.82
1554207317774,9.533711,-1.7770962,1.311424,0.20772657,0.0063915867,-0.2130529,-32.58,-32.16,-35.88
1554207317794,9.514558000000001,-1.7004818,1.4263457,0.18002969,0.0031957934000000003,-0.19600865,-32.58,-32.58,-35.88
1554207317814,9.572019000000001,-1.6669630000000002,1.4598645000000001,0.16937704,-0.0063915867,-0.19600865,-32.64,-32.88,-36.0
1554207317834,9.562441999999999,-1.7292121999999999,1.5891514,0.15233281,-0.014913702,-0.1768339,-32.64,-33.0,-36.06
1554207317854,9.605537,-1.7196354,1.5125369,0.15020229,-0.011717908999999999,-0.15339808,-32.58,-33.06,-36.12
1554207317874,9.552864999999999,-1.8154035,1.5508442,0.15765914,-0.007456851,-0.14487597,-32.58,-33.18,-36.24
1554207317895,9.600749,-1.7770962,1.5891514,0.165116,-0.004261058,-0.13528858,-32.58,-33.3,-36.36
1554207317914,9.533711,-1.7675193999999999,1.5412674,0.15552860000000002,0.0010652645,-0.10865697,-32.58,-33.42,-36.48
1554207317935,9.552864999999999,-1.7483658,1.5939398,0.12783173,0.0,-0.083090626,-32.52,-33.54,-36.54
1554207317954,9.481038999999999,-1.7292121999999999,1.4981716999999999,0.094808534,0.002130529,-0.06604639400000001,-32.52,-33.72,-36.6
1554207317974,9.466674000000001,-1.8010383,1.6178818000000001,0.06711166,0.010652645,-0.046871635999999994,-32.52,-33.9,-36.6
1554207317994,9.399636,-1.6621746,1.5699978,0.05219796,0.012783173500000002,-0.023435817999999997,-32.52,-34.44,-36.54
1554207318015,9.481038999999999,-1.6669630000000002,1.5508442,0.06711166,0.013848438000000001,-0.0053263223,-32.52,-34.8,-36.48
1554207318034,9.495403999999999,-1.7292121999999999,1.7088615000000003,0.10546118,0.017044231,0.011717908999999999,-32.52,-35.1,-36.48
1554207318054,9.552864999999999,-1.6861166,1.6370354,0.14913702,0.008522116,0.027696876000000002,-32.52,-35.46,-36.42
1554207318074,9.610325999999999,-1.7244238,1.5652093999999999,0.18216023,0.013848438000000001,0.043675844000000005,-32.58,-35.7,-36.3
1554207318094,9.595961,-1.6765398,1.5269021,0.19174760000000002,0.017044231,0.04474111,-32.58,-35.88,-36.24
1554207318115,9.390058999999999,-1.6430208999999998,1.5795746000000002,0.18535602,0.022370555,0.039414786,-32.64,-36.0,-36.12
1554207318134,9.3421755,-1.5472529,1.4311341,0.1587244,0.039414786,0.033023197000000004,-32.64,-36.06,-36.06
1554207318154,9.332599,-1.5568296999999998,1.3210008,0.1107875,0.039414786,0.03195793,-32.7,-36.06,-36.0
1554207318174,9.399636,-1.3988123,1.4838065,0.036218993,0.034088463,0.03089267,-32.64,-36.0,-36.0
1554207318194,9.390058999999999,-1.4802152,1.4598645000000001,-0.023435817999999997,0.01917476,0.04261058,-32.64,-36.06,-35.94
1554207318214,9.615114,-1.6047136999999998,1.5939398,-0.05219796,0.007456851,0.06391586,-32.58,-36.06,-35.94
1554207318234,9.605537,-1.5616181,1.4407108999999998,-0.047936900000000005,0.0053263223,0.07243799,-32.52,-36.06,-36.0
1554207318254,9.270349000000001,-1.4754268,1.5316905,-0.035153727999999995,0.010652645,0.07989483,-32.46,-36.12,-36.06
1554207318274,9.193734,-1.4227544,1.4263457,-0.04580637,-0.0010652645,0.112918034,-32.4,-36.0,-36.06
1554207318294,9.629479,-1.4706384,1.4885948999999998,-0.08522116,-0.03195793,0.15020229,-32.34,-35.94,-36.12
1554207318314,9.586383999999999,-1.489792,1.6561891,-0.11611383,-0.03834952,0.15339808,-32.28,-35.94,-36.12
1554207318334,9.41879,-1.4706384,1.7328035,-0.11824436,-0.039414786,0.11930962,-32.28,-35.82,-36.12
1554207318354,9.514558000000001,-1.5280992,1.6897078999999997,-0.10226539,-0.04261058,0.08522116,-32.28,-35.7,-36.06
1554207318375,9.552864999999999,-1.4945803999999998,1.4407108999999998,-0.08735169,-0.04474111,0.033023197000000004,-32.28,-35.52,-36.06
1554207318394,9.356541,-1.6047136999999998,1.5891514,-0.06498113,-0.03195793,-0.046871635999999994,-32.28,-35.22,-36.06
1554207318414,9.188946000000001,-1.5089456,1.6705543,-0.040480047000000005,-0.033023197000000004,-0.11930962,-32.28,-34.92,-36.06
1554207318434,9.303867,-1.5328877,1.5747862,-0.034088463,-0.037284255,-0.18535602,-32.22,-34.74,-36.06
1554207318454,9.251195,-1.6382325,1.6801311,-0.03834952,-0.03195793,-0.25992453,-32.22,-34.5,-36.06
1554207318475,9.457097000000001,-1.6382325,1.5029601000000001,-0.051132694000000006,-0.027696876000000002,-0.3174488,-32.22,-34.26,-36.06
1554207318494,9.490616000000001,-1.6190788999999999,1.5891514,-0.07137272,-0.029827405,-0.35260254,-32.22,-34.02,-36.06
1554207318515,9.476251,-1.6238673000000001,1.4215573000000001,-0.08735169,-0.024501082,-0.37603834,-32.22,-33.9,-36.06
1554207318534,9.5385,-1.6142905,1.5508442,-0.10333065,-0.027696876000000002,-0.3749731,-32.22,-33.9,-36.12
1554207318554,9.481038999999999,-1.7244238,1.5891514,-0.12357068,-0.02876214,-0.350472,-32.16,-33.96,-36.12
1554207318574,9.562441999999999,-1.6286557,1.5173253,-0.13741912,-0.03089267,-0.31957933,-32.16,-34.02,-36.18
1554207318594,9.514558000000001,-1.7292121999999999,1.3976152,-0.13954964,-0.027696876000000002,-0.28016454,-32.16,-34.08,-36.18
1554207318615,9.514558000000001,-1.7292121999999999,1.5125369,-0.15126756,-0.026631612000000002,-0.22690132,-32.1,-34.2,-36.18
1554207318634,9.557653,-1.7100586,1.4407108999999998,-0.16298546,-0.034088463,-0.17044231,-32.04,-34.26,-36.18
1554207318654,9.68694,-1.7100586,1.4838065,-0.1768339,-0.046871635999999994,-0.112918034,-31.86,-34.32,-36.24
1554207318674,9.739613,-1.8106151000000001,1.4119805,-0.18216023,-0.04580637,-0.06178534,-31.74,-34.32,-36.24
1554207318694,9.643844999999999,-1.9015948,1.4502877,-0.16618125,-0.033023197000000004,-0.029827405,-31.68,-34.38,-36.24
1554207318714,9.385271000000001,-1.7052702000000002,1.4215573000000001,-0.15552860000000002,-0.02130529,-0.0063915867,-31.56,-34.38,-36.24
1554207318734,9.3661175,-1.7483658,1.4838065,-0.15659387,-0.013848438000000001,0.02876214,-31.5,-34.38,-36.24
1554207318754,9.399636,-1.7244238,1.4694413,-0.17896444,-0.007456851,0.054328485999999995,-31.44,-34.38,-36.18
1554207318774,9.500193,-1.7483658,1.5891514,-0.1949434,-0.015978966,0.047936900000000005,-31.38,-34.38,-36.24
1554207318794,9.619903,-1.8058267,1.5412674,-0.15233281,-0.027696876000000002,0.025566347000000003,-31.38,-34.38,-36.18
1554207318814,9.629479,-1.8968061999999999,1.5077485000000002,-0.058589544,-0.026631612000000002,0.0031957934000000003,-31.5,-34.38,-36.18
1554207318835,9.667786999999999,-1.7962499,1.5173253,0.07669904,-0.011717908999999999,-0.015978966,-31.62,-34.32,-36.18
1554207318854,9.543288,-1.8106151000000001,1.4359225,0.13848437,-0.0031957934000000003,-0.023435817999999997,-31.62,-34.32,-36.18
1554207318874,9.490616000000001,-1.7100586,1.335366,0.19387813,-0.026631612000000002,-0.012783173500000002,-31.74,-34.14,-36.24
1554207318895,9.524135000000001,-1.6525976999999998,1.2300211,0.18855181,-0.02876214,0.007456851,-31.8,-33.96,-36.24
1554207318914,9.533711,-1.7100586,1.2156559,0.15446335,-0.037284255,0.022370555,-31.8,-33.78,-36.3
1554207318934,9.461885,-1.6142905,1.2970588,0.113983296,-0.04474111,0.036218993,-31.86,-33.6,-36.24
1554207318954,9.375694000000001,-1.7483658,1.2779051000000001,0.08735169,-0.04580637,0.05219796,-31.92,-33.42,-36.3
1554207318975,9.327810000000001,-1.6813281999999998,1.0959458,0.068176925,-0.043675844000000005,0.06924219,-31.98,-33.24,-36.3
1554207318994,9.203311,-1.6047136999999998,1.2443863000000002,0.04261058,-0.05219796,0.07669904,-31.98,-33.12,-36.3
1554207319014,9.088389,-1.6813281999999998,1.0432734000000001,-0.007456851,-0.06178534,0.084155895,-31.98,-33.06,-36.3
1554207319035,9.184157,-1.5855601000000001,1.0672153999999998,-0.05752428,-0.098004326,0.1107875,-32.04,-33.0,-36.3
1554207319054,9.514558000000001,-1.6190788999999999,1.134253,-0.07989483,-0.12996227,0.13315806,-32.04,-33.06,-36.36
1554207319075,9.902417999999999,-1.7675193999999999,1.2060791000000002,-0.082025364,-0.14061491,0.12357068,-32.1,-33.12,-36.36
1554207319094,10.146626,-1.7866731,1.1629834,-0.08628642,-0.14487597,0.080960095,-32.16,-33.24,-36.3
1554207319114,10.156203,-1.7579426,1.0576386,-0.094808534,-0.14168017,0.043675844000000005,-32.28,-33.36,-36.3
1554207319134,9.648633,-1.7675193999999999,1.3305776000000002,-0.12570119999999999,-0.12570119999999999,0.010652645,-32.4,-33.48,-36.24
1554207319155,9.5385,-1.8489223000000001,1.6561891,-0.13315806,-0.12037488,0.014913702,-32.52,-33.54,-36.12
1554207319174,9.519346,-1.8632874,1.6897078999999997,-0.07989483,-0.12144015,0.05965481,-32.58,-33.66,-36.06
1554207319194,9.188946000000001,-1.8776526000000002,1.8477252,0.036218993,-0.094808534,0.10333065,-32.7,-33.84,-36.0
1554207319214,9.069236,-1.7244238,1.7232267,0.1949434,-0.060720075,0.13102753,-32.82,-34.08,-35.88
1554207319234,9.069236,-1.7100586,1.6130934,0.27377295,-0.04261058,0.16085494,-32.94,-34.2,-35.82
1554207319254,9.394848,-1.7100586,1.359308,0.28442562,-0.05006743,0.17363810000000002,-33.06,-34.32,-35.76
1554207319274,9.768343,-1.8728642,1.2012907,0.26312032,-0.054328485999999995,0.13209279,-33.18,-34.5,-35.7
1554207319294,9.768343,-1.9015948,1.0576386,0.24501082,-0.041545313,0.039414786,-33.24,-34.62,-35.64
1554207319314,9.576807,-1.7914615000000003,1.1486181999999998,0.24607609,-0.022370555,-0.053263225,-33.36,-34.68,-35.64
1554207319334,9.485827,-1.6909049999999999,0.96187055,0.22690132,-0.00958738,-0.10972224,-33.42,-34.68,-35.64
1554207319354,9.504980999999999,-1.738789,0.87567925,0.15978967,0.012783173500000002,-0.13315806,-33.54,-34.62,-35.64
1554207319374,9.615114,-1.5951369,0.7032967,0.05006743,0.013848438000000001,-0.1438107,-33.6,-34.44,-35.64
1554207319394,9.548077000000001,-1.6334441000000002,0.9283517,-0.07563378,0.014913702,-0.13102753,-33.66,-34.38,-35.64
1554207319414,9.600749,-1.6334441000000002,0.95708215,-0.17470337,0.0010652645,-0.08948222,-33.72,-34.2,-35.64
1554207319434,9.744401,-1.8537107,0.7846996,-0.24074976,-0.013848438000000001,-0.037284255,-33.78,-34.02,-35.64
1554207319454,9.763555,-1.8154035,0.95229375,-0.26205507,-0.020240024,-0.0063915867,-33.84,-33.84,-35.64
1554207319474,9.80665,-1.8680758000000002,1.1055226,-0.23222765,-0.023435817999999997,0.0053263223,-33.78,-33.48,-35.58
1554207319495,9.701305,-1.9686323000000001,1.2060791000000002,-0.16724652,-0.022370555,0.00958738,-33.66,-33.06,-35.58
1554207319514,9.600749,-1.9494787,1.4885948999999998,-0.08841695,-0.014913702,0.0031957934000000003,-33.48,-32.7,-35.52
1554207319534,9.5385,-1.9303252,1.2300211,-0.017044231,-0.015978966,-0.007456851,-33.24,-32.4,-35.52
1554207319555,9.634267999999999,-1.8680758000000002,1.3545196000000002,0.027696876000000002,-0.02130529,-0.01917476,-33.06,-31.98,-35.46
1554207319574,9.576807,-1.8680758000000002,1.2683283,0.051132694000000006,-0.018109497,-0.025566347000000003,-32.88,-31.56,-35.4
1554207319594,9.504980999999999,-1.834557,1.3545196000000002,0.056459017,-0.00958738,-0.027696876000000002,-32.64,-31.14,-35.34
1554207319615,9.481038999999999,-1.8010383,1.4024036,0.056459017,0.007456851,-0.03089267,-32.46,-30.78,-35.28
1554207319634,9.423578,-1.834557,1.3640964,0.043675844000000005,0.01917476,-0.03195793,-32.28,-30.6,-35.28
1554207319655,9.313444,-1.762731,1.2204443,0.014913702,0.027696876000000002,-0.049002163,-32.28,-30.54,-35.22
1554207319675,9.404425,-1.8058267,1.2443863000000002,-0.015978966,0.02876214,-0.06178534,-32.28,-30.42,-35.22
1554207319695,9.433155000000001,-1.8393455,1.2443863000000002,-0.05965481,0.03834952,-0.07350325,-32.28,-30.3,-35.22
1554207319714,9.485827,-1.8106151000000001,1.2108675,-0.08522116,0.046871635999999994,-0.084155895,-32.28,-30.3,-35.22
1554207319734,9.543288,-1.8393455,1.2060791000000002,-0.10439592,0.054328485999999995,-0.08841695,-32.28,-30.3,-35.34
1554207319755,9.576807,-1.8632874,1.0767921999999999,-0.12250541,0.051132694000000006,-0.09374327,-32.28,-30.3,-35.4
1554207319774,9.667786999999999,-1.9111716,1.2012907,-0.13528858,0.04261058,-0.101200126,-32.28,-30.24,-35.58
1554207319795,9.672575,-2.083554,0.8948328999999999,-0.12996227,0.033023197000000004,-0.10972224,-32.28,-30.18,-35.76
1554207319815,9.706094,-2.0260932,1.1534066,-0.10439592,0.024501082,-0.111852765,-32.28,-30.12,-35.82
1554207319834,9.562441999999999,-2.059612,1.1438298,-0.05965481,0.015978966,-0.10972224,-32.22,-30.06,-35.88
1554207319854,9.466674000000001,-2.0452468,1.0145429,-0.01917476,0.007456851,-0.09374327,-32.22,-29.94,-35.94
1554207319876,9.414000999999999,-2.107496,1.2060791000000002,0.007456851,-0.00958738,-0.07030745599999999,-32.22,-29.88,-36.0
1554207319895,9.270349000000001,-2.0452468,1.1725603,0.026631612000000002,-0.02130529,-0.051132694000000006,-32.16,-29.76,-35.94
1554207319914,9.198523,-2.083554,1.2826935,0.06711166,-0.033023197000000004,-0.02876214,-32.16,-29.64,-35.82
1554207319935,9.351752000000001,-1.9686323000000001,1.287482,0.12037488,-0.03834952,-0.002130529,-32.16,-29.58,-35.76
1554207319954,9.600749,-2.0165164,1.1486181999999998,0.16298546,-0.027696876000000002,0.02130529,-32.16,-29.52,-35.64
1554207319975,9.548077000000001,-2.0117279999999997,1.1486181999999998,0.15552860000000002,-0.00958738,0.024501082,-32.16,-29.46,-35.64
1554207319995,9.610325999999999,-1.8393455,1.0815806000000001,0.10333065,-0.015978966,0.018109497,-32.16,-29.4,-35.64
1554207320015,9.548077000000001,-2.0165164,1.0528502,0.00958738,-0.023435817999999997,0.037284255,-32.16,-29.4,-35.58
1554207320034,9.509769,-2.0644004000000002,1.0672153999999998,-0.099069595,-0.027696876000000002,0.068176925,-32.16,-29.4,-35.52
1554207320054,9.576807,-2.1984756,1.0097545,-0.19387813,-0.035153727999999995,0.10546118,-32.22,-29.46,-35.46
1554207320076,9.576807,-2.356493,1.2204443,-0.25033715,-0.053263225,0.15126756,-32.22,-29.46,-35.46
1554207320094,9.572019000000001,-2.4570496,1.2012907,-0.23116238,-0.06285059999999999,0.19600865,-32.22,-29.4,-35.46
1554207320114,9.457097000000001,-2.629432,1.2012907,-0.15126756,-0.06604639400000001,0.21518342,-32.22,-29.34,-35.4
1554207320134,9.452309,-2.6964695,1.2108675,-0.022370555,-0.06178534,0.21092236,-32.22,-29.22,-35.4
1554207320155,9.428367,-2.6725276,1.2443863000000002,0.12037488,-0.04474111,0.18748654,-32.22,-29.16,-35.34
1554207320175,9.313444,-2.5145104,1.0767921999999999,0.22477080000000002,-0.033023197000000004,0.15659387,-32.22,-29.04,-35.34
1554207320194,9.370906,-2.4187422,0.95708215,0.26631612,-0.01917476,0.11717909,-32.22,-28.92,-35.4
1554207320215,9.303867,-2.4091654,0.9475053,0.27164245,-0.004261058,0.082025364,-32.22,-28.86,-35.52
1554207320234,9.279925,-2.2559366,1.0384849,0.23968449999999997,0.007456851,0.06178534,-32.22,-28.74,-35.58
1554207320254,9.255983,-2.2894554,0.9427169,0.20026971,0.010652645,0.05006743,-32.22,-28.68,-35.64
1554207320275,9.442732000000001,-2.356493,0.75118077,0.10546118,0.004261058,0.06498113,-32.34,-28.62,-35.7
1554207320295,9.442732000000001,-2.3900118,0.81343,0.004261058,0.0031957934000000003,0.13528858,-32.46,-28.62,-35.7
1554207320314,9.500193,-2.8401217,0.8086416000000001,-0.11717909,0.0,0.2545982,-32.58,-28.62,-35.76
1554207320335,9.634267999999999,-3.2040405,0.789488,-0.2876214,-0.008522116,0.46019423,-32.7,-28.56,-35.76
1554207320354,9.763555,-3.615843,0.6171055000000001,-0.47936899999999993,-0.018109497,0.74461985,-32.76,-28.56,-35.7
1554207320374,9.801862,-4.4059295999999994,0.789488,-0.6487460999999999,-0.037284255,1.0769824,-32.88,-28.56,-35.58
1554207320395,9.935937,-5.2343235,0.98102415,-0.7318366999999999,-0.08841695,1.4253238000000001,-32.88,-28.38,-35.46
1554207320415,9.988609,-6.096236,0.8948328999999999,-0.6849651,-0.15126756,1.748099,-32.94,-27.96,-35.34
1554207320435,10.170568,-6.9725137,0.6745663000000001,-0.5581986,-0.22796659,2.062352,-32.94,-27.18,-35.28
1554207320455,10.342952,-7.7865424,0.7032967,-0.4133226,-0.3153183,2.396845,-32.94,-26.16,-35.16
1554207320474,10.342952,-9.0315275,0.6697779,-0.14168017,-0.38136467,2.7686224,-32.94,-24.96,-35.1
1554207320494,10.093954,-10.123283,0.45908818,0.2034655,-0.43462790000000007,3.1606395,-32.94,-23.58,-34.98
1554207320515,9.562441999999999,-10.4967785,-0.22086509999999998,0.42077947,-0.49321744,3.516438,-33.0,-21.9,-34.86
1554207320535,9.021352,-10.645219,-0.66139823,0.43356264,-0.5486112,3.818973,-33.06,-19.92,-34.68
1554207320555,8.556877,-11.277288,-0.7140707,0.29188246,-0.61678815,4.108725,-33.18,-17.82,-34.44
1554207320575,7.7572136,-11.756129,-0.7188591,0.11824436,-0.67324716,4.387824,-33.3,-15.72,-34.2
1554207320595,6.6654577,-11.751341,-0.6326678000000001,0.0,-0.7339671999999999,4.615791000000001,-33.36,-13.62,-33.96
1554207320614,5.645528,-11.760917999999998,-0.27832595,-0.023435817999999997,-0.8117314999999999,4.809669,-33.48,-11.22,-33.66
1554207320634,4.5872903,-11.54065,-0.024540568,0.094808534,-0.88203895,4.9598713,-33.54,-8.64,-33.3
1554207320655,3.6583402,-10.999561,0.109534726,0.25033715,-0.96086854,5.051483999999999,-33.54,-5.76,-32.82
1554207320675,3.0597897,-10.544661999999999,0.19572599,0.36325517,-0.99921805,5.111139,-33.42,-2.82,-32.22
1554207320695,2.4181437000000003,-10.444106,0.23882163,0.4708469,-1.0237192,5.0962252999999995,-33.06,0.18,-31.68
1554207320714,1.5993267,-9.903017,-0.14903906,0.50173956,-1.0396981,5.058941,-32.4,3.24,-31.2
1554207320734,0.842759,-9.634866,-0.30226797,0.39840892,-1.0439591000000001,5.0046124,-31.5,6.36,-30.6
1554207320754,0.023942016,-9.539098,-0.12988544,0.21731395,-1.0354371,4.9044776,-30.54,9.48,-30.0
1554207320774,-0.6991069000000001,-9.132083999999999,0.56922144,0.18642128,-1.0120013,4.800081700000001,-29.34,12.36,-29.4
1554207320795,-1.5562311000000002,-8.988432000000001,0.6937199000000001,0.59867865,-0.9555421999999999,4.601942500000001,-27.24,16.32,-28.56
1554207320816,-2.0207062,-8.480861,0.52133745,0.9012136999999999,-0.8863,4.4080644,-25.5,18.66,-28.2
1554207320834,-2.3894134,-7.8009076,0.46866497,0.9736517,-0.78723043,4.2322955,-23.64,20.7,-27.84
1554207320855,-2.8299465,-7.374739599999999,0.43035775,0.8681905000000001,-0.69774824,4.0533314,-21.78,22.38,-27.48
1554207320875,-3.1268275,-6.848015299999999,0.82779527,0.6487460999999999,-0.6125271,3.8488004,-19.98,23.82,-27.24
1554207320895,-3.5721489999999996,-6.2638300000000005,0.8948328999999999,0.48682585,-0.51026165,3.6165729,-18.0,24.84,-27.06
1554207320915,-4.2185836,-5.966949,1.407192,0.44101948,-0.42397526,3.3619747,-16.08,25.56,-27.0
1554207320935,-4.237737,-5.502473999999999,1.7854759999999998,0.49960902,-0.3717773,3.113768,-14.22,26.04,-27.06
1554207320954,-4.1276035,-5.109825,1.8716671000000003,0.628506,-0.30146983,2.8740835,-12.48,26.4,-27.12
1554207320974,-4.280833,-4.678869000000001,2.1877017000000003,0.7392935,-0.20985709,2.6333337,-10.86,26.4,-27.18
1554207320995,-4.917690299999999,-3.816956,2.3888147,0.8831041999999999,-0.11504856,2.3148196,-9.3,26.4,-27.3
1554207321014,-5.6982,-3.2136172999999997,2.4510639,0.93423694,-0.06178534,2.130529,-7.86,26.28,-27.48
1554207321034,-6.2392898,-2.6485856,2.7096379,0.89801794,-0.023435817999999997,1.9078886999999998,-6.48,26.1,-27.72
1554207321055,-6.789956,-1.8776526000000002,2.6761188999999996,0.74675035,0.0010652645,1.6447683999999998,-5.34,25.68,-28.08
1554207321074,-6.933608,-1.6430208999999998,2.9538465,0.6135923000000001,0.015978966,1.4199976,-4.26,25.14,-28.38
1554207321094,-7.129933,-1.5089456,3.1262288,0.62744075,0.06178534,1.1590078000000001,-3.18,24.54,-28.62
1554207321115,-7.422025,-1.3078326999999998,3.0974984,0.8117314999999999,0.07350325,0.9129315999999998,-2.1,23.76,-28.92
1554207321134,-7.9343843,-1.0588357,2.7335799,0.9853696,0.082025364,0.73609775,-1.26,22.74,-29.22
1554207321154,-8.437167,-0.66139823,2.2882583,0.93423694,0.07030745599999999,0.6242449999999999,-0.6,21.72,-29.58
1554207321175,-8.829816000000001,-0.39803603,2.3026235,0.62104917,0.036218993,0.5432849000000001,-0.06,20.7,-29.94
1554207321194,-8.959103,-0.30705637,2.484583,0.23542345,0.008522116,0.44315,0.24,19.62,-30.3
1554207321215,-8.99741,-0.623091,2.7431567,-0.0063915867,-0.002130529,0.30679616,0.6,18.6,-30.6
1554207321235,-9.093178,-1.0157399999999999,2.795829,-0.05752428,-0.008522116,0.20879184,1.02,17.82,-30.9
1554207321254,-9.3661175,-1.1115081,2.7144263,0.039414786,-0.03195793,0.2130529,1.32,17.04,-31.14
1554207321276,-9.576807,-1.1498153,2.6569653,0.16618125,-0.07669904,0.26418558,1.5,16.44,-31.44
1554207321294,-9.442732000000001,-1.1546037,2.7575218999999995,0.26418558,-0.12037488,0.27057716,1.68,16.08,-31.74
1554207321314,-9.332599,-1.0636241000000002,2.7048495,0.34088463,-0.1470065,0.23116238,1.86,15.78,-31.92
1554207321336,-9.346964,-0.7954735,2.594716,0.4079963,-0.17150758,0.18216023,1.98,15.6,-32.1
1554207321356,-9.323022,-0.6757634,2.7670987,0.40586576,-0.1768339,0.16298546,2.16,15.6,-32.16
1554207321375,-9.399636,-0.65182143,2.8293478,0.30466563,-0.17896444,0.17363810000000002,2.22,15.54,-32.28
1554207321395,-9.279925,-0.76195467,2.7670987,0.21092236,-0.18322548,0.18642128,2.16,15.3,-32.34
1554207321415,-9.3182335,-0.76195467,2.6473885,0.15020229,-0.19920446,0.18642128,2.16,15.0,-32.46
1554207321435,-9.121908,-0.8194155000000001,2.7335799,0.09054748,-0.2130529,0.18642128,2.16,14.76,-32.58
1554207321455,-9.045294,-0.6278794,2.915539,0.013848438000000001,-0.21944448,0.19813919,2.16,14.4,-32.64
1554207321475,-9.093178,-0.4938041,3.0113072,-0.043675844000000005,-0.221575,0.19920446,2.1,14.04,-32.76
1554207321495,-8.987833,-0.6087258000000001,2.8006175,-0.12357068,-0.22050974,0.19387813,2.04,13.68,-32.88
1554207321515,-9.02614,-0.65182143,3.0735563999999997,-0.20240025,-0.22050974,0.17896444,2.04,13.32,-33.0
1554207321534,-9.088389,-0.7236475,3.1741127999999996,-0.21944448,-0.21092236,0.17896444,1.98,13.08,-33.12
1554207321554,-8.90643,-0.86729956,3.3560722000000003,-0.1587244,-0.19600865,0.18748654,1.92,12.9,-33.24
1554207321575,-8.801085,-0.9487024,3.4087446000000003,0.083090626,-0.18109496,0.16937704,1.86,12.84,-33.3
1554207321594,-8.863335000000001,-0.39803603,3.5523968,0.39734364,-0.14913702,0.12037488,1.86,12.78,-33.3
1554207321615,-8.896853,-0.32621,3.1597476,0.58696073,-0.12676647,0.07776430000000001,1.8,12.72,-33.36
1554207321635,-9.160214999999999,-0.08200141,2.8293478,0.48149952,-0.07137272,0.07456851,1.8,12.66,-33.36
1554207321655,-9.165004,-0.30226797,2.8389246,0.26525086,-0.049002163,0.10759171,1.8,12.54,-33.42
1554207321677,-9.050082000000002,-0.32621,3.09271,0.11930962,-0.05006743,0.11611383,1.8,12.36,-33.42
1554207321698,-8.8777,-0.21607670000000004,3.4231097999999998,0.10972224,-0.049002163,0.10333065,1.8,12.3,-33.42
1554207321714,-8.695741,-0.10594343,3.1932666000000003,0.23435818,-0.051132694000000006,0.04474111,1.74,11.88,-33.54
1554207321734,-8.676587,-0.091578215,3.068768,0.26631612,-0.06285059999999999,0.04261058,1.74,11.34,-33.66
1554207321755,-8.815451,-0.10115502,3.0591912,0.21092236,-0.06285059999999999,0.04474111,1.68,10.8,-33.72
1554207321774,-8.858546,-0.12509704,3.1070752,0.15446335,-0.07989483,0.023435817999999997,1.62,10.26,-33.84
1554207321794,-8.90643,-0.0005985504,3.1932666000000003,0.10652645,-0.08628642,-0.00958738,1.56,9.78,-33.96
1554207321814,-8.892064999999999,-0.010175358,3.3943794,0.08735169,-0.09267801,-0.024501082,1.5,9.36,-34.02
1554207321834,-8.944737,-0.05805939,3.2555158,0.07350325,-0.084155895,-0.024501082,1.44,9.0,-34.14
1554207321855,-9.102755,0.037708677,3.3800142,0.051132694000000006,-0.06498113,-0.0031957934000000003,1.38,8.64,-34.26
1554207321874,-9.155427,-0.10594343,3.4566288,0.053263225,-0.04580637,0.010652645,1.26,8.46,-34.38
1554207321895,-9.121908,0.08080431,3.4183214,0.058589544,-0.015978966,-0.010652645,1.2,8.52,-34.44
1554207321914,-9.136273,0.11911154,3.1597476,0.07350325,-0.010652645,-0.027696876000000002,1.2,8.52,-34.56
1554207321935,-9.059659,0.21009120000000003,3.447052,0.040480047000000005,0.0010652645,-0.010652645,1.14,8.58,-34.62
1554207321955,-8.90643,0.05686229,3.4757824,0.034088463,-0.0031957934000000003,0.010652645,1.14,8.64,-34.74
1554207321975,-8.892064999999999,0.08559271,3.7008373999999997,0.07563378,0.0031957934000000003,0.014913702,1.2,8.7,-34.86
1554207321994,-9.069236,0.0712275,3.6529531000000004,0.16085494,0.0063915867,0.011717908999999999,1.2,8.76,-34.98
1554207322014,-8.973467999999999,0.19572599,3.1932666000000003,0.22583607,0.0031957934000000003,0.0031957934000000003,1.26,8.76,-35.04
1554207322034,-9.078813,0.17178397,3.2555158,0.22796659,-0.0063915867,-0.004261058,1.26,8.82,-35.1
1554207322055,-8.99741,0.27234045,3.2507273999999997,0.18109496,-0.017044231,-0.0031957934000000003,1.32,8.82,-35.16
1554207322074,-9.002198,0.3824737,3.3560722000000003,0.12144015,-0.013848438000000001,-0.015978966,1.32,8.82,-35.22
1554207322094,-9.006986999999999,0.28670564,3.3608606,0.06498113,0.0063915867,-0.03195793,1.38,8.82,-35.34
1554207322116,-9.035717,0.47824179999999994,3.3800142,0.027696876000000002,0.017044231,-0.040480047000000005,1.38,8.76,-35.34
1554207322134,-8.858546,0.3824737,3.2172085999999998,0.0063915867,0.00958738,-0.058589544,1.38,8.64,-35.4
1554207322156,-8.925583999999999,0.3298013,3.4039562000000005,-0.020240024,0.011717908999999999,-0.05965481,1.38,8.52,-35.46
1554207322175,-8.887277000000001,0.21009120000000003,3.341707,-0.02130529,0.008522116,-0.047936900000000005,1.38,8.52,-35.52
1554207322195,-9.064447,0.04249708,3.365649,0.00958738,0.007456851,-0.05006743,1.38,8.4,-35.52
1554207322214,-8.992621,0.11432313,3.2363622000000003,0.03834952,0.0053263223,-0.06178534,1.38,8.34,-35.58
1554207322234,-9.083601,0.13826515,3.317765,0.03089267,0.0063915867,-0.05965481,1.38,8.22,-35.58
1554207322255,-9.121908,0.23403321,3.3273417999999997,0.011717908999999999,0.00958738,-0.05219796,1.38,8.04,-35.58
1554207322274,-9.021352,0.21966799999999997,3.4039562000000005,0.012783173500000002,0.013848438000000001,-0.060720075,1.38,8.04,-35.58
1554207322294,-8.954314,0.29149407,3.2698810000000003,0.03195793,0.022370555,-0.06498113,1.38,7.98,-35.58
1554207322314,-8.935161,0.28670564,3.3273417999999997,0.060720075,0.014913702,-0.06391586,1.38,7.98,-35.58
1554207322334,-8.892064999999999,0.23882163,3.2507273999999997,0.08628642,0.0031957934000000003,-0.07563378,1.32,7.92,-35.58
1554207322355,-8.786719999999999,0.23882163,3.2076318,0.07030745599999999,0.0,-0.096939065,1.32,7.86,-35.64
1554207322374,-8.90643,0.17657238,3.1405939999999997,-0.010652645,0.0063915867,-0.111852765,1.32,7.86,-35.64
1554207322394,-8.983044999999999,0.10474633,3.0544027999999996,-0.12250541,0.0053263223,-0.11611383,1.32,7.86,-35.7
1554207322414,-8.901641999999999,0.08080431,3.245939,-0.16298546,0.004261058,-0.12783173,1.32,7.86,-35.76
1554207322434,-8.930372,0.023343466,3.1118636000000004,-0.16831179,0.0053263223,-0.15446335,1.32,7.86,-35.76
1554207322454,-9.083601,0.04249708,3.0735563999999997,-0.14594123,0.00958738,-0.15659387,1.32,7.86,-35.76
1554207322474,-9.02614,-0.077213004,3.0496144,-0.128897,0.007456851,-0.13635385,1.38,7.86,-35.76
1554207322494,-8.968679,-0.02932897,3.2172085999999998,-0.12357068,0.013848438000000001,-0.13954964,1.38,7.86,-35.7
1554207322514,-8.983044999999999,-0.034117375,3.0160956000000003,-0.16618125,0.027696876000000002,-0.15659387,1.38,7.86,-35.58
1554207322535,-8.762777999999999,-0.091578215,2.9873652,-0.21837921,0.039414786,-0.16618125,1.38,7.86,-35.52
1554207322554,-8.7532015,-0.077213004,2.7287915000000003,-0.294013,0.06498113,-0.19600865,1.44,7.86,-35.46
1554207322575,-9.078813,-0.14425065,2.6761188999999996,-0.4048005,0.06498113,-0.23542345,1.44,7.98,-35.4
1554207322595,-8.829816000000001,-0.13467385,2.7862522999999997,-0.54435015,0.024501082,-0.23542345,1.44,8.1,-35.34
1554207322615,-8.532935,-0.4794389,2.6090812999999997,-0.6359629,-0.00958738,-0.257794,1.44,8.22,-35.28
1554207322635,-8.5473,-0.5991489999999999,2.2786815,-0.70840085,-0.026631612000000002,-0.31105720000000003,1.44,8.4,-35.22
1554207322655,-8.513782,-0.82899237,2.2164322999999997,-0.84688526,-0.053263225,-0.37390783,1.5,8.7,-35.16
1554207322674,-8.537724,-0.7284359,2.5899277,-1.0237192,-0.11611383,-0.42077947,1.5,9.06,-35.04
1554207322694,-8.37013,-0.52732295,3.2076318,-1.0641992,-0.15446335,-0.5028047999999999,1.5,9.84,-34.86
1554207322715,-8.255207,-0.44113165,3.3704373999999997,-0.9981528000000001,-0.14168017,-0.6327670999999999,1.5,10.68,-34.62
1554207322735,-8.331821000000001,-0.5081693,3.3991678,-0.9832390999999999,-0.12250541,-0.75633776,1.44,11.52,-34.44
1554207322754,-8.37013,-0.40761283,3.7535098,-1.0141318000000001,-0.15446335,-0.8426242,1.38,12.48,-34.14
1554207322774,-7.915230800000001,-0.54647654,4.055179,-1.1366372,-0.2034655,-0.9076053,1.26,13.44,-33.78
1554207322795,-7.584830800000001,-0.95827925,4.490924,-1.3092101,-0.21092236,-1.0226538,1.08,14.52,-33.36
1554207322814,-7.6470804,-1.5233108,4.687248,-1.4061489999999999,-0.17044231,-1.1920309,0.84,15.84,-32.82
1554207322834,-7.5800424,-2.3277626000000002,4.6633059999999995,-1.3891048000000001,-0.17789917,-1.3688648,0.48,17.22,-32.34
1554207322854,-7.005433999999999,-2.8018146,4.4765587,-1.2804478000000001,-0.23861924,-1.470065,0.06,18.36,-31.86
1554207322875,-6.8330517,-3.2710779999999997,4.040814,-1.107875,-0.30892670000000005,-1.5723303999999998,-0.42,19.44,-31.32
1554207322894,-6.631939,-3.6541502,4.0216603,-0.9171927,-0.35153726,-1.7108147,-1.08,20.58,-30.72
1554207322914,-6.6367273,-4.1760864,3.7535098,-0.7254451,-0.35579833,-1.8865832999999999,-1.74,21.6,-30.18
1554207322935,-6.5265937,-4.774636699999999,3.5140896,-0.5773733,-0.38562572,-2.0634172,-2.52,22.74,-29.64
1554207322955,-6.2249246,-5.3205147,3.470994,-0.46232477,-0.41545314,-2.2050973999999997,-3.3,23.88,-29.16
1554207322975,-6.1195793,-5.727529,3.3129766000000003,-0.29827404,-0.43569317,-2.3148196,-4.02,24.84,-28.8
1554207322994,-5.971139,-5.938218599999999,3.2124202,-0.20559604,-0.45699844,-2.396845,-4.86,25.5,-28.5
1554207323014,-5.6407394,-6.287772,3.293823,-0.18216023,-0.4825648,-2.453304,-5.76,26.1,-28.26
1554207323035,-5.4779334,-6.6516910000000005,3.2986114,-0.19707392,-0.49641323,-2.5086977000000004,-6.84,26.58,-27.96
1554207323055,-5.645528,-7.092224000000001,3.2411506,-0.22477080000000002,-0.45912898,-2.5470474,-7.98,26.94,-27.72
1554207323075,-5.78918,-7.8152729999999995,3.1741127999999996,-0.25353295,-0.38775626,-2.5321336,-9.24,27.24,-27.54
1554207323095,-5.521029,-8.131308,3.2076318,-0.34408042,-0.29933932,-2.4501082999999997,-10.62,27.36,-27.42
1554207323115,-5.272032299999999,-8.648455,2.8054059,-0.43036684,-0.22050974,-2.336125,-12.18,27.18,-27.3
1554207323135,-5.1475334,-8.7538,2.8820202,-0.54648066,-0.14913702,-2.2200112,-13.74,26.88,-27.18
1554207323154,-5.066130599999999,-8.772953999999999,2.7240029999999997,-0.72011876,-0.113983296,-2.1124194,-15.18,26.52,-27.06
1554207323175,-4.6495394999999995,-8.624513,2.556409,-0.9267801,-0.07350325,-1.9909793000000002,-16.68,26.16,-26.94
1554207323195,-4.367024,-8.69155,2.5803509,-1.0482203,-0.022370555,-1.8865832999999999,-17.88,25.8,-26.88
1554207323214,-4.156333999999999,-9.0842,2.795829,-0.9768475000000001,0.007456851,-1.8258631999999997,-18.96,25.38,-26.88
1554207323235,-3.5625722,-9.194333,2.915539,-0.71479243,0.00958738,-1.7811221999999998,-20.04,24.96,-26.82
1554207323255,-3.1651347000000003,-8.681973,3.1358056,-0.27057716,0.014913702,-1.7736653000000002,-20.88,24.6,-26.7
1554207323275,-2.8299465,-8.097789,3.1741127999999996,0.1949434,0.010652645,-1.8397116999999998,-21.72,24.24,-26.52
1554207323294,-2.6288335,-7.2789717000000005,3.2363622000000003,0.6018744,-0.026631612000000002,-1.9845877,-22.56,23.88,-26.28
1554207323314,-2.1739352000000003,-7.1113777,3.2603042,0.98856544,-0.09587380000000001,-2.1795310000000003,-23.4,23.34,-26.1
1554207323335,-1.5705963,-7.681197599999999,2.4797945,1.220793,-0.25885928,-2.3691482999999995,-24.3,22.44,-25.86
1554207323354,-1.0534488000000002,-7.2454529999999995,2.6761188999999996,1.2080098,-0.39095205,-2.4959147,-25.32,21.36,-25.68
1554207323375,-0.6895300999999999,-6.7666125,2.8006175,1.0950918,-0.55287224,-2.6493127,-26.46,19.98,-25.62
1554207323394,-0.19632454,-6.0770826,2.9538465,0.8181231,-0.70840085,-2.8634310000000003,-27.6,18.3,-25.68
1554207323415,0.6943185000000001,-6.081871,3.7152026,0.56245965,-0.8159926,-3.0796794999999997,-28.74,16.32,-25.86
1554207323435,2.255338,-8.097789,3.8013937000000007,0.515588,-0.8809737,-3.2245555,-23.82,9.12,-14.82
1554207323454,3.2225955,-8.811261,3.8732197,0.7105314,-0.8522116,-3.2256207000000003,-25.02,6.42,-15.18
1554207323474,3.7349546,-9.050680999999999,3.7008373999999997,0.92464954,-0.8404937,-3.2330775000000003,-26.1,3.66,-15.6
1554207323495,4.003105000000001,-8.45213,3.7966053,0.8000136,-0.80107886,-3.2234902,-27.0,0.84,-16.02
1554207323515,4.831499,-8.313267,4.2658687,0.531567,-0.75633776,-3.1947281000000003,-27.84,-1.98,-16.32
1554207323534,5.8562174,-8.389880999999999,4.447828299999999,0.37923414,-0.7105314,-3.1361383999999997,-28.5,-5.1,-16.56
1554207323554,6.430825700000001,-8.404246,4.7925935,0.3206446,-0.6040049,-3.012568,-29.22,-8.1,-16.68
1554207323575,6.756437299999999,-8.021174,4.6202106,0.34727620000000003,-0.51452273,-2.9166942000000002,-29.94,-11.28,-16.74
1554207323595,7.1395097000000005,-7.3268557,4.2658687,0.33981937,-0.44421527,-2.871953,-30.36,-14.4,-16.74
1554207323615,7.28795,-6.9677253,4.0839095,0.33875409999999995,-0.43249738,-2.8538435,-30.84,-17.34,-16.68
1554207323635,7.699753,-6.4601545,3.9211037,0.28975195,-0.45486793,-2.7537086,-31.26,-20.28,-16.62
1554207323654,8.183380999999999,-6.081871,3.8397010000000003,0.18429075,-0.46232477,-2.6152241000000003,-31.62,-23.16,-16.5
1554207323675,8.437167,-5.7418942,4.2131963,0.10972224,-0.47830373,-2.5289377999999996,-31.98,-26.04,-16.44
1554207323694,8.537724,-5.2343235,3.9402574999999995,0.10759171,-0.5113269,-2.5310683,-32.22,-28.74,-16.38
1554207323714,8.394072,-4.5016975,3.863643,0.098004326,-0.6327670999999999,-2.5672874,-32.28,-31.32,-16.38
1554207323735,9.260772,-3.9606082000000002,3.1597476,0.046871635999999994,-0.680704,-2.5449168999999996,-32.34,-33.78,-16.38
1554207323755,9.504980999999999,-3.7211879999999997,3.0400376000000002,-0.12570119999999999,-0.66152924,-2.4458472999999996,-32.34,-36.24,-16.38
1554207323775,9.461885,-3.4482489999999997,3.0400376000000002,-0.41758367,-0.6562029,-2.396845,-32.28,-38.52,-16.38
1554207323794,9.768343,-3.208829,2.7287915000000003,-0.7669904000000001,-0.6956177,-2.4511735,-32.1,-40.62,-16.44
1554207323815,10.1226845,-2.6485856,2.2499511,-1.144094,-0.7222493000000001,-2.5023062,-31.8,-42.48,-16.44
1554207323834,10.46745,-2.5049335999999998,2.1924900000000003,-1.4764565,-0.7052050999999999,-2.5086977000000004,-31.44,-44.22,-16.5
1554207323855,10.615890499999999,-2.4426842,2.2403743,-1.748099,-0.6317018,-2.47674,-30.84,-45.66,-16.5
1554207323874,10.7356,-2.7347770000000002,2.273893,-1.8780613000000002,-0.5411543000000001,-2.4032366,-30.18,-47.1,-16.44
1554207323895,10.864887,-2.6916811000000003,2.0679917000000003,-1.8471686,-0.45593318,-2.2775354,-29.34,-48.48,-16.44
1554207323915,10.568006500000001,-2.3469162,1.9099745,-1.7683389999999999,-0.38775626,-2.0975057999999995,-28.44,-49.5,-16.44
1554207323935,10.357317,-1.9446903000000002,1.7328035,-1.780057,-0.34088463,-1.8588865,-27.54,-50.28,-16.44
1554207323955,10.113108,-1.8201918999999998,1.6561891,-1.9014970000000002,-0.30253512,-1.5382419,-26.76,-50.94,-16.56
1554207323976,9.787497,-2.03567,1.9147629000000002,-1.9526298,-0.29188246,-1.1100056,-25.68,-51.72,-17.04
1554207323995,9.610325999999999,-2.083554,1.9147629000000002,-1.9238676,-0.30892670000000005,-0.8788431999999999,-25.44,-51.96,-17.28
1554207324014,9.5385,-1.9877859,2.144606,-1.8120148,-0.32277513,-0.6295713000000001,-24.96,-52.26,-17.82
1554207324034,9.428367,-1.9303252,2.1158757,-1.6426378000000001,-0.3057309,-0.42717105,-24.6,-52.38,-18.48
1554207324055,9.557653,-2.1841104,2.28347,-1.3763216999999999,-0.28016454,-0.20240025,-24.3,-52.14,-19.44
1554207324074,9.452309,-2.131438,2.3744495,-1.1195928999999998,-0.24074976,-0.10865697,-24.12,-51.72,-20.1
1554207324095,9.380483,-1.9255368000000002,2.3840263,-0.90973586,-0.20879184,-0.09054748,-23.94,-51.12,-20.82
1554207324115,9.485827,-1.6861166,2.3696610000000002,-0.8159926,-0.2034655,-0.06924219,-23.88,-50.82,-21.12
1554207324134,9.495403999999999,-1.6813281999999998,2.3409307,-0.7392935,-0.19174760000000002,-0.025566347000000003,-23.76,-50.22,-21.6
1554207324155,9.394848,-1.6861166,2.4366987,-0.6785734,-0.13954964,0.012783173500000002,-23.7,-49.26,-22.08
1554207324174,9.246407000000001,-1.7435773999999997,2.441487,-0.6562029,-0.11504856,0.05006743,-23.64,-48.54,-22.2
1554207324195,9.404425,-1.7100586,2.6330232999999996,-0.6295713000000001,-0.11504856,0.084155895,-23.58,-47.76,-22.32
1554207324215,9.619903,-1.5568296999999998,2.6090812999999997,-0.5773733,-0.112918034,0.12570119999999999,-23.52,-46.92,-22.44
1554207324235,9.710882000000002,-1.5376761,2.5803509,-0.47297743,-0.10226539,0.1949434,-23.52,-46.26,-22.56
1554207324254,9.710882000000002,-1.6047136999999998,2.6042929,-0.27803403,-0.02876214,0.25992453,-23.52,-45.78,-22.62
1554207324274,9.667786999999999,-1.6813281999999998,2.7910407000000004,-0.068176925,0.04261058,0.31105720000000003,-23.52,-45.24,-22.62
1554207324295,9.691728999999999,-1.4802152,2.5276785,0.08522116,0.08735169,0.34194988,-23.52,-44.7,-22.68
1554207324315,9.643844999999999,-1.264737,2.498948,0.15126756,0.098004326,0.36325517,-23.52,-44.16,-22.8
1554207324334,9.56723,-1.2216414,2.3744495,0.15339808,0.10013486,0.39840892,-23.52,-43.68,-22.92
1554207324355,9.643844999999999,-1.2743138,2.2643162999999995,0.1438107,0.10546118,0.4314321,-23.58,-43.26,-23.04
1554207324375,9.648633,-1.2216414,1.9913772,0.13528858,0.12144015,0.45273739999999996,-23.64,-42.96,-23.16
1554207324395,9.753978,-1.3269863000000002,1.9578583999999999,0.13102753,0.14274544,0.45912898,-23.64,-42.6,-23.28
1554207324415,9.5385,-1.1737574,1.9626468000000001,0.11930962,0.15978967,0.46125950000000004,-23.7,-42.24,-23.34
1554207324434,9.552864999999999,-1.2072762,1.7663223000000001,0.10226539,0.1587244,0.46019423,-23.76,-42.0,-23.46
1554207324455,9.581595,-1.1881226,1.8620903000000002,0.068176925,0.14061491,0.44101948,-23.76,-41.76,-23.52
1554207324474,9.543288,-1.3126211,1.5412674,0.06391586,0.11611383,0.4016047,-23.82,-41.58,-23.58
1554207324495,9.485827,-1.2743138,1.6753427,0.080960095,0.08735169,0.36005938,-23.82,-41.34,-23.52
1554207324514,9.548077000000001,-1.3461398999999998,1.5891514,0.13848437,0.07563378,0.3174488,-23.88,-41.1,-23.52
1554207324534,9.548077000000001,-1.3269863000000002,1.6801311,0.2130529,0.07776430000000001,0.2727077,-23.88,-40.92,-23.52
1554207324554,9.56723,-1.3126211,1.5556326,0.257794,0.06391586,0.22264028,-23.88,-40.8,-23.52
1554207324575,9.481038999999999,-1.216853,1.4742297,0.2695119,0.03834952,0.15233281,-23.88,-40.62,-23.46
1554207324595,9.284714,-1.1881226,1.7088615000000003,0.25672874,0.011717908999999999,0.099069595,-23.94,-40.5,-23.46
1554207324614,9.351752000000001,-1.1258733,1.6226702,0.23755397,-0.033023197000000004,0.025566347000000003,-23.94,-40.38,-23.4
1554207324635,9.327810000000001,-1.2551602,1.6130934,0.24394555,-0.049002163,-0.01917476,-24.0,-40.2,-23.4
1554207324655,9.351752000000001,-1.3509283,1.7806876,0.26844665,-0.053263225,-0.06924219,-24.0,-40.2,-23.46
1554207324674,9.457097000000001,-1.2455834,1.8333599999999999,0.30040458,-0.051132694000000006,-0.12570119999999999,-24.06,-40.2,-23.46
1554207324694,9.481038999999999,-1.2072762,1.7471686999999998,0.28655612,-0.058589544,-0.17470337,-24.12,-40.26,-23.52
1554207324714,9.457097000000001,-1.1162965,1.6944963,0.22690132,-0.07243799,-0.2130529,-24.24,-40.5,-23.52
1554207324735,9.481038999999999,-1.2072762,1.7854759999999998,0.14274544,-0.08948222,-0.2428803,-24.36,-40.68,-23.52
1554207324754,9.528922999999999,-1.2743138,1.8477252,0.07989483,-0.09054748,-0.26631612,-24.48,-40.92,-23.46
1554207324775,9.452309,-1.3509283,1.8764555,0.046871635999999994,-0.08948222,-0.29507825,-24.54,-41.1,-23.4
1554207324795,9.605537,-1.3317747,1.8668787,0.037284255,-0.08735169,-0.32490566,-24.66,-41.34,-23.28
1554207324815,9.495403999999999,-1.3221979,1.977012,0.043675844000000005,-0.09267801,-0.35473305,-24.72,-41.52,-23.22
1554207324835,9.437942999999999,-1.3988123,1.9818004,0.05539375,-0.08948222,-0.3749731,-24.78,-41.76,-23.1
1554207324854,9.504980999999999,-1.3317747,2.0153193,0.07882957,-0.09054748,-0.38242993,-24.84,-42.0,-23.04
1554207324875,9.41879,-1.417966,1.9482816000000003,0.10013486,-0.08628642,-0.38456047,-24.84,-42.18,-22.92
1554207324895,9.390058999999999,-1.4610616,1.9003976999999999,0.12144015,-0.082025364,-0.38242993,-24.84,-42.36,-22.92
1554207324914,9.409213000000001,-1.5328877,2.0296845,0.13635385,-0.07563378,-0.37923414,-24.84,-42.6,-22.86
1554207324934,9.471461999999999,-1.4131776000000003,1.9818004,0.12037488,-0.06924219,-0.37603834,-24.84,-42.84,-22.86
1554207324954,9.600749,-1.2934675,2.0248961,0.080960095,-0.068176925,-0.37284255,-24.84,-43.08,-22.86
1554207324975,9.615114,-1.3461398999999998,1.7902644,-0.010652645,-0.04261058,-0.35260254,-24.84,-43.44,-22.92
1554207324994,9.662998,-1.2886791000000002,2.0440497,-0.11504856,-0.010652645,-0.30466563,-24.78,-43.68,-22.92
1554207325014,9.710882000000002,-1.2982559,1.809418,-0.20879184,0.0053263223,-0.25672874,-24.78,-43.86,-22.98
1554207325035,9.605537,-1.3030443,1.8189948,-0.35473305,0.02876214,-0.14274544,-24.78,-43.98,-22.98
1554207325054,9.519346,-1.216853,2.0153193,-0.43036684,0.05006743,-0.025566347000000003,-24.72,-44.1,-23.04
1554207325075,9.605537,-1.3126211,2.0440497,-0.44847634,0.06711166,0.08948222,-24.66,-44.22,-23.04
1554207325094,9.629479,-1.4083891000000002,1.9195513,-0.41438788,0.07989483,0.17257284,-24.6,-44.34,-23.1
1554207325114,9.572019000000001,-1.4227544,2.0440497,-0.3323625,0.10333065,0.23116238,-24.54,-44.4,-23.1
1554207325134,9.639056,-1.3269863000000002,2.0632033,-0.24501082,0.113983296,0.28016454,-24.42,-44.46,-23.04
1554207325154,9.677363,-1.3221979,1.9578583999999999,-0.18216023,0.12144015,0.30679616,-24.36,-44.4,-23.04
1554207325175,9.533711,-1.2120646000000002,2.0344729999999998,-0.15126756,0.12570119999999999,0.314253,-24.3,-44.28,-23.04
1554207325195,9.624691,-1.1881226,1.8956091,-0.14913702,0.13315806,0.31212249999999997,-24.24,-44.04,-23.04
1554207325215,9.619903,-1.192911,1.809418,-0.17044231,0.14594123,0.30146983,-24.12,-43.68,-23.1
1554207325234,9.600749,-1.1641805,1.7471686999999998,-0.21198763,0.15446335,0.28122982,-24.06,-43.26,-23.16
1554207325255,9.548077000000001,-1.1210848999999998,1.6609775000000002,-0.2695119,0.15339808,0.23968449999999997,-24.06,-42.78,-23.22
1554207325275,9.409213000000001,-1.0205284,1.8477252,-0.33768883,0.14274544,0.19387813,-24.0,-42.36,-23.34
1554207325295,9.447519999999999,-0.9295488000000001,1.6226702,-0.40266997,0.12996227,0.14807177,-24.0,-41.88,-23.46
1554207325315,9.26556,-1.039682,1.8333599999999999,-0.45699844,0.12144015,0.08948222,-23.94,-41.4,-23.52
1554207325334,9.217675999999999,-1.1210848999999998,1.7136499,-0.47936899999999993,0.12250541,0.043675844000000005,-23.94,-40.86,-23.7
1554207325354,9.356541,-1.0253168,1.6801311,-0.4878911,0.112918034,0.0031957934000000003,-23.94,-40.44,-23.88
1554207325375,9.452309,-1.1019313,1.7567455,-0.49002165,0.084155895,-0.07669904,-23.88,-40.14,-24.0
1554207325394,9.409213000000001,-1.1019313,1.9387047999999998,-0.48469532,0.06604639400000001,-0.15765914,-23.88,-39.9,-24.06
1554207325415,9.437942999999999,-1.1067197,1.7902644,-0.49960902,0.043675844000000005,-0.22264028,-23.88,-39.66,-24.12
1554207325435,9.433155000000001,-1.1881226,1.9099745,-0.5113269,0.03089267,-0.29188246,-23.82,-39.3,-24.18
1554207325455,9.495403999999999,-1.2695253999999998,1.809418,-0.5336975,0.020240024,-0.36325517,-23.82,-39.0,-24.24
1554207325474,9.404425,-1.3940238999999999,1.8477252,-0.5550028,0.012783173500000002,-0.42077947,-23.82,-38.7,-24.36
1554207325495,9.375694000000001,-1.3748703000000002,1.9243397,-0.58056915,0.007456851,-0.46339005,-23.82,-38.46,-24.42
1554207325515,9.466674000000001,-1.4754268,2.0344729999999998,-0.6103965,0.0010652645,-0.51026165,-23.82,-38.22,-24.6
1554207325535,9.485827,-1.2886791000000002,2.0775685,-0.6348976,-0.0053263223,-0.5592638000000001,-23.82,-38.04,-24.78
1554207325555,9.509769,-1.4131776000000003,1.8860323,-0.6668556,-0.0010652645,-0.588026,-23.76,-37.8,-24.96
1554207325574,9.504980999999999,-1.5711948999999998,2.1015105,-0.69348717,0.00958738,-0.59761333,-23.76,-37.56,-25.14
1554207325596,9.56723,-1.7196354,2.154183,-0.7137272,0.015978966,-0.59761333,-23.7,-37.38,-25.32
1554207325616,9.452309,-1.738789,1.9482816000000003,-0.716923,0.025566347000000003,-0.5954828000000001,-23.58,-37.2,-25.5
1554207325636,9.437942999999999,-1.7292121999999999,2.0679917000000003,-0.7105314,0.03195793,-0.58269966,-23.46,-36.9,-25.74
1554207325655,9.433155000000001,-1.8058267,2.0392613,-0.69668293,0.034088463,-0.5539375,-23.34,-36.54,-25.86
1554207325675,9.399636,-1.8201918999999998,2.082357,-0.67963874,0.036218993,-0.51452273,-23.16,-36.12,-25.92
1554207325695,9.504980999999999,-1.8632874,1.9674352,-0.6317018,0.03195793,-0.46019423,-23.04,-35.64,-25.92
1554207325715,9.476251,-1.9446903000000002,2.0632033,-0.5486112,0.035153727999999995,-0.4101268,-22.92,-35.22,-25.98
1554207325734,9.404425,-1.9351135,2.0440497,-0.43995422,0.041545313,-0.3536678,-22.8,-34.86,-26.04
1554207325755,9.485827,-1.9351135,2.154183,-0.31318775,0.03834952,-0.28868666,-22.74,-34.5,-26.1
1554207325774,9.56723,-1.8489223000000001,2.1733365,-0.2130529,0.036218993,-0.2428803,-22.68,-34.14,-26.16
1554207325794,9.509769,-1.8776526000000002,2.0488381,-0.08735169,0.03089267,-0.18109496,-22.56,-33.9,-26.28
1554207325815,9.509769,-1.7435773999999997,2.0632033,0.035153727999999995,0.017044231,-0.10972224,-22.44,-33.72,-26.52
1554207325835,9.504980999999999,-1.7100586,1.8860323,0.10972224,0.012783173500000002,-0.053263225,-22.38,-33.66,-26.64
1554207325854,9.313444,-1.7675193999999999,2.0967221,0.165116,0.013848438000000001,0.0053263223,-22.32,-33.6,-26.82
1554207325874,9.404425,-1.6142905,1.9339164,0.20133498,0.015978966,0.05752428,-22.26,-33.54,-26.94
1554207325895,9.303867,-1.6142905,2.1254525,0.22796659,0.014913702,0.096939065,-22.2,-33.48,-27.06
1554207325915,9.198523,-1.5568296999999998,2.1206641,0.26312032,0.007456851,0.13528858,-22.14,-33.42,-27.12
1554207325936,9.308656,-1.5041572,2.130241,0.294013,0.0031957934000000003,0.15552860000000002,-22.08,-33.42,-27.18
1554207325955,9.423578,-1.5568296999999998,1.9722236000000002,0.33129725,0.0,0.17044231,-22.08,-33.36,-27.12
1554207325975,9.390058999999999,-1.5664065,2.082357,0.3749731,0.0,0.18429075,-22.02,-33.36,-27.0
1554207325995,9.471461999999999,-1.4945803999999998,2.178125,0.42077947,0.008522116,0.19174760000000002,-21.96,-33.42,-26.94
1554207326014,9.457097000000001,-1.46585,1.8333599999999999,0.44954160000000004,0.0053263223,0.20559604,-21.84,-33.48,-26.82
1554207326035,9.332599,-1.3892354999999998,1.9195513,0.46978164,0.0063915867,0.221575,-21.78,-33.6,-26.76
1554207326055,9.414000999999999,-1.3940238999999999,1.7806876,0.46552056,-0.0010652645,0.2428803,-21.78,-33.72,-26.7
1554207326075,9.423578,-1.2838906,1.7375918999999997,0.45167214,-0.008522116,0.26312032,-21.72,-33.84,-26.64
1554207326095,9.442732000000001,-1.2743138,1.7711107,0.43462790000000007,-0.015978966,0.27696875,-21.66,-34.02,-26.58
1554207326115,9.476251,-1.2503718000000001,1.6035166,0.41971418,-0.01917476,0.2908172,-21.66,-34.2,-26.58
1554207326134,9.495403999999999,-1.2886791000000002,1.7232267,0.39947417,-0.018109497,0.30253512,-21.6,-34.5,-26.58
1554207326154,9.495403999999999,-1.1546037,1.7615339,0.37284255,-0.013848438000000001,0.30466563,-21.6,-34.86,-26.52
1554207326175,9.437942999999999,-1.1641805,1.7711107,0.32810146,-0.02130529,0.30679616,-21.66,-35.16,-26.46
1554207326194,9.409213000000001,-1.1306617,1.7471686999999998,0.30040458,-0.034088463,0.30253512,-21.66,-35.4,-26.46
1554207326214,9.457097000000001,-1.1210848999999998,1.9147629000000002,0.28975195,-0.041545313,0.294013,-21.78,-35.64,-26.4
1554207326235,9.428367,-1.2216414,1.809418,0.30040458,-0.049002163,0.27803403,-21.9,-35.82,-26.34
1554207326254,9.452309,-1.0636241000000002,2.0296845,0.32384038,-0.051132694000000006,0.2545982,-22.02,-36.0,-26.28
1554207326275,9.471461999999999,-1.0684125,1.9865887999999998,0.34621096,-0.06498113,0.23329292,-22.14,-36.12,-26.22
1554207326295,9.471461999999999,-1.039682,1.9482816000000003,0.386691,-0.07456851,0.21518342,-22.32,-36.12,-26.1
1554207326315,9.624691,-1.0205284,1.9722236000000002,0.43675843,-0.082025364,0.17896444,-22.5,-36.06,-26.04
1554207326334,9.586383999999999,-0.96785605,1.9961656000000003,0.48469532,-0.07776430000000001,0.12676647,-22.74,-36.0,-25.92
1554207326354,9.548077000000001,-1.1402385,1.9482816000000003,0.50387007,-0.080960095,0.082025364,-22.86,-36.06,-25.86
1554207326375,9.600749,-1.0013748,1.8237831999999998,0.47723848,-0.08841695,0.025566347000000003,-22.98,-36.12,-25.8
1554207326395,9.552864999999999,-0.9487024,1.9387047999999998,0.40586576,-0.09054748,-0.029827405,-23.1,-36.3,-25.68
1554207326414,9.5385,-0.99658644,2.0392613,0.30892670000000005,-0.08735169,-0.06711166,-23.16,-36.54,-25.62
1554207326436,9.476251,-1.0061632,2.0201077,0.21411815,-0.07456851,-0.099069595,-23.22,-36.84,-25.62
1554207326456,9.500193,-1.1019313,2.082357,0.12357068,-0.06924219,-0.13315806,-23.28,-37.14,-25.56
1554207326475,9.562441999999999,-1.1976993999999999,2.0727801,0.043675844000000005,-0.060720075,-0.16298546,-23.28,-37.5,-25.56
1554207326494,9.533711,-1.1498153,1.9195513,-0.018109497,-0.051132694000000006,-0.18642128,-23.28,-37.86,-25.5
1554207326514,9.504980999999999,-1.1976993999999999,2.0919337,-0.051132694000000006,-0.037284255,-0.20879184,-23.34,-38.22,-25.38
1554207326535,9.495403999999999,-1.240795,2.0679917000000003,-0.07350325,-0.023435817999999997,-0.21944448,-23.34,-38.52,-25.26
1554207326554,9.495403999999999,-1.2695253999999998,2.1110873,-0.08948222,-0.015978966,-0.21731395,-23.34,-38.82,-25.14
1554207326574,9.457097000000001,-1.3892354999999998,1.9626468000000001,-0.09587380000000001,-0.010652645,-0.221575,-23.34,-39.12,-25.02
1554207326594,9.457097000000001,-1.2503718000000001,1.881244,-0.098004326,-0.0031957934000000003,-0.20559604,-23.34,-39.36,-24.9
1554207326614,9.495403999999999,-1.3269863000000002,1.8668787,-0.07776430000000001,0.008522116,-0.19174760000000002,-23.34,-39.6,-24.84
1554207326634,9.433155000000001,-1.3365631000000002,1.809418,-0.07137272,0.007456851,-0.18322548,-23.4,-39.72,-24.72
1554207326655,9.399636,-1.4562732,1.857302,-0.06285059999999999,0.002130529,-0.17470337,-23.46,-39.78,-24.72
1554207326674,9.504980999999999,-1.4083891000000002,1.7806876,-0.05006743,-0.007456851,-0.15233281,-23.52,-39.9,-24.72
1554207326695,9.56723,-1.4562732,1.8237831999999998,-0.02876214,-0.014913702,-0.13422333,-23.58,-39.96,-24.66
1554207326715,9.476251,-1.5089456,1.8142063999999998,0.007456851,-0.013848438000000001,-0.11824436,-23.64,-40.02,-24.66
1554207326735,9.457097000000001,-1.4083891000000002,1.8046296000000002,0.046871635999999994,-0.018109497,-0.098004326,-23.64,-40.02,-24.72
1554207326754,9.399636,-1.4371196000000002,1.857302,0.07669904,-0.025566347000000003,-0.07030745599999999,-23.7,-40.02,-24.72
1554207326775,9.41879,-1.3652935,1.8381484000000001,0.10759171,-0.025566347000000003,-0.04474111,-23.76,-40.02,-24.78
1554207326794,9.452309,-1.4083891000000002,1.857302,0.12463594,-0.03195793,-0.010652645,-23.76,-40.02,-24.78
1554207326814,9.471461999999999,-1.3509283,1.857302,0.13848437,-0.039414786,0.008522116,-23.76,-40.08,-24.84
1554207326835,9.509769,-1.441908,1.8142063999999998,0.15233281,-0.043675844000000005,0.015978966,-23.7,-40.08,-24.84
1554207326855,9.414000999999999,-1.216853,1.8716671000000003,0.16831179,-0.04261058,0.03834952,-23.7,-40.14,-24.9
1554207326875,9.5385,-1.3126211,1.9147629000000002,0.18429075,-0.03834952,0.05965481,-23.64,-40.14,-24.9
1554207326894,9.514558000000001,-1.2072762,2.0009542000000002,0.19600865,-0.035153727999999995,0.07137272,-23.64,-40.14,-24.9
1554207326914,9.476251,-1.2503718000000001,1.9674352,0.20985709,-0.03195793,0.07989483,-23.58,-40.14,-24.9
1554207326935,9.509769,-1.1881226,1.9339164,0.22264028,-0.033023197000000004,0.082025364,-23.58,-40.14,-24.84
1554207326954,9.514558000000001,-1.1785458,2.0248961,0.23542345,-0.03089267,0.07456851,-23.58,-40.14,-24.78
1554207326977,9.552864999999999,-1.1641805,1.9626468000000001,0.24607609,-0.024501082,0.05965481,-23.52,-40.14,-24.66
1554207326995,9.500193,-1.0205284,1.9195513,0.25246766,-0.010652645,0.040480047000000005,-23.52,-40.2,-24.54
1554207327014,9.466674000000001,-1.0588357,2.0632033,0.23755397,0.002130529,0.022370555,-23.52,-40.26,-24.48
1554207327036,9.524135000000001,-0.97743285,2.0153193,0.18535602,0.0053263223,0.0053263223,-23.52,-40.38,-24.36
1554207327055,9.524135000000001,-1.0205284,1.9674352,0.10439592,0.0063915867,-0.0053263223,-23.52,-40.5,-24.3
1554207327074,9.504980999999999,-0.9008184000000001,1.9099745,-0.004261058,0.0053263223,-0.025566347000000003,-23.52,-40.74,-24.18
1554207327095,9.495403999999999,-0.96785605,1.9434932,-0.07776430000000001,0.0063915867,-0.037284255,-23.58,-40.92,-24.12
1554207327115,9.461885,-1.0827777,2.0296845,-0.112918034,0.0053263223,-0.049002163,-23.64,-41.1,-24.06
1554207327134,9.476251,-1.1546037,2.0775685,-0.11930962,0.00958738,-0.058589544,-23.64,-41.22,-24.06
1554207327154,9.605537,-1.0827777,1.9243397,-0.11824436,0.007456851,-0.07456851,-23.7,-41.34,-24.0
1554207327175,9.5385,-1.1881226,1.8908207,-0.10865697,0.00958738,-0.09161274,-23.7,-41.4,-24.0
1554207327195,9.500193,-1.192911,1.9961656000000003,-0.096939065,-0.0010652645,-0.10013486,-23.7,-41.46,-24.0
1554207327215,9.457097000000001,-1.240795,1.9339164,-0.084155895,-0.0063915867,-0.10652645,-23.7,-41.4,-23.94
1554207327234,9.457097000000001,-1.3030443,2.0105310000000003,-0.06604639400000001,-0.015978966,-0.113983296,-23.76,-41.28,-23.88
1554207327255,9.423578,-1.2312181999999998,1.8429368000000002,-0.037284255,-0.023435817999999997,-0.128897,-23.76,-41.16,-23.88
1554207327275,9.447519999999999,-1.2886791000000002,1.8668787,-0.002130529,-0.02876214,-0.13954964,-23.7,-41.1,-23.88
1554207327294,9.481038999999999,-1.3078326999999998,1.8668787,0.026631612000000002,-0.033023197000000004,-0.14168017,-23.7,-40.98,-23.88
1554207327315,9.380483,-1.3269863000000002,1.9818004,0.06285059999999999,-0.037284255,-0.13848437,-23.7,-40.92,-23.82
1554207327335,9.337387,-1.3796587,1.8860323,0.099069595,-0.03834952,-0.13209279,-23.7,-40.86,-23.82
1554207327354,9.447519999999999,-1.4036007,1.9147629000000002,0.11930962,-0.037284255,-0.113983296,-23.64,-40.8,-23.82
1554207327375,9.399636,-1.2982559,1.9818004,0.13209279,-0.037284255,-0.08628642,-23.64,-40.8,-23.82
1554207327394,9.5385,-1.2455834,1.9578583999999999,0.13741912,-0.034088463,-0.06178534,-23.64,-40.86,-23.82
1554207327415,9.404425,-1.3221979,1.9147629000000002,0.14487597,-0.02876214,-0.02876214,-23.64,-41.1,-23.82
1554207327435,9.323022,-1.192911,2.0153193,0.1470065,-0.023435817999999997,-0.012783173500000002,-23.64,-41.16,-23.82
1554207327455,9.481038999999999,-1.1019313,2.0248961,0.15126756,-0.023435817999999997,0.008522116,-23.64,-41.28,-23.82
1554207327475,9.514558000000001,-1.1498153,2.0105310000000003,0.15339808,-0.022370555,0.029827405,-23.7,-41.4,-23.82
1554207327495,9.514558000000001,-1.2072762,1.9482816000000003,0.1768339,-0.015978966,0.039414786,-23.7,-41.58,-23.82
1554207327515,9.639056,-1.2360066,2.0153193,0.19707392,-0.012783173500000002,0.054328485999999995,-23.7,-41.7,-23.76
1554207327535,9.471461999999999,-1.1258733,2.0248961,0.19707392,-0.0063915867,0.06924219,-23.64,-41.76,-23.76
1554207327554,9.552864999999999,-1.1593921,2.0344729999999998,0.19281286,0.002130529,0.09587380000000001,-23.7,-41.76,-23.7
1554207327574,9.437942999999999,-1.1498153,2.0201077,0.18535602,0.004261058,0.11824436,-23.7,-41.76,-23.64
1554207327594,9.528922999999999,-1.1546037,2.0009542000000002,0.18109496,0.014913702,0.12144015,-23.76,-41.76,-23.58
1554207327615,9.471461999999999,-1.1402385,2.0727801,0.17044231,0.018109497,0.11717909,-23.82,-41.76,-23.58
1554207327635,9.533711,-1.1833341999999998,1.9722236000000002,0.14913702,0.01917476,0.112918034,-23.88,-41.82,-23.52
1554207327655,9.581595,-1.1402385,1.9865887999999998,0.11504856,0.022370555,0.10972224,-23.88,-41.94,-23.52
1554207327676,9.308656,-1.1258733,2.130241,0.07989483,0.03195793,0.12144015,-23.94,-42.0,-23.52
1554207327694,9.543288,-1.3221979,1.9387047999999998,0.035153727999999995,0.04474111,0.13741912,-24.0,-42.06,-23.46
1554207327716,9.481038999999999,-1.2264298,1.9961656000000003,-0.0063915867,0.040480047000000005,0.15126756,-23.94,-42.12,-23.46
1554207327736,9.385271000000001,-1.3557166999999999,1.9722236000000002,-0.036218993,0.04261058,0.15020229,-23.88,-42.18,-23.46
1554207327755,9.509769,-1.441908,1.9913772,-0.05965481,0.040480047000000005,0.17044231,-23.88,-42.24,-23.46
1554207327775,9.56723,-1.5616181,2.144606,-0.06391586,0.03834952,0.2034655,-23.82,-42.3,-23.46
1554207327794,9.452309,-1.5807717,2.1493945,-0.04474111,0.036218993,0.21092236,-23.82,-42.3,-23.46
1554207327815,9.442732000000001,-1.6717514,2.0201077,0.00958738,0.036218993,0.21837921,-23.82,-42.3,-23.46
1554207327834,9.514558000000001,-1.7340006000000001,2.0488381,0.03834952,0.041545313,0.23222765,-23.82,-42.24,-23.46
1554207327854,9.385271000000001,-1.8010383,2.0871453,0.03195793,0.047936900000000005,0.25885928,-23.82,-42.18,-23.46
1554207327874,9.399636,-1.8776526000000002,2.0201077,-0.015978966,0.054328485999999995,0.2908172,-23.88,-42.12,-23.52
1554207327895,9.356541,-2.0691888,2.2212207000000004,-0.06391586,0.05539375,0.33875409999999995,-23.94,-42.0,-23.52
1554207327914,9.380483,-2.1936872000000003,2.2212207000000004,-0.07776430000000001,0.05965481,0.3685815,-23.94,-41.88,-23.58
1554207327934,9.26556,-2.3133974,2.0679917000000003,-0.07030745599999999,0.06498113,0.39095205,-24.0,-41.76,-23.58
1554207327955,9.3661175,-2.3229742,2.2691047,-0.06604639400000001,0.080960095,0.44421527,-24.06,-41.58,-23.58
1554207327974,9.394848,-2.404377,2.3026235,-0.05965481,0.084155895,0.4878911,-24.06,-41.34,-23.58
1554207327995,9.370906,-2.5432408,2.5372553,-0.043675844000000005,0.082025364,0.5123922000000001,-24.12,-41.1,-23.64
1554207328015,9.323022,-2.6581624,2.2403743,-0.013848438000000001,0.08522116,0.52411014,-24.12,-40.8,-23.64
1554207328034,9.198523,-2.6390088,2.3409307,0.029827405,0.08948222,0.52624065,-24.18,-40.56,-23.64
1554207328055,9.174581,-2.6102784,2.28347,0.060720075,0.094808534,0.51771855,-24.3,-40.26,-23.7
1554207328074,9.083601,-2.6629508,2.3744495,0.07882957,0.10439592,0.49854377,-24.42,-40.02,-23.76
1554207328094,9.131485000000001,-2.710835,2.2691047,0.083090626,0.10546118,0.46765109999999993,-24.54,-39.78,-23.76
1554207328114,9.02614,-2.7060466,2.2068555,0.08948222,0.10759171,0.41971418,-24.6,-39.48,-23.82
1554207328136,8.968679,-2.7587189999999997,2.3696610000000002,0.083090626,0.10013486,0.3653857,-24.72,-39.18,-23.88
1554207328154,8.90643,-2.7156234,2.202067,0.07989483,0.08948222,0.30679616,-24.84,-38.94,-23.88
1554207328176,8.925583999999999,-2.7299886000000004,2.2403743,0.084155895,0.07989483,0.24607609,-24.96,-38.7,-23.94
1554207328195,8.844180999999999,-2.7491422,2.2691047,0.094808534,0.06391586,0.18535602,-24.96,-38.52,-24.0
1554207328215,8.882488,-2.6485856,2.168548,0.10439592,0.053263225,0.12676647,-25.08,-38.22,-24.0
1554207328235,8.920795,-2.6868927000000005,2.2786815,0.099069595,0.05006743,0.084155895,-25.14,-37.86,-24.0
1554207328255,9.011775,-2.7347770000000002,2.28347,0.07989483,0.051132694000000006,0.056459017,-25.2,-37.56,-24.06
1554207328275,8.954314,-2.6629508,2.345719,0.049002163,0.049002163,0.029827405,-25.26,-37.38,-24.06
1554207328295,9.006986999999999,-2.6677392,2.0632033,0.004261058,0.041545313,0.012783173500000002,-25.32,-37.2,-24.0
1554207328314,8.99741,-2.7491422,2.202067,-0.034088463,0.036218993,0.010652645,-25.38,-37.02,-24.0
1554207328335,9.011775,-2.9358897,2.40318,-0.06498113,0.018109497,0.017044231,-25.44,-36.78,-24.0
1554207328355,9.241617999999999,-3.0268695,2.168548,-0.094808534,0.0053263223,0.05539375,-25.5,-36.6,-24.0
1554207328374,9.203311,-3.2806550000000003,2.3744495,-0.14807177,-0.015978966,0.13209279,-25.56,-36.54,-24.0
1554207328394,9.208099,-3.4386723,2.321777,-0.18535602,-0.029827405,0.18855181,-25.56,-36.54,-24.0
1554207328415,9.083601,-3.816956,2.475006,-0.2727077,-0.039414786,0.34940675,-25.56,-36.54,-24.0
1554207328435,9.107543,-4.329315,2.5037365,-0.32384038,-0.026631612000000002,0.52411014,-25.56,-36.48,-24.0
1554207328455,9.064447,-4.745906400000001,2.484583,-0.34940675,-0.00958738,0.7052050999999999,-25.56,-36.36,-24.0
1554207328475,8.892064999999999,-4.980538,2.7527334999999997,-0.36218992,0.002130529,0.8724516,-25.5,-36.18,-23.94
1554207328495,8.7292595,-5.277419,2.7862522999999997,-0.34088463,-0.007456851,1.0066749,-25.44,-35.94,-23.94
1554207328517,8.599973,-5.535993,2.7623102999999998,-0.294013,-0.002130529,1.1227888000000001,-25.44,-35.52,-23.94
1554207328536,8.413225,-5.842450599999999,2.6952724,-0.18748654,0.0053263223,1.2154667,-25.38,-34.86,-23.88
1554207328556,8.288725999999999,-6.081871,2.7048495,-0.054328485999999995,0.015978966,1.3049488999999999,-25.38,-34.02,-23.88
1554207328575,8.106767,-6.369175,2.7096379,0.08948222,0.029827405,1.4072143999999998,-25.38,-33.12,-23.88
1554207328595,7.9822683,-6.536769400000001,2.6617537000000002,0.22050974,0.05006743,1.5052186,-25.38,-32.16,-23.94
1554207328615,7.7667904000000005,-6.666056,2.6761188999999996,0.30999196,0.056459017,1.5797871,-25.44,-31.26,-23.94
1554207328635,7.714117999999999,-6.6852098,2.4893713,0.35260254,0.06178534,1.6522251000000001,-25.44,-30.3,-23.88
1554207328655,7.513005000000001,-7.0395517000000005,2.5420437000000002,0.34834146,0.06498113,1.7342505000000001,-25.5,-29.28,-23.88
1554207328675,7.335833999999999,-7.0395517000000005,2.5516205000000003,0.32170987,0.07882957,1.8141453,-25.62,-28.2,-23.88
1554207328695,7.077260000000001,-7.4034699999999996,2.3983915000000002,0.27590349999999997,0.09374327,1.9068234,-25.74,-27.24,-23.82
1554207328714,6.9288197,-7.590217999999999,2.6234465,0.24074976,0.099069595,1.9590213,-25.86,-26.34,-23.76
1554207328734,6.770802499999999,-7.7147164,2.508525,0.21837921,0.094808534,2.0090888,-25.98,-25.44,-23.76
1554207328755,6.5505357,-7.6668324000000005,2.484583,0.22050974,0.096939065,2.0410466,-26.1,-24.36,-23.7
1554207328774,6.26802,-7.7865424,2.5420437000000002,0.20985709,0.09054748,2.0602214,-26.22,-23.22,-23.7
1554207328794,6.0621184999999995,-7.729081599999999,2.4223334999999997,0.19068234,0.10439592,2.0793962,-26.28,-22.02,-23.64
1554207328814,5.7843914000000005,-8.040328,2.3600842999999996,0.1768339,0.09267801,2.0730047,-26.34,-20.82,-23.64
1554207328835,5.544971,-8.279748,2.4462755,0.08735169,0.07776430000000001,2.091114,-26.34,-19.68,-23.58
1554207328855,5.3725886,-8.399458000000001,2.5420437000000002,0.0,0.06285059999999999,2.1156151000000003,-26.22,-18.42,-23.52
1554207328874,5.0374002,-8.648455,2.5611973,-0.08628642,0.068176925,2.1379857,-26.04,-17.04,-23.4
1554207328895,4.692635500000001,-8.907029,2.8101943,-0.08948222,0.06924219,2.1614215,-25.86,-15.72,-23.28
1554207328914,4.261679,-9.0842,2.6856956000000003,-0.036218993,0.07243799,2.1805964,-25.74,-14.4,-23.16
1554207328934,3.6679169999999996,-9.261371,2.3888147,-0.033023197000000004,0.049002163,2.1965754,-25.56,-12.9,-23.04
1554207328955,3.1124623,-9.285313,2.484583,-0.094808534,0.0010652645,2.218946,-25.44,-11.46,-22.98
1554207328975,2.7820622999999998,-9.563039999999999,2.9059622000000003,-0.082025364,-0.036218993,2.2530343999999998,-25.14,-9.96,-22.86
1554207328995,2.3032220000000003,-9.649231,3.068768,0.13102753,-0.037284255,2.2860575,-24.84,-8.58,-22.74
1554207329014,1.8387468999999996,-9.840767999999999,2.8149827000000003,0.3291667,-0.04474111,2.2743397,-24.54,-7.26,-22.62
1554207329034,1.2449848999999997,-9.625289,2.4797945,0.41758367,-0.084155895,2.2967103,-24.24,-5.94,-22.56
1554207329055,0.80445176,-9.314043,2.4223334999999997,0.27164245,-0.12783173,2.3531692000000004,-23.88,-4.62,-22.5
1554207329075,0.47884035,-9.32362,2.7335799,0.046871635999999994,-0.17896444,2.3883228,-23.34,-3.36,-22.44
1554207329095,0.08140286,-9.740211500000001,2.8006175,-0.04580637,-0.2034655,2.4032366,-22.8,-2.22,-22.32
1554207329115,-0.40701428,-9.654019,3.0065188,-0.024501082,-0.22690132,2.4298682,-22.2,-1.14,-22.26
1554207329135,-0.9911995000000001,-9.438541,3.0496144,0.13422333,-0.21837921,2.4405208,-21.6,0.0,-22.14
1554207329155,-1.4413095,-9.35235,3.2890346,0.30466563,-0.21624869,2.4351945,-21.06,1.26,-22.02
1554207329174,-1.7812861,-9.390657000000001,3.1022868,0.44634579999999996,-0.22477080000000002,2.4469125,-20.46,2.52,-21.9
1554207329195,-2.0638018,-9.199121,3.2124202,0.5006742999999999,-0.24607609,2.4831314,-19.74,3.66,-21.78
1554207329215,-2.5330652999999996,-8.950125,3.447052,0.5539375,-0.26631612,2.5353293,-18.66,5.4,-21.6
1554207329235,-3.0550013,-8.4234,4.1317935,0.7669904000000001,-0.26312032,2.5683527,-18.0,6.54,-21.48
1554207329255,-3.5577837999999997,-8.361151,4.1892543,1.1387677,-0.2790993,2.5310683,-17.16,7.56,-21.36
1554207329275,-3.6918589999999996,-7.882310400000001,4.160524,1.3688648,-0.29614353,2.4905882000000004,-16.32,8.52,-21.3
1554207329294,-3.7828386,-7.2454529999999995,4.2610803,1.4349113000000002,-0.2876214,2.4937842,-15.48,9.18,-21.24
1554207329315,-4.3861775000000005,-6.8575919999999995,4.1892543,1.4647386,-0.24714136,2.4831314,-14.7,9.72,-21.3
1554207329335,-4.7405194999999996,-6.3883285999999995,4.433463,1.4061489999999999,-0.24714136,2.4138892000000003,-13.92,10.02,-21.42
1554207329354,-4.9464207,-6.282984,4.4286747,1.2911005,-0.23329292,2.3531692000000004,-13.14,10.14,-21.72
1554207329374,-5.023035,-5.880758,4.4526167,1.0620687,-0.2034655,2.3276029,-12.36,10.02,-21.96
1554207329395,-5.3390699999999995,-5.205593,4.5148660000000005,0.80107886,-0.17470337,2.292449,-11.46,9.84,-22.2
1554207329415,-5.66947,-4.841674299999999,4.5435963,0.53795856,-0.15765914,2.2338595000000003,-10.74,9.6,-22.5
1554207329435,-5.837064,-4.3197384,4.8979383,0.38029942,-0.13848437,2.1774006,-10.2,9.36,-22.74
1554207329454,-5.8226986,-4.228758999999999,5.142146599999999,0.47936899999999993,-0.12996227,2.0975057999999995,-9.6,9.12,-23.1
1554207329474,-5.7365074,-3.9079356,5.1900306,0.6849651,-0.10439592,1.9803267,-9.06,8.88,-23.34
1554207329495,-5.755661,-3.5248635000000004,4.8021703,0.8042746999999999,-0.07456851,1.8695391,-8.58,8.7,-23.52
1554207329515,-6.0764837,-2.8736405,4.6537294000000005,0.77870834,-0.05006743,1.780057,-7.98,8.58,-23.64
1554207329534,-6.1195793,-2.4762032000000005,4.735132,0.6988135,-0.05539375,1.6809874,-7.5,8.46,-23.82
1554207329554,-6.191406,-2.3756466,4.9218802,0.63915867,-0.054328485999999995,1.5456988,-7.02,8.34,-24.06
1554207329575,-6.2488665999999995,-2.2750902,4.577115,0.5592638000000001,-0.05219796,1.3891048000000001,-6.6,8.04,-24.3
1554207329595,-6.627150500000001,-1.9590555,4.706402,0.3717773,-0.02876214,1.2868395000000001,-6.12,7.68,-24.54
1554207329615,-6.708553299999999,-1.5664065,4.56275,0.05752428,-0.013848438000000001,1.2303803999999998,-5.64,7.26,-24.78
1554207329634,-6.6606693,-1.4706384,5.0846860000000005,-0.13954964,-0.010652645,1.1547466999999998,-5.16,6.84,-25.02
1554207329655,-6.593631299999999,-1.2886791000000002,5.132569999999999,-0.19387813,0.0063915867,1.0130665,-4.68,6.42,-25.2
1554207329674,-6.655881,-1.2312181999999998,5.175665400000001,-0.1438107,0.015978966,0.8607336999999999,-4.38,6.0,-25.38
1554207329694,-6.8665705,-0.99658644,5.1900306,-0.10759171,0.020240024,0.7669904000000001,-4.08,5.64,-25.5
1554207329715,-6.742072,-1.0157399999999999,4.9984946,-0.12357068,0.010652645,0.6956177,-3.78,5.4,-25.56
1554207329734,-6.943185000000001,-1.0253168,5.429451,-0.12144015,0.008522116,0.59761333,-3.42,5.4,-25.56
1554207329755,-6.9671270000000005,-1.0588357,5.2810106,-0.037284255,0.011717908999999999,0.47617322,-3.12,5.4,-25.62
1554207329775,-7.101202000000001,-0.82899237,4.869208,-0.0010652645,-0.004261058,0.38242993,-2.88,5.52,-25.62
1554207329795,-7.3549875999999985,-0.8242039000000001,4.8787847,-0.101200126,-0.023435817999999997,0.35473305,-2.64,5.64,-25.62
1554207329814,-7.599196000000001,-0.6997054,5.142146599999999,-0.25353295,-0.051132694000000006,0.350472,-2.34,5.76,-25.68
1554207329838,-7.3549875999999985,-0.7954735,5.266645,-0.40906155,-0.06178534,0.28122982,-2.04,6.0,-25.62
1554207329855,-7.5082164,-0.7906850999999999,5.501277,-0.46125950000000004,-0.05219796,0.221575,-1.98,6.0,-25.62
1554207329874,-7.603985000000001,-0.7667431,5.7359085,-0.46765109999999993,-0.03834952,0.17470337,-1.8,6.12,-25.68
1554207329894,-7.522581599999999,-0.83856916,5.7790045999999995,-0.41545314,-0.022370555,0.14913702,-1.68,6.18,-25.68
1554207329915,-7.603985000000001,-1.073201,5.5922565,-0.34088463,-0.004261058,0.12144015,-1.5,6.24,-25.62
1554207329935,-7.8146744,-1.3030443,5.6018333,-0.24820662,0.012783173500000002,0.10439592,-1.32,6.42,-25.5
1554207329957,-7.8625584,-1.0923545000000001,5.573103,-0.16618125,0.007456851,0.10972224,-1.02,6.72,-25.32
1554207329975,-7.8003089999999995,-0.8960299999999999,5.348048,-0.19387813,-0.004261058,0.11930962,-0.9,6.84,-25.26
1554207329995,-7.723694999999999,-0.83378077,5.300164,-0.32490566,-0.018109497,0.12783173,-0.78,7.08,-24.96
1554207330014,-7.632714999999999,-0.97743285,5.61141,-0.4708469,-0.03195793,0.12357068,-0.6,7.38,-24.66
1554207330034,-7.5369470000000005,-1.1976993999999999,5.716755,-0.5123922000000001,-0.035153727999999995,0.112918034,-0.54,7.74,-24.42
1554207330055,-7.632714999999999,-1.5807717,5.7646394,-0.38136467,-0.03089267,0.1107875,-0.48,8.22,-24.12
1554207330074,-7.656657000000001,-1.6813281999999998,5.903503,-0.15446335,-0.03834952,0.10013486,-0.48,8.64,-23.88
1554207330094,-7.5608889999999995,-1.0684125,5.9849057,0.13528858,-0.043675844000000005,0.05752428,-0.54,9.24,-23.64
1554207330115,-7.5273699999999995,-0.64703304,5.573103,0.24181503,-0.046871635999999994,0.008522116,-0.54,9.6,-23.52
1554207330134,-7.642291999999999,-0.65660983,5.3863554,0.111852765,-0.041545313,-0.012783173500000002,-0.54,9.9,-23.46
1554207330155,-7.881711999999999,-0.9295488000000001,5.367202,-0.14807177,-0.056459017,-0.0053263223,-0.48,10.14,-23.52
1554207330174,-7.891288799999999,-1.1067197,5.4964886,-0.36751625,-0.07776430000000001,0.0031957934000000003,-0.48,10.38,-23.58
1554207330195,-7.785944000000001,-1.2072762,5.558737799999999,-0.45593318,-0.099069595,0.0010652645,-0.48,10.44,-23.58
1554207330215,-7.6710224,-1.2120646000000002,5.855619,-0.43995422,-0.096939065,0.0053263223,-0.48,10.44,-23.64
1554207330234,-7.690175999999999,-1.3221979,5.7933699999999995,-0.33555830000000003,-0.08948222,0.023435817999999997,-0.54,10.44,-23.64
1554207330255,-7.747636999999999,-1.3892354999999998,5.501277,-0.15659387,-0.08628642,0.037284255,-0.6,10.44,-23.64
1554207330275,-7.704541000000001,-1.3844471,5.8508306,0.008522116,-0.09161274,0.043675844000000005,-0.66,10.62,-23.7
1554207330295,-7.584830800000001,-1.1402385,5.5922565,0.14168017,-0.07989483,0.026631612000000002,-0.72,10.8,-23.64
1554207330314,-7.5273699999999995,-0.96306765,5.472546599999999,0.18535602,-0.06178534,0.0053263223,-0.78,10.92,-23.58
1554207330335,-7.61835,-0.9199719999999999,5.4390279999999995,0.13741912,-0.046871635999999994,0.002130529,-0.9,11.1,-23.52
1554207330355,-7.4603324,-1.0636241000000002,5.462969999999999,0.06604639400000001,-0.049002163,-0.004261058,-0.96,11.34,-23.46
1554207330375,-7.546523599999999,-1.1210848999999998,5.4342394,-0.013848438000000001,-0.037284255,-0.01917476,-1.02,11.46,-23.4
1554207330394,-7.699753,-1.1354501000000001,5.544372599999999,-0.060720075,-0.039414786,-0.011717908999999999,-1.02,11.58,-23.4
1554207330414,-7.7667904000000005,-1.1498153,5.798158,-0.040480047000000005,-0.03195793,-0.008522116,-1.02,11.7,-23.34
1554207330435,-7.627927000000001,-1.2360066,5.515642,0.017044231,-0.02130529,-0.027696876000000002,-1.02,11.64,-23.34
1554207330455,-7.8386164,-1.0061632,5.788581400000001,-0.026631612000000002,0.017044231,-0.020240024,-1.08,11.52,-23.28
1554207330474,-7.627927000000001,-0.9439139999999999,5.692813,-0.053263225,0.026631612000000002,0.0010652645,-1.08,11.46,-23.28
1554207330495,-7.5082164,-1.3317747,5.61141,-0.014913702,0.049002163,0.0,-1.08,11.34,-23.28
1554207330515,-7.6710224,-1.1354501000000001,5.6257753,0.07456851,0.039414786,0.007456851,-1.08,11.22,-23.28
1554207330535,-7.455544000000001,-1.0348936,5.482123400000001,0.18855181,0.01917476,0.004261058,-1.08,11.16,-23.28
1554207330555,-7.680599000000001,-0.97743285,5.6018333,0.26205507,0.015978966,-0.023435817999999997,-1.08,11.1,-23.28
1554207330575,-7.627927000000001,-0.83856916,5.539584,0.22050974,-0.002130529,-0.026631612000000002,-1.08,11.04,-23.28
1554207330594,-7.627927000000001,-0.7858967,5.367202,0.06711166,0.0,-0.025566347000000003,-1.08,10.98,-23.28
1554207330614,-7.8050976,-0.9487024,5.443816,-0.084155895,0.002130529,-0.034088463,-1.08,10.98,-23.28
1554207330634,-7.6135616,-1.0253168,5.4964886,-0.18855181,-0.013848438000000001,-0.034088463,-1.08,10.98,-23.28
1554207330655,-7.6470804,-1.1641805,5.7119665,-0.15765914,-0.012783173500000002,-0.047936900000000005,-1.08,10.92,-23.34
1554207330675,-7.603985000000001,-1.2312181999999998,5.635351999999999,-0.07137272,-0.026631612000000002,-0.05006743,-1.08,10.92,-23.34
1554207330695,-7.723694999999999,-1.0588357,5.5922565,-0.0010652645,-0.029827405,-0.049002163,-1.02,10.92,-23.34
1554207330714,-7.61835,-1.0779893,5.5922565,0.033023197000000004,-0.03834952,-0.047936900000000005,-1.02,10.98,-23.34
1554207330734,-7.6470804,-1.1354501000000001,5.563526,0.015978966,-0.043675844000000005,-0.047936900000000005,-1.02,10.98,-23.34
1554207330756,-7.7332716,-1.0684125,5.6161985,-0.02130529,-0.05006743,-0.039414786,-1.02,11.04,-23.34
1554207330776,-7.723694999999999,-0.98700964,5.7023897,-0.046871635999999994,-0.04261058,-0.040480047000000005,-1.02,11.16,-23.34
1554207330795,-7.5704656,-1.0588357,5.8747725,-0.046871635999999994,-0.03089267,-0.046871635999999994,-1.02,11.22,-23.34
1554207330815,-7.7332716,-1.1210848999999998,5.7215432999999996,-0.02876214,-0.013848438000000001,-0.05539375,-0.96,11.28,-23.34
1554207330836,-7.891288799999999,-0.85293436,5.879561,-0.013848438000000001,-0.002130529,-0.054328485999999995,-0.96,11.34,-23.34
1554207330855,-7.5704656,-0.8098387,5.6784476999999995,-0.034088463,0.0063915867,-0.06924219,-0.9,11.4,-23.16
1554207330875,-7.422025,-0.99179804,5.6018333,-0.07882957,0.020240024,-0.10226539,-0.9,11.4,-23.1
1554207330895,-7.5369470000000005,-1.1689690000000001,5.659294,-0.07456851,0.011717908999999999,-0.10333065,-0.84,11.46,-22.98
1554207330915,-7.465121000000001,-1.3652935,5.6161985,-0.00958738,-0.029827405,-0.080960095,-0.72,11.46,-22.86
1554207330934,-7.4363904000000005,-1.2216414,5.6976013,0.083090626,-0.05219796,-0.09054748,-0.66,11.46,-22.8
1554207330954,-7.2640080000000005,-1.1354501000000001,5.606621700000001,0.15020229,-0.06178534,-0.12463594,-0.6,11.46,-22.68
1554207330975,-7.1873937,-1.0253168,5.755062000000001,0.15978967,-0.06711166,-0.15552860000000002,-0.6,11.46,-22.62
1554207330995,-7.345411,-0.6087258000000001,5.5204306,0.25885928,-0.06604639400000001,-0.25885928,-0.6,11.4,-22.62
1554207331015,-7.4986396,-0.4938041,5.3384714,0.21837921,-0.09587380000000001,-0.33768883,-0.6,11.4,-22.74
1554207331035,-7.268796400000001,-0.6087258000000001,5.34326,-0.04580637,-0.12357068,-0.35260254,-0.6,11.28,-22.86
1554207331055,-7.278373200000001,-1.0109516,5.544372599999999,-0.30679616,-0.12996227,-0.38349520000000004,-0.66,11.16,-22.98
1554207331075,-7.1969705,-1.4466964,5.4007206,-0.48469532,-0.13741912,-0.43782368,-0.78,11.04,-23.04
1554207331094,-7.2592196,-1.8201918999999998,5.9705405,-0.5294364,-0.15020229,-0.48682585,-0.84,10.98,-23.16
1554207331114,-7.038953,-1.6525976999999998,6.0806737,-0.38775626,-0.18109496,-0.515588,-0.96,10.86,-23.22
1554207331135,-7.1155677,-1.6190788999999999,6.2003837,-0.22264028,-0.1949434,-0.5400891,-1.2,10.86,-23.28
1554207331155,-7.177817,-1.4131776000000003,5.9322333,-0.16618125,-0.20772657,-0.5592638000000001,-1.38,10.86,-23.34
1554207331175,-7.3645644,-1.4514848,5.879561,-0.18002969,-0.2130529,-0.59761333,-1.62,10.98,-23.34
1554207331195,-7.254431200000001,-1.5807717,5.774216,-0.23861924,-0.22796659,-0.6348976,-1.74,11.04,-23.34
1554207331215,-7.067683000000001,-2.0021513,5.831677,-0.39201729999999996,-0.26418558,-0.6849651,-2.16,11.34,-23.28
1554207331235,-7.0724716,-2.4235306,6.214748999999999,-0.45806372,-0.28655612,-0.6924219,-2.46,11.58,-23.22
1554207331254,-6.9144545,-2.6629508,6.18123,-0.41545314,-0.30999196,-0.6892261,-2.76,11.82,-23.1
1554207331275,-6.847417,-2.902371,5.94181,-0.221575,-0.33662358,-0.69987875,-3.06,12.12,-22.92
1554207331294,-6.919242999999999,-2.8736405,5.927445,-0.12144015,-0.35579833,-0.700944,-3.24,12.36,-22.74
1554207331314,-6.9048777,-2.8736405,5.7598505,0.10972224,-0.42290998,-0.7041398,-3.54,12.6,-22.56
