TimeStamp,Ax,Ay,Az,Gx,Gy,Gz,Mx,My,Mz
1554117233414,-7.176619500000001,-3.2788591,5.5401826,0.034088463,-0.060720075,0.24820662,118.14,11.58,9.9
1554117233433,-7.2789717000000005,-3.1717186,5.467758,0.05965481,-0.033023197000000004,0.27696875,118.26,11.28,9.72
1554117233454,-7.3346367,-3.0202854,5.3815669999999995,0.018109497,-0.046871635999999994,0.28975195,118.38,10.92,9.6
1554117233474,-7.454347,-2.9239187,5.333683000000001,-0.05752428,-0.08841695,0.30146983,118.44,10.56,9.48
1554117233494,-7.240066000000001,-2.7904419999999996,5.345654,-0.12037488,-0.15446335,0.3153183,118.5,10.2,9.36
1554117233514,-7.0024414,-2.6186580000000004,5.5365915,-0.1438107,-0.18216023,0.27803403,118.5,9.84,9.24
1554117233534,-7.0012445,-2.4558525,5.843648,-0.17150758,-0.18109496,0.20133498,118.44,9.42,9.06
1554117233553,-6.906075,-2.1978772,6.0285997,-0.16405073,-0.18322548,0.14061491,118.38,9.3,9.0
1554117233577,-6.739078999999999,-1.9865887999999998,5.950189599999999,-0.1768339,-0.18429075,0.07563378,118.38,9.0,8.88
1554117233594,-6.6145806,-2.0745756999999996,5.9627595,-0.23648871,-0.15233281,-0.002130529,118.32,8.46,8.7
1554117233614,-6.747458999999999,-2.3989902,5.885546,-0.30679616,-0.14594123,-0.07030745599999999,118.32,8.28,8.58
1554117233633,-6.9970546,-2.7724855,5.525219,-0.45060685,-0.16405073,-0.06604639400000001,118.32,8.04,8.52
1554117233653,-7.041946,-3.0741549999999997,5.487509999999999,-0.59122175,-0.14807177,-0.037284255,118.32,7.8,8.4
1554117233674,-6.927024,-3.441665,5.815516000000001,-0.5773733,-0.13102753,-0.039414786,118.32,7.62,8.28
1554117233694,-6.987478,-3.5476084,5.7496753,-0.39947417,-0.10439592,-0.025566347000000003,118.32,7.44,8.1
1554117233714,-6.815694000000001,-3.3219550000000004,6.05733,-0.14594123,-0.024501082,-0.014913702,118.32,7.26,7.98
1554117233733,-6.8839283,-3.2650926,5.8478374,0.0,-0.002130529,0.007456851,118.32,7.14,7.8
1554117233754,-6.8384385,-3.0029275,5.6886234,0.11504856,0.033023197000000004,0.029827405,118.26,7.08,7.68
1554117233774,-6.9677253,-2.979584,5.5162406,0.09587380000000001,0.035153727999999995,0.022370555,118.26,7.02,7.62
1554117233793,-7.1586633,-3.008913,5.495291,0.08522116,0.039414786,-0.020240024,118.2,6.96,7.56
1554117233814,-7.195773,-2.5354595,5.8382607,0.10333065,0.054328485999999995,-0.10439592,118.14,6.9,7.5
1554117233834,-7.301717,-2.8072014,5.691616000000001,0.053263225,0.041545313,-0.07776430000000001,118.08,6.84,7.5
1554117233853,-7.121553,-2.9735985,5.6784476999999995,-0.08628642,-0.007456851,-0.004261058,118.08,6.78,7.56
1554117233873,-7.0826473,-2.9334955000000003,5.5126495,-0.10013486,-0.025566347000000003,-0.060720075,118.02,6.78,7.62
1554117233894,-7.1353197,-2.9197290000000002,5.5802855000000005,-0.096939065,-0.013848438000000001,-0.083090626,118.08,6.72,7.68
1554117233914,-6.96593,-2.9322984,5.8238955,-0.046871635999999994,-0.0053263223,-0.07243799,118.08,6.78,7.74
1554117233934,-6.716933,-2.7772740000000002,5.828684,0.033023197000000004,0.017044231,-0.11611383,118.14,6.78,7.8
1554117233953,-6.823475,-2.5845408,5.4623713,0.037284255,0.03195793,-0.1949434,118.14,6.78,7.92
1554117233973,-6.739078999999999,-2.553416,5.474342299999999,-0.07776430000000001,0.018109497,-0.25033715,118.2,6.78,7.98
1554117233994,-6.6361284,-2.5899277,5.431845,-0.17257284,0.014913702,-0.32277513,118.26,6.84,8.04
1554117234014,-6.627150500000001,-2.6928782000000004,5.453393,-0.32810146,0.04580637,-0.38136467,118.32,6.9,8.1
1554117234034,-6.555324000000001,-2.7503393,5.6724625,-0.52837116,0.06924219,-0.46019423,118.38,7.02,8.16
1554117234054,-6.4098763,-2.8485014,5.728726,-0.74248934,0.10439592,-0.5251754,118.32,7.32,8.22
1554117234074,-6.337452,-3.2842462,5.756858,-0.9054747999999999,0.13741912,-0.5539375,118.32,7.62,8.28
1554117234094,-6.567295,-3.8624457999999997,5.460575599999999,-0.8873653,0.16192019,-0.58269966,118.32,7.92,8.28
1554117234114,-6.684012400000001,-4.158728,5.346851,-0.82877576,0.18216023,-0.5965481,118.26,8.28,8.34
1554117234134,-6.6989765,-4.534618,5.139752400000001,-0.7137272,0.19281286,-0.6103965,118.2,8.7,8.34
1554117234154,-6.6510925,-5.075108999999999,5.0960584,-0.5187838,0.2034655,-0.5997439,118.14,9.06,8.4
1554117234174,-6.643311,-5.3378725,5.175665400000001,-0.23222765,0.21518342,-0.5656554,118.14,9.48,8.52
1554117234194,-6.664859,-5.366603,4.9548005999999996,0.013848438000000001,0.19707392,-0.49641323,118.08,9.84,8.76
1554117234213,-6.642114,-5.2157683,4.829703299999999,0.15020229,0.16192019,-0.43249738,118.02,10.14,9.0
1554117234233,-6.5942300000000005,-5.1086279999999995,4.5753193,0.16831179,0.10652645,-0.38456047,117.96,10.44,9.18
1554117234256,-6.461352,-4.935048,4.7123876,0.12463594,0.046871635999999994,-0.36964676,117.78,10.98,9.54
1554117234273,-6.3230867,-4.7931919999999995,4.7267528,0.07669904,0.012783173500000002,-0.35792887,117.6,11.4,9.72
1554117234294,-6.1489085999999995,-4.692635500000001,4.748300599999999,-0.0053263223,-0.013848438000000001,-0.34940675,117.42,11.82,9.9
1554117234313,-6.100425700000001,-4.6441526,4.909311,-0.07989483,-0.022370555,-0.38882150000000004,117.24,12.3,10.08
1554117234334,-6.1153900000000005,-4.7189717,4.8698063,-0.1438107,-0.020240024,-0.43462790000000007,117.12,12.78,10.14
1554117234355,-6.1183825,-4.95899,4.854842700000001,-0.19174760000000002,0.0031957934000000003,-0.46871635,117.0,13.2,10.14
1554117234374,-6.049549,-5.0906715,4.859630999999999,-0.20879184,0.033023197000000004,-0.51771855,116.88,13.56,10.14
1554117234394,-6.000468,-5.2439003,4.882375700000001,-0.19174760000000002,0.082025364,-0.5539375,116.82,13.98,10.14
1554117234414,-5.9956794,-5.3725886,4.882375700000001,-0.14274544,0.13954964,-0.5571333,116.82,14.34,10.14
1554117234434,-6.141726,-5.4396260000000005,4.8261123,-0.112918034,0.20240025,-0.5411543000000001,116.82,14.52,10.14
1554117234454,-6.403292700000001,-5.456983999999999,4.63697,-0.10439592,0.26205507,-0.51771855,116.88,15.06,10.2
1554117234474,-6.5487404,-5.4767364999999995,4.482544,-0.13102753,0.29188246,-0.4889564,116.88,15.42,10.32
1554117234494,-6.658873599999999,-5.595249,4.4047327,-0.16298546,0.31318775,-0.46871635,116.82,15.84,10.38
1554117234513,-6.746262,-5.675455,4.3275194,-0.22477080000000002,0.30892670000000005,-0.44954160000000004,116.76,16.32,10.56
1554117234534,-6.7211227,-5.856816,4.382586,-0.28229508,0.29294774,-0.41758367,116.7,16.92,10.8
1554117234553,-6.723517,-5.90889,4.395156,-0.2790993,0.2908172,-0.39734364,116.58,17.52,10.98
1554117234574,-6.7773867,-5.945401,4.376600700000001,-0.23648871,0.2876214,-0.3653857,116.4,18.06,11.22
1554117234594,-6.771400999999999,-6.010045,4.291008000000001,-0.19600865,0.28122982,-0.33555830000000003,116.22,18.54,11.46
1554117234614,-6.729502,-6.085462000000001,4.19105,-0.18642128,0.27377295,-0.3153183,116.04,18.96,11.7
1554117234634,-6.571485000000001,-6.205172,4.1635165,-0.20026971,0.26312032,-0.29294774,115.86,19.32,12.0
1554117234653,-6.4858923,-6.3105173,4.138976,-0.17576863,0.28336033,-0.2790993,115.68,19.62,12.36
1554117234673,-6.42903,-6.329671,4.1545385999999995,-0.13209279,0.29933932,-0.26525086,115.5,19.92,12.66
1554117234693,-6.318897,-6.30932,4.156933,-0.098004326,0.30786142,-0.2545982,115.38,20.04,12.96
1554117234714,-6.225523,-6.301539,4.060566000000001,-0.05752428,0.32597092,-0.23009712,115.32,20.22,13.2
1554117234734,-6.192004,-6.315904,4.019266,-0.033023197000000004,0.33981937,-0.21092236,115.26,20.28,13.5
1554117234753,-6.238691,-6.320692500000001,3.8762126000000006,-0.025566347000000003,0.35899413,-0.19387813,115.2,20.46,13.74
1554117234773,-6.2668230000000005,-6.364985,3.8654387000000003,-0.01917476,0.37603834,-0.19068234,115.2,20.58,13.98
1554117234794,-6.2021794,-6.4332199999999995,3.891775,0.008522116,0.37284255,-0.20879184,115.2,20.82,14.16
1554117234813,-6.0782795,-6.469133,3.8313212,0.034088463,0.38456047,-0.20453078,115.14,20.94,14.34
1554117234833,-5.972336299999999,-6.493075,3.8361096,0.07456851,0.40586576,-0.20559604,115.08,21.12,14.58
1554117234854,-5.932832,-6.4966664000000005,3.8666358,0.12570119999999999,0.43462790000000007,-0.22050974,114.96,21.24,14.82
1554117234874,-5.937021700000001,-6.547543,3.7762547,0.16724652,0.46552056,-0.24820662,114.84,21.3,15.06
1554117234893,-5.817312,-6.664260400000001,3.7283707,0.21624869,0.49321744,-0.28122982,114.72,21.42,15.42
1554117234914,-5.7089739999999995,-6.7217210000000005,3.7367504,0.27803403,0.5219796,-0.3334278,114.6,21.54,15.72
1554117234934,-5.703587000000001,-6.7043633,3.6864722000000003,0.32170987,0.5581986,-0.38029942,114.48,21.66,15.96
1554117234953,-5.7377043,-6.695385000000001,3.697246,0.34088463,0.5933523,-0.42184472,114.3,21.66,16.26
1554117234973,-5.713164,-6.697779,3.549404,0.33555830000000003,0.61572284,-0.46765109999999993,114.06,21.78,16.56
1554117234994,-5.703587000000001,-6.7666125,3.3758245000000002,0.34194988,0.6540724,-0.50600064,113.82,21.9,16.8
1554117235013,-5.722142,-6.8731546,3.3315318,0.3568636,0.6956177,-0.56245965,113.58,22.14,17.16
1554117235034,-5.787383999999999,-6.9198413,3.3117794999999997,0.38242993,0.73290193,-0.6317018,113.28,22.5,17.46
1554117235054,-5.8065375999999995,-6.998251400000001,3.2806550000000003,0.45380265,0.77125144,-0.6764429,113.04,22.92,17.76
1554117235073,-5.74369,-7.0245875999999985,3.1441852999999997,0.5613944000000001,0.8149273,-0.7041398,112.68,23.46,18.24
1554117235094,-5.798158,-7.014412400000001,3.0101101000000003,0.6583334,0.86179894,-0.7350325,112.32,24.12,18.66
1554117235113,-5.830479599999999,-6.959346000000001,2.7874494,0.700944,0.90014845,-0.76912093,111.96,24.84,19.02
1554117235136,-5.7395,-6.9437833,2.6856956000000003,0.6625945,0.9193232,-0.80533993,111.48,25.86,19.5
1554117235156,-5.748478400000001,-6.9515649999999996,2.6569653,0.62104917,0.9406285,-0.81705785,111.12,26.58,19.74
1554117235173,-5.7215432999999996,-6.9767036,2.6078842,0.56885123,0.9672601000000001,-0.809601,110.76,27.24,19.98
1554117235194,-5.7616463,-7.08145,2.5408466,0.50600064,0.99708754,-0.809601,110.4,27.9,20.28
1554117235213,-5.816713,-7.1688385,2.6222494,0.47191215,1.015197,-0.809601,110.22,28.2,20.46
1554117235234,-5.7784057,-7.198765799999999,2.5965118,0.4825648,1.0386329,-0.7882956999999999,109.8,28.8,20.7
1554117235254,-5.730521700000001,-7.185598,2.5025394,0.51452273,1.0705907,-0.7350325,109.38,29.4,21.0
1554117235274,-5.776610400000001,-7.200561500000001,2.4432828,0.52411014,1.107875,-0.69987875,108.48,30.48,21.36
1554117235293,-5.960963700000001,-7.1592617,2.4648306,0.5049353,1.1377025,-0.68176925,107.76,31.26,21.66
1554117235314,-6.117185,-7.1634517,2.3798366,0.46658584,1.1451592,-0.67005134,107.16,32.04,21.96
1554117235333,-6.1405287,-7.2430587,2.3175871,0.42717105,1.128115,-0.64768076,106.5,32.76,22.32
1554117235354,-6.18542,-7.314884700000001,2.3295584,0.41225734,1.1036139999999999,-0.62531024,105.78,33.54,22.8
1554117235373,-6.321291,-7.3974850000000005,2.4169466,0.4261058,1.0535465,-0.6135923000000001,105.06,34.32,23.04
1554117235393,-6.203975,-7.477690700000001,2.31639,0.45167214,0.98110855,-0.5901565,104.34,35.04,23.4
1554117235413,-6.025607,-7.545925,2.2242134,0.47617322,0.9225190000000001,-0.59122175,103.74,35.7,23.7
1554117235433,-6.099229,-7.593808999999999,2.2750902,0.51452273,0.8745821,-0.60933125,103.14,36.3,24.06
1554117235454,-6.144718599999999,-7.6045833,2.2463598,0.55287224,0.8202536,-0.6061354999999999,102.66,36.84,24.36
1554117235474,-6.089652,-7.512406299999999,2.2254104999999997,0.59122175,0.76912093,-0.58909124,102.12,37.44,24.66
1554117235494,-6.1219735,-7.4723034,2.0697872999999998,0.60933125,0.7222493000000001,-0.5837649,101.64,37.98,24.84
1554117235514,-6.137536,-7.480085000000001,1.9668366999999998,0.515588,0.65513766,-0.5752428,101.16,38.46,24.96
1554117235533,-6.125565,-7.49445,1.99437,0.43569317,0.60720074,-0.5752428,100.56,38.88,25.02
1554117235553,-6.1596823,-7.548918,1.9710265,0.32384038,0.5368933000000001,-0.5539375,100.08,39.3,25.02
1554117235574,-6.167464,-7.665635000000001,1.9381063000000003,0.20133498,0.45060685,-0.48469532,99.54,39.72,25.08
1554117235593,-6.1153900000000005,-7.765592999999999,1.9716251,0.14913702,0.38242993,-0.41758367,99.06,40.26,25.08
1554117235613,-6.05733,-7.825448,2.1146786,0.12996227,0.3270362,-0.34727620000000003,98.58,40.62,25.08
1554117235633,-5.9741316,-7.7889365999999995,2.1799207000000003,0.1438107,0.28655612,-0.29933932,98.1,40.92,25.08
1554117235653,-5.887940400000001,-7.7171106,2.1242554,0.16405073,0.25140239999999997,-0.23648871,97.62,41.22,25.08
1554117235674,-5.7825956,-7.668029300000001,2.1206641,0.1438107,0.21731395,-0.19281286,97.14,41.46,25.08
1554117235694,-5.641936299999999,-7.5962033,2.2679076,0.10439592,0.18748654,-0.15446335,96.72,41.7,25.02
1554117235714,-5.5419784000000005,-7.612962700000001,2.348712,0.06498113,0.17576863,-0.10652645,96.3,41.94,24.96
1554117235733,-5.4312468,-7.587824,2.3936029999999997,0.018109497,0.16085494,-0.07137272,96.0,42.06,24.96
1554117235754,-5.2810106,-7.587225,2.429516,-0.037284255,0.16192019,-0.05752428,95.7,42.06,24.9
1554117235774,-5.258864,-7.681796,2.4672248,-0.07776430000000001,0.17896444,-0.054328485999999995,95.52,42.12,24.9
1554117235794,-5.347449299999999,-7.819463000000001,2.4917655,-0.083090626,0.19920446,-0.058589544,95.34,42.18,24.84
1554117235814,-5.269039,-7.858368400000001,2.4779987,-0.06604639400000001,0.22583607,-0.058589544,95.28,42.24,24.9
1554117235834,-5.204396,-7.7907324000000004,2.3600842999999996,-0.04261058,0.2609898,-0.05219796,95.22,42.36,24.96
1554117235853,-5.1702785,-7.705139599999999,2.3050177000000005,-0.025566347000000003,0.2876214,-0.047936900000000005,95.22,42.42,25.02
1554117235874,-5.1062335999999995,-7.6644382,2.3642743,-0.035153727999999995,0.30360037,-0.05006743,95.22,42.48,25.08
1554117235893,-5.0697220000000005,-7.6333137,2.4223334999999997,-0.04261058,0.30999196,-0.05965481,95.16,42.54,25.2
1554117235914,-5.0559554,-7.5698669999999995,2.4019828,-0.020240024,0.3206446,-0.053263225,95.1,42.6,25.32
1554117235934,-5.085284,-7.4310035999999995,2.3469162,0.015978966,0.33129725,-0.047936900000000005,94.98,42.66,25.38
1554117235954,-5.1690817000000004,-7.3400240000000005,2.3020248,0.043675844000000005,0.33981937,-0.05006743,94.86,42.78,25.5
1554117235974,-5.341464,-7.302314999999999,2.3253684,0.04261058,0.33129725,-0.05752428,94.68,42.84,25.56
1554117235994,-5.467758,-7.27957,2.4959552000000005,0.020240024,0.31212249999999997,-0.060720075,94.56,42.9,25.62
1554117236013,-5.650316,-7.2789717000000005,2.3409307,0.0010652645,0.30146983,-0.07882957,94.38,42.96,25.68
1554117236033,-5.895722,-7.393294999999999,2.1440077,-0.03089267,0.28655612,-0.10865697,94.26,43.02,25.68
1554117236054,-6.0399723,-7.5016327,2.0021513,-0.084155895,0.25033715,-0.1587244,94.08,43.14,25.74
1554117236074,-6.1165867,-7.538144,1.8740613000000002,-0.11717909,0.23222765,-0.16937704,94.02,43.14,25.74
1554117236094,-6.141726,-7.5327573,1.7621324,-0.16405073,0.19920446,-0.14807177,93.96,43.14,25.8
1554117236114,-6.1219735,-7.567473,1.5975311,-0.23329292,0.14594123,-0.10013486,93.9,43.08,25.92
1554117236135,-6.1650696,-7.6488757,1.578976,-0.25672874,0.101200126,-0.06711166,93.78,43.02,25.98
1554117236153,-6.2027779999999995,-7.726089,1.5101427,-0.24501082,0.06285059999999999,-0.010652645,93.78,42.96,26.1
1554117236174,-6.318897,-7.7637978,1.4030021000000001,-0.20453078,0.027696876000000002,0.037284255,93.78,42.9,26.28
1554117236194,-6.343437000000001,-7.754221,1.2186487,-0.17470337,-0.025566347000000003,0.07563378,93.66,42.84,26.46
1554117236214,-6.279991000000001,-7.739856,1.1073183000000002,-0.16405073,-0.08735169,0.113983296,93.66,42.78,26.58
1554117236234,-6.193201,-7.721300599999999,1.0522517,-0.15765914,-0.15339808,0.14168017,93.6,42.66,26.76
1554117236254,-6.042965000000001,-7.653664,0.9995792,-0.1768339,-0.23755397,0.165116,93.54,42.36,26.94
1554117236273,-5.9292407,-7.560290299999999,0.9696517,-0.20453078,-0.32810146,0.18535602,93.48,42.12,27.18
1554117236293,-5.7418942,-7.483675999999999,0.9199719999999999,-0.24181503,-0.41971418,0.2034655,93.48,41.82,27.36
1554117236314,-5.544372599999999,-7.37055,0.93613285,-0.28336033,-0.49960902,0.21198763,93.48,41.52,27.54
1554117236334,-5.3761797,-7.3268557,0.8960299999999999,-0.31851408,-0.56459016,0.20559604,93.6,41.28,27.66
1554117236353,-5.1768627,-7.268198,0.84814596,-0.36112466,-0.61572284,0.17044231,93.72,41.04,27.72
1554117236373,-5.1205989999999995,-7.271190600000001,0.83378077,-0.38562572,-0.6348976,0.13528858,93.9,40.8,27.78
1554117236394,-5.0667295,-7.268198,0.82121116,-0.4314321,-0.64768076,0.082025364,94.14,40.62,27.84
1554117236413,-5.0320134,-7.3166804,0.87208796,-0.49534798,-0.6540724,0.022370555,94.38,40.56,27.9
1554117236433,-5.048174400000001,-7.374141000000001,0.866701,-0.5752428,-0.66152924,-0.025566347000000003,94.74,40.38,27.9
1554117236454,-5.011064,-7.5369470000000005,0.8403648000000001,-0.70840085,-0.66579026,-0.084155895,95.04,40.14,27.84
1554117236473,-4.9901147,-7.851186,0.89064306,-0.8117314999999999,-0.67005134,-0.14807177,95.4,39.84,27.84
1554117236494,-5.018246700000001,-8.1319065,1.043872,-0.8863,-0.66579026,-0.20559604,95.64,39.6,27.84
1554117236514,-5.0583496,-8.449138,1.0606314,-0.9076053,-0.65513766,-0.24820662,95.88,39.3,27.96
1554117236534,-5.1080294,-8.737639,1.0223241,-0.88949585,-0.64555025,-0.27590349999999997,96.12,39.0,28.14
1554117236554,-5.116409,-8.992621,0.9852139999999999,-0.8266452,-0.6402239000000001,-0.28336033,96.3,38.64,28.26
1554117236574,-5.1205989999999995,-9.168595,1.0684125,-0.74675035,-0.63915867,-0.28016454,96.48,38.1,28.44
1554117236594,-5.149928,-9.240421000000001,1.0779893,-0.68816084,-0.6412892,-0.27590349999999997,96.6,37.62,28.62
1554117236614,-5.1361612999999995,-9.199121,1.1234791000000002,-0.6199839,-0.660464,-0.25992453,96.78,37.26,28.86
1554117236634,-5.0918684,-9.138668,1.1420341999999999,-0.5550028,-0.6764429,-0.21944448,96.96,36.9,29.04
1554117236654,-5.019444,-9.087791000000001,1.1552023,-0.47723848,-0.6679208000000001,-0.15765914,97.08,36.48,29.28
1554117236674,-4.948815,-8.983644,1.1174936000000002,-0.3749731,-0.6359629,-0.09054748,97.2,36.12,29.4
1554117236694,-4.8865657,-8.811859,1.1456255,-0.26631612,-0.5795039000000001,-0.025566347000000003,97.38,35.76,29.52
1554117236713,-4.9021277,-8.659229,0.9451110999999999,-0.17257284,-0.5006742999999999,0.029827405,97.5,35.4,29.64
1554117236734,-4.936844000000001,-8.564059,0.8122329,-0.14061491,-0.4133226,0.07030745599999999,97.62,35.28,29.76
1554117236754,-4.875193,-8.464102,0.66139823,-0.14807177,-0.33875409999999995,0.094808534,97.74,35.16,29.88
1554117236773,-4.8662148,-8.44016,0.53689975,-0.1438107,-0.257794,0.12570119999999999,97.92,35.04,30.0
1554117236794,-4.9027267,-8.412027,0.40162733,-0.14274544,-0.19387813,0.15446335,98.1,34.98,30.06
1554117236814,-4.8745947,-8.333019,0.26156655,-0.16724652,-0.165116,0.15446335,98.28,34.86,30.12
1554117236833,-4.8105497,-8.288128,0.26874915,-0.20453078,-0.15446335,0.15126756,98.52,34.62,30.12
1554117236854,-4.801571400000001,-8.230667,0.31902736,-0.24927188,-0.1587244,0.14913702,98.76,34.44,30.12
1554117236873,-4.7273510000000005,-8.241441,0.3878607,-0.30360037,-0.17150758,0.15020229,99.12,34.14,30.06
1554117236893,-4.710592,-8.247425999999999,0.46208093,-0.31851408,-0.18002969,0.14594123,99.3,34.02,30.06
1554117236914,-4.7207669999999995,-8.287529,0.51355624,-0.30253512,-0.15659387,0.13315806,99.6,33.66,30.0
1554117236934,-4.8279076,-8.367735,0.49320555,-0.28016454,-0.12996227,0.094808534,99.78,33.48,29.94
1554117236953,-4.746505,-8.382699,0.6099229,-0.27590349999999997,-0.12463594,0.035153727999999995,99.84,33.18,29.94
1554117236974,-4.735132,-8.365939,0.6823475,-0.25672874,-0.11717909,-0.007456851,99.96,33.0,29.94
1554117236994,-4.678869000000001,-8.402451,0.7140707,-0.23755397,-0.11824436,-0.013848438000000001,100.14,32.82,30.0
1554117237014,-4.565742500000001,-8.474277,0.6931214,-0.23542345,-0.112918034,-0.012783173500000002,100.26,32.7,30.12
1554117237033,-4.559757,-8.617929,0.7350199000000001,-0.21411815,-0.094808534,-0.03195793,100.44,32.46,30.24
1554117237054,-4.596867,-8.670003,0.80325466,-0.15020229,-0.06285059999999999,-0.029827405,100.56,32.28,30.42
1554117237073,-4.583699,-8.7538,0.789488,-0.047936900000000005,-0.012783173500000002,-0.010652645,100.68,32.04,30.54
1554117237094,-4.647744,-8.768764,0.670975,0.043675844000000005,0.04474111,0.0063915867,100.8,31.8,30.72
1554117237113,-4.673482,-8.773552,0.65900403,0.10013486,0.101200126,0.01917476,100.86,31.62,30.84
1554117237134,-4.743512,-8.781333,0.5422866999999999,0.13422333,0.15978967,0.04474111,100.98,31.38,30.96
1554117237154,-4.766257,-8.737040499999999,0.5093664000000001,0.17363810000000002,0.21198763,0.06391586,100.98,31.14,31.08
1554117237173,-4.853047,-8.636484,0.40701428,0.21518342,0.2609898,0.08735169,101.04,30.96,31.08
1554117237193,-5.026626599999999,-8.593987,0.3597288,0.22903186,0.29614353,0.09161274,101.04,30.84,31.14
1554117237213,-5.1762643,-8.557475,0.36631286,0.21731395,0.31318775,0.07776430000000001,101.04,30.72,31.14
1554117237234,-5.218761,-8.434174,0.42078096,0.22264028,0.31105720000000003,0.07456851,101.04,30.66,31.08
1554117237253,-5.284003299999999,-8.264783999999999,0.53570265,0.27057716,0.30466563,0.07669904,100.98,30.6,31.08
1554117237273,-5.473145,-8.222287,0.46806642,0.28442562,0.29614353,0.06498113,100.98,30.54,31.08
1554117237293,-5.606621700000001,-8.132503999999999,0.4249708,0.25672874,0.27590349999999997,0.027696876000000002,100.92,30.54,31.14
1554117237314,-5.744887,-8.189366999999999,0.48841715,0.25140239999999997,0.26418558,0.0,100.86,30.54,31.14
1554117237334,-5.7933699999999995,-8.258201,0.49559975,0.29507825,0.25885928,0.010652645,100.86,30.6,31.2
1554117237354,-5.738901599999999,-8.265982000000001,0.45729253,0.34514567,0.26631612,0.027696876000000002,100.8,30.6,31.2
1554117237374,-5.681441,-8.136695,0.38426940000000004,0.36645097,0.27377295,0.035153727999999995,100.74,30.72,31.2
1554117237393,-5.623979599999999,-8.104971,0.3866636,0.34834146,0.26525086,0.043675844000000005,100.68,30.78,31.26
1554117237413,-5.500079599999999,-7.989451,0.4441244000000001,0.32597092,0.25885928,0.06285059999999999,100.68,30.9,31.26
1554117237433,-5.4845176,-7.9828672,0.39384618,0.30679616,0.26205507,0.08522116,100.62,31.08,31.26
1554117237454,-5.5054669999999994,-7.966706299999999,0.41299978,0.27696875,0.27057716,0.096939065,100.56,31.32,31.14
1554117237474,-5.482123400000001,-7.893683,0.46567222,0.27377295,0.28655612,0.098004326,100.5,31.56,31.08
1554117237494,-5.422867,-7.867945,0.5267244000000001,0.2876214,0.30892670000000005,0.10972224,100.44,31.8,31.02
1554117237513,-5.41329,-7.872733599999999,0.5398925,0.29614353,0.33555830000000003,0.11717909,100.38,32.04,30.96
1554117237534,-5.5377884,-7.8517847000000005,0.5590460999999999,0.28229508,0.36218992,0.10865697,100.32,32.28,30.9
1554117237554,-5.5521536,-7.8386164,0.5602431999999999,0.26312032,0.3749731,0.10865697,100.26,32.52,30.84
1554117237573,-5.5886655,-7.8829093,0.6889314999999999,0.26418558,0.4079963,0.112918034,100.2,32.76,30.78
1554117237593,-5.6102133,-7.8703394,0.7398083000000001,0.27483824,0.44741106,0.113983296,100.14,33.0,30.72
1554117237613,-5.662287,-7.8853035,0.7433996,0.2876214,0.48363006,0.112918034,100.02,33.12,30.72
1554117237633,-5.714959599999999,-7.864354,0.8158241999999999,0.294013,0.5134575,0.113983296,99.96,33.24,30.78
1554117237653,-5.6269727,-7.78355,0.85652566,0.30786142,0.5336975,0.12357068,99.9,33.3,30.78
1554117237676,-5.583876999999999,-7.561487700000001,0.90500826,0.32810146,0.5571333,0.14487597,99.78,33.42,30.78
1554117237693,-5.6461263,-7.462726600000001,0.88525605,0.32384038,0.5613944000000001,0.13741912,99.72,33.48,30.78
1554117237713,-5.695207,-7.445369,0.9020155000000001,0.3153183,0.5635249,0.12463594,99.72,33.48,30.78
1554117237734,-5.830479599999999,-7.284957400000001,0.8960299999999999,0.33662358,0.5603291,0.084155895,99.54,33.54,30.78
1554117237753,-5.9184665999999995,-7.162254300000001,0.8355764000000001,0.36432046,0.5539375,0.05752428,99.48,33.6,30.78
1554117237774,-6.1243677000000005,-7.015011,0.59974754,0.37390783,0.5550028,0.037284255,99.36,33.72,30.78
1554117237794,-6.3224883,-6.915652000000001,0.47105917,0.32597092,0.56245965,0.013848438000000001,99.18,33.78,30.84
1554117237814,-6.4577602999999995,-6.887519999999999,0.3800795,0.24074976,0.5475459,-0.036218993,98.94,33.9,30.84
1554117237834,-6.616975,-6.947375,0.35553896,0.1438107,0.5273059,-0.08735169,98.7,34.02,30.9
1554117237854,-6.6947865,-7.1879919999999995,0.42317516,0.07669904,0.4878911,-0.13528858,98.4,34.2,30.9
1554117237874,-6.70556,-7.3914990000000005,0.41958386,0.058589544,0.43569317,-0.17257284,98.04,34.38,30.9
1554117237894,-6.7468604999999995,-7.447763,0.47225627,0.09587380000000001,0.38562572,-0.17789917,97.8,34.56,30.96
1554117237913,-6.686406599999999,-7.5692687,0.5057751,0.1470065,0.30892670000000005,-0.165116,97.5,34.74,30.96
1554117237933,-6.628946000000001,-7.728483,0.34237084,0.12676647,0.23648871,-0.12144015,97.26,34.92,30.96
1554117237955,-6.481104,-7.9236107,0.4309563,0.06711166,0.1587244,-0.07030745599999999,97.08,35.16,30.96
1554117237974,-6.4206505,-7.983465700000001,0.50278234,0.08522116,0.12570119999999999,-0.054328485999999995,97.02,35.28,31.02
1554117237994,-6.379949,-7.987056699999999,0.58119243,0.18109496,0.09054748,-0.035153727999999995,96.9,35.46,31.08
1554117238014,-6.3727665,-7.875128,0.5955577,0.30679616,0.06391586,-0.012783173500000002,96.84,35.58,31.2
1554117238033,-6.3709707,-7.740454,0.52073884,0.38775626,0.06391586,0.014913702,96.72,35.64,31.26
1554117238053,-6.407482,-7.4363904000000005,0.4165911,0.4048005,0.05539375,0.01917476,96.6,35.7,31.38
1554117238074,-6.483498,-7.1963716,0.25977087,0.32277513,0.03089267,0.01917476,96.48,35.76,31.44
1554117238094,-6.4990606,-7.043741000000001,0.23762453,0.18961707,-0.017044231,0.027696876000000002,96.36,35.82,31.5
1554117238113,-6.582259,-7.105392,0.094570965,0.026631612000000002,-0.08628642,0.05965481,96.18,35.88,31.5
1554117238133,-6.640318400000001,-7.2580222999999995,0.05865794,-0.06285059999999999,-0.15552860000000002,0.09267801,96.06,36.0,31.44
1554117238154,-6.727108,-7.3268557,0.12749124,-0.11824436,-0.23009712,0.11717909,95.94,36.06,31.38
1554117238174,-6.7642183000000005,-7.3699512,0.13467385,-0.16724652,-0.32384038,0.1587244,95.88,36.12,31.26
1554117238193,-6.7043633,-7.398681599999999,0.11133038,-0.20026971,-0.41225734,0.21518342,95.82,36.18,31.2
1554117238213,-6.643910000000001,-7.48607,0.12808979,-0.22583607,-0.48363006,0.27057716,95.88,36.3,31.14
1554117238233,-6.523601,-7.554305,0.35913026,-0.25353295,-0.5219796,0.3153183,96.06,36.36,31.08
1554117238254,-6.4416,-7.5950065,0.6051345,-0.2428803,-0.5390238,0.32277513,96.18,36.36,31.02
1554117238273,-6.430825700000001,-7.495647,0.688333,-0.18535602,-0.5368933000000001,0.30999196,96.36,36.36,31.02
1554117238294,-6.343437000000001,-7.385514,0.81043726,-0.113983296,-0.5273059,0.29933932,96.6,36.3,30.9
1554117238315,-6.2626333,-7.183802,0.93493575,-0.080960095,-0.5294364,0.27803403,96.78,36.3,30.78
1554117238333,-6.1698580000000005,-6.970119500000001,1.1432313,-0.10865697,-0.5432849000000001,0.24501082,97.02,36.18,30.66
1554117238354,-6.0687027,-6.804321300000001,1.2808979,-0.17470337,-0.5550028,0.20240025,97.26,36.06,30.54
1554117238374,-6.0244102,-6.767211,1.2425906999999998,-0.26418558,-0.5518069999999999,0.16192019,97.5,35.82,30.42
1554117238394,-5.94181,-6.8109055,1.264737,-0.3568636,-0.5294364,0.11504856,97.74,35.58,30.3
1554117238414,-5.862801599999999,-6.8611835999999995,1.3120226000000001,-0.406931,-0.45912898,0.05219796,98.16,35.34,30.18
1554117238434,-5.834071,-7.086836999999999,1.1976993999999999,-0.39627838,-0.38242993,-0.034088463,98.52,35.04,30.06
1554117238454,-5.81372,-7.353192,1.1085154,-0.35899413,-0.30360037,-0.08522116,98.88,34.74,30.06
1554117238473,-5.9651537,-7.5962033,1.0462662,-0.30146983,-0.2066613,-0.12357068,99.3,34.38,30.06
1554117238493,-6.1112,-7.833828,0.8996213,-0.28336033,-0.165116,-0.1470065,99.66,34.08,30.06
1554117238513,-6.1513029999999995,-7.960122,0.7751228,-0.28975195,-0.13315806,-0.13741912,100.02,33.78,30.0
1554117238534,-6.278794,-7.884106,0.9163806999999999,-0.27803403,-0.10546118,-0.06711166,100.44,33.48,29.94
1554117238554,-6.325481,-7.863157000000001,0.9564835999999999,-0.24927188,-0.10546118,-0.011717908999999999,100.44,33.36,29.88
1554117238573,-6.3524156,-7.771578999999999,0.9588778,-0.21411815,-0.10759171,0.058589544,100.5,33.12,29.88
1554117238593,-6.3422403,-7.660248299999999,1.0378863999999999,-0.18322548,-0.1107875,0.10013486,100.5,32.82,29.82
1554117238614,-6.2823853,-7.4723034,1.1671733999999998,-0.11717909,-0.08841695,0.14061491,100.44,32.46,29.82
1554117238633,-6.226121400000001,-7.295731,1.2455834,-0.05219796,-0.05752428,0.16937704,100.38,32.22,29.82
1554117238655,-6.1381345000000005,-7.2209125,1.2910733,-0.012783173500000002,-0.034088463,0.17044231,100.44,32.04,29.88
1554117238674,-6.0884547,-7.171232700000001,1.1354501000000001,-0.0031957934000000003,0.008522116,0.14913702,100.56,31.8,29.94
1554117238693,-6.030994000000001,-7.0940194000000005,1.0654198000000001,0.0010652645,0.047936900000000005,0.096939065,100.62,31.62,30.0
1554117238714,-5.9292407,-6.9820905,0.89184016,0.00958738,0.11611383,0.024501082,100.74,31.44,30.06
1554117238734,-5.898116,-6.992864599999999,0.9139864999999999,-0.0031957934000000003,0.19281286,-0.017044231,100.92,31.32,30.12
1554117238754,-5.8508306,-6.8444242,1.0013748,0.015978966,0.27164245,-0.094808534,101.04,31.26,30.18
1554117238774,-5.9064955999999995,-6.823475,0.82121116,0.014913702,0.30892670000000005,-0.16405073,101.16,31.2,30.18
1554117238793,-5.885546,-6.801927,0.635062,-0.056459017,0.3174488,-0.19813919,101.16,31.2,30.3
1554117238813,-5.931635,-6.959346000000001,0.42975920000000006,-0.15126756,0.31318775,-0.23435818,101.04,31.26,30.36
1554117238833,-6.0387754000000005,-6.919242999999999,0.41958386,-0.23755397,0.32384038,-0.28442562,100.86,31.32,30.48
1554117238854,-6.208165,-6.998251400000001,0.19393034,-0.31957933,0.3057309,-0.33129725,100.68,31.38,30.6
1554117238874,-6.2327056,-7.171232700000001,0.17298107,-0.4048005,0.28868666,-0.33449304,100.5,31.44,30.72
1554117238894,-6.226121400000001,-7.3208704,0.207697,-0.47404268,0.257794,-0.34408042,100.32,31.5,30.84
1554117238914,-6.2967505,-7.3490020000000005,0.22744916,-0.49960902,0.2428803,-0.3653857,100.14,31.56,30.96
1554117238934,-6.4230447,-7.311891999999999,0.20290859,-0.4857606,0.22796659,-0.39308259999999995,99.96,31.56,31.14
1554117238954,-6.4350157,-7.4046674,0.142455,-0.45699844,0.20772657,-0.4048005,99.78,31.56,31.38
1554117238974,-6.451775,-7.7171106,-0.11611878,-0.4314321,0.18322548,-0.41119209999999995,99.66,31.5,31.74
1554117238994,-6.351817,-7.7590094,-0.3585317,-0.4079963,0.13954964,-0.41864893,99.54,31.44,32.1
1554117239014,-6.369773400000001,-7.6704235,-0.5530606,-0.3153183,0.094808534,-0.4133226,99.3,31.32,32.46
1554117239033,-6.3099184,-7.9182234,-0.6769605,-0.19707392,0.056459017,-0.33981937,99.06,31.2,32.76
1554117239053,-6.156091,-8.270769999999999,-0.7942764,-0.113983296,0.05965481,-0.20559604,98.76,31.08,33.12
1554117239073,-6.0968347000000005,-8.331821000000001,-0.79607207,-0.112918034,0.08948222,-0.12676647,98.4,30.96,33.42
1554117239093,-6.18961,-8.250419,-0.694917,-0.17257284,0.10226539,-0.11930962,97.98,30.78,33.72
1554117239115,-6.2351,-8.11395,-0.62967503,-0.23009712,0.07989483,-0.098004326,97.68,30.66,33.96
1554117239135,-6.293158999999999,-7.9882539999999995,-0.42197806,-0.25672874,0.05752428,-0.05219796,97.44,30.48,34.02
1554117239154,-6.1866174,-7.828441000000001,-0.35075054,-0.2727077,0.011717908999999999,-0.037284255,97.26,30.36,34.08
1554117239174,-6.078878,-7.7494326000000004,-0.41000703,-0.3153183,-0.03834952,-0.034088463,97.14,30.24,34.14
1554117239194,-6.0345855,-7.7614035999999995,-0.40043023,-0.34301516,-0.07776430000000001,-0.037284255,97.02,30.12,34.2
1554117239214,-5.959168,-7.837419000000001,-0.38726214,-0.29188246,-0.099069595,-0.026631612000000002,97.02,30.0,34.26
1554117239234,-5.883152,-7.884106,-0.45010993,-0.14487597,-0.08841695,-0.023435817999999997,97.02,29.88,34.32
1554117239254,-5.828085400000001,-7.8637557000000005,-0.6655880999999999,0.015978966,-0.07030745599999999,-0.014913702,97.08,29.76,34.38
1554117239274,-5.73112,-7.912238,-0.7517793,0.096939065,-0.043675844000000005,-0.0053263223,97.08,29.58,34.44
1554117239294,-5.592855,-7.8954787,-0.6991069000000001,0.12570119999999999,-0.035153727999999995,-0.029827405,97.08,29.4,34.5
1554117239313,-5.573103,-7.7709804,-0.56563014,0.14274544,-0.01917476,-0.05752428,97.08,29.28,34.56
1554117239334,-5.626374,-7.431602000000001,-0.6847416999999999,0.09374327,-0.007456851,-0.035153727999999995,97.08,29.04,34.68
1554117239353,-5.6784476999999995,-7.3897038,-0.6841431,0.0010652645,-0.0063915867,-0.012783173500000002,97.02,28.86,34.74
1554117239373,-5.755062000000001,-7.387309599999999,-0.5991489999999999,-0.07776430000000001,-0.00958738,-0.018109497,97.02,28.74,34.8
1554117239394,-5.8466406,-7.369353,-0.5542577,-0.16937704,-0.014913702,-0.049002163,97.02,28.62,34.8
1554117239413,-6.084265,-7.394492,-0.57161564,-0.18216023,-0.022370555,-0.06498113,97.02,28.62,34.8
1554117239433,-6.1453169999999995,-7.5219830000000005,-0.5351041,-0.20240025,-0.03834952,-0.07776430000000001,97.02,28.62,34.8
1554117239454,-6.142923000000001,-7.707534,-0.44651863,-0.20985709,-0.04474111,-0.101200126,97.08,28.56,34.8
1554117239475,-6.2009826,-7.633912,-0.45190558,-0.1438107,-0.05539375,-0.16192019,97.08,28.56,34.86
1554117239493,-6.237494,-7.6644382,-0.6907272,-0.06391586,-0.07456851,-0.17363810000000002,97.08,28.56,34.92
1554117239515,-6.18123,-7.864354,-0.7739256999999999,-0.08735169,-0.083090626,-0.13528858,97.14,28.5,34.98
1554117239535,-6.060323,-7.969100500000001,-0.8182184,-0.12144015,-0.101200126,-0.12676647,97.2,28.5,35.04
1554117239554,-6.0866594,-7.9074497,-0.8619126,-0.12037488,-0.10333065,-0.10972224,97.26,28.5,35.1
1554117239574,-6.1716533,-7.7703815,-1.0169370999999998,-0.07989483,-0.11504856,-0.07989483,97.26,28.44,35.1
1554117239594,-6.1489085999999995,-7.7320743,-1.1994951,-0.07882957,-0.14061491,-0.051132694000000006,97.32,28.38,35.16
1554117239614,-6.0285997,-7.768586,-1.174356,-0.15126756,-0.17257284,-0.03089267,97.32,28.38,35.16
1554117239633,-5.920861,-7.8703394,-0.9744401,-0.26418558,-0.20559604,-0.010652645,97.38,28.32,35.16
1554117239653,-5.887341999999999,-7.868544,-0.9403226999999998,-0.31638354,-0.22583607,-0.03089267,97.38,28.26,35.1
1554117239674,-5.889736,-7.8386164,-0.8026561,-0.31212249999999997,-0.24181503,-0.06285059999999999,97.38,28.2,35.04
1554117239694,-5.828085400000001,-7.799111999999999,-0.6751649000000001,-0.23116238,-0.26205507,-0.10865697,97.44,28.14,35.04
1554117239714,-5.7658362,-7.740454,-0.8170213000000001,-0.1587244,-0.2790993,-0.12570119999999999,97.44,28.08,35.04
1554117239734,-5.7598505,-7.753622,-0.8762778,-0.13528858,-0.2727077,-0.12250541,97.44,28.08,35.04
1554117239754,-5.7736173,-7.866748299999999,-0.8655039000000001,-0.14274544,-0.26844665,-0.13848437,97.5,28.02,35.04
1554117239773,-5.645528,-7.9948380000000006,-0.8678981,-0.15126756,-0.24820662,-0.14807177,97.56,27.96,35.1
1554117239794,-5.5820813,-8.124723,-0.80684596,-0.12463594,-0.21837921,-0.14487597,97.62,27.9,35.1
1554117239813,-5.5659204,-8.118738,-0.82719666,-0.03834952,-0.19707392,-0.15765914,97.8,27.78,35.16
1554117239834,-5.639542,-8.112753,-0.95468795,0.040480047000000005,-0.17150758,-0.14274544,97.98,27.6,35.22
1554117239856,-5.686229,-8.212111,-0.97743285,0.06498113,-0.14913702,-0.098004326,98.1,27.36,35.22
1554117239874,-5.568912999999999,-8.281544,-0.92775315,0.024501082,-0.13741912,-0.07030745599999999,98.28,27.18,35.22
1554117239895,-5.637148000000001,-8.200739,-0.80445176,0.0053263223,-0.12250541,-0.06178534,98.4,27.0,35.16
1554117239914,-5.715558000000001,-8.176199,-0.7589619000000001,0.0010652645,-0.11611383,-0.018109497,98.7,26.82,35.16
1554117239933,-5.668871,-8.236053,-0.7272388000000001,-0.0031957934000000003,-0.10759171,0.025566347000000003,98.88,26.64,35.1
1554117239954,-5.567716000000001,-8.242638000000001,-0.60333884,0.011717908999999999,-0.10759171,0.00958738,99.06,26.46,35.04
1554117239974,-5.500079599999999,-8.272566000000001,-0.58298814,0.035153727999999995,-0.12250541,-0.008522116,99.12,26.46,34.98
1554117239993,-5.523423,-8.177396,-0.39324763,0.099069595,-0.112918034,-0.012783173500000002,99.18,26.46,34.86
1554117240014,-5.3743844,-8.089409,-0.40761283,0.17576863,-0.11611383,-0.027696876000000002,99.18,26.46,34.8
1554117240034,-5.4091,-8.079233,-0.45250413,0.18961707,-0.10013486,-0.03195793,99.24,26.52,34.68
1554117240054,-5.418677,-7.915230800000001,-0.30705637,0.19174760000000002,-0.07669904,-0.04474111,99.24,26.52,34.62
1554117240073,-5.389348,-7.793725,-0.3681085,0.21518342,-0.068176925,-0.054328485999999995,99.12,26.52,34.56
1554117240093,-5.4126916,-7.818265400000001,-0.40521863,0.19387813,-0.007456851,-0.043675844000000005,99.0,26.52,34.5
1554117240114,-5.487509999999999,-7.747038400000001,-0.39384618,0.13635385,0.025566347000000003,-0.05752428,98.94,26.52,34.44
1554117240133,-5.539584,-7.6943655,-0.45549688,0.07456851,0.041545313,-0.084155895,98.94,26.58,34.44
1554117240153,-5.5964465,-7.7147164,-0.5746084,0.020240024,0.056459017,-0.10333065,98.94,26.58,34.38
1554117240173,-5.7059812999999995,-7.8062944000000005,-0.6775591,-0.033023197000000004,0.06178534,-0.1107875,98.88,26.58,34.32
1554117240193,-5.756858,-7.898471400000001,-0.7278373,-0.10333065,0.033023197000000004,-0.12996227,98.88,26.58,34.26
1554117240213,-5.6467247,-7.996633500000001,-0.6811504,-0.15446335,0.010652645,-0.16405073,98.88,26.58,34.2
1554117240234,-5.5617304,-8.054094000000001,-0.47165772,-0.16298546,0.010652645,-0.16937704,98.88,26.64,34.14
1554117240254,-5.570708799999999,-8.0606785,-0.35733459999999995,-0.111852765,0.0063915867,-0.16937704,98.82,26.64,34.08
1554117240273,-5.620987,-8.125919999999999,-0.3286042,0.0,-0.00958738,-0.16085494,98.82,26.7,34.08
1554117240293,-5.671265,-8.098388,-0.40102878,0.10652645,-0.011717908999999999,-0.14274544,98.76,26.82,34.02
1554117240315,-5.680842,-8.067862,-0.54527944,0.16405073,-0.029827405,-0.14061491,98.7,26.94,34.02
1554117240335,-5.594650700000001,-7.81647,-0.6218939,0.13848437,-0.002130529,-0.12570119999999999,98.64,27.12,34.02
1554117240355,-5.6509147,-7.832032000000001,-0.4429273,0.043675844000000005,-0.0010652645,-0.10652645,98.64,27.24,34.08
1554117240374,-5.6844335,-7.937975999999999,-0.53929394,-0.051132694000000006,-0.027696876000000002,-0.08948222,98.58,27.42,34.08
1554117240394,-5.6227827,-7.8888945999999995,-0.56203884,-0.13209279,-0.040480047000000005,-0.06924219,98.58,27.6,34.14
1554117240414,-5.693412,-7.8637557000000005,-0.6380547,-0.13528858,-0.041545313,-0.07456851,98.58,27.78,34.14
1554117240434,-5.641337999999999,-7.935581699999999,-0.55365914,-0.16085494,-0.039414786,-0.05539375,98.52,27.9,34.2
1554117240454,-5.571307,-7.945158500000001,-0.46746787,-0.18748654,-0.035153727999999995,-0.041545313,98.52,28.02,34.2
1554117240473,-5.592855,-8.066664,-0.47285482,-0.1949434,-0.03834952,-0.05752428,98.52,28.02,34.2
1554117240493,-5.518635,-8.212111,-0.44232875,-0.17363810000000002,-0.053263225,-0.082025364,98.52,28.08,34.2
1554117240514,-5.4384294,-8.16363,-0.39564183,-0.046871635999999994,-0.05539375,-0.13209279,98.52,28.08,34.26
1554117240535,-5.5575410000000005,-8.206126,-0.533907,0.043675844000000005,-0.056459017,-0.13848437,98.46,28.02,34.26
1554117240554,-5.4641665999999995,-8.22528,-0.5859809,0.035153727999999995,-0.06604639400000001,-0.11717909,98.46,27.96,34.32
1554117240574,-5.565322,-8.245032,-0.6913256999999999,0.0031957934000000003,-0.082025364,-0.12357068,98.46,27.9,34.32
1554117240593,-5.7442884,-8.166622,-0.6703765,-0.012783173500000002,-0.10865697,-0.11717909,98.46,27.84,34.32
1554117240613,-5.738901599999999,-8.198944000000001,-0.6488286999999999,-0.026631612000000002,-0.12996227,-0.09161274,98.46,27.78,34.38
1554117240634,-5.6407394,-8.247425999999999,-0.50757074,-0.025566347000000003,-0.14807177,-0.06391586,98.52,27.84,34.38
1554117240654,-5.6102133,-8.184579,-0.50757074,0.007456851,-0.15765914,-0.053263225,98.52,27.78,34.38
1554117240674,-5.5982423,-8.151060000000001,-0.57161564,0.051132694000000006,-0.15978967,-0.010652645,98.58,27.84,34.32
1554117240694,-5.612607499999999,-8.106767,-0.6895300999999999,0.080960095,-0.16192019,0.00958738,98.58,27.84,34.32
1554117240713,-5.513846400000001,-8.079233,-0.7015011,0.046871635999999994,-0.1470065,0.014913702,98.64,27.84,34.26
1554117240733,-5.419874,-8.063671000000001,-0.6051345,-0.02130529,-0.13315806,0.035153727999999995,98.7,27.84,34.26
1554117240753,-5.4330419999999995,-7.975684599999999,-0.4878186,-0.04580637,-0.11930962,0.039414786,98.7,27.9,34.2
1554117240775,-5.4192758,-7.937975999999999,-0.39983168,-0.046871635999999994,-0.11824436,0.05539375,98.76,27.9,34.2
1554117240794,-5.258864,-8.198345,-0.4165911,-0.083090626,-0.11504856,0.05752428,98.76,27.9,34.2
1554117240814,-5.253476999999999,-8.1720085,-0.33877954,-0.11824436,-0.10759171,0.014913702,98.76,27.9,34.2
1554117240833,-5.2439003,-8.042124000000001,-0.24480712,-0.10013486,-0.09587380000000001,-0.020240024,98.76,27.9,34.2
1554117240854,-5.258864,-8.10138,-0.25677812,-0.051132694000000006,-0.08948222,-0.035153727999999995,98.76,27.9,34.2
1554117240874,-5.2528787,-8.103176,-0.28909984,-0.010652645,-0.09161274,-0.056459017,98.82,27.9,34.14
1554117240894,-5.2917843,-8.04392,-0.38067806,0.0,-0.08628642,-0.07137272,98.88,27.9,34.14
1554117240913,-5.369596,-7.9864583,-0.45250413,-0.025566347000000003,-0.07989483,-0.09161274,98.88,27.9,34.08
1554117240935,-5.4695540000000005,-8.048708,-0.3764882,-0.09054748,-0.07030745599999999,-0.09587380000000001,99.0,27.78,34.08
1554117240954,-5.4498014,-8.185775999999999,-0.31184477,-0.10972224,-0.07030745599999999,-0.094808534,99.0,27.72,34.08
1554117240975,-5.427655000000001,-8.195352999999999,-0.31124622,-0.084155895,-0.07669904,-0.099069595,99.12,27.6,34.02
1554117240993,-5.4515970000000005,-8.251616499999999,-0.3878607,-0.06178534,-0.080960095,-0.09161274,99.18,27.54,34.02
1554117241014,-5.4647654999999995,-8.284536,-0.41240123,-0.018109497,-0.08522116,-0.07669904,99.24,27.48,34.02
1554117241034,-5.4779334,-8.206126,-0.4441244000000001,0.034088463,-0.08948222,-0.06498113,99.3,27.3,34.02
1554117241054,-5.4539914000000005,-8.213907,-0.45370123,0.02130529,-0.099069595,-0.043675844000000005,99.36,27.18,34.02
1554117241073,-5.4408236,-8.194156,-0.46627077,0.007456851,-0.10546118,-0.025566347000000003,99.42,27.12,34.08
1554117241093,-5.4240639999999996,-8.194156,-0.43155485,-0.007456851,-0.10759171,0.0010652645,99.42,27.06,34.08
1554117241114,-5.33488,-8.146272,-0.3298013,0.007456851,-0.096939065,0.023435817999999997,99.48,27.06,34.14
1554117241134,-5.324106,-8.072051,-0.30226797,0.024501082,-0.07989483,0.029827405,99.54,27.06,34.08
1554117241154,-5.325303,-8.000824,-0.30286652,0.018109497,-0.06604639400000001,0.024501082,99.6,27.06,34.02
1554117241174,-5.3324857,-8.028357000000002,-0.338181,-0.010652645,-0.06178534,0.008522116,99.66,27.06,33.96
1554117241195,-5.3390699999999995,-8.015189,-0.24241292,-0.039414786,-0.053263225,0.0010652645,99.72,27.06,33.84
1554117241215,-5.3516392999999995,-8.024766,-0.25139117,-0.026631612000000002,-0.046871635999999994,-0.00958738,99.84,27.06,33.78
1554117241235,-5.3905449999999995,-8.048708,-0.23044191,-0.0010652645,-0.040480047000000005,-0.013848438000000001,99.96,27.12,33.66
1554117241254,-5.309142,-8.021772,-0.28311434,0.013848438000000001,-0.035153727999999995,-0.022370555,100.08,27.12,33.6
1554117241274,-5.290587400000001,-7.9912467000000005,-0.2908955,0.00958738,-0.03089267,-0.026631612000000002,100.14,27.12,33.48
1554117241294,-5.367202,-7.9577279999999995,-0.39324763,0.002130529,-0.011717908999999999,-0.03195793,100.26,27.18,33.48
1554117241314,-5.430648000000001,-8.006210000000001,-0.38845924,-0.023435817999999997,-0.002130529,-0.049002163,100.32,27.18,33.48
1554117241334,-5.4360349999999995,-8.130111,-0.3357868,-0.04261058,-0.0010652645,-0.060720075,100.32,27.18,33.48
1554117241353,-5.488707499999999,-8.164826,-0.32680854,-0.049002163,0.002130529,-0.054328485999999995,100.38,27.18,33.48
1554117241373,-5.5748987,-8.122928,-0.40282443,-0.034088463,-0.0010652645,-0.037284255,100.38,27.18,33.48
1554117241394,-5.653907299999999,-8.172607000000001,-0.46866497,-0.025566347000000003,-0.020240024,-0.025566347000000003,100.38,27.18,33.48
1554117241413,-5.6150017,-8.161833999999999,-0.46267948,-0.023435817999999997,-0.04580637,-0.013848438000000001,100.38,27.24,33.48
1554117241433,-5.697003,-8.163031,-0.49619830000000004,-0.02876214,-0.05965481,-0.007456851,100.38,27.24,33.48
1554117241454,-5.7161565,-8.193557,-0.45609543,-0.026631612000000002,-0.08522116,0.004261058,100.32,27.24,33.48
1554117241473,-5.727529,-8.160637,-0.47105917,-0.022370555,-0.12676647,0.014913702,100.38,27.3,33.48
1554117241494,-5.883152,-8.106767,-0.46986207,0.0031957934000000003,-0.17896444,0.02876214,100.38,27.36,33.48
1554117241514,-5.9531827,-8.084022000000001,-0.41120413,0.039414786,-0.23009712,0.034088463,100.44,27.42,33.48
1554117241534,-5.999271,-7.991845,-0.39803603,0.08628642,-0.27057716,0.036218993,100.44,27.42,33.54
1554117241554,-6.1064115,-8.010401,-0.40162733,0.1107875,-0.3291667,0.039414786,100.44,27.48,33.54
1554117241576,-6.0423665,-7.9876556,-0.30526072,0.094808534,-0.40373522,0.05965481,100.44,27.48,33.54
1554117241594,-5.943606,-8.029554,-0.23822308,0.07350325,-0.46339005,0.06604639400000001,100.44,27.48,33.48
1554117241614,-5.847239,-8.010999,-0.12030864,0.039414786,-0.5123922000000001,0.07137272,100.5,27.48,33.36
1554117241633,-5.853823,-8.01878,-0.077811554,0.029827405,-0.531567,0.07989483,100.5,27.48,33.12
1554117241653,-5.7634419999999995,-8.033744,0.05805939,0.033023197000000004,-0.54648066,0.07563378,100.62,27.42,32.94
1554117241673,-5.7017913,-7.924208999999999,0.23642741,0.041545313,-0.535828,0.07882957,100.74,27.36,32.7
1554117241695,-5.7263317,-7.874529400000001,0.19931729,0.060720075,-0.52411014,0.10226539,100.92,27.3,32.46
1554117241715,-5.722142,-7.8589673,0.22685061,0.027696876000000002,-0.5113269,0.12463594,101.16,27.3,32.28
1554117241734,-5.756858,-7.8972745,0.29867667,0.004261058,-0.51452273,0.11717909,101.4,27.24,32.04
1554117241754,-5.6999955,-7.935581699999999,0.39983168,-0.0053263223,-0.49854377,0.11717909,101.64,27.3,31.86
1554117241774,-5.61979,-7.940968499999999,0.46746787,-0.0010652645,-0.46658584,0.12463594,101.94,27.24,31.68
1554117241794,-5.518635,-7.9708962,0.45549688,-0.002130529,-0.43462790000000007,0.13528858,102.18,27.24,31.56
1554117241814,-5.4527946,-7.9385743,0.48063599999999995,0.011717908999999999,-0.40053943,0.14274544,102.48,27.24,31.44
1554117241833,-5.3983264,-7.858368400000001,0.40162733,0.017044231,-0.36751625,0.15659387,102.72,27.18,31.26
1554117241853,-5.153519,-7.751228,0.45968673,-0.03089267,-0.34940675,0.16937704,103.02,27.18,31.02
1554117241874,-5.079299,-7.5698669999999995,0.57520694,-0.09054748,-0.30253512,0.16192019,103.32,27.18,30.72
1554117241893,-5.101445,-7.4758949999999995,0.5614403,-0.15659387,-0.2428803,0.15765914,103.68,27.12,30.42
1554117241913,-5.039196,-7.387908,0.6344634,-0.20453078,-0.16724652,0.15233281,103.98,27.06,30.18
1554117241936,-5.0374002,-7.343615,0.65421563,-0.18109496,-0.051132694000000006,0.12250541,104.46,26.88,29.88
1554117241954,-5.1122193,-7.276577499999999,0.6607997,-0.15339808,0.041545313,0.09267801,104.64,26.82,29.76
1554117241974,-5.2504845,-7.2209125,0.7386111999999999,-0.17044231,0.12570119999999999,0.039414786,104.88,26.7,29.64
1554117241993,-5.4521956,-7.2370734,0.6380547,-0.24607609,0.17257284,-0.02130529,105.0,26.58,29.52
1554117242013,-5.607819,-7.330447,0.64583594,-0.33555830000000003,0.19920446,-0.06711166,105.12,26.46,29.52
1554117242035,-5.730521700000001,-7.5213847000000005,0.65421563,-0.39734364,0.21624869,-0.11824436,105.18,26.28,29.52
1554117242055,-5.8825536,-7.776367,0.7044938000000001,-0.4133226,0.21092236,-0.17363810000000002,105.18,26.16,29.58
1554117242075,-6.067506,-7.985860000000001,0.6206968,-0.39734364,0.1949434,-0.21518342,105.24,26.04,29.76
1554117242094,-6.30932,-8.082825,0.6362591,-0.35260254,0.17150758,-0.23968449999999997,105.18,25.98,29.94
1554117242114,-6.5301849999999995,-8.127118,0.6853402,-0.28442562,0.13528858,-0.24714136,105.12,25.86,30.12
1554117242134,-6.613384,-8.007407,0.6362591,-0.20985709,0.096939065,-0.24927188,105.06,25.74,30.3
1554117242154,-6.684611299999999,-7.902063,0.7457938000000001,-0.15233281,0.06604639400000001,-0.26525086,104.94,25.62,30.48
1554117242174,-6.602609599999999,-7.7332716,0.65301853,-0.099069595,0.03089267,-0.32384038,104.88,25.5,30.66
1554117242193,-6.4787097000000005,-7.7907324000000004,0.26515785,-0.082025364,0.015978966,-0.33449304,104.76,25.38,30.78
1554117242214,-6.333860400000001,-8.152257,0.0664391,-0.07350325,0.002130529,-0.29294774,104.64,25.26,30.9
1554117242234,-6.3464303,-8.231864,0.15502456,-0.026631612000000002,-0.0053263223,-0.28975195,104.58,25.14,30.96
1554117242253,-6.1345434,-8.536526,-0.038307227,0.06711166,-0.037284255,-0.24927188,104.46,25.08,30.96
1554117242273,-5.787383999999999,-8.868722,-0.17597382,0.15978967,-0.043675844000000005,-0.16831179,104.4,25.02,31.02
1554117242294,-5.5539494000000005,-9.078813,-0.4441244000000001,0.22903186,-0.07563378,-0.09267801,104.4,24.96,31.02
1554117242313,-5.513248,-8.978256,-0.4357447,0.28549087,-0.096939065,-0.007456851,104.28,24.96,31.08
1554117242333,-5.5042696,-8.895058,-0.49739540000000004,0.35579833,-0.12463594,0.08628642,104.1,24.96,31.14
1554117242354,-5.334281400000001,-8.845977,-0.29209262,0.39947417,-0.14168017,0.18535602,103.98,24.96,31.14
1554117242374,-5.3247046,-8.636484,-0.19512744,0.43356264,-0.16085494,0.25672874,103.92,25.08,31.2
1554117242394,-5.3444567,-8.500014,0.014963761,0.45167214,-0.17044231,0.32490566,103.8,25.2,31.14
1554117242414,-5.4515970000000005,-8.29531,0.14664486,0.49215218,-0.18216023,0.34088463,103.74,25.26,31.14
1554117242434,-5.482123400000001,-8.009802,0.28431144,0.5305017,-0.2066613,0.33449304,103.68,25.32,31.08
1554117242454,-5.546766799999999,-7.8290396,0.4357447,0.50813115,-0.221575,0.34301516,103.68,25.38,30.96
1554117242473,-5.5988407,-7.785944000000001,0.5686229,0.49002165,-0.23435818,0.32384038,103.8,25.44,30.78
1554117242493,-5.6748567,-7.7733746,0.6344634,0.49002165,-0.2428803,0.3206446,104.04,25.5,30.6
1554117242513,-5.7616463,-7.7931266,0.6841431,0.515588,-0.23648871,0.3323625,104.28,25.56,30.3
1554117242534,-5.9567738,-7.898471400000001,0.694917,0.5251754,-0.24394555,0.34301516,104.52,25.56,30.0
1554117242554,-6.1088057000000004,-8.0367365,0.9487024,0.5305017,-0.27483824,0.37923414,104.76,25.56,29.76
1554117242574,-6.1938,-8.268375,1.0911574,0.59867865,-0.30360037,0.45699844,105.06,25.56,29.52
1554117242594,-6.349423000000001,-8.318055000000001,1.2617443000000002,0.6945524000000001,-0.31318775,0.5656554,105.36,25.62,29.16
1554117242614,-6.5738792,-8.347384,1.4975731,0.7797736,-0.33662358,0.6764429,105.66,25.68,28.8
1554117242634,-6.6600703999999995,-8.425196000000001,1.6388310000000001,0.8404937,-0.35792887,0.8042746999999999,105.9,25.8,28.38
1554117242653,-6.837839999999999,-8.217499,1.9033904,0.9821738000000001,-0.36112466,0.92784536,106.08,25.86,27.84
1554117242673,-6.9886745999999995,-8.034343,1.9829974999999997,1.1419635000000001,-0.37071204,1.0492854999999999,106.2,25.98,27.36
1554117242693,-6.973711,-7.5495167,2.2493525,1.2314457,-0.37923414,1.1377025,106.38,26.04,26.94
1554117242714,-6.9862804,-6.8665705,2.5462333999999998,1.2964269,-0.38456047,1.1920309,106.56,26.1,26.4
1554117242734,-6.9503675000000005,-6.1770406,2.7844564999999997,1.3837786,-0.38136467,1.216532,106.8,26.1,25.86
1554117242753,-6.867767999999999,-5.4515970000000005,2.995745,1.4231933,-0.37603834,1.2367721,107.1,26.04,25.26
1554117242773,-6.887519999999999,-5.043386,3.0657754,1.3901701000000002,-0.36218992,1.2293152,107.52,25.98,24.48
1554117242794,-6.7893577,-4.373009,3.0148985,1.2197278,-0.35792887,1.139833,108.24,25.68,23.34
1554117242814,-6.6391215,-3.8732197,3.2231941,1.0354371,-0.33662358,1.0130665,108.78,25.38,22.5
1554117242833,-6.671442999999999,-3.5703532999999994,3.4063504,0.9257148000000001,-0.30892670000000005,0.9076053,109.14,25.26,22.14
1554117242853,-6.807314,-3.1088709999999997,3.357868,0.7616641,-0.28442562,0.753142,110.16,24.6,20.94
1554117242873,-6.787561999999999,-2.9885623,3.2776620000000003,0.5411543000000001,-0.23648871,0.66579026,110.82,24.18,20.22
1554117242894,-6.924031299999999,-3.0244752999999998,3.6200330000000003,0.24181503,-0.2034655,0.5400891,111.48,23.82,19.62
1554117242914,-6.941988,-3.1136593999999995,3.7972038,-0.002130529,-0.20559604,0.39947417,111.96,23.46,19.02
1554117242934,-6.826467500000001,-3.2549171,3.9414546,-0.05965481,-0.17470337,0.2545982,112.44,23.16,18.6
1554117242953,-6.7301009999999994,-3.196858,4.441244,0.11504856,-0.082025364,0.043675844000000005,112.86,22.86,18.3
1554117242973,-7.3843164,-2.9951463,4.0737343,0.43888897,-0.0010652645,-0.13102753,113.22,22.38,18.18
1554117242993,-7.4986396,-3.3099839999999996,3.6667199999999998,0.39414784,0.024501082,-0.07137272,113.46,22.02,18.0
1554117243014,-7.341221000000001,-4.035426999999999,3.7152026,0.1949434,0.05219796,-0.05539375,113.64,21.78,17.82
1554117243034,-7.610568499999999,-4.0198646,3.685275,0.056459017,0.06285059999999999,-0.19387813,113.76,21.6,17.64
1554117243054,-8.057087,-3.8145617999999994,3.6212301,-0.10865697,0.04261058,-0.22050974,113.88,21.36,17.52
1554117243074,-8.108562,-4.1760864,3.6792896,-0.22477080000000002,0.020240024,-0.11824436,113.88,21.18,17.46
1554117243094,-8.08881,-4.5842977,3.9665937000000007,-0.21411815,0.020240024,-0.04580637,113.94,21.0,17.4
1554117243114,-8.222886,-4.6662992999999995,4.26946,-0.15765914,-0.023435817999999997,0.014913702,113.94,20.88,17.46
1554117243133,-8.187572,-4.635773,4.401739599999999,-0.07776430000000001,-0.08841695,0.09054748,113.94,20.88,17.4
1554117243153,-8.0367365,-4.6004586,4.4286747,0.07669904,-0.13848437,0.13209279,113.94,21.0,17.4
1554117243174,-7.838017999999999,-4.331111,4.449025,0.30892670000000005,-0.17789917,0.13954964,113.94,21.06,17.46
1554117243194,-7.7332716,-4.0725370000000005,4.5316253,0.41758367,-0.20453078,0.128897,113.94,21.06,17.46
1554117243214,-7.690175999999999,-3.8708254999999996,4.4645877,0.44954160000000004,-0.21837921,0.12250541,113.94,21.06,17.46
1554117243234,-7.644686,-3.7140055,4.3526587,0.43995422,-0.21198763,0.10759171,114.0,21.06,17.4
1554117243254,-7.612962700000001,-3.5631707,4.3299136,0.40266997,-0.20453078,0.101200126,114.06,21.06,17.34
1554117243274,-7.6518690000000005,-3.4721910000000005,4.395156,0.2609898,-0.18216023,0.06924219,114.12,21.06,17.16
1554117243293,-7.659051400000001,-3.5996822999999996,4.446631,0.14807177,-0.15765914,0.07030745599999999,114.18,21.06,16.98
1554117243313,-7.6889787,-3.7541082,4.5920787,0.09054748,-0.11824436,0.06711166,114.18,21.0,16.8
1554117243334,-7.735666,-3.7840357000000004,4.8099513,0.08841695,-0.08735169,0.043675844000000005,114.24,21.0,16.56
1554117243354,-7.7440453,-3.7481226999999997,4.8775873,0.15552860000000002,-0.099069595,0.040480047000000005,114.24,20.94,16.26
1554117243374,-7.620145299999999,-3.7343562000000006,4.7925935,0.29933932,-0.09587380000000001,0.068176925,114.3,20.88,16.02
1554117243394,-7.5273699999999995,-3.6367924,4.6208089999999995,0.41758367,-0.07456851,0.07137272,114.3,20.82,15.72
1554117243414,-7.5267715,-3.4272997000000003,4.4328647000000005,0.46765109999999993,-0.058589544,0.05219796,114.36,20.76,15.48
1554117243434,-7.49445,-3.3608606,4.403535400000001,0.4165184,-0.036218993,0.06178534,114.42,20.76,15.36
1554117243454,-7.49026,-3.205836,4.499303299999999,0.32597092,-0.024501082,0.060720075,114.54,20.7,15.18
1554117243474,-7.584830800000001,-3.1190462,4.481347,0.24927188,-0.022370555,0.05219796,114.6,20.64,15.0
1554117243493,-7.593808999999999,-3.0304607999999997,4.638766,0.21092236,-0.035153727999999995,0.049002163,114.72,20.64,14.88
1554117243514,-7.560290299999999,-3.027468,4.670489,0.20879184,-0.029827405,0.036218993,114.78,20.7,14.82
1554117243534,-7.599794999999999,-3.145981,4.583699,0.1949434,-0.03834952,0.036218993,114.84,20.7,14.82
1554117243554,-7.650073,-3.1202433,4.583699,0.17576863,-0.01917476,0.034088463,114.9,20.76,14.76
1554117243574,-7.685986,-2.956839,4.7494974,0.13422333,-0.012783173500000002,0.011717908999999999,114.96,20.76,14.76
1554117243594,-7.599794999999999,-2.89459,4.8243165,0.1587244,-0.002130529,0.004261058,114.96,20.82,14.7
1554117243613,-7.4806833,-2.7126305,4.9428296,0.18748654,0.026631612000000002,-0.011717908999999999,114.96,20.82,14.7
1554117243634,-7.612364299999999,-2.8682537,4.6285906,0.13422333,0.049002163,-0.017044231,114.96,20.88,14.64
1554117243654,-7.703344,-3.027468,4.670489,0.020240024,0.010652645,-0.014913702,114.96,20.88,14.58
1554117243673,-7.644087299999999,-3.0777464,4.71119,-0.05219796,-0.036218993,-0.011717908999999999,115.02,20.88,14.52
1554117243694,-7.6614455999999995,-3.0561984,4.566341400000001,-0.051132694000000006,-0.08735169,-0.013848438000000001,115.08,20.88,14.52
1554117243713,-7.4345946,-3.0532057,4.2778397,-0.024501082,-0.10226539,-0.034088463,115.14,20.88,14.46
1554117243733,-7.5884222999999995,-2.7455509,4.471172,-0.011717908999999999,-0.07456851,-0.10865697,115.2,20.88,14.4
1554117243754,-7.7907324000000004,-2.6479871,4.4957123,-0.08628642,-0.09587380000000001,-0.098004326,115.26,20.88,14.34
1554117243774,-7.654263,-2.7162217999999996,4.3568487000000005,-0.22583607,-0.12357068,-0.068176925,115.32,20.88,14.34
1554117243794,-7.606379,-2.8119897999999997,4.387374400000001,-0.42397526,-0.13209279,-0.10333065,115.32,20.88,14.22
1554117243814,-7.614160000000001,-2.891597,4.610035400000001,-0.6146576,-0.10333065,-0.1470065,115.38,20.88,14.04
1554117243833,-7.567473,-2.9730000000000003,5.29358,-0.6444850000000001,-0.07243799,-0.17150758,115.32,20.88,13.92
1554117243853,-7.4968443,-3.5571851999999997,5.015254,-0.5571333,-0.06604639400000001,-0.12037488,115.26,20.82,13.8
1554117243874,-6.4266357,-3.6128504,5.802946599999999,-0.38029942,-0.007456851,-0.17044231,115.2,20.82,13.68
1554117243893,-6.676830000000001,-3.3530796,5.662287,0.07030745599999999,0.13954964,-0.4644553,115.14,20.76,13.62
1554117243914,-7.629123700000001,-2.6527755,4.694431,0.42717105,0.07243799,-0.62104917,115.08,20.7,13.62
1554117243934,-7.3609734,-3.4494462,3.933075,0.19387813,0.06498113,-0.4165184,115.02,20.64,13.62
1554117243954,-7.1466923,-3.7373488,3.9211037,-0.18109496,0.053263225,-0.4878911,115.02,20.64,13.74
1554117243974,-7.299921,-3.615843,4.284424,-0.6487460999999999,0.058589544,-0.5954828000000001,115.02,20.76,13.92
1554117243994,-7.372944400000001,-3.6314054,4.6692919999999996,-1.0492854999999999,0.06285059999999999,-0.5539375,114.96,20.94,14.04
1554117244014,-7.168239999999999,-3.9803602999999996,4.771644,-1.3379722,0.06178534,-0.49002165,114.9,21.12,14.16
1554117244034,-6.968324000000001,-4.431069,4.821324,-1.3337111000000001,0.09267801,-0.50173956,114.84,21.3,14.28
1554117244054,-6.879739,-4.590283400000001,4.96737,-1.0578076,0.15020229,-0.56885123,114.72,21.6,14.46
1554117244074,-6.922235499999999,-4.498705,4.9069166,-0.6583334,0.21944448,-0.6540724,114.54,21.9,14.82
1554117244094,-6.848015299999999,-4.4125137,4.654328,-0.29614353,0.28229508,-0.7233145999999999,114.36,22.32,15.18
1554117244113,-6.977302000000001,-4.4328647000000005,4.261679,-0.046871635999999994,0.31638354,-0.773382,114.18,22.74,15.54
1554117244133,-7.049727000000001,-4.631583,3.8235402,0.0,0.3174488,-0.7978831000000001,113.94,23.16,15.9
1554117244153,-7.0688806,-4.800973,3.4853592000000004,-0.15446335,0.28868666,-0.81918836,113.76,23.52,16.32
1554117244173,-7.019201,-4.9344497,3.1998506,-0.3568636,0.23648871,-0.8277104999999999,113.58,23.94,16.74
1554117244194,-7.0006455999999995,-5.237316000000001,3.0101101000000003,-0.6412892,0.17896444,-0.8000136,113.28,24.42,17.1
1554117244214,-6.8743514999999995,-5.6664767,3.0579941,-0.87032104,0.13315806,-0.75633776,112.92,24.84,17.4
1554117244234,-6.781575999999999,-6.1507044,3.132813,-0.98430437,0.10226539,-0.72011876,112.5,25.32,17.52
1554117244254,-6.6893997,-6.5086374000000005,3.1777040000000003,-1.0056095999999999,0.082025364,-0.6562029,112.2,25.68,17.7
1554117244274,-6.4709287,-6.846818400000001,3.1860838,-0.95234644,0.07989483,-0.59228706,111.84,25.98,17.94
1554117244293,-6.3883285999999995,-7.0305734,3.1064768,-0.8149273,0.08628642,-0.5475459,111.48,26.28,18.24
1554117244313,-6.3643866,-7.1454949999999995,3.0053217,-0.64341974,0.099069595,-0.49428272,111.12,26.52,18.66
1554117244334,-6.2249246,-7.148487599999999,2.8748376,-0.46232477,0.111852765,-0.43782368,110.82,26.7,19.14
1554117244354,-6.1770406,-7.168239999999999,2.7138276,-0.33555830000000003,0.12570119999999999,-0.38456047,110.52,26.94,19.62
1554117244374,-6.183624299999999,-7.035361999999999,2.7030537,-0.26525086,0.12357068,-0.35153726,110.28,27.12,20.1
1554117244394,-6.0770826,-6.8545995,2.5959132,-0.24394555,0.10652645,-0.31957933,110.1,27.24,20.58
1554117244414,-5.9561753,-6.7151369999999995,2.5007436000000003,-0.3057309,0.099069595,-0.2908172,109.86,27.36,21.0
1554117244434,-6.0291986,-6.658275,2.469619,-0.4133226,0.101200126,-0.28868666,109.62,27.48,21.3
1554117244454,-6.0046577,-6.783970399999999,2.5743654,-0.49428272,0.082025364,-0.30360037,109.38,27.54,21.54
1554117244473,-5.949591000000001,-6.931812299999999,2.5468319999999998,-0.50387007,0.09374327,-0.31318775,109.02,27.66,21.84
1554117244493,-5.9364233,-7.085041499999999,2.5408466,-0.4825648,0.10972224,-0.32490566,108.84,27.66,22.08
1554117244513,-5.861006,-7.2514386,2.4468741,-0.46232477,0.11717909,-0.33449304,108.72,27.66,22.38
1554117244533,-5.7867856,-7.3657618000000005,2.5252842999999996,-0.4261058,0.12570119999999999,-0.33875409999999995,108.72,27.66,22.5
1554117244554,-5.8059389999999995,-7.4268136,2.5306710999999997,-0.350472,0.14594123,-0.3749731,108.42,27.72,22.92
1554117244574,-5.934029,-7.5046253,2.4007857000000006,-0.3536678,0.16724652,-0.39521313,108.3,27.72,23.16
1554117244594,-5.997475,-7.443573,2.2649147999999997,-0.38136467,0.20133498,-0.4079963,108.18,27.72,23.4
1554117244613,-6.019622,-7.451953,1.9931729,-0.40373522,0.23755397,-0.39308259999999995,108.06,27.78,23.76
1554117244633,-5.988497,-7.559692,1.8519150000000002,-0.4101268,0.27483824,-0.37284255,107.94,27.78,24.06
1554117244654,-6.0746884,-7.7093296,1.7782933999999997,-0.4079963,0.29614353,-0.38242993,107.82,27.78,24.36
1554117244674,-6.343437000000001,-7.781753999999999,1.8674773,-0.406931,0.2972088,-0.38775626,107.58,27.78,24.54
1554117244694,-6.3709707,-7.849989,1.7393875,-0.36432046,0.27164245,-0.38029942,107.4,27.78,24.78
1554117244713,-6.2584434,-7.961917999999999,1.5753847,-0.28975195,0.257794,-0.35899413,107.22,27.78,25.14
1554117244733,-6.220136,-8.101977999999999,1.5059528,-0.19707392,0.2695119,-0.36218992,107.04,27.78,25.44
1554117244754,-6.3721676,-8.081628,1.2970588,-0.13102753,0.27803403,-0.35899413,106.86,27.78,25.8
1554117244773,-6.558915600000001,-8.062474,1.1887212,-0.11824436,0.26312032,-0.34194988,106.62,27.84,26.04
1554117244794,-6.4260373,-8.13849,1.1360487,-0.11504856,0.2034655,-0.30466563,106.44,27.84,26.22
1554117244814,-6.2823853,-8.174403,1.127669,-0.07776430000000001,0.16618125,-0.24607609,106.2,27.9,26.34
1554117244833,-6.099229,-8.177396,1.1282675,-0.020240024,0.11824436,-0.20026971,105.96,27.96,26.52
1554117244853,-5.8909335,-8.045714,1.0259154000000001,0.026631612000000002,0.09587380000000001,-0.15659387,105.66,28.08,26.64
1554117244874,-5.9346275,-7.9092455,0.95827925,0.041545313,0.07350325,-0.11717909,105.42,28.2,26.76
1554117244894,-6.0285997,-7.776367,0.96187055,0.06604639400000001,0.043675844000000005,-0.10226539,105.18,28.32,26.82
1554117244915,-6.0740894999999995,-7.730877400000001,0.8960299999999999,0.07456851,-0.0053263223,-0.082025364,104.94,28.44,26.94
1554117244934,-5.960963700000001,-7.6285253,0.87328506,0.05752428,-0.05965481,-0.058589544,104.76,28.56,27.06
1554117244953,-5.8891377,-7.5722613,0.8882488000000002,0.023435817999999997,-0.112918034,-0.053263225,104.58,28.62,27.18
1554117244973,-5.8412538,-7.516596300000001,1.027711,-0.018109497,-0.16405073,-0.058589544,104.46,28.74,27.3
1554117244994,-5.7843914000000005,-7.4699089999999995,0.9708488000000001,-0.051132694000000006,-0.2130529,-0.07137272,104.52,28.8,27.42
1554117245015,-5.7065797,-7.4310035999999995,1.0133458,-0.07776430000000001,-0.24074976,-0.094808534,104.52,28.8,27.54
1554117245034,-5.583876999999999,-7.414244,1.1025299,-0.1107875,-0.26738137,-0.12037488,104.58,28.8,27.6
1554117245053,-5.459976999999999,-7.3609734,1.0875661,-0.15126756,-0.27164245,-0.14594123,104.58,28.8,27.6
1554117245073,-5.394735,-7.4483614000000005,1.1390414,-0.19813919,-0.26525086,-0.16618125,104.58,28.8,27.6
1554117245094,-5.309142,-7.53575,1.1953052,-0.23542345,-0.25033715,-0.17363810000000002,104.52,28.86,27.54
1554117245114,-5.2660465,-7.668029300000001,1.1611878,-0.257794,-0.23222765,-0.17257284,104.52,28.86,27.54
1554117245133,-5.221155,-7.772177,1.1755531000000001,-0.29507825,-0.20453078,-0.16298546,104.52,28.92,27.48
1554117245153,-5.189432,-7.876325,1.1971009,-0.3153183,-0.17470337,-0.1587244,104.52,28.98,27.48
1554117245173,-5.1343656,-7.994239299999999,1.2372037,-0.31851408,-0.1470065,-0.15020229,104.46,29.1,27.42
1554117245193,-5.118204599999999,-8.066066000000001,1.2042834999999998,-0.31105720000000003,-0.12676647,-0.1438107,104.46,29.22,27.42
1554117245214,-5.1038394,-8.131308,1.204882,-0.314253,-0.10865697,-0.12676647,104.46,29.28,27.42
1554117245234,-5.104438,-8.243236999999999,1.1809399999999999,-0.30040458,-0.07669904,-0.11611383,104.46,29.34,27.36
1554117245254,-5.129576999999999,-8.310274,1.2270284,-0.27696875,-0.05006743,-0.12676647,104.46,29.4,27.36
1554117245273,-5.2026005,-8.356961,1.1815386,-0.24181503,-0.037284255,-0.12783173,104.46,29.4,27.36
1554117245293,-5.1702785,-8.385692,1.1270704,-0.20559604,-0.026631612000000002,-0.10013486,104.46,29.4,27.36
1554117245314,-5.1152120000000005,-8.440758,0.91458505,-0.19174760000000002,-0.014913702,-0.06924219,104.52,29.28,27.36
1554117245336,-5.0864816,-8.413225,0.97982705,-0.20453078,0.010652645,-0.06285059999999999,104.58,29.16,27.42
1554117245353,-5.160103299999999,-8.549694,1.002572,-0.19174760000000002,0.002130529,-0.041545313,104.64,28.92,27.42
1554117245374,-5.0798974,-8.503007,0.97384155,-0.1438107,0.022370555,-0.01917476,104.7,28.8,27.48
1554117245393,-5.085883,-8.455123,0.99898064,-0.10759171,0.043675844000000005,-0.010652645,104.82,28.62,27.48
1554117245414,-5.0918684,-8.324639,1.0013748,-0.09587380000000001,0.060720075,0.007456851,104.82,28.5,27.48
1554117245434,-5.0613421999999995,-8.228871,0.9816226999999998,-0.09374327,0.10759171,0.02130529,104.88,28.38,27.54
1554117245454,-5.1146135,-8.240244,0.8900445,-0.17576863,0.15126756,-0.047936900000000005,104.94,28.2,27.72
1554117245474,-5.130175599999999,-8.210316,0.8738836,-0.23222765,0.16298546,-0.12570119999999999,104.94,28.08,27.9
1554117245494,-5.1056349999999995,-8.219892999999999,0.7799111999999999,-0.19281286,0.18216023,-0.15765914,104.94,28.02,28.02
1554117245514,-5.094861,-8.193557,0.6374562,-0.099069595,0.20559604,-0.17257284,104.88,27.96,28.2
1554117245534,-5.133767,-8.126519,0.49320555,-0.047936900000000005,0.22050974,-0.18002969,104.82,27.96,28.38
1554117245554,-5.1409497,-8.111555000000001,0.4285621,-0.025566347000000003,0.22477080000000002,-0.18429075,104.7,27.96,28.5
1554117245573,-5.143344,-8.089409,0.28790274,-0.018109497,0.2609898,-0.17576863,104.58,27.96,28.68
1554117245594,-5.143344,-8.143278,0.24420857,-0.053263225,0.28549087,-0.18961707,104.46,27.96,28.86
1554117245614,-5.088876,-8.070255,0.14724341,-0.08522116,0.30466563,-0.21731395,104.28,27.96,28.92
1554117245633,-5.0984526,-8.098388,0.1448492,-0.128897,0.33662358,-0.22050974,104.16,27.96,28.98
1554117245655,-5.01286,-8.132503999999999,0.08259996,-0.18322548,0.36112466,-0.23329292,104.04,27.96,29.1
1554117245674,-4.9625816,-8.174403,0.08439561,-0.21944448,0.38562572,-0.24501082,103.92,27.96,29.28
1554117245694,-4.960187400000001,-8.3150625,0.12569559,-0.19707392,0.40906155,-0.23222765,103.8,27.9,29.4
1554117245714,-4.926069999999999,-8.319851,0.13168110000000002,-0.12463594,0.4165184,-0.21624869,103.62,27.9,29.58
1554117245735,-4.920683,-8.321048,-0.06823475,-0.084155895,0.39840892,-0.18961707,103.44,27.9,29.76
1554117245754,-4.9512089999999995,-8.426991000000001,-0.110731825,-0.10546118,0.39734364,-0.18961707,103.2,27.9,29.88
1554117245774,-5.026028,-8.583812,-0.076015905,-0.14807177,0.38562572,-0.21944448,102.9,27.84,30.06
1554117245793,-4.9996915,-8.625112,-0.10055647,-0.16085494,0.35899413,-0.25672874,102.6,27.84,30.3
1554117245813,-5.033809,-8.737040499999999,-0.12629414,-0.1107875,0.36751625,-0.22050974,102.18,27.84,30.54
1554117245834,-4.8698063,-8.702923,-0.17836803,-0.047936900000000005,0.3653857,-0.19387813,101.76,27.84,30.78
1554117245854,-4.8979383,-8.642469,-0.23762453,0.002130529,0.3717773,-0.17896444,101.34,27.78,30.96
1554117245873,-4.9344497,-8.5473,-0.40402153,0.035153727999999995,0.35260254,-0.16831179,100.98,27.72,31.2
1554117245893,-4.8853683,-8.458714500000001,-0.44113165,0.07350325,0.32810146,-0.14807177,100.62,27.72,31.44
1554117245914,-4.8392800000000005,-8.462306,-0.53809685,0.10439592,0.31318775,-0.113983296,100.32,27.66,31.74
1554117245933,-4.8901567,-8.529344,-0.6242880999999999,0.09161274,0.314253,-0.096939065,100.08,27.66,31.92
1554117245955,-4.9548005999999996,-8.5383215,-0.85054016,0.043675844000000005,0.29827404,-0.08841695,99.78,27.6,32.04
1554117245974,-4.9045224,-8.513782,-0.91817635,-0.041545313,0.27696875,-0.054328485999999995,99.54,27.6,32.1
1554117245994,-4.953005,-8.602366,-0.86370826,-0.10546118,0.25672874,-0.027696876000000002,99.36,27.54,32.22
1554117246014,-4.9278655,-8.689157000000002,-0.7661445,-0.14487597,0.21092236,0.0031957934000000003,99.12,27.6,32.28
1554117246034,-4.791396,-8.813655,-0.6907272,-0.13635385,0.17257284,0.04580637,98.94,27.6,32.4
1554117246054,-4.711789,-8.822633,-0.6362591,-0.07776430000000001,0.16085494,0.07776430000000001,98.76,27.6,32.52
1554117246074,-4.753089,-8.913014,-0.62249243,-0.02876214,0.16298546,0.09374327,98.58,27.54,32.7
1554117246094,-4.7040076,-8.902241,-0.61052144,0.014913702,0.16298546,0.10226539,98.4,27.48,32.88
1554117246114,-4.706402,-8.989628999999999,-0.59017074,0.054328485999999995,0.1768339,0.111852765,98.34,27.42,33.06
1554117246133,-4.656722,-8.852561,-0.6063316,0.09054748,0.17363810000000002,0.10013486,98.28,27.36,33.24
1554117246153,-4.6471453,-8.859743,-0.5578489999999999,0.08948222,0.17363810000000002,0.096939065,98.28,27.3,33.42
1554117246173,-4.5920787,-8.849568,-0.50038815,0.07350325,0.14061491,0.07882957,98.28,27.3,33.66
1554117246194,-4.5459905,-8.76637,-0.39085343,0.094808534,0.11717909,0.07350325,98.28,27.3,33.78
1554117246214,-4.5196543,-8.814852,-0.3393781,0.17363810000000002,0.09054748,0.06604639400000001,98.28,27.3,33.84
1554117246234,-4.439448400000001,-8.707113,-0.33279404,0.29827404,0.058589544,0.07350325,98.34,27.36,33.84
1554117246254,-4.346673,-8.661025,-0.30466217,0.43249738,0.040480047000000005,0.10013486,98.34,27.42,33.9
1554117246274,-4.4580035,-8.5538845,-0.38307226,0.5368933000000001,0.060720075,0.09267801,98.28,27.48,33.9
1554117246294,-4.586692,-8.404246,-0.3645172,0.5294364,0.05965481,0.043675844000000005,98.28,27.54,33.9
1554117246313,-4.630985,-8.321647,-0.415394,0.46658584,0.080960095,-0.023435817999999997,98.16,27.66,33.84
1554117246334,-4.6806645,-8.336611,-0.26815059999999996,0.44634579999999996,0.112918034,-0.056459017,98.1,27.72,33.72
1554117246354,-4.759673,-8.276755,-0.31064767,0.4016047,0.12783173,-0.1107875,98.04,27.84,33.6
1554117246373,-4.8901567,-8.198944000000001,-0.260968,0.30040458,0.12570119999999999,-0.14168017,98.04,28.08,33.42
1554117246394,-5.01286,-8.186973,-0.23882163,0.18748654,0.10652645,-0.1438107,97.98,28.26,33.3
1554117246414,-5.023035,-8.254609,-0.18674773,0.096939065,0.07350325,-0.14168017,97.98,28.5,33.12
1554117246434,-5.0571527000000005,-8.32045,-0.18495208,0.05539375,0.043675844000000005,-0.13848437,97.98,28.74,33.0
1554117246453,-5.0134583,-8.392275999999999,-0.28550854,0.046871635999999994,0.017044231,-0.10439592,97.92,28.98,32.82
1554117246474,-4.8099513,-8.483853,-0.3764882,0.06391586,0.007456851,-0.06924219,97.92,29.16,32.7
1554117246494,-4.7896004,-8.482656500000001,-0.38726214,0.07350325,0.007456851,-0.039414786,97.92,29.4,32.64
1554117246513,-4.7147818,-8.491635,-0.44113165,0.07882957,-0.0063915867,0.013848438000000001,97.86,29.52,32.64
1554117246533,-4.733337000000001,-8.624513,-0.4333505,0.06285059999999999,0.0031957934000000003,0.041545313,97.74,29.58,32.64
1554117246554,-4.76506,-8.616732,-0.32920274,-0.004261058,0.002130529,0.033023197000000004,97.62,29.7,32.58
1554117246573,-4.75668,-8.617929,-0.11312603,-0.068176925,-0.002130529,0.03834952,97.44,29.76,32.58
1554117246594,-4.7273510000000005,-8.625112,-0.049081136,-0.08841695,0.0063915867,0.07030745599999999,97.32,29.88,32.52
1554117246614,-4.671686,-8.64666,0.12210429,-0.082025364,0.029827405,0.08735169,97.2,29.94,32.52
1554117246634,-4.648941000000001,-8.664616,0.18495208,-0.07030745599999999,0.041545313,0.08628642,97.08,29.94,32.4
1554117246654,-4.5842977,-8.674791,0.29688102,-0.041545313,0.058589544,0.09587380000000001,97.02,30.0,32.34
1554117246673,-4.5382094,-8.605958,0.42317516,-0.0031957934000000003,0.080960095,0.11717909,96.96,30.0,32.34
1554117246694,-4.590283400000001,-8.513183,0.3609259,0.07350325,0.12463594,0.16085494,96.96,30.0,32.28
1554117246714,-4.601057,-8.607754,0.28790274,0.10865697,0.15446335,0.19387813,97.08,30.0,32.28
1554117246734,-4.68246,-8.759186999999999,0.22445641,0.08735169,0.18748654,0.21092236,97.2,30.0,32.28
1554117246754,-4.7405194999999996,-8.760384,0.23163901,0.05752428,0.22050974,0.17896444,97.32,30.0,32.28
1554117246773,-4.755483,-8.744822000000001,0.20470424,0.07456851,0.23755397,0.12996227,97.38,29.88,32.34
1554117246794,-4.75668,-8.739435,0.16879122,0.15126756,0.26312032,0.101200126,97.5,29.76,32.4
1554117246814,-4.7375264,-8.638878,0.20231004,0.2428803,0.2790993,0.06604639400000001,97.56,29.58,32.4
1554117246834,-4.759074,-8.478467,0.1388637,0.3334278,0.28975195,0.036218993,97.62,29.46,32.46
1554117246854,-4.8021703,-8.350377,0.090979666,0.39201729999999996,0.30360037,0.020240024,97.62,29.34,32.52
1554117246875,-4.8201265,-8.255806,-0.049679685,0.4079963,0.3206446,-0.007456851,97.62,29.28,32.58
1554117246893,-4.8704047,-8.214506,-0.16280572,0.39840892,0.33768883,-0.036218993,97.56,29.22,32.58
1554117246913,-4.9135003,-8.136096,-0.11552023,0.3749731,0.36005938,-0.04261058,97.56,29.34,32.64
1554117246933,-4.943428,-8.113351,-0.130484,0.34834146,0.37710363,-0.04580637,97.56,29.52,32.64
1554117246954,-5.029619,-8.053496,-0.20709845,0.3057309,0.38775626,-0.053263225,97.5,29.7,32.7
1554117246973,-5.112818,-8.026561000000001,-0.20889410000000003,0.257794,0.38882150000000004,-0.056459017,97.44,29.88,32.7
1554117246993,-5.207389,-8.037335,-0.22026655,0.22690132,0.38242993,-0.06391586,97.32,30.12,32.7
1554117247014,-5.283405,-8.025364,-0.23882163,0.20453078,0.36964676,-0.07137272,97.2,30.3,32.7
1554117247034,-5.3157263,-7.992444,-0.18794483,0.17470337,0.33875409999999995,-0.08735169,97.02,30.54,32.7
1554117247053,-5.3701944,-8.004415,-0.21068975,0.14913702,0.30040458,-0.09267801,96.84,30.78,32.7
1554117247074,-5.394735,-8.043321,-0.1328782,0.128897,0.26312032,-0.09267801,96.6,30.9,32.7
1554117247094,-5.416282700000001,-8.141483000000001,-0.09756372,0.13209279,0.22796659,-0.098004326,96.36,31.02,32.7
1554117247114,-5.463568,-8.199542,-0.079008654,0.12996227,0.19813919,-0.09054748,96.06,31.2,32.76
1554117247134,-5.4881085999999994,-8.22528,-0.017956512,0.14487597,0.18429075,-0.08735169,95.88,31.38,32.76
1554117247153,-5.4593782,-8.261791,-0.04369418,0.17044231,0.16937704,-0.084155895,95.58,31.56,32.82
1554117247173,-5.5030727,-8.32045,0.0035913025,0.17150758,0.165116,-0.080960095,95.52,31.62,32.82
1554117247194,-5.549161,-8.440758,0.0676362,0.19281286,0.15552860000000002,-0.083090626,95.28,31.74,32.82
1554117247214,-5.4899044,-8.436568,0.12150574,0.21198763,0.13528858,-0.07563378,95.16,31.8,32.82
1554117247234,-5.4617724,-8.451532,0.110133275,0.22370553,0.113983296,-0.06711166,95.1,31.92,32.82
1554117247254,-5.3259015,-8.365341,0.036511577999999996,0.20453078,0.07563378,-0.06285059999999999,95.04,32.1,32.82
1554117247274,-5.236717700000001,-8.333019,0.05207389,0.1587244,0.036218993,-0.05539375,95.04,32.22,32.82
1554117247294,-5.153519,-8.321647,0.08140286,0.10972224,-0.004261058,-0.053263225,94.98,32.4,32.76
1554117247313,-5.033809,-8.330027000000001,0.15801731,0.07882957,-0.037284255,-0.05006743,94.98,32.58,32.76
1554117247333,-4.936245400000001,-8.343194,0.22625206,0.07882957,-0.040480047000000005,-0.054328485999999995,94.92,32.7,32.7
1554117247354,-4.8799815,-8.251018,0.26874915,0.1107875,-0.03834952,-0.06498113,94.8,32.88,32.64
1554117247374,-4.8404775,-8.241441,0.3226187,0.14807177,-0.022370555,-0.08522116,94.68,33.0,32.58
1554117247393,-4.8267107000000005,-8.257003,0.29568392,0.16618125,0.0,-0.10652645,94.5,33.12,32.52
1554117247414,-4.8386817,-8.239047,0.3286042,0.14807177,0.02130529,-0.12037488,94.38,33.18,32.52
1554117247433,-4.9164934,-8.230667,0.40701428,0.12144015,0.046871635999999994,-0.12357068,94.26,33.24,32.46
1554117247453,-5.01286,-8.259995,0.46028528,0.07669904,0.05219796,-0.12144015,94.14,33.3,32.34
1554117247474,-5.0421886,-8.344392,0.45010993,0.023435817999999997,0.039414786,-0.10865697,93.96,33.36,32.34
1554117247494,-5.0936639999999995,-8.460510000000001,0.52732295,0.020240024,0.033023197000000004,-0.08628642,93.9,33.54,32.28
1554117247513,-5.1205989999999995,-8.55987,0.5614403,0.046871635999999994,0.022370555,-0.05006743,93.9,33.66,32.28
1554117247533,-5.133767,-8.592191999999999,0.52373165,0.09161274,0.012783173500000002,-0.010652645,93.9,33.78,32.22
1554117247553,-5.187037999999999,-8.563461,0.5069722,0.12357068,0.0063915867,0.023435817999999997,93.96,33.9,32.22
1554117247574,-5.192425,-8.450933000000001,0.54527944,0.13315806,-0.0010652645,0.05752428,93.96,34.02,32.16
1554117247595,-5.1996074,-8.366538,0.58298814,0.128897,-0.00958738,0.096939065,93.96,34.14,32.16
1554117247614,-5.2115784000000005,-8.323442,0.54168814,0.12037488,-0.00958738,0.11717909,93.96,34.2,32.16
1554117247634,-5.2085857,-8.319851,0.59017074,0.101200126,-0.008522116,0.14061491,93.96,34.26,32.1
1554117247654,-5.161899,-8.285733,0.56922144,0.082025364,-0.007456851,0.15446335,94.02,34.26,32.04
1554117247673,-5.1038394,-8.232463000000001,0.587178,0.07350325,-0.002130529,0.15978967,94.08,34.26,31.98
1554117247693,-5.055357,-8.240244,0.54049104,0.07350325,-0.002130529,0.15978967,94.2,34.32,31.98
1554117247714,-5.0439844,-8.190564,0.6015432,0.07669904,0.0010652645,0.14594123,94.32,34.32,31.92
1554117247733,-4.9984946,-8.125919999999999,0.6476316,0.084155895,-0.002130529,0.12037488,94.38,34.38,31.86
1554117247754,-5.0212392999999995,-8.093599000000001,0.6488286999999999,0.096939065,-0.004261058,0.10013486,94.5,34.38,31.8
1554117247774,-5.0427876,-7.9625163,0.7032967,0.101200126,-0.0031957934000000003,0.07776430000000001,94.62,34.44,31.8
1554117247793,-5.1026425,-7.912238,0.7038953,0.099069595,-0.002130529,0.049002163,94.74,34.44,31.8
1554117247813,-5.1152120000000005,-7.901464,0.700304,0.07989483,0.007456851,0.02876214,94.8,34.5,31.8
1554117247834,-5.0787005,-7.916428,0.7146691999999999,0.05752428,0.018109497,0.0063915867,94.86,34.5,31.74
1554117247853,-5.08708,-7.9708962,0.7104794,0.03089267,0.039414786,-0.008522116,94.92,34.5,31.74
1554117247874,-5.0810947,-8.070255,0.6440403,0.0063915867,0.049002163,-0.02130529,94.92,34.5,31.68
1554117247894,-5.066130599999999,-8.136096,0.64703304,-0.010652645,0.058589544,-0.03195793,94.98,34.56,31.68
1554117247913,-5.1355624,-8.256405,0.5674258000000001,-0.015978966,0.06604639400000001,-0.049002163,95.04,34.62,31.62
1554117247933,-5.1409497,-8.398261,0.6242880999999999,-0.023435817999999997,0.06498113,-0.06604639400000001,95.04,34.68,31.62
1554117247953,-5.1768627,-8.5700445,0.729633,-0.012783173500000002,0.06498113,-0.06498113,95.04,34.74,31.5
1554117247974,-5.2008047,-8.631696,0.7505821999999999,0.03195793,0.07989483,-0.043675844000000005,95.04,34.74,31.5
1554117247994,-5.125387,-8.623316,0.82240826,0.05219796,0.09161274,-0.023435817999999997,95.04,34.74,31.44
1554117248014,-5.1056349999999995,-8.573038,0.8888474000000001,0.06604639400000001,0.10439592,0.004261058,95.04,34.8,31.38
1554117248034,-5.087678400000001,-8.459313,0.93254155,0.083090626,0.12996227,0.037284255,95.04,34.8,31.32
1554117248054,-5.121796,-8.289325,0.9427169,0.09587380000000001,0.165116,0.054328485999999995,95.04,34.74,31.32
1554117248074,-5.122993,-8.152855,0.8786719999999999,0.101200126,0.19174760000000002,0.041545313,94.98,34.74,31.26
1554117248094,-5.130774,-8.040925999999999,0.9271546,0.101200126,0.21411815,0.02130529,94.92,34.74,31.26
1554117248114,-5.17387,-7.981669999999999,0.9032126,0.099069595,0.22583607,-0.014913702,94.86,34.74,31.2
1554117248134,-5.167286,-7.9170264999999995,0.90021986,0.094808534,0.22477080000000002,-0.054328485999999995,94.8,34.68,31.2
1554117248154,-5.192425,-7.880514999999999,0.79367787,0.08628642,0.21837921,-0.08735169,94.8,34.68,31.2
1554117248174,-5.185841,-7.9385743,0.7194576,0.07776430000000001,0.21092236,-0.11611383,94.74,34.62,31.2
1554117248194,-5.1996074,-8.064867999999999,0.6452374,0.05965481,0.2066613,-0.13635385,94.68,34.68,31.2
1554117248214,-5.116409,-8.214506,0.6619968,0.04580637,0.20559604,-0.15020229,94.62,34.68,31.2
1554117248234,-5.0242324,-8.378509,0.62967503,0.05219796,0.21198763,-0.15552860000000002,94.56,34.68,31.26
1554117248253,-4.8967410000000005,-8.422802,0.6512229,0.099069595,0.22583607,-0.13528858,94.56,34.68,31.32
1554117248273,-4.955399,-8.360553,0.6745663000000001,0.15765914,0.24714136,-0.101200126,94.5,34.74,31.32
1554117248293,-5.050568599999999,-8.190564,0.62728083,0.16724652,0.25566345,-0.08522116,94.44,34.8,31.38
1554117248313,-5.1798553,-8.106767,0.6410475,0.13422333,0.26525086,-0.10652645,94.2,34.86,31.38
1554117248334,-5.285799,-8.145074000000001,0.6889314999999999,0.12783173,0.27696875,-0.13209279,94.02,34.92,31.44
1554117248354,-5.284003299999999,-8.254609,0.7200562,0.16831179,0.28549087,-0.14807177,93.84,34.98,31.5
1554117248374,-5.283405,-8.307879,0.6476316,0.21944448,0.29827404,-0.15020229,93.66,35.1,31.56
1554117248394,-5.230732,-8.253411999999999,0.53570265,0.24074976,0.2908172,-0.15126756,93.42,35.22,31.56
1554117248414,-5.2319293,-8.291121,0.44891283,0.23648871,0.2790993,-0.12783173,93.24,35.34,31.56
1554117248433,-5.2343235,-8.313267,0.40102878,0.22903186,0.26844665,-0.09267801,93.06,35.46,31.62
1554117248453,-5.2301335,-8.309077,0.31902736,0.23116238,0.2545982,-0.049002163,92.94,35.58,31.62
1554117248473,-5.254674,-8.211513499999999,0.29807812,0.26205507,0.2545982,-0.0053263223,92.88,35.7,31.68
1554117248493,-5.3324857,-7.997831,0.27892449999999996,0.29188246,0.25353295,0.023435817999999997,92.76,35.88,31.68
1554117248514,-5.4312468,-7.781753999999999,0.22625206,0.2727077,0.24181503,0.035153727999999995,92.64,36.0,31.68
1554117248534,-5.567117700000001,-7.654263,0.23942018,0.20879184,0.22050974,0.03195793,92.58,36.18,31.68
1554117248554,-5.5844755,-7.581239699999999,0.17956513,0.14487597,0.18429075,0.017044231,92.52,36.42,31.68
1554117248574,-5.6616883,-7.5171947,0.15083471,0.112918034,0.16298546,0.0053263223,92.46,36.6,31.68
1554117248594,-5.747281,-7.5309615,0.21906945,0.098004326,0.13954964,-0.00958738,92.4,36.84,31.62
1554117248613,-5.805341,-7.5351515,0.11192893,0.082025364,0.113983296,-0.017044231,92.4,37.02,31.56
1554117248634,-5.929839,-7.731476,-0.12030864,0.037284255,0.07243799,0.0063915867,92.4,37.26,31.5
1554117248654,-5.951985400000001,-7.8930845000000005,-0.17118542,-0.023435817999999997,0.023435817999999997,0.04580637,92.46,37.44,31.5
1554117248674,-5.903503,-7.9750857,-0.12030864,-0.037284255,-0.014913702,0.07456851,92.52,37.62,31.44
1554117248694,-5.937021700000001,-8.015787,-0.055066638,-0.018109497,-0.035153727999999995,0.12676647,92.52,37.68,31.44
1554117248714,-5.90889,-7.905653999999999,-0.10474633,-0.02876214,-0.06498113,0.17363810000000002,92.58,37.74,31.38
1554117248734,-5.8651957999999995,-7.8613615,0.022146367,-0.05006743,-0.07456851,0.18322548,92.64,37.8,31.38
1554117248753,-5.8969190000000005,-7.782951400000001,0.17836803,-0.06391586,-0.08628642,0.18961707,92.64,37.86,31.32
1554117248773,-5.907693,-7.7997108,0.24540567,-0.07563378,-0.10865697,0.20772657,92.7,37.86,31.26
1554117248795,-6.009446,-7.8463974,0.15502456,-0.13848437,-0.1470065,0.22264028,92.88,37.92,31.32
1554117248814,-6.0681043,-7.891887,0.10534488,-0.18748654,-0.17150758,0.21837921,92.94,37.92,31.32
1554117248834,-6.0567317,-8.034941,0.04070143,-0.22477080000000002,-0.19920446,0.2066613,93.06,37.92,31.32
1554117248853,-6.073491000000001,-8.100183,-0.010773907,-0.19281286,-0.20985709,0.1949434,93.24,37.92,31.38
1554117248873,-6.0974330000000005,-8.081029,-0.16280572,-0.1438107,-0.20772657,0.18322548,93.42,37.86,31.44
1554117248893,-6.1967926,-8.053496,-0.35314476,-0.09054748,-0.2066613,0.16937704,93.6,37.8,31.5
1554117248913,-6.271611,-7.7949224,-0.14724341,-0.10652645,-0.17257284,0.12996227,93.78,37.62,31.56
1554117248934,-6.4416,-7.5411367,0.065242,-0.12357068,-0.16937704,0.07776430000000001,94.02,37.26,31.62
1554117248954,-6.514024299999999,-7.447763,0.06284779,-0.16831179,-0.17896444,0.06711166,94.14,37.14,31.68
1554117248974,-6.536769400000001,-7.4471645,0.0023942017,-0.25566345,-0.2034655,0.06498113,94.38,36.96,31.68
1554117248993,-6.506243,-7.36636,0.12569559,-0.3685815,-0.25140239999999997,0.07456851,94.56,36.78,31.68
1554117249013,-6.4793080000000005,-7.429208,0.09935937,-0.40373522,-0.29614353,0.101200126,94.8,36.6,31.68
1554117249033,-6.439205599999999,-7.5453267,-0.05207389,-0.29507825,-0.34514567,0.13315806,94.98,36.48,31.68
1554117249055,-6.353014,-7.5483193,-0.23283611,-0.2034655,-0.3653857,0.14594123,95.22,36.36,31.68
1554117249073,-6.290765,-7.597999000000001,-0.3669114,-0.13422333,-0.38882150000000004,0.15552860000000002,95.4,36.24,31.68
1554117249093,-6.2021794,-7.617750999999999,-0.3321955,-0.12037488,-0.41545314,0.15020229,95.58,36.12,31.74
1554117249114,-6.1195793,-7.726089,-0.27473465,-0.13528858,-0.45060685,0.15233281,95.82,35.82,31.74
1554117249134,-5.990891,-7.7949224,-0.23463176,-0.18002969,-0.49747851,0.1587244,96.06,35.58,31.74
1554117249153,-5.978321599999999,-7.697957000000001,-0.3705027,-0.21837921,-0.531567,0.14913702,96.24,35.34,31.74
1554117249173,-5.9968767,-7.8128785999999995,-0.4381389,-0.29507825,-0.56672066,0.13528858,96.48,35.1,31.74
1554117249193,-5.862801599999999,-7.8146744,-0.21308395,-0.36112466,-0.59867865,0.10759171,96.78,34.86,31.8
1554117249214,-5.816713,-7.9511437,0.19752164,-0.3057309,-0.60507023,0.06924219,97.02,34.68,31.8
1554117249233,-5.798158,-7.9822683,0.40462008,-0.17789917,-0.6040049,0.041545313,97.32,34.5,31.8
1554117249254,-5.825093,-8.002021000000001,0.5823896,-0.020240024,-0.60720074,0.011717908999999999,97.62,34.38,31.74
1554117249274,-5.8346696,-7.960122,0.9056068000000002,0.15339808,-0.6103965,-0.03089267,97.86,34.26,31.74
1554117249295,-5.86759,-8.021772,1.2060791000000002,0.29614353,-0.60507023,-0.04580637,98.1,34.08,31.62
1554117249313,-5.881356200000001,-8.061875,1.3910311000000002,0.39414784,-0.6114618,-0.03089267,98.34,33.9,31.5
1554117249334,-5.849035,-8.097789,1.3706805,0.47297743,-0.608266,0.008522116,98.58,33.78,31.38
1554117249353,-5.8819550000000005,-8.143877,1.3221979,0.5123922000000001,-0.60293967,0.051132694000000006,99.0,33.6,31.08
1554117249374,-5.8226986,-8.129512,1.4437037,0.5368933000000001,-0.5837649,0.08628642,99.36,33.48,30.78
1554117249394,-5.718550700000001,-8.143877,1.8309658,0.56459016,-0.54648066,0.14594123,99.66,33.36,30.48
1554117249414,-5.583876999999999,-8.248624000000001,2.0392613,0.62317973,-0.5134575,0.21411815,99.96,33.3,30.06
1554117249433,-5.437232,-8.381501,2.2756886,0.7190535,-0.47510794,0.25992453,100.26,33.36,29.58
1554117249454,-5.318719000000001,-8.148665,2.5378537,0.8809737,-0.44315,0.23542345,100.5,33.54,28.98
1554117249474,-5.222951,-7.9625163,2.6892869999999998,1.0599382,-0.38349520000000004,0.22477080000000002,100.68,33.66,28.32
1554117249494,-5.2277393,-7.8104844,2.9658175,1.2367721,-0.29614353,0.25566345,100.8,33.9,27.54
1554117249513,-5.221754,-7.4489600000000005,3.1848867000000003,1.4327807,-0.19174760000000002,0.26312032,100.86,34.26,26.88
1554117249534,-5.345654,-6.8426285,2.9580362,1.4828482,-0.10439592,0.27590349999999997,100.98,34.62,26.28
1554117249554,-5.5748987,-6.4882865,3.0998926,1.1526161,0.0053263223,0.37071204,101.16,35.04,25.56
1554117249573,-5.276222,-6.587047599999999,3.9791632000000003,0.79255676,-0.015978966,0.38242993,101.4,35.4,24.84
1554117249594,-5.3983264,-6.680421400000001,4.2993879999999995,0.9054747999999999,0.0053263223,0.28016454,101.7,35.7,24.12
1554117249614,-5.7143607,-6.2781954,3.9869443999999996,1.2665993999999998,0.03834952,0.18855181,102.06,36.06,23.52
1554117249633,-5.945401,-5.903503,3.6846763999999994,1.4913702,0.07882957,0.17470337,102.36,36.42,23.04
1554117249655,-6.003461,-5.789778,3.5344403,1.5648735,0.09054748,0.13954964,102.78,36.84,22.32
1554117249673,-6.1632739999999995,-5.6096144,3.3387144,1.5180018,0.080960095,0.07776430000000001,102.9,37.02,22.08
1554117249693,-6.3985043,-5.2319293,3.196858,1.2740563,0.040480047000000005,0.060720075,103.14,37.32,21.42
1554117249714,-6.5924344,-4.920683,2.7976246,0.85327685,-0.049002163,0.060720075,103.38,37.8,20.28
1554117249733,-6.7133417,-4.8464627,2.6426,0.50173956,-0.09267801,0.084155895,103.44,38.22,19.62
1554117249753,-6.643311,-4.853047,2.861071,-0.096939065,-0.12996227,0.112918034,103.5,38.46,19.26
1554117249774,-6.408081,-5.367202,3.8025907999999995,-0.69774824,-0.1587244,0.13209279,103.5,39.06,18.24
1554117249793,-6.268618599999999,-5.618592700000001,4.487332299999999,-0.69135666,-0.13528858,0.09054748,103.5,39.42,17.58
1554117249814,-6.529587,-5.494094400000001,4.5034933,-0.38029942,-0.08628642,0.018109497,103.62,39.66,17.04
1554117249833,-6.5206084,-5.513846400000001,4.449624,-0.09161274,-0.05752428,0.00958738,103.68,39.78,16.62
1554117249854,-6.5942300000000005,-5.579687,4.247912400000001,0.080960095,-0.02130529,0.0031957934000000003,103.8,39.84,16.44
1554117249874,-6.658873599999999,-5.732916,4.006098000000001,-0.012783173500000002,-0.029827405,0.0053263223,103.98,39.9,16.32
1554117249894,-6.676830000000001,-5.8095303,4.0521864999999995,-0.17896444,-0.046871635999999994,-0.010652645,104.1,39.84,16.32
1554117249913,-6.7600284,-5.7921724,3.9779660000000003,-0.2727077,-0.08735169,-0.035153727999999995,104.22,39.78,16.38
1554117249933,-6.692991,-5.7825956,3.9324763,-0.34301516,-0.13848437,-0.007456851,104.34,39.66,16.44
1554117249953,-6.613384,-5.605425,4.022857,-0.30892670000000005,-0.16831179,-0.018109497,104.46,39.6,16.5
1554117249974,-6.642114,-5.472546599999999,4.07134,-0.22903186,-0.18748654,-0.07243799,104.58,39.54,16.56
1554117249994,-6.573281,-5.427057,3.4147300000000005,-0.39095205,-0.28229508,-0.039414786,104.64,39.48,16.62
1554117250013,-6.3045316,-5.265448,3.3596635000000004,-0.84581995,-0.2790993,-0.037284255,104.64,39.42,16.74
1554117250034,-6.172251999999999,-5.5192337,3.4392707000000002,-1.6405072,-0.31212249999999997,-0.06178534,104.7,39.3,16.8
1554117250054,-6.3182983,-6.142923000000001,3.7594953,-2.122007,-0.29188246,-0.00958738,104.7,39.12,16.86
1554117250074,-6.223129,-6.1650696,3.0945058,-2.3734092999999996,-0.36645097,-0.023435817999999997,104.7,38.88,17.04
1554117250093,-6.2093620000000005,-6.142923000000001,2.4271219,-2.683401,-0.34301516,-0.04261058,104.7,38.64,17.28
1554117250113,-6.2985463,-6.5804634,1.9249381999999997,-3.149987,-0.36325517,-0.027696876000000002,104.7,38.28,17.76
1554117250133,-5.967548000000001,-7.4351935,2.3122002999999998,-3.4695663,-0.30679616,0.0063915867,104.7,37.8,18.6
1554117250153,-5.879561,-8.096592,2.7515364,-3.2916672,-0.27590349999999997,0.002130529,104.7,37.02,19.5
1554117250174,-5.943007,-8.026561000000001,2.0727801,-2.824016,-0.25672874,-0.012783173500000002,104.7,36.12,20.7
1554117250194,-6.199187,-7.964312,1.2569559,-2.4192157,-0.21731395,0.002130529,104.7,34.92,21.9
1554117250214,-6.072892700000001,-7.997831,1.2132617,-1.9036276,-0.15126756,-0.011717908999999999,104.7,33.78,23.16
1554117250234,-6.271611,-8.294113000000001,1.0815806000000001,-1.3166668,-0.10226539,-0.0063915867,104.76,32.34,24.48
1554117250255,-6.3260794,-8.370728,0.705691,-0.9076053,-0.083090626,0.03834952,104.76,30.84,25.86
1554117250274,-6.379350700000001,-8.210316,0.27533320000000006,-0.74461985,-0.07456851,0.09587380000000001,104.82,29.46,27.06
1554117250294,-6.3326635,-8.181585,0.25617957,-0.7190535,-0.084155895,0.10439592,104.82,28.2,27.96
1554117250314,-6.3566055,-8.10557,0.60693014,-0.5784385999999999,-0.03195793,0.06285059999999999,104.88,27.12,28.68
1554117250334,-6.4122705,-7.7727756999999995,0.6739678000000001,-0.37603834,0.0010652645,0.058589544,104.88,26.22,29.22
1554117250354,-6.301539,-7.423821,0.45789108,-0.28868666,-0.01917476,0.06711166,104.88,25.62,29.76
1554117250374,-6.101623,-7.461529700000001,0.26635495,-0.26525086,-0.049002163,0.04580637,104.94,25.02,30.18
1554117250394,-6.1806316,-7.638102000000001,0.08439561,-0.15978967,-0.046871635999999994,0.039414786,104.94,24.66,30.54
1554117250414,-6.118981,-7.6578539999999995,0.11492168,-0.023435817999999997,-0.008522116,0.046871635999999994,105.0,24.3,30.66
1554117250434,-6.1010246,-7.545925,0.25258827,0.12570119999999999,0.023435817999999997,0.0063915867,105.0,23.88,30.78
1554117250454,-6.3404446,-7.4561424,0.109534726,0.27483824,-0.008522116,-0.0063915867,105.06,23.58,30.84
1554117250473,-6.323685,-7.4693108,-0.04189853,0.3685815,-0.02130529,-0.0010652645,105.06,23.34,30.9
1554117250493,-6.5110316,-7.354389,-0.1364695,0.45806372,-0.033023197000000004,-0.03089267,105.12,22.92,31.02
1554117250514,-6.523601,-7.114370299999999,-0.04189853,0.46552056,-0.029827405,-0.03195793,105.18,22.86,31.02
1554117250534,-6.415263700000001,-6.7372837,0.18495208,0.34514567,-0.05219796,-0.018109497,105.24,22.68,31.08
1554117250553,-6.4230447,-6.6516910000000005,0.008978256,0.10439592,-0.10546118,-0.013848438000000001,105.36,22.68,31.08
1554117250574,-6.165668,-7.1287354999999994,0.29568392,-0.23755397,-0.096939065,-0.014913702,105.48,22.8,31.14
1554117250595,-6.238691,-7.422025,0.37948096,-0.34834146,-0.06604639400000001,-0.02876214,105.6,22.86,31.08
1554117250613,-6.1764417,-7.4639240000000004,0.46387658,-0.32490566,-0.033023197000000004,-0.047936900000000005,105.72,22.92,31.02
1554117250634,-6.194398400000001,-7.4034699999999996,0.46267948,-0.2130529,-0.0063915867,-0.080960095,105.78,23.04,30.96
1554117250654,-6.235698,-7.4465656000000005,0.4249708,-0.04580637,0.043675844000000005,-0.056459017,105.9,23.16,30.84
1554117250673,-6.2345014,-7.5590934999999995,0.28371290000000005,0.05965481,0.05219796,-0.043675844000000005,105.96,23.28,30.72
1554117250694,-6.345233,-7.566275999999999,0.22146365,0.12570119999999999,0.047936900000000005,-0.05006743,106.02,23.34,30.66
1554117250714,-6.267421700000001,-7.5746554999999995,0.011372458,0.111852765,0.004261058,-0.03834952,106.02,23.46,30.48
1554117250733,-6.381146,-7.347805,-0.13227965,0.03089267,-0.049002163,-0.06285059999999999,105.96,23.46,30.42
1554117250753,-6.505046,-7.2580222999999995,0.032920275,-0.06924219,-0.083090626,-0.06711166,105.96,23.52,30.36
1554117250773,-6.4625487,-7.457938,0.32920274,-0.07776430000000001,-0.08628642,-0.060720075,105.96,23.52,30.3
1554117250793,-6.3991027,-7.478887599999999,0.6703765,0.017044231,-0.07137272,-0.06604639400000001,105.96,23.52,30.3
1554117250814,-6.390124299999999,-7.4363904000000005,0.60094464,0.18429075,-0.06924219,-0.09161274,105.96,23.52,30.24
1554117250833,-6.393716,-7.170035400000001,0.24241292,0.31105720000000003,-0.05006743,-0.10226539,105.96,23.58,30.24
1554117250854,-6.2781954,-7.04015,-0.062249242999999996,0.20240025,-0.023435817999999997,-0.09267801,106.02,23.58,30.24
1554117250874,-6.247669,-7.231087700000001,0.34596214,0.06711166,0.0031957934000000003,-0.096939065,106.02,23.64,30.24
1554117250893,-6.2698160000000005,-7.548918,0.51595044,-0.0053263223,-0.0053263223,-0.10226539,106.02,23.7,30.24
1554117250914,-6.187216,-7.5944076,0.34476504,-0.0063915867,-0.02130529,-0.06924219,106.02,23.76,30.3
1554117250934,-6.232107,-7.524976,0.24301147,-0.0031957934000000003,-0.008522116,-0.083090626,106.08,23.82,30.3
1554117250953,-6.2608375999999994,-7.705139599999999,0.54288524,-0.041545313,-0.015978966,-0.040480047000000005,106.08,23.94,30.36
1554117250973,-6.220136,-7.713519,0.5895722,0.034088463,-0.0031957934000000003,-0.047936900000000005,106.08,23.94,30.36
1554117250993,-6.2650275,-7.533954,0.44113165,0.08948222,-0.014913702,-0.02130529,106.08,24.0,30.36
1554117251014,-6.2530565000000005,-7.487267500000001,0.33997664,0.05965481,-0.024501082,-0.014913702,106.02,24.06,30.42
1554117251033,-6.3260794,-7.3406224,0.27952304,0.0063915867,-0.023435817999999997,-0.015978966,105.96,24.06,30.42
1554117251053,-6.1758432,-7.5136037,0.24660277,-0.07350325,-0.014913702,0.00958738,105.96,24.06,30.42
1554117251074,-6.2512608,-7.4495587,0.5303157,-0.080960095,0.0010652645,-0.027696876000000002,105.9,24.06,30.42
1554117251094,-6.2404866,-7.3400240000000005,0.5189431999999999,-0.07030745599999999,-0.026631612000000002,-0.03195793,105.84,24.06,30.36
1554117251114,-6.232107,-7.2047514999999995,0.2657564,-0.08522116,-0.043675844000000005,-0.049002163,105.84,24.12,30.36
1554117251134,-6.2769985,-7.3549875999999985,0.4381389,-0.14913702,-0.054328485999999995,-0.056459017,105.84,24.12,30.3
1554117251154,-6.2362967000000005,-7.2568254,0.17298107,-0.20985709,-0.096939065,-0.06498113,105.84,24.06,30.3
1554117251173,-6.2021794,-7.349601,0.093972415,-0.32277513,-0.10013486,-0.07563378,105.84,24.06,30.24
1554117251194,-6.3703723,-7.3825210000000006,0.17597382,-0.35579833,-0.07137272,-0.13528858,105.9,23.94,30.18
1554117251214,-6.2009826,-7.677007700000001,0.52133745,-0.4133226,-0.08735169,-0.051132694000000006,105.96,23.82,30.18
1554117251234,-6.190807,-7.551311999999999,0.22565351,-0.25140239999999997,-0.07776430000000001,-0.1107875,106.02,23.7,30.18
1554117251253,-6.2883705999999995,-7.4639240000000004,0.0676362,-0.19068234,-0.06604639400000001,-0.06711166,106.08,23.52,30.18
1554117251273,-6.2781954,-7.4028716,0.02633622,-0.24074976,-0.07456851,-0.037284255,106.08,23.4,30.24
1554117251293,-6.311714,-7.467515,-0.15502456,-0.41545314,-0.10865697,-0.023435817999999997,106.14,23.22,30.24
1554117251314,-6.333860400000001,-7.615357,-0.23642741,-0.6775081999999999,-0.13315806,0.020240024,106.14,23.1,30.3
1554117251333,-6.2351,-7.4992385,-0.3238158,-0.9150621999999999,-0.14913702,0.010652645,106.14,22.92,30.42
1554117251354,-6.3284736,-7.4483614000000005,-0.19991584,-1.0375676,-0.15339808,0.010652645,106.14,22.74,30.66
1554117251374,-6.256647599999999,-7.4286094,-0.19632454,-0.9864349,-0.15446335,0.012783173500000002,106.14,22.68,30.72
1554117251394,-6.307524,-7.3100963000000005,-0.6787562,-0.87777793,-0.19174760000000002,-0.007456851,106.08,22.38,30.9
1554117251414,-6.3063273,-7.339425,-0.7320272,-0.89375687,-0.15339808,0.05006743,106.08,22.02,31.02
1554117251434,-6.1333459999999995,-7.522581599999999,-0.94331545,-0.93423694,-0.14061491,0.015978966,106.02,21.54,31.2
1554117251453,-6.14412,-7.547721000000001,-0.61411273,-0.97471696,-0.12570119999999999,-0.011717908999999999,106.02,21.0,31.38
1554117251473,-6.180033,-7.4429746,-0.66498953,-0.78083885,-0.12463594,-0.07563378,106.08,20.34,31.68
1554117251494,-6.38354,-7.217321000000001,-1.1563994,-0.59228706,-0.13635385,-0.07669904,106.14,19.68,31.92
1554117251514,-6.321291,-7.614758500000001,-1.359308,-0.5368933000000001,-0.09161274,0.011717908999999999,106.26,19.02,32.16
1554117251534,-6.0441623,-8.4647,-0.825401,-0.5390238,-0.02876214,0.082025364,106.32,18.36,32.34
1554117251554,-6.1273610000000005,-8.236053,-0.58418524,-0.2876214,0.025566347000000003,0.007456851,106.44,17.82,32.58
1554117251573,-6.306926,-7.656657000000001,-0.8750806999999999,-0.033023197000000004,0.046871635999999994,0.012783173500000002,106.56,17.4,32.7
1554117251594,-6.2763995999999995,-7.3843164,-1.2443863000000002,0.20879184,0.07137272,0.06711166,106.74,16.98,32.88
1554117251613,-6.1806316,-7.7626004,-1.163582,0.24607609,0.098004326,0.094808534,106.86,16.62,32.94
1554117251634,-6.1926026,-7.72968,-1.1366472,0.29614353,0.12463594,0.07882957,106.98,16.38,32.88
1554117251654,-6.2662244000000005,-7.2514386,-1.2533646,0.30040458,0.14168017,0.06391586,107.04,16.14,32.82
1554117251674,-6.247669,-7.184400599999999,-1.3880384,0.19387813,0.11930962,0.04474111,107.04,15.84,32.82
1554117251694,-6.183026,-7.3627687,-1.4676456,0.10226539,0.13315806,0.03195793,107.1,15.66,32.82
1554117251713,-6.229114,-7.5034279999999995,-0.90859956,0.16937704,0.20026971,0.047936900000000005,107.1,15.42,32.76
1554117251733,-6.367978,-7.5213847000000005,-0.6775591,0.32597092,0.2428803,0.06285059999999999,107.04,15.3,32.76
1554117251754,-6.4338182999999995,-7.353790299999999,-1.2575544,0.350472,0.18642128,0.039414786,106.98,15.18,32.76
1554117251774,-6.5379663,-7.028179,-1.5424645000000001,0.28868666,0.18002969,0.018109497,106.92,15.18,32.76
1554117251794,-6.5984197,-6.6893997,-1.7645266,0.10759171,0.14487597,0.00958738,106.86,15.18,32.76
1554117251813,-6.681019999999999,-6.8731546,-1.340753,-0.08735169,0.101200126,0.025566347000000003,106.8,15.24,32.76
1554117251833,-6.4547677000000006,-6.991069,-1.4873978,-0.26738137,0.01917476,0.0063915867,106.68,15.36,32.7
1554117251853,-6.429629,-7.252037,-1.3395559,-0.28016454,0.09054748,-0.017044231,106.62,15.48,32.76
1554117251874,-6.4685345000000005,-7.3699512,-0.7302314999999999,-0.21837921,0.14913702,-0.017044231,106.5,15.6,32.82
1554117251893,-6.2967505,-7.540538300000001,-0.8331822,-0.21837921,0.05965481,-0.04580637,106.44,15.66,33.0
1554117251914,-6.330868,-7.514202,-1.2880806,-0.13422333,0.07350325,-0.09587380000000001,106.32,15.78,33.12
1554117251933,-6.4505777,-7.1670427,-1.417966,-0.024501082,0.10546118,-0.12357068,106.26,15.84,33.24
1554117251954,-6.415263700000001,-7.03177,-1.7016789,0.07243799,0.058589544,-0.12463594,106.2,15.9,33.42
1554117251974,-6.457162,-7.3083005000000005,-1.6783354,0.053263225,-0.02876214,-0.16831179,106.14,15.96,33.6
1554117251994,-6.401497,-7.482479,-1.6232687,0.017044231,-0.03089267,-0.15233281,106.14,16.02,33.72
1554117252014,-6.291962,-7.450157000000001,-1.3940238999999999,0.008522116,0.011717908999999999,-0.14168017,106.08,15.96,33.84
1554117252034,-6.282984,-7.3627687,-0.9756372,0.015978966,0.034088463,-0.12037488,106.08,15.96,33.84
1554117252053,-6.3769565,-7.347805,-0.9600749,0.047936900000000005,0.049002163,-0.07776430000000001,106.08,15.96,33.78
1554117252074,-6.3380504,-7.346607700000001,-1.2814964,0.03195793,0.05539375,-0.06285059999999999,106.02,15.9,33.72
1554117252094,-6.3757589999999995,-7.3460092999999995,-1.2066777,-0.015978966,0.07776430000000001,-0.07350325,105.96,15.9,33.72
1554117252113,-6.329072,-7.3220673,-1.3329718000000002,-0.051132694000000006,0.11717909,-0.037284255,105.84,15.84,33.66
1554117252133,-6.332065,-7.3914990000000005,-1.5460558,-0.10226539,0.12250541,0.002130529,105.78,15.84,33.6
1554117252154,-6.203975,-7.450157000000001,-1.7393875,-0.20559604,0.083090626,-0.015978966,105.66,15.78,33.6
1554117252174,-6.2668230000000005,-7.379528,-1.644218,-0.27483824,0.058589544,-0.05752428,105.6,15.78,33.6
1554117252194,-6.326678,-7.294534,-1.3820529,-0.23116238,0.06924219,-0.056459017,105.48,15.78,33.6
1554117252213,-6.379949,-7.313089,-1.5143325,-0.096939065,0.08841695,-0.07137272,105.36,15.78,33.66
1554117252234,-6.4326215,-7.1879919999999995,-1.6484078000000002,-0.05006743,0.06285059999999999,-0.07669904,105.24,15.72,33.66
1554117252253,-6.4936733,-7.662044,-1.7537526999999997,-0.083090626,0.033023197000000004,-0.06285059999999999,105.24,15.72,33.72
1554117252273,-6.493075,-7.873931,-1.6980876,-0.056459017,0.10013486,0.013848438000000001,105.18,15.66,33.84
1554117252293,-6.4823010000000005,-7.833828,-1.3730746999999999,-0.017044231,0.13315806,0.07563378,105.18,15.54,33.96
1554117252314,-6.3512187,-7.788338,-1.5897499,0.041545313,0.111852765,0.12357068,105.12,15.54,34.08
1554117252333,-6.261436,-7.3974850000000005,-2.1158757,0.05752428,0.043675844000000005,0.08841695,105.06,15.42,34.38
1554117252354,-6.320094,-7.2699933,-2.333748,0.008522116,-0.025566347000000003,0.051132694000000006,105.06,15.36,34.56
1554117252374,-6.4188547,-7.328651400000001,-1.9147629000000002,0.06285059999999999,-0.047936900000000005,0.0031957934000000003,105.06,15.3,34.74
1554117252394,-6.625355,-7.316082000000001,-1.7794904999999999,0.08628642,-0.13741912,-0.04580637,105.0,15.24,34.92
1554117252413,-6.777985,-7.5710645,-2.0003555,-0.06498113,-0.24394555,-0.080960095,104.94,15.18,35.04
1554117252434,-6.9784994000000005,-7.836820599999999,-2.095525,-0.33662358,-0.31212249999999997,-0.07137272,104.94,15.18,35.1
1554117252454,-7.157466,-8.020576,-2.095525,-0.5944176,-0.39521313,-0.06285059999999999,104.88,15.06,35.16
1554117252474,-7.184400599999999,-8.242638000000001,-2.0123265,-0.7414241,-0.49108690000000005,-0.046871635999999994,104.88,14.94,35.22
1554117252495,-7.241263000000001,-8.459313,-1.9716251,-0.8298409999999999,-0.63915867,-0.022370555,104.82,14.82,35.16
1554117252514,-7.1724296,-8.527548,-2.100912,-0.74675035,-0.74781567,0.029827405,104.88,14.7,35.04
1554117252534,-7.129933,-8.446145,-2.12246,-0.5411543000000001,-0.81918836,0.058589544,105.0,14.46,34.92
1554117252554,-7.091625,-8.170214,-1.903989,-0.23861924,-0.96299905,0.08841695,105.18,14.22,34.62
1554117252574,-6.928221000000001,-8.091804,-1.8525136000000002,-0.01917476,-1.0823087,0.14168017,105.48,13.98,34.26
1554117252593,-6.7199254,-7.973889,-1.7435773999999997,0.13954964,-1.1174624,0.18961707,105.96,13.68,33.9
1554117252614,-6.3260794,-7.944559599999999,-1.0564415,0.3717773,-1.0950918,0.24927188,106.44,13.38,33.54
1554117252633,-6.4044894999999995,-7.3065050000000005,-0.66379243,0.79894835,-1.0162623,0.23329292,106.92,13.14,33.24
1554117252653,-6.3757589999999995,-6.740875,-0.57281274,1.0801781000000001,-0.87777793,0.26312032,107.4,12.84,32.88
1554117252674,-6.5218053,-6.3087215,-1.1168951,0.96939063,-0.8831041999999999,0.35153726,107.88,12.6,32.46
1554117252694,-6.475118599999999,-6.0639142999999995,-1.0384849,0.69987875,-0.902279,0.39201729999999996,108.42,12.48,31.92
1554117252714,-6.4182562999999995,-5.718550700000001,-0.8439561,0.43995422,-0.89588743,0.36964676,108.96,12.36,31.32
1554117252734,-6.3943143,-5.695806,-0.22445641,0.19707392,-0.8948221,0.3153183,109.38,12.36,30.72
1554117252754,-6.3871317,-5.449203,0.41060558,0.096939065,-0.8319715,0.27483824,109.68,12.48,30.06
1554117252773,-6.1866174,-5.756858,1.1366472,0.16405073,-0.716923,0.26738137,110.04,12.72,29.28
1554117252793,-6.217741999999999,-5.6389437000000004,1.3443443000000002,0.3174488,-0.5411543000000001,0.23755397,110.46,12.9,28.56
1554117252814,-6.3350577,-5.487509999999999,1.3425486,0.34834146,-0.4048005,0.21092236,110.94,13.08,27.78
1554117252834,-6.5337762999999995,-5.4402246,0.9911995000000001,0.23435818,-0.33129725,0.15339808,111.36,13.26,27.06
1554117252853,-6.755839,-5.6826377,0.6051345,-0.0010652645,-0.29507825,0.13528858,111.72,13.44,26.46
1554117252873,-6.797737,-5.9011087,0.46806642,-0.25885928,-0.30466563,0.099069595,112.08,13.56,26.16
1554117252894,-6.96174,-6.1177839999999994,0.6631939,-0.37816888,-0.27803403,0.06178534,112.38,13.62,25.86
1554117252915,-6.9970546,-6.2644286,0.6703765,-0.37390783,-0.26312032,0.07776430000000001,112.68,13.56,25.62
1554117252933,-7.023391,-6.356007,0.6865373,-0.31105720000000003,-0.24074976,0.10865697,112.92,13.38,25.44
1554117252954,-7.153875,-6.4086795,0.7200562,-0.21837921,-0.23116238,0.13848437,113.1,13.14,25.2
1554117252973,-7.134721300000001,-6.443994,0.6937199000000001,-0.13422333,-0.20133498,0.15552860000000002,113.16,12.84,25.02
1554117252994,-6.986878999999999,-6.6056023,0.97264445,-0.11611383,-0.15446335,0.16298546,113.22,12.6,24.9
1554117253014,-7.0467343,-6.793547,1.3437457,-0.04580637,-0.06178534,0.12357068,113.28,12.36,24.66
1554117253033,-7.1179619999999995,-6.5517330000000005,1.3509283,0.026631612000000002,-0.004261058,0.111852765,113.28,12.12,24.48
1554117253054,-7.2059484,-6.453571,1.050456,0.027696876000000002,0.017044231,0.083090626,113.34,11.94,24.3
1554117253074,-7.1706343,-6.5188127,1.1516110000000002,-0.029827405,0.013848438000000001,0.035153727999999995,113.4,11.7,24.06
1554117253094,-7.324461500000001,-6.519411,1.2497733,0.0,0.024501082,-0.041545313,113.4,11.7,24.0
1554117253114,-7.3202715,-6.357204,1.0749966,0.034088463,0.03089267,-0.082025364,113.58,11.64,23.88
1554117253134,-7.278373200000001,-6.363788,0.8810662,0.015978966,0.034088463,-0.10546118,113.7,11.58,23.7
1554117253153,-7.27957,-6.4661403,0.85293436,0.0,0.049002163,-0.10226539,113.82,11.4,23.64
1554117253174,-7.325659,-6.4104753,0.79726917,0.039414786,0.06711166,-0.09587380000000001,113.94,11.22,23.58
1554117253193,-7.3124905,-6.2327056,0.75118077,0.07776430000000001,0.080960095,-0.080960095,114.0,11.16,23.58
1554117253214,-7.405266,-6.1890116,0.60932434,0.11504856,0.06604639400000001,-0.054328485999999995,114.12,10.92,23.52
1554117253234,-7.2807674,-6.186018499999999,0.42257659999999997,0.04474111,0.053263225,-0.026631612000000002,114.18,10.8,23.52
1554117253254,-7.160458599999999,-6.305729,0.6380547,-0.043675844000000005,0.03195793,-0.010652645,114.18,10.74,23.46
1554117253274,-7.255628,-6.338649,0.7128736,-0.07030745599999999,0.023435817999999997,-0.00958738,114.18,10.68,23.46
1554117253294,-7.2185183,-6.3865333,0.94810385,-0.02130529,0.07669904,-0.012783173500000002,114.12,10.68,23.52
1554117253313,-7.033566,-6.2823853,1.3377602,0.07882957,0.19281286,-0.023435817999999997,114.12,10.74,23.52
1554117253333,-7.00723,-6.2368955999999995,1.4496891,0.17150758,0.28229508,-0.033023197000000004,114.12,10.86,23.52
1554117253354,-6.930016999999999,-6.0926447,0.96905315,0.15446335,0.30892670000000005,-0.068176925,114.12,10.92,23.58
1554117253373,-6.8450226999999995,-6.121375,0.8499416,0.082025364,0.33662358,-0.099069595,114.06,10.98,23.64
1554117253394,-6.847417,-6.047753299999999,1.0660183,-0.017044231,0.36645097,-0.15233281,114.0,10.98,23.7
1554117253414,-6.932411,-5.9477954,1.328782,-0.07137272,0.41119209999999995,-0.24394555,113.88,10.98,23.76
1554117253434,-6.9545574000000006,-5.78918,1.4951789,-0.06711166,0.5070659000000001,-0.31318775,113.82,10.98,23.88
1554117253454,-7.110779300000001,-5.4264584000000005,1.1701661,-0.09161274,0.6103965,-0.38349520000000004,113.7,10.98,24.0
1554117253474,-7.0982094,-5.2564697,0.57640404,-0.33129725,0.67218184,-0.4314321,113.64,11.04,24.24
1554117253493,-6.968324000000001,-5.7377043,0.32680854,-0.5784385999999999,0.6711166000000001,-0.49534798,113.52,11.1,24.72
1554117253514,-7.0940194000000005,-6.037578,-0.015562311,-0.5496765,0.7339671999999999,-0.6146576,113.34,11.22,25.2
1554117253534,-6.9455789999999995,-6.4990606,-0.5057751,-0.43036684,0.7233145999999999,-0.60933125,113.04,11.28,25.74
1554117253554,-6.865972,-6.9569516,-0.9211690999999999,-0.28016454,0.6743124,-0.60720074,112.74,11.4,26.22
1554117253574,-6.887519999999999,-7.138911,-1.6071079,-0.18961707,0.6061354999999999,-0.57417756,112.5,11.52,26.76
1554117253593,-6.739678,-7.36217,-1.8638860000000002,-0.27590349999999997,0.48469532,-0.49641323,112.14,11.58,27.24
1554117253613,-6.7773867,-7.6135616,-1.8537107,-0.36964676,0.34621096,-0.43995422,111.84,11.7,27.66
1554117253634,-6.7743936,-7.739257,-1.9865887999999998,-0.41971418,0.21518342,-0.34727620000000003,111.42,11.76,28.02
1554117253654,-6.7959414,-7.9475527,-1.762731,-0.40266997,0.10759171,-0.27483824,111.0,11.88,28.26
1554117253673,-6.7330937,-8.030152000000001,-1.4466964,-0.31957933,0.04580637,-0.2130529,110.58,12.0,28.56
1554117253694,-6.716933,-7.9367785,-1.1971009,-0.18216023,0.012783173500000002,-0.16405073,110.28,12.12,28.86
1554117253714,-6.600215400000001,-7.763199,-1.1599906999999998,-0.022370555,0.007456851,-0.14594123,110.04,12.36,29.16
1554117253734,-6.595427000000001,-7.583634,-1.1150993999999999,0.08948222,0.0053263223,-0.12783173,109.8,12.6,29.4
1554117253753,-6.4972650000000005,-7.5273699999999995,-1.0534488000000002,0.112918034,0.023435817999999997,-0.12144015,109.56,12.84,29.64
1554117253773,-6.517616,-7.376535400000001,-1.1180921999999998,0.08948222,0.023435817999999997,-0.14487597,109.38,13.02,29.82
1554117253794,-6.473323000000001,-7.247248599999999,-1.3431472,-0.012783173500000002,-0.03089267,-0.14061491,109.26,13.14,30.0
1554117253814,-6.4858923,-7.3112936,-1.2557588,-0.10546118,-0.07456851,-0.15552860000000002,109.2,13.32,30.12
1554117253834,-6.578069,-7.512406299999999,-1.0390834999999998,-0.11824436,-0.096939065,-0.13954964,109.2,13.44,30.12
1554117253853,-6.3865333,-7.727286,-0.99898064,-0.10546118,-0.12037488,-0.12996227,109.14,13.5,30.06
1554117253874,-6.3721676,-7.7093296,-1.1677719,-0.07137272,-0.13102753,-0.15339808,109.14,13.5,30.06
1554117253894,-6.369773400000001,-7.603985000000001,-0.95827925,-0.03089267,-0.12250541,-0.12463594,109.14,13.5,30.06
1554117253914,-6.3129115,-7.5806413,-0.9032126,0.03195793,-0.10652645,-0.11611383,109.14,13.5,30.12
1554117253933,-6.2901664,-7.420828299999999,-1.0528502,0.056459017,-0.094808534,-0.10652645,109.14,13.5,30.12
1554117253954,-6.267421700000001,-7.37055,-1.0648212,-0.01917476,-0.09267801,-0.12037488,109.14,13.5,30.12
1554117253974,-6.241085,-7.345411,-1.2042834999999998,-0.11504856,-0.10226539,-0.12357068,109.14,13.56,30.06
1554117253994,-6.218939,-7.515998,-1.174356,-0.15233281,-0.05219796,-0.113983296,109.14,13.62,29.94
1554117254014,-6.1363389999999995,-7.538144,-0.93134445,-0.07243799,0.00958738,-0.13315806,109.08,13.62,29.88
1554117254033,-6.3871317,-7.4711065,-0.32202014,0.112918034,0.051132694000000006,-0.12783173,109.08,13.62,29.82
1554117254054,-6.172850599999999,-7.4705076,-0.90021986,0.28868666,0.015978966,-0.10759171,109.08,13.68,29.7
1554117254074,-6.324882499999999,-7.41185,-1.2210428999999998,0.26205507,0.010652645,-0.12996227,109.08,13.74,29.64
1554117254094,-6.4900823,-7.1885905,-1.2443863000000002,0.10546118,0.020240024,-0.13102753,109.08,13.8,29.58
1554117254114,-6.3721676,-7.4746976,-0.91338795,-0.084155895,-0.023435817999999997,-0.09054748,109.08,13.92,29.58
1554117254134,-6.306926,-7.797915,-0.60214174,-0.10546118,-0.024501082,-0.07243799,109.08,13.98,29.58
1554117254153,-6.312312599999999,-7.583035499999999,-0.6147113000000001,-0.037284255,0.027696876000000002,-0.05752428,109.02,14.1,29.58
1554117254175,-6.172251999999999,-7.6027875,-0.48722005,0.022370555,0.10652645,-0.05752428,109.02,14.16,29.58
1554117254194,-6.121375,-7.6171527,-0.6242880999999999,0.08628642,0.14913702,-0.09267801,109.02,14.22,29.58
1554117254213,-6.167464,-7.353192,-1.0211270000000001,0.10972224,0.17470337,-0.10759171,109.02,14.28,29.58
1554117254234,-5.9873,-7.357382,-0.9552864999999999,0.01917476,0.1587244,-0.034088463,109.02,14.34,29.58
1554117254254,-6.06571,-7.7105265,-0.9720459000000001,-0.012783173500000002,0.12570119999999999,0.00958738,109.08,14.28,29.58
1554117254274,-6.120178,-8.050502999999999,-0.9540894,0.039414786,0.14061491,0.013848438000000001,109.08,14.28,29.58
1554117254294,-6.145916000000001,-7.6369047000000005,-1.3060371000000002,0.08948222,0.112918034,-0.012783173500000002,109.08,14.22,29.58
1554117254313,-6.2327056,-7.392098,-1.1360487,0.07882957,0.10546118,-0.029827405,109.02,14.22,29.64
1554117254334,-6.2045736,-7.3723453999999995,-0.9552864999999999,0.080960095,0.1107875,-0.0031957934000000003,108.96,14.16,29.64
1554117254353,-6.251859,-7.2981253,-0.88046765,0.06178534,0.1107875,0.004261058,108.9,14.16,29.7
1554117254373,-6.325481,-7.276577499999999,-1.0929531000000001,-0.06391586,0.080960095,0.00958738,108.78,14.1,29.82
1554117254394,-6.2662244000000005,-7.4567413,-1.0307038,-0.16298546,0.07669904,-0.0010652645,108.66,14.16,29.94
1554117254414,-6.1973910000000005,-7.478289,-0.9768343,-0.14913702,0.058589544,-0.03089267,108.48,14.16,30.06
1554117254434,-6.3218894,-7.498041000000001,-1.2330139,-0.054328485999999995,0.051132694000000006,-0.04474111,108.36,14.16,30.24
1554117254454,-6.1740474999999995,-7.575253999999999,-1.1384428999999998,-0.0010652645,0.06711166,-0.02876214,108.24,14.16,30.36
1554117254474,-6.1620764999999995,-7.6578539999999995,-1.0307038,0.07563378,0.080960095,-0.05752428,108.18,14.16,30.42
1554117254493,-6.019023000000001,-7.574057000000001,-1.1073183000000002,0.094808534,0.07137272,-0.05006743,108.12,14.16,30.54
1554117254513,-6.1530986,-7.5189905,-1.1611878,0.07563378,0.058589544,-0.051132694000000006,108.12,14.16,30.66
1554117254534,-6.2243257000000005,-7.477092,-1.1917138999999999,0.012783173500000002,0.06924219,-0.022370555,108.06,14.16,30.72
1554117254554,-6.2380924,-7.454945599999999,-1.4502877,-0.12463594,0.03834952,0.010652645,108.12,14.16,30.78
1554117254574,-6.1770406,-7.4806833,-0.88645315,-0.26312032,0.094808534,0.013848438000000001,108.12,14.16,30.78
1554117254594,-6.273407,-7.417835,-0.91578215,-0.24394555,0.07776430000000001,0.037284255,108.12,14.22,30.78
1554117254614,-6.149507,-7.3406224,-1.3988123,-0.30360037,0.027696876000000002,0.06391586,108.12,14.22,30.84
1554117254634,-6.2542534000000005,-7.311891999999999,-1.6112977,-0.49641323,0.02876214,0.07456851,108.18,14.22,30.9
1554117254654,-6.1369375999999995,-7.6255326,-1.5071499,-0.7137272,0.010652645,0.12996227,108.18,14.22,30.96
1554117254674,-5.9651537,-7.785944000000001,-1.5927427,-0.8607336999999999,-0.035153727999999995,0.16405073,108.24,14.16,31.02
1554117254693,-5.726930599999999,-8.2037325,-1.049259,-0.69668293,0.018109497,0.16937704,108.18,13.92,31.14
1554117254714,-5.829880999999999,-8.297106,-0.688333,-0.15126756,0.15233281,0.17896444,108.12,13.62,31.26
1554117254733,-5.8221,-8.097789,-0.9223662,0.38562572,0.29507825,0.22903186,108.12,13.32,31.32
1554117254753,-5.7784057,-7.7410526,-1.3311761999999998,0.6892261,0.41225734,0.2428803,108.06,12.78,31.44
1554117254773,-5.840056400000001,-7.5566993,-1.5921441,0.69348717,0.43995422,0.22903186,108.0,12.6,31.44
1554117254793,-5.94181,-7.374739599999999,-1.738789,0.5784385999999999,0.47617322,0.21837921,107.94,12.12,31.5
1554117254814,-6.1076083,-7.348403500000001,-1.5837643999999997,0.44315,0.54648066,0.18535602,107.88,11.7,31.56
1554117254833,-6.625953,-7.146093400000001,-1.8154035,0.30253512,0.5773733,0.19068234,107.82,11.34,31.62
1554117254853,-6.5924344,-7.1227503,-1.7513584999999998,0.17363810000000002,0.5773733,0.221575,107.82,11.22,31.68
1554117254874,-6.6792240000000005,-6.953958999999999,-1.7717092,0.20453078,0.5858955,0.21518342,107.64,11.04,31.8
1554117254894,-6.770204,-6.848015299999999,-1.8405426,0.34194988,0.60080916,0.23329292,107.46,10.92,31.92
1554117254914,-6.7881603,-6.827066,-1.9405005000000002,0.41971418,0.572047,0.20985709,107.34,10.86,32.1
1554117254934,-6.792948700000001,-6.70975,-1.9644424999999999,0.45167214,0.5336975,0.16724652,107.16,10.86,32.34
1554117254954,-6.71813,-6.642114,-2.0081366999999997,0.45060685,0.49747851,0.13635385,106.98,10.98,32.58
1554117254974,-6.6905966,-6.6145806,-2.0159178,0.4825648,0.4825648,0.098004326,106.8,11.04,32.88
1554117254994,-6.7366850000000005,-6.5499372000000005,-2.32058,0.49215218,0.4644553,0.07776430000000001,106.56,11.16,33.18
1554117255014,-6.6504936,-6.558317,-2.5845408,0.38029942,0.43462790000000007,0.07030745599999999,106.38,11.34,33.42
1554117255034,-6.6445084,-6.5403605,-2.5192987999999996,0.20879184,0.4016047,0.041545313,106.2,11.52,33.66
1554117255054,-6.662464599999999,-6.6708446,-2.417545,0.05965481,0.35792887,0.04580637,105.96,11.7,33.84
1554117255074,-6.618172,-6.8067155,-2.4241292000000003,-0.015978966,0.3291667,0.049002163,105.72,11.88,34.02
1554117255094,-6.63553,-6.8905125,-2.3493104,-0.025566347000000003,0.3057309,0.029827405,105.54,12.0,34.14
1554117255114,-6.6534867,-6.922235499999999,-2.3696610000000002,0.004261058,0.2908172,0.014913702,105.3,12.18,34.26
1554117255134,-6.647500999999999,-6.8671690000000005,-2.3133974,0.02876214,0.24181503,0.007456851,105.06,12.24,34.38
1554117255153,-6.7911529999999996,-6.8635779999999995,-2.3888147,0.024501082,0.19281286,0.004261058,104.88,12.36,34.5
1554117255174,-6.855796300000001,-6.902483500000001,-2.2972363999999996,-0.015978966,0.15978967,0.00958738,104.7,12.36,34.68
