TimeStamp,Ax,Ay,Az,Gx,Gy,Gz,Mx,My,Mz
1554207496973,-9.121908,-2.1649568,1.5173253,-0.09267801,0.060720075,-0.08628642,7.98,7.44,-47.76
1554207496993,-9.361329,-2.131438,1.3880384,-0.12250541,0.05219796,-0.07989483,8.28,7.98,-47.52
1554207497014,-9.179369,-2.2990322,1.1246762,-0.17896444,0.012783173500000002,-0.111852765,8.46,8.34,-47.4
1554207497033,-9.346964,-2.2415714,1.2826935,-0.25033715,0.004261058,-0.14274544,8.64,8.52,-47.22
1554207497054,-9.337387,-2.2655133999999997,1.3449427999999999,-0.29614353,0.0031957934000000003,-0.14807177,8.76,8.7,-47.04
1554207497074,-9.255983,-2.4953567999999997,1.5508442,-0.32810146,0.018109497,-0.12783173,8.88,8.94,-46.98
1554207497093,-9.23683,-2.5145104,1.8429368000000002,-0.32277513,0.051132694000000006,-0.10972224,8.94,9.24,-46.86
1554207497114,-9.428367,-2.4378957999999997,1.7615339,-0.24394555,0.07882957,-0.10865697,8.88,9.54,-46.86
1554207497134,-9.509769,-2.3852234,1.584363,-0.17470337,0.07456851,-0.12783173,8.82,9.84,-46.8
1554207497154,-9.332599,-2.5288756,1.5891514,-0.23861924,0.046871635999999994,-0.13102753,8.76,10.14,-46.8
1554207497173,-9.557653,-2.5432408,1.7567455,-0.30892670000000005,0.008522116,-0.13954964,8.7,10.56,-46.8
1554207497193,-9.562441999999999,-2.5576060000000003,1.5891514,-0.27483824,-0.041545313,-0.15765914,8.64,10.98,-46.86
1554207497214,-9.442732000000001,-2.5767596,1.5747862,-0.24074976,-0.13422333,-0.15339808,8.64,11.4,-46.86
1554207497234,-9.260772,-2.8640637000000004,1.4742297,-0.24074976,-0.18322548,-0.14913702,8.58,11.76,-46.86
1554207497253,-9.112331,-2.902371,1.4981716999999999,-0.2130529,-0.22264028,-0.14807177,8.58,12.0,-46.86
1554207497274,-9.002198,-2.806603,1.4598645000000001,-0.16298546,-0.22477080000000002,-0.15020229,8.58,12.24,-46.8
1554207497294,-9.179369,-2.8975825,1.1773487,-0.11504856,-0.19813919,-0.15020229,8.58,12.42,-46.68
1554207497314,-9.126697,-2.8449101000000003,1.2587515,-0.12570119999999999,-0.16724652,-0.13954964,8.52,12.6,-46.5
1554207497334,-9.088389,-2.7778726000000002,1.3497312,-0.13741912,-0.13635385,-0.12570119999999999,8.52,12.72,-46.38
1554207497353,-8.978256,-2.7539306,1.4407108999999998,-0.12570119999999999,-0.096939065,-0.10759171,8.46,12.9,-46.26
1554207497374,-8.901641999999999,-2.6868927000000005,1.407192,-0.08735169,-0.06498113,-0.096939065,8.4,13.14,-46.14
1554207497394,-8.662222,-2.6533740000000003,1.3449427999999999,-0.04261058,-0.04474111,-0.11504856,8.28,13.32,-46.02
1554207497414,-8.413225,-2.461838,1.6370354,0.029827405,-0.02876214,-0.1768339,8.16,13.56,-45.96
1554207497434,-8.259995,-2.4666264,1.5604209999999998,0.09054748,-0.040480047000000005,-0.2790993,8.1,13.74,-45.9
1554207497454,-8.427589999999999,-2.533664,1.7088615000000003,0.17363810000000002,-0.053263225,-0.41971418,7.98,13.98,-45.9
1554207497474,-8.350976,-2.5049335999999998,1.5891514,0.20133498,-0.094808534,-0.5613944000000001,7.92,14.1,-45.96
1554207497493,-8.159439,-2.5480292,1.4694413,0.09054748,-0.15552860000000002,-0.6988135,7.86,14.22,-45.96
1554207497514,-7.896077,-2.581548,1.5269021,-0.1438107,-0.22264028,-0.84581995,7.8,14.28,-46.02
1554207497533,-7.819463000000001,-2.8209682000000003,1.6130934,-0.40906155,-0.28868666,-1.0002834,7.68,14.28,-46.08
1554207497554,-8.226477000000001,-3.3141737,1.8046296000000002,-0.65513766,-0.31638354,-1.1824435,7.62,14.28,-46.14
1554207497573,-8.078036,-3.7116113,1.6226702,-0.7488809000000001,-0.32597092,-1.2559468,7.5,14.52,-46.2
1554207497595,-7.929596000000001,-4.305373,1.4407108999999998,-0.8490158000000001,-0.32384038,-1.3241237,7.32,14.88,-46.26
1554207497614,-7.953538000000001,-4.6932339999999995,1.3497312,-0.89801794,-0.3206446,-1.3432984,7.14,15.54,-46.26
1554207497633,-7.843405000000001,-5.0667295,1.359308,-0.98750013,-0.30786142,-1.3390374,6.72,16.26,-46.26
1554207497654,-7.6518690000000005,-5.3923407,1.359308,-1.0578076,-0.31212249999999997,-1.3145363,6.3,17.1,-46.26
1554207497674,-7.479486,-5.521628,1.311424,-1.0578076,-0.30040458,-1.3028183999999998,6.0,17.58,-46.2
1554207497694,-7.326257000000001,-5.828085400000001,1.287482,-1.0120013,-0.28229508,-1.284709,5.4,18.54,-46.2
1554207497713,-7.3166804,-5.909488,1.1821371,-0.91186637,-0.26418558,-1.2825783000000002,4.86,19.68,-46.08
1554207497733,-7.2448545,-6.000468,1.1821371,-0.82344943,-0.27164245,-1.3070794,4.32,21.0,-45.96
1554207497755,-6.9096660000000005,-6.393117,0.9139864999999999,-0.75633776,-0.25992453,-1.3720607,3.6,22.86,-45.72
1554207497774,-6.804321300000001,-6.3404446,0.8038531999999999,-0.7819041,-0.24607609,-1.4061489999999999,3.06,23.76,-45.42
1554207497793,-6.612785000000001,-6.3404446,0.8086416000000001,-0.7861651999999999,-0.23435818,-1.4519554,2.58,24.72,-45.18
1554207497814,-6.1530986,-6.2781954,0.6697779,-0.7222493000000001,-0.23968449999999997,-1.5776566,1.92,25.56,-44.82
1554207497834,-5.851429,-6.3787518,0.5979519,-0.63915867,-0.24714136,-1.7235979,1.32,26.46,-44.46
1554207497853,-5.511451999999999,-6.5750766,0.40641573,-0.5432849000000001,-0.25033715,-1.861017,0.6,27.42,-44.04
1554207497874,-5.2289367,-6.6947865,0.23882163,-0.4878911,-0.23542345,-1.9845877,-0.24,28.26,-43.56
1554207497894,-5.027823400000001,-7.0587053,-0.42676646,-0.5294364,-0.23861924,-2.07407,-1.08,28.92,-43.2
1554207497913,-5.027823400000001,-7.451353999999999,-0.28311434,-0.9139969000000001,-0.25566345,-2.1667478,-1.92,29.58,-42.9
1554207497933,-4.941632299999999,-8.179192,-0.019752163,-1.2410331000000001,-0.25566345,-2.1667478,-2.88,30.3,-42.6
1554207497954,-4.76925,-8.873510000000001,-0.53211135,-1.5808525,-0.20240025,-2.0996363,-3.84,30.96,-42.36
1554207497974,-4.5537715,-9.041103999999999,-0.6901286,-1.9281287,-0.113983296,-1.9611518000000001,-4.74,31.62,-41.94
1554207497994,-4.5058875,-8.638878,-0.6901286,-2.0932446,-0.007456851,-1.8365159,-5.7,32.22,-41.52
1554207498014,-4.280833,-8.495225999999999,-0.9391255999999999,-2.1369205,0.04474111,-1.808819,-6.72,32.88,-40.98
1554207498033,-3.9600096,-8.772953999999999,-0.46507367,-2.0410466,0.049002163,-1.8439728,-7.8,33.6,-40.26
1554207498054,-3.4428620000000003,-9.812037,-0.88645315,-1.6085493999999998,0.10439592,-1.8748653999999998,-8.94,34.38,-39.36
1554207498074,-2.8060042999999997,-10.266935,-1.1785458,-1.1856394,0.11824436,-1.8205369999999998,-10.08,35.34,-38.46
1554207498093,-2.5187001,-10.219051,-1.4993688,-0.8223841999999999,0.15339808,-1.7353158,-11.16,36.3,-37.5
1554207498114,-2.3654714,-9.993997,-1.7866731,-0.81066626,0.10865697,-1.6607473000000001,-12.18,37.26,-36.48
1554207498134,-2.1260512,-10.559028,-1.8680758000000002,-0.96619487,-0.022370555,-1.5925703000000002,-13.14,38.1,-35.52
1554207498155,-1.685518,-11.349114,-1.5616181,-0.8681905000000001,-0.06924219,-1.4892397,-13.98,38.94,-34.68
1554207498174,-1.283292,-12.220604,-2.404377,-0.49108690000000005,-0.083090626,-1.3464943,-14.82,39.42,-33.84
1554207498194,-1.0821792,-11.51192,-2.3995886000000004,-0.33129725,-0.09161274,-1.144094,-15.54,39.6,-33.24
1554207498213,-1.2306197,-10.453683,-2.4474726,-0.28655612,-0.07989483,-0.9736517,-16.32,39.6,-32.7
1554207498234,-1.3072342,-10.736199000000001,-2.581548,-0.35153726,-0.14274544,-0.8990832000000001,-17.1,39.48,-32.28
1554207498254,-0.89543146,-11.382633,-2.8880057,-0.44741106,-0.221575,-0.8042746999999999,-17.82,39.24,-31.86
1554207498273,-0.49799395,-11.42094,-2.7730842,-0.47404268,-0.24181503,-0.61678815,-18.54,39.0,-31.56
1554207498293,-0.2777274,-10.817602,-2.6868927000000005,-0.37603834,-0.19813919,-0.4282363,-19.32,38.76,-31.38
1554207498313,-0.4405331,-10.4967785,-2.4522612,-0.2066613,-0.13848437,-0.31638354,-20.04,38.52,-31.14
1554207498334,-0.6607997,-9.812037,-2.677316,0.015978966,-0.101200126,-0.24394555,-20.52,38.4,-30.84
1554207498354,-0.60333884,-9.47206,-2.5192987999999996,0.221575,-0.08628642,-0.21624869,-21.0,38.34,-30.6
1554207498373,-0.4261679,-9.108141999999999,-2.6629508,0.32277513,-0.05219796,-0.2130529,-21.42,38.28,-30.42
1554207498394,-0.2873042,-8.787319,-2.6437972000000003,0.3153183,-0.004261058,-0.20133498,-21.72,38.16,-30.18
1554207498414,-0.33039984,-8.768166,-2.8353333,0.17789917,0.054328485999999995,-0.18429075,-22.14,37.92,-29.94
1554207498433,-0.16759412,-8.768166,-2.9694088,-0.06391586,0.07989483,-0.16937704,-22.26,37.74,-29.76
1554207498453,-0.110133275,-8.854357,-3.2040405,-0.28122982,0.10759171,-0.16831179,-22.32,37.68,-29.7
1554207498474,-0.1388637,-9.098564999999999,-3.2471360000000002,-0.608266,0.12570119999999999,-0.19068234,-22.5,37.38,-29.7
1554207498493,-0.19632454,-9.452907000000002,-3.2950199999999996,-0.7574029999999999,0.12250541,-0.20985709,-22.5,37.32,-29.76
1554207498514,-0.24420857,-9.931747,-3.4290953,-0.8426242,0.12463594,-0.21731395,-22.68,37.08,-29.88
1554207498534,-0.2873042,-10.247782,-3.6254199000000003,-0.7595335999999999,0.12676647,-0.21411815,-22.8,36.96,-29.94
1554207498554,-0.47884035,-10.34355,-3.5535938999999996,-0.5795039000000001,0.09161274,-0.22583607,-22.92,36.96,-29.94
1554207498574,-0.3878607,-10.147225,-3.5344403,-0.3685815,0.012783173500000002,-0.22903186,-23.04,36.96,-29.88
1554207498594,-0.45968673,-9.993997,-3.5679589999999997,-0.17150758,-0.06498113,-0.22583607,-23.1,37.02,-29.82
1554207498613,-0.50757074,-9.931747,-3.4721910000000005,-0.053263225,-0.14807177,-0.19600865,-23.16,37.08,-29.58
1554207498633,-0.45968673,-9.816825999999999,-3.2998084999999997,0.05965481,-0.22370553,-0.14807177,-23.22,37.2,-29.34
1554207498654,-0.36870706,-9.596559,-3.232771,0.17044231,-0.29933932,-0.101200126,-23.34,37.26,-29.1
1554207498675,-0.14844051,-9.448118,-3.0699651,0.25992453,-0.32277513,-0.046871635999999994,-23.52,37.38,-28.86
1554207498694,0.023942016,-9.328408,-3.0699651,0.35473305,-0.30466563,0.010652645,-23.7,37.44,-28.62
1554207498714,-0.04309563,-9.199121,-3.0891187,0.40906155,-0.257794,0.07030745599999999,-23.82,37.44,-28.38
1554207498733,0.023942016,-9.021951,-3.1944637000000005,0.38882150000000004,-0.20133498,0.10865697,-23.94,37.38,-28.2
1554207498754,0.05746084,-9.036316000000001,-3.0603882999999996,0.31105720000000003,-0.15446335,0.128897,-24.06,37.32,-28.08
1554207498774,0.18195933,-8.983644,-3.117849,0.21411815,-0.10546118,0.13848437,-24.12,37.26,-28.02
1554207498793,0.19153613,-9.007586,-3.0699651,0.111852765,-0.05539375,0.12676647,-24.24,37.26,-27.96
1554207498814,0.2873042,-8.93576,-3.093907,0.03834952,-0.03195793,0.10333065,-24.3,37.14,-27.96
1554207498833,0.22984336,-9.184756,-3.0556,-0.06498113,0.0031957934000000003,0.07350325,-24.3,37.08,-28.02
1554207498853,0.30166942,-9.266159,-3.1082723,-0.12037488,0.023435817999999997,0.05539375,-24.24,37.02,-28.14
1554207498874,0.24899697,-9.424176,-3.0125043,-0.12250541,0.027696876000000002,0.03195793,-24.18,36.96,-28.26
1554207498894,0.25857377,-9.496002,-3.1370027,-0.09054748,0.03834952,0.024501082,-24.12,36.9,-28.44
1554207498914,0.1436521,-9.596559,-2.9933507,-0.04474111,0.03195793,0.014913702,-24.06,36.84,-28.56
1554207498934,0.17717093,-9.486425,-3.2375592999999996,-0.004261058,0.01917476,0.0010652645,-24.0,36.84,-28.68
1554207498953,0.033518825,-9.44333,-3.117849,0.025566347000000003,-0.0010652645,-0.022370555,-23.88,36.78,-28.8
1554207498973,-0.08619126,-9.337985,-3.1370027,0.002130529,-0.035153727999999995,-0.04261058,-23.82,36.78,-28.92
1554207498994,-0.17238252,-9.328408,-3.0125043,-0.008522116,-0.056459017,-0.054328485999999995,-23.82,36.78,-29.04
1554207499014,-0.19632454,-9.385869,-3.1800982999999996,0.007456851,-0.07350325,-0.07030745599999999,-23.76,36.78,-29.04
1554207499035,-0.19632454,-9.395446000000002,-3.1705215,0.037284255,-0.07776430000000001,-0.07243799,-23.76,36.84,-29.04
1554207499054,-0.29688102,-9.424176,-3.2662897,0.07563378,-0.07456851,-0.09054748,-23.76,36.84,-28.98
1554207499074,-0.23463176,-9.409811,-3.4243068999999995,0.08735169,-0.07137272,-0.09267801,-23.76,36.9,-28.98
1554207499094,-0.24420857,-9.342773,-3.3381157,0.06285059999999999,-0.05539375,-0.07669904,-23.76,36.9,-28.92
1554207499113,-0.26815059999999996,-9.309255,-3.3716345000000003,-0.002130529,-0.04580637,-0.053263225,-23.7,36.96,-28.86
1554207499134,-0.29209262,-9.414599,-3.3237504999999996,-0.05219796,-0.040480047000000005,-0.033023197000000004,-23.7,36.96,-28.8
1554207499153,-0.110133275,-9.500791,-3.141791,-0.047936900000000005,-0.029827405,-0.020240024,-23.64,36.96,-28.74
1554207499173,-0.16280572,-9.505579,-3.232771,0.0,-0.011717908999999999,-0.004261058,-23.58,36.96,-28.68
1554207499193,-0.19632454,-9.419388,-3.2136172999999997,0.05219796,0.0010652645,0.010652645,-23.52,36.96,-28.68
1554207499214,-0.23463176,-9.438541,-3.2902317,0.08522116,0.007456851,0.015978966,-23.46,37.02,-28.62
1554207499234,-0.17717093,-9.462483,-3.232771,0.09054748,0.008522116,0.015978966,-23.4,37.02,-28.56
1554207499254,-0.16759412,-9.333197,-3.1609447,0.07989483,-0.0010652645,0.014913702,-23.34,37.02,-28.56
1554207499274,-0.10055647,-9.285313,-3.1130607000000006,0.083090626,-0.007456851,0.00958738,-23.4,36.96,-28.56
1554207499294,-0.10055647,-9.165602999999999,-2.9694088,0.101200126,-0.008522116,-0.007456851,-23.52,36.96,-28.56
1554207499314,-0.07182605,-9.179967999999999,-3.0172927000000005,0.12570119999999999,-0.004261058,-0.01917476,-23.58,36.96,-28.5
1554207499334,0.01436521,-9.122507,-2.9502552000000004,0.13422333,0.004261058,-0.03089267,-23.7,36.9,-28.5
1554207499354,0.0047884034,-9.088988,-2.8975825,0.09374327,0.012783173500000002,-0.051132694000000006,-23.76,36.9,-28.5
1554207499374,-0.0047884034,-9.165602999999999,-3.0220811000000003,0.056459017,0.024501082,-0.06498113,-23.82,36.84,-28.5
1554207499394,0.10055647,-9.261371,-2.8401217,0.04261058,0.04580637,-0.07989483,-23.88,36.84,-28.5
1554207499413,0.0,-9.409811,-2.9502552000000004,0.034088463,0.060720075,-0.099069595,-23.88,36.78,-28.56
1554207499434,0.12928689,-9.385869,-3.0412347,0.007456851,0.09161274,-0.10972224,-23.88,36.78,-28.56
1554207499456,0.05746084,-9.328408,-2.926313,-0.04261058,0.14168017,-0.099069595,-23.76,36.72,-28.62
1554207499474,0.0047884034,-9.428965,-3.0651767000000003,-0.08841695,0.16724652,-0.08841695,-23.76,36.66,-28.62
1554207499493,-0.16759412,-9.649231,-3.117849,-0.14913702,0.1949434,-0.09161274,-23.82,36.6,-28.68
1554207499514,-0.11492168,-9.754577000000001,-2.9311013,-0.19600865,0.19707392,-0.08522116,-23.82,36.54,-28.74
1554207499533,-0.23463176,-9.816825999999999,-2.8832173,-0.16937704,0.20559604,-0.07563378,-23.82,36.48,-28.8
1554207499554,-0.24899697,-9.677961,-2.830545,-0.1107875,0.19707392,-0.056459017,-23.82,36.48,-28.8
1554207499573,-0.39264908,-9.639654,-2.8975825,-0.056459017,0.19281286,-0.04580637,-23.76,36.54,-28.8
1554207499593,-0.41180268,-9.620500999999999,-2.9550436,0.01917476,0.16937704,-0.05219796,-23.64,36.66,-28.8
1554207499614,-0.36391866,-9.467272,-2.8209682000000003,0.047936900000000005,0.14594123,-0.05752428,-23.58,36.78,-28.86
1554207499634,-0.2825158,-9.476849000000001,-2.902371,0.05752428,0.12996227,-0.07137272,-23.46,36.96,-28.86
1554207499654,-0.20590134,-9.309255,-2.8880057,0.05219796,0.12570119999999999,-0.080960095,-23.34,37.14,-28.86
1554207499674,-0.21068975,-9.20391,-2.9789855,0.035153727999999995,0.11504856,-0.08735169,-23.22,37.26,-28.8
1554207499694,-0.13407529999999998,-9.242217,-3.031658,0.023435817999999997,0.112918034,-0.09161274,-23.1,37.38,-28.8
1554207499714,-0.02873042,-9.247005,-3.1800982999999996,0.0053263223,0.111852765,-0.09587380000000001,-23.04,37.44,-28.92
1554207499734,-0.019153614,-9.357139,-2.9694088,-0.033023197000000004,0.10439592,-0.094808534,-23.04,37.44,-29.04
1554207499754,-0.019153614,-9.357139,-3.0220811000000003,-0.024501082,0.12676647,-0.082025364,-23.04,37.38,-29.16
1554207499773,0.062249242999999996,-9.381081,-3.1705215,-0.012783173500000002,0.12783173,-0.07350325,-23.04,37.32,-29.28
1554207499798,-0.023942016,-9.337985,-3.1130607000000006,-0.011717908999999999,0.12996227,-0.07350325,-23.04,37.26,-29.4
1554207499814,0.01436521,-9.299678,-2.9741971,0.0010652645,0.11930962,-0.07563378,-23.04,37.14,-29.52
1554207499834,0.04309563,-9.194333,-3.141791,0.013848438000000001,0.111852765,-0.07030745599999999,-23.1,37.08,-29.64
1554207499854,0.11971009,-9.44333,-3.0029275,0.026631612000000002,0.10865697,-0.07030745599999999,-23.1,37.02,-29.76
1554207499874,0.20111294,-9.361927,-3.1561562999999997,0.020240024,0.09374327,-0.07456851,-23.1,36.96,-29.76
1554207499894,0.1436521,-9.428965,-3.1609447,0.02130529,0.083090626,-0.07456851,-23.1,36.96,-29.76
1554207499914,0.05746084,-9.361927,-3.1082723,0.022370555,0.07989483,-0.060720075,-23.1,36.96,-29.82
1554207499933,0.038307227,-9.376292,-3.031658,0.029827405,0.083090626,-0.04474111,-23.1,36.96,-29.82
1554207499953,-0.019153614,-9.35235,-2.8401217,0.036218993,0.07030745599999999,-0.04261058,-23.1,36.96,-29.82
1554207499974,0.0047884034,-9.424176,-3.0747535,0.029827405,0.05752428,-0.047936900000000005,-23.04,37.02,-29.88
1554207499994,-0.05746084,-9.414599,-2.902371,0.018109497,0.04261058,-0.051132694000000006,-22.98,37.02,-29.94
1554207500014,-0.01436521,-9.529521,-3.0268695,0.010652645,0.034088463,-0.04474111,-22.98,37.02,-29.94
1554207500034,-0.01436521,-9.543886,-3.007716,0.008522116,0.02130529,-0.03834952,-22.92,37.02,-30.0
1554207500053,-0.01436521,-9.529521,-3.0125043,0.0063915867,0.008522116,-0.03834952,-22.92,37.02,-30.06
1554207500073,-0.047884032,-9.496002,-3.0651767000000003,0.013848438000000001,-0.0053263223,-0.036218993,-22.86,37.02,-30.12
1554207500094,-0.01436521,-9.44333,-2.9694088,0.024501082,-0.015978966,-0.029827405,-22.8,37.02,-30.12
1554207500114,0.033518825,-9.467272,-3.0843303,0.037284255,-0.027696876000000002,-0.023435817999999997,-22.8,37.02,-30.18
1554207500133,0.110133275,-9.405023,-3.0125043,0.05539375,-0.036218993,-0.013848438000000001,-22.74,36.96,-30.18
1554207500153,0.15801731,-9.390657000000001,-3.103484,0.068176925,-0.03834952,-0.0053263223,-22.86,36.96,-30.24
1554207500173,0.11492168,-9.424176,-2.9837740000000004,0.05965481,-0.040480047000000005,-0.002130529,-22.86,36.96,-30.24
1554207500194,0.19632454,-9.304466,-2.9694088,0.033023197000000004,-0.04580637,-0.0053263223,-22.98,36.9,-30.3
1554207500213,0.10534488,-9.242217,-2.926313,0.017044231,-0.047936900000000005,-0.012783173500000002,-23.04,36.9,-30.3
1554207500234,-0.023942016,-9.357139,-2.9406781000000004,-0.0031957934000000003,-0.06391586,-0.034088463,-23.1,36.96,-30.36
1554207500254,0.05746084,-9.385869,-2.8832173,0.002130529,-0.06924219,-0.046871635999999994,-23.16,36.96,-30.36
1554207500274,0.08140286,-9.500791,-2.9311013,0.008522116,-0.082025364,-0.05006743,-23.16,36.96,-30.36
1554207500294,0.05267244,-9.438541,-2.9358897,0.007456851,-0.09161274,-0.053263225,-23.16,36.96,-30.36
1554207500313,-0.033518825,-9.491214,-2.9789855,0.007456851,-0.10333065,-0.06498113,-23.1,36.96,-30.3
1554207500333,-0.0047884034,-9.496002,-3.007716,0.00958738,-0.113983296,-0.07456851,-23.1,36.96,-30.24
1554207500355,0.033518825,-9.553463,-2.8832173,0.011717908999999999,-0.12570119999999999,-0.07882957,-23.04,36.96,-30.18
1554207500374,0.047884032,-9.567828,-2.878429,0.022370555,-0.13102753,-0.07882957,-23.04,36.9,-30.12
1554207500394,-0.019153614,-9.452907000000002,-2.9885623,0.04261058,-0.128897,-0.07563378,-23.04,36.84,-30.06
1554207500413,0.02873042,-9.510367,-2.7587189999999997,0.039414786,-0.12783173,-0.080960095,-23.04,36.78,-30.0
1554207500433,0.047884032,-9.47206,-2.9837740000000004,0.03089267,-0.128897,-0.08735169,-23.04,36.72,-29.94
1554207500454,0.019153614,-9.448118,-3.0029275,0.03089267,-0.12996227,-0.08948222,-23.04,36.66,-29.94
1554207500474,0.04309563,-9.47206,-2.878429,0.018109497,-0.13848437,-0.080960095,-23.04,36.6,-29.94
1554207500494,0.11492168,-9.505579,-2.9933507,0.02130529,-0.14274544,-0.07243799,-23.04,36.48,-29.94
1554207500513,0.009576807,-9.448118,-2.9215245,0.02876214,-0.14807177,-0.06924219,-23.1,36.42,-29.94
1554207500533,0.047884032,-9.424176,-2.9167361,0.026631612000000002,-0.14807177,-0.058589544,-23.1,36.42,-29.94
1554207500554,0.11492168,-9.438541,-2.8401217,0.039414786,-0.14487597,-0.053263225,-23.1,36.36,-29.94
1554207500573,0.1388637,-9.299678,-2.806603,0.051132694000000006,-0.14168017,-0.056459017,-23.16,36.36,-29.94
1554207500593,0.11492168,-9.371504,-2.9311013,0.05006743,-0.14807177,-0.060720075,-23.16,36.36,-29.88
1554207500614,0.18674773,-9.294889,-3.031658,0.036218993,-0.14594123,-0.06498113,-23.22,36.36,-29.88
1554207500634,0.12449849,-9.419388,-2.9837740000000004,0.011717908999999999,-0.1438107,-0.07350325,-23.28,36.3,-29.88
1554207500654,0.17717093,-9.519944,-2.9215245,-0.00958738,-0.15020229,-0.07989483,-23.34,36.3,-29.88
1554207500674,0.23463176,-9.361927,-2.8257565,-0.00958738,-0.15020229,-0.07882957,-23.46,36.3,-29.82
1554207500693,0.22984336,-9.433753,-2.7635074,0.011717908999999999,-0.1587244,-0.07350325,-23.64,36.3,-29.82
1554207500713,0.17717093,-9.500791,-2.7156234,0.033023197000000004,-0.16192019,-0.07137272,-23.76,36.3,-29.82
1554207500734,0.19153613,-9.476849000000001,-2.8401217,0.05006743,-0.16724652,-0.06391586,-23.88,36.3,-29.82
1554207500754,0.21068975,-9.548675,-2.8113914,0.056459017,-0.16298546,-0.051132694000000006,-24.0,36.24,-29.82
1554207500774,0.19153613,-9.476849000000001,-2.9311013,0.047936900000000005,-0.1587244,-0.04474111,-24.06,36.24,-29.82
1554207500794,0.1436521,-9.428965,-2.8209682000000003,0.047936900000000005,-0.14807177,-0.035153727999999995,-24.12,36.18,-29.82
1554207500813,0.17717093,-9.44333,-2.782661,0.04474111,-0.12996227,-0.029827405,-24.18,36.18,-29.82
1554207500833,0.20111294,-9.414599,-2.9071592999999996,0.037284255,-0.10865697,-0.02876214,-24.18,36.18,-29.82
1554207500853,0.22026655,-9.539098,-2.8257565,0.02876214,-0.09054748,-0.026631612000000002,-24.12,36.12,-29.76
1554207500874,0.18674773,-9.433753,-2.6725276,0.025566347000000003,-0.06498113,-0.017044231,-24.06,36.12,-29.76
1554207500895,0.12928689,-9.529521,-2.6437972000000003,0.034088463,-0.056459017,-0.012783173500000002,-24.06,36.06,-29.7
1554207500913,0.019153614,-9.462483,-2.7299886000000004,0.056459017,-0.043675844000000005,-0.008522116,-24.06,35.94,-29.7
1554207500935,-0.047884032,-9.385869,-2.7682957999999998,0.07350325,-0.049002163,-0.018109497,-24.12,35.88,-29.64
1554207500953,-0.0047884034,-9.491214,-2.6725276,0.09374327,-0.054328485999999995,-0.024501082,-24.18,35.76,-29.64
1554207500973,0.0,-9.524733,-2.8592752999999997,0.09161274,-0.047936900000000005,-0.026631612000000002,-24.18,35.64,-29.64
1554207500994,0.02873042,-9.510367,-2.7539306,0.07563378,-0.05219796,-0.022370555,-24.24,35.58,-29.64
1554207501014,-0.009576807,-9.500791,-2.7347770000000002,0.053263225,-0.056459017,-0.017044231,-24.3,35.46,-29.64
1554207501034,0.090979666,-9.524733,-2.6868927000000005,0.03089267,-0.047936900000000005,-0.008522116,-24.36,35.4,-29.64
1554207501054,0.009576807,-9.582193,-2.6485856,0.017044231,-0.03834952,0.0010652645,-24.36,35.34,-29.64
1554207501074,0.033518825,-9.582193,-2.710835,0.027696876000000002,-0.01917476,0.0053263223,-24.36,35.28,-29.64
1554207501094,0.07182605,-9.357139,-2.7252002,0.040480047000000005,-0.004261058,0.007456851,-24.36,35.34,-29.64
1554207501114,0.0047884034,-9.390657000000001,-2.677316,0.03195793,0.002130529,0.0010652645,-24.36,35.34,-29.64
1554207501133,0.019153614,-9.505579,-2.7635074,0.00958738,0.002130529,-0.0063915867,-24.36,35.34,-29.64
1554207501153,0.10055647,-9.539098,-2.6007016,0.00958738,0.013848438000000001,0.0,-24.36,35.34,-29.64
1554207501173,0.01436521,-9.615712,-2.7299886000000004,0.020240024,0.025566347000000003,0.007456851,-24.36,35.34,-29.64
1554207501194,-0.038307227,-9.491214,-2.7539306,0.025566347000000003,0.024501082,0.0063915867,-24.42,35.34,-29.64
1554207501214,-0.01436521,-9.563039999999999,-2.6342204,0.018109497,0.01917476,0.007456851,-24.42,35.34,-29.64
1554207501234,0.009576807,-9.486425,-2.5528176,0.034088463,0.014913702,0.007456851,-24.42,35.34,-29.64
1554207501253,-0.01436521,-9.438541,-2.8018146,0.053263225,0.023435817999999997,0.015978966,-24.48,35.34,-29.58
1554207501273,-0.023942016,-9.438541,-2.6581624,0.043675844000000005,0.034088463,0.015978966,-24.48,35.34,-29.58
1554207501294,0.0047884034,-9.390657000000001,-2.6437972000000003,0.023435817999999997,0.04580637,0.007456851,-24.48,35.34,-29.64
1554207501313,-0.047884032,-9.496002,-2.6581624,0.00958738,0.05752428,0.0010652645,-24.48,35.34,-29.7
1554207501334,-0.05267244,-9.476849000000001,-2.6964695,-0.0063915867,0.06285059999999999,-0.002130529,-24.42,35.34,-29.82
1554207501354,-0.10534488,-9.519944,-2.7252002,-0.03195793,0.05965481,-0.0053263223,-24.36,35.34,-29.94
1554207501374,-0.04309563,-9.529521,-2.6007016,-0.04580637,0.056459017,-0.01917476,-24.24,35.34,-30.0
1554207501393,-0.06703765,-9.519944,-2.6533740000000003,-0.043675844000000005,0.056459017,-0.035153727999999995,-24.18,35.4,-30.0
1554207501413,-0.06703765,-9.553463,-2.7012582000000003,-0.04580637,0.054328485999999995,-0.039414786,-24.06,35.46,-29.94
1554207501434,-0.05746084,-9.539098,-2.7970262000000004,-0.060720075,0.05006743,-0.06391586,-24.0,35.52,-29.94
1554207501454,-0.10534488,-9.601347,-2.7060466,-0.07243799,0.02876214,-0.09054748,-23.94,35.52,-29.82
1554207501474,-0.10055647,-9.563039999999999,-2.5911248,-0.07243799,0.012783173500000002,-0.09587380000000001,-23.88,35.58,-29.76
1554207501494,-0.05746084,-9.481637,-2.6485856,-0.05006743,0.002130529,-0.09161274,-23.88,35.64,-29.7
1554207501514,-0.22984336,-9.582193,-2.5528176,-0.040480047000000005,-0.007456851,-0.10759171,-23.88,35.64,-29.64
1554207501534,-0.22505496,-9.539098,-2.5911248,-0.025566347000000003,-0.022370555,-0.11717909,-23.94,35.7,-29.64
1554207501554,-0.02873042,-9.491214,-2.7299886000000004,-0.007456851,-0.04580637,-0.12996227,-23.94,35.64,-29.64
1554207501574,0.0,-9.553463,-2.7252002,-0.008522116,-0.049002163,-0.12783173,-23.94,35.64,-29.7
1554207501594,-0.05267244,-9.476849000000001,-2.581548,-0.01917476,-0.04474111,-0.11717909,-24.0,35.58,-29.76
1554207501614,-0.062249242999999996,-9.548675,-2.7443538,-0.02130529,-0.04474111,-0.111852765,-24.0,35.58,-29.82
1554207501633,0.009576807,-9.59177,-2.6821042999999998,-0.013848438000000001,-0.04261058,-0.096939065,-24.0,35.58,-29.88
1554207501653,-0.0047884034,-9.510367,-2.8353333,0.0053263223,-0.024501082,-0.06178534,-24.0,35.58,-29.88
1554207501674,0.062249242999999996,-9.620500999999999,-2.6821042999999998,0.004261058,-0.014913702,-0.037284255,-24.0,35.58,-29.88
1554207501694,0.05267244,-9.534309,-2.7539306,0.0053263223,-0.00958738,-0.01917476,-24.12,35.58,-29.94
1554207501714,0.1388637,-9.405023,-2.7635074,0.0063915867,0.004261058,0.0,-24.18,35.58,-29.94
1554207501733,0.13407529999999998,-9.376292,-2.7156234,-0.012783173500000002,0.015978966,0.004261058,-24.3,35.64,-30.0
1554207501754,0.076614454,-9.481637,-2.677316,-0.040480047000000005,0.013848438000000001,0.0010652645,-24.36,35.64,-30.0
1554207501774,0.15322891,-9.390657000000001,-2.7252002,-0.04261058,0.015978966,0.0,-24.48,35.64,-30.06
1554207501793,0.17717093,-9.476849000000001,-2.8113914,-0.037284255,0.01917476,0.0053263223,-24.48,35.64,-30.06
1554207501813,0.023942016,-9.448118,-2.8688521000000002,-0.035153727999999995,0.026631612000000002,0.0053263223,-24.54,35.64,-30.12
1554207501834,-0.05267244,-9.524733,-2.8736405,-0.043675844000000005,0.02876214,-0.0031957934000000003,-24.6,35.64,-30.12
1554207501854,-0.047884032,-9.86471,-3.0268695,-0.09374327,0.03089267,0.008522116,-24.6,35.64,-30.12
1554207501875,-0.30166942,-10.544661999999999,-3.3955764999999998,-0.26738137,0.0063915867,0.07563378,-24.6,35.64,-30.12
1554207501894,-0.545878,-11.00435,-3.4386723,-0.43569317,-0.035153727999999995,0.19281286,-24.6,35.64,-30.12
1554207501914,-0.8858546,-11.63163,-3.2471360000000002,-0.44421527,-0.09054748,0.3653857,-24.54,35.64,-30.06
1554207501934,-1.2641385,-11.976396000000001,-3.4099417,-0.2727077,-0.13422333,0.59228706,-24.54,35.7,-30.0
1554207501953,-1.5514427,-11.760917999999998,-3.4195184999999997,-0.07243799,-0.20026971,0.8447546999999999,-24.48,35.88,-29.94
1554207501974,-1.8818424999999999,-11.914146,-3.5296519,0.043675844000000005,-0.29188246,1.067395,-24.42,36.24,-29.76
1554207501994,-2.2697031,-11.923722999999999,-3.5152867,0.13422333,-0.4079963,1.2964269,-24.24,36.72,-29.52
1554207502014,-2.6479871,-11.487978,-3.3189620000000004,0.24714136,-0.515588,1.567004,-24.0,37.2,-29.28
1554207502034,-2.8060042999999997,-11.080964,-3.2758665000000002,0.33768883,-0.62317973,1.804558,-23.64,37.86,-28.98
1554207502053,-3.1747115000000004,-10.67395,-3.127426,0.38562572,-0.72651035,1.9835223999999998,-23.16,38.46,-28.74
1554207502073,-3.5913025999999997,-10.367492,-2.6007016,0.43888897,-0.8319715,2.1379857,-22.5,39.12,-28.5
1554207502094,-3.6679169999999996,-10.056246,-2.461838,0.57417756,-0.9267801,2.2743397,-21.66,39.72,-28.32
1554207502113,-3.6535518,-9.548675,-2.059612,0.721184,-0.96939063,2.3702134999999998,-20.82,40.26,-28.14
1554207502133,-3.9695864000000003,-9.179967999999999,-2.1505916000000003,0.99069595,-0.9832390999999999,2.4543692999999998,-19.92,40.68,-28.02
1554207502154,-4.510676,-8.681973,-1.9015948,1.1377025,-0.9917611999999999,2.466087,-19.08,41.04,-28.02
1554207502173,-4.5777135,-8.145673,-1.6238673000000001,1.2069446000000001,-0.99921805,2.4788704,-18.24,41.4,-28.02
1554207502194,-4.6495394999999995,-8.016386,-1.6238673000000001,1.2857742,-1.0056095999999999,2.4639566000000004,-17.28,41.76,-28.02
1554207502214,-4.7644614999999995,-7.542333999999999,-1.2886791000000002,1.2825783000000002,-0.96299905,2.4138892000000003,-16.08,42.18,-28.14
1554207502233,-4.9895163,-7.1113777,-0.96306765,1.2314457,-0.902279,2.360626,-14.82,42.54,-28.38
1554207502253,-5.2145715,-6.7043633,-1.0301052,1.164334,-0.8511463,2.2913837000000004,-13.68,42.9,-28.86
1554207502274,-5.1906295,-6.4601545,-0.7236475,1.1025486999999998,-0.8042746999999999,2.1731396000000003,-12.42,43.08,-29.4
1554207502293,-5.2863975,-6.168062,-0.30705637,1.0695255,-0.72011876,2.005893,-11.16,43.26,-30.0
1554207502316,-5.3247046,-5.885546,-0.10594343,1.1068097,-0.61891866,1.8333201000000001,-9.84,43.32,-30.6
1554207502334,-5.305551,-5.497685400000001,0.25318682,1.1984226,-0.515588,1.6415724999999999,-8.46,43.14,-31.32
1554207502354,-5.3247046,-5.0523643,0.43993455,1.3081448,-0.40373522,1.4210628,-7.2,42.9,-32.1
1554207502373,-5.57849,-5.0284224,0.6985083000000001,1.4029533,-0.32170987,1.1739215,-6.24,42.42,-33.0
1554207502394,-6.023811299999999,-4.8895583,0.9139864999999999,1.4466291999999998,-0.22050974,0.9374326999999999,-5.46,41.7,-33.84
1554207502414,-6.459556,-4.6932339999999995,0.96665895,1.4210628,-0.1470065,0.75420725,-4.74,40.92,-34.5
1554207502434,-6.794744500000001,-4.5352163,0.9379284999999999,1.2655341999999998,-0.10226539,0.62104917,-4.08,40.2,-35.16
1554207502454,-7.0485296,-4.3436804,1.1007341999999998,0.99282646,-0.06924219,0.51452273,-3.42,39.3,-35.94
1554207502474,-7.3071036,-4.156933,1.4119805,0.6743124,-0.049002163,0.4048005,-2.76,38.4,-36.72
1554207502493,-7.5369470000000005,-4.3436804,1.4838065,0.3334278,-0.03089267,0.28975195,-2.1,37.56,-37.56
1554207502513,-7.963114699999999,-4.4538136,1.5652093999999999,-0.0010652645,0.0031957934000000003,0.20772657,-1.68,36.72,-38.28
1554207502535,-8.192958,-4.702811,1.7902644,-0.23435818,0.013848438000000001,0.18109496,-1.26,35.94,-38.94
1554207502553,-8.221688,-4.899135,1.9865887999999998,-0.27057716,0.010652645,0.17044231,-0.96,35.46,-39.42
1554207502575,-8.355764,-5.0906715,2.0153193,-0.11824436,0.0053263223,0.15978967,-0.72,34.98,-39.9
1554207502593,-8.355764,-5.1002483,2.3409307,0.13954964,-0.0031957934000000003,0.17150758,-0.48,34.68,-40.26
1554207502613,-8.269572,-4.899135,2.307412,0.44421527,0.0053263223,0.17896444,-0.36,34.38,-40.5
1554207502634,-8.441956,-4.573524,2.1110873,0.6583334,0.017044231,0.16405073,-0.3,34.2,-40.56
1554207502654,-8.451532,-4.267066000000001,1.6130934,0.6593986999999999,0.017044231,0.165116,-0.36,33.9,-40.44
1554207502673,-8.470686,-4.1665095999999995,1.7711107,0.51026165,0.018109497,0.1768339,-0.36,33.78,-40.44
1554207502693,-8.264783999999999,-4.2383356,1.8956091,0.26312032,0.013848438000000001,0.18002969,-0.36,33.42,-40.38
1554207502713,-8.327033,-4.2814309999999995,1.7806876,0.029827405,0.002130529,0.18535602,-0.36,33.0,-40.5
1554207502734,-8.317456,-4.540005000000001,1.7806876,-0.15552860000000002,-0.0063915867,0.21198763,-0.3,32.64,-40.56
1554207502754,-8.240842,-4.472967,2.0201077,-0.23435818,-0.007456851,0.221575,-0.3,32.28,-40.68
1554207502773,-8.312667999999999,-4.429871599999999,2.1110873,-0.24394555,-0.007456851,0.21944448,-0.24,31.86,-40.98
1554207502794,-8.087613000000001,-4.3963529999999995,2.1398177000000005,-0.1587244,-0.0053263223,0.19387813,-0.18,31.74,-41.22
1554207502813,-8.010999,-4.386776,2.0727801,-0.017044231,0.0010652645,0.14274544,-0.18,31.68,-41.28
1554207502833,-8.178593,-4.094683600000001,1.9722236000000002,0.18322548,0.018109497,0.07563378,-0.06,31.68,-41.46
1554207502855,-8.37013,-4.0707417,1.5364790000000002,0.22903186,0.020240024,0.023435817999999997,0.12,31.92,-41.64
1554207502873,-8.39886,-4.1760864,1.5125369,0.09587380000000001,0.0010652645,-0.0031957934000000003,0.3,32.04,-41.7
1554207502893,-8.427589999999999,-4.4059295999999994,1.7040731,-0.07563378,-0.011717908999999999,-0.008522116,0.48,31.98,-41.7
1554207502914,-8.293514,-4.2622776,2.0536265,-0.12570119999999999,-0.012783173500000002,-0.010652645,0.6,31.98,-41.76
1554207502934,-8.312667999999999,-4.180875,1.9913772,-0.07350325,-0.010652645,-0.01917476,0.72,31.98,-41.76
1554207502953,-8.379706,-4.2814309999999995,2.0392613,-0.011717908999999999,-0.00958738,-0.020240024,0.9,31.8,-41.7
1554207502973,-8.623915,-4.267066000000001,2.1829132999999996,0.046871635999999994,-0.0031957934000000003,-0.036218993,1.02,31.68,-41.7
1554207502993,-8.494628,-4.1904516,1.9626468000000001,0.07030745599999999,-0.013848438000000001,-0.056459017,1.08,31.62,-41.64
1554207503014,-8.556877,-4.324527,2.0296845,0.039414786,-0.01917476,-0.049002163,1.14,31.56,-41.58
1554207503034,-8.585608,-4.2957964,2.202067,0.004261058,-0.03089267,-0.03834952,1.14,31.56,-41.52
1554207503054,-8.542512,-4.4442368,2.154183,0.026631612000000002,-0.040480047000000005,-0.039414786,1.14,31.68,-41.46
1554207503074,-8.389283,-4.31495,2.1158757,0.101200126,-0.053263225,-0.04580637,1.2,31.74,-41.4
1554207503094,-8.504205,-4.3436804,2.235586,0.15339808,-0.04474111,-0.040480047000000005,1.2,31.8,-41.4
1554207503114,-8.628703,-4.300585,2.235586,0.22903186,-0.03834952,-0.026631612000000002,1.2,31.8,-41.34
1554207503133,-8.6095495,-4.1665095999999995,2.2068555,0.28442562,-0.036218993,-0.020240024,1.14,31.8,-41.34
1554207503153,-8.738836000000001,-4.0276456,2.082357,0.28442562,-0.04261058,-0.023435817999999997,1.14,31.74,-41.4
1554207503173,-8.690952000000001,-3.9558197999999996,1.9195513,0.221575,-0.046871635999999994,-0.027696876000000002,1.14,31.62,-41.4
1554207503194,-8.576031,-3.8552632000000004,1.929128,0.11824436,-0.053263225,-0.03089267,1.08,31.5,-41.4
1554207503214,-8.451532,-3.8839936,1.9387047999999998,-0.011717908999999999,-0.054328485999999995,-0.033023197000000004,1.08,31.38,-41.52
1554207503234,-8.6334915,-3.7882257000000004,1.8620903000000002,-0.080960095,-0.06178534,-0.037284255,1.02,31.26,-41.64
1554207503254,-8.303091,-3.8744167999999997,2.1924900000000003,-0.10226539,-0.07563378,-0.04580637,1.02,31.08,-41.76
1554207503274,-7.963114699999999,-3.9749733999999997,2.0632033,-0.10972224,-0.06391586,-0.07669904,1.02,30.9,-41.88
1554207503294,-8.058883,-3.9845502,2.28347,0.00958738,-0.04474111,-0.12783173,1.02,30.78,-42.0
1554207503313,-7.6614455999999995,-3.4674027,2.2882583,0.18322548,-0.043675844000000005,-0.20559604,0.96,30.66,-42.12
1554207503334,-7.6231384,-3.5392287000000002,2.1733365,0.257794,-0.022370555,-0.30892670000000005,0.96,30.6,-42.24
1554207503354,-7.422025,-3.5727474999999997,2.0775685,0.13209279,0.002130529,-0.40053943,0.96,30.48,-42.3
1554207503374,-7.201759,-3.7499184999999997,2.0775685,-0.047936900000000005,0.00958738,-0.5070659000000001,0.9,30.42,-42.36
1554207503394,-6.991069,-3.5823242999999994,1.9387047999999998,-0.23861924,0.026631612000000002,-0.65513766,0.84,30.36,-42.36
1554207503414,-6.7516490000000005,-3.6445735,2.1254525,-0.41864893,0.013848438000000001,-0.8362325999999999,0.78,30.36,-42.36
1554207503434,-6.5505357,-4.0372224,2.0679917000000003,-0.5123922000000001,-0.00958738,-1.0428939,0.72,30.36,-42.36
1554207503454,-6.2249246,-4.5016975,1.8764555,-0.5518069999999999,-0.023435817999999997,-1.3049488999999999,0.42,30.42,-42.36
1554207503473,-6.1818290000000005,-4.630985,1.4981716999999999,-0.5518069999999999,-0.013848438000000001,-1.4689997,0.3,30.48,-42.36
1554207503493,-6.3446345,-4.8704047,1.1246762,-0.57098174,0.0,-1.6724651999999998,0.06,30.54,-42.3
1554207503514,-6.2871737,-5.109825,0.86131406,-0.68176925,-0.008522116,-1.8631475,-0.24,30.78,-42.24
1554207503534,-6.1578870000000006,-5.507262,0.40162733,-0.9044095,-0.039414786,-2.0506341,-0.6,31.08,-42.0
1554207503553,-5.8945246,-6.2351,0.39205053,-1.2026836,-0.08841695,-2.2285333,-1.38,31.98,-41.64
1554207503573,-5.693412,-6.938994999999999,0.6937199000000001,-1.2761868,-0.099069595,-2.2871227000000003,-2.1,32.58,-41.34
1554207503594,-5.5976434,-7.844003,0.86131406,-1.0450244,-0.10652645,-2.3180156000000003,-2.88,33.24,-41.04
1554207503614,-5.334281400000001,-8.533533,0.86131406,-0.67963874,-0.07989483,-2.288188,-3.78,33.9,-40.62
1554207503633,-5.1762643,-8.648455,0.85173726,-0.44421527,-0.06604639400000001,-2.2200112,-4.92,34.62,-40.08
1554207503654,-5.090072599999999,-8.164826,1.2826935,-0.20559604,-0.043675844000000005,-2.0996363,-6.18,35.34,-39.6
1554207503674,-4.9464207,-8.327632000000001,1.0815806000000001,-0.084155895,-0.068176925,-2.0900488,-7.44,35.94,-39.18
1554207503694,-4.8123455,-8.346786,1.0528502,-0.06711166,-0.09267801,-2.1081583,-8.76,36.3,-38.88
1554207503714,-4.3047748,-8.5862055,1.3257892,-0.07989483,-0.13209279,-2.1007016,-9.96,36.54,-38.58
1554207503734,-3.9360676,-8.677185,1.5125369,-0.049002163,-0.15233281,-2.111354,-11.1,36.66,-38.28
1554207503754,-3.6008794,-8.978855000000001,1.5891514,0.04261058,-0.20453078,-2.171009,-12.18,36.66,-38.04
1554207503773,-2.944868,-9.251794,1.6801311,0.02876214,-0.25353295,-2.1731396000000003,-13.26,36.48,-37.86
1554207503793,-2.4708161,-9.922171,1.8142063999999998,0.07137272,-0.28868666,-2.1209416,-14.4,35.94,-37.98
1554207503814,-2.3175871,-10.046669,1.8046296000000002,0.17363810000000002,-0.26312032,-2.0708742,-15.42,35.28,-37.98
1554207503834,-2.3127987,-9.807249,1.3640964,0.10972224,-0.2609898,-2.0367856,-16.5,34.44,-38.04
1554207503853,-1.7764976000000003,-10.108918,1.7375918999999997,-0.24607609,-0.31105720000000003,-1.9483686999999998,-17.58,33.66,-38.1
1554207503873,-1.1348516000000002,-10.860698,2.0919337,-0.27696875,-0.27377295,-1.8024273999999998,-18.6,32.7,-38.16
1554207503894,-0.79966336,-11.54065,1.8860323,0.08735169,-0.20240025,-1.6980315,-19.68,31.74,-38.34
1554207503913,-0.6943185000000001,-11.444882000000002,1.5077485000000002,0.3334278,-0.13102753,-1.6298546,-20.64,30.78,-38.52
1554207503933,-0.7422025,-11.162367,1.2012907,0.40373522,-0.10652645,-1.5116103,-21.48,29.76,-38.64
1554207503954,-0.30166942,-10.740988,1.5125369,0.07882957,-0.05752428,-1.2399678,-22.2,28.62,-38.76
1554207503974,-0.090979666,-10.975619,1.8046296000000002,-0.09054748,-0.013848438000000001,-1.0705907,-22.92,27.6,-38.88
1554207503993,-0.110133275,-10.961253999999998,1.9147629000000002,0.0063915867,0.06498113,-0.9374326999999999,-23.64,26.58,-39.0
1554207504014,-0.090979666,-10.630854,2.1350293,0.41225734,0.14061491,-0.8341021000000001,-24.24,25.5,-39.18
1554207504034,0.05746084,-10.439318,1.7375918999999997,0.8852348,0.16937704,-0.7978831000000001,-24.9,24.54,-39.3
1554207504054,0.35434186,-9.998785,1.6944963,1.1739215,0.17150758,-0.76485986,-25.44,23.64,-39.36
1554207504073,0.545878,-9.677961,1.4359225,1.2719258,0.14487597,-0.71798825,-25.98,22.74,-39.42
1554207504094,0.7469909,-9.6923275,1.1629834,1.0524813,0.043675844000000005,-0.6679208000000001,-26.46,21.84,-39.6
1554207504113,0.9911995000000001,-9.237428999999999,1.407192,0.47404268,-0.03089267,-0.5773733,-26.82,21.0,-39.84
1554207504134,1.0869676000000001,-9.452907000000002,1.4790181,-0.14487597,-0.112918034,-0.48149952,-27.0,19.98,-40.14
1554207504154,1.1156979999999999,-9.711481,2.1254525,-0.59228706,-0.14913702,-0.4016047,-27.18,18.96,-40.38
1554207504174,1.1875241,-10.333973,2.508525,-0.6380934,-0.18855181,-0.37923414,-27.42,18.12,-40.68
1554207504193,1.283292,-10.319608,2.891597,-0.46978164,-0.17789917,-0.38456047,-27.6,17.22,-40.98
1554207504213,1.3215994,-10.185533,2.7048495,-0.25353295,-0.14274544,-0.31638354,-27.72,16.44,-41.28
1554207504233,1.5610195,-10.008362,2.8006175,-0.1438107,-0.07669904,-0.22370553,-27.78,15.84,-41.52
1554207504253,1.4652513999999999,-9.903017,2.7814639,-0.10013486,-0.012783173500000002,-0.16298546,-27.9,15.42,-41.76
1554207504274,1.5753847,-9.86471,2.7048495,-0.09374327,0.04580637,-0.10652645,-28.02,15.24,-41.88
1554207504294,1.5610195,-9.567828,2.6473885,-0.07456851,0.10652645,-0.05006743,-28.2,15.3,-41.88
1554207504313,1.5897499,-9.304466,2.3505075,-0.040480047000000005,0.15339808,-0.05006743,-28.38,15.42,-41.94
1554207504333,1.6663644,-9.165602999999999,1.9961656000000003,-0.051132694000000006,0.16298546,-0.06285059999999999,-28.44,15.54,-41.88
1554207504353,1.733402,-9.146449,1.6897078999999997,-0.09161274,0.15552860000000002,-0.05752428,-28.56,15.66,-41.82
1554207504373,1.6472107,-9.136872,1.5604209999999998,-0.13954964,0.14168017,-0.07350325,-28.62,15.78,-41.82
1554207504394,1.6424223000000002,-9.165602999999999,1.287482,-0.17896444,0.10439592,-0.08628642,-28.68,15.9,-41.76
1554207504414,1.5179238000000002,-9.261371,1.359308,-0.21731395,0.053263225,-0.09054748,-28.74,15.96,-41.7
1554207504434,1.5179238000000002,-9.357139,1.3305776000000002,-0.22903186,0.025566347000000003,-0.10013486,-28.8,16.02,-41.7
1554207504454,1.4652513999999999,-9.433753,1.335366,-0.22796659,-0.010652645,-0.1107875,-28.8,16.08,-41.64
1554207504474,1.4939818,-9.649231,1.4885948999999998,-0.21092236,-0.036218993,-0.101200126,-28.74,16.2,-41.58
1554207504494,1.4173675,-9.697116000000001,1.6370354,-0.15978967,-0.04474111,-0.08735169,-28.74,16.26,-41.58
1554207504515,1.3742718,-9.797672,1.6897078999999997,-0.08948222,-0.040480047000000005,-0.07563378,-28.74,16.32,-41.4
1554207504533,1.3215994,-9.826402999999999,1.7711107,-0.033023197000000004,-0.029827405,-0.05539375,-28.74,16.44,-41.22
1554207504553,1.3503298000000001,-9.711481,1.7902644,0.0053263223,-0.023435817999999997,-0.03089267,-28.68,16.56,-41.1
1554207504574,1.3838485,-9.725846,1.8668787,0.03089267,-0.017044231,-0.025566347000000003,-28.68,16.68,-40.92
1554207504594,1.4221559,-9.606135,1.7615339,0.05219796,-0.011717908999999999,-0.02130529,-28.62,16.74,-40.8
1554207504613,1.436521,-9.543886,1.7375918999999997,0.068176925,-0.0053263223,-0.004261058,-28.62,16.86,-40.68
1554207504633,1.4891934,-9.424176,1.7375918999999997,0.07989483,-0.011717908999999999,0.010652645,-28.62,16.92,-40.56
1554207504654,1.5275006000000002,-9.505579,1.6035166,0.09161274,-0.022370555,0.011717908999999999,-28.56,16.98,-40.5
1554207504673,1.6328455,-9.433753,1.5604209999999998,0.08841695,-0.034088463,0.014913702,-28.56,17.04,-40.56
1554207504693,1.5897499,-9.361927,1.5173253,0.06285059999999999,-0.05219796,0.007456851,-28.62,17.04,-40.56
1554207504714,1.6424223000000002,-9.328408,1.4742297,0.043675844000000005,-0.07456851,-0.012783173500000002,-28.62,16.98,-40.56
1554207504734,1.6136919,-9.280524,1.4311341,0.034088463,-0.094808534,-0.025566347000000003,-28.68,16.86,-40.56
1554207504754,1.6041151000000002,-9.309255,1.5029601000000001,0.0053263223,-0.11504856,-0.034088463,-28.68,16.74,-40.56
1554207504774,1.5466543,-9.361927,1.6514006,-0.02876214,-0.13635385,-0.04261058,-28.74,16.68,-40.62
1554207504793,1.4987701999999998,-9.462483,1.7375918999999997,-0.040480047000000005,-0.14487597,-0.04261058,-28.74,16.56,-40.62
1554207504813,1.532289,-9.481637,1.7280151000000001,-0.033023197000000004,-0.14274544,-0.03834952,-28.8,16.5,-40.74
1554207504834,1.5227122,-9.596559,1.9003976999999999,0.010652645,-0.12570119999999999,-0.033023197000000004,-28.8,16.44,-40.8
1554207504854,1.5131354,-9.476849000000001,1.8046296000000002,0.039414786,-0.094808534,-0.022370555,-28.86,16.38,-40.86
1554207504874,1.436521,-9.390657000000001,1.857302,0.04474111,-0.07456851,-0.024501082,-28.92,16.38,-40.92
1554207504893,1.5753847,-9.299678,1.7471686999999998,0.014913702,-0.058589544,-0.026631612000000002,-28.98,16.38,-40.92
1554207504913,1.6041151000000002,-9.481637,1.7136499,-0.024501082,-0.049002163,-0.022370555,-29.04,16.44,-40.86
1554207504935,1.5227122,-9.462483,1.6897078999999997,-0.037284255,-0.033023197000000004,-0.013848438000000001,-29.1,16.5,-40.8
1554207504954,1.5753847,-9.534309,1.7136499,-0.020240024,-0.041545313,-0.013848438000000001,-29.16,16.56,-40.8
1554207504974,1.5993267,-9.419388,1.5508442,0.012783173500000002,-0.041545313,-0.004261058,-29.22,16.68,-40.68
1554207504994,1.5993267,-9.328408,1.4646529,0.018109497,-0.04261058,-0.0063915867,-29.22,16.74,-40.62
1554207505014,1.5227122,-9.47206,1.7328035,-0.0010652645,-0.05965481,-0.00958738,-29.28,16.86,-40.56
1554207505033,1.5370774999999999,-9.438541,1.5364790000000002,-0.007456851,-0.06924219,-0.007456851,-29.28,16.92,-40.44
1554207505053,1.5466543,-9.424176,1.7471686999999998,-0.008522116,-0.07456851,-0.011717908999999999,-29.28,17.04,-40.44
1554207505074,1.5514427,-9.428965,1.6657659,0.0,-0.082025364,-0.0031957934000000003,-29.28,17.1,-40.38
1554207505094,1.532289,-9.586982,1.7711107,0.015978966,-0.082025364,-0.002130529,-29.28,17.16,-40.38
1554207505114,1.436521,-9.519944,1.6897078999999997,0.017044231,-0.08628642,-0.0010652645,-29.28,17.16,-40.38
1554207505133,1.5179238000000002,-9.639654,1.7902644,0.02130529,-0.08841695,-0.0010652645,-29.22,17.16,-40.38
1554207505154,1.4700398000000001,-9.438541,1.7950528000000001,0.033023197000000004,-0.083090626,0.004261058,-29.22,17.1,-40.32
1554207505174,1.484405,-9.409811,1.7615339,0.04580637,-0.08522116,0.0053263223,-29.28,17.04,-40.32
1554207505193,1.5466543,-9.433753,1.7040731,0.04580637,-0.09587380000000001,0.0,-29.28,16.98,-40.32
1554207505213,1.5610195,-9.409811,1.7088615000000003,0.035153727999999995,-0.10439592,0.0,-29.28,16.92,-40.32
1554207505235,1.5227122,-9.409811,1.7088615000000003,0.026631612000000002,-0.11717909,-0.0010652645,-29.22,16.86,-40.32
1554207505254,1.5227122,-9.496002,1.7184383,0.025566347000000003,-0.12357068,0.0010652645,-29.22,16.8,-40.32
1554207505274,1.5897499,-9.433753,1.5508442,0.04261058,-0.12676647,0.0031957934000000003,-29.22,16.74,-40.32
1554207505294,1.6041151000000002,-9.371504,1.38325,0.049002163,-0.13315806,-0.0063915867,-29.22,16.74,-40.32
1554207505313,1.5035586,-9.361927,1.4742297,0.03834952,-0.14274544,-0.017044231,-29.22,16.68,-40.26
1554207505334,1.685518,-9.433753,1.5508442,0.020240024,-0.15126756,-0.02130529,-29.34,16.62,-40.26
1554207505354,1.6424223000000002,-9.462483,1.6609775000000002,0.011717908999999999,-0.14487597,-0.017044231,-29.46,16.56,-40.26
1554207505373,1.6759412,-9.438541,1.6849195,0.011717908999999999,-0.13209279,-0.018109497,-29.58,16.44,-40.26
1554207505393,1.6376339,-9.452907000000002,1.7471686999999998,0.010652645,-0.11824436,-0.015978966,-29.7,16.38,-40.26
1554207505414,1.5610195,-9.419388,1.8046296000000002,0.012783173500000002,-0.09374327,-0.015978966,-29.82,16.32,-40.2
1554207505434,1.5514427,-9.385869,1.7328035,0.007456851,-0.06711166,-0.014913702,-29.94,16.26,-40.14
1554207505453,1.5514427,-9.361927,1.7232267,-0.015978966,-0.04580637,-0.00958738,-30.0,16.2,-40.02
1554207505473,1.541866,-9.414599,1.6657659,-0.04580637,-0.020240024,-0.004261058,-30.0,16.2,-39.96
1554207505493,1.5466543,-9.467272,1.6609775000000002,-0.06604639400000001,-0.008522116,-0.007456851,-29.94,16.2,-39.9
1554207505513,1.4891934,-9.524733,1.6849195,-0.07137272,-0.0010652645,-0.004261058,-29.94,16.2,-39.78
1554207505533,1.4604629999999998,-9.539098,1.5939398,-0.053263225,0.0031957934000000003,0.004261058,-29.88,16.26,-39.72
1554207505553,1.4604629999999998,-9.563039999999999,1.5652093999999999,-0.024501082,0.0010652645,0.011717908999999999,-29.88,16.26,-39.66
1554207505573,1.4317327,-9.47206,1.3784616000000003,-0.0063915867,-0.0010652645,0.010652645,-29.88,16.26,-39.6
1554207505594,1.436521,-9.467272,1.5173253,-0.017044231,-0.025566347000000003,-0.0063915867,-29.94,16.32,-39.6
1554207505614,1.532289,-9.385869,1.4550761,-0.040480047000000005,-0.056459017,-0.013848438000000001,-30.0,16.32,-39.6
1554207505633,1.5658079,-9.539098,1.6657659,-0.03195793,-0.07669904,-0.010652645,-30.0,16.38,-39.66
1554207505653,1.5131354,-9.500791,1.5891514,-0.0031957934000000003,-0.08841695,0.0,-30.06,16.44,-39.66
1554207505674,1.484405,-9.496002,1.632247,0.05752428,-0.10652645,-0.0053263223,-30.06,16.56,-39.66
1554207505694,1.436521,-9.438541,1.5795746000000002,0.07030745599999999,-0.12570119999999999,-0.017044231,-30.0,16.62,-39.6
1554207505714,1.5993267,-9.44333,1.6657659,0.06498113,-0.13422333,-0.02876214,-29.94,16.68,-39.6
1554207505733,1.6232687,-9.395446000000002,1.6657659,0.039414786,-0.1438107,-0.04474111,-29.88,16.74,-39.6
1554207505754,1.5945383,-9.47206,1.4742297,0.0010652645,-0.15126756,-0.04580637,-29.82,16.8,-39.6
1554207505773,1.6089035,-9.519944,1.5316905,-0.017044231,-0.14487597,-0.046871635999999994,-29.82,16.8,-39.54
1554207505793,1.5849615,-9.496002,1.6035166,-0.012783173500000002,-0.13315806,-0.05006743,-29.76,16.8,-39.36
1554207505814,1.6089035,-9.491214,1.632247,-0.0053263223,-0.12676647,-0.056459017,-29.76,16.8,-39.24
1554207505833,1.6328455,-9.337985,1.5412674,-0.002130529,-0.113983296,-0.05752428,-29.82,16.8,-39.12
1554207505854,1.5897499,-9.462483,1.6035166,-0.002130529,-0.10333065,-0.054328485999999995,-29.82,16.8,-39.0
1554207505874,1.6089035,-9.467272,1.5364790000000002,0.004261058,-0.08628642,-0.054328485999999995,-29.88,16.74,-38.88
1554207505894,1.6280571000000001,-9.433753,1.6035166,0.008522116,-0.06711166,-0.053263225,-29.88,16.74,-38.82
1554207505914,1.6903063999999999,-9.314043,1.5029601000000001,-0.0010652645,-0.04474111,-0.05539375,-29.94,16.68,-38.76
1554207505934,1.6280571000000001,-9.376292,1.4359225,-0.01917476,-0.01917476,-0.056459017,-29.94,16.68,-38.76
1554207505954,1.5801731,-9.405023,1.5747862,-0.041545313,0.008522116,-0.06178534,-30.06,16.68,-38.82
1554207505973,1.661576,-9.462483,1.5269021,-0.05752428,0.027696876000000002,-0.06391586,-30.12,16.74,-38.82
1554207505994,1.5562311000000002,-9.462483,1.4838065,-0.056459017,0.05539375,-0.06604639400000001,-30.24,16.74,-38.88
1554207506013,1.5562311000000002,-9.539098,1.5029601000000001,-0.051132694000000006,0.07669904,-0.06178534,-30.3,16.74,-38.88
1554207506033,1.5610195,-9.539098,1.7375918999999997,-0.040480047000000005,0.09587380000000001,-0.05752428,-30.42,16.86,-38.88
1554207506054,1.5083469999999999,-9.505579,1.4790181,-0.026631612000000002,0.11504856,-0.053263225,-30.54,16.92,-38.82
1554207506073,1.5610195,-9.610924,1.5508442,-0.02130529,0.12676647,-0.047936900000000005,-30.6,17.1,-38.82
1554207506093,1.5562311000000002,-9.519944,1.6370354,-0.020240024,0.128897,-0.043675844000000005,-30.66,17.16,-38.82
1554207506115,1.5179238000000002,-9.524733,1.5316905,-0.007456851,0.13102753,-0.043675844000000005,-30.6,17.34,-38.76
1554207506133,1.5131354,-9.539098,1.3305776000000002,0.0031957934000000003,0.13315806,-0.046871635999999994,-30.54,17.4,-38.76
1554207506153,1.5179238000000002,-9.405023,1.5173253,-0.0031957934000000003,0.12783173,-0.046871635999999994,-30.48,17.46,-38.76
1554207506173,1.4508862,-9.534309,1.4694413,-0.014913702,0.11824436,-0.049002163,-30.42,17.46,-38.76
1554207506194,1.4556746,-9.462483,1.5412674,-0.011717908999999999,0.10439592,-0.051132694000000006,-30.36,17.46,-38.76
1554207506214,1.4891934,-9.448118,1.5125369,0.002130529,0.08948222,-0.054328485999999995,-30.3,17.34,-38.82
1554207506234,1.5610195,-9.376292,1.6083049999999999,0.008522116,0.07669904,-0.060720075,-30.24,17.16,-38.82
1554207506253,1.4987701999999998,-9.390657000000001,1.5221136999999998,0.004261058,0.06711166,-0.06604639400000001,-30.18,17.04,-38.82
1554207506273,1.5035586,-9.357139,1.632247,-0.0010652645,0.058589544,-0.07030745599999999,-30.24,16.92,-38.82
1554207506294,1.5179238000000002,-9.467272,1.5269021,-0.008522116,0.05539375,-0.082025364,-30.24,16.74,-38.82
1554207506313,1.5514427,-9.409811,1.632247,-0.01917476,0.051132694000000006,-0.084155895,-30.24,16.56,-38.82
1554207506334,1.4987701999999998,-9.47206,1.6035166,-0.037284255,0.053263225,-0.07989483,-30.24,16.38,-38.88
1554207506353,1.5658079,-9.448118,1.6753427,-0.035153727999999995,0.053263225,-0.07243799,-30.3,16.26,-39.06
1554207506373,1.484405,-9.448118,1.5269021,-0.014913702,0.053263225,-0.07350325,-30.24,16.14,-39.18
1554207506394,1.4556746,-9.491214,1.6897078999999997,0.004261058,0.049002163,-0.07456851,-30.24,16.08,-39.3
1554207506413,1.5179238000000002,-9.462483,1.5221136999999998,0.015978966,0.054328485999999995,-0.060720075,-30.24,16.02,-39.42
1554207506433,1.5131354,-9.328408,1.4598645000000001,0.00958738,0.058589544,-0.06924219,-30.18,16.02,-39.54
1554207506454,1.532289,-9.371504,1.6609775000000002,-0.015978966,0.051132694000000006,-0.07989483,-30.18,16.08,-39.72
1554207506474,1.4652513999999999,-9.405023,1.5412674,-0.043675844000000005,0.04474111,-0.07776430000000001,-30.18,16.2,-39.84
1554207506494,1.4939818,-9.428965,1.5508442,-0.054328485999999995,0.049002163,-0.07669904,-30.12,16.38,-39.96
1554207506514,1.4891934,-9.452907000000002,1.5412674,-0.05539375,0.043675844000000005,-0.07563378,-30.12,16.5,-39.96
1554207506533,1.5753847,-9.529521,1.5652093999999999,-0.04580637,0.040480047000000005,-0.07456851,-30.12,16.68,-39.96
1554207506553,1.5275006000000002,-9.539098,1.4646529,-0.037284255,0.034088463,-0.07350325,-30.06,16.8,-39.96
1554207506574,1.541866,-9.577405,1.5508442,-0.027696876000000002,0.034088463,-0.06498113,-30.0,16.98,-39.9
1554207506594,1.4077905000000002,-9.543886,1.6657659,-0.013848438000000001,0.034088463,-0.060720075,-29.94,17.04,-39.9
1554207506615,1.5275006000000002,-9.486425,1.6130934,-0.002130529,0.026631612000000002,-0.05219796,-29.94,17.04,-39.9
1554207506634,1.4556746,-9.505579,1.5173253,0.0010652645,0.026631612000000002,-0.043675844000000005,-29.88,17.04,-39.84
1554207506654,1.4077905000000002,-9.424176,1.5221136999999998,-0.0053263223,0.027696876000000002,-0.03834952,-29.82,17.04,-39.84
1554207506674,1.4413095,-9.47206,1.5652093999999999,-0.018109497,0.012783173500000002,-0.03834952,-29.76,17.04,-39.78
1554207506693,1.436521,-9.510367,1.584363,-0.012783173500000002,0.002130529,-0.033023197000000004,-29.76,17.04,-39.78
1554207506714,1.3982137,-9.553463,1.4885948999999998,0.013848438000000001,-0.0053263223,-0.024501082,-29.76,17.04,-39.72
1554207506734,1.4077905000000002,-9.419388,1.4694413,0.02130529,-0.014913702,-0.012783173500000002,-29.76,17.04,-39.66
1554207506754,1.4796166000000002,-9.395446000000002,1.5221136999999998,0.013848438000000001,-0.022370555,-0.014913702,-29.76,16.98,-39.66
1554207506773,1.4413095,-9.519944,1.4981716999999999,0.008522116,-0.035153727999999995,-0.017044231,-29.76,16.98,-39.66
1554207506793,1.484405,-9.496002,1.5077485000000002,0.01917476,-0.040480047000000005,-0.011717908999999999,-29.76,16.92,-39.6
1554207506813,1.541866,-9.481637,1.4838065,0.024501082,-0.041545313,-0.010652645,-29.76,16.92,-39.6
1554207506834,1.4748282,-9.357139,1.5125369,0.022370555,-0.046871635999999994,-0.007456851,-29.76,16.92,-39.6
1554207506854,1.532289,-9.409811,1.38325,0.012783173500000002,-0.05965481,-0.015978966,-29.76,16.86,-39.66
1554207506874,1.5610195,-9.491214,1.4790181,-0.0031957934000000003,-0.068176925,-0.024501082,-29.7,16.86,-39.66
1554207506893,1.6136919,-9.390657000000001,1.5077485000000002,-0.01917476,-0.07243799,-0.03089267,-29.7,16.86,-39.66
1554207506914,1.5993267,-9.414599,1.4359225,-0.027696876000000002,-0.06711166,-0.027696876000000002,-29.64,16.86,-39.72
1554207506934,1.5179238000000002,-9.505579,1.5747862,-0.02876214,-0.07456851,-0.02130529,-29.64,16.8,-39.72
1554207506954,1.541866,-9.582193,1.4838065,-0.0053263223,-0.068176925,-0.017044231,-29.58,16.8,-39.72
1554207506974,1.5514427,-9.510367,1.5699978,0.03089267,-0.058589544,-0.008522116,-29.64,16.8,-39.66
1554207506993,1.6041151000000002,-9.505579,1.6178818000000001,0.047936900000000005,-0.05006743,-0.0031957934000000003,-29.64,16.8,-39.66
1554207507013,1.5849615,-9.405023,1.6035166,0.056459017,-0.035153727999999995,0.004261058,-29.64,16.8,-39.66
1554207507033,1.5993267,-9.59177,1.4598645000000001,0.07243799,-0.008522116,0.014913702,-29.64,16.86,-39.6
1554207507054,1.4604629999999998,-9.433753,1.6274586000000002,0.07563378,0.00958738,0.017044231,-29.7,16.86,-39.54
1554207507074,1.4939818,-9.405023,1.4407108999999998,0.05539375,0.029827405,0.023435817999999997,-29.76,16.86,-39.54
1554207507094,1.4796166000000002,-9.433753,1.5364790000000002,0.02130529,0.040480047000000005,0.02876214,-29.82,16.86,-39.54
1554207507114,1.532289,-9.433753,1.38325,-0.010652645,0.046871635999999994,0.03089267,-29.82,16.92,-39.54
1554207507133,1.436521,-9.639654,1.5556326,-0.020240024,0.046871635999999994,0.033023197000000004,-29.88,16.92,-39.6
1554207507153,1.4556746,-9.634866,1.6705543,-0.004261058,0.049002163,0.05219796,-29.88,16.86,-39.6
1554207507174,1.3886370000000001,-9.888652,1.6609775000000002,0.04261058,0.05006743,0.08841695,-29.94,16.86,-39.6
1554207507194,1.3742718,-10.041881,1.8237831999999998,0.10546118,0.05219796,0.13635385,-30.0,16.86,-39.6
1554207507213,1.3838485,-10.123283,1.9578583999999999,0.17044231,0.07030745599999999,0.2034655,-30.06,16.86,-39.66
1554207507234,1.3551182,-10.180744,1.8189948,0.2034655,0.099069595,0.27483824,-30.06,16.92,-39.66
1554207507253,1.1300632,-10.190321,1.9626468000000001,0.13422333,0.11930962,0.28868666,-30.0,16.92,-39.66
1554207507273,0.90021986,-10.453683,1.7184383,-0.08841695,0.11611383,0.3334278,-29.88,16.92,-39.6
1554207507294,0.78050977,-10.702681,1.5699978,-0.3206446,0.10013486,0.44847634,-29.76,16.98,-39.6
1554207507314,0.5554548,-10.817602,1.5412674,-0.535828,0.10333065,0.5901565,-29.7,17.16,-39.6
1554207507333,0.29209262,-10.903792999999999,1.857302,-0.65194184,0.113983296,0.76485986,-29.58,17.4,-39.6
1554207507354,0.05746084,-11.028292,2.1254525,-0.45593318,0.13741912,0.89801794,-29.4,17.7,-39.6
1554207507374,-0.20590134,-10.9899845,2.0871453,-0.07350325,0.15233281,0.9981528000000001,-29.16,18.12,-39.6
1554207507394,-0.29209262,-10.846333,1.881244,0.24927188,0.15233281,1.0791129,-28.86,18.72,-39.6
1554207507414,-0.34955344,-10.563816000000001,1.7088615000000003,0.3685815,0.15339808,1.1813782,-28.56,19.5,-39.6
1554207507434,-0.51714754,-10.333973,1.6083049999999999,0.36645097,0.15765914,1.2942963,-28.26,20.28,-39.6
1554207507453,-0.91458505,-10.128072,1.8716671000000003,0.37710363,0.17363810000000002,1.3677995,-27.84,21.06,-39.6
1554207507474,-1.1444284,-10.080188,1.809418,0.37603834,0.15233281,1.4061489999999999,-27.48,21.78,-39.6
1554207507493,-1.283292,-9.960478,1.5795746000000002,0.33768883,0.14274544,1.4519554,-27.12,22.5,-39.6
1554207507513,-1.4077905000000002,-9.965266,1.2731166999999999,0.23329292,0.13422333,1.5073493,-26.64,23.22,-39.6
1554207507534,-1.8195933000000002,-9.931747,1.4550761,0.053263225,0.10972224,1.5584818999999999,-26.22,24.0,-39.54
1554207507554,-2.2409727999999998,-10.075399,1.4167688999999999,-0.09374327,0.09267801,1.627724,-25.8,24.72,-39.48
1554207507574,-2.384625,-10.10413,1.6130934,-0.16618125,0.07243799,1.7235979,-25.14,25.26,-39.42
1554207507594,-2.7102362999999996,-10.204686,1.584363,-0.12996227,0.06604639400000001,1.8279938000000002,-24.36,25.8,-39.36
1554207507614,-3.0358477,-9.974843,1.4359225,-0.05539375,0.06711166,1.9089539,-23.64,26.4,-39.3
1554207507634,-3.2034418999999996,-9.960478,1.2970588,-0.043675844000000005,0.05539375,1.9941751,-22.86,27.12,-39.24
1554207507654,-3.5865142,-9.634866,1.2348095,-0.033023197000000004,0.06711166,2.1102889,-22.08,28.02,-39.18
1554207507674,-4.0318356,-9.136872,1.2108675,-0.00958738,0.084155895,2.1869879,-21.24,28.92,-39.18
1554207507693,-4.5777135,-8.72507,1.2970588,-0.018109497,0.07563378,2.2423816000000003,-20.1,29.82,-39.18
1554207507714,-4.865018,-8.332419999999999,1.4790181,-0.00958738,0.054328485999999995,2.3126889999999998,-19.02,30.66,-39.24
1554207507734,-4.9895163,-8.083424,1.4550761,0.13422333,0.035153727999999995,2.3552997,-18.0,31.56,-39.3
1554207507754,-5.353435,-7.829638,1.7184383,0.33662358,0.04580637,2.3446472000000003,-16.92,32.46,-39.3
1554207507773,-5.4683566,-7.173627000000001,1.4598645000000001,0.5581986,0.058589544,2.3158847999999996,-15.78,33.42,-39.18
1554207507793,-5.5545480000000005,-6.6612678,1.9147629000000002,0.80747044,0.08628642,2.25623,-14.64,34.26,-39.12
1554207507814,-5.544971,-6.033987000000001,1.6083049999999999,1.0780476,0.12570119999999999,2.1443772,-13.44,34.86,-39.06
1554207507834,-5.674258,-5.612607499999999,1.6418238,1.2602079,0.15339808,2.001632,-12.12,35.34,-38.94
1554207507860,-5.8466406,-5.248688700000001,1.7040731,1.2974921,0.17150758,1.861017,-11.04,35.58,-38.88
1554207507873,-5.8466406,-5.248688700000001,1.7040731,1.2974921,0.17150758,1.861017,-11.04,35.58,-38.88
1554207507894,-6.2392898,-4.7363295999999995,1.7471686999999998,1.1856394,0.22477080000000002,1.5339808000000001,-9.9,35.82,-38.94
1554207507914,-6.555324000000001,-4.3819875999999995,1.6514006,1.0759171,0.23648871,1.3827133,-8.58,35.7,-39.12
1554207507934,-6.7372837,-3.9606082000000002,1.7711107,0.94275904,0.22370553,1.2314457,-7.44,35.16,-39.54
1554207507954,-6.943185000000001,-3.7978023999999997,2.0392613,0.8607336999999999,0.20453078,1.0769824,-6.3,34.5,-40.14
1554207507974,-7.168239999999999,-3.7163997,2.273893,0.813862,0.20133498,0.9129315999999998,-5.16,33.72,-40.8
1554207507993,-7.4842744,-3.5727474999999997,2.5372553,0.7765778,0.20772657,0.7680557,-4.2,32.94,-41.46
1554207508013,-7.603985000000001,-3.5296519,2.2930467,0.78083885,0.21944448,0.6530071,-3.3,32.04,-42.12
1554207508034,-7.929596000000001,-3.3381157,2.2691047,0.7414241,0.20985709,0.567786,-2.52,31.02,-42.72
1554207508054,-8.101977999999999,-3.2902317,2.1733365,0.63702816,0.19281286,0.49428272,-1.92,29.82,-43.2
1554207508073,-8.130709,-3.1800982999999996,2.2547395,0.4878911,0.16298546,0.42717105,-1.5,28.86,-43.62
1554207508093,-8.269572,-3.1465794999999996,2.5037365,0.3291667,0.12676647,0.35792887,-1.02,28.2,-43.98
1554207508114,-8.341399000000001,-3.1992521000000003,2.5995044999999997,0.27696875,0.10013486,0.31318775,-0.6,27.6,-44.22
1554207508134,-8.441956,-3.342904,2.7287915000000003,0.27803403,0.07669904,0.26844665,-0.18,27.06,-44.52
1554207508153,-8.461109,-3.2040405,2.6952724,0.3270362,0.06924219,0.21624869,0.18,26.46,-44.76
1554207508174,-8.571242,-3.232771,2.949058,0.39627838,0.05539375,0.17044231,0.48,25.86,-45.0
1554207508194,-8.619126,-2.9454667999999997,2.8293478,0.45486793,0.041545313,0.13209279,0.84,25.32,-45.24
1554207508214,-8.662222,-2.7635074,2.6952724,0.43036684,0.027696876000000002,0.098004326,1.08,25.02,-45.42
1554207508234,-8.7771435,-2.7874494,2.4702177000000005,0.26205507,0.008522116,0.07563378,1.32,24.66,-45.54
1554207508254,-8.829816000000001,-2.581548,2.4941597,0.014913702,-0.018109497,0.06498113,1.44,24.3,-45.54
1554207508274,-8.748413000000001,-2.6007016,2.5420437000000002,-0.24074976,-0.046871635999999994,0.04580637,1.56,23.94,-45.54
1554207508293,-8.6813755,-2.8736405,2.5995044999999997,-0.44847634,-0.06285059999999999,0.024501082,1.62,23.58,-45.48
1554207508313,-8.5473,-3.0268695,2.8054059,-0.5219796,-0.05965481,0.0053263223,1.62,23.28,-45.42
1554207508334,-8.628703,-3.117849,2.747945,-0.49215218,-0.053263225,0.0010652645,1.68,22.98,-45.42
1554207508355,-8.561666,-3.232771,2.7335799,-0.4250405,-0.049002163,0.0010652645,1.74,22.92,-45.36
1554207508373,-8.5473,-3.2423477000000003,2.867655,-0.38136467,-0.04474111,-0.0010652645,1.8,22.8,-45.42
1554207508395,-8.513782,-3.2806550000000003,2.9586349,-0.30040458,-0.029827405,-0.018109497,1.8,22.8,-45.48
1554207508415,-8.465898,-3.2423477000000003,2.9825767999999995,-0.113983296,-0.010652645,-0.046871635999999994,1.8,22.86,-45.54
1554207508435,-8.446744,-3.0891187,2.6330232999999996,0.096939065,0.010652645,-0.07563378,1.8,22.92,-45.54
1554207508454,-8.614338,-2.9837740000000004,2.8628666000000003,0.18109496,0.040480047000000005,-0.09161274,1.8,23.1,-45.54
1554207508474,-8.772355000000001,-3.0412347,2.5037365,0.13102753,0.034088463,-0.08948222,1.8,23.28,-45.48
1554207508494,-8.935161,-3.1561562999999997,2.7623102999999998,-0.004261058,0.029827405,-0.07989483,1.86,23.46,-45.48
1554207508514,-8.90643,-3.1465794999999996,2.8389246,-0.07243799,0.027696876000000002,-0.07882957,1.86,23.7,-45.48
1554207508533,-8.762777999999999,-3.2184057,2.7000610000000003,-0.11611383,0.027696876000000002,-0.06711166,1.86,23.94,-45.42
1554207508553,-8.791509,-3.2854433,2.6426,-0.15552860000000002,0.018109497,-0.04261058,1.86,24.18,-45.36
1554207508574,-8.839393,-3.2423477000000003,2.8868085999999997,-0.12357068,0.010652645,-0.026631612000000002,1.86,24.3,-45.3
1554207508593,-8.863335000000001,-3.1800982999999996,2.7623102999999998,-0.017044231,0.0031957934000000003,-0.034088463,1.8,24.48,-45.3
1554207508613,-8.805874000000001,-3.0603882999999996,2.7623102999999998,0.07456851,-0.002130529,-0.040480047000000005,1.74,24.6,-45.3
1554207508634,-8.724471000000001,-3.093907,2.570774,0.098004326,-0.010652645,-0.034088463,1.68,24.66,-45.3
1554207508653,-8.710106,-2.9837740000000004,2.6521769,0.099069595,-0.02130529,-0.035153727999999995,1.68,24.66,-45.3
1554207508674,-8.647857,-2.9406781000000004,2.795829,0.03834952,-0.013848438000000001,-0.04474111,1.68,24.66,-45.3
1554207508694,-8.341399000000001,-2.9694088,2.5276785,-0.02130529,-0.027696876000000002,-0.058589544,1.68,24.66,-45.3
1554207508715,-8.432379,-2.9741971,2.379238,-0.083090626,-0.03195793,-0.099069595,1.74,24.6,-45.3
1554207508735,-8.576031,-2.710835,2.4223334999999997,-0.098004326,-0.049002163,-0.16618125,1.8,24.6,-45.24
1554207508755,-8.513782,-2.8401217,2.5803509,-0.14487597,-0.056459017,-0.20985709,1.86,24.6,-45.24
1554207508774,-8.350976,-3.0268695,2.6761188999999996,-0.22690132,-0.03834952,-0.22796659,1.92,24.6,-45.18
1554207508794,-8.303091,-3.0843303,2.570774,-0.27803403,-0.027696876000000002,-0.257794,1.92,24.6,-45.18
1554207508814,-8.159439,-2.959832,2.4366987,-0.23968449999999997,-0.029827405,-0.34621096,1.98,24.6,-45.12
1554207508834,-7.9487495,-2.6485856,2.5803509,-0.2130529,-0.027696876000000002,-0.46978164,1.98,24.66,-45.12
1554207508854,-7.5082164,-2.4762032000000005,2.7431567,-0.21624869,-0.022370555,-0.63702816,1.98,24.72,-45.06
1554207508873,-6.885724000000001,-2.48578,2.7527334999999997,-0.23542345,-0.015978966,-0.8681905000000001,1.86,24.78,-45.0
1554207508894,-6.3111157,-2.7922377999999997,2.417545,-0.38456047,-0.0053263223,-1.1227888000000001,1.8,24.9,-44.94
1554207508913,-6.191406,-2.9741971,2.2307975,-0.6040049,-0.0053263223,-1.3646038,1.68,25.08,-44.88
1554207508933,-6.0333879999999995,-3.1896752999999998,2.082357,-0.813862,-0.02130529,-1.6873789000000001,1.5,25.32,-44.82
1554207508954,-5.774814599999999,-3.9270894999999997,1.7375918999999997,-0.89162636,-0.10226539,-1.9792613999999997,1.32,25.62,-44.76
1554207508973,-5.2289367,-4.185663,1.38325,-0.9587379999999999,-0.22264028,-2.2647521,0.9,26.1,-44.64
1554207508995,-4.807557,-4.64535,1.2348095,-0.8564726,-0.32490566,-2.5555694,0.36,26.76,-44.46
1554207509013,-4.721366000000001,-4.88477,1.1821371,-0.66152924,-0.44741106,-2.8783445,-0.3,27.6,-44.16
1554207509034,-4.5777135,-4.980538,0.96187055,-0.47191215,-0.6061354999999999,-3.2170987,-1.02,28.44,-43.92
1554207509053,-4.1371803,-5.5168395,0.76075757,-0.45060685,-0.87777793,-3.5281557999999995,-1.92,29.22,-43.62
1554207509073,-3.5003227999999997,-6.033987000000001,1.2970588,-0.59228706,-1.1238540000000001,-3.7603836000000004,-2.88,30.06,-43.38
1554207509094,-3.1651347000000003,-7.2646065,1.4359225,-0.6444850000000001,-1.2836437,-3.9361522000000004,-4.08,30.72,-43.08
1554207509113,-2.7724855,-8.787319,1.110311,-0.82877576,-1.4104101999999998,-4.000068,-5.7,31.38,-42.78
1554207509133,-2.1787236,-9.89344,0.7032967,-1.4029533,-1.490305,-3.8903458,-7.44,31.8,-42.48
1554207509154,-1.8818424999999999,-10.693104,2.4558525,-1.9877833999999999,-1.3901701000000002,-3.6772928,-9.36,31.92,-42.24
1554207509173,-1.6376339,-11.6986685,4.0695443,-1.8663433999999997,-1.0705907,-3.4589138,-11.34,31.86,-41.94
1554207509194,-1.7142484,-12.627619000000001,4.4286747,-0.73290193,-0.716923,-3.2341428,-13.74,31.56,-41.52
1554207509213,-1.3790601,-12.632407,3.413533,0.6306366,-0.4825648,-2.9656963,-15.96,30.96,-41.04
1554207509233,-0.8714894,-11.78486,2.3888147,1.1419635000000001,-0.41438788,-2.711098,-18.18,30.18,-40.5
1554207509253,-0.25378537,-11.100118,1.977012,1.1174624,-0.44741106,-2.4021714,-20.28,29.1,-39.96
1554207509274,0.24420857,-11.009138,1.8764555,0.6444850000000001,-0.47617322,-2.1614215,-22.14,27.72,-39.48
1554207509294,0.8858546,-11.607688000000001,2.4941597,0.30040458,-0.46339005,-1.9611518000000001,-23.7,26.16,-39.06
1554207509313,1.2545617,-12.038644999999999,2.5851393,0.2727077,-0.40373522,-1.73212,-25.14,24.3,-38.7
1554207509334,1.6280571000000001,-12.182297,2.747945,0.42930159999999995,-0.30466563,-1.4359765,-26.46,22.38,-38.52
1554207509354,2.0350714,-11.96203,2.6617537000000002,0.5901565,-0.20879184,-1.1536813999999997,-27.3,20.46,-38.64
1554207509373,2.054225,-11.478401,2.7096379,0.588026,-0.09587380000000001,-0.90014845,-28.14,18.78,-38.82
1554207509393,2.0446482,-10.865486,2.8149827000000003,0.50813115,0.02876214,-0.6828345,-28.92,17.1,-39.06
1554207509414,1.7429788,-10.511144,2.915539,0.5251754,0.10546118,-0.5006742999999999,-29.82,15.06,-39.42
1554207509434,1.8148049,-10.300454,3.0544027999999996,0.531567,0.101200126,-0.41545314,-30.0,14.46,-39.54
1554207509453,2.1452047999999997,-9.917382,3.0544027999999996,0.48149952,0.10333065,-0.27377295,-30.6,12.84,-39.9
1554207509474,2.0302830000000003,-9.582193,2.9873652,0.386691,0.12144015,-0.16298546,-30.72,12.36,-40.02
1554207509494,1.9728221999999997,-9.227852,3.1836896,0.28975195,0.1107875,-0.11504856,-30.96,11.22,-40.26
1554207509514,2.0111293999999997,-9.065046,3.1693244,0.2695119,0.08522116,-0.10652645,-31.08,10.5,-40.44
1554207509533,2.1404164,-8.696339,3.1022868,0.17044231,0.03834952,-0.113983296,-31.2,9.96,-40.62
1554207509553,2.2601264,-8.581417,3.4087446000000003,0.023435817999999997,0.02130529,-0.11930962,-31.32,9.42,-40.8
1554207509574,2.1739352000000003,-8.758589,3.3943794,-0.10546118,0.020240024,-0.098004326,-31.38,9.06,-41.04
1554207509595,2.3415293999999998,-8.916606,3.8013937000000007,-0.18109496,0.034088463,-0.08522116,-31.44,8.76,-41.22
1554207509614,2.4708161,-9.179967999999999,3.8492777,-0.20453078,0.068176925,-0.07030745599999999,-31.5,8.58,-41.4
1554207509633,2.4756044999999998,-9.160814,3.7104141999999998,-0.14913702,0.12676647,-0.047936900000000005,-31.56,8.52,-41.58
1554207509654,2.4851813,-9.017161999999999,3.6816837999999996,-0.05965481,0.17896444,-0.05006743,-31.62,8.46,-41.7
1554207509674,2.3175871,-8.811261,3.447052,-0.023435817999999997,0.2066613,-0.07350325,-31.68,8.4,-41.76
1554207509694,2.432509,-8.677185,3.044826,-0.07989483,0.20240025,-0.07882957,-31.74,8.4,-41.76
1554207509714,2.4133554,-8.624513,2.915539,-0.16937704,0.1949434,-0.07350325,-31.8,8.34,-41.76
1554207509733,2.1787236,-8.763377,2.8820202,-0.23116238,0.18535602,-0.07776430000000001,-31.8,8.34,-41.76
1554207509754,2.3080103,-8.868722,2.7527334999999997,-0.26205507,0.16724652,-0.09587380000000001,-31.86,8.34,-41.76
1554207509774,2.2170308,-8.902241,2.8628666000000003,-0.26525086,0.16618125,-0.09374327,-31.86,8.34,-41.76
1554207509793,2.0781669999999997,-8.959702,2.7335799,-0.22796659,0.16831179,-0.084155895,-31.92,8.34,-41.82
1554207509814,2.0159178,-9.017161999999999,2.7527334999999997,-0.18855181,0.15552860000000002,-0.07989483,-31.92,8.34,-41.82
1554207509834,2.0590134,-9.093777000000001,2.9682117000000003,-0.18429075,0.14061491,-0.056459017,-31.92,8.34,-41.82
1554207509854,2.0829554,-8.983644,2.795829,-0.18429075,0.12357068,-0.05219796,-31.92,8.34,-41.82
1554207509874,2.1308396000000003,-9.108141999999999,2.8389246,-0.1768339,0.09587380000000001,-0.05752428,-31.8,8.4,-41.88
1554207509893,2.1021092,-9.170391,2.8868085999999997,-0.15446335,0.07243799,-0.049002163,-31.68,8.4,-41.88
1554207509914,2.0781669999999997,-9.184756,2.8820202,-0.11504856,0.043675844000000005,-0.03834952,-31.5,8.4,-41.88
1554207509934,2.1260512,-9.012374000000001,2.795829,-0.083090626,0.018109497,-0.026631612000000002,-31.38,8.4,-41.88
1554207509954,2.2313959999999997,-9.065046,2.7096379,-0.05006743,-0.014913702,-0.024501082,-31.2,8.46,-41.94
1554207509974,2.1930888,-9.065046,2.8628666000000003,-0.029827405,-0.040480047000000005,-0.023435817999999997,-31.02,8.58,-42.0
1554207509994,2.1308396000000003,-8.959702,2.6090812999999997,-0.014913702,-0.060720075,-0.02130529,-30.9,8.76,-42.06
1554207510013,2.2697031,-8.835203,2.6665419999999997,-0.020240024,-0.08735169,-0.023435817999999997,-30.78,8.88,-42.06
1554207510033,2.1691467999999996,-8.993219999999999,2.5851393,-0.043675844000000005,-0.111852765,-0.024501082,-30.72,9.06,-42.12
1554207510055,2.2074540000000002,-8.988432000000001,2.6521769,-0.05539375,-0.12783173,-0.023435817999999997,-30.72,9.24,-42.06
1554207510075,2.27928,-9.045893,2.6521769,-0.04474111,-0.14594123,-0.035153727999999995,-30.72,9.42,-41.94
1554207510095,2.2697031,-9.141661000000001,2.6426,-0.03834952,-0.15446335,-0.036218993,-30.72,9.6,-41.88
1554207510115,2.2505496,-9.041103999999999,2.6234465,-0.03195793,-0.15446335,-0.029827405,-30.78,9.72,-41.76
1554207510134,2.2505496,-8.993219999999999,2.4893713,-0.014913702,-0.15233281,-0.033023197000000004,-30.78,9.78,-41.64
1554207510154,2.3558946,-9.045893,2.6090812999999997,-0.010652645,-0.15126756,-0.035153727999999995,-30.84,9.84,-41.52
1554207510174,2.3415293999999998,-9.007586,2.6809072,-0.01917476,-0.14594123,-0.03195793,-30.9,9.84,-41.4
1554207510194,2.2840683,-9.012374000000001,2.556409,-0.014913702,-0.13954964,-0.03195793,-30.96,9.84,-41.28
1554207510214,2.3606830000000003,-9.017161999999999,2.5133132999999996,-0.018109497,-0.14168017,-0.03089267,-30.96,9.84,-41.22
1554207510233,2.4468741,-9.069835000000001,2.532467,-0.029827405,-0.13102753,-0.027696876000000002,-31.02,9.9,-41.22
1554207510253,2.336741,-9.108141999999999,2.6138697,-0.03834952,-0.12250541,-0.025566347000000003,-31.14,9.84,-41.28
1554207510274,2.4851813,-9.136872,2.6426,-0.0063915867,-0.10226539,-0.03195793,-31.2,9.78,-41.28
1554207510294,2.3894134,-9.088988,2.6473885,0.018109497,-0.09054748,-0.029827405,-31.26,9.78,-41.34
1554207510313,2.3942018,-9.069835000000001,2.5851393,0.035153727999999995,-0.08628642,-0.02876214,-31.26,9.78,-41.34
1554207510334,2.4420857000000002,-8.969278,2.6138697,0.05539375,-0.07669904,-0.037284255,-31.32,9.72,-41.34
1554207510354,2.3894134,-9.012374000000001,2.5851393,0.049002163,-0.06498113,-0.035153727999999995,-31.38,9.72,-41.4
1554207510374,2.3558946,-8.96449,2.5611973,0.041545313,-0.05006743,-0.034088463,-31.44,9.72,-41.4
1554207510393,2.4420857000000002,-9.108141999999999,2.6856956000000003,0.049002163,-0.033023197000000004,-0.033023197000000004,-31.44,9.72,-41.4
1554207510414,2.432509,-9.098564999999999,2.6952724,0.06391586,-0.012783173500000002,-0.027696876000000002,-31.44,9.72,-41.4
1554207510434,2.4756044999999998,-9.132083999999999,2.747945,0.07563378,0.0063915867,-0.027696876000000002,-31.5,9.78,-41.4
1554207510454,2.4420857000000002,-9.021951,2.795829,0.09267801,0.03834952,-0.034088463,-31.5,9.78,-41.34
1554207510473,2.3750482,-8.96449,2.7335799,0.094808534,0.05539375,-0.04261058,-31.5,9.84,-41.34
1554207510493,2.3558946,-9.026739,2.5803509,0.060720075,0.06285059999999999,-0.04580637,-31.56,9.84,-41.28
1554207510513,2.3223755,-8.950125,2.6330232999999996,0.037284255,0.07030745599999999,-0.049002163,-31.56,9.78,-41.22
1554207510533,2.2744915,-8.916606,2.6473885,0.023435817999999997,0.08735169,-0.058589544,-31.56,9.78,-41.22
1554207510554,2.3175871,-8.806473,2.7144263,0.0010652645,0.08948222,-0.07030745599999999,-31.56,9.72,-41.16
1554207510574,2.255338,-8.835203,2.6521769,-0.025566347000000003,0.09054748,-0.080960095,-31.56,9.72,-41.16
1554207510594,2.2505496,-8.84478,2.6809072,-0.053263225,0.09054748,-0.08948222,-31.62,9.66,-41.1
1554207510613,2.3511062000000003,-8.93576,2.7862522999999997,-0.07989483,0.094808534,-0.09374327,-31.62,9.6,-41.1
1554207510634,2.4181437000000003,-8.96449,2.7240029999999997,-0.08948222,0.10546118,-0.09267801,-31.62,9.48,-41.1
1554207510654,2.3223755,-8.978855000000001,2.795829,-0.08948222,0.11824436,-0.09054748,-31.68,9.42,-41.16
1554207510673,2.2457612,-8.911817999999998,2.594716,-0.09374327,0.12570119999999999,-0.094808534,-31.68,9.36,-41.16
1554207510693,2.2697031,-8.926183,2.6617537000000002,-0.1107875,0.12996227,-0.094808534,-31.68,9.36,-41.16
1554207510714,2.2170308,-9.017161999999999,2.532467,-0.13422333,0.12996227,-0.09267801,-31.68,9.36,-41.16
1554207510734,2.3080103,-9.069835000000001,2.5755625,-0.14594123,0.12676647,-0.08841695,-31.68,9.3,-41.22
1554207510753,2.3080103,-9.074622999999999,2.6473885,-0.12676647,0.13528858,-0.07669904,-31.62,9.3,-41.22
1554207510774,2.3032220000000003,-9.026739,2.690484,-0.08948222,0.13954964,-0.07882957,-31.56,9.3,-41.28
1554207510794,2.1021092,-9.208698,2.6809072,-0.056459017,0.13315806,-0.07456851,-31.56,9.3,-41.28
1554207510814,2.2266076,-9.11293,2.7096379,-0.02876214,0.12996227,-0.06391586,-31.56,9.36,-41.28
1554207510833,2.27928,-9.0794115,2.6138697,-0.017044231,0.12463594,-0.05752428,-31.62,9.36,-41.28
1554207510854,2.15957,-9.160814,2.7766755,-0.012783173500000002,0.12037488,-0.053263225,-31.62,9.48,-41.34
1554207510874,2.2122424,-9.065046,2.6521769,-0.010652645,0.113983296,-0.05006743,-31.62,9.48,-41.34
1554207510893,2.1452047999999997,-9.041103999999999,2.5516205000000003,-0.012783173500000002,0.10439592,-0.04261058,-31.62,9.54,-41.4
1554207510913,2.2074540000000002,-9.045893,2.6809072,-0.012783173500000002,0.09161274,-0.037284255,-31.68,9.6,-41.4
1554207510933,2.2074540000000002,-8.983644,2.4797945,-0.01917476,0.07563378,-0.03834952,-31.68,9.66,-41.46
1554207510953,2.1787236,-9.012374000000001,2.6473885,-0.024501082,0.06178534,-0.039414786,-31.62,9.72,-41.52
1554207510973,2.1883004,-9.160814,2.594716,-0.020240024,0.04261058,-0.036218993,-31.5,9.78,-41.52
1554207510994,2.1643584,-9.11293,2.5516205000000003,-0.0053263223,0.022370555,-0.027696876000000002,-31.44,9.78,-41.58
1554207511014,2.1930888,-8.983644,2.6473885,0.011717908999999999,0.0,-0.024501082,-31.32,9.78,-41.64
1554207511033,2.2266076,-9.021951,2.5468319999999998,0.014913702,-0.01917476,-0.029827405,-31.2,9.78,-41.64
1554207511054,2.3080103,-9.132083999999999,2.6569653,0.008522116,-0.04474111,-0.036218993,-31.14,9.78,-41.7
1554207511074,2.1787236,-9.108141999999999,2.5851393,0.0031957934000000003,-0.058589544,-0.034088463,-31.02,9.78,-41.7
1554207511094,2.3175871,-9.026739,2.5611973,0.010652645,-0.06178534,-0.026631612000000002,-31.02,9.78,-41.7
1554207511114,2.2313959999999997,-9.050680999999999,2.570774,0.023435817999999997,-0.05965481,-0.020240024,-31.02,9.84,-41.76
1554207511133,2.3175871,-9.0315275,2.508525,0.036218993,-0.06285059999999999,-0.013848438000000001,-31.02,9.84,-41.76
1554207511153,2.183512,-9.026739,2.498948,0.039414786,-0.058589544,-0.013848438000000001,-31.02,9.9,-41.76
1554207511173,2.2122424,-8.998009,2.6521769,0.03089267,-0.05752428,-0.013848438000000001,-31.02,9.9,-41.76
1554207511194,2.2170308,-8.959702,2.5276785,0.015978966,-0.04474111,-0.011717908999999999,-31.08,9.9,-41.76
1554207511213,2.2266076,-9.036316000000001,2.6521769,0.01917476,-0.03089267,-0.007456851,-31.08,9.9,-41.76
1554207511234,2.255338,-9.050680999999999,2.7287915000000003,0.03089267,-0.013848438000000001,-0.0053263223,-31.08,9.9,-41.76
1554207511253,2.2218192,-9.088988,2.6856956000000003,0.024501082,0.0053263223,-0.002130529,-31.08,9.9,-41.7
1554207511273,2.2361843999999995,-9.242217,2.6809072,0.013848438000000001,0.03089267,0.007456851,-31.08,9.9,-41.7
1554207511293,2.2122424,-9.213486999999999,2.747945,0.014913702,0.047936900000000005,0.02130529,-31.02,9.9,-41.7
1554207511315,2.0590134,-9.199121,2.6473885,0.035153727999999995,0.07669904,0.05219796,-31.02,9.9,-41.64
1554207511334,2.1212628,-9.213486999999999,2.8820202,0.07563378,0.09161274,0.07030745599999999,-31.02,9.96,-41.64
1554207511354,2.087744,-9.299678,2.915539,0.12783173,0.098004326,0.08522116,-30.96,9.96,-41.64
1554207511374,2.1308396000000003,-9.452907000000002,2.915539,0.18642128,0.10759171,0.12357068,-30.96,9.96,-41.64
1554207511394,2.135628,-9.524733,3.1549592,0.2428803,0.12463594,0.18748654,-30.96,9.96,-41.64
1554207511414,2.0111293999999997,-9.414599,3.09271,0.314253,0.14594123,0.24607609,-30.96,10.02,-41.64
1554207511433,1.8387468999999996,-9.376292,2.9059622000000003,0.34301516,0.1438107,0.26844665,-30.9,10.02,-41.64
1554207511453,1.9009962,-9.462483,2.6473885,0.24074976,0.12570119999999999,0.27590349999999997,-30.9,10.02,-41.64
1554207511473,1.7525556,-9.256582,2.5468319999999998,-0.054328485999999995,0.10439592,0.294013,-30.84,10.02,-41.7
1554207511494,1.5610195,-9.213486999999999,2.5420437000000002,-0.36218992,0.084155895,0.35473305,-30.78,10.08,-41.7
1554207511513,1.4796166000000002,-9.582193,2.8054059,-0.5454154,0.043675844000000005,0.41438788,-30.66,10.14,-41.76
1554207511534,1.4604629999999998,-10.008362,2.9442697,-0.53263223,0.010652645,0.44954160000000004,-30.6,10.32,-41.82
1554207511553,1.5945383,-10.209475,3.1118636000000004,-0.42184472,0.01917476,0.5336975,-30.48,10.56,-41.88
1554207511573,1.3886370000000001,-10.175956,3.116652,-0.2545982,0.06498113,0.6348976,-30.36,10.98,-42.0
1554207511594,1.0534488000000002,-10.175956,3.0879216,-0.06498113,0.111852765,0.69987875,-30.24,11.4,-42.0
1554207511614,0.81402856,-10.195109,3.0735563999999997,0.082025364,0.15020229,0.75633776,-30.12,11.88,-42.06
1554207511634,0.6464345,-10.214263,2.9921536,0.14594123,0.17470337,0.8447546999999999,-29.88,12.48,-42.06
1554207511654,0.50757074,-10.061034,3.1214404,0.14061491,0.20772657,0.94275904,-29.7,13.08,-42.06
1554207511674,0.40701428,-10.01315,3.0831332000000002,0.12250541,0.23542345,1.0205233,-29.58,13.8,-42.06
1554207511693,0.18674773,-9.926959,3.1693244,0.13848437,0.27057716,1.0865698000000001,-29.4,14.46,-42.0
1554207511714,0.02873042,-9.792883999999999,3.0591912,0.15978967,0.30892670000000005,1.1515508999999997,-29.16,15.12,-42.0
1554207511734,-0.37349546,-9.740211500000001,2.9203273999999997,0.15339808,0.33449304,1.1877699,-28.86,15.66,-42.0
1554207511756,-0.7422025,-9.7641535,2.747945,0.07776430000000001,0.34088463,1.200553,-28.38,16.26,-42.0
1554207511773,-1.1923125,-9.888652,2.819771,-0.06285059999999999,0.33662358,1.252751,-27.84,16.92,-42.12
1554207511793,-1.436521,-10.061034,2.9011737999999996,-0.18535602,0.32597092,1.3475596,-27.24,17.58,-42.18
1554207511813,-1.6472107,-9.931747,2.8628666000000003,-0.2609898,0.30466563,1.4604776000000002,-26.7,18.24,-42.3
1554207511834,-1.9871874,-10.065823,3.09271,-0.28016454,0.30360037,1.5456988,-26.1,18.9,-42.36
1554207511854,-2.2505496,-9.86471,3.068768,-0.2876214,0.30679616,1.6564863,-25.5,19.68,-42.48
1554207511874,-2.60968,-10.061034,2.7910407000000004,-0.27377295,0.31212249999999997,1.7555558999999998,-24.96,20.58,-42.54
1554207511894,-2.8299465,-10.099341,2.6617537000000002,-0.314253,0.3057309,1.8642128,-24.42,21.6,-42.6
1554207511913,-3.1986535,-9.907805,2.6521769,-0.330232,0.32597092,1.9877833999999999,-23.82,22.56,-42.6
1554207511933,-3.4189199999999995,-9.634866,2.321777,-0.29507825,0.32384038,2.0932446,-23.1,23.46,-42.54
1554207511954,-3.7014358,-9.357139,2.1924900000000003,-0.22903186,0.32597092,2.1752700000000003,-22.38,24.54,-42.48
1554207511974,-4.10845,-8.854357,2.0727801,-0.20026971,0.32277513,2.2423816000000003,-21.54,25.62,-42.3
1554207511994,-4.3287168,-8.045116,2.0248961,-0.1470065,0.314253,2.292449,-20.58,27.42,-41.94
1554207512013,-4.405330999999999,-7.781753999999999,1.9578583999999999,-0.049002163,0.3153183,2.295645,-19.44,28.02,-41.82
1554207512034,-4.606444000000001,-7.178415299999999,1.7711107,0.10226539,0.3057309,2.2477080000000003,-18.0,29.04,-41.58
1554207512053,-4.8937483,-6.8144965,1.5795746000000002,0.3057309,0.29933932,2.1401162,-16.56,29.94,-41.34
1554207512074,-5.1475334,-6.6469026,1.2779051000000001,0.50813115,0.25033715,1.9611518000000001,-14.88,31.26,-40.98
1554207512093,-5.3247046,-6.407482,1.3976152,0.56885123,0.21837921,1.8620822,-13.92,31.92,-40.8
1554207512113,-5.7125654,-6.1632739999999995,1.287482,0.61678815,0.16085494,1.7076189999999998,-12.9,32.46,-40.68
1554207512135,-5.9184665999999995,-6.1489085999999995,1.1965023000000001,0.5699165,0.09267801,1.6106798999999998,-11.76,32.82,-40.62
1554207512155,-6.1530986,-6.0627174,1.2779051000000001,0.46765109999999993,0.043675844000000005,1.5488945,-10.5,32.94,-40.68
1554207512174,-6.493075,-5.880758,1.4981716999999999,0.38136467,0.007456851,1.490305,-9.42,33.06,-40.74
1554207512193,-6.646304,-5.66528,1.8046296000000002,0.34408042,-0.024501082,1.4168017,-8.46,33.12,-40.8
1554207512214,-6.7612257,-5.310938,1.6944963,0.32490566,-0.040480047000000005,1.3582121999999999,-7.56,33.12,-40.92
1554207512234,-6.794744500000001,-5.2965727,1.8668787,0.3206446,-0.04580637,1.3070794,-6.6,33.06,-40.98
1554207512254,-6.8186865,-4.76506,2.2499511,0.34088463,-0.056459017,1.2101405,-5.7,33.06,-41.1
1554207512273,-7.0245875999999985,-4.472967,2.202067,0.41438788,-0.046871635999999994,1.135572,-4.8,33.0,-41.16
1554207512294,-7.225700999999999,-4.214393599999999,2.1924900000000003,0.49747851,-0.03195793,1.010936,-4.14,32.94,-41.28
1554207512314,-7.249642999999999,-4.051588,2.3840263,0.515588,-0.02130529,0.9150621999999999,-3.66,32.7,-41.34
1554207512333,-7.278373200000001,-3.8025907999999995,2.6234465,0.5294364,0.007456851,0.8117314999999999,-3.24,32.34,-41.52
1554207512354,-7.445967,-3.6254199000000003,2.6138697,0.55074173,0.04261058,0.69987875,-2.88,31.92,-41.76
1554207512373,-7.7189064,-3.5057099999999997,2.5995044999999997,0.52837116,0.07882957,0.59761333,-2.46,31.56,-42.0
1554207512393,-7.762002000000001,-3.2662897,2.6378117000000003,0.45912898,0.099069595,0.51452273,-2.1,31.08,-42.24
1554207512413,-7.991845,-3.3141737,2.5468319999999998,0.33449304,0.10439592,0.4282363,-1.74,30.54,-42.54
1554207512434,-8.1881695,-3.1561562999999997,2.5468319999999998,0.18429075,0.10439592,0.3568636,-1.44,29.94,-42.84
1554207512454,-8.37013,-3.1896752999999998,2.7287915000000003,0.056459017,0.08735169,0.29933932,-1.2,29.4,-43.26
1554207512473,-8.327033,-3.2758665000000002,2.7383683,-0.017044231,0.06924219,0.2428803,-1.02,28.92,-43.68
1554207512493,-8.437167,-3.3572693,2.7670987,-0.035153727999999995,0.06498113,0.20133498,-0.84,28.56,-43.98
1554207512513,-8.403648,-3.3572693,2.8293478,0.010652645,0.053263225,0.15233281,-0.66,28.2,-44.16
1554207512533,-8.403648,-3.4482489999999997,2.6856956000000003,0.054328485999999995,0.053263225,0.11930962,-0.48,27.84,-44.28
1554207512554,-8.556877,-3.2758665000000002,2.5420437000000002,0.051132694000000006,0.05539375,0.094808534,-0.3,27.54,-44.4
1554207512573,-8.748413000000001,-3.2040405,2.5899277,0.022370555,0.040480047000000005,0.08628642,-0.12,27.24,-44.52
1554207512593,-8.662222,-3.1848867000000003,2.7144263,-0.014913702,0.017044231,0.07669904,0.0,27.0,-44.52
1554207512613,-8.470686,-3.1848867000000003,2.8293478,-0.060720075,0.0063915867,0.05752428,0.18,26.76,-44.4
1554207512634,-8.590396,-3.127426,2.8054059,-0.112918034,0.013848438000000001,0.039414786,0.36,26.52,-44.28
1554207512654,-8.628703,-3.1465794999999996,2.6952724,-0.14168017,0.0063915867,0.03089267,0.54,26.34,-44.16
1554207512673,-8.63828,-3.232771,2.6569653,-0.15552860000000002,-0.002130529,0.014913702,0.6,26.16,-44.04
1554207512693,-8.48984,-3.4578260000000003,2.8580782000000005,-0.13102753,-0.011717908999999999,-0.0053263223,0.72,25.98,-43.98
1554207512713,-8.623915,-3.4386723,2.6952724,-0.07989483,-0.01917476,-0.017044231,0.84,25.86,-43.92
1554207512733,-8.576031,-3.3859997,2.7670987,-0.036218993,-0.014913702,-0.014913702,0.96,25.74,-43.92
1554207512753,-8.652645,-3.4051532999999994,2.3265655,-0.040480047000000005,-0.011717908999999999,-0.01917476,1.02,25.62,-43.92
1554207512773,-8.595184,-3.4290953,2.5755625,-0.08735169,-0.025566347000000003,-0.025566347000000003,1.08,25.62,-43.92
1554207512793,-8.6574335,-3.4386723,2.6378117000000003,-0.15659387,-0.027696876000000002,-0.029827405,1.02,25.56,-43.98
1554207512813,-8.75799,-3.481768,2.6378117000000003,-0.22796659,-0.020240024,-0.02876214,1.02,25.56,-43.98
1554207512833,-8.75799,-3.520075,2.9011737999999996,-0.23009712,-0.014913702,-0.02130529,1.02,25.56,-43.98
1554207512855,-8.619126,-3.4434607,2.690484,-0.1768339,-0.012783173500000002,-0.010652645,0.96,25.62,-43.98
1554207512873,-8.6574335,-3.481768,2.5228900000000003,-0.098004326,-0.008522116,-0.002130529,0.96,25.68,-43.98
1554207512894,-8.738836000000001,-3.4674027,2.6617537000000002,-0.020240024,0.0053263223,-0.0010652645,0.96,25.74,-43.98
1554207512913,-8.743625,-3.4290953,2.6282349,0.03195793,0.0010652645,0.0063915867,0.96,25.86,-43.98
1554207512933,-8.619126,-3.3237504999999996,2.4941597,0.037284255,-0.0010652645,0.013848438000000001,0.96,25.98,-43.92
1554207512954,-8.504205,-3.1896752999999998,2.7287915000000003,0.051132694000000006,0.007456851,-0.0063915867,0.96,26.1,-43.92
1554207512973,-8.355764,-3.1226375,2.5995044999999997,0.06924219,0.026631612000000002,-0.054328485999999995,0.96,26.22,-43.86
1554207512994,-8.504205,-3.0891187,2.498948,0.00958738,0.037284255,-0.07243799,0.96,26.34,-43.86
1554207513013,-8.643068,-3.1561562999999997,2.3983915000000002,-0.07137272,0.025566347000000003,-0.07669904,0.96,26.4,-43.8
1554207513033,-8.643068,-3.342904,2.3888147,-0.14061491,0.0010652645,-0.10652645,0.9,26.46,-43.74
1554207513053,-8.667010000000001,-3.3716345000000003,2.475006,-0.18002969,-0.0063915867,-0.13315806,0.96,26.52,-43.68
1554207513073,-8.652645,-3.4195184999999997,2.5037365,-0.21518342,-0.007456851,-0.13528858,0.96,26.64,-43.62
1554207513093,-8.662222,-3.5104983,2.532467,-0.23755397,-0.012783173500000002,-0.12037488,0.96,26.76,-43.56
1554207513113,-8.75799,-3.5775358999999995,2.40318,-0.24607609,-0.002130529,-0.10865697,1.02,27.0,-43.44
1554207513134,-8.805874000000001,-3.6876693,2.556409,-0.21411815,0.007456851,-0.094808534,1.08,27.24,-43.38
1554207513154,-8.748413000000001,-3.7211879999999997,2.4797945,-0.14807177,0.014913702,-0.07669904,1.14,27.42,-43.26
1554207513173,-8.690952000000001,-3.6828809000000002,2.4941597,-0.08735169,0.01917476,-0.060720075,1.2,27.66,-43.14
1554207513194,-8.724471000000001,-3.6685154000000004,2.5037365,-0.03089267,0.018109497,-0.053263225,1.26,27.96,-43.08
1554207513214,-8.667010000000001,-3.5392287000000002,2.532467,0.0053263223,0.012783173500000002,-0.04580637,1.32,28.26,-43.02
1554207513233,-8.748413000000001,-3.4674027,2.2930467,0.011717908999999999,0.010652645,-0.04261058,1.32,28.56,-42.9
1554207513254,-8.7771435,-3.4721910000000005,2.307412,-0.023435817999999997,0.010652645,-0.041545313,1.38,28.8,-42.84
1554207513274,-8.743625,-3.4674027,2.5228900000000003,-0.05219796,-0.002130529,-0.04580637,1.38,29.04,-42.78
1554207513294,-8.619126,-3.5057099999999997,2.4319102999999997,-0.08735169,-0.013848438000000001,-0.04474111,1.38,29.22,-42.66
1554207513314,-8.628703,-3.5966894999999997,2.3840263,-0.080960095,-0.012783173500000002,-0.039414786,1.32,29.4,-42.54
1554207513334,-8.724471000000001,-3.5440169999999998,2.40318,-0.04474111,-0.00958738,-0.049002163,1.26,29.58,-42.48
1554207513353,-8.743625,-3.639785,2.40318,-0.01917476,-0.00958738,-0.051132694000000006,1.26,29.7,-42.42
1554207513373,-8.695741,-3.5966894999999997,2.2260091,-0.00958738,-0.0053263223,-0.046871635999999994,1.2,29.76,-42.36
1554207513394,-9.002198,-3.4099417,2.9203273999999997,0.0031957934000000003,0.018109497,-0.043675844000000005,1.14,29.82,-42.36
1554207513414,-8.537724,-3.4913447,1.9961656000000003,0.049002163,0.015978966,-0.04474111,1.14,29.76,-42.36
1554207513434,-8.863335000000001,-3.5392287000000002,2.355296,-0.02130529,0.047936900000000005,-0.01917476,1.08,29.76,-42.36
1554207513453,-8.743625,-3.4626143,2.4893713,-0.014913702,0.029827405,-0.00958738,1.08,29.76,-42.36
1554207513474,-8.63828,-3.4865562999999993,2.3983915000000002,0.012783173500000002,0.02876214,-0.023435817999999997,1.08,29.76,-42.36
1554207513494,-8.346188,-3.3045970000000002,2.5276785,0.09054748,0.025566347000000003,-0.049002163,1.08,29.76,-42.42
1554207513514,-8.298303,-3.4530375,2.168548,0.07989483,0.03089267,-0.06604639400000001,1.08,29.76,-42.36
1554207513533,-8.7532015,-3.4386723,2.4558525,0.002130529,0.04474111,-0.07776430000000001,1.08,29.76,-42.3
1554207513553,-8.623915,-3.6014779000000003,2.4079683,-0.041545313,0.02130529,-0.09587380000000001,1.08,29.82,-42.24
1554207513574,-8.480263,-3.4434607,2.307412,-0.051132694000000006,0.020240024,-0.11611383,1.14,29.88,-42.18
1554207513594,-8.571242,-3.5631707,2.3888147,-0.036218993,0.022370555,-0.12676647,1.14,29.94,-42.12
1554207513613,-8.384495,-3.6206315000000004,2.345719,-0.022370555,0.01917476,-0.14274544,1.2,30.0,-42.12
1554207513634,-8.374918,-3.615843,2.3696610000000002,-0.0053263223,0.023435817999999997,-0.17150758,1.26,30.06,-42.06
1554207513654,-8.360553,-3.5392287000000002,2.5228900000000003,0.029827405,0.018109497,-0.20240025,1.26,30.12,-42.0
1554207513676,-8.279149,-3.6349967000000003,2.460641,0.07669904,0.0053263223,-0.2609898,1.26,30.12,-42.06
1554207513693,-8.159439,-3.4721910000000005,2.379238,0.10546118,0.0,-0.33449304,1.32,30.12,-42.06
1554207513714,-8.001422,-3.4865562999999993,2.4223334999999997,0.10333065,0.0053263223,-0.41225734,1.32,30.12,-42.06
1554207513734,-7.6470804,-3.3764230000000004,2.5755625,0.013848438000000001,0.011717908999999999,-0.52837116,1.32,30.0,-42.06
1554207513754,-7.541735000000001,-3.3620577000000003,2.6856956000000003,-0.09161274,0.03089267,-0.6466155,1.26,29.94,-42.12
1554207513773,-7.5608889999999995,-3.5871127,2.5420437000000002,-0.18535602,0.041545313,-0.7574029999999999,1.08,29.88,-42.12
1554207513793,-7.3549875999999985,-4.022857,2.2882583,-0.27696875,0.03089267,-0.86179894,0.9,29.88,-42.18
1554207513814,-7.2209125,-4.1904516,2.1254525,-0.33768883,0.025566347000000003,-0.94595486,0.72,29.88,-42.18
1554207513834,-7.2065472999999995,-4.745906400000001,2.2260091,-0.257794,0.020240024,-1.0439591000000001,0.6,30.0,-42.18
1554207513853,-6.9144545,-5.2582655,1.8477252,-0.07456851,-0.008522116,-1.1696603,0.42,30.06,-42.18
1554207513873,-6.5026517,-5.497685400000001,1.6418238,0.128897,-0.06924219,-1.2889700000000002,0.24,30.12,-42.18
1554207513893,-6.411672,-5.6509147,1.632247,0.26844665,-0.13528858,-1.4146712,0.06,30.3,-42.18
1554207513913,-6.823475,-5.6365495,1.7184383,0.29188246,-0.23009712,-1.5744608999999998,-0.24,30.42,-42.18
1554207513934,-6.9671270000000005,-5.445012999999999,1.6801311,0.13848437,-0.34301516,-1.6905746,-0.6,30.6,-42.12
1554207513953,-6.775591,-5.7802014,1.5795746000000002,-0.1587244,-0.41438788,-1.7214673999999999,-1.2,30.78,-42.18
1554207513974,-6.770802499999999,-6.091448000000001,1.7854759999999998,-0.4250405,-0.46552056,-1.743838,-1.86,30.96,-42.18
1554207513994,-6.766014,-6.570288000000001,2.0248961,-0.53476274,-0.49747851,-1.7768611,-2.58,31.08,-42.24
1554207514013,-6.5026517,-6.819285000000001,2.2451627,-0.49108690000000005,-0.49428272,-1.7704695,-3.36,31.26,-42.24
1554207514033,-6.5792660000000005,-6.9820905,2.4558525,-0.33555830000000003,-0.46339005,-1.7395768,-4.32,31.38,-42.3
1554207514053,-6.1483099999999995,-7.2215110000000005,2.5420437000000002,-0.14807177,-0.45593318,-1.7054884,-5.34,31.5,-42.3
1554207514073,-6.019023000000001,-7.331644,2.6809072,-0.0010652645,-0.43356264,-1.6468988999999998,-6.42,31.62,-42.36
1554207514094,-5.8562174,-7.317278999999999,2.484583,0.10546118,-0.4016047,-1.5520903,-7.56,31.68,-42.36
1554207514113,-5.674258,-7.480085000000001,2.4319102999999997,0.14913702,-0.39521313,-1.5126754999999998,-8.46,31.74,-42.3
1554207514133,-5.2816089999999996,-7.6764092,2.4271219,0.15020229,-0.41758367,-1.4966966,-9.48,31.74,-42.3
1554207514154,-4.8362875,-8.284536,2.460641,0.10652645,-0.46552056,-1.4487596999999999,-10.5,31.68,-42.3
1554207514173,-4.31914,-8.907029,2.6042929,0.13741912,-0.46232477,-1.3507552999999999,-11.52,31.56,-42.24
1554207514194,-4.1371803,-9.529521,2.5899277,0.294013,-0.45380265,-1.2303803999999998,-12.54,31.44,-42.24
1554207514214,-3.916914,-9.534309,2.7862522999999997,0.49960902,-0.44208476,-1.1313108,-13.44,31.2,-42.24
1554207514233,-3.8594532,-9.160814,3.4662056000000003,0.68176925,-0.43249738,-1.0748518999999999,-14.22,30.84,-42.24
1554207514253,-3.916914,-8.796896,3.6337996,0.7488809000000001,-0.38029942,-1.015197,-14.82,30.24,-42.24
1554207514274,-3.8833952000000003,-8.39467,3.696049,0.5581986,-0.3174488,-0.92784536,-15.36,29.34,-42.3
1554207514296,-3.5913025999999997,-8.136096,3.863643,0.27483824,-0.26312032,-0.8681905000000001,-15.9,28.44,-42.48
1554207514315,-3.490746,-8.083424,3.9833531000000004,-0.03195793,-0.21411815,-0.850081,-16.56,27.48,-42.66
1554207514335,-3.4189199999999995,-8.025963,4.064756,-0.30360037,-0.16618125,-0.8383630999999999,-17.22,26.58,-42.96
1554207514355,-3.1411927000000004,-8.27496,3.8971617,-0.5581986,-0.10972224,-0.8202536,-17.82,25.62,-43.2
1554207514375,-3.040636,-8.212710000000001,3.9211037,-0.721184,-0.047936900000000005,-0.81066626,-18.36,24.84,-43.44
1554207514395,-2.8921957000000003,-8.519167999999999,3.7247794,-0.8127968000000001,-0.0053263223,-0.84368944,-18.84,24.12,-43.68
1554207514414,-2.6862943,-8.083424,3.3943794,-0.8586031999999999,0.04261058,-0.8628642,-19.38,23.64,-43.8
1554207514434,-2.5761611,-8.112153999999999,3.2794578000000003,-0.8042746999999999,0.07989483,-0.9289106,-19.92,23.4,-43.8
1554207514454,-2.1452047999999997,-8.413822999999999,3.3273417999999997,-0.7456851,0.09374327,-0.9864349,-20.34,23.28,-43.68
1554207514474,-1.7142484,-8.81605,3.1262288,-0.6306366,0.111852765,-1.0173275,-20.64,23.28,-43.44
1554207514494,-1.6041151000000002,-8.758589,2.9346926,-0.4708469,0.14061491,-1.0258497,-20.88,23.28,-43.2
1554207514513,-1.6089035,-8.926183,2.6761188999999996,-0.30679616,0.14061491,-1.1036139999999999,-21.12,23.34,-42.9
1554207514534,-1.5897499,-9.012374000000001,2.5995044999999997,-0.31105720000000003,0.10865697,-1.1323761,-21.42,23.34,-42.6
1554207514554,-1.1779473,-9.89344,2.5803509,-0.34194988,0.049002163,-1.0737866000000003,-21.72,23.34,-42.3
1554207514573,-0.79487497,-11.042657,2.7431567,-0.30466563,0.025566347000000003,-0.9619338,-22.02,23.34,-42.12
1554207514594,-0.45010993,-12.05301,2.7048495,-0.060720075,0.004261058,-0.7914915,-22.5,23.34,-41.94
1554207514613,-0.4405331,-11.54065,2.819771,0.27164245,0.014913702,-0.6114618,-22.8,23.22,-41.88
1554207514633,-0.56982,-11.057022,2.9299042,0.5837649,0.02130529,-0.4857606,-23.1,23.04,-41.82
1554207514654,-0.641646,-10.396222,2.8341362,1.0002834,0.017044231,-0.3717773,-23.34,22.56,-41.88
1554207514674,-0.81402856,-9.7641535,2.6665419999999997,1.091896,-0.017044231,-0.31638354,-23.52,22.08,-41.88
1554207514695,-0.8619126,-9.021951,2.6090812999999997,0.9534117,-0.06604639400000001,-0.27377295,-23.7,21.66,-41.94
1554207514715,-0.79487497,-8.552686999999999,2.4319102999999997,0.6593986999999999,-0.13422333,-0.28229508,-23.88,21.18,-42.06
1554207514735,-0.7230489,-8.380303999999999,2.6473885,0.28868666,-0.19707392,-0.29614353,-24.06,20.58,-42.24
1554207514755,-0.58418524,-8.284536,2.9394810000000002,-0.02876214,-0.23435818,-0.29614353,-24.3,19.98,-42.42
1554207514774,-0.45489833,-8.476072,3.0352492,-0.25353295,-0.2428803,-0.29827404,-24.6,19.26,-42.6
1554207514794,-0.5363011999999999,-8.696339,3.2076318,-0.37071204,-0.21518342,-0.30786142,-24.84,18.66,-42.78
1554207514814,-0.46447513,-8.854357,3.2890346,-0.34301516,-0.18642128,-0.3334278,-25.02,18.36,-42.96
1554207514834,-0.4213795,-8.93576,3.0879216,-0.24501082,-0.16405073,-0.3536678,-25.26,18.0,-43.08
1554207514854,-0.49320555,-8.926183,3.0639796,-0.112918034,-0.13848437,-0.3653857,-25.5,17.64,-43.2
1554207514873,-0.34955344,-9.065046,3.020884,0.018109497,-0.13954964,-0.37923414,-25.62,17.34,-43.32
1554207514894,-0.18195933,-9.285313,2.9586349,0.12676647,-0.14807177,-0.36964676,-25.68,17.16,-43.32
1554207514914,-0.0047884034,-8.921394,2.9346926,0.112918034,-0.1587244,-0.34194988,-25.68,17.04,-43.38
1554207514934,0.0,-8.954913000000001,3.020884,0.023435817999999997,-0.19068234,-0.33449304,-25.74,17.04,-43.38
1554207514954,0.11492168,-8.863934,3.2650926,-0.10546118,-0.21411815,-0.31957933,-25.74,16.98,-43.44
1554207514973,0.29688102,-9.074622999999999,3.2363622000000003,-0.18322548,-0.21944448,-0.28016454,-25.86,16.86,-43.38
1554207514993,0.37349546,-9.055469500000001,3.2124202,-0.19600865,-0.20772657,-0.26844665,-25.98,16.74,-43.38
1554207515014,0.5554548,-9.136872,3.1884782000000005,-0.1438107,-0.1949434,-0.28442562,-26.1,16.56,-43.38
1554207515034,0.6464345,-9.065046,3.3081882000000005,-0.12250541,-0.17257284,-0.2790993,-26.34,16.32,-43.32
1554207515054,0.8475474000000001,-9.275736,3.245939,-0.12144015,-0.14913702,-0.26205507,-26.52,16.08,-43.26
1554207515074,0.8283938,-9.218275,3.1118636000000004,-0.17470337,-0.113983296,-0.24927188,-26.82,15.9,-43.2
1554207515094,0.90979666,-9.395446000000002,3.1405939999999997,-0.28016454,-0.08948222,-0.23648871,-27.06,15.66,-43.08
1554207515116,1.0630256,-9.625289,2.9634232999999996,-0.39308259999999995,-0.058589544,-0.18855181,-27.36,15.54,-43.02
1554207515133,1.1731589,-9.807249,2.9682117000000003,-0.39734364,-0.013848438000000001,-0.16085494,-27.6,15.42,-42.9
1554207515154,1.0773908,-9.855133,2.843713,-0.29614353,0.036218993,-0.13209279,-27.84,15.36,-42.84
1554207515174,0.9672575000000001,-9.735422999999999,2.9299042,-0.11717909,0.08628642,-0.111852765,-28.02,15.42,-42.78
1554207515194,0.9720459000000001,-9.280524,2.8149827000000003,0.06604639400000001,0.11504856,-0.14594123,-28.2,15.48,-42.72
1554207515215,0.9624690999999999,-9.294889,2.5420437000000002,0.18216023,0.111852765,-0.18322548,-28.32,15.54,-42.6
1554207515235,0.9959879,-8.993219999999999,2.321777,0.17150758,0.10226539,-0.18855181,-28.38,15.54,-42.6
1554207515255,0.92895025,-9.088988,2.3983915000000002,0.08948222,0.06711166,-0.21092236,-28.32,15.54,-42.54
1554207515275,1.0247183000000002,-9.055469500000001,2.2691047,-0.051132694000000006,0.018109497,-0.21731395,-28.32,15.54,-42.48
1554207515294,1.0199299000000002,-9.242217,2.4079683,-0.1470065,-0.027696876000000002,-0.21624869,-28.26,15.54,-42.42
1554207515314,1.1061212,-9.519944,2.4271219,-0.18109496,-0.07137272,-0.21837921,-28.2,15.48,-42.3
1554207515334,1.1444284,-9.481637,2.6617537000000002,-0.15765914,-0.098004326,-0.21092236,-28.14,15.48,-42.24
1554207515354,1.1252748,-9.606135,2.3888147,-0.094808534,-0.13102753,-0.21092236,-28.08,15.42,-42.12
1554207515373,1.0630256,-9.452907000000002,2.4702177000000005,-0.06924219,-0.15765914,-0.19600865,-28.08,15.36,-42.06
1554207515393,1.1252748,-9.486425,2.6617537000000002,-0.046871635999999994,-0.165116,-0.16724652,-28.08,15.36,-42.06
1554207515414,1.0630256,-9.35235,2.6569653,-0.037284255,-0.16085494,-0.16298546,-28.2,15.24,-41.94
1554207515434,1.091756,-9.328408,2.4893713,-0.036218993,-0.15339808,-0.15126756,-28.2,15.18,-41.94
1554207515453,1.1109096,-9.309255,2.6473885,-0.04474111,-0.13848437,-0.15020229,-28.32,15.06,-41.94
1554207515474,1.13964,-9.194333,2.7048495,-0.068176925,-0.12250541,-0.16085494,-28.44,15.0,-41.94
1554207515493,1.1492168,-9.223063,2.6234465,-0.06391586,-0.11930962,-0.16724652,-28.56,14.94,-41.94
1554207515514,1.1683705,-9.237428999999999,2.5899277,-0.04580637,-0.099069595,-0.16831179,-28.74,14.88,-41.88
1554207515534,1.2066777,-9.227852,2.508525,-0.002130529,-0.083090626,-0.15339808,-28.92,14.76,-41.88
1554207515555,1.3311761999999998,-9.108141999999999,2.6330232999999996,0.07243799,-0.068176925,-0.15233281,-29.04,14.58,-41.88
1554207515575,1.436521,-8.998009,2.5228900000000003,0.14168017,-0.05752428,-0.16618125,-29.16,14.4,-41.82
1554207515593,1.5227122,-8.969278,2.5037365,0.10013486,-0.05965481,-0.15978967,-29.28,14.22,-41.7
1554207515614,1.6280571000000001,-8.954913000000001,2.0919337,-0.023435817999999997,-0.07030745599999999,-0.1587244,-29.46,14.04,-41.58
1554207515634,1.6376339,-9.189544999999999,2.1637597,-0.18216023,-0.07776430000000001,-0.15978967,-29.58,13.92,-41.52
1554207515654,1.7046716,-9.505579,2.307412,-0.24394555,-0.06924219,-0.14061491,-29.64,13.8,-41.4
1554207515674,1.7381904,-9.606135,2.2499511,-0.17789917,-0.04474111,-0.12463594,-29.7,13.68,-41.28
1554207515693,1.8339584999999998,-9.596559,2.4079683,-0.06604639400000001,-0.01917476,-0.11930962,-29.76,13.62,-41.22
1554207515713,1.7812861,-9.448118,2.3026235,0.037284255,0.010652645,-0.11824436,-29.76,13.68,-41.1
1554207515734,1.7477672,-9.414599,2.3169887000000005,0.07456851,0.024501082,-0.113983296,-29.82,13.74,-41.1
1554207515754,1.7190368000000003,-9.299678,2.273893,0.041545313,0.03089267,-0.10865697,-29.82,13.8,-41.04
1554207515773,1.7094599999999998,-9.304466,2.0344729999999998,-0.026631612000000002,0.02876214,-0.11930962,-29.82,13.92,-41.1
1554207515793,1.6759412,-9.318831,2.297835,-0.10759171,0.03195793,-0.10333065,-29.88,13.98,-41.1
1554207515814,1.6136919,-9.543886,2.4510639,-0.11930962,0.046871635999999994,-0.06391586,-29.94,13.98,-41.16
1554207515833,1.6519991000000003,-9.510367,2.3840263,-0.07137272,0.06285059999999999,-0.026631612000000002,-30.06,13.98,-41.16
1554207515853,1.5562311000000002,-9.438541,2.4319102999999997,0.020240024,0.084155895,-0.017044231,-30.24,13.92,-41.16
1554207515874,1.6519991000000003,-9.199121,2.4797945,0.060720075,0.098004326,-0.008522116,-30.3,13.92,-41.22
1554207515894,1.6089035,-9.141661000000001,2.417545,0.06604639400000001,0.1107875,0.0,-30.36,13.92,-41.22
1554207515914,1.5514427,-9.045893,2.4079683,0.040480047000000005,0.10865697,-0.01917476,-30.36,13.92,-41.34
1554207515934,1.5753847,-9.055469500000001,2.355296,-0.0010652645,0.1107875,-0.035153727999999995,-30.36,13.86,-41.4
1554207515956,1.7286136000000003,-9.093777000000001,2.355296,-0.040480047000000005,0.10652645,-0.04580637,-30.3,13.86,-41.46
1554207515974,1.7669207999999998,-9.065046,2.2643162999999995,-0.06391586,0.11504856,-0.06604639400000001,-30.12,13.86,-41.52
1554207515993,1.7142484,-9.11293,2.4079683,-0.06924219,0.11611383,-0.09161274,-29.94,13.86,-41.58
1554207516013,1.8195933000000002,-9.199121,2.2930467,-0.05006743,0.11611383,-0.111852765,-29.76,13.92,-41.58
1554207516033,1.8100165000000001,-9.0794115,2.2499511,-0.03834952,0.12463594,-0.1438107,-29.52,13.86,-41.64
1554207516054,1.661576,-9.146449,2.0679917000000003,-0.04474111,0.12144015,-0.18002969,-29.4,13.86,-41.7
1554207516074,1.8148049,-9.280524,2.2403743,-0.08841695,0.11504856,-0.19600865,-29.22,13.8,-41.7
1554207516094,1.685518,-9.462483,2.321777,-0.11611383,0.099069595,-0.20985709,-29.16,13.8,-41.7
1554207516114,1.7286136000000003,-9.438541,2.355296,-0.15552860000000002,0.07882957,-0.21944448,-29.16,13.74,-41.7
1554207516134,1.6472107,-9.395446000000002,2.2451627,-0.18109496,0.06498113,-0.21092236,-29.1,13.74,-41.7
1554207516154,1.5179238000000002,-9.529521,2.2451627,-0.18748654,0.06178534,-0.18961707,-29.1,13.74,-41.7
1554207516173,1.5801731,-9.577405,2.2882583,-0.17470337,0.05539375,-0.16405073,-29.16,13.74,-41.7
1554207516193,1.5753847,-9.586982,2.2882583,-0.15552860000000002,0.053263225,-0.13741912,-29.16,13.8,-41.76
1554207516213,1.484405,-9.558251,2.4223334999999997,-0.13422333,0.060720075,-0.112918034,-29.22,13.8,-41.76
1554207516234,1.5275006000000002,-9.428965,2.379238,-0.11824436,0.06285059999999999,-0.09161274,-29.22,13.86,-41.76
1554207516254,1.532289,-9.486425,2.2691047,-0.096939065,0.06924219,-0.058589544,-29.28,13.92,-41.82
1554207516274,1.661576,-9.405023,2.3888147,-0.053263225,0.080960095,-0.027696876000000002,-29.22,13.98,-41.82
1554207516294,1.7142484,-9.433753,2.2547395,0.008522116,0.096939065,0.0,-29.22,13.98,-41.82
1554207516314,1.6567876,-9.299678,2.297835,0.08628642,0.12037488,0.015978966,-29.22,13.98,-41.7
1554207516334,1.6711528000000002,-9.122507,2.297835,0.13954964,0.13741912,0.012783173500000002,-29.22,13.98,-41.64
1554207516353,1.6903063999999999,-9.199121,2.0679917000000003,0.15339808,0.14487597,-0.0031957934000000003,-29.16,13.98,-41.46
1554207516373,1.7142484,-9.1272955,2.2643162999999995,0.11824436,0.14594123,-0.007456851,-29.16,14.04,-41.34
1554207516394,1.6663644,-9.026739,2.1877017000000003,0.068176925,0.14594123,-0.014913702,-29.16,14.04,-41.16
1554207516413,1.6807296000000003,-9.1272955,2.1733365,0.017044231,0.14061491,-0.040480047000000005,-29.16,14.04,-41.1
1554207516433,1.6232687,-9.132083999999999,2.2307975,-0.0010652645,0.13422333,-0.047936900000000005,-29.16,14.04,-40.98
1554207516454,1.7142484,-9.156025999999999,2.2307975,-0.008522116,0.12676647,-0.05006743,-29.1,14.1,-41.04
1554207516474,1.6328455,-9.1033535,2.2260091,-0.008522116,0.12144015,-0.054328485999999995,-29.1,14.1,-41.16
1554207516493,1.6903063999999999,-9.256582,2.297835,-0.024501082,0.112918034,-0.043675844000000005,-29.1,14.1,-41.34
1554207516514,1.6519991000000003,-9.275736,2.2547395,-0.040480047000000005,0.11504856,-0.015978966,-29.04,14.1,-41.52
1554207516534,1.6376339,-9.366715,2.345719,-0.029827405,0.11824436,-0.00958738,-29.04,14.04,-41.7
1554207516553,1.6280571000000001,-9.361927,2.3505075,-0.011717908999999999,0.12144015,-0.002130529,-28.98,14.04,-41.88
1554207516573,1.7094599999999998,-9.381081,2.355296,0.0063915867,0.12783173,0.008522116,-28.98,14.04,-42.06
1554207516594,1.5705963,-9.299678,2.1972785,0.01917476,0.12996227,-0.004261058,-28.98,14.04,-42.18
1554207516614,1.5897499,-9.256582,2.2403743,0.0031957934000000003,0.12783173,-0.004261058,-28.92,14.04,-42.24
1554207516633,1.5179238000000002,-9.299678,2.4893713,-0.0053263223,0.12570119999999999,0.0,-28.92,14.04,-42.3
1554207516654,1.4604629999999998,-9.227852,2.2882583,0.0010652645,0.11824436,-0.012783173500000002,-28.86,14.1,-42.3
1554207516674,1.4077905000000002,-9.275736,2.4366987,0.002130529,0.10972224,-0.018109497,-28.86,14.1,-42.36
1554207516693,1.4221559,-9.146449,2.3840263,0.0031957934000000003,0.098004326,-0.023435817999999997,-28.8,14.1,-42.36
1554207516714,1.3838485,-9.165602999999999,2.1493945,-0.0010652645,0.07669904,-0.039414786,-28.74,14.16,-42.36
1554207516734,1.4221559,-9.328408,2.2547395,-0.018109497,0.054328485999999995,-0.046871635999999994,-28.68,14.16,-42.36
1554207516754,1.3359646,-9.294889,2.2499511,-0.029827405,0.033023197000000004,-0.041545313,-28.62,14.16,-42.36
1554207516773,1.4030021000000001,-9.371504,2.2260091,-0.026631612000000002,0.014913702,-0.039414786,-28.56,14.16,-42.36
1554207516794,1.4652513999999999,-9.448118,2.460641,-0.0031957934000000003,0.0063915867,-0.03195793,-28.44,14.16,-42.42
1554207516814,1.4604629999999998,-9.424176,2.1829132999999996,0.026631612000000002,-0.002130529,-0.022370555,-28.38,14.16,-42.48
1554207516834,1.4221559,-9.414599,2.1015105,0.05219796,-0.00958738,-0.00958738,-28.32,14.16,-42.54
1554207516854,1.4891934,-9.35235,2.273893,0.056459017,-0.013848438000000001,-0.004261058,-28.26,14.16,-42.66
1554207516873,1.5897499,-9.194333,2.307412,0.046871635999999994,-0.014913702,-0.002130529,-28.26,14.16,-42.72
1554207516895,1.532289,-9.098564999999999,2.082357,0.027696876000000002,-0.012783173500000002,-0.007456851,-28.2,14.22,-42.78
1554207516913,1.4891934,-9.146449,2.2643162999999995,-0.004261058,-0.017044231,-0.020240024,-28.14,14.22,-42.84
1554207516933,1.4508862,-9.223063,2.3361422999999997,-0.033023197000000004,-0.025566347000000003,-0.033023197000000004,-28.08,14.28,-42.96
1554207516954,1.3838485,-9.223063,2.297835,-0.04474111,-0.035153727999999995,-0.047936900000000005,-28.02,14.34,-42.96
1554207516975,1.436521,-9.371504,2.4702177000000005,-0.039414786,-0.05006743,-0.05965481,-28.02,14.46,-42.96
1554207516994,1.3934253,-9.366715,2.4462755,-0.022370555,-0.06178534,-0.054328485999999995,-27.96,14.52,-43.02
1554207517013,1.3886370000000001,-9.491214,2.3888147,-0.0053263223,-0.06711166,-0.03834952,-27.96,14.58,-43.02
1554207517034,1.5562311000000002,-9.438541,2.3265655,0.012783173500000002,-0.07030745599999999,-0.022370555,-27.96,14.58,-43.02
1554207517053,1.5179238000000002,-9.47206,2.5037365,0.03089267,-0.07137272,-0.0063915867,-27.96,14.64,-43.02
1554207517074,1.5370774999999999,-9.433753,2.3936029999999997,0.058589544,-0.060720075,0.010652645,-27.96,14.64,-43.02
1554207517094,1.5370774999999999,-9.448118,2.355296,0.07989483,-0.053263225,0.02876214,-27.96,14.46,-42.96
1554207517113,1.484405,-9.500791,2.3744495,0.082025364,-0.036218993,0.05539375,-27.96,14.28,-42.96
1554207517134,1.5610195,-9.567828,2.4223334999999997,0.05965481,-0.01917476,0.082025364,-28.02,14.1,-42.9
1554207517153,1.5035586,-9.677961,2.321777,0.026631612000000002,0.0010652645,0.1107875,-28.02,14.04,-42.9
1554207517174,1.436521,-9.606135,2.2930467,-0.03834952,0.03089267,0.15446335,-28.02,13.86,-42.84
1554207517193,1.2497733,-9.644442999999999,2.1972785,-0.07882957,0.054328485999999995,0.20453078,-28.02,13.68,-42.78
1554207517214,1.1731589,-9.716269500000001,2.417545,-0.09161274,0.06391586,0.23861924,-28.02,13.56,-42.78
1554207517234,1.1731589,-9.649231,2.4271219,-0.09374327,0.07776430000000001,0.28016454,-28.02,13.44,-42.72
1554207517254,1.0582372,-9.615712,2.556409,-0.06711166,0.09161274,0.3270362,-28.02,13.5,-42.66
1554207517273,0.93852705,-9.47206,2.6378117000000003,-0.0053263223,0.10652645,0.34514567,-28.02,13.56,-42.6
1554207517294,0.81881696,-9.419388,2.4319102999999997,0.07137272,0.10546118,0.33555830000000003,-27.96,13.86,-42.6
1554207517314,0.82360536,-9.342773,2.3361422999999997,0.12996227,0.10652645,0.3291667,-27.84,14.46,-42.6
1554207517335,0.90500826,-9.218275,2.2643162999999995,0.112918034,0.10226539,0.32597092,-27.66,14.82,-42.6
1554207517354,0.81881696,-9.261371,2.1877017000000003,0.06498113,0.10652645,0.330232,-27.48,15.24,-42.6
1554207517374,0.82360536,-9.184756,2.3696610000000002,0.037284255,0.10333065,0.32170987,-27.3,15.66,-42.6
1554207517393,0.641646,-9.1512375,2.202067,0.02876214,0.10013486,0.30466563,-27.24,15.84,-42.66
1554207517414,0.7086836999999999,-9.1512375,2.321777,0.022370555,0.08841695,0.2727077,-26.94,16.32,-42.72
1554207517433,0.7422025,-9.170391,2.0775685,0.0053263223,0.07669904,0.2545982,-26.76,16.56,-42.78
1554207517454,0.58897364,-9.237428999999999,2.417545,-0.0010652645,0.07030745599999999,0.23116238,-26.64,16.68,-42.84
1554207517474,0.60333884,-9.242217,2.1493945,-0.03089267,0.05219796,0.2130529,-26.52,16.8,-42.84
1554207517494,0.5650316,-9.395446000000002,2.2930467,-0.046871635999999994,0.043675844000000005,0.19813919,-26.46,16.92,-42.9
1554207517513,0.48362875,-9.405023,2.1350293,-0.05965481,0.034088463,0.18855181,-26.4,16.98,-42.96
1554207517533,0.39264908,-9.553463,2.2403743,-0.068176925,0.03089267,0.19281286,-26.34,17.1,-42.96
1554207517554,0.2825158,-9.582193,2.331354,-0.06711166,0.034088463,0.2066613,-26.28,17.22,-43.02
1554207517574,0.19632454,-9.601347,2.3936029999999997,-0.053263225,0.04580637,0.221575,-26.16,17.34,-43.02
1554207517594,0.15322891,-9.496002,2.508525,0.0,0.06178534,0.22903186,-26.04,17.52,-43.02
1554207517613,0.0,-9.476849000000001,2.417545,0.037284255,0.07563378,0.22477080000000002,-25.98,17.76,-43.02
1554207517633,-0.05267244,-9.500791,2.484583,0.03834952,0.08735169,0.23542345,-25.92,18.0,-42.96
1554207517654,-0.17238252,-9.596559,2.6042929,0.015978966,0.099069595,0.25140239999999997,-25.86,18.3,-42.9
1554207517674,-0.2825158,-9.668385,2.7144263,-0.033023197000000004,0.11504856,0.28442562,-25.68,18.54,-42.9
1554207517694,-0.37828386,-9.941324,2.8532897999999998,-0.07456851,0.12996227,0.33555830000000003,-25.5,18.78,-42.84
1554207517713,-0.61770403,-9.922171,2.8820202,-0.07563378,0.15339808,0.39947417,-25.26,18.96,-42.84
1554207517733,-0.8379706,-10.089765,2.8868085999999997,-0.02130529,0.18642128,0.46658584,-25.02,19.14,-42.78
1554207517754,-0.89543146,-9.974843,2.9394810000000002,0.05539375,0.21518342,0.53795856,-24.72,19.32,-42.78
1554207517774,-1.0534488000000002,-9.917382,2.9203273999999997,0.11504856,0.25246766,0.6103965,-24.48,19.44,-42.78
1554207517794,-1.2114661,-9.821614,2.819771,0.16192019,0.27803403,0.680704,-24.18,19.62,-42.9
1554207517814,-1.4077905000000002,-9.668385,2.5995044999999997,0.20879184,0.30253512,0.73290193,-23.82,19.86,-43.02
1554207517834,-1.5945383,-9.438541,2.8341362,0.24501082,0.31851408,0.7680557,-23.58,20.22,-43.08
1554207517854,-1.6424223000000002,-9.47206,2.7575218999999995,0.257794,0.3270362,0.7957525,-23.28,20.58,-43.14
1554207517873,-1.6663644,-9.486425,2.6617537000000002,0.23009712,0.33449304,0.8404937,-22.98,20.88,-43.14
1554207517893,-1.8531121,-9.476849000000001,2.819771,0.2034655,0.34834146,0.89162636,-22.68,21.18,-43.2
1554207517913,-2.1260512,-9.424176,2.6952724,0.2034655,0.36112466,0.92784536,-22.32,21.42,-43.2
1554207517934,-2.3511062000000003,-9.433753,2.6378117000000003,0.20133498,0.37071204,0.9587379999999999,-21.96,21.66,-43.2
1554207517953,-2.3989902,-9.294889,2.5276785,0.16618125,0.37284255,0.9938916999999999,-21.48,21.84,-43.2
1554207517973,-2.4995465,-9.165602999999999,2.6952724,0.12250541,0.37816888,1.0247844000000002,-21.0,21.96,-43.2
1554207517994,-2.9113493,-9.045893,2.7766755,0.029827405,0.38136467,1.0695255,-20.16,22.08,-43.32
1554207518014,-3.083732,-9.156025999999999,2.7096379,-0.033023197000000004,0.386691,1.1004181999999998,-19.86,22.14,-43.38
1554207518033,-3.466804,-8.950125,2.8963853999999998,-0.13635385,0.41545314,1.1579423999999998,-19.02,22.5,-43.56
1554207518054,-3.8067808,-8.428188,3.0160956000000003,-0.13741912,0.47936899999999993,1.196292,-18.48,22.86,-43.68
1554207518073,-4.0509889999999995,-8.365939,2.7623102999999998,-0.047936900000000005,0.58269966,1.2197278,-17.94,23.34,-43.74
1554207518093,-4.132391999999999,-8.289325,2.4702177000000005,0.008522116,0.6689861,1.2325108999999999,-17.7,23.58,-43.8
1554207518113,-4.3957543,-8.332419999999999,2.144606,-0.013848438000000001,0.7680557,1.2602079,-17.04,24.18,-43.92
1554207518133,-4.525041000000001,-8.409035000000001,1.6083049999999999,-0.20133498,0.81066626,1.3230585,-16.38,24.78,-43.98
1554207518154,-4.817133999999999,-8.624513,1.2156559,-0.52837116,0.7914915,1.4146712,-15.42,25.8,-43.98
1554207518174,-5.066130599999999,-8.825626,0.99538934,-0.6988135,0.71479243,1.4828482,-14.7,26.4,-43.92
1554207518194,-5.295974299999999,-9.0794115,0.7846996,-0.76059884,0.60293967,1.5701998,-13.92,27.06,-43.86
1554207518215,-5.449203,-8.854357,0.9091981,-0.71159667,0.50173956,1.6969663000000001,-12.84,27.9,-43.8
1554207518234,-5.7125654,-8.902241,0.84216046,-0.53476274,0.37923414,1.8013622,-11.7,28.62,-43.68
1554207518254,-5.990292500000001,-8.389880999999999,0.6937199000000001,-0.128897,0.22903186,1.8876486000000001,-10.74,29.34,-43.56
1554207518274,-6.019023000000001,-8.179192,0.83737206,0.07137272,0.17576863,1.9068234,-10.26,29.7,-43.44
1554207518294,-6.3063273,-7.140108000000001,0.7846996,0.49428272,0.051132694000000006,1.9057581000000001,-8.76,30.54,-43.14
1554207518313,-6.4020953,-6.7043633,0.84694886,0.7190535,-0.017044231,1.8706043999999997,-7.74,31.14,-42.9
1554207518334,-6.6750345,-5.9142766,1.0384849,0.87138635,-0.07243799,1.7811221999999998,-6.6,31.62,-42.72
1554207518354,-6.7612257,-5.4402246,0.86131406,0.95660746,-0.10226539,1.6948358000000001,-5.52,31.98,-42.54
1554207518373,-7.086836999999999,-4.9901147,0.97623575,0.94595486,-0.10865697,1.5233282,-4.74,31.8,-42.42
1554207518393,-7.1730285,-4.587889,1.2826935,0.89375687,-0.10972224,1.4125406999999999,-4.08,31.44,-42.3
1554207518414,-6.9958572,-4.1425676,1.359308,0.7616641,-0.14061491,1.2389026,-3.36,31.02,-42.3
1554207518433,-6.7516490000000005,-3.8265328000000003,1.4790181,0.58483016,-0.16618125,1.1036139999999999,-2.58,30.6,-42.48
1554207518454,-6.7468604999999995,-3.6876693,1.5939398,0.44741106,-0.16618125,0.99495703,-1.8,30.06,-42.78
1554207518473,-7.101202000000001,-3.6589386,1.8142063999999998,0.21518342,-0.17789917,0.7840345999999999,-1.14,29.4,-43.2
1554207518493,-7.2209125,-3.7307648999999996,2.1733365,0.098004326,-0.1768339,0.6540724,-0.72,28.62,-43.62
1554207518513,-7.144297999999999,-3.7259765,2.3744495,0.012783173500000002,-0.13741912,0.47723848,-0.3,27.78,-44.04
1554207518534,-7.2592196,-3.9845502,2.570774,0.03834952,-0.080960095,0.37603834,0.06,27.18,-44.4
1554207518553,-7.5082164,-4.1329910000000005,2.6282349,0.080960095,-0.008522116,0.29614353,0.48,26.64,-44.76
1554207518573,-7.824250999999999,-3.8504747999999998,2.7814639,0.14913702,0.060720075,0.22796659,0.84,26.16,-45.12
