TimeStamp,Ax,Ay,Az,Gx,Gy,Gz,Mx,My,Mz
1554109247432,6.9623384,-4.932654,3.518878,-0.7222493000000001,0.056459017,0.8724516,-55.02,-30.84,-17.52
1554109247452,6.775591,-4.76506,3.3800142,-0.87777793,0.040480047000000005,0.90973586,-55.2,-29.34,-17.7
1554109247472,6.6510925,-4.9518075,3.2267854,-0.9321064,0.033023197000000004,1.0034790999999998,-55.32,-28.38,-17.82
1554109247492,6.4164605,-5.679645,3.2028434,-0.9033443000000001,0.025566347000000003,1.0428939,-55.38,-27.9,-17.94
1554109247512,6.277597,-5.6940102999999995,3.5619736000000004,-0.8298409999999999,0.017044231,1.051416,-55.62,-26.34,-18.06
1554109247532,6.047753299999999,-5.5264163,3.2746694,-0.6199839,0.0053263223,1.128115,-55.68,-25.8,-18.12
1554109247552,5.889736,-5.7706246,3.3225534,-0.33662358,0.015978966,1.2538162,-55.92,-24.18,-18.3
1554109247572,5.583278,-6.187216,3.198055,-0.09267801,0.029827405,1.3102753,-56.16,-22.98,-18.42
1554109247592,5.401319,-7.020397999999999,2.9059622000000003,0.096939065,0.07137272,1.325189,-56.28,-21.66,-18.48
1554109247612,5.4061074,-6.824073299999999,3.0496144,0.10546118,0.06604639400000001,1.2996226999999998,-56.46,-20.34,-18.54
1554109247632,5.2816089999999996,-6.848015299999999,2.9394810000000002,0.099069595,0.07776430000000001,1.3528858,-56.52,-18.9,-18.6
1554109247652,5.0038815,-6.689997999999999,2.9825767999999995,0.04580637,0.10652645,1.3954965,-56.58,-17.28,-18.6
1554109247672,4.644751,-7.3124905,2.8341362,0.002130529,0.14807177,1.4242586000000002,-56.64,-15.6,-18.6
1554109247692,4.2042184,-7.7003509999999995,2.4319102999999997,-0.12996227,0.21518342,1.4136058999999999,-56.64,-13.74,-18.6
1554109247711,3.9600096,-7.8152729999999995,2.345719,-0.35260254,0.2428803,1.4029533,-56.7,-11.88,-18.6
1554109247731,3.8355112,-7.992444,2.3936029999999997,-0.66365975,0.2428803,1.4189322,-56.64,-10.02,-18.6
1554109247752,3.3806129,-8.528744999999999,2.1350293,-1.1547466999999998,0.25566345,1.3901701000000002,-56.58,-8.16,-18.6
1554109247772,3.2561142000000003,-8.610147,2.2547395,-1.4253238000000001,0.24714136,1.3571468999999998,-56.52,-6.24,-18.54
1554109247791,2.8778305,-9.184756,1.9578583999999999,-1.6479641,0.25672874,1.3699301000000002,-56.46,-4.26,-18.42
1554109247811,2.9161377,-9.419388,1.9626468000000001,-1.748099,0.23648871,1.3401027,-56.34,-2.4,-18.3
1554109247832,2.6288335,-9.735422999999999,2.0440497,-1.6809874,0.20133498,1.3070794,-55.98,-0.42,-18.18
1554109247853,2.432509,-10.324396,2.0344729999999998,-1.3283848,0.15659387,1.2868395000000001,-55.62,1.56,-17.94
1554109247872,2.3654714,-10.58297,1.9195513,-0.92038846,0.15978967,1.2580773,-55.32,3.66,-17.76
1554109247892,1.9488802,-11.66515,1.1294646000000002,-0.6199839,0.17576863,1.2133361999999999,-54.96,5.7,-17.52
1554109247911,1.9009962,-11.81359,0.84216046,-0.46339005,0.19281286,0.9715212,-54.6,7.62,-17.22
1554109247932,2.0446482,-11.914146,0.84694886,-0.46765109999999993,0.20879184,0.8362325999999999,-54.3,9.3,-16.98
1554109247952,2.2026656000000004,-11.957241999999999,0.741604,-0.50600064,0.23009712,0.66365975,-53.88,10.8,-16.74
1554109247971,2.2074540000000002,-11.578958,1.0384849,-0.5294364,0.24927188,0.4250405,-53.52,12.42,-16.56
1554109247991,2.0254946,-11.607688000000001,0.99538934,-0.52837116,0.26844665,0.23222765,-53.22,13.92,-16.32
1554109248012,1.9249381999999997,-11.315596000000001,1.0720038,-0.45806372,0.28868666,0.07137272,-52.98,15.12,-16.02
1554109248032,1.8100165000000001,-10.956466,1.3784616000000003,-0.26844665,0.28868666,-0.04474111,-52.62,16.02,-15.78
1554109248052,1.685518,-10.726623,1.335366,0.013848438000000001,0.2545982,-0.14274544,-52.32,16.74,-15.6
1554109248072,1.5275006000000002,-10.147225,1.6897078999999997,0.29827404,0.22050974,-0.21624869,-52.02,17.34,-15.42
1554109248092,1.4317327,-9.917382,1.5939398,0.531567,0.18535602,-0.24394555,-51.78,17.94,-15.24
1554109248112,1.4987701999999998,-9.481637,1.9339164,0.69668293,0.14487597,-0.2545982,-51.54,18.42,-15.12
1554109248132,1.4987701999999998,-9.285313,1.9818004,0.8298409999999999,0.10439592,-0.24394555,-51.42,18.6,-15.06
1554109248151,1.6567876,-9.026739,2.144606,0.9171927,0.053263225,-0.22796659,-51.42,18.54,-15.18
1554109248172,1.8435352999999999,-8.878299,1.9913772,0.9235843,0.013848438000000001,-0.20026971,-51.48,18.42,-15.36
1554109248191,1.8914193,-8.710705,1.9865887999999998,0.81066626,-0.026631612000000002,-0.16618125,-51.54,18.18,-15.54
1554109248211,1.9488802,-8.552686999999999,1.8429368000000002,0.5858955,-0.058589544,-0.13315806,-51.66,17.88,-15.78
1554109248233,2.0733786,-8.614936,1.9482816000000003,0.2908172,-0.07137272,-0.10759171,-51.78,17.52,-16.2
1554109248251,2.0590134,-8.749011999999999,1.8908207,-0.014913702,-0.07882957,-0.08841695,-51.84,17.16,-16.62
1554109248272,2.0398598000000003,-8.782531,1.7567455,-0.24820662,-0.07137272,-0.068176925,-51.96,16.86,-17.04
1554109248293,2.1212628,-8.969278,1.8477252,-0.38029942,-0.058589544,-0.056459017,-52.02,16.5,-17.34
1554109248311,2.0159178,-9.309255,1.7232267,-0.41864893,-0.043675844000000005,-0.049002163,-52.08,16.2,-17.64
1554109248331,1.9440918000000003,-9.337985,1.6178818000000001,-0.38029942,-0.034088463,-0.033023197000000004,-52.14,16.02,-17.88
1554109248352,2.0350714,-9.424176,1.5699978,-0.29294774,-0.023435817999999997,-0.01917476,-52.14,15.9,-18.12
1554109248371,1.9776106,-9.524733,1.6753427,-0.20026971,-0.008522116,-0.011717908999999999,-52.14,15.9,-18.12
1554109248392,1.9105729999999999,-9.620500999999999,1.584363,-0.10439592,0.012783173500000002,-0.012783173500000002,-52.2,15.9,-18.0
1554109248411,1.9680338,-9.558251,1.5891514,-0.033023197000000004,0.024501082,-0.013848438000000001,-52.2,15.96,-17.94
1554109248431,1.9728221999999997,-9.601347,1.7088615000000003,0.039414786,0.03195793,-0.017044231,-52.2,15.96,-17.82
1554109248452,1.9680338,-9.6923275,1.6609775000000002,0.07669904,0.03195793,-0.03195793,-52.2,16.02,-17.64
1554109248473,1.8962077000000002,-9.433753,1.6514006,0.07030745599999999,0.033023197000000004,-0.043675844000000005,-52.2,16.08,-17.58
1554109248491,1.9345150000000002,-9.615712,1.7136499,0.054328485999999995,0.036218993,-0.053263225,-52.2,16.14,-17.46
1554109248511,1.8962077000000002,-9.610924,1.7854759999999998,0.023435817999999997,0.03195793,-0.07989483,-52.2,16.2,-17.46
1554109248532,1.8770541,-9.529521,1.6657659,0.011717908999999999,0.023435817999999997,-0.09374327,-52.2,16.26,-17.4
1554109248552,1.9393034,-9.448118,1.8956091,0.025566347000000003,0.010652645,-0.10652645,-52.2,16.32,-17.4
1554109248572,1.9009962,-9.314043,1.7615339,0.058589544,0.0010652645,-0.10972224,-52.14,16.32,-17.4
1554109248591,1.9393034,-9.251794,1.8142063999999998,0.09267801,-0.008522116,-0.10652645,-52.2,16.32,-17.4
1554109248611,1.9967641999999999,-9.328408,1.809418,0.10652645,-0.020240024,-0.10865697,-52.2,16.32,-17.4
1554109248631,2.0590134,-9.184756,1.7902644,0.10759171,-0.029827405,-0.10226539,-52.2,16.32,-17.4
1554109248652,2.0398598000000003,-9.275736,1.7088615000000003,0.094808534,-0.03195793,-0.09161274,-52.2,16.32,-17.4
1554109248671,1.9967641999999999,-9.050680999999999,1.7950528000000001,0.07669904,-0.03195793,-0.083090626,-52.2,16.26,-17.34
1554109248692,1.9536686,-9.213486999999999,1.6705543,0.060720075,-0.027696876000000002,-0.068176925,-52.2,16.2,-17.34
1554109248712,1.9823990000000002,-9.20391,1.8142063999999998,0.04580637,-0.024501082,-0.06178534,-52.14,16.2,-17.4
1554109248731,1.9393034,-9.251794,1.6609775000000002,0.02130529,-0.012783173500000002,-0.05006743,-52.14,16.14,-17.46
1554109248752,2.0302830000000003,-9.366715,1.7423803,-0.0053263223,-0.008522116,-0.041545313,-52.08,16.14,-17.46
1554109248772,2.0733786,-9.285313,1.8237831999999998,-0.013848438000000001,0.0031957934000000003,-0.039414786,-52.08,16.08,-17.52
1554109248791,2.0733786,-9.270947,1.8668787,-0.0031957934000000003,0.008522116,-0.039414786,-52.02,16.08,-17.58
1554109248811,1.9919758,-9.428965,1.8333599999999999,0.012783173500000002,0.020240024,-0.04474111,-52.02,16.02,-17.58
1554109248832,2.0302830000000003,-9.227852,1.9003976999999999,0.025566347000000003,0.017044231,-0.05219796,-51.96,15.96,-17.64
1554109248852,2.0733786,-9.270947,1.8142063999999998,0.037284255,0.015978966,-0.04580637,-51.96,15.96,-17.64
1554109248871,2.0590134,-9.294889,1.881244,0.04474111,0.015978966,-0.04474111,-51.96,15.9,-17.7
1554109248891,2.0302830000000003,-9.32362,1.9195513,0.046871635999999994,0.011717908999999999,-0.043675844000000005,-51.9,15.9,-17.76
1554109248912,1.9345150000000002,-9.179967999999999,1.7711107,0.047936900000000005,0.008522116,-0.039414786,-51.9,15.9,-17.82
1554109248933,1.9632453999999997,-9.309255,1.9243397,0.04261058,0.007456851,-0.03834952,-51.9,15.84,-17.88
1554109248952,1.9440918000000003,-9.218275,1.929128,0.022370555,0.0053263223,-0.039414786,-51.84,15.84,-17.94
1554109248972,1.9680338,-9.251794,1.8477252,0.013848438000000001,0.007456851,-0.029827405,-51.84,15.84,-18.0
1554109248992,1.9632453999999997,-9.424176,1.9003976999999999,-0.002130529,-0.0010652645,-0.037284255,-51.84,15.78,-18.0
1554109249012,2.0925324,-9.390657000000001,2.0201077,-0.017044231,-0.002130529,-0.043675844000000005,-51.9,15.78,-18.0
1554109249031,2.1691467999999996,-9.328408,1.8285716,-0.011717908999999999,-0.0031957934000000003,-0.03834952,-51.96,15.72,-18.0
1554109249052,2.0494366000000004,-9.314043,1.8285716,-0.008522116,-0.007456851,-0.043675844000000005,-52.02,15.72,-17.94
1554109249072,2.0302830000000003,-9.419388,1.7711107,-0.010652645,-0.00958738,-0.047936900000000005,-52.14,15.66,-17.94
1554109249092,2.054225,-9.32362,1.8333599999999999,-0.008522116,-0.002130529,-0.05006743,-52.2,15.6,-17.88
1554109249111,1.9967641999999999,-9.285313,1.7136499,0.0010652645,-0.0010652645,-0.05539375,-52.32,15.6,-17.82
1554109249131,1.9919758,-9.357139,1.8477252,0.0031957934000000003,0.002130529,-0.05965481,-52.38,15.6,-17.82
1554109249152,1.9776106,-9.32362,1.8716671000000003,0.007456851,0.0053263223,-0.05752428,-52.38,15.6,-17.82
1554109249172,1.9823990000000002,-9.376292,1.7280151000000001,0.011717908999999999,0.002130529,-0.058589544,-52.32,15.6,-17.82
1554109249191,2.0781669999999997,-9.256582,1.8620903000000002,0.0031957934000000003,0.0031957934000000003,-0.05965481,-52.26,15.6,-17.82
1554109249211,2.1068976000000004,-9.314043,1.977012,-0.0031957934000000003,0.008522116,-0.060720075,-52.2,15.6,-17.88
1554109249233,2.1164744,-9.270947,1.9387047999999998,0.0031957934000000003,0.0053263223,-0.06178534,-52.14,15.6,-17.88
1554109249251,2.087744,-9.237428999999999,1.9387047999999998,0.011717908999999999,0.0,-0.058589544,-52.08,15.6,-17.94
1554109249272,2.111686,-9.208698,1.9626468000000001,0.03089267,-0.0063915867,-0.047936900000000005,-52.02,15.6,-18.06
1554109249292,2.087744,-9.20391,1.9434932,0.029827405,-0.00958738,-0.04261058,-52.02,15.6,-18.12
1554109249312,2.0590134,-9.294889,1.8237831999999998,0.008522116,-0.0063915867,-0.046871635999999994,-52.08,15.54,-18.18
1554109249332,1.9536686,-9.385869,1.9865887999999998,-0.010652645,-0.0063915867,-0.04580637,-52.14,15.48,-18.24
1554109249352,2.0685901999999996,-9.342773,1.9578583999999999,-0.020240024,-0.004261058,-0.04580637,-52.14,15.42,-18.3
1554109249371,1.9823990000000002,-9.366715,1.8956091,-0.013848438000000001,-0.0010652645,-0.053263225,-52.2,15.42,-18.36
1554109249391,2.0829554,-9.328408,2.0009542000000002,0.0031957934000000003,-0.004261058,-0.05539375,-52.2,15.36,-18.36
1554109249413,2.135628,-9.199121,1.809418,0.01917476,-0.0063915867,-0.05752428,-52.26,15.3,-18.36
1554109249431,2.1260512,-9.20391,1.857302,0.025566347000000003,-0.0031957934000000003,-0.05965481,-52.32,15.24,-18.36
1554109249451,2.135628,-9.309255,1.8860323,0.02876214,-0.0053263223,-0.054328485999999995,-52.32,15.24,-18.3
1554109249471,2.1499932,-9.275736,1.977012,0.024501082,-0.0053263223,-0.054328485999999995,-52.38,15.24,-18.3
1554109249492,2.1068976000000004,-9.237428999999999,1.9865887999999998,0.01917476,-0.0063915867,-0.05752428,-52.38,15.24,-18.24
1554109249512,2.0590134,-9.309255,1.9243397,0.015978966,-0.0010652645,-0.056459017,-52.38,15.24,-18.24
1554109249532,2.1452047999999997,-9.328408,1.9339164,0.014913702,-0.002130529,-0.051132694000000006,-52.38,15.24,-18.24
1554109249551,2.1164744,-9.208698,1.929128,0.004261058,0.0010652645,-0.04261058,-52.38,15.24,-18.24
1554109249571,2.1260512,-9.361927,1.9961656000000003,-0.0031957934000000003,0.0053263223,-0.03834952,-52.32,15.18,-18.24
1554109249592,2.1883004,-9.35235,1.9147629000000002,-0.004261058,0.0053263223,-0.039414786,-52.26,15.18,-18.3
1554109249612,2.0254946,-9.266159,1.9818004,-0.002130529,0.0,-0.041545313,-52.2,15.18,-18.36
1554109249632,2.087744,-9.405023,1.8668787,-0.0010652645,0.0010652645,-0.04474111,-52.14,15.18,-18.42
1554109249651,2.1021092,-9.304466,1.8668787,-0.004261058,-0.0031957934000000003,-0.049002163,-52.08,15.18,-18.48
1554109249671,2.0925324,-9.337985,2.0153193,-0.004261058,0.002130529,-0.05219796,-52.02,15.18,-18.54
1554109249692,2.1021092,-9.337985,1.9482816000000003,-0.0063915867,0.0010652645,-0.05965481,-52.02,15.18,-18.6
1554109249712,2.0446482,-9.280524,1.9578583999999999,0.0,-0.0010652645,-0.05965481,-52.08,15.18,-18.6
1554109249732,2.15957,-9.280524,2.0153193,0.0053263223,-0.002130529,-0.06924219,-52.08,15.18,-18.48
1554109249752,2.0925324,-9.227852,1.9674352,0.012783173500000002,-0.0010652645,-0.06604639400000001,-52.08,15.18,-18.42
1554109249772,2.111686,-9.227852,2.0105310000000003,0.015978966,0.0,-0.07137272,-52.08,15.18,-18.3
1554109249792,2.2313959999999997,-9.146449,1.9147629000000002,0.013848438000000001,-0.0031957934000000003,-0.068176925,-52.14,15.18,-18.18
1554109249812,2.135628,-9.184756,1.7423803,0.007456851,-0.0031957934000000003,-0.06604639400000001,-52.14,15.18,-18.12
1554109249831,2.1452047999999997,-9.179967999999999,1.8668787,0.0,-0.0031957934000000003,-0.058589544,-52.14,15.18,-18.06
1554109249851,2.1404164,-9.242217,1.9482816000000003,-0.011717908999999999,-0.002130529,-0.05965481,-52.14,15.18,-18.06
1554109249872,2.1452047999999997,-9.266159,1.9626468000000001,-0.012783173500000002,-0.010652645,-0.058589544,-52.08,15.18,-18.12
1554109249892,2.15957,-9.314043,2.0536265,-0.010652645,-0.007456851,-0.06178534,-52.08,15.18,-18.18
1554109249912,2.1691467999999996,-9.266159,2.0919337,-0.008522116,-0.012783173500000002,-0.06604639400000001,-52.08,15.18,-18.24
1554109249931,2.1643584,-9.318831,1.9865887999999998,-0.0010652645,-0.014913702,-0.06498113,-52.14,15.12,-18.36
1554109249952,2.1739352000000003,-9.213486999999999,1.9195513,0.008522116,-0.014913702,-0.06604639400000001,-52.14,15.0,-18.42
1554109249971,2.1739352000000003,-9.318831,2.0679917000000003,0.010652645,-0.01917476,-0.068176925,-52.14,14.94,-18.48
1554109249991,2.1499932,-9.20391,2.0105310000000003,0.008522116,-0.018109497,-0.06604639400000001,-52.14,14.88,-18.48
1554109250012,2.2266076,-9.184756,1.8764555,0.0053263223,-0.017044231,-0.05965481,-52.14,14.82,-18.48
1554109250031,2.183512,-9.20391,1.8860323,0.0031957934000000003,-0.015978966,-0.058589544,-52.14,14.7,-18.48
1554109250051,2.1499932,-9.146449,1.9147629000000002,0.0,-0.014913702,-0.058589544,-52.14,14.7,-18.48
1554109250072,2.1308396000000003,-9.156025999999999,1.8668787,-0.0031957934000000003,-0.007456851,-0.049002163,-52.2,14.64,-18.48
1554109250092,2.2122424,-9.146449,1.8477252,-0.004261058,0.0,-0.04261058,-52.26,14.64,-18.48
1554109250111,2.15957,-9.256582,1.8908207,-0.0010652645,0.0031957934000000003,-0.029827405,-52.26,14.64,-18.42
1554109250132,2.3032220000000003,-9.218275,1.9003976999999999,-0.002130529,0.007456851,-0.023435817999999997,-52.32,14.64,-18.42
1554109250152,2.1883004,-9.333197,2.0775685,-0.013848438000000001,0.007456851,-0.027696876000000002,-52.32,14.64,-18.42
1554109250172,2.0829554,-9.424176,1.9578583999999999,-0.025566347000000003,0.00958738,-0.026631612000000002,-52.38,14.7,-18.42
1554109250192,2.2601264,-9.424176,1.977012,-0.026631612000000002,0.0053263223,-0.029827405,-52.44,14.7,-18.36
1554109250211,2.1547816,-9.44333,2.0153193,-0.012783173500000002,0.002130529,-0.037284255,-52.44,14.76,-18.36
1554109250231,2.2122424,-9.366715,1.9387047999999998,0.0031957934000000003,0.002130529,-0.049002163,-52.5,14.82,-18.3
1554109250251,2.135628,-9.35235,2.144606,0.023435817999999997,-0.0010652645,-0.058589544,-52.5,14.88,-18.3
1554109250272,2.1308396000000003,-9.251794,1.9674352,0.035153727999999995,0.0010652645,-0.06498113,-52.5,14.94,-18.24
1554109250291,2.1883004,-9.280524,2.0440497,0.036218993,-0.0031957934000000003,-0.06711166,-52.44,15.0,-18.24
1554109250312,2.1499932,-9.237428999999999,2.1158757,0.02130529,-0.008522116,-0.06924219,-52.38,15.0,-18.24
1554109250332,2.2313959999999997,-9.194333,2.0153193,0.0,-0.014913702,-0.06711166,-52.38,14.94,-18.24
1554109250351,2.1404164,-9.194333,2.168548,-0.0031957934000000003,-0.018109497,-0.05965481,-52.32,14.88,-18.3
1554109250371,2.2266076,-9.247005,2.0871453,0.0031957934000000003,-0.02130529,-0.058589544,-52.26,14.82,-18.3
1554109250392,2.2505496,-9.199121,2.130241,0.012783173500000002,-0.025566347000000003,-0.06178534,-52.2,14.76,-18.3
1554109250412,2.2218192,-9.179967999999999,1.857302,0.01917476,-0.027696876000000002,-0.054328485999999995,-52.2,14.7,-18.36
1554109250432,2.3032220000000003,-9.227852,2.0775685,0.020240024,-0.03195793,-0.05219796,-52.14,14.64,-18.42
1554109250451,2.2744915,-9.285313,2.0632033,0.012783173500000002,-0.027696876000000002,-0.053263225,-52.14,14.58,-18.42
1554109250471,2.183512,-9.299678,1.8381484000000001,0.0053263223,-0.025566347000000003,-0.054328485999999995,-52.2,14.58,-18.48
1554109250491,2.1021092,-9.32362,2.0201077,-0.004261058,-0.026631612000000002,-0.06178534,-52.2,14.58,-18.48
1554109250512,2.2649147999999997,-9.529521,1.977012,-0.017044231,-0.023435817999999997,-0.07882957,-52.2,14.64,-18.48
1554109250531,2.2505496,-9.539098,1.8956091,-0.024501082,-0.017044231,-0.10013486,-52.2,14.7,-18.48
1554109250551,2.2505496,-9.706693,2.0344729999999998,-0.035153727999999995,-0.0063915867,-0.13209279,-52.2,14.7,-18.54
1554109250572,2.3127987,-9.883863,1.929128,-0.046871635999999994,-0.0010652645,-0.1768339,-52.2,14.7,-18.48
1554109250592,2.3415293999999998,-10.051457000000001,1.9674352,-0.05539375,0.004261058,-0.22903186,-52.2,14.76,-18.48
1554109250612,2.5187001,-9.941324,2.1493945,-0.027696876000000002,0.0010652645,-0.27483824,-52.2,14.76,-18.48
1554109250632,2.585738,-9.68275,1.8860323,0.034088463,0.0031957934000000003,-0.32170987,-52.2,14.7,-18.48
1554109250653,2.5474305,-9.563039999999999,1.8908207,0.083090626,-0.0010652645,-0.36432046,-52.26,14.7,-18.48
1554109250671,2.5043349999999998,-9.481637,1.9674352,0.13848437,0.007456851,-0.39095205,-52.26,14.64,-18.48
1554109250692,2.5378537,-9.438541,2.0153193,0.21092236,0.00958738,-0.40266997,-52.32,14.34,-18.42
1554109250711,2.6144682999999995,-9.227852,2.1398177000000005,0.27377295,0.0031957934000000003,-0.41438788,-52.44,14.04,-18.48
1554109250732,2.5570072999999995,-9.098564999999999,2.0871453,0.31212249999999997,0.0063915867,-0.4165184,-52.56,13.68,-18.54
1554109250752,2.6862943,-9.088988,2.130241,0.3291667,0.0,-0.42077947,-52.74,13.32,-18.6
1554109250772,2.695871,-9.088988,2.1829132999999996,0.32490566,-0.002130529,-0.4282363,-52.92,12.96,-18.6
1554109250792,2.8107927000000004,-9.0842,2.28347,0.30253512,-0.004261058,-0.43036684,-53.1,12.54,-18.66
1554109250811,3.0166939999999998,-9.170391,2.1829132999999996,0.25246766,0.0031957934000000003,-0.43782368,-53.22,12.0,-18.72
1554109250831,3.0023289,-9.136872,2.2547395,0.15126756,0.0063915867,-0.46765109999999993,-53.4,11.34,-18.78
1554109250851,3.2273839,-9.093777000000001,2.2403743,0.029827405,0.011717908999999999,-0.49747851,-53.52,10.8,-18.84
1554109250872,3.3327288999999998,-9.088988,2.2930467,-0.06391586,0.018109497,-0.5230448000000001,-53.58,10.26,-18.96
1554109250892,3.3854012000000004,-9.381081,2.1829132999999996,-0.10333065,0.026631612000000002,-0.567786,-53.64,9.66,-19.02
1554109250911,3.4428620000000003,-9.35235,2.273893,-0.09054748,0.024501082,-0.61572284,-53.64,9.06,-19.08
1554109250931,3.4955344,-9.256582,2.4462755,-0.017044231,0.020240024,-0.6423545,-53.64,8.46,-19.2
1554109250951,3.5913025999999997,-9.041103999999999,2.5851393,0.12037488,0.014913702,-0.6743124,-53.7,7.56,-19.26
1554109250972,3.6727053999999995,-9.160814,2.6042929,0.23222765,0.012783173500000002,-0.7126619000000001,-53.76,6.96,-19.32
1554109250991,3.6870705999999998,-9.1272955,2.6473885,0.32277513,-0.0010652645,-0.74781567,-54.0,6.42,-19.32
1554109251012,3.8498763999999994,-8.782531,2.5803509,0.3685815,-0.011717908999999999,-0.7765778,-54.12,5.7,-19.38
1554109251032,4.0222587999999995,-8.437764999999999,2.6138697,0.37710363,-0.025566347000000003,-0.7914915,-54.3,4.8,-19.44
1554109251051,4.098873,-8.4234,2.5803509,0.3323625,-0.02876214,-0.813862,-54.48,3.96,-19.62
1554109251072,4.189853,-8.45213,2.6665419999999997,0.22264028,-0.029827405,-0.85540736,-54.66,3.12,-19.74
1554109251093,4.3574470000000005,-8.227076,2.6330232999999996,0.11504856,-0.033023197000000004,-0.8767126000000001,-54.84,2.28,-19.92
1554109251112,4.5441947,-8.193557,2.5276785,0.040480047000000005,-0.035153727999999995,-0.8767126000000001,-54.96,1.44,-20.04
1554109251132,4.663905000000001,-8.188768,2.6569653,-0.02130529,-0.035153727999999995,-0.90014845,-55.08,0.48,-20.22
1554109251151,4.7500963,-8.040328,2.6569653,-0.026631612000000002,-0.033023197000000004,-0.9235843,-55.08,-0.42,-20.34
1554109251172,4.8362875,-8.002021000000001,2.6665419999999997,0.01917476,-0.029827405,-0.93423694,-55.14,-1.32,-20.52
1554109251192,5.046977,-7.9828672,2.8054059,0.13422333,-0.029827405,-0.9416938,-55.14,-2.22,-20.52
1554109251211,5.1379566,-7.891887,2.915539,0.2428803,-0.039414786,-0.9406285,-55.2,-3.24,-20.52
1554109251231,5.2289367,-7.49445,2.819771,0.42077947,-0.051132694000000006,-0.93423694,-55.26,-4.32,-20.52
1554109251252,5.4396260000000005,-7.331644,2.867655,0.63702816,-0.05752428,-0.9321064,-55.38,-5.52,-20.52
1554109251272,5.5545480000000005,-7.0970125,3.020884,0.8064051999999999,-0.07989483,-0.91612744,-55.5,-6.9,-20.58
1554109251292,5.683835,-6.618172,3.2986114,0.9736517,-0.10333065,-0.87777793,-55.62,-8.22,-20.58
1554109251312,5.8849480000000005,-6.4362125,3.198055,1.1366372,-0.12676647,-0.8202536,-55.74,-9.54,-20.64
1554109251331,5.8801594,-6.172850599999999,3.3033997999999998,1.2239889,-0.1470065,-0.78083885,-55.8,-10.92,-20.76
1554109251352,6.0525417,-5.895123,3.3225534,1.2357068000000002,-0.15765914,-0.73822826,-55.92,-12.12,-20.82
1554109251371,6.172251999999999,-5.875969400000001,3.3608606,1.1824435,-0.15978967,-0.70840085,-55.98,-13.38,-20.88
1554109251391,6.363788,-5.66528,3.5811272000000005,1.0301107,-0.16085494,-0.6668556,-55.92,-14.7,-20.94
1554109251412,6.3925184999999995,-5.3396683,3.5954924,0.8948221,-0.16298546,-0.6295713000000001,-55.86,-16.02,-20.94
1554109251434,6.627150500000001,-5.3636102999999995,3.5140896,0.7637946,-0.17363810000000002,-0.60080916,-55.8,-17.22,-20.88
1554109251451,6.6654577,-5.1960163,3.7630866000000003,0.6199839,-0.17150758,-0.58696073,-55.74,-18.54,-20.88
1554109251471,6.6606693,-5.109825,3.9881415000000002,0.52411014,-0.16618125,-0.56459016,-55.68,-19.68,-20.82
1554109251492,6.684611299999999,-4.9996915,4.0120835,0.46871635,-0.15659387,-0.52837116,-55.62,-20.64,-20.76
1554109251511,6.813898,-4.827309,4.208408,0.45060685,-0.16085494,-0.49321744,-55.62,-21.54,-20.7
1554109251532,6.9096660000000005,-4.6405616,4.0695443,0.46765109999999993,-0.16405073,-0.44741106,-55.56,-22.26,-20.64
1554109251553,7.053317999999999,-4.7123876,3.9881415000000002,0.5113269,-0.15978967,-0.4048005,-55.62,-23.28,-20.58
1554109251572,7.110779300000001,-4.6980224,4.1270050000000005,0.5550028,-0.15765914,-0.36964676,-55.62,-23.52,-20.52
1554109251592,7.1586633,-4.544793599999999,4.1222167,0.5816344,-0.15233281,-0.33768883,-55.68,-24.12,-20.4
1554109251612,7.144297999999999,-4.540005000000001,4.194042700000001,0.5763081,-0.15126756,-0.30679616,-55.68,-24.54,-20.16
1554109251632,7.153875,-4.482544,4.079121,0.5486112,-0.14913702,-0.27803403,-55.68,-24.96,-19.92
1554109251652,7.383717999999999,-4.5016975,4.088698,0.4857606,-0.13954964,-0.27057716,-55.68,-25.44,-19.68
1554109251672,7.2831616,-4.31495,4.0695443,0.40906155,-0.13528858,-0.26738137,-55.68,-25.92,-19.44
1554109251692,7.393294999999999,-4.2862196,4.088698,0.3174488,-0.12144015,-0.25566345,-55.68,-26.46,-19.2
1554109251712,7.249642999999999,-4.257489,4.1078515,0.18535602,-0.11504856,-0.24181503,-55.68,-26.94,-19.02
1554109251731,7.4028716,-4.185663,4.0599675,0.05006743,-0.09374327,-0.22796659,-55.68,-27.42,-18.84
1554109251751,7.3166804,-4.228758999999999,4.2850223,-0.06391586,-0.07776430000000001,-0.22477080000000002,-55.68,-27.72,-18.72
1554109251772,7.393294999999999,-4.3101616,4.466982,-0.11824436,-0.07030745599999999,-0.22477080000000002,-55.62,-27.96,-18.72
1554109251791,7.445967,-4.4681787,4.2898107,-0.12570119999999999,-0.07030745599999999,-0.21944448,-55.56,-28.26,-18.66
1554109251812,7.4699089999999995,-4.4777555,4.23235,-0.113983296,-0.07456851,-0.22050974,-55.44,-28.56,-18.66
1554109251832,7.5369470000000005,-4.401141,4.3424835,-0.08841695,-0.07669904,-0.21731395,-55.38,-28.8,-18.6
1554109251851,7.546523599999999,-4.4538136,4.395156,-0.049002163,-0.07030745599999999,-0.21731395,-55.26,-28.98,-18.6
1554109251872,7.5800424,-4.324527,4.1653123,-0.013848438000000001,-0.080960095,-0.22264028,-55.2,-29.22,-18.54
1554109251892,7.565677,-4.252701,4.308964700000001,0.012783173500000002,-0.083090626,-0.2130529,-55.14,-29.4,-18.48
1554109251911,7.493850999999999,-4.152144399999999,4.103063,0.01917476,-0.07882957,-0.20879184,-55.08,-29.64,-18.48
1554109251932,7.5800424,-4.1138372,4.055179,0.029827405,-0.07563378,-0.19387813,-55.02,-29.82,-18.42
1554109251952,7.5082164,-4.061165,4.1270050000000005,0.039414786,-0.07350325,-0.17789917,-55.02,-29.94,-18.42
1554109251971,7.608772999999999,-4.013280399999999,4.0743327,0.039414786,-0.06498113,-0.15339808,-55.02,-30.18,-18.3
1554109251992,7.6949644,-3.8504747999999998,4.1844660000000005,0.020240024,-0.05219796,-0.13422333,-55.02,-30.42,-18.24
1554109252012,7.7572136,-4.065953299999999,4.1413703,0.004261058,-0.04261058,-0.12357068,-54.96,-30.6,-18.12
1554109252032,7.627927000000001,-4.065953299999999,4.11264,-0.027696876000000002,-0.039414786,-0.12144015,-54.96,-30.72,-18.06
1554109252051,7.690175999999999,-4.1282024,4.3185415,-0.051132694000000006,-0.03195793,-0.11930962,-54.9,-30.9,-18.0
1554109252072,7.752425,-4.324527,4.0599675,-0.07669904,-0.027696876000000002,-0.128897,-54.9,-31.08,-17.94
1554109252092,7.747636999999999,-4.214393599999999,3.9737763,-0.08948222,-0.025566347000000003,-0.13422333,-54.84,-31.2,-17.82
1554109252111,7.680599000000001,-4.267066000000001,4.1078515,-0.098004326,-0.02130529,-0.13954964,-54.84,-31.38,-17.82
1554109252132,7.747636999999999,-4.147355999999999,4.007295,-0.099069595,-0.020240024,-0.14807177,-54.84,-31.5,-17.76
1554109252151,7.723694999999999,-4.200028400000001,4.0839095,-0.05965481,-0.013848438000000001,-0.1470065,-54.84,-31.56,-17.82
1554109252171,7.7093296,-4.223970400000001,4.0264487,-0.033023197000000004,-0.007456851,-0.15978967,-54.78,-31.56,-17.88
1554109252191,7.699753,-4.1425676,4.1844660000000005,-0.0010652645,-0.013848438000000001,-0.16937704,-54.78,-31.56,-17.94
1554109252212,7.699753,-4.0084919999999995,4.0120835,0.023435817999999997,-0.017044231,-0.15978967,-54.78,-31.62,-17.94
1554109252231,7.8577699999999995,-3.8361096,4.016872,0.035153727999999995,-0.01917476,-0.15020229,-54.78,-31.68,-18.0
1554109252251,7.738060000000001,-3.912724,4.016872,0.047936900000000005,-0.010652645,-0.13954964,-54.72,-31.74,-18.06
1554109252272,7.762002000000001,-3.8552632000000004,4.194042700000001,0.040480047000000005,-0.004261058,-0.13422333,-54.72,-31.8,-18.06
1554109252292,7.8050976,-3.8456864,4.0599675,0.037284255,0.002130529,-0.113983296,-54.72,-31.92,-18.06
1554109252311,7.8003089999999995,-3.8025907999999995,4.1078515,0.035153727999999995,0.007456851,-0.096939065,-54.72,-32.1,-18.06
1554109252331,7.8003089999999995,-3.8839936,4.2371383,0.029827405,0.017044231,-0.099069595,-54.72,-32.28,-18.06
1554109252351,7.7907324000000004,-3.9318779000000004,4.2754455,0.017044231,0.015978966,-0.09587380000000001,-54.66,-32.4,-18.0
1554109252372,7.7667904000000005,-4.0037036,4.170100700000001,0.0031957934000000003,0.018109497,-0.08735169,-54.6,-32.58,-18.0
1554109252392,7.876923599999999,-3.8600516000000002,3.9833531000000004,-0.012783173500000002,0.018109497,-0.08841695,-54.6,-32.7,-18.0
1554109252412,7.8003089999999995,-3.8839936,4.160524,-0.037284255,0.024501082,-0.09587380000000001,-54.6,-32.82,-18.0
1554109252432,7.7667904000000005,-4.0037036,4.270657,-0.056459017,0.025566347000000003,-0.10333065,-54.54,-32.94,-18.06
1554109252452,7.752425,-4.0276456,4.2850223,-0.05752428,0.025566347000000003,-0.10333065,-54.54,-33.06,-18.06
1554109252472,7.795521000000001,-4.0803185,4.2036195,-0.046871635999999994,0.017044231,-0.10759171,-54.48,-33.18,-18.12
1554109252492,7.8865004,-3.970185,4.2610803,-0.035153727999999995,0.0010652645,-0.11611383,-54.48,-33.24,-18.12
1554109252512,7.728483,-3.9797617999999995,4.246715,-0.0031957934000000003,-0.0053263223,-0.1107875,-54.48,-33.3,-18.18
1554109252532,7.776367,-4.018069000000001,4.2419267,0.017044231,-0.010652645,-0.10759171,-54.54,-33.36,-18.18
1554109252552,7.7811556,-3.9223008000000004,4.2131963,0.007456851,-0.015978966,-0.11717909,-54.54,-33.48,-18.24
1554109252572,7.8673470000000005,-3.8696284,4.117428299999999,-0.008522116,-0.007456851,-0.12037488,-54.54,-33.54,-18.24
1554109252591,7.8290396,-3.970185,4.246715,-0.03089267,-0.00958738,-0.13209279,-54.54,-33.6,-18.24
1554109252611,7.8386164,-3.840898,4.433463,-0.039414786,-0.013848438000000001,-0.14807177,-54.6,-33.78,-18.24
1554109252632,7.843405000000001,-3.8600516000000002,4.2754455,-0.017044231,-0.024501082,-0.14594123,-54.6,-33.9,-18.24
1554109252651,7.8625584,-3.9606082000000002,4.2419267,0.033023197000000004,-0.041545313,-0.14061491,-54.6,-34.26,-18.18
1554109252671,7.881711999999999,-3.9270894999999997,4.1892543,0.053263225,-0.040480047000000005,-0.13954964,-54.6,-34.32,-18.18
1554109252692,7.8625584,-3.946243,4.11264,0.07030745599999999,-0.040480047000000005,-0.13848437,-54.54,-34.5,-18.12
1554109252712,7.920019,-3.8839936,4.1078515,0.07350325,-0.05006743,-0.13848437,-54.42,-34.68,-18.06
1554109252732,8.025364,-3.7786489000000003,4.194042700000001,0.07989483,-0.054328485999999995,-0.13315806,-54.36,-34.86,-18.0
1554109252752,7.987056699999999,-3.7259765,4.2754455,0.099069595,-0.054328485999999995,-0.13102753,-54.3,-35.04,-17.94
1554109252772,7.8146744,-3.6876693,4.1892543,0.14168017,-0.053263225,-0.12037488,-54.24,-35.04,-17.94
1554109252792,8.010999,-3.639785,4.2275615,0.1768339,-0.05219796,-0.1107875,-54.18,-35.04,-17.94
1554109252812,7.996633500000001,-3.6014779000000003,4.1270050000000005,0.18109496,-0.047936900000000005,-0.112918034,-54.18,-35.04,-17.94
1554109252832,7.9391727,-3.5152867,4.0216603,0.1949434,-0.046871635999999994,-0.10546118,-54.18,-34.98,-17.94
1554109252852,7.953538000000001,-3.5392287000000002,4.1270050000000005,0.20985709,-0.041545313,-0.094808534,-54.18,-34.98,-17.94
1554109252871,8.001422,-3.5009214999999996,4.079121,0.20559604,-0.04261058,-0.08841695,-54.24,-35.04,-17.94
1554109252891,8.1163435,-3.4051532999999994,4.0360255,0.18002969,-0.037284255,-0.09267801,-54.24,-35.04,-17.94
1554109252912,8.025364,-3.4099417,4.0934862999999995,0.08522116,-0.020240024,-0.112918034,-54.24,-35.1,-17.88
1554109252932,8.0684595,-3.2710779999999997,4.0503907,0.025566347000000003,-0.015978966,-0.111852765,-54.18,-35.1,-17.82
1554109252951,8.020576,-3.4434607,4.0599675,-0.022370555,-0.0053263223,-0.09267801,-54.18,-35.16,-17.76
1554109252972,7.9583262999999995,-3.5296519,4.23235,-0.02130529,0.0053263223,-0.08841695,-54.12,-35.16,-17.64
1554109252992,7.929596000000001,-3.4434607,4.1653123,-0.011717908999999999,0.011717908999999999,-0.08841695,-54.12,-35.22,-17.58
1554109253012,7.905653999999999,-3.3907879999999997,4.136582,-0.018109497,0.012783173500000002,-0.084155895,-54.06,-35.34,-17.46
1554109253032,7.987056699999999,-3.3620577000000003,3.9929300000000003,-0.04261058,0.023435817999999997,-0.07137272,-54.06,-35.4,-17.4
1554109253052,8.049306,-3.3620577000000003,4.0934862999999995,-0.10013486,0.025566347000000003,-0.07776430000000001,-54.0,-35.52,-17.28
1554109253071,7.9248075,-3.2998084999999997,3.9929300000000003,-0.18002969,0.025566347000000003,-0.07243799,-54.0,-35.58,-17.22
1554109253091,7.9487495,-3.4051532999999994,4.2275615,-0.21944448,0.02876214,-0.056459017,-54.0,-35.64,-17.16
1554109253112,7.920019,-3.4290953,4.337695,-0.22264028,0.015978966,-0.037284255,-54.0,-35.7,-17.1
1554109253132,7.896077,-3.5488055,4.395156,-0.16192019,0.0,-0.036218993,-53.94,-35.76,-17.1
1554109253151,8.039729,-3.5440169999999998,4.4382515,-0.08735169,-0.007456851,-0.035153727999999995,-53.94,-35.82,-17.1
1554109253172,7.8577699999999995,-3.4147300000000005,4.3999443,-0.004261058,-0.01917476,-0.015978966,-53.94,-35.82,-17.1
1554109253191,7.963114699999999,-3.481768,4.208408,0.068176925,-0.037284255,0.0053263223,-53.88,-35.82,-17.16
1554109253212,8.106767,-3.5392287000000002,4.1892543,0.10013486,-0.04580637,0.0031957934000000003,-53.88,-35.88,-17.16
1554109253232,8.073248,-3.6254199000000003,4.088698,0.07243799,-0.047936900000000005,-0.014913702,-53.82,-35.88,-17.16
1554109253251,8.039729,-3.5727474999999997,4.1892543,0.026631612000000002,-0.04261058,-0.023435817999999997,-53.76,-35.94,-17.22
1554109253272,8.073248,-3.6589386,4.170100700000001,0.008522116,-0.04580637,-0.023435817999999997,-53.76,-36.0,-17.28
1554109253292,7.972691499999999,-3.5440169999999998,4.256292,0.012783173500000002,-0.05006743,-0.026631612000000002,-53.7,-36.06,-17.34
1554109253312,7.972691499999999,-3.5248635000000004,4.0599675,0.020240024,-0.049002163,-0.035153727999999995,-53.7,-36.06,-17.4
1554109253332,8.020576,-3.5152867,4.2036195,0.023435817999999997,-0.056459017,-0.03834952,-53.7,-36.12,-17.4
1554109253352,8.106767,-3.5392287000000002,4.040814,0.013848438000000001,-0.056459017,-0.037284255,-53.64,-36.18,-17.46
1554109253372,8.073248,-3.6206315000000004,3.9929300000000003,0.008522116,-0.05006743,-0.041545313,-53.7,-36.18,-17.46
1554109253392,8.010999,-3.5966894999999997,3.9115269999999995,0.020240024,-0.043675844000000005,-0.041545313,-53.7,-36.18,-17.46
1554109253412,8.001422,-3.6110547,4.103063,0.041545313,-0.04580637,-0.029827405,-53.76,-36.12,-17.46
1554109253431,7.953538000000001,-3.4338839999999995,4.160524,0.037284255,-0.046871635999999994,-0.034088463,-53.76,-36.12,-17.4
1554109253452,7.9104424,-3.5535938999999996,4.0599675,0.06285059999999999,-0.02130529,-0.014913702,-53.76,-36.06,-17.34
1554109253472,8.159439,-3.7116113,4.1844660000000005,0.09374327,-0.035153727999999995,-0.010652645,-53.82,-36.06,-17.28
1554109253492,8.0924015,-3.3812113,4.217984700000001,0.08948222,-0.041545313,-0.03195793,-53.82,-36.06,-17.22
1554109253512,7.891288799999999,-3.342904,4.0839095,0.07669904,-0.04580637,-0.026631612000000002,-53.88,-36.12,-17.16
1554109253531,7.920019,-3.6637269999999997,4.0599675,0.06711166,-0.037284255,-0.00958738,-53.88,-36.12,-17.1
1554109253552,8.09719,-3.6302083,3.9211037,0.05965481,-0.013848438000000001,-0.024501082,-53.88,-36.12,-17.04
1554109253572,8.063671000000001,-3.4674027,3.9546227,0.07989483,-0.00958738,-0.040480047000000005,-53.88,-36.12,-16.98
1554109253592,8.039729,-3.5296519,4.160524,0.10226539,-0.011717908999999999,-0.034088463,-53.94,-36.12,-16.92
1554109253611,8.111555000000001,-3.3955764999999998,4.0503907,0.11504856,0.002130529,-0.024501082,-53.94,-36.12,-16.86
1554109253632,8.0684595,-3.4626143,4.088698,0.11717909,-0.004261058,-0.039414786,-54.0,-36.12,-16.86
1554109253652,8.111555000000001,-3.3620577000000003,4.256292,0.10652645,0.0053263223,-0.046871635999999994,-54.0,-36.12,-16.86
1554109253672,8.001422,-3.3955764999999998,4.0743327,0.09374327,0.00958738,-0.041545313,-54.0,-36.12,-16.86
1554109253692,7.9391727,-3.3237504999999996,4.2993879999999995,0.083090626,-0.0031957934000000003,-0.025566347000000003,-54.0,-36.18,-16.8
1554109253711,7.9391727,-3.5488055,4.2419267,0.07030745599999999,0.002130529,-0.020240024,-54.0,-36.24,-16.8
1554109253732,7.9391727,-3.3764230000000004,4.2850223,0.024501082,-0.014913702,-0.02876214,-54.0,-36.3,-16.74
1554109253752,8.0445175,-3.481768,4.1461587,0.0031957934000000003,-0.010652645,-0.023435817999999997,-54.0,-36.36,-16.74
1554109253771,8.130709,-3.5823242999999994,4.0934862999999995,0.0063915867,0.0,-0.02130529,-54.0,-36.36,-16.68
1554109253791,7.967903,-3.5296519,4.11264,0.026631612000000002,-0.002130529,-0.036218993,-54.06,-36.42,-16.68
1554109253812,7.9391727,-3.4195184999999997,4.160524,0.047936900000000005,-0.002130529,-0.04474111,-54.06,-36.48,-16.62
1554109253831,8.034941,-3.5152867,4.32333,0.07030745599999999,0.007456851,-0.035153727999999995,-54.12,-36.42,-16.62
1554109253852,8.010999,-3.3524809999999996,4.2658687,0.10439592,0.0063915867,-0.036218993,-54.12,-36.42,-16.62
1554109253872,8.058883,-3.3333273,4.079121,0.12783173,0.00958738,-0.041545313,-54.12,-36.42,-16.62
1554109253892,7.9822683,-3.3476925000000004,4.1653123,0.12996227,0.007456851,-0.04580637,-54.12,-36.42,-16.62
1554109253911,7.97748,-3.3812113,4.194042700000001,0.1107875,0.015978966,-0.040480047000000005,-54.06,-36.42,-16.56
1554109253932,7.9822683,-3.3524809999999996,4.2036195,0.05752428,0.013848438000000001,-0.03834952,-54.06,-36.42,-16.56
1554109253951,7.987056699999999,-3.1992521000000003,4.2275615,0.01917476,0.011717908999999999,-0.03834952,-54.0,-36.42,-16.56
1554109253971,7.972691499999999,-3.232771,4.280234,0.004261058,0.00958738,-0.033023197000000004,-54.0,-36.36,-16.5
1554109253991,7.991845,-3.3524809999999996,4.016872,-0.00958738,0.010652645,-0.025566347000000003,-53.94,-36.36,-16.5
1554109254012,8.020576,-3.2184057,4.3329067000000006,-0.020240024,0.013848438000000001,-0.01917476,-53.88,-36.36,-16.5
1554109254032,7.8577699999999995,-3.3333273,4.2275615,-0.011717908999999999,0.017044231,-0.004261058,-53.94,-36.36,-16.44
1554109254052,7.876923599999999,-3.2136172999999997,4.2993879999999995,0.014913702,0.024501082,0.020240024,-53.94,-36.36,-16.44
1554109254072,7.747636999999999,-2.8736405,4.3807906999999995,0.19387813,0.03195793,0.13848437,-53.94,-36.3,-16.44
1554109254092,8.1163435,-2.926313,4.0216603,0.34194988,0.024501082,0.21837921,-53.94,-36.3,-16.44
1554109254112,8.149861999999999,-2.8832173,4.040814,0.24074976,0.036218993,0.14807177,-53.94,-36.24,-16.44
1554109254132,7.920019,-2.7682957999999998,4.1844660000000005,0.099069595,0.05752428,0.14487597,-54.0,-36.24,-16.44
1554109254152,7.8673470000000005,-2.6102784,4.040814,-0.014913702,0.060720075,0.24714136,-54.0,-36.12,-16.44
1554109254171,7.819463000000001,-2.3133974,4.079121,-0.08841695,0.06391586,0.36325517,-54.0,-36.06,-16.38
1554109254191,7.738060000000001,-2.4091654,4.1222167,-0.07030745599999999,0.09161274,0.48363006,-54.06,-35.88,-16.38
1554109254212,7.5561004,-2.7252002,4.308964700000001,-0.02130529,0.11930962,0.5944176,-54.12,-35.7,-16.32
1554109254233,7.5321584,-3.0412347,4.44304,0.007456851,0.13954964,0.68389976,-54.18,-35.52,-16.32
1554109254252,7.359775999999999,-2.7491422,4.23235,0.040480047000000005,0.16831179,0.80107886,-54.24,-35.1,-16.26
1554109254272,7.3310455999999995,-2.8832173,4.103063,0.023435817999999997,0.17150758,0.86179894,-54.24,-34.92,-16.2
1554109254292,7.359775999999999,-3.4099417,4.32333,-0.058589544,0.18535602,0.8990832000000001,-54.42,-34.38,-16.2
1554109254313,7.153875,-4.061165,4.4143095,-0.13209279,0.19387813,0.91825795,-54.54,-33.72,-16.2
1554109254332,6.95755,-4.3436804,4.4526167,-0.19920446,0.19174760000000002,0.9321064,-54.9,-32.22,-16.38
1554109254352,6.780379300000001,-4.7267528,4.529230999999999,-0.20453078,0.20133498,0.9853696,-55.14,-31.2,-16.44
1554109254371,6.7468604999999995,-4.851251,4.3568487000000005,-0.27057716,0.19600865,0.98856544,-55.2,-30.66,-16.5
1554109254392,6.5457472999999995,-4.947019,4.2993879999999995,-0.4261058,0.17470337,0.96406436,-55.56,-28.98,-16.62
1554109254412,6.4499793,-4.9661726999999996,4.4382515,-0.51452273,0.15126756,0.97897804,-55.8,-27.78,-16.74
1554109254432,6.483498,-5.430648000000001,4.2945995,-0.5603291,0.15020229,0.98110855,-55.98,-26.52,-16.8
1554109254452,6.2009826,-6.321291,4.337695,-0.680704,0.13635385,0.89801794,-56.16,-25.26,-16.92
1554109254472,6.0142345,-6.359598,4.500500700000001,-0.7637946,0.12357068,0.8341021000000001,-56.28,-24.06,-17.16
1554109254491,5.966350599999999,-6.5271926,4.23235,-0.78723043,0.10652645,0.8266452,-56.28,-23.52,-17.16
1554109254512,5.990292500000001,-6.8719573,4.11264,-0.86392945,0.06711166,0.78936094,-56.4,-21.9,-17.4
1554109254532,5.90889,-7.077858999999999,3.9306807999999998,-0.93849796,0.04261058,0.72437984,-56.52,-20.7,-17.52
1554109254552,5.913678,-7.527969000000001,3.887585,-0.9768475000000001,0.03089267,0.660464,-56.58,-19.26,-17.58
1554109254571,5.7843914000000005,-7.566275999999999,3.9163153,-1.0183928,0.0031957934000000003,0.58483016,-56.64,-17.94,-17.58
1554109254591,5.635950599999999,-7.882310400000001,3.6816837999999996,-0.99708754,-0.0063915867,0.55074173,-56.76,-16.8,-17.64
1554109254611,5.674258,-7.753023599999999,3.3752258,-0.9715212,-0.01917476,0.49428272,-56.82,-15.78,-17.64
1554109254632,5.592855,-7.724292999999999,3.3464954,-0.88843054,-0.022370555,0.44634579999999996,-56.88,-14.7,-17.52
1554109254651,5.4970870000000005,-7.6764092,3.3225534,-0.69774824,-0.043675844000000005,0.39308259999999995,-56.88,-13.68,-17.46
1554109254672,5.45878,-7.743447,3.2890346,-0.46019423,-0.049002163,0.36645097,-56.88,-12.72,-17.34
1554109254692,5.272032299999999,-7.7769656000000005,3.4901476000000002,-0.16405073,-0.05539375,0.35792887,-56.82,-11.76,-17.28
1554109254712,5.257667,-7.709928,3.198055,0.08522116,-0.05539375,0.37071204,-56.76,-11.1,-17.28
1554109254731,5.2289367,-7.3603745,3.1118636000000004,0.350472,-0.05752428,0.38775626,-56.7,-10.38,-17.28
1554109254751,5.2002063,-7.307702000000001,2.9921536,0.53795856,-0.034088463,0.41438788,-56.64,-9.78,-17.28
1554109254772,5.1235914000000005,-7.116166000000001,3.1884782000000005,0.58056915,-0.022370555,0.43249738,-56.64,-9.18,-17.22
1554109254792,5.056554,-7.374739599999999,2.915539,0.5496765,0.014913702,0.46871635,-56.58,-8.76,-17.22
1554109254812,4.984728,-7.231087700000001,2.9394810000000002,0.330232,0.043675844000000005,0.44634579999999996,-56.52,-8.4,-17.22
1554109254832,4.9799394999999995,-7.044339999999999,2.8293478,0.04580637,0.08522116,0.47936899999999993,-56.46,-8.04,-17.16
1554109254851,4.8841715,-6.9150529999999995,2.9203273999999997,-0.24714136,0.11930962,0.5070659000000001,-56.46,-7.56,-17.1
1554109254871,4.76925,-7.0826473,2.8868085999999997,-0.48469532,0.13848437,0.5091964,-56.46,-6.9,-17.04
1554109254891,4.6830587,-7.542333999999999,2.8389246,-0.66365975,0.165116,0.5070659000000001,-56.46,-6.36,-16.98
1554109254911,4.434061499999999,-7.389105000000001,2.8101943,-0.83516735,0.17044231,0.50813115,-56.46,-5.76,-16.98
1554109254931,4.376600700000001,-7.566275999999999,2.6426,-0.93636745,0.19174760000000002,0.567786,-56.4,-5.16,-16.92
1554109254951,4.189853,-7.647678999999999,2.7431567,-1.0045444,0.19068234,0.6018744,-56.4,-4.5,-16.92
1554109254971,3.8642415999999997,-8.227076,2.5611973,-1.0077401,0.21092236,0.6125271,-56.34,-3.96,-16.86
1554109254991,3.9360676,-8.169615,2.5851393,-0.98110855,0.18535602,0.60720074,-56.34,-3.3,-16.86
1554109255012,3.7972038,-8.212710000000001,2.556409,-0.82877576,0.17576863,0.6870956,-56.34,-2.64,-16.92
1554109255031,3.6870705999999998,-7.997232400000001,2.6234465,-0.65726817,0.165116,0.73609775,-56.4,-2.4,-16.92
1554109255051,3.5529952000000007,-8.112153999999999,2.4893713,-0.4250405,0.15446335,0.80107886,-56.46,-2.1,-16.98
1554109255072,3.1986535,-8.5862055,2.235586,-0.24927188,0.14594123,0.81918836,-56.52,-1.86,-17.04
1554109255091,2.8969840000000002,-8.739435,2.178125,-0.21411815,0.13315806,0.8064051999999999,-56.58,-1.62,-17.1
1554109255111,2.7820622999999998,-8.5862055,2.2068555,-0.38242993,0.13102753,0.82344943,-56.58,-1.26,-17.1
1554109255131,2.7389667,-8.739435,1.6801311,-0.75420725,0.12996227,0.8586031999999999,-56.64,-0.72,-17.04
1554109255151,2.6623523,-8.859145,1.5364790000000002,-1.2495551999999999,0.09374327,0.8522116,-56.7,-0.12,-16.86
1554109255172,2.3606830000000003,-9.280524,1.407192,-1.6948358000000001,0.051132694000000006,0.8341021000000001,-56.7,0.84,-16.62
1554109255191,2.0733786,-9.668385,1.0911574,-2.0335898,0.007456851,0.8042746999999999,-56.52,2.1,-16.38
1554109255211,2.0159178,-10.037092,0.65062433,-2.2434467999999996,-0.04261058,0.7797736,-56.34,3.36,-15.96
1554109255232,1.9440918000000003,-10.056246,0.3537433,-2.3552997,-0.08735169,0.74781567,-56.1,4.74,-15.42
1554109255251,1.958457,-9.922171,0.10474633,-2.2988408,-0.13209279,0.72651035,-55.74,6.24,-14.7
1554109255271,1.8483237000000001,-9.960478,0.018555064,-1.9536950000000002,-0.16937704,0.7350325,-55.44,7.8,-14.04
1554109255291,1.6280571000000001,-10.166379,-0.32142156,-1.3241237,-0.21198763,0.74248934,-55.08,9.24,-13.26
1554109255311,1.4460978999999998,-10.362703,-0.5895722,-0.62104917,-0.26418558,0.7137272,-54.78,10.74,-12.6
1554109255331,1.2593501,-10.219051,-0.6757634,-0.0053263223,-0.29827404,0.7339671999999999,-54.48,12.06,-11.76
1554109255352,1.3790601,-9.831191,-0.75716627,0.5699165,-0.3057309,0.8064051999999999,-54.3,13.26,-10.8
1554109255371,1.2785037000000001,-9.783307,-0.9391255999999999,0.7254451,-0.294013,0.8202536,-54.0,14.4,-10.02
1554109255391,0.9528923,-9.812037,-1.1306617,0.8767126000000001,-0.2609898,0.8266452,-53.64,15.54,-9.36
1554109255411,0.58897364,-10.549451,-1.5568296999999998,0.7030744999999999,-0.19600865,0.7701861999999999,-53.34,16.56,-8.82
1554109255431,0.4261679,-10.9660425,-2.0165164,0.26738137,-0.11717909,0.67005134,-53.04,17.58,-8.4
1554109255451,0.47884035,-11.205461999999999,-2.2272062000000004,-0.35153726,-0.018109497,0.5336975,-52.68,18.54,-8.1
1554109255472,0.41180268,-11.521497,-2.03567,-0.98750013,0.096939065,0.35579833,-52.32,19.56,-7.92
1554109255491,0.5554548,-11.377844999999999,-1.8584990000000001,-1.4732608,0.20133498,0.15446335,-51.96,20.4,-7.86
1554109255511,0.6703765,-11.047445,-1.4323312,-1.6586168000000001,0.29188246,0.0053263223,-51.66,21.12,-7.98
1554109255531,0.60333884,-10.64043,-1.3413515,-1.5616777,0.33768883,-0.098004326,-51.36,21.84,-8.04
1554109255551,0.45010993,-10.286089,-0.99179804,-1.2048141,0.33875409999999995,-0.13635385,-51.12,22.56,-8.04
1554109255571,0.37349546,-10.238205,-0.88166475,-0.6359629,0.28975195,-0.13848437,-50.88,23.16,-7.86
1554109255592,0.29209262,-9.960478,-0.9343372,0.0063915867,0.20772657,-0.12250541,-50.76,23.64,-7.5
1554109255611,0.272939,-9.701903999999999,-0.9199719999999999,0.5486112,0.11504856,-0.09267801,-50.64,23.88,-7.08
1554109255631,0.2777274,-9.529521,-1.0253168,0.90014845,0.047936900000000005,-0.05965481,-50.52,23.88,-6.66
1554109255651,0.24899697,-9.524733,-1.3605051000000001,1.0301107,-0.002130529,-0.033023197000000004,-50.46,23.82,-6.24
1554109255671,0.35434186,-9.563039999999999,-1.4945803999999998,0.9416938,-0.02876214,-0.025566347000000003,-50.46,23.64,-5.88
1554109255692,0.49320555,-9.539098,-1.417966,0.6870956,-0.034088463,-0.023435817999999997,-50.52,23.52,-5.64
1554109255711,0.5650316,-9.543886,-1.4323312,0.35153726,-0.025566347000000003,-0.02876214,-50.64,23.34,-5.58
1554109255731,0.60812724,-9.553463,-1.5616181,0.002130529,-0.012783173500000002,-0.05539375,-50.64,23.16,-5.76
1554109255751,0.59376204,-9.596559,-1.3605051000000001,-0.28336033,0.002130529,-0.07882957,-50.52,23.1,-6.06
1554109255772,0.641646,-9.716269500000001,-1.3892354999999998,-0.45593318,0.014913702,-0.08735169,-50.46,23.1,-6.42
1554109255791,0.5793968,-9.735422999999999,-1.2360066,-0.49747851,0.026631612000000002,-0.08841695,-50.28,23.4,-6.72
1554109255811,0.48362875,-9.649231,-1.3317747,-0.42930159999999995,0.024501082,-0.080960095,-50.1,23.76,-7.08
1554109255832,0.5602431999999999,-9.768942,-1.2838906,-0.28442562,0.020240024,-0.06924219,-49.92,24.24,-7.32
1554109255852,0.62728083,-9.701903999999999,-1.3748703000000002,-0.05539375,0.012783173500000002,-0.04261058,-49.62,24.96,-7.5
1554109255871,0.5267244000000001,-9.749788,-1.3030443,0.07243799,0.00958738,-0.03089267,-49.5,25.2,-7.44
1554109255891,0.50278234,-9.725846,-1.441908,0.19707392,0.010652645,-0.026631612000000002,-49.5,25.86,-7.38
1554109255911,0.45010993,-9.606135,-1.4514848,0.2066613,0.011717908999999999,-0.018109497,-49.5,26.22,-7.32
1554109255931,0.5554548,-9.668385,-1.4945803999999998,0.16937704,0.014913702,-0.018109497,-49.5,26.34,-7.32
1554109255951,0.45968673,-9.845556,-1.5520413,0.07563378,0.025566347000000003,-0.017044231,-49.62,26.52,-7.2
1554109255971,0.60812724,-9.711481,-1.4323312,-0.026631612000000002,0.03195793,-0.037284255,-49.62,26.46,-7.14
1554109255991,0.51235914,-9.797672,-1.4227544,-0.094808534,0.039414786,-0.039414786,-49.68,26.46,-7.08
1554109256020,0.5650316,-9.759364999999999,-1.2743138,-0.10759171,0.041545313,-0.049002163,-49.74,26.34,-7.08
1554109256032,0.48841715,-9.7641535,-1.3748703000000002,-0.08735169,0.037284255,-0.05539375,-49.74,26.16,-7.08
1554109256051,0.48362875,-9.730635000000001,-1.2455834,-0.03834952,0.027696876000000002,-0.049002163,-49.8,25.98,-7.08
1554109256071,0.39743748,-9.716269500000001,-1.1881226,0.01917476,0.012783173500000002,-0.04474111,-49.8,25.74,-7.02
1554109256091,0.49799395,-9.68275,-1.2264298,0.06178534,0.0053263223,-0.040480047000000005,-49.8,25.5,-7.02
1554109256112,0.5602431999999999,-9.620500999999999,-1.192911,0.068176925,0.0,-0.043675844000000005,-49.8,25.2,-7.02
1554109256131,0.62728083,-9.725846,-1.4083891000000002,0.04474111,-0.0063915867,-0.03834952,-49.8,24.9,-6.96
1554109256151,0.58897364,-9.711481,-1.2838906,0.00958738,-0.008522116,-0.03195793,-49.8,24.54,-6.96
1554109256172,0.5650316,-9.668385,-1.4514848,-0.014913702,-0.010652645,-0.027696876000000002,-49.86,24.24,-6.96
1554109256191,0.5746084,-9.668385,-1.3940238999999999,-0.022370555,-0.017044231,-0.03089267,-49.86,23.94,-6.96
1554109256211,0.521936,-9.721058,-1.3844471,-0.025566347000000003,-0.015978966,-0.023435817999999997,-49.98,23.7,-7.02
1554109256231,0.5650316,-9.706693,-1.4945803999999998,-0.034088463,-0.017044231,-0.017044231,-50.1,23.52,-7.02
1554109256251,0.46926352,-9.68275,-1.4275428,-0.041545313,-0.014913702,-0.014913702,-50.22,23.4,-7.02
1554109256271,0.45010993,-9.701903999999999,-1.4945803999999998,-0.049002163,-0.010652645,-0.008522116,-50.34,23.34,-7.02
1554109256291,0.5410896,-9.673173,-1.3557166999999999,-0.056459017,-0.0063915867,-0.008522116,-50.4,23.4,-7.02
1554109256311,0.44532153,-9.673173,-1.4945803999999998,-0.056459017,-0.0031957934000000003,-0.008522116,-50.46,23.58,-7.02
1554109256332,0.51235914,-9.725846,-1.4275428,-0.06498113,-0.0031957934000000003,-0.012783173500000002,-50.46,23.88,-7.02
1554109256351,0.51235914,-9.77373,-1.5807717,-0.07137272,0.0010652645,-0.00958738,-50.4,24.24,-7.02
1554109256371,0.50757074,-9.77373,-1.4850036,-0.07563378,0.0010652645,-0.00958738,-50.28,24.66,-6.96
1554109256391,0.44532153,-9.706693,-1.4850036,-0.07030745599999999,0.0031957934000000003,-0.008522116,-50.16,25.14,-6.96
1554109256411,0.39743748,-9.821614,-1.4083891000000002,-0.05965481,0.004261058,-0.018109497,-50.04,25.5,-6.96
1554109256431,0.39264908,-9.7641535,-1.4945803999999998,-0.043675844000000005,0.004261058,-0.026631612000000002,-49.92,25.86,-6.9
1554109256451,0.48362875,-9.701903999999999,-1.4754268,-0.024501082,0.0031957934000000003,-0.026631612000000002,-49.8,26.16,-6.84
1554109256471,0.4405331,-9.673173,-1.2934675,-0.008522116,-0.002130529,-0.029827405,-49.74,26.22,-6.78
1554109256491,0.49320555,-9.6923275,-1.2072762,0.007456851,-0.0063915867,-0.02876214,-49.74,26.34,-6.72
1554109256511,0.4405331,-9.658808,-1.3461398999999998,0.025566347000000003,-0.014913702,-0.022370555,-49.74,26.28,-6.72
1554109256531,0.4165911,-9.534309,-1.3557166999999999,0.03089267,-0.023435817999999997,-0.010652645,-49.74,26.1,-6.66
1554109256551,0.46926352,-9.558251,-1.4706384,0.010652645,-0.03089267,-0.002130529,-49.74,25.92,-6.66
1554109256572,0.4405331,-9.601347,-1.5089456,-0.018109497,-0.03834952,0.011717908999999999,-49.74,25.74,-6.66
1554109256591,0.45968673,-9.6923275,-1.5999253,-0.053263225,-0.041545313,0.014913702,-49.74,25.62,-6.66
1554109256611,0.33039984,-9.677961,-1.6525976999999998,-0.099069595,-0.039414786,0.014913702,-49.74,25.5,-6.66
1554109256632,0.4213795,-9.735422999999999,-1.6525976999999998,-0.13422333,-0.026631612000000002,0.014913702,-49.62,25.5,-6.66
1554109256651,0.38307226,-9.783307,-1.6669630000000002,-0.15339808,-0.014913702,0.008522116,-49.56,25.56,-6.66
1554109256671,0.4213795,-9.835979,-1.6573862000000001,-0.15552860000000002,-0.0010652645,-0.004261058,-49.5,25.62,-6.66
1554109256692,0.36391866,-9.835979,-1.7818846999999998,-0.14913702,0.0053263223,-0.018109497,-49.38,25.74,-6.66
1554109256711,0.38307226,-9.807249,-1.8058267,-0.11930962,0.014913702,-0.026631612000000002,-49.32,25.86,-6.66
1554109256731,0.4357447,-9.941324,-1.6525976999999998,-0.056459017,0.02130529,-0.040480047000000005,-49.14,26.1,-6.72
1554109256751,0.4405331,-9.936536,-1.5616181,0.015978966,0.02130529,-0.05219796,-49.08,26.16,-6.66
1554109256772,0.4261679,-9.807249,-1.6525976999999998,0.07989483,0.025566347000000003,-0.06391586,-49.02,26.22,-6.66
1554109256791,0.320823,-9.735422999999999,-1.6956933999999997,0.10546118,0.026631612000000002,-0.07350325,-49.08,26.28,-6.66
1554109256811,0.34476504,-9.677961,-1.5711948999999998,0.10226539,0.017044231,-0.07456851,-49.08,26.34,-6.66
1554109256831,0.39264908,-9.601347,-1.4993688,0.08522116,0.011717908999999999,-0.07350325,-49.08,26.34,-6.66
1554109256852,0.30645782,-9.644442999999999,-1.4802152,0.054328485999999995,0.015978966,-0.07563378,-49.08,26.4,-6.66
1554109256871,0.320823,-9.673173,-1.5616181,0.020240024,0.008522116,-0.068176925,-49.14,26.4,-6.66
1554109256891,0.5315128,-9.606135,-1.6909049999999999,-0.010652645,0.008522116,-0.060720075,-49.14,26.4,-6.66
1554109256912,0.33518824,-9.634866,-1.6095021,-0.037284255,0.002130529,-0.05965481,-49.14,26.4,-6.66
1554109256931,0.40222588,-9.673173,-1.489792,-0.051132694000000006,-0.0063915867,-0.053263225,-49.14,26.4,-6.66
1554109256951,0.35434186,-9.730635000000001,-1.5041572,-0.05539375,-0.00958738,-0.049002163,-49.14,26.4,-6.66
1554109256972,0.4405331,-9.816825999999999,-1.5999253,-0.060720075,-0.013848438000000001,-0.051132694000000006,-49.14,26.34,-6.66
1554109256992,0.46926352,-9.835979,-1.6238673000000001,-0.054328485999999995,-0.008522116,-0.047936900000000005,-49.2,26.34,-6.66
1554109257011,0.48362875,-9.7641535,-1.7004818,-0.034088463,-0.0053263223,-0.047936900000000005,-49.2,26.34,-6.66
1554109257031,0.3878607,-9.807249,-1.6765398,-0.015978966,-0.0063915867,-0.05752428,-49.26,26.28,-6.6
1554109257051,0.49320555,-9.706693,-1.5951369,-0.004261058,-0.0063915867,-0.05752428,-49.26,26.28,-6.6
1554109257072,0.49320555,-9.721058,-1.6142905,0.007456851,-0.0031957934000000003,-0.060720075,-49.32,26.22,-6.6
1554109257092,0.40222588,-9.725846,-1.6142905,0.011717908999999999,-0.002130529,-0.06498113,-49.38,26.16,-6.54
1554109257111,0.5554548,-9.668385,-1.7579426,0.014913702,0.0010652645,-0.06498113,-49.44,26.04,-6.48
1554109257132,0.4261679,-9.620500999999999,-1.6095021,0.0053263223,0.0063915867,-0.06604639400000001,-49.5,25.98,-6.42
1554109257151,0.44532153,-9.577405,-1.6286557,-0.0010652645,0.0031957934000000003,-0.06604639400000001,-49.5,25.92,-6.42
1554109257171,0.50278234,-9.553463,-1.7579426,0.002130529,0.0031957934000000003,-0.056459017,-49.56,25.86,-6.42
1554109257191,0.45010993,-9.711481,-1.5568296999999998,0.0063915867,0.002130529,-0.05219796,-49.56,25.86,-6.48
1554109257211,0.40701428,-9.654019,-1.7866731,0.002130529,0.0010652645,-0.047936900000000005,-49.56,25.8,-6.48
1554109257231,0.4261679,-9.577405,-1.5903485000000002,-0.011717908999999999,-0.0031957934000000003,-0.041545313,-49.56,25.8,-6.48
1554109257251,0.37828386,-9.759364999999999,-1.6909049999999999,-0.024501082,0.004261058,-0.041545313,-49.5,25.8,-6.48
1554109257271,0.5267244000000001,-9.663596,-1.7579426,-0.039414786,0.008522116,-0.04474111,-49.5,25.86,-6.54
1554109257291,0.47884035,-9.634866,-1.5711948999999998,-0.043675844000000005,0.010652645,-0.04580637,-49.44,25.86,-6.54
1554109257311,0.45968673,-9.701903999999999,-1.6956933999999997,-0.034088463,0.007456851,-0.040480047000000005,-49.44,25.8,-6.54
1554109257331,0.4405331,-9.673173,-1.5903485000000002,-0.012783173500000002,0.007456851,-0.04261058,-49.44,25.86,-6.48
1554109257352,0.45489833,-9.668385,-1.7292121999999999,0.0063915867,0.004261058,-0.043675844000000005,-49.44,25.8,-6.48
1554109257371,0.4165911,-9.658808,-1.6909049999999999,0.015978966,-0.007456851,-0.043675844000000005,-49.5,25.8,-6.42
1554109257392,0.45968673,-9.6923275,-1.6909049999999999,0.017044231,-0.004261058,-0.04261058,-49.5,25.74,-6.36
1554109257411,0.4405331,-9.730635000000001,-1.6956933999999997,0.013848438000000001,-0.0053263223,-0.046871635999999994,-49.56,25.74,-6.36
1554109257432,0.48841715,-9.673173,-1.6047136999999998,0.017044231,0.0,-0.05006743,-49.56,25.74,-6.36
1554109257452,0.37349546,-9.749788,-1.7340006000000001,0.013848438000000001,0.0,-0.051132694000000006,-49.62,25.74,-6.36
1554109257471,0.4405331,-9.754577000000001,-1.6813281999999998,0.0031957934000000003,0.0010652645,-0.05006743,-49.68,25.68,-6.36
1554109257491,0.51235914,-9.6923275,-1.5999253,-0.0063915867,0.0,-0.04580637,-49.74,25.56,-6.36
1554109257512,0.45968673,-9.725846,-1.6334441000000002,-0.0063915867,0.0,-0.046871635999999994,-49.8,25.2,-6.36
1554109257531,0.5506664000000001,-9.706693,-1.5855601000000001,0.0031957934000000003,-0.0053263223,-0.04474111,-49.92,24.84,-6.42
1554109257551,0.5363011999999999,-9.721058,-1.6047136999999998,0.00958738,-0.007456851,-0.041545313,-49.98,24.36,-6.42
1554109257572,0.5650316,-9.677961,-1.5807717,0.014913702,-0.008522116,-0.041545313,-50.04,23.58,-6.42
1554109257591,0.45489833,-9.701903999999999,-1.7962499,0.010652645,-0.008522116,-0.040480047000000005,-50.04,23.1,-6.48
1554109257611,0.44532153,-9.701903999999999,-1.6095021,-0.0010652645,-0.0063915867,-0.040480047000000005,-50.1,22.62,-6.48
1554109257631,0.46926352,-9.677961,-1.5999253,-0.010652645,-0.002130529,-0.039414786,-50.16,22.2,-6.54
1554109257652,0.49320555,-9.778519000000001,-1.5951369,-0.00958738,-0.0031957934000000003,-0.039414786,-50.28,21.9,-6.54
1554109257671,0.45010993,-9.644442999999999,-1.6430208999999998,-0.002130529,0.004261058,-0.046871635999999994,-50.46,21.78,-6.54
1554109257691,0.4405331,-9.658808,-1.5376761,0.012783173500000002,0.0,-0.041545313,-50.58,21.72,-6.6
1554109257711,0.47884035,-9.68275,-1.7292121999999999,0.020240024,0.0010652645,-0.037284255,-50.7,21.72,-6.6
1554109257731,0.46447513,-9.673173,-1.5616181,0.013848438000000001,-0.0010652645,-0.037284255,-50.76,21.84,-6.6
1554109257752,0.50278234,-9.716269500000001,-1.7579426,-0.0031957934000000003,-0.002130529,-0.036218993,-50.82,21.96,-6.6
1554109257771,0.40701428,-9.840767999999999,-1.6621746,-0.020240024,0.002130529,-0.037284255,-50.88,22.14,-6.6
1554109257791,0.49799395,-9.850344999999999,-1.6238673000000001,-0.027696876000000002,0.004261058,-0.041545313,-50.88,22.38,-6.6
1554109257811,0.47405192,-9.955689,-1.5903485000000002,-0.022370555,0.002130529,-0.041545313,-50.82,22.68,-6.54
1554109257831,0.49799395,-9.725846,-1.6382325,-0.012783173500000002,-0.002130529,-0.043675844000000005,-50.76,23.04,-6.48
1554109257852,0.51235914,-9.812037,-1.6142905,-0.002130529,-0.0031957934000000003,-0.047936900000000005,-50.64,23.4,-6.48
1554109257871,0.5363011999999999,-9.788095,-1.5616181,0.0010652645,-0.0053263223,-0.049002163,-50.58,23.82,-6.42
1554109257891,0.45968673,-9.759364999999999,-1.6430208999999998,0.002130529,-0.008522116,-0.05006743,-50.58,24.24,-6.42
1554109257911,0.4165911,-9.711481,-1.714847,0.008522116,-0.0063915867,-0.051132694000000006,-50.52,24.78,-6.36
1554109257932,0.51235914,-9.754577000000001,-1.6573862000000001,0.010652645,-0.0063915867,-0.054328485999999995,-50.52,25.38,-6.36
1554109257951,0.5267244000000001,-9.610924,-1.6956933999999997,0.007456851,-0.002130529,-0.058589544,-50.4,25.92,-6.36
1554109257971,0.51235914,-9.697116000000001,-1.7004818,-0.0010652645,-0.002130529,-0.06285059999999999,-50.34,26.34,-6.36
1554109257991,0.5363011999999999,-9.586982,-1.6238673000000001,0.0,0.0031957934000000003,-0.05539375,-50.28,26.76,-6.42
1554109258011,0.51714754,-9.625289,-1.6430208999999998,0.00958738,-0.004261058,-0.05006743,-50.22,27.12,-6.42
1554109258032,0.45010993,-9.596559,-1.5472529,0.01917476,-0.0053263223,-0.041545313,-50.1,27.42,-6.42
1554109258051,0.45489833,-9.577405,-1.6669630000000002,0.011717908999999999,-0.0063915867,-0.035153727999999995,-49.98,27.6,-6.42
1554109258071,0.5650316,-9.548675,-1.6047136999999998,0.0031957934000000003,-0.008522116,-0.026631612000000002,-49.8,27.6,-6.42
1554109258092,0.59376204,-9.792883999999999,-1.8106151000000001,-0.0063915867,-0.004261058,-0.025566347000000003,-49.68,27.54,-6.42
1554109258111,0.5267244000000001,-9.778519000000001,-1.8106151000000001,-0.026631612000000002,-0.0010652645,-0.036218993,-49.56,27.54,-6.48
1554109258132,0.49320555,-9.768942,-1.5280992,-0.035153727999999995,0.002130529,-0.039414786,-49.44,27.48,-6.48
1554109258151,0.4405331,-9.77373,-1.4802152,-0.020240024,0.00958738,-0.04474111,-49.26,27.54,-6.48
1554109258171,0.4165911,-9.759364999999999,-1.6238673000000001,0.013848438000000001,0.011717908999999999,-0.05219796,-49.08,27.54,-6.48
1554109258191,0.45489833,-9.6923275,-1.4514848,0.040480047000000005,0.0063915867,-0.056459017,-48.96,27.54,-6.54
1554109258212,0.45968673,-9.663596,-1.5711948999999998,0.04580637,-0.0031957934000000003,-0.054328485999999995,-48.84,27.54,-6.54
1554109258232,0.51235914,-9.725846,-1.6478093,0.02876214,-0.00958738,-0.056459017,-48.72,27.6,-6.54
1554109258252,0.47405192,-9.6923275,-1.6956933999999997,0.008522116,-0.014913702,-0.049002163,-48.6,27.66,-6.54
1554109258271,0.5410896,-9.620500999999999,-1.489792,-0.010652645,-0.010652645,-0.046871635999999994,-48.54,27.66,-6.54
1554109258291,0.5315128,-9.701903999999999,-1.6430208999999998,-0.027696876000000002,-0.007456851,-0.05219796,-48.48,27.72,-6.6
1554109258312,0.47884035,-9.730635000000001,-1.5568296999999998,-0.02876214,-0.0031957934000000003,-0.05219796,-48.48,27.66,-6.6
1554109258332,0.51714754,-9.768942,-1.6573862000000001,-0.012783173500000002,0.0010652645,-0.051132694000000006,-48.54,27.72,-6.6
1554109258352,0.50278234,-9.673173,-1.4610616,0.008522116,0.0010652645,-0.05006743,-48.6,27.72,-6.66
1554109258372,0.45968673,-9.677961,-1.6525976999999998,0.02876214,0.0053263223,-0.04580637,-48.66,27.66,-6.72
1554109258391,0.5554548,-9.673173,-1.5903485000000002,0.027696876000000002,0.004261058,-0.043675844000000005,-48.78,27.6,-6.72
1554109258411,0.51714754,-9.658808,-1.7100586,0.012783173500000002,0.002130529,-0.037284255,-48.84,27.48,-6.78
1554109258432,0.39264908,-9.697116000000001,-1.513734,-0.004261058,0.0010652645,-0.037284255,-48.9,27.42,-6.84
1554109258452,0.47405192,-9.625289,-1.4514848,-0.014913702,-0.0010652645,-0.035153727999999995,-48.96,27.36,-6.84
1554109258471,0.51714754,-9.725846,-1.5807717,-0.014913702,-0.0010652645,-0.035153727999999995,-48.96,27.3,-6.9
1554109258491,0.51714754,-9.721058,-1.489792,-0.013848438000000001,-0.0031957934000000003,-0.041545313,-49.02,27.3,-6.84
1554109258511,0.5267244000000001,-9.816825999999999,-1.6047136999999998,-0.012783173500000002,-0.004261058,-0.049002163,-48.96,27.3,-6.84
1554109258532,0.5363011999999999,-9.783307,-1.6238673000000001,-0.00958738,-0.0031957934000000003,-0.053263225,-48.9,27.36,-6.84
1554109258552,0.5267244000000001,-9.706693,-1.6525976999999998,-0.008522116,-0.0063915867,-0.06285059999999999,-48.9,27.48,-6.78
1554109258571,0.50278234,-9.812037,-1.4562732,-0.012783173500000002,-0.007456851,-0.07243799,-48.84,27.54,-6.72
1554109258591,0.47405192,-9.797672,-1.5233108,-0.00958738,-0.010652645,-0.07350325,-48.84,27.6,-6.66
1554109258612,0.58418524,-9.826402999999999,-1.6238673000000001,-0.0053263223,-0.015978966,-0.07776430000000001,-48.84,27.66,-6.6
1554109258631,0.50278234,-9.625289,-1.5616181,-0.007456851,-0.023435817999999997,-0.080960095,-48.9,27.72,-6.54
1554109258651,0.5267244000000001,-9.639654,-1.5328877,-0.012783173500000002,-0.03195793,-0.07563378,-48.9,27.72,-6.48
1554109258672,0.59855044,-9.59177,-1.5328877,-0.0063915867,-0.034088463,-0.07456851,-48.96,27.66,-6.42
1554109258691,0.61291564,-9.697116000000001,-1.6621746,0.002130529,-0.036218993,-0.07137272,-49.02,27.6,-6.42
1554109258711,0.5793968,-9.663596,-1.5759833,0.002130529,-0.039414786,-0.068176925,-49.14,27.54,-6.36
1554109258732,0.5602431999999999,-9.582193,-1.7292121999999999,-0.014913702,-0.033023197000000004,-0.06391586,-49.14,27.48,-6.36
1554109258752,0.5650316,-9.639654,-1.6047136999999998,-0.037284255,-0.025566347000000003,-0.06604639400000001,-49.14,27.36,-6.42
1554109258773,0.59376204,-9.768942,-1.6286557,-0.049002163,-0.020240024,-0.06711166,-49.14,27.3,-6.42
1554109258792,0.58897364,-9.673173,-1.6382325,-0.037284255,-0.00958738,-0.06178534,-49.14,27.18,-6.48
1554109258812,0.58418524,-9.735422999999999,-1.6525976999999998,-0.013848438000000001,-0.0063915867,-0.06285059999999999,-49.08,27.12,-6.48
1554109258831,0.56982,-9.649231,-1.5999253,-0.002130529,-0.012783173500000002,-0.060720075,-49.02,27.06,-6.48
1554109258852,0.56982,-9.725846,-1.5711948999999998,-0.0010652645,-0.011717908999999999,-0.05219796,-48.96,27.0,-6.48
1554109258872,0.59855044,-9.654019,-1.7244238,-0.00958738,-0.013848438000000001,-0.056459017,-48.96,27.0,-6.48
1554109258891,0.63206923,-9.706693,-1.6813281999999998,-0.014913702,-0.010652645,-0.06178534,-48.9,27.0,-6.48
1554109258911,0.5793968,-9.735422999999999,-1.6334441000000002,-0.020240024,-0.0031957934000000003,-0.06498113,-48.9,27.0,-6.42
1554109258932,0.60812724,-9.6923275,-1.5951369,-0.014913702,-0.007456851,-0.068176925,-48.84,27.0,-6.42
1554109258952,0.61770403,-9.701903999999999,-1.7244238,-0.0031957934000000003,-0.00958738,-0.06391586,-48.84,27.0,-6.42
1554109258971,0.6655880999999999,-9.610924,-1.6525976999999998,0.002130529,-0.011717908999999999,-0.06285059999999999,-48.9,27.0,-6.36
1554109258991,0.5554548,-9.644442999999999,-1.6286557,-0.0053263223,-0.015978966,-0.06604639400000001,-48.96,27.0,-6.36
1554109259012,0.5793968,-9.668385,-1.6478093,-0.014913702,-0.010652645,-0.06498113,-48.96,27.0,-6.36
1554109259031,0.62249243,-9.677961,-1.6621746,-0.011717908999999999,-0.014913702,-0.06285059999999999,-49.02,27.0,-6.36
1554109259052,0.6895300999999999,-9.677961,-1.7004818,0.0053263223,-0.011717908999999999,-0.06604639400000001,-49.08,26.94,-6.42
1554109259075,0.6607997,-9.649231,-1.6956933999999997,0.012783173500000002,-0.008522116,-0.06391586,-49.08,26.88,-6.42
1554109259091,0.6847416999999999,-9.639654,-1.6956933999999997,0.02130529,-0.004261058,-0.056459017,-49.14,26.88,-6.42
1554109259112,0.61770403,-9.620500999999999,-1.6238673000000001,0.02876214,0.0031957934000000003,-0.054328485999999995,-49.14,26.94,-6.48
1554109259131,0.641646,-9.721058,-1.7100586,0.026631612000000002,0.0063915867,-0.05219796,-49.14,26.94,-6.48
1554109259152,0.6464345,-9.529521,-1.6238673000000001,0.024501082,0.014913702,-0.049002163,-49.14,26.94,-6.54
1554109259171,0.6607997,-9.620500999999999,-1.7531542000000002,0.020240024,0.020240024,-0.043675844000000005,-49.14,26.94,-6.54
1554109259191,0.6464345,-9.601347,-1.6573862000000001,0.01917476,0.02130529,-0.04261058,-49.14,27.0,-6.6
1554109259212,0.63206923,-9.634866,-1.6669630000000002,0.015978966,0.015978966,-0.039414786,-49.08,27.0,-6.6
1554109259232,0.6368576,-9.6923275,-1.5424645000000001,0.010652645,0.007456851,-0.035153727999999995,-49.08,27.06,-6.6
1554109259251,0.63206923,-9.711481,-1.6573862000000001,0.011717908999999999,0.0031957934000000003,-0.03089267,-49.08,27.06,-6.6
1554109259272,0.6943185000000001,-9.677961,-1.4706384,0.010652645,0.0,-0.036218993,-49.08,27.06,-6.6
1554109259293,0.62249243,-9.668385,-1.5568296999999998,0.014913702,-0.0031957934000000003,-0.03834952,-49.08,27.0,-6.6
1554109259312,0.6895300999999999,-9.59177,-1.5759833,0.022370555,-0.0053263223,-0.039414786,-49.14,27.0,-6.6
1554109259332,0.62249243,-9.649231,-1.6095021,0.02876214,-0.010652645,-0.036218993,-49.2,27.0,-6.6
1554109259351,0.6607997,-9.663596,-1.6142905,0.027696876000000002,-0.0063915867,-0.036218993,-49.26,26.94,-6.54
1554109259371,0.6703765,-9.649231,-1.6478093,0.02130529,-0.0063915867,-0.033023197000000004,-49.32,26.94,-6.54
1554109259391,0.6368576,-9.663596,-1.762731,0.012783173500000002,0.0,-0.024501082,-49.32,26.94,-6.54
1554109259412,0.6560113000000001,-9.582193,-1.5089456,0.0031957934000000003,0.0,-0.023435817999999997,-49.38,26.94,-6.54
1554109259432,0.641646,-9.649231,-1.6286557,0.0031957934000000003,0.00958738,-0.023435817999999997,-49.38,26.94,-6.54
1554109259452,0.5746084,-9.706693,-1.7004818,0.017044231,0.020240024,-0.027696876000000002,-49.44,26.94,-6.54
1554109259472,0.58418524,-9.697116000000001,-1.6286557,0.023435817999999997,0.024501082,-0.026631612000000002,-49.44,26.94,-6.6
1554109259492,0.5554548,-9.644442999999999,-1.5568296999999998,0.023435817999999997,0.023435817999999997,-0.023435817999999997,-49.44,26.94,-6.6
1554109259511,0.62728083,-9.6923275,-1.6382325,0.01917476,0.018109497,-0.022370555,-49.44,27.0,-6.6
1554109259532,0.6799533,-9.840767999999999,-1.5951369,0.004261058,0.013848438000000001,-0.02130529,-49.44,27.0,-6.66
1554109259552,0.6991069000000001,-9.759364999999999,-1.5233108,-0.0031957934000000003,0.010652645,-0.027696876000000002,-49.38,26.94,-6.72
1554109259572,0.59855044,-9.725846,-1.4514848,-0.0053263223,0.00958738,-0.033023197000000004,-49.38,26.94,-6.72
1554109259592,0.641646,-9.701903999999999,-1.5280992,-0.0010652645,0.0010652645,-0.041545313,-49.38,26.94,-6.72
1554109259612,0.6607997,-9.7641535,-1.5089456,0.014913702,-0.0031957934000000003,-0.04580637,-49.38,26.88,-6.72
1554109259631,0.60333884,-9.735422999999999,-1.5280992,0.03089267,-0.0053263223,-0.051132694000000006,-49.32,26.88,-6.72
1554109259652,0.59855044,-9.6923275,-1.4706384,0.025566347000000003,-0.00958738,-0.049002163,-49.32,26.88,-6.72
1554109259672,0.59855044,-9.677961,-1.4754268,0.010652645,-0.013848438000000001,-0.051132694000000006,-49.32,26.88,-6.72
1554109259691,0.60812724,-9.663596,-1.6573862000000001,-0.0063915867,-0.014913702,-0.053263225,-49.38,26.88,-6.78
1554109259711,0.6464345,-9.673173,-1.5233108,-0.008522116,-0.015978966,-0.05006743,-49.38,26.94,-6.84
1554109259731,0.641646,-9.59177,-1.4706384,0.002130529,-0.012783173500000002,-0.05219796,-49.38,26.94,-6.84
1554109259752,0.5363011999999999,-9.697116000000001,-1.5472529,0.011717908999999999,-0.013848438000000001,-0.049002163,-49.38,27.0,-6.9
1554109259772,0.6991069000000001,-9.721058,-1.5759833,0.011717908999999999,-0.013848438000000001,-0.04580637,-49.44,27.06,-6.9
1554109259791,0.6799533,-9.668385,-1.5089456,0.004261058,-0.010652645,-0.049002163,-49.44,27.06,-6.84
1554109259811,0.63206923,-9.898228999999999,-1.6525976999999998,-0.02130529,-0.0063915867,-0.06924219,-49.44,27.06,-6.78
1554109259832,0.58418524,-10.276512,-1.7579426,-0.06178534,0.008522116,-0.10333065,-49.44,27.06,-6.72
1554109259852,0.5793968,-10.49199,-1.834557,-0.10226539,0.03089267,-0.16085494,-49.44,27.12,-6.54
1554109259872,0.60812724,-11.042657,-2.0165164,-0.11824436,0.07243799,-0.24607609,-49.44,27.12,-6.48
1554109259891,0.6560113000000001,-11.473613,-2.404377,-0.10013486,0.10439592,-0.33555830000000003,-49.44,27.12,-6.42
1554109259911,0.8762778,-11.9333,-2.1601684,0.05006743,0.1768339,-0.52411014,-49.44,27.06,-6.36
1554109259932,1.2210428999999998,-12.225392,-1.7914615000000003,0.39627838,0.24820662,-0.66365975,-49.5,27.0,-6.3
1554109259952,1.3982137,-12.335525500000001,-1.4371196000000002,0.9470200999999999,0.3323625,-0.79894835,-49.62,26.88,-6.3
1554109259971,1.5514427,-11.985972,-1.3700819,1.4647386,0.37284255,-0.9821738000000001,-49.68,26.64,-6.42
1554109259992,1.4939818,-11.483189999999999,-1.3844471,1.7193368999999998,0.38242993,-1.1089402,-49.74,26.34,-6.72
1554109260011,1.436521,-11.162367,-1.3605051000000001,1.804558,0.38136467,-1.2516857,-49.86,25.62,-7.26
1554109260032,1.6041151000000002,-10.740988,-1.1402385,1.6767261999999998,0.37816888,-1.3518206,-50.04,24.72,-7.86
1554109260052,1.7812861,-10.357915,-1.1737574,1.320928,0.38562572,-1.4668691,-50.34,23.64,-8.58
1554109260073,2.0446482,-9.879075,-0.57520694,0.74461985,0.41438788,-1.6021577,-50.7,22.38,-9.42
1554109260091,2.1739352000000003,-9.716269500000001,-0.08200141,0.38029942,0.45380265,-1.6660736,-51.06,20.82,-10.44
1554109260112,2.384625,-9.955689,0.16220717,0.23329292,0.49641323,-1.7033578,-51.48,19.08,-11.46
1554109260131,2.585738,-10.061034,0.4878186,0.32277513,0.5368933000000001,-1.7406421000000003,-51.96,17.1,-12.48
1554109260151,3.0502129,-9.519944,0.8996213,0.6764429,0.5400891,-1.7662083999999998,-52.8,13.98,-13.8
1554109260171,3.3758245000000002,-9.328408,0.86610246,0.98856544,0.5049353,-1.7811221999999998,-53.34,12.0,-14.52
1554109260192,3.6679169999999996,-8.916606,1.3210008,1.2122709999999999,0.46552056,-1.8184064999999998,-53.88,9.66,-15.36
1554109260211,3.7493198,-8.437764999999999,1.6801311,1.4061489999999999,0.41864893,-1.8141453,-54.36,7.26,-16.08
1554109260231,4.0174704,-8.30369,1.8381484000000001,1.5254587,0.3685815,-1.8002968999999998,-54.66,6.06,-16.44
1554109260252,4.2042184,-7.0395517000000005,2.202067,1.5925703000000002,0.26631612,-1.7832526999999998,-55.2,2.28,-17.34
1554109260272,4.534618,-6.330868,2.2930467,1.5723303999999998,0.1768339,-1.7342505000000001,-55.62,-0.06,-18.0
1554109260291,4.9081135,-5.909488,2.7144263,1.5339808000000001,0.111852765,-1.6447683999999998,-55.86,-2.28,-18.66
1554109260311,5.171476,-5.703587000000001,2.7670987,1.4913702,0.058589544,-1.5393071000000003,-56.1,-4.38,-19.26
1554109260331,5.4779334,-5.6748567,3.0831332000000002,1.433846,-0.0010652645,-1.4508902,-56.28,-6.48,-19.8
1554109260351,5.750872599999999,-5.401917500000001,3.1884782000000005,1.3422332000000001,-0.051132694000000006,-1.3603427,-56.28,-8.58,-20.22
1554109260371,5.90889,-4.9901147,3.3273417999999997,1.2559468,-0.098004326,-1.2399678,-56.28,-10.62,-20.58
1554109260391,6.2823853,-4.817732299999999,3.4326867999999995,1.1749867,-0.14168017,-1.1100056,-56.1,-12.54,-20.82
1554109260412,6.603208,-4.654927,3.5571851999999997,1.0482203,-0.17363810000000002,-1.0183928,-55.92,-14.4,-21.12
1554109260432,6.794744500000001,-4.573524,3.4662056000000003,0.91825795,-0.17896444,-0.93849796,-55.8,-16.32,-21.36
1554109260451,6.9048777,-4.3724110000000005,3.6290112,0.78083885,-0.17470337,-0.8692558000000001,-55.62,-18.3,-21.48
1554109260472,7.0341644,-4.3819875999999995,3.7247794,0.69135666,-0.18109496,-0.79255676,-55.44,-20.28,-21.48
1554109260491,7.091625,-4.209605000000001,3.7535098,0.6348976,-0.19813919,-0.7286409,-55.32,-22.14,-21.54
1554109260511,7.110779300000001,-4.305373,3.696049,0.6103965,-0.1949434,-0.680704,-55.2,-23.64,-21.54
1554109260531,7.3214690000000004,-4.2862196,4.0025067000000005,0.57098174,-0.20453078,-0.6423545,-55.08,-24.9,-21.6
1554109260552,7.3789296,-4.204817,3.8397010000000003,0.5933523,-0.19920446,-0.5965481,-55.08,-25.98,-21.54
1554109260571,7.359775999999999,-4.2383356,3.9019501000000005,0.64555025,-0.18642128,-0.535828,-55.08,-26.82,-21.42
1554109260591,7.4699089999999995,-4.2957964,3.9402574999999995,0.6945524000000001,-0.18748654,-0.5028047999999999,-55.08,-27.48,-21.36
1554109260612,7.603985000000001,-4.171298,3.767875,0.7233145999999999,-0.19600865,-0.4878911,-55.08,-28.08,-21.18
1554109260632,7.675811,-3.9318779000000004,3.9306807999999998,0.72437984,-0.19174760000000002,-0.46232477,-55.02,-28.68,-21.0
1554109260655,7.795521000000001,-3.6924577000000003,3.8492777,0.68816084,-0.19174760000000002,-0.42717105,-55.02,-29.28,-20.76
1554109260672,7.7093296,-3.3620577000000003,3.9689879999999995,0.65194184,-0.17896444,-0.38562572,-55.02,-29.94,-20.52
1554109260691,7.762002000000001,-3.3859997,4.031237,0.61678815,-0.16298546,-0.34727620000000003,-54.96,-30.66,-20.28
1554109260711,7.8050976,-3.4338839999999995,4.0839095,0.57417756,-0.15659387,-0.3270362,-54.96,-31.38,-20.04
1554109260732,7.9104424,-3.3476925000000004,3.9929300000000003,0.50813115,-0.14168017,-0.314253,-54.9,-32.34,-19.68
1554109260751,7.991845,-3.2998084999999997,4.031237,0.4165184,-0.12250541,-0.294013,-54.84,-33.36,-19.32
1554109260771,8.020576,-3.151368,3.863643,0.29827404,-0.1107875,-0.26738137,-54.84,-34.32,-18.96
1554109260792,7.991845,-3.093907,3.9067385000000003,0.1470065,-0.099069595,-0.25140239999999997,-54.78,-35.1,-18.66
1554109260811,8.039729,-3.0891187,3.9402574999999995,0.0010652645,-0.08522116,-0.22903186,-54.78,-35.76,-18.42
1554109260831,8.063671000000001,-3.1082723,3.9641995000000003,-0.10972224,-0.06604639400000001,-0.19281286,-54.78,-36.3,-18.18
1554109260852,7.996633500000001,-3.1992521000000003,4.1653123,-0.15552860000000002,-0.05219796,-0.15339808,-54.78,-36.72,-17.94
1554109260871,8.087613000000001,-3.2710779999999997,4.246715,-0.15446335,-0.047936900000000005,-0.13422333,-54.72,-37.08,-17.76
1554109260891,8.130709,-3.1848867000000003,4.2658687,-0.12676647,-0.053263225,-0.12570119999999999,-54.66,-37.2,-17.7
1554109260912,8.020576,-3.2615013,4.3807906999999995,-0.07989483,-0.047936900000000005,-0.10546118,-54.66,-37.2,-17.64
1554109260931,7.9391727,-3.4338839999999995,4.2610803,-0.023435817999999997,-0.043675844000000005,-0.08841695,-54.6,-37.2,-17.64
1554109260951,8.054094000000001,-3.4961330000000004,4.0839095,0.02876214,-0.049002163,-0.08735169,-54.6,-37.26,-17.64
1554109260972,8.082825,-3.4913447,4.0120835,0.02130529,-0.049002163,-0.098004326,-54.6,-37.26,-17.64
1554109260991,8.145074000000001,-3.3716345000000003,4.160524,-0.04261058,-0.037284255,-0.10546118,-54.54,-37.44,-17.64
1554109261011,8.106767,-3.5296519,4.0599675,-0.13209279,-0.02876214,-0.10226539,-54.54,-37.62,-17.58
1554109261032,8.082825,-3.4482489999999997,4.1557355000000005,-0.19387813,-0.026631612000000002,-0.08735169,-54.6,-37.92,-17.58
1554109261051,8.010999,-3.2950199999999996,3.9402574999999995,-0.18961707,-0.023435817999999997,-0.08841695,-54.6,-38.1,-17.58
1554109261071,8.173803999999999,-3.3381157,3.9641995000000003,-0.14274544,-0.025566347000000003,-0.08522116,-54.66,-38.4,-17.58
1554109261092,8.173803999999999,-3.3524809999999996,3.9354692000000004,-0.10865697,-0.017044231,-0.08948222,-54.66,-38.64,-17.58
1554109261111,8.054094000000001,-3.3620577000000003,4.1078515,-0.039414786,-0.002130529,-0.07350325,-54.66,-38.82,-17.58
1554109261132,8.154651,-3.3189620000000004,4.2131963,0.034088463,-0.012783173500000002,-0.07137272,-54.66,-39.0,-17.58
1554109261151,8.164227499999999,-3.3812113,4.11264,0.07669904,-0.017044231,-0.07989483,-54.54,-39.06,-17.58
1554109261172,8.1163435,-3.3764230000000004,4.0743327,0.084155895,-0.027696876000000002,-0.09374327,-54.42,-39.12,-17.58
1554109261191,8.073248,-3.4578260000000003,4.174889,0.099069595,-0.036218993,-0.082025364,-54.36,-39.18,-17.58
1554109261212,8.039729,-3.3333273,4.2850223,0.13954964,-0.036218993,-0.047936900000000005,-54.18,-39.18,-17.52
1554109261231,8.010999,-3.0508115,4.079121,0.19920446,-0.03834952,0.004261058,-54.06,-39.12,-17.46
1554109261251,8.135497,-3.0986955000000003,3.7487214,0.15339808,-0.026631612000000002,0.01917476,-53.94,-39.06,-17.4
1554109261272,8.207322999999999,-3.007716,3.8205473,-0.033023197000000004,-0.01917476,-0.0010652645,-53.82,-39.0,-17.34
1554109261291,8.2169,-3.2423477000000003,3.8301241000000004,-0.25566345,-0.0053263223,-0.017044231,-53.7,-38.94,-17.28
1554109261311,8.125919999999999,-3.481768,4.0599675,-0.40053943,-0.0010652645,-0.034088463,-53.64,-38.88,-17.22
1554109261332,8.078036,-3.6780925000000004,4.1078515,-0.3653857,0.0063915867,-0.024501082,-53.64,-38.76,-17.16
1554109261353,8.145074000000001,-3.615843,4.055179,-0.2428803,-0.004261058,-0.008522116,-53.58,-38.64,-17.16
1554109261372,8.125919999999999,-3.5296519,3.9306807999999998,-0.15446335,-0.002130529,-0.004261058,-53.58,-38.58,-17.16
1554109261391,8.1163435,-3.6110547,4.031237,-0.058589544,-0.0010652645,-0.0053263223,-53.58,-38.34,-17.22
1554109261411,8.09719,-3.6637269999999997,4.079121,0.0010652645,-0.007456851,-0.008522116,-53.64,-38.16,-17.22
1554109261432,8.1163435,-3.6254199000000003,3.9785647000000006,0.053263225,-0.011717908999999999,-0.020240024,-53.64,-37.98,-17.28
1554109261451,8.039729,-3.5535938999999996,4.0120835,0.080960095,-0.010652645,-0.013848438000000001,-53.64,-37.8,-17.28
1554109261471,8.034941,-3.4913447,4.0503907,0.101200126,-0.012783173500000002,0.004261058,-53.64,-37.62,-17.34
1554109261491,8.09719,-3.5727474999999997,3.8109705000000003,0.099069595,-0.00958738,0.00958738,-53.64,-37.5,-17.34
1554109261511,8.0445175,-3.4147300000000005,4.016872,0.07456851,-0.00958738,0.0031957934000000003,-53.64,-37.32,-17.4
1554109261532,8.145074000000001,-3.3572693,3.8971617,0.02876214,-0.0010652645,0.0031957934000000003,-53.64,-37.26,-17.4
1554109261551,8.106767,-3.3907879999999997,3.8109705000000003,0.0031957934000000003,0.0053263223,0.010652645,-53.64,-37.14,-17.46
1554109261572,8.054094000000001,-3.5248635000000004,4.1413703,-0.046871635999999994,0.008522116,0.008522116,-53.58,-37.08,-17.46
1554109261591,8.130709,-3.6062663,4.088698,-0.07243799,0.008522116,-0.0010652645,-53.58,-36.96,-17.46
1554109261612,8.073248,-3.639785,4.1844660000000005,-0.05539375,0.013848438000000001,-0.0063915867,-53.7,-36.96,-17.46
1554109261631,8.034941,-3.639785,4.1557355000000005,-0.022370555,0.0031957934000000003,0.0,-53.82,-36.96,-17.46
1554109261651,8.034941,-3.6733038000000002,4.2610803,0.037284255,-0.008522116,0.002130529,-53.94,-37.02,-17.46
1554109261672,8.073248,-3.5823242999999994,4.0599675,0.08628642,0.0,-0.002130529,-54.06,-37.02,-17.52
1554109261692,8.034941,-3.3764230000000004,4.0025067000000005,0.1107875,-0.011717908999999999,-0.002130529,-54.24,-37.08,-17.52
1554109261711,8.0445175,-3.7355532999999994,4.0120835,0.112918034,-0.004261058,-0.004261058,-54.36,-37.14,-17.52
1554109261732,7.9391727,-3.6062663,3.9881415000000002,0.07882957,-0.014913702,-0.022370555,-54.54,-37.26,-17.52
1554109261751,7.97748,-3.5152867,4.0264487,0.060720075,-0.014913702,-0.025566347000000003,-54.66,-37.44,-17.58
1554109261771,8.0445175,-3.4099417,4.088698,0.07669904,-0.020240024,0.0,-54.72,-37.56,-17.58
1554109261792,7.996633500000001,-3.3572693,3.887585,0.096939065,-0.01917476,0.011717908999999999,-54.72,-37.68,-17.64
1554109261811,8.149861999999999,-3.3189620000000004,3.9402574999999995,0.099069595,-0.015978966,0.007456851,-54.72,-37.8,-17.7
1554109261831,8.039729,-3.2375592999999996,3.9689879999999995,0.099069595,-0.002130529,0.020240024,-54.72,-37.98,-17.7
1554109261852,8.058883,-3.3955764999999998,3.9689879999999995,0.07669904,0.004261058,0.035153727999999995,-54.72,-38.04,-17.76
1554109261871,8.135497,-3.5679589999999997,4.040814,0.02130529,0.013848438000000001,0.03195793,-54.78,-38.16,-17.76
1554109261892,8.073248,-3.7594953,3.9737763,-0.053263225,0.02130529,0.022370555,-54.78,-38.16,-17.76
1554109261911,7.9822683,-3.6685154000000004,4.117428299999999,-0.11930962,0.023435817999999997,0.012783173500000002,-54.78,-37.98,-17.82
1554109261931,7.972691499999999,-3.697246,4.1653123,-0.1438107,0.02130529,0.017044231,-54.72,-37.8,-17.82
1554109261952,8.030152000000001,-3.8025907999999995,4.11264,-0.11611383,0.01917476,0.013848438000000001,-54.6,-37.5,-17.82
1554109261971,7.943961,-3.7211879999999997,4.23235,-0.07669904,0.012783173500000002,-0.012783173500000002,-54.54,-37.32,-17.82
1554109261991,7.896077,-3.7355532999999994,4.32333,0.0,0.00958738,-0.010652645,-54.48,-37.08,-17.82
1554109262011,8.049306,-3.8456864,4.0934862999999995,0.024501082,0.00958738,-0.017044231,-54.42,-36.84,-17.82
1554109262031,8.034941,-3.7020345,4.064756,0.008522116,0.002130529,-0.02876214,-54.36,-36.66,-17.82
1554109262051,7.943961,-3.7355532999999994,4.170100700000001,-0.014913702,0.0031957934000000003,-0.03089267,-54.24,-36.6,-17.82
1554109262071,8.006210000000001,-3.7594953,3.9546227,-0.037284255,-0.002130529,-0.037284255,-54.24,-36.54,-17.82
1554109262092,8.078036,-3.7499184999999997,4.088698,-0.047936900000000005,-0.0010652645,-0.04580637,-54.18,-36.42,-17.82
1554109262112,8.0445175,-3.6685154000000004,4.1222167,-0.00958738,-0.002130529,-0.033023197000000004,-54.24,-36.3,-17.76
1554109262132,8.049306,-3.639785,4.1078515,0.015978966,-0.010652645,-0.035153727999999995,-54.24,-36.18,-17.76
1554109262153,7.905653999999999,-3.5631707,4.246715,0.004261058,-0.0031957934000000003,-0.04474111,-54.3,-36.06,-17.7
1554109262172,7.876923599999999,-3.6110547,4.160524,-0.012783173500000002,-0.008522116,-0.03089267,-54.3,-35.94,-17.64
1554109262191,7.972691499999999,-3.7211879999999997,4.1461587,-0.0031957934000000003,-0.0053263223,-0.015978966,-54.36,-35.88,-17.64
1554109262212,7.920019,-3.6924577000000003,4.0599675,0.010652645,-0.010652645,-0.018109497,-54.36,-35.82,-17.58
1554109262231,8.121132000000001,-3.7211879999999997,4.0216603,0.04261058,-0.0053263223,-0.007456851,-54.36,-35.76,-17.52
1554109262251,8.073248,-3.6780925000000004,4.016872,0.03089267,-0.010652645,-0.018109497,-54.36,-35.7,-17.46
1554109262271,8.020576,-3.6828809000000002,4.1653123,0.0063915867,-0.013848438000000001,-0.03195793,-54.42,-35.64,-17.46
1554109262292,7.8146744,-3.5775358999999995,4.2754455,0.0,-0.02130529,-0.025566347000000003,-54.42,-35.64,-17.46
1554109262312,7.833828,-3.639785,4.117428299999999,0.05752428,-0.020240024,0.025566347000000003,-54.42,-35.58,-17.46
1554109262332,8.0445175,-3.6349967000000003,3.9211037,0.053263225,-0.020240024,0.026631612000000002,-54.42,-35.58,-17.4
1554109262351,8.006210000000001,-3.5727474999999997,3.7966053,-0.033023197000000004,-0.011717908999999999,-0.015978966,-54.42,-35.58,-17.4
1554109262372,7.896077,-3.74513,4.0216603,-0.1107875,0.008522116,-0.017044231,-54.42,-35.52,-17.46
1554109262391,7.915230800000001,-3.7259765,4.031237,-0.11930962,0.007456851,-0.004261058,-54.42,-35.52,-17.46
1554109262412,8.020576,-3.6828809000000002,4.055179,-0.10546118,0.010652645,0.007456851,-54.36,-35.52,-17.52
1554109262432,7.996633500000001,-3.5583823,3.9689879999999995,-0.094808534,0.017044231,0.024501082,-54.36,-35.52,-17.52
1554109262452,7.9487495,-3.6254199000000003,4.1461587,-0.10652645,0.026631612000000002,0.043675844000000005,-54.36,-35.52,-17.52
1554109262472,7.972691499999999,-3.5871127,3.8780080999999997,-0.14807177,0.02876214,0.041545313,-54.36,-35.4,-17.52
1554109262492,7.97748,-3.6206315000000004,4.064756,-0.17150758,0.03089267,0.05965481,-54.36,-35.34,-17.52
1554109262511,7.963114699999999,-3.6110547,4.0120835,-0.19174760000000002,0.026631612000000002,0.083090626,-54.36,-35.22,-17.52
1554109262531,7.8865004,-3.5057099999999997,3.8732197,-0.21518342,0.026631612000000002,0.099069595,-54.36,-35.1,-17.52
1554109262551,7.872135000000001,-3.5535938999999996,4.0839095,-0.23648871,0.027696876000000002,0.11504856,-54.3,-34.98,-17.52
1554109262571,7.876923599999999,-3.4674027,3.9306807999999998,-0.26312032,0.026631612000000002,0.1470065,-54.24,-34.8,-17.58
1554109262593,7.8146744,-3.342904,3.8971617,-0.28122982,0.02876214,0.20133498,-54.18,-34.68,-17.58
1554109262613,7.704541000000001,-3.151368,3.7726634,-0.30679616,0.04474111,0.27803403,-54.06,-34.56,-17.7
1554109262633,7.7428484,-3.328539,3.5523968,-0.33981937,0.06498113,0.36005938,-54.0,-34.5,-17.76
1554109262653,7.6470804,-3.520075,3.5523968,-0.4261058,0.08628642,0.42397526,-53.94,-34.38,-17.88
1554109262672,7.6135616,-3.7307648999999996,3.4997244,-0.5773733,0.10759171,0.4708469,-53.94,-34.26,-18.0
1554109262691,7.5369470000000005,-3.7116113,3.413533,-0.7339671999999999,0.111852765,0.5390238,-53.94,-33.96,-18.12
1554109262712,7.4124484,-3.5871127,3.5140896,-0.8873653,0.1107875,0.60720074,-54.06,-33.6,-18.24
1554109262731,7.4124484,-4.0372224,3.3129766000000003,-1.0120013,0.1107875,0.6625945,-54.12,-33.06,-18.36
1554109262752,7.278373200000001,-4.4777555,3.4231097999999998,-1.1057445,0.12037488,0.6870956,-54.24,-32.4,-18.48
1554109262772,7.1490865,-4.923076999999999,3.4757824,-1.1142666,0.12037488,0.7126619000000001,-54.42,-31.68,-18.66
1554109262791,6.95755,-4.8799815,3.5763388,-1.0237192,0.08948222,0.76485986,-54.54,-30.84,-19.02
1554109262811,6.871359,-5.167286,3.2794578000000003,-0.8490158000000001,0.080960095,0.8426242,-54.66,-30.0,-19.38
1554109262833,6.6606693,-5.1529207,3.1501707999999997,-0.60507023,0.04580637,0.9321064,-54.9,-28.68,-19.8
1554109262851,6.469133,-5.157709,3.4566288,-0.42077947,0.046871635999999994,0.9960223,-54.96,-28.2,-19.98
1554109262871,6.38773,-5.789778,3.1405939999999997,-0.15978967,0.046871635999999994,1.0833739,-55.08,-27.24,-20.22
1554109262892,6.196194,-6.259042,3.0639796,-0.023435817999999997,0.07243799,1.0855045,-55.2,-26.1,-20.46
1554109262912,5.947197,-6.14412,2.9873652,0.06285059999999999,0.06711166,1.1195928999999998,-55.32,-24.9,-20.58
1554109262932,5.837064,-5.9047,2.8963853999999998,0.056459017,0.07989483,1.1856394,-55.44,-23.52,-20.64
1554109262952,5.6790465999999995,-5.789778,2.7240029999999997,0.027696876000000002,0.099069595,1.2889700000000002,-55.56,-22.02,-20.52
1554109262971,5.463568,-6.2303114,2.7623102999999998,-0.047936900000000005,0.13848437,1.3432984,-55.68,-20.46,-20.34
1554109262992,5.0086699999999995,-7.2167225,2.6761188999999996,-0.16085494,0.18748654,1.3475596,-55.8,-18.24,-20.16
1554109263012,4.7405194999999996,-7.6907744000000005,2.7383683,-0.350472,0.19920446,1.3187973,-55.8,-16.8,-20.1
1554109263031,4.55856,-7.6045833,2.7000610000000003,-0.6103965,0.19600865,1.3006879,-55.8,-15.42,-20.04
1554109263051,4.405330999999999,-7.934983,2.5803509,-0.83516735,0.19068234,1.3305153,-55.86,-13.98,-20.04
1554109263072,4.314351599999999,-8.495225999999999,2.2882583,-1.0759171,0.18961707,1.2900352,-55.86,-12.54,-20.1
1554109263092,4.0653543,-8.763377,2.2403743,-1.3156016000000001,0.17576863,1.1867046,-55.8,-10.86,-20.1
1554109263112,3.8738184,-9.0842,2.3361422999999997,-1.4764565,0.14061491,1.1259845,-55.8,-9.12,-20.1
1554109263132,3.7972038,-9.132083999999999,1.9243397,-1.5712651000000002,0.09374327,1.1110708999999999,-55.8,-7.26,-20.16
1554109263151,3.5769374,-9.668385,1.5221136999999998,-1.6618125,0.07137272,1.0769824,-55.74,-5.4,-20.1
1554109263171,3.2752678,-10.080188,1.1725603,-1.8663433999999997,0.05006743,0.95660746,-55.56,-3.48,-19.98
1554109263192,3.2704793999999997,-9.7641535,0.7703344,-2.1294637,0.010652645,0.89801794,-55.44,-1.5,-19.8
1554109263212,3.1124623,-9.59177,0.5117606,-2.2327943,-0.034088463,0.8767126000000001,-55.26,0.42,-19.5
1554109263232,2.954445,-9.711481,0.6697779,-2.1582258,-0.07989483,0.83516735,-55.14,2.34,-19.14
1554109263252,2.834735,-9.821614,1.0528502,-1.8631475,-0.09054748,0.8341021000000001,-54.96,4.08,-18.66
1554109263271,2.6048915,-10.008362,1.3018471999999999,-0.79681784,-0.12996227,0.9108011,-54.78,5.7,-18.0
1554109263292,2.4229321,-10.281301,1.0097545,0.26738137,-0.19387813,0.9310411,-54.54,7.32,-17.28
1554109263312,2.1499932,-9.663596,0.6362591,1.1377025,-0.2545982,0.93423694,-54.36,8.88,-16.5
1554109263331,1.9488802,-9.610924,0.40641573,1.7108147,-0.27483824,1.0279802,-54.24,10.32,-15.84
1554109263352,1.8722657,-9.563039999999999,0.46866497,1.8759307,-0.26631612,1.0641992,-54.12,11.58,-15.24
1554109263372,1.7621324,-9.845556,0.26755205,1.6990968000000002,-0.21411815,1.0492854999999999,-53.94,12.72,-14.7
1554109263391,1.5897499,-10.113707000000002,0.24839842,1.3688648,-0.17470337,1.0066749,-53.7,13.8,-14.34
1554109263411,1.3790601,-10.506355000000001,-0.14425065,0.7126619000000001,-0.09374327,0.9086706,-53.4,14.82,-14.22
1554109263432,1.3215994,-10.894217,-0.22086509999999998,-0.07137272,-0.036218993,0.7701861999999999,-53.04,15.72,-14.22
1554109263452,1.4077905000000002,-10.946889,0.16220717,-0.84581995,-0.0031957934000000003,0.5858955,-52.74,16.62,-14.4
1554109263472,1.3982137,-11.143213000000001,0.0712275,-1.4434333000000001,0.029827405,0.42397526,-52.26,17.64,-14.64
1554109263491,1.2066777,-11.78486,-0.15861586,-1.8514296000000001,0.068176925,0.2130529,-51.72,19.08,-14.94
1554109263512,1.0390834999999998,-12.124836,-0.21607670000000004,-1.8908445,0.096939065,0.07776430000000001,-51.54,19.56,-15.06
1554109263532,1.0821792,-11.722610000000001,-0.0053869537,-1.7012273,0.13741912,-0.08948222,-51.18,20.46,-15.12
1554109263551,1.3120226000000001,-11.12406,0.14305355,-1.2271847,0.16831179,-0.17576863,-50.94,21.18,-15.06
1554109263572,1.4891934,-10.506355000000001,0.090381116,-0.60507023,0.19068234,-0.23329292,-50.76,21.84,-14.7
1554109263592,1.364695,-10.22384,0.17178397,0.03089267,0.1768339,-0.2790993,-50.64,22.38,-14.28
1554109263612,1.2689268999999999,-9.740211500000001,0.23882163,0.58056915,0.13635385,-0.27057716,-50.58,22.8,-13.8
1554109263632,1.1587936,-9.098564999999999,0.24839842,0.9598033000000001,0.08948222,-0.21198763,-50.58,23.04,-13.38
1554109263651,1.0247183000000002,-8.701127,0.26755205,1.1313108,0.040480047000000005,-0.13848437,-50.52,23.22,-12.9
1554109263671,1.0390834999999998,-8.361151,0.3776853,1.1174624,0.0010652645,-0.053263225,-50.52,23.28,-12.48
1554109263692,0.9911995000000001,-8.672397,0.30585927,0.8873653,-0.018109497,0.037284255,-50.52,23.34,-12.24
1554109263713,1.0342950999999998,-8.801684,0.30585927,0.6593986999999999,-0.023435817999999997,0.07563378,-50.52,23.34,-12.3
1554109263731,1.067814,-8.801684,0.20530279,0.28442562,-0.024501082,0.13102753,-50.46,23.22,-12.6
1554109263752,1.067814,-9.141661000000001,0.0712275,-0.14168017,-0.025566347000000003,0.15446335,-50.46,23.1,-13.02
1554109263771,1.1587936,-9.577405,0.09516951400000001,-0.5699165,-0.033023197000000004,0.13102753,-50.46,23.04,-13.38
1554109263792,1.2401965,-10.295666,0.047285482000000004,-0.9331716999999998,-0.017044231,0.101200126,-50.34,22.86,-13.98
1554109263811,1.3551182,-10.621277000000001,0.047285482000000004,-1.0077401,0.004261058,0.054328485999999995,-50.34,22.8,-14.1
1554109263832,1.4030021000000001,-10.750565,0.0712275,-0.83942837,0.037284255,-0.022370555,-50.28,22.8,-14.58
1554109263851,1.4077905000000002,-10.659583999999999,0.08080431,-0.49960902,0.04474111,-0.07669904,-50.22,22.8,-14.7
1554109263872,1.283292,-10.554239,0.26755205,-0.058589544,0.047936900000000005,-0.1107875,-50.16,22.92,-14.58
1554109263892,1.1923125,-10.25257,-0.014963761,0.36112466,0.039414786,-0.13635385,-50.16,23.1,-14.4
1554109263911,1.1875241,-9.778519000000001,0.047285482000000004,0.6540724,0.036218993,-0.1470065,-50.1,23.22,-14.1
1554109263932,0.9959879,-9.610924,0.3345897,0.77870834,0.035153727999999995,-0.13528858,-50.04,23.4,-13.8
1554109263951,1.0821792,-9.452907000000002,0.15263036,0.7552725,0.035153727999999995,-0.12783173,-50.1,23.52,-13.56
1554109263972,1.0390834999999998,-9.247005,0.25318682,0.6498113,0.037284255,-0.113983296,-50.1,23.58,-13.32
1554109263992,1.1109096,-9.156025999999999,0.3585317,0.49215218,0.03195793,-0.08735169,-50.1,23.7,-13.14
1554109264011,1.1348516000000002,-9.179967999999999,0.48303019999999997,0.32597092,0.027696876000000002,-0.056459017,-50.1,23.76,-13.14
1554109264031,1.2210428999999998,-9.285313,0.4878186,0.17044231,0.023435817999999997,-0.029827405,-50.1,23.76,-13.2
1554109264052,1.1348516000000002,-9.414599,0.52133745,0.02130529,0.013848438000000001,-0.017044231,-50.1,23.64,-13.38
1554109264072,1.3120226000000001,-9.534309,0.53091425,-0.13954964,0.004261058,-0.007456851,-50.1,23.58,-13.74
1554109264091,1.2593501,-9.644442999999999,0.4878186,-0.21411815,-0.0010652645,-0.0053263223,-50.1,23.4,-14.04
1554109264112,1.2737153,-9.826402999999999,0.3824737,-0.23968449999999997,-0.007456851,-0.008522116,-50.1,23.28,-14.4
1554109264132,1.2545617,-9.845556,0.3441665,-0.23222765,-0.011717908999999999,-0.015978966,-50.1,23.16,-14.76
1554109264151,1.2593501,-9.879075,0.45908818,-0.19920446,-0.013848438000000001,-0.027696876000000002,-50.1,22.98,-15.06
1554109264171,1.1827357,-9.941324,0.3824737,-0.12570119999999999,-0.008522116,-0.035153727999999995,-50.1,22.86,-15.18
1554109264192,1.1923125,-9.783307,0.45429978,-0.023435817999999997,-0.00958738,-0.05219796,-50.1,22.74,-15.24
1554109264212,1.2162545,-9.6923275,0.40641573,0.049002163,-0.012783173500000002,-0.05006743,-50.1,22.68,-15.18
1554109264231,1.1731589,-9.735422999999999,0.21487960000000003,0.084155895,-0.010652645,-0.05006743,-50.16,22.62,-15.0
1554109264252,1.1300632,-9.548675,0.23882163,0.080960095,-0.0063915867,-0.047936900000000005,-50.16,22.68,-14.88
1554109264271,1.1779473,-9.586982,0.3393781,0.051132694000000006,0.0,-0.037284255,-50.22,22.68,-14.64
1554109264291,1.1348516000000002,-9.567828,0.22924481,0.008522116,0.004261058,-0.034088463,-50.22,22.68,-14.46
1554109264312,1.1204863999999999,-9.610924,0.3681085,-0.025566347000000003,0.0063915867,-0.022370555,-50.22,22.74,-14.28
1554109264331,1.1587936,-9.491214,0.40162733,-0.046871635999999994,0.0031957934000000003,-0.012783173500000002,-50.22,22.74,-14.1
1554109264351,1.1156979999999999,-9.625289,0.45429978,-0.046871635999999994,0.004261058,-0.0063915867,-50.22,22.74,-14.04
1554109264372,1.1348516000000002,-9.706693,0.43993455,-0.04261058,-0.002130529,-0.0063915867,-50.22,22.74,-14.16
1554109264392,1.2018893,-9.625289,0.46387658,-0.025566347000000003,-0.008522116,0.007456851,-50.16,22.74,-14.22
1554109264412,1.2593501,-9.783307,0.48303019999999997,-0.017044231,-0.011717908999999999,0.0053263223,-50.16,22.74,-14.34
1554109264432,1.1971009,-9.7641535,0.46387658,-0.012783173500000002,-0.013848438000000001,0.0,-50.16,22.74,-14.4
1554109264451,1.1587936,-9.697116000000001,0.57400984,-0.00958738,-0.013848438000000001,-0.0063915867,-50.16,22.74,-14.52
1554109264471,1.1779473,-9.668385,0.30585927,-0.0063915867,-0.015978966,-0.020240024,-50.1,22.74,-14.58
1554109264491,1.067814,-9.706693,0.3681085,0.0063915867,-0.017044231,-0.027696876000000002,-50.1,22.74,-14.64
1554109264512,1.091756,-9.735422999999999,0.39683893,0.020240024,-0.017044231,-0.026631612000000002,-50.1,22.74,-14.64
1554109264532,1.1827357,-9.740211500000001,0.3824737,0.037284255,-0.011717908999999999,-0.025566347000000003,-50.1,22.74,-14.58
1554109264551,1.13964,-9.658808,0.31064767,0.040480047000000005,-0.008522116,-0.025566347000000003,-50.1,22.8,-14.52
1554109264572,1.1109096,-9.534309,0.3441665,0.033023197000000004,-0.008522116,-0.018109497,-50.1,22.8,-14.52
1554109264592,1.1013328000000002,-9.615712,0.3298013,0.012783173500000002,-0.0063915867,-0.017044231,-50.1,22.86,-14.46
1554109264611,1.1779473,-9.59177,0.40162733,0.0010652645,-0.0053263223,-0.013848438000000001,-50.16,22.86,-14.4
1554109264631,1.0821792,-9.59177,0.5117606,-0.011717908999999999,-0.008522116,-0.011717908999999999,-50.16,22.86,-14.34
1554109264652,1.091756,-9.582193,0.40641573,-0.024501082,-0.011717908999999999,-0.012783173500000002,-50.1,22.86,-14.34
1554109264671,1.067814,-9.840767999999999,0.44472298,-0.027696876000000002,-0.017044231,-0.004261058,-50.1,22.92,-14.28
1554109264691,1.2018893,-9.77373,0.5117606,-0.026631612000000002,-0.020240024,-0.008522116,-50.04,22.92,-14.28
1554109264712,1.1444284,-9.797672,0.49739540000000004,-0.024501082,-0.015978966,-0.020240024,-50.04,22.92,-14.28
1554109264732,0.9864110999999999,-9.879075,0.45429978,-0.025566347000000003,-0.018109497,-0.027696876000000002,-49.98,22.92,-14.22
1554109264751,1.1348516000000002,-9.869498,0.4878186,-0.010652645,-0.013848438000000001,-0.027696876000000002,-49.92,22.98,-14.22
1554109264771,1.0965444,-9.6923275,0.30107087,0.018109497,-0.013848438000000001,-0.03195793,-49.92,23.04,-14.22
1554109264791,1.067814,-9.706693,0.3681085,0.036218993,-0.010652645,-0.034088463,-49.92,23.1,-14.22
1554109264812,1.0726023999999998,-9.543886,0.56443304,0.03089267,-0.007456851,-0.03089267,-49.92,23.16,-14.22
1554109264832,1.0534488000000002,-9.615712,0.44951138,0.017044231,-0.010652645,-0.01917476,-49.92,23.22,-14.28
1554109264851,1.0630256,-9.639654,0.38726214,-0.004261058,-0.014913702,-0.013848438000000001,-49.86,23.28,-14.28
1554109264871,0.9768343,-9.481637,0.46387658,-0.017044231,-0.01917476,-0.0031957934000000003,-49.86,23.34,-14.28
1554109264891,1.0103531,-9.577405,0.44951138,-0.02130529,-0.023435817999999997,0.007456851,-49.86,23.34,-14.4
1554109264911,0.9911995000000001,-9.553463,0.39205053,-0.015978966,-0.029827405,0.01917476,-49.86,23.4,-14.46
1554109264931,0.9768343,-9.596559,0.46866497,-0.007456851,-0.03834952,0.033023197000000004,-49.86,23.4,-14.52
1554109264952,1.0726023999999998,-9.644442999999999,0.42078096,-0.002130529,-0.040480047000000005,0.040480047000000005,-49.86,23.4,-14.64
1554109264971,1.0630256,-9.706693,0.19093758,-0.010652645,-0.041545313,0.041545313,-49.8,23.4,-14.64
1554109264992,0.9576806999999999,-9.778519000000001,0.30585927,-0.026631612000000002,-0.04474111,0.035153727999999995,-49.8,23.46,-14.64
1554109265011,0.91937345,-9.807249,0.34895490000000007,-0.034088463,-0.04261058,0.03195793,-49.8,23.46,-14.58
1554109265031,0.93852705,-9.917382,0.20530279,-0.04261058,-0.036218993,0.022370555,-49.8,23.52,-14.52
1554109265052,0.93373865,-9.998785,0.21487960000000003,-0.041545313,-0.020240024,-0.0031957934000000003,-49.74,23.58,-14.4
1554109265072,0.92895025,-9.888652,0.061650693,-0.03195793,-0.007456851,-0.02130529,-49.74,23.64,-14.28
1554109265092,0.8571242,-9.850344999999999,0.3585317,-0.017044231,0.0,-0.040480047000000005,-49.74,23.7,-14.16
1554109265112,0.90500826,-9.797672,0.3345897,0.0031957934000000003,0.0053263223,-0.049002163,-49.74,23.7,-14.04
1554109265131,0.93852705,-9.721058,0.26276365,0.024501082,0.011717908999999999,-0.056459017,-49.8,23.76,-13.98
1554109265151,0.9911995000000001,-9.68275,0.38726214,0.033023197000000004,0.011717908999999999,-0.06285059999999999,-49.8,23.82,-13.92
1554109265172,0.92895025,-9.553463,0.3776853,0.029827405,0.00958738,-0.06178534,-49.8,23.82,-13.92
1554109265192,1.0151415000000001,-9.615712,0.43993455,0.024501082,0.002130529,-0.05539375,-49.8,23.82,-13.92
1554109265212,0.9959879,-9.601347,0.49739540000000004,0.022370555,-0.0053263223,-0.043675844000000005,-49.8,23.88,-13.92
1554109265232,0.92895025,-9.610924,0.3537433,0.015978966,-0.008522116,-0.037284255,-49.8,23.88,-13.92
1554109265252,0.90021986,-9.701903999999999,0.40162733,-0.0031957934000000003,-0.012783173500000002,-0.039414786,-49.8,23.94,-13.92
1554109265271,0.9576806999999999,-9.711481,0.42078096,-0.033023197000000004,-0.013848438000000001,-0.037284255,-49.74,23.94,-13.92
1554109265291,0.9672575000000001,-9.759364999999999,0.40162733,-0.04261058,-0.015978966,-0.03195793,-49.74,24.0,-13.92
1554109265312,0.9672575000000001,-9.792883999999999,0.3393781,-0.023435817999999997,-0.017044231,-0.03089267,-49.68,24.06,-13.86
1554109265332,0.93373865,-9.706693,0.25318682,0.0010652645,-0.011717908999999999,-0.03834952,-49.68,24.06,-13.86
1554109265352,1.0151415000000001,-9.677961,0.21487960000000003,0.0063915867,-0.00958738,-0.039414786,-49.68,24.12,-13.86
1554109265371,1.0055646999999999,-9.697116000000001,0.25318682,-0.0010652645,-0.0053263223,-0.040480047000000005,-49.62,24.12,-13.8
1554109265392,0.9672575000000001,-9.677961,0.3681085,-0.0053263223,-0.0053263223,-0.04474111,-49.62,24.12,-13.8
1554109265411,0.93852705,-9.788095,0.3585317,-0.0053263223,-0.0010652645,-0.051132694000000006,-49.62,24.12,-13.8
1554109265431,0.90500826,-9.797672,0.3537433,-0.0010652645,0.004261058,-0.05006743,-49.62,24.12,-13.8
1554109265452,1.0151415000000001,-9.826402999999999,0.38726214,0.0031957934000000003,0.0031957934000000003,-0.05219796,-49.62,24.12,-13.8
1554109265472,1.0247183000000002,-9.716269500000001,0.53570265,0.007456851,0.0010652645,-0.047936900000000005,-49.62,24.12,-13.8
1554109265493,0.94331545,-9.677961,0.30585927,0.010652645,-0.004261058,-0.043675844000000005,-49.62,24.12,-13.8
1554109265512,0.8714894,-9.721058,0.31543607,0.0,-0.002130529,-0.04580637,-49.62,24.12,-13.8
1554109265532,0.866701,-9.735422999999999,0.3633201,-0.012783173500000002,-0.0053263223,-0.049002163,-49.62,24.12,-13.8
1554109265552,0.9528923,-9.788095,0.34895490000000007,-0.020240024,-0.0063915867,-0.049002163,-49.62,24.12,-13.8
1554109265572,0.9624690999999999,-9.754577000000001,0.3633201,-0.013848438000000001,-0.012783173500000002,-0.053263225,-49.62,24.12,-13.8
1554109265592,1.043872,-9.730635000000001,0.41599256,-0.007456851,-0.013848438000000001,-0.05752428,-49.62,24.18,-13.8
1554109265612,0.9768343,-9.615712,0.3345897,0.0031957934000000003,-0.010652645,-0.05965481,-49.68,24.18,-13.8
1554109265631,1.0151415000000001,-9.740211500000001,0.30585927,0.00958738,-0.008522116,-0.06391586,-49.68,24.18,-13.8
1554109265651,1.0295067,-9.721058,0.34895490000000007,0.0053263223,-0.00958738,-0.06604639400000001,-49.68,24.18,-13.86
1554109265671,0.9720459000000001,-9.759364999999999,0.31064767,-0.00958738,-0.00958738,-0.068176925,-49.74,24.24,-13.86
1554109265692,1.0342950999999998,-9.716269500000001,0.48303019999999997,-0.012783173500000002,-0.010652645,-0.06285059999999999,-49.74,24.24,-13.86
1554109265711,0.9720459000000001,-9.697116000000001,0.3441665,-0.0063915867,-0.0063915867,-0.058589544,-49.8,24.18,-13.92
1554109265732,1.0103531,-9.59177,0.20051439,0.0010652645,-0.00958738,-0.058589544,-49.8,24.18,-13.92
1554109265751,1.0199299000000002,-9.663596,0.28670564,-0.0053263223,-0.012783173500000002,-0.05752428,-49.86,24.18,-13.98
1554109265772,1.0247183000000002,-9.6923275,0.42078096,-0.013848438000000001,-0.012783173500000002,-0.056459017,-49.86,24.18,-13.98
1554109265792,1.0630256,-9.730635000000001,0.42078096,-0.022370555,-0.018109497,-0.053263225,-49.8,24.18,-14.04
1554109265812,1.043872,-9.735422999999999,0.24839842,-0.024501082,-0.012783173500000002,-0.05219796,-49.8,24.18,-14.04
1554109265831,1.0007763,-9.711481,0.30107087,-0.017044231,-0.015978966,-0.053263225,-49.8,24.12,-14.1
1554109265851,1.0630256,-9.668385,0.29149407,-0.007456851,-0.013848438000000001,-0.056459017,-49.8,24.12,-14.1
1554109265872,1.0199299000000002,-9.706693,0.42078096,-0.004261058,-0.01917476,-0.05752428,-49.74,24.12,-14.04
1554109265892,1.0390834999999998,-9.740211500000001,0.16220717,0.0,-0.01917476,-0.05006743,-49.74,24.12,-13.98
1554109265911,1.0295067,-9.644442999999999,0.29628247,-0.0053263223,-0.018109497,-0.05219796,-49.68,24.12,-13.92
1554109265931,1.0726023999999998,-9.663596,0.30107087,-0.02130529,-0.015978966,-0.054328485999999995,-49.68,24.18,-13.86
1554109265951,1.043872,-9.721058,0.18614918,-0.027696876000000002,-0.018109497,-0.047936900000000005,-49.74,24.18,-13.8
1554109265971,0.9624690999999999,-9.768942,0.30585927,-0.01917476,-0.010652645,-0.04261058,-49.74,24.18,-13.8
1554109265991,0.9720459000000001,-9.673173,0.109534726,-0.017044231,-0.010652645,-0.04580637,-49.74,24.18,-13.74
1554109266012,1.0582372,-9.7641535,0.18614918,-0.017044231,-0.0063915867,-0.043675844000000005,-49.74,24.18,-13.74
1554109266032,1.0486604,-9.759364999999999,0.16220717,-0.02130529,0.0010652645,-0.041545313,-49.74,24.18,-13.8
1554109266053,1.0199299000000002,-9.754577000000001,0.25318682,-0.02130529,0.004261058,-0.05006743,-49.8,24.12,-13.8
1554109266072,1.0007763,-9.735422999999999,0.21487960000000003,-0.022370555,0.00958738,-0.054328485999999995,-49.86,24.12,-13.8
1554109266092,1.0055646999999999,-9.740211500000001,0.3298013,-0.007456851,0.008522116,-0.051132694000000006,-49.86,24.12,-13.74
1554109266112,1.0582372,-9.697116000000001,0.31064767,0.014913702,0.008522116,-0.053263225,-49.86,24.12,-13.74
1554109266131,1.0726023999999998,-9.668385,0.30585927,0.029827405,0.0063915867,-0.054328485999999995,-49.92,24.06,-13.74
1554109266151,1.0582372,-9.601347,0.40162733,0.024501082,0.0053263223,-0.046871635999999994,-49.92,24.06,-13.68
1554109266171,0.9576806999999999,-9.625289,0.47824179999999994,0.010652645,0.0031957934000000003,-0.039414786,-49.98,24.0,-13.68
1554109266192,1.0007763,-9.596559,0.30107087,-0.0031957934000000003,0.0031957934000000003,-0.037284255,-49.98,23.94,-13.68
1554109266212,1.0199299000000002,-9.706693,0.27712885,-0.011717908999999999,0.0053263223,-0.03089267,-49.98,23.94,-13.74
1554109266231,1.0869676000000001,-9.725846,0.43993455,-0.00958738,0.0063915867,-0.03089267,-49.98,23.88,-13.8
1554109266251,1.0151415000000001,-9.835979,0.26276365,-0.004261058,0.0031957934000000003,-0.035153727999999995,-49.98,23.76,-13.86
1554109266272,0.9959879,-9.845556,0.4878186,-0.0031957934000000003,0.004261058,-0.041545313,-49.98,23.7,-13.86
1554109266292,1.1444284,-9.701903999999999,0.3776853,0.002130529,-0.002130529,-0.041545313,-50.04,23.58,-13.86
1554109266311,1.1013328000000002,-9.735422999999999,0.3776853,0.02130529,-0.004261058,-0.04474111,-50.04,23.52,-13.86
1554109266331,1.0773908,-9.596559,0.3681085,0.02130529,-0.00958738,-0.05219796,-50.04,23.46,-13.86
1554109266352,1.0199299000000002,-9.711481,0.31064767,0.00958738,-0.017044231,-0.05006743,-50.04,23.4,-13.86
1554109266371,0.9624690999999999,-9.644442999999999,0.3776853,0.0063915867,-0.017044231,-0.053263225,-50.1,23.4,-13.8
1554109266391,0.9959879,-9.663596,0.30585927,0.010652645,-0.018109497,-0.053263225,-50.1,23.46,-13.8
1554109266412,1.0103531,-9.730635000000001,0.3776853,0.020240024,-0.017044231,-0.056459017,-50.1,23.46,-13.8
1554109266432,1.0486604,-9.711481,0.31064767,0.015978966,-0.012783173500000002,-0.053263225,-50.1,23.52,-13.74
1554109266452,1.0726023999999998,-9.783307,0.3585317,0.013848438000000001,-0.010652645,-0.053263225,-50.1,23.52,-13.74
1554109266471,1.1683705,-9.783307,0.25797522,-0.0053263223,-0.002130529,-0.05965481,-50.16,23.64,-13.8
1554109266491,1.1109096,-9.812037,0.20530279,-0.012783173500000002,0.004261058,-0.06924219,-50.22,23.64,-13.8
1554109266512,1.0821792,-9.7641535,0.076015905,-0.007456851,0.00958738,-0.07669904,-50.28,23.64,-13.86
1554109266531,1.1156979999999999,-9.816825999999999,0.22445641,-0.0031957934000000003,0.013848438000000001,-0.083090626,-50.28,23.58,-13.86
1554109266551,1.2018893,-9.783307,0.3537433,0.010652645,0.014913702,-0.08735169,-50.34,23.58,-13.86
1554109266572,1.1013328000000002,-9.721058,0.3393781,0.024501082,0.011717908999999999,-0.08735169,-50.4,23.58,-13.92
1554109266592,1.1204863999999999,-9.6923275,0.14305355,0.026631612000000002,0.011717908999999999,-0.082025364,-50.4,23.52,-13.92
1554109266611,1.0821792,-9.586982,0.3681085,0.024501082,0.012783173500000002,-0.07989483,-50.34,23.52,-13.92
1554109266631,1.0199299000000002,-9.615712,0.3585317,0.022370555,0.00958738,-0.07776430000000001,-50.28,23.52,-13.92
1554109266652,1.1013328000000002,-9.529521,0.41120413,0.029827405,0.011717908999999999,-0.06604639400000001,-50.16,23.52,-13.86
1554109266672,1.1109096,-9.548675,0.41120413,0.027696876000000002,0.002130529,-0.053263225,-49.98,23.52,-13.86
1554109266691,1.043872,-9.448118,0.31064767,0.014913702,0.0010652645,-0.041545313,-49.8,23.52,-13.86
1554109266712,1.0390834999999998,-9.586982,0.31543607,-0.017044231,-0.0010652645,-0.024501082,-49.68,23.52,-13.92
1554109266732,1.0390834999999998,-9.711481,0.28191724,-0.047936900000000005,-0.002130529,-0.025566347000000003,-49.56,23.52,-13.92
1554109266751,1.163582,-9.735422999999999,0.28191724,-0.058589544,-0.004261058,-0.023435817999999997,-49.44,23.52,-13.98
1554109266772,1.1252748,-9.86471,0.28191724,-0.04261058,-0.004261058,-0.029827405,-49.5,23.46,-14.04
1554109266792,1.1156979999999999,-9.883863,0.18136078,-0.01917476,-0.002130529,-0.046871635999999994,-49.56,23.46,-14.1
1554109266811,1.1827357,-9.850344999999999,0.40641573,0.0053263223,-0.0010652645,-0.05752428,-49.62,23.46,-14.16
1554109266832,1.1300632,-9.7641535,0.29628247,0.014913702,-0.0031957934000000003,-0.06604639400000001,-49.74,23.4,-14.16
1554109266851,1.1731589,-9.792883999999999,0.21009120000000003,0.014913702,-0.0010652645,-0.07456851,-49.86,23.4,-14.22
1554109266872,1.1300632,-9.697116000000001,0.40641573,0.0053263223,-0.010652645,-0.07776430000000001,-49.98,23.34,-14.22
1554109266893,1.0199299000000002,-9.668385,0.43993455,0.0053263223,-0.00958738,-0.07563378,-50.04,23.34,-14.16
1554109266912,1.1204863999999999,-9.68275,0.40162733,0.00958738,-0.00958738,-0.07030745599999999,-50.16,23.34,-14.16
1554109266932,1.1540052,-9.596559,0.3345897,0.015978966,-0.012783173500000002,-0.060720075,-50.16,23.4,-14.16
1554109266952,1.1731589,-9.68275,0.3537433,0.011717908999999999,-0.010652645,-0.053263225,-50.22,23.4,-14.1
1554109266972,1.1348516000000002,-9.59177,0.29149407,-0.0031957934000000003,-0.014913702,-0.049002163,-50.22,23.4,-14.04
1554109266992,1.1492168,-9.543886,0.24361002,-0.01917476,-0.012783173500000002,-0.039414786,-50.22,23.46,-13.98
1554109267012,1.2114661,-9.677961,0.27712885,-0.024501082,-0.012783173500000002,-0.033023197000000004,-50.28,23.46,-13.98
1554109267031,1.1779473,-9.601347,0.17657238,-0.02130529,-0.0053263223,-0.02876214,-50.28,23.46,-13.92
1554109267052,1.1875241,-9.711481,0.30585927,-0.018109497,-0.004261058,-0.029827405,-50.28,23.46,-13.86
1554109267072,1.1779473,-9.677961,0.13826515,-0.013848438000000001,0.0010652645,-0.035153727999999995,-50.28,23.4,-13.8
1554109267092,1.1971009,-9.807249,0.3441665,-0.002130529,0.010652645,-0.03834952,-50.22,23.4,-13.74
1554109267111,1.2162545,-9.778519000000001,0.29628247,0.004261058,0.008522116,-0.04474111,-50.22,23.34,-13.68
1554109267131,1.1923125,-9.677961,0.25318682,0.014913702,0.015978966,-0.04261058,-50.16,23.34,-13.68
1554109267152,1.2401965,-9.754577000000001,0.3345897,0.014913702,0.014913702,-0.04580637,-50.16,23.28,-13.68
1554109267172,1.13964,-9.610924,0.43035775,0.007456851,0.013848438000000001,-0.04474111,-50.16,23.22,-13.68
1554109267191,1.13964,-9.711481,0.31064767,0.0063915867,0.010652645,-0.043675844000000005,-50.16,23.22,-13.68
1554109267213,1.0965444,-9.582193,0.43514615,-0.0010652645,0.008522116,-0.05219796,-50.16,23.16,-13.74
1554109267232,1.1204863999999999,-9.658808,0.46866497,0.010652645,0.004261058,-0.04580637,-50.16,23.16,-13.74
1554109267251,1.1875241,-9.711481,0.53570265,0.020240024,0.0053263223,-0.039414786,-50.16,23.16,-13.8
1554109267272,1.1779473,-9.649231,0.30585927,0.024501082,0.0010652645,-0.034088463,-50.16,23.1,-13.8
1554109267292,1.1923125,-9.697116000000001,0.43993455,0.012783173500000002,-0.004261058,-0.026631612000000002,-50.16,23.1,-13.8
1554109267312,1.1348516000000002,-9.721058,0.24361002,-0.0063915867,0.0,-0.027696876000000002,-50.22,23.1,-13.86
1554109267332,1.1683705,-9.754577000000001,0.3681085,-0.014913702,0.0053263223,-0.025566347000000003,-50.22,23.04,-13.86
1554109267353,1.1204863999999999,-9.740211500000001,0.3393781,-0.011717908999999999,0.007456851,-0.029827405,-50.28,23.04,-13.86
1554109267371,1.1348516000000002,-9.816825999999999,0.25318682,0.004261058,0.007456851,-0.03195793,-50.28,23.04,-13.86
1554109267391,1.3024458,-9.639654,0.3345897,0.02876214,0.012783173500000002,-0.02876214,-50.28,23.04,-13.86
1554109267412,1.1779473,-9.6923275,0.30107087,0.040480047000000005,0.013848438000000001,-0.03089267,-50.28,23.04,-13.92
1554109267431,1.2114661,-9.711481,0.3298013,0.027696876000000002,0.020240024,-0.034088463,-50.34,23.04,-13.98
1554109267451,1.13964,-9.716269500000001,0.30585927,0.0010652645,0.022370555,-0.033023197000000004,-50.34,23.04,-14.04
1554109267472,1.1540052,-9.6923275,0.3298013,-0.017044231,0.01917476,-0.034088463,-50.28,23.1,-14.1
1554109267492,1.0486604,-9.701903999999999,0.41599256,-0.007456851,0.022370555,-0.03089267,-50.28,23.1,-14.16
1554109267512,1.1300632,-9.677961,0.43993455,0.014913702,0.01917476,-0.034088463,-50.22,23.16,-14.22
1554109267531,1.2114661,-9.610924,0.40162733,0.022370555,0.012783173500000002,-0.035153727999999995,-50.22,23.22,-14.28
1554109267552,1.0821792,-9.701903999999999,0.44951138,0.013848438000000001,0.011717908999999999,-0.035153727999999995,-50.22,23.22,-14.34
1554109267571,1.0773908,-9.721058,0.3824737,-0.002130529,0.008522116,-0.035153727999999995,-50.22,23.22,-14.34
1554109267592,1.1827357,-9.759364999999999,0.66498953,-0.014913702,0.0,-0.037284255,-50.22,23.16,-14.4
1554109267612,1.1827357,-9.673173,0.39683893,-0.007456851,-0.002130529,-0.040480047000000005,-50.16,23.16,-14.4
1554109267632,1.1204863999999999,-9.749788,0.3345897,-0.004261058,-0.0063915867,-0.051132694000000006,-50.16,23.22,-14.4
1554109267652,1.1348516000000002,-9.658808,0.43993455,-0.0031957934000000003,-0.014913702,-0.05006743,-50.16,23.22,-14.46
1554109267671,1.1252748,-9.701903999999999,0.3681085,0.004261058,-0.014913702,-0.04580637,-50.16,23.22,-14.46
1554109267691,1.1300632,-9.634866,0.3824737,0.00958738,-0.018109497,-0.049002163,-50.16,23.22,-14.46
1554109267712,1.1971009,-9.639654,0.39683893,0.012783173500000002,-0.022370555,-0.041545313,-50.16,23.22,-14.52
1554109267732,1.13964,-9.529521,0.44472298,0.0063915867,-0.023435817999999997,-0.034088463,-50.1,23.28,-14.52
1554109267751,1.1204863999999999,-9.610924,0.3441665,-0.004261058,-0.02130529,-0.027696876000000002,-50.1,23.34,-14.52
1554109267771,1.1204863999999999,-9.711481,0.12389994,-0.010652645,-0.014913702,-0.024501082,-50.1,23.4,-14.46
1554109267792,1.0726023999999998,-9.668385,0.23882163,-0.015978966,-0.0063915867,-0.025566347000000003,-50.1,23.46,-14.46
1554109267811,1.0773908,-9.725846,0.34895490000000007,-0.012783173500000002,0.0031957934000000003,-0.03089267,-50.1,23.52,-14.46
1554109267832,1.1013328000000002,-9.730635000000001,0.44472298,-0.0010652645,0.008522116,-0.03195793,-50.1,23.52,-14.52
1554109267851,1.0390834999999998,-9.639654,0.25797522,0.013848438000000001,0.017044231,-0.037284255,-50.1,23.58,-14.58
1554109267872,1.1156979999999999,-9.725846,0.44472298,0.015978966,0.015978966,-0.040480047000000005,-50.1,23.58,-14.64
1554109267892,1.1875241,-9.711481,0.48303019999999997,0.008522116,0.017044231,-0.047936900000000005,-50.04,23.52,-14.7
1554109267911,1.1875241,-9.649231,0.43514615,-0.004261058,0.012783173500000002,-0.05006743,-50.04,23.46,-14.76
1554109267931,1.13964,-9.740211500000001,0.45908818,-0.0053263223,0.00958738,-0.053263225,-50.04,23.4,-14.82
1554109267952,1.1540052,-9.677961,0.55006784,0.0053263223,0.0,-0.053263225,-50.04,23.34,-14.88
1554109267972,1.1444284,-9.68275,0.54049104,0.011717908999999999,-0.0063915867,-0.05752428,-50.04,23.28,-14.88
1554109267991,1.1252748,-9.711481,0.5069722,0.00958738,-0.014913702,-0.056459017,-50.04,23.22,-14.82
1554109268012,1.1252748,-9.615712,0.3298013,0.0031957934000000003,-0.018109497,-0.05539375,-50.04,23.16,-14.7
1554109268031,1.1540052,-9.668385,0.48303019999999997,-0.002130529,-0.020240024,-0.05006743,-50.04,23.22,-14.64
1554109268051,1.1875241,-9.668385,0.47824179999999994,-0.0031957934000000003,-0.02130529,-0.043675844000000005,-50.04,23.22,-14.64
1554109268072,1.1492168,-9.6923275,0.25318682,-0.004261058,-0.020240024,-0.03834952,-50.1,23.28,-14.58
1554109268091,1.2545617,-9.658808,0.3393781,0.0010652645,-0.023435817999999997,-0.035153727999999995,-50.1,23.28,-14.52
1554109268112,1.1827357,-9.649231,0.43035775,0.0063915867,-0.012783173500000002,-0.034088463,-50.1,23.34,-14.52
1554109268132,1.2018893,-9.716269500000001,0.21009120000000003,-0.0053263223,-0.0031957934000000003,-0.034088463,-50.16,23.34,-14.46
1554109268152,1.1683705,-9.716269500000001,0.22924481,-0.00958738,0.007456851,-0.03089267,-50.16,23.4,-14.52
1554109268172,1.1492168,-9.697116000000001,0.43993455,-0.010652645,0.018109497,-0.03089267,-50.22,23.46,-14.52
1554109268192,1.2497733,-9.716269500000001,0.29149407,-0.012783173500000002,0.024501082,-0.02876214,-50.22,23.4,-14.52
1554109268212,1.2593501,-9.697116000000001,0.3585317,-0.011717908999999999,0.03089267,-0.027696876000000002,-50.22,23.4,-14.52
1554109268232,1.1444284,-9.821614,0.38726214,-0.011717908999999999,0.03089267,-0.03089267,-50.22,23.34,-14.52
1554109268252,1.1061212,-9.879075,0.28670564,-0.014913702,0.029827405,-0.046871635999999994,-50.22,23.34,-14.46
1554109268271,1.1061212,-9.946113,0.41120413,-0.027696876000000002,0.025566347000000003,-0.06285059999999999,-50.22,23.4,-14.46
1554109268291,1.0151415000000001,-10.080188,0.38726214,-0.024501082,0.023435817999999997,-0.07350325,-50.22,23.46,-14.4
1554109268312,1.0630256,-10.099341,0.41599256,-0.00958738,0.017044231,-0.101200126,-50.22,23.46,-14.4
1554109268331,1.1827357,-9.89344,0.56922144,0.00958738,0.002130529,-0.12783173,-50.22,23.52,-14.34
1554109268351,1.0965444,-9.831191,0.66498953,0.027696876000000002,-0.012783173500000002,-0.14061491,-50.22,23.58,-14.34
1554109268372,1.2497733,-9.663596,0.7128736,0.05965481,-0.039414786,-0.14913702,-50.22,23.52,-14.4
1554109268392,1.13964,-9.59177,0.6937199000000001,0.084155895,-0.06285059999999999,-0.15339808,-50.22,23.52,-14.4
1554109268412,1.1540052,-9.529521,0.5021838,0.09267801,-0.07776430000000001,-0.14487597,-50.22,23.46,-14.4
