TimeStamp,Ax,Ay,Az,Gx,Gy,Gz,Mx,My,Mz
1554879493851,-2.2697031,-1.0109516,9.21229,-1.8801918000000002,1.5329156000000002,0.12996227,3.0,-44.16,-43.38
1554879493872,-2.552219,-1.4945803999999998,9.169194000000001,-1.5744608999999998,1.4732608,0.18855181,3.84,-42.3,-44.28
1554879493892,-2.633622,-1.7004818,8.958505,-1.2889700000000002,1.397627,0.19920446,4.38,-40.86,-44.82
1554879493912,-2.8778305,-1.8441339,8.613739,-1.1259845,1.3358417,0.19600865,4.98,-39.3,-45.42
1554879493931,-3.1507695,-1.7100586,8.843582000000001,-0.9374326999999999,1.2538162,0.18109496,5.46,-37.68,-45.96
1554879493952,-3.2848446000000004,-1.8010383,8.465299,-0.716923,1.1323761,0.19920446,5.82,-36.18,-46.44
1554879493971,-3.4380736000000005,-2.1170728,8.364742,-0.61572284,1.0482203,0.23009712,6.24,-34.86,-46.74
1554879493991,-3.5146879999999996,-2.2415714,8.288128,-0.6295713000000001,0.9960223,0.26738137,6.72,-33.84,-46.92
1554879494012,-3.9504328,-2.1936872000000003,8.015189,-0.7233145999999999,0.97258645,0.314253,7.26,-33.0,-46.92
1554879494032,-4.1659107,-2.3469162,7.8475947,-0.95128113,0.9736517,0.36751625,7.8,-32.1,-46.86
1554879494051,-4.3478703,-2.5288756,7.612962700000001,-1.2783173,0.9981528000000001,0.43462790000000007,8.28,-31.38,-46.8
1554879494071,-4.8458643,-2.8880057,7.229890299999999,-1.6447683999999998,1.0823087,0.51984906,8.64,-30.66,-46.74
1554879494092,-5.185841,-3.0843303,6.894702400000001,-2.0335898,1.1526161,0.60080916,8.94,-30.06,-46.62
1554879494112,-5.4683566,-3.5488055,6.612186400000001,-2.4426514999999998,1.2037488,0.68176925,9.18,-29.34,-46.62
1554879494131,-5.861006,-3.9797617999999995,6.5068417,-2.7079022,1.2602079,0.7765778,9.48,-28.5,-46.56
1554879494151,-6.05733,-4.6261964,6.425439,-2.824016,1.2580773,0.86606,9.84,-27.6,-46.56
1554879494172,-6.1818290000000005,-4.9374423,6.305729,-2.751578,1.2080098,0.90654004,10.2,-26.4,-46.56
1554879494192,-6.143522,-5.406706,6.415862000000001,-2.4437168,1.139833,0.9310411,10.56,-24.84,-46.68
1554879494211,-6.2488665999999995,-5.48332,6.1620764999999995,-1.9707392,1.051416,0.95660746,10.92,-23.16,-46.8
1554879494231,-6.593631299999999,-5.468955,6.114192500000001,-1.3933659,0.96299905,0.95234644,11.28,-21.42,-46.92
1554879494251,-6.655881,-5.4545900000000005,5.9561753,-0.9534117,0.87564737,0.9470200999999999,11.64,-19.56,-47.04
1554879494272,-6.569689299999999,-5.3205147,5.6401405,-0.21092236,0.69774824,0.902279,12.0,-17.82,-47.16
1554879494291,-6.6750345,-4.8799815,5.175665400000001,0.28016454,0.6146576,0.8852348,12.36,-16.26,-47.28
1554879494312,-6.8809357,-4.88477,5.127781400000001,0.5901565,0.567786,0.90014845,12.48,-14.82,-47.34
1554879494332,-6.981492,-4.6022544000000005,4.869208,0.7946873000000001,0.51452273,0.9225190000000001,12.54,-13.8,-47.4
1554879494352,-7.1730285,-4.257489,4.854842700000001,0.97045594,0.46871635,0.9374326999999999,12.66,-13.44,-47.4
1554879494371,-7.2640080000000005,-3.912724,4.883573,1.1132014,0.44315,0.95128113,12.72,-13.5,-47.34
1554879494392,-7.3885064,-3.5823242999999994,4.7830167,1.1888351000000001,0.42184472,0.97045594,12.84,-14.04,-47.16
1554879494412,-7.3789296,-3.1705215,4.9218802,1.2037488,0.4165184,0.9736517,12.9,-14.94,-46.98
1554879494433,-7.5704656,-2.6725276,4.9937059999999995,1.2335763000000002,0.39840892,0.9491506,13.02,-16.14,-46.62
1554879494451,-7.6375036,-2.203264,4.797382,1.3081448,0.41438788,0.9214538000000001,13.08,-17.52,-46.32
1554879494471,-7.738060000000001,-1.7531542000000002,4.907515,1.3518206,0.45486793,0.95447695,13.14,-19.26,-46.02
1554879494491,-7.656657000000001,-1.3652935,4.859630999999999,1.3848438,0.49215218,0.9534117,13.2,-21.24,-45.66
1554879494512,-7.517792999999999,-0.95827925,4.744708999999999,1.3891048000000001,0.49747851,0.8607336999999999,13.2,-23.28,-45.24
1554879494531,-7.5273699999999995,-0.6422445999999999,4.624999,1.3592775,0.52624065,0.79681784,13.2,-25.14,-44.82
1554879494552,-7.7572136,-0.54168814,4.337695,1.320928,0.5752428,0.7595335999999999,13.2,-26.76,-44.28
1554879494571,-7.8386164,-0.24959552,3.9258924,1.2314457,0.5496765,0.700944,13.08,-28.2,-43.74
1554879494591,-7.8625584,0.0664391,3.5763388,1.1014834999999998,0.5294364,0.6242449999999999,12.84,-29.58,-43.26
1554879494611,-7.920019,0.17178397,3.6673183,0.8767126000000001,0.49960902,0.5699165,12.6,-30.96,-42.72
1554879494632,-7.987056699999999,0.43993455,3.6433763999999997,0.6540724,0.44315,0.49321744,12.36,-32.16,-42.12
1554879494652,-7.9583262999999995,0.44472298,3.8013937000000007,0.43995422,0.40053943,0.42184472,12.12,-33.18,-41.58
1554879494672,-8.2169,0.6171055000000001,3.494936,0.26738137,0.34088463,0.36751625,11.88,-34.38,-40.56
1554879494692,-8.350976,0.43993455,3.5523968,0.128897,0.27696875,0.33449304,11.58,-34.8,-40.32
1554879494711,-8.470686,0.3585317,3.8588544999999996,0.041545313,0.24927188,0.32490566,11.4,-35.7,-39.9
1554879494731,-8.552089,0.44472298,4.031237,0.033023197000000004,0.23116238,0.29933932,11.28,-36.48,-39.6
1554879494752,-8.465898,0.46866497,4.222773,0.08841695,0.20453078,0.25992453,11.28,-37.2,-39.3
1554879494771,-8.274361,0.3776853,4.1461587,0.18429075,0.15552860000000002,0.24607609,11.28,-37.68,-39.06
1554879494791,-8.623915,0.45908818,4.0743327,0.21837921,0.18429075,0.21731395,11.22,-37.98,-38.88
1554879494812,-8.667010000000001,0.5835866999999999,3.9067385000000003,0.19600865,0.16405073,0.18109496,11.22,-38.28,-38.7
1554879494832,-8.686164,0.75118077,3.6577415,0.13954964,0.13528858,0.14913702,11.22,-38.52,-38.64
1554879494852,-8.6095495,0.86131406,3.7008373999999997,0.026631612000000002,0.10333065,0.12676647,11.22,-38.76,-38.52
1554879494872,-8.676587,0.83258367,3.6721067,-0.07030745599999999,0.08948222,0.12783173,11.1,-39.0,-38.4
1554879494891,-8.858546,0.6937199000000001,3.7535098,-0.12037488,0.07456851,0.113983296,10.98,-39.24,-38.34
1554879494911,-8.791509,0.7224503999999999,3.9641995000000003,-0.08522116,0.05539375,0.10865697,10.92,-39.36,-38.28
1554879494932,-8.734048,0.52612585,4.0025067000000005,0.056459017,0.034088463,0.113983296,10.74,-39.54,-38.16
1554879494952,-8.767567,0.41599256,4.136582,0.1470065,0.033023197000000004,0.082025364,10.62,-39.66,-38.1
1554879494971,-8.724471000000001,0.6314706999999999,3.743933,0.19281286,0.014913702,0.04261058,10.5,-39.78,-38.04
1554879494992,-8.762777999999999,0.64583594,3.7247794,0.20453078,0.033023197000000004,0.049002163,10.44,-39.84,-38.04
1554879495012,-8.734048,0.7320272,4.0120835,0.18216023,0.056459017,0.06924219,10.38,-39.96,-38.04
1554879495031,-8.710106,0.75118077,3.8540661,0.18855181,0.041545313,0.060720075,10.32,-40.02,-37.98
1554879495052,-8.6574335,0.85652566,4.0695443,0.16724652,0.06285059999999999,0.05006743,10.32,-40.08,-37.98
1554879495071,-8.537724,0.9331401,4.0743327,0.12676647,0.06178534,0.056459017,10.32,-40.14,-37.98
1554879495091,-8.6334915,0.86610246,3.9833531000000004,0.07030745599999999,0.06178534,0.037284255,10.26,-40.26,-37.92
1554879495111,-8.537724,1.1150993999999999,3.7535098,0.054328485999999995,0.036218993,0.020240024,10.2,-40.38,-37.86
1554879495132,-8.6574335,1.1390414,3.4805707999999997,0.047936900000000005,0.015978966,0.017044231,10.14,-40.5,-37.8
1554879495152,-8.7532015,1.1007341999999998,3.6337996,0.0,0.002130529,-0.002130529,10.08,-40.68,-37.74
1554879495171,-8.743625,0.9139864999999999,3.9211037,-0.08628642,0.0063915867,-0.024501082,10.02,-40.86,-37.68
1554879495192,-8.853758000000001,0.9331401,3.9115269999999995,-0.12570119999999999,-0.015978966,-0.04261058,9.96,-41.04,-37.62
1554879495212,-8.834603999999999,0.7272388000000001,3.9833531000000004,-0.099069595,-0.01917476,-0.040480047000000005,9.9,-41.22,-37.5
1554879495231,-8.925583999999999,0.6889314999999999,3.8588544999999996,-0.04261058,-0.02876214,-0.017044231,9.84,-41.4,-37.44
1554879495252,-8.767567,0.95229375,4.079121,0.010652645,-0.02876214,0.014913702,9.78,-41.46,-37.44
1554879495271,-8.700529,1.0863690000000001,4.2036195,0.06391586,-0.017044231,0.017044231,9.78,-41.52,-37.38
1554879495291,-8.781932000000001,1.0145429,4.016872,0.101200126,-0.0010652645,0.0031957934000000003,9.78,-41.58,-37.32
1554879495312,-8.767567,0.9427169,3.9115269999999995,0.12357068,0.0031957934000000003,-0.013848438000000001,9.84,-41.52,-37.32
1554879495332,-8.6813755,1.0049661,4.007295,0.12570119999999999,-0.018109497,-0.03089267,9.9,-41.46,-37.32
1554879495351,-8.724471000000001,1.1725603,3.7247794,0.113983296,-0.018109497,-0.026631612000000002,9.96,-41.34,-37.26
1554879495371,-8.834603999999999,1.2587515,3.6290112,0.06498113,-0.014913702,-0.023435817999999997,10.08,-41.28,-37.26
1554879495391,-8.7292595,1.1677719,3.7247794,-0.04261058,-0.036218993,-0.029827405,10.14,-41.22,-37.26
1554879495411,-8.810661999999999,1.0049661,3.743933,-0.13954964,-0.020240024,-0.02130529,10.2,-41.16,-37.2
1554879495432,-8.662222,0.9331401,3.7582982000000005,-0.17896444,-0.0053263223,-0.010652645,10.26,-41.16,-37.2
1554879495452,-8.7053175,0.8996213,3.6721067,-0.19068234,0.007456851,-0.008522116,10.32,-41.16,-37.2
1554879495472,-8.667010000000001,0.85173726,4.1796775,-0.14807177,0.020240024,-0.02130529,10.32,-41.16,-37.2
1554879495492,-8.614338,0.9235633,4.1461587,-0.05965481,0.011717908999999999,-0.034088463,10.26,-41.16,-37.2
1554879495512,-8.815451,0.717662,3.7774517999999997,0.06711166,-0.00958738,-0.02876214,10.2,-41.22,-37.2
1554879495532,-8.662222,0.9187749,3.7008373999999997,0.010652645,-0.033023197000000004,-0.013848438000000001,10.14,-41.16,-37.2
1554879495552,-8.628703,0.9379284999999999,3.8013937000000007,-0.07669904,-0.046871635999999994,-0.027696876000000002,10.08,-41.16,-37.2
1554879495572,-8.748413000000001,1.0241197,3.9211037,-0.09161274,-0.046871635999999994,-0.039414786,10.02,-41.1,-37.2
1554879495592,-8.896853,0.87089086,3.863643,-0.113983296,-0.04474111,-0.026631612000000002,10.02,-41.04,-37.14
1554879495611,-8.834603999999999,0.99060094,4.0025067000000005,-0.14168017,-0.023435817999999997,-0.017044231,9.96,-40.98,-37.14
1554879495631,-8.796297000000001,1.1007341999999998,3.7774517999999997,-0.12037488,-0.013848438000000001,-0.013848438000000001,9.96,-40.86,-37.14
1554879495652,-8.738836000000001,0.8996213,3.8109705000000003,-0.12037488,-0.004261058,-0.0063915867,9.9,-40.86,-37.14
1554879495671,-8.767567,0.76075757,3.8492777,-0.13954964,0.004261058,-0.017044231,9.96,-40.8,-37.14
1554879495693,-8.738836000000001,0.717662,4.1222167,-0.05752428,-0.002130529,-0.033023197000000004,9.96,-40.8,-37.14
1554879495712,-8.623915,0.66498953,4.088698,-0.017044231,-0.004261058,-0.01917476,10.02,-40.86,-37.2
1554879495731,-8.7532015,0.789488,3.9785647000000006,-0.010652645,0.0031957934000000003,-0.027696876000000002,10.02,-40.86,-37.26
1554879495751,-8.801085,0.83737206,3.9306807999999998,0.018109497,0.018109497,-0.037284255,9.96,-40.98,-37.32
1554879495772,-8.815451,0.789488,3.5332432000000003,0.056459017,0.008522116,-0.02876214,9.9,-41.1,-37.38
1554879495792,-8.743625,0.8182184,3.6625300000000003,0.033023197000000004,-0.00958738,-0.024501082,9.9,-41.16,-37.56
1554879495812,-8.667010000000001,0.9427169,3.8540661,-0.06178534,-0.020240024,-0.02130529,9.84,-41.28,-37.62
1554879495831,-8.580819,0.8038531999999999,4.007295,-0.101200126,-0.013848438000000001,-0.039414786,9.84,-41.34,-37.74
1554879495851,-8.700529,0.74639237,4.007295,-0.080960095,0.004261058,-0.05752428,9.78,-41.4,-37.8
1554879495872,-8.839393,0.6937199000000001,4.1892543,-0.041545313,0.018109497,-0.054328485999999995,9.78,-41.46,-37.92
1554879495891,-8.853758000000001,0.741604,4.088698,-0.0031957934000000003,0.013848438000000001,-0.047936900000000005,9.72,-41.46,-37.92
1554879495911,-8.7771435,0.9187749,3.7582982000000005,0.05006743,-0.002130529,-0.056459017,9.78,-41.34,-38.1
1554879495932,-8.853758000000001,0.9379284999999999,3.8301241000000004,-0.017044231,-0.007456851,-0.047936900000000005,9.78,-41.28,-38.1
1554879495952,-8.7292595,0.8900445,3.7295678,-0.10865697,-0.018109497,-0.040480047000000005,9.78,-41.16,-38.16
1554879495971,-8.786719999999999,0.83258367,3.9115269999999995,-0.12570119999999999,-0.020240024,-0.05539375,9.78,-41.1,-38.16
1554879495991,-8.834603999999999,0.6027403,4.016872,-0.06924219,-0.034088463,-0.033023197000000004,9.78,-40.98,-38.16
1554879496012,-8.786719999999999,0.6075286999999999,4.23235,-0.040480047000000005,-0.022370555,-0.029827405,9.84,-40.92,-38.22
1554879496032,-8.7771435,0.6889314999999999,4.031237,0.002130529,-0.010652645,-0.029827405,9.84,-40.8,-38.28
1554879496051,-8.714894000000001,0.76554596,3.6625300000000003,0.03195793,0.0031957934000000003,-0.034088463,9.84,-40.74,-38.4
1554879496071,-8.767567,0.9379284999999999,3.767875,0.013848438000000001,0.013848438000000001,-0.046871635999999994,9.84,-40.68,-38.4
1554879496092,-8.772355000000001,0.81343,3.7966053,-0.026631612000000002,0.008522116,-0.049002163,9.9,-40.68,-38.46
1554879496112,-8.724471000000001,0.741604,3.9163153,-0.02876214,0.0053263223,-0.049002163,9.9,-40.56,-38.4
1554879496132,-8.580819,0.5931635000000001,4.0264487,-0.035153727999999995,-0.013848438000000001,-0.04474111,9.96,-40.5,-38.34
1554879496151,-8.839393,0.43514615,4.103063,-0.026631612000000002,0.0053263223,-0.037284255,10.02,-40.44,-38.34
1554879496171,-8.7771435,0.6410475,4.055179,0.03089267,0.0,-0.035153727999999995,10.14,-40.32,-38.28
1554879496191,-8.815451,0.8182184,3.9833531000000004,0.09374327,0.002130529,-0.039414786,10.2,-40.26,-38.22
1554879496212,-8.925583999999999,0.8948328999999999,4.371214,0.16085494,0.035153727999999995,-0.053263225,10.26,-40.2,-38.1
1554879496232,-8.935161,1.0432734000000001,4.270657,0.23329292,0.056459017,-0.058589544,10.32,-40.14,-38.04
1554879496252,-8.848969,0.9475053,3.9689879999999995,0.29614353,0.07456851,-0.053263225,10.38,-40.08,-38.04
1554879496272,-8.6574335,1.062427,3.6721067,0.23648871,0.06391586,-0.049002163,10.38,-40.08,-38.04
1554879496293,-8.508992999999998,0.86610246,3.4757824,0.13954964,0.03195793,-0.06285059999999999,10.38,-40.08,-38.04
1554879496311,-8.604761,0.82779527,3.4757824,0.05965481,-0.011717908999999999,-0.06391586,10.32,-40.08,-37.98
1554879496331,-8.556877,0.75118077,3.5523968,-0.008522116,-0.06178534,-0.06604639400000001,10.26,-40.08,-37.98
1554879496352,-8.676587,0.53570265,3.6864722000000003,-0.09054748,-0.07989483,-0.06711166,10.2,-40.08,-37.92
1554879496372,-9.074024,0.40162733,3.9594111000000005,-0.14594123,-0.054328485999999995,-0.054328485999999995,10.14,-40.08,-37.86
1554879496391,-9.078813,0.43035775,4.2993879999999995,-0.068176925,-0.047936900000000005,-0.040480047000000005,10.14,-40.14,-37.86
1554879496411,-8.939949,0.6075286999999999,4.1892543,0.035153727999999995,-0.033023197000000004,-0.018109497,10.14,-40.26,-37.86
1554879496431,-8.805874000000001,0.88525605,4.1222167,0.10333065,-0.01917476,-0.013848438000000001,10.14,-40.32,-37.8
1554879496452,-8.686164,1.0097545,3.8061821000000005,0.13422333,-0.012783173500000002,-0.033023197000000004,10.14,-40.38,-37.8
1554879496471,-8.743625,0.85173726,3.7247794,0.10972224,-0.0031957934000000003,-0.04474111,10.14,-40.44,-37.86
1554879496491,-8.987833,0.54049104,3.8971617,0.04261058,0.0010652645,-0.043675844000000005,10.14,-40.56,-37.86
1554879496511,-9.002198,0.57879823,3.9785647000000006,-0.024501082,-0.004261058,-0.015978966,10.14,-40.56,-37.86
1554879496532,-8.781932000000001,0.6362591,3.9785647000000006,-0.013848438000000001,-0.01917476,0.00958738,10.2,-40.62,-37.8
1554879496552,-8.815451,0.98102415,3.7247794,0.06285059999999999,-0.03089267,-0.007456851,10.2,-40.62,-37.8
1554879496573,-8.786719999999999,0.8038531999999999,4.0743327,-0.002130529,0.010652645,0.02876214,10.14,-40.62,-37.8
1554879496591,-8.714894000000001,0.8182184,4.016872,-0.047936900000000005,0.0031957934000000003,0.007456851,10.14,-40.62,-37.8
1554879496612,-8.7053175,0.9187749,4.031237,-0.023435817999999997,0.02130529,0.0,10.14,-40.62,-37.8
1554879496632,-8.820239,0.88525605,3.9785647000000006,0.025566347000000003,0.023435817999999997,0.004261058,10.14,-40.62,-37.8
1554879496652,-8.99741,1.1007341999999998,3.7870286,0.024501082,0.014913702,0.002130529,10.14,-40.62,-37.8
1554879496672,-8.930372,1.0480618,3.6673183,-0.022370555,-0.0053263223,0.01917476,10.14,-40.62,-37.8
1554879496691,-8.810661999999999,0.6745663000000001,3.8157589999999995,-0.06391586,-0.007456851,0.025566347000000003,10.14,-40.62,-37.8
1554879496712,-8.968679,0.75596917,4.0360255,-0.07563378,0.0031957934000000003,0.03834952,10.14,-40.56,-37.8
1554879496731,-8.896853,0.6745663000000001,4.0216603,0.0,0.013848438000000001,0.051132694000000006,10.2,-40.56,-37.8
1554879496752,-8.63828,1.062427,3.7726634,0.08841695,0.002130529,0.043675844000000005,10.14,-40.56,-37.8
1554879496772,-8.772355000000001,1.0432734000000001,3.6433763999999997,0.06285059999999999,0.007456851,0.029827405,10.14,-40.56,-37.74
1554879496792,-8.762777999999999,0.9379284999999999,3.6481647000000006,-0.03089267,0.0031957934000000003,0.023435817999999997,10.08,-40.56,-37.74
1554879496811,-8.848969,0.87089086,3.9163153,-0.07350325,0.0,0.013848438000000001,10.02,-40.56,-37.74
1554879496832,-8.724471000000001,0.76554596,3.9163153,-0.017044231,-0.00958738,0.024501082,9.96,-40.62,-37.68
1554879496852,-8.671799,0.97623575,3.7726634,0.05006743,-0.020240024,0.024501082,9.9,-40.62,-37.68
1554879496872,-8.863335000000001,1.1390414,3.9067385000000003,0.04580637,-0.020240024,0.0053263223,9.84,-40.68,-37.68
1554879496891,-8.767567,1.0145429,3.8971617,0.023435817999999997,-0.03089267,-0.014913702,9.72,-40.68,-37.68
1554879496913,-8.829816000000001,0.75596917,3.9785647000000006,-0.04474111,-0.03834952,-0.011717908999999999,9.66,-40.74,-37.68
1554879496931,-8.714894000000001,0.7751228,4.088698,-0.034088463,-0.039414786,0.018109497,9.6,-40.74,-37.68
1554879496952,-8.7771435,0.9091981,3.9594111000000005,0.014913702,-0.043675844000000005,0.023435817999999997,9.54,-40.8,-37.68
1554879496971,-8.75799,1.0480618,3.887585,0.039414786,-0.047936900000000005,0.010652645,9.54,-40.8,-37.68
1554879496991,-8.504205,1.1534066,3.9067385000000003,-0.004261058,-0.047936900000000005,0.002130529,9.42,-40.86,-37.74
1554879497011,-8.599973,1.0097545,3.9833531000000004,-0.034088463,-0.037284255,-0.01917476,9.36,-40.98,-37.74
1554879497031,-8.7771435,0.83737206,4.0503907,-0.023435817999999997,-0.024501082,-0.017044231,9.3,-41.22,-37.74
1554879497052,-8.801085,0.7080852,3.8349125,0.0,-0.020240024,-0.013848438000000001,9.3,-41.46,-37.8
1554879497071,-8.647857,0.8182184,4.0839095,0.035153727999999995,-0.02130529,-0.012783173500000002,9.24,-41.7,-37.8
1554879497091,-8.6574335,1.0145429,3.8492777,0.06924219,-0.018109497,-0.013848438000000001,9.18,-41.88,-37.86
1554879497111,-8.599973,0.95708215,3.7822402000000004,0.054328485999999995,-0.027696876000000002,-0.02876214,9.18,-42.18,-37.92
1554879497131,-8.815451,1.062427,3.8827964999999995,-0.0010652645,-0.035153727999999995,-0.04580637,9.12,-42.42,-37.98
1554879497152,-8.690952000000001,0.98102415,3.9641995000000003,-0.03089267,-0.05219796,-0.040480047000000005,9.12,-42.6,-38.04
1554879497171,-8.671799,1.0289081,4.040814,-0.02130529,-0.07776430000000001,-0.029827405,9.12,-42.78,-38.04
1554879497191,-8.686164,1.0097545,4.194042700000001,-0.015978966,-0.082025364,-0.03089267,9.12,-42.84,-38.1
1554879497211,-8.6574335,0.9187749,4.256292,0.025566347000000003,-0.08522116,-0.03195793,9.12,-42.9,-38.16
1554879497232,-8.647857,0.95708215,4.3281183,0.05006743,-0.08522116,-0.039414786,9.06,-42.9,-38.16
1554879497251,-8.532935,0.97623575,4.1413703,0.041545313,-0.10013486,-0.040480047000000005,9.06,-42.9,-38.16
1554879497271,-8.499416,0.9283517,3.9785647000000006,0.036218993,-0.09161274,-0.04474111,9.06,-42.9,-38.16
1554879497291,-8.6334915,1.0384849,3.9594111000000005,0.01917476,-0.082025364,-0.04474111,9.06,-42.84,-38.16
1554879497312,-8.604761,1.0049661,3.7056258,-0.017044231,-0.080960095,-0.05752428,9.06,-42.78,-38.16
1554879497331,-8.346188,0.8948328999999999,3.5859156000000003,-0.08628642,-0.07989483,-0.07563378,9.12,-42.66,-38.16
1554879497351,-8.542512,0.6937199000000001,3.9211037,-0.19174760000000002,-0.05539375,-0.08841695,9.18,-42.54,-38.16
1554879497371,-8.7053175,0.53091425,3.9689879999999995,-0.23968449999999997,-0.04474111,-0.12144015,9.24,-42.3,-38.16
1554879497392,-8.667010000000001,0.6745663000000001,4.040814,-0.16831179,-0.041545313,-0.12357068,9.3,-42.12,-38.16
1554879497411,-8.643068,0.85173726,3.9785647000000006,-0.12463594,-0.035153727999999995,-0.113983296,9.36,-41.88,-38.22
1554879497431,-8.801085,0.8948328999999999,4.1653123,-0.07882957,-0.024501082,-0.11717909,9.42,-41.7,-38.22
1554879497452,-8.767567,0.7846996,4.1557355000000005,-0.07563378,-0.024501082,-0.101200126,9.48,-41.52,-38.28
1554879497472,-8.762777999999999,0.64583594,4.1078515,-0.15978967,-0.024501082,-0.080960095,9.48,-41.34,-38.28
1554879497491,-8.954314,0.54049104,4.217984700000001,-0.17257284,-0.013848438000000001,-0.06924219,9.48,-41.22,-38.34
1554879497512,-8.786719999999999,0.5835866999999999,4.313753,-0.03089267,-0.025566347000000003,-0.06498113,9.48,-41.1,-38.34
1554879497531,-9.040505,0.047285482000000004,4.2658687,0.17044231,0.02130529,-0.07669904,9.48,-40.98,-38.4
1554879497552,-8.082825,1.2204443,5.94181,0.73290193,0.06391586,-0.2972088,9.48,-40.98,-38.46
1554879497572,-8.499416,1.1198878,4.466982,1.5030881,-0.080960095,-0.39947417,9.48,-40.92,-38.52
1554879497591,-8.240842,2.0775685,1.8477252,1.7459685,-0.330232,-0.58696073,9.48,-40.86,-38.58
1554879497612,-8.274361,1.3928268,2.3505075,0.82344943,-0.22903186,-0.40053943,9.54,-40.86,-38.52
1554879497632,-7.8673470000000005,0.49260699999999996,3.2698810000000003,-0.3057309,-0.20879184,-0.2790993,9.6,-40.86,-38.46
1554879497652,-8.710106,-0.5847838000000001,4.7542860000000005,-0.7105314,-0.17363810000000002,-0.28122982,9.72,-40.8,-38.34
1554879497672,-8.820239,-0.6805518,4.912303400000001,-0.44528055,-0.20240025,-0.22264028,9.84,-40.8,-38.16
1554879497692,-8.935161,0.10474633,4.5962687,0.19813919,-0.22264028,-0.29933932,10.08,-40.74,-37.98
1554879497711,-8.939949,0.5835866999999999,4.44304,0.39095205,-0.20985709,-0.23329292,10.26,-40.74,-37.8
1554879497731,-8.853758000000001,0.7799111999999999,4.347272,0.32277513,-0.17044231,-0.15659387,10.44,-40.74,-37.62
1554879497752,-8.801085,1.0001777,4.4286747,0.05965481,-0.1107875,-0.12570119999999999,10.62,-40.74,-37.44
1554879497772,-8.719683,0.8948328999999999,4.5483847,-0.13741912,-0.05539375,-0.10546118,10.74,-40.68,-37.32
1554879497791,-8.667010000000001,0.54049104,4.912303400000001,-0.18216023,-0.025566347000000003,-0.08522116,10.8,-40.68,-37.2
1554879497812,-8.561666,0.43514615,4.8787847,-0.07030745599999999,-0.013848438000000001,-0.10865697,10.8,-40.62,-37.2
1554879497831,-8.513782,0.47824179999999994,4.634576,0.05965481,-0.004261058,-0.12676647,10.74,-40.5,-37.2
1554879497851,-8.37013,0.45908818,4.2419267,0.13422333,-0.017044231,-0.1438107,10.62,-40.38,-37.2
1554879497872,-8.480263,0.46387658,4.103063,0.112918034,-0.007456851,-0.15233281,10.62,-40.26,-37.14
1554879497891,-8.595184,0.38726214,4.3329067000000006,0.02130529,-0.0053263223,-0.13102753,10.68,-40.14,-37.14
1554879497911,-8.418014,0.23403321,4.313753,-0.022370555,-0.034088463,-0.11717909,10.8,-40.02,-37.08
1554879497932,-8.494628,0.19572599,4.3281183,-0.033023197000000004,-0.035153727999999995,-0.12570119999999999,10.86,-39.84,-37.02
1554879497951,-8.250419,0.3824737,4.2131963,0.002130529,-0.05965481,-0.12783173,11.1,-39.78,-36.96
1554879497972,-8.327033,0.3681085,4.3999443,0.024501082,-0.058589544,-0.14168017,11.28,-39.66,-36.9
1554879497992,-8.350976,0.38726214,4.385579,0.02130529,-0.09267801,-0.15978967,11.4,-39.6,-36.84
1554879498012,-8.183380999999999,0.30585927,4.5100775,-0.008522116,-0.10865697,-0.19600865,11.58,-39.6,-36.84
1554879498031,-8.1402855,0.27712885,4.500500700000001,-0.013848438000000001,-0.11611383,-0.22370553,11.64,-39.54,-36.84
1554879498051,-8.212111,0.3298013,4.6297874000000006,0.03834952,-0.11717909,-0.24394555,11.7,-39.54,-36.84
1554879498071,-8.379706,0.08559271,4.696825,0.07137272,-0.098004326,-0.25353295,11.64,-39.54,-36.84
1554879498092,-8.456321,0.18614918,4.8165355000000005,0.060720075,-0.09054748,-0.27590349999999997,11.64,-39.42,-36.9
1554879498114,-8.212111,0.20051439,4.7255554,0.04580637,-0.10439592,-0.28229508,11.58,-39.3,-36.9
1554879498131,-8.317456,0.013766658999999999,4.859630999999999,0.06711166,-0.08948222,-0.2695119,11.58,-39.18,-36.96
1554879498152,-8.542512,-0.05327099,4.768651,0.12357068,-0.096939065,-0.27057716,11.58,-39.12,-36.96
1554879498171,-8.432379,0.013766658999999999,4.768651,0.18429075,-0.12570119999999999,-0.26312032,11.58,-39.0,-37.02
1554879498192,-8.456321,0.11432313,4.735132,0.2066613,-0.14274544,-0.25566345,11.76,-38.82,-37.02
1554879498213,-8.327033,0.05686229,4.8165355000000005,0.19068234,-0.16298546,-0.24927188,11.82,-38.76,-37.02
1554879498231,-8.327033,0.018555064,4.8404775,0.17789917,-0.18642128,-0.24820662,12.12,-38.64,-36.96
1554879498251,-8.374918,0.076015905,4.6393642,0.20240025,-0.22264028,-0.24820662,12.3,-38.58,-36.96
1554879498272,-8.350976,0.08559271,4.7303440000000005,0.21837921,-0.26205507,-0.24927188,12.48,-38.52,-36.9
1554879498291,-7.9822683,0.16220717,4.941033999999999,0.24927188,-0.33981937,-0.26418558,12.66,-38.52,-36.84
1554879498312,-7.8865004,0.076015905,4.969764,0.32170987,-0.41864893,-0.27590349999999997,12.84,-38.46,-36.78
1554879498331,-8.020576,-0.014963761,4.7542860000000005,0.36112466,-0.46765109999999993,-0.27803403,12.9,-38.4,-36.78
1554879498352,-7.963114699999999,-0.3645172,4.7016134,0.32597092,-0.49960902,-0.28122982,12.96,-38.34,-36.72
1554879498372,-7.785944000000001,-0.29269117,4.696825,0.25246766,-0.5294364,-0.32597092,12.9,-38.28,-36.72
1554879498393,-7.8386164,-0.24480712,5.0224366,0.15126756,-0.52837116,-0.32170987,12.84,-38.28,-36.72
1554879498412,-8.006210000000001,-0.35494040000000004,5.122993,0.08735169,-0.51026165,-0.29933932,12.78,-38.22,-36.72
1554879498431,-8.159439,-0.6278794,5.209184,0.014913702,-0.4889564,-0.32170987,12.78,-38.22,-36.72
1554879498451,-8.010999,-0.52253455,5.3815669999999995,-0.010652645,-0.48043427,-0.36432046,12.72,-38.16,-36.72
1554879498471,-7.891288799999999,-0.6183026,5.486912,0.0,-0.44954160000000004,-0.33449304,12.66,-38.16,-36.78
1554879498491,-8.0684595,-0.694917,5.3528366,0.024501082,-0.38242993,-0.28975195,12.6,-37.98,-36.78
1554879498512,-8.298303,-0.6997054,5.846042,0.0010652645,-0.314253,-0.28549087,12.6,-37.74,-36.84
1554879498531,-8.130709,-0.66618663,5.879561,-0.02130529,-0.27164245,-0.27164245,12.66,-37.5,-36.9
1554879498552,-7.905653999999999,-0.65660983,5.975329,-0.00958738,-0.21518342,-0.21411815,12.72,-37.26,-36.96
1554879498572,-7.776367,-0.57041854,5.9705405,0.037284255,-0.165116,-0.16192019,12.78,-37.02,-37.08
1554879498591,-7.7572136,-0.57999533,6.0040593,0.09054748,-0.128897,-0.112918034,12.84,-36.78,-37.08
1554879498611,-7.5561004,-0.43155485,6.1716533,0.09161274,-0.13315806,-0.08735169,12.9,-36.54,-37.14
1554879498632,-7.489063000000001,-0.3645172,5.8221,0.101200126,-0.15446335,-0.082025364,12.96,-36.3,-37.14
1554879498652,-7.225700999999999,-0.52253455,5.8987145,0.101200126,-0.18961707,-0.07456851,13.02,-36.18,-37.2
1554879498671,-7.0964136,-0.44113165,5.831677,0.11824436,-0.23329292,-0.08841695,13.08,-36.18,-37.2
1554879498691,-7.067683000000001,-0.23044191,5.8508306,0.14807177,-0.26312032,-0.10652645,13.08,-36.12,-37.2
1554879498712,-7.225700999999999,-0.38367084,5.798158,0.14168017,-0.29188246,-0.13635385,13.08,-36.12,-37.14
1554879498732,-7.0102224,-0.39324763,5.6880245,0.082025364,-0.31957933,-0.20879184,13.08,-36.12,-37.14
1554879498752,-6.9862804,-0.45549688,5.635351999999999,0.002130529,-0.34408042,-0.28655612,13.02,-36.12,-37.14
1554879498771,-6.895301,-0.55126494,5.9849057,-0.082025364,-0.35473305,-0.29614353,12.96,-36.12,-37.14
1554879498791,-7.273585000000001,-0.7858967,6.0663085,-0.082025364,-0.34194988,-0.2908172,12.96,-36.18,-37.14
1554879498812,-7.489063000000001,-0.8912416,6.205172,-0.099069595,-0.33768883,-0.31957933,12.96,-36.18,-37.14
1554879498831,-7.422025,-0.9487024,6.473323000000001,-0.07989483,-0.34514567,-0.35473305,13.02,-36.18,-37.14
1554879498852,-7.273585000000001,-0.95349085,6.6361284,-0.012783173500000002,-0.33555830000000003,-0.3568636,13.08,-36.12,-37.26
1554879498872,-7.3214690000000004,-0.75716627,6.7893577,0.07669904,-0.28442562,-0.314253,13.14,-36.06,-37.5
1554879498892,-7.3789296,-0.65660983,6.554725599999999,0.112918034,-0.24714136,-0.28549087,13.26,-36.0,-37.68
1554879498912,-7.4124484,-0.7044938000000001,6.583456,0.07030745599999999,-0.2130529,-0.28122982,13.32,-35.88,-37.92
1554879498931,-7.4268136,-0.84335756,6.612186400000001,-0.010652645,-0.18322548,-0.28122982,13.44,-35.76,-38.1
1554879498951,-7.2927384,-1.0061632,6.731896400000001,-0.06178534,-0.14274544,-0.257794,13.5,-35.58,-38.34
1554879498972,-7.2592196,-1.0779893,6.7989345000000005,-0.025566347000000003,-0.10439592,-0.23116238,13.56,-35.4,-38.52
1554879498992,-7.2209125,-1.1115081,6.564302400000001,0.049002163,-0.07137272,-0.18642128,13.5,-35.16,-38.7
1554879499011,-7.225700999999999,-1.1976993999999999,6.4206505,0.09161274,-0.043675844000000005,-0.16831179,13.5,-34.92,-38.76
1554879499031,-7.278373200000001,-1.0923545000000001,6.3488245,0.06924219,-0.035153727999999995,-0.17470337,13.5,-34.62,-38.7
1554879499052,-7.086836999999999,-1.1593921,6.2530565000000005,0.03089267,-0.018109497,-0.1470065,13.56,-34.38,-38.7
1554879499072,-7.120356,-1.1402385,6.3871317,0.0,-0.004261058,-0.10546118,13.56,-34.14,-38.7
1554879499092,-7.0245875999999985,-1.1498153,6.4781113,0.035153727999999995,-0.0031957934000000003,-0.10013486,13.62,-33.78,-38.64
1554879499112,-7.177817,-1.1306617,6.305729,0.05965481,-0.0031957934000000003,-0.09587380000000001,13.68,-33.54,-38.64
1554879499132,-7.077260000000001,-1.073201,6.2626333,0.02876214,0.0010652645,-0.08735169,13.68,-33.42,-38.64
1554879499152,-7.067683000000001,-1.1737574,6.4062852999999995,-0.0053263223,-0.002130529,-0.07989483,13.74,-33.36,-38.64
1554879499171,-7.0485296,-1.1785458,6.4828997,-0.026631612000000002,-0.007456851,-0.053263225,13.74,-33.24,-38.64
1554879499191,-7.134721300000001,-1.2120646000000002,6.5212069999999995,-0.026631612000000002,0.0010652645,-0.03195793,13.74,-33.24,-38.64
1554879499212,-6.9719152,-1.1354501000000001,6.578667599999999,-0.015978966,-0.004261058,-0.03195793,13.74,-33.18,-38.64
1554879499231,-6.9383965,-1.1881226,6.5212069999999995,0.0,-0.004261058,-0.029827405,13.74,-33.24,-38.64
1554879499251,-6.9862804,-1.1737574,6.4398040000000005,-0.002130529,0.008522116,-0.015978966,13.74,-33.24,-38.58
1554879499272,-6.95755,-1.1881226,6.559514,-0.02876214,0.00958738,-0.002130529,13.8,-33.24,-38.58
1554879499292,-6.8905125,-1.1306617,6.559514,-0.040480047000000005,0.011717908999999999,0.00958738,13.8,-33.3,-38.52
1554879499311,-6.9048777,-1.1546037,6.415862000000001,-0.041545313,0.017044231,0.011717908999999999,13.86,-33.3,-38.46
1554879499331,-6.885724000000001,-1.2982559,6.415862000000001,-0.02876214,0.017044231,-0.002130529,13.92,-33.36,-38.46
1554879499352,-6.8761472999999995,-1.0779893,6.2769985,-0.010652645,0.02876214,-0.020240024,13.92,-33.42,-38.4
1554879499371,-6.847417,-1.1833341999999998,6.3344593,-0.010652645,0.033023197000000004,-0.036218993,13.92,-33.42,-38.34
1554879499391,-6.823475,-1.073201,6.367978,-0.013848438000000001,0.036218993,-0.04580637,13.92,-33.48,-38.28
1554879499412,-6.8665705,-1.192911,6.4685345000000005,-0.025566347000000003,0.043675844000000005,-0.039414786,13.92,-33.48,-38.22
1554879499431,-6.9048777,-1.0779893,6.458957700000001,-0.035153727999999995,0.03195793,-0.040480047000000005,13.98,-33.42,-38.22
1554879499451,-6.895301,-1.2120646000000002,6.4637459999999995,-0.05219796,0.011717908999999999,-0.051132694000000006,13.98,-33.42,-38.16
1554879499471,-6.895301,-1.1976993999999999,6.27221,-0.05752428,-0.0010652645,-0.05219796,13.92,-33.42,-38.22
1554879499492,-6.943185000000001,-1.1881226,6.559514,-0.056459017,-0.015978966,-0.047936900000000005,13.92,-33.36,-38.22
1554879499512,-6.933608,-1.2072762,6.664859,-0.02130529,-0.024501082,-0.043675844000000005,13.86,-33.36,-38.28
1554879499531,-7.086836999999999,-1.216853,6.5738792,0.034088463,-0.024501082,-0.04580637,13.86,-33.3,-38.34
1554879499551,-6.900089299999999,-1.1306617,6.4206505,0.06604639400000001,-0.022370555,-0.05219796,13.8,-33.3,-38.4
1554879499572,-7.0245875999999985,-1.0684125,6.415862000000001,0.06711166,-0.010652645,-0.060720075,13.8,-33.3,-38.46
1554879499592,-6.9767036,-1.049259,6.645705,0.06178534,-0.0031957934000000003,-0.05965481,13.8,-33.3,-38.46
1554879499612,-6.9383965,-1.1306617,6.545148999999999,0.05219796,0.00958738,-0.05539375,13.8,-33.3,-38.52
1554879499631,-6.991069,-1.1689690000000001,6.3871317,0.04580637,0.027696876000000002,-0.06285059999999999,13.86,-33.24,-38.52
1554879499652,-7.0485296,-1.1354501000000001,6.4398040000000005,0.03089267,0.029827405,-0.058589544,13.92,-33.18,-38.52
1554879499672,-7.029375999999999,-1.3126211,6.4302273,0.026631612000000002,0.033023197000000004,-0.049002163,13.98,-33.06,-38.52
1554879499692,-6.9096660000000005,-1.3269863000000002,6.4302273,0.049002163,0.029827405,-0.040480047000000005,14.04,-32.94,-38.46
1554879499712,-6.981492,-1.1546037,6.4302273,0.1107875,0.026631612000000002,-0.05219796,14.1,-32.88,-38.4
1554879499732,-6.8522053,-1.2072762,6.238691,0.14807177,0.01917476,-0.060720075,14.1,-32.82,-38.34
1554879499752,-7.0341644,-1.1067197,6.305729,0.12570119999999999,0.012783173500000002,-0.07989483,14.16,-32.76,-38.22
1554879499772,-6.9144545,-1.2360066,6.3153057,0.083090626,-0.004261058,-0.080960095,14.16,-32.76,-38.16
1554879499792,-6.9719152,-1.2360066,6.4398040000000005,0.07243799,-0.022370555,-0.06924219,14.16,-32.7,-38.1
1554879499812,-6.9383965,-1.264737,6.5307837,0.08948222,-0.043675844000000005,-0.07456851,14.16,-32.76,-38.04
1554879499833,-7.038953,-1.1833341999999998,6.3153057,0.10226539,-0.06711166,-0.07989483,14.16,-32.88,-37.98
1554879499852,-6.9527617,-1.2216414,6.3871317,0.083090626,-0.07776430000000001,-0.07669904,14.16,-32.88,-37.98
1554879499872,-6.9383965,-1.1833341999999998,6.4350157,0.06391586,-0.07776430000000001,-0.06711166,14.16,-32.94,-37.86
1554879499892,-6.947973299999999,-1.2360066,6.5403605,0.07563378,-0.07563378,-0.05219796,14.22,-33.06,-37.8
1554879499912,-6.919242999999999,-1.1402385,6.51163,0.12250541,-0.06604639400000001,-0.05965481,14.28,-33.06,-37.74
1554879499932,-6.9288197,-1.2120646000000002,6.583456,0.14061491,-0.05539375,-0.07030745599999999,14.34,-33.06,-37.68
1554879499951,-6.9719152,-1.2551602,6.2243257000000005,0.12783173,-0.03834952,-0.08948222,14.4,-33.12,-37.56
1554879499972,-6.9527617,-1.3030443,6.449381,0.096939065,-0.00958738,-0.099069595,14.4,-33.12,-37.56
1554879499991,-6.8905125,-1.1641805,6.39192,0.083090626,0.00958738,-0.101200126,14.46,-33.12,-37.56
1554879500012,-6.8905125,-1.1689690000000001,6.4398040000000005,0.10439592,0.03834952,-0.10972224,14.52,-33.12,-37.62
1554879500034,-6.9623384,-1.2312181999999998,6.4541693,0.12570119999999999,0.07030745599999999,-0.12037488,14.52,-33.18,-37.62
1554879500051,-6.9383965,-1.3221979,6.4685345000000005,0.11504856,0.08628642,-0.128897,14.52,-33.18,-37.68
1554879500072,-6.8905125,-1.2503718000000001,6.3823433,0.10546118,0.09374327,-0.13209279,14.52,-33.18,-37.74
1554879500091,-6.8905125,-1.240795,6.4062852999999995,0.113983296,0.10439592,-0.12570119999999999,14.52,-33.24,-37.74
1554879500112,-7.0006455999999995,-1.2982559,6.545148999999999,0.13315806,0.11824436,-0.12250541,14.52,-33.18,-37.74
1554879500132,-7.043741000000001,-1.2551602,6.554725599999999,0.14807177,0.12357068,-0.12783173,14.58,-33.18,-37.68
1554879500152,-6.981492,-1.2120646000000002,6.4637459999999995,0.13635385,0.11717909,-0.13315806,14.58,-33.12,-37.62
1554879500171,-7.038953,-1.2455834,6.3009405,0.11504856,0.12676647,-0.12463594,14.58,-33.06,-37.56
1554879500191,-6.9671270000000005,-1.2934675,6.401497,0.10865697,0.11504856,-0.11717909,14.58,-32.94,-37.5
1554879500212,-7.125144500000001,-1.3221979,6.3823433,0.15126756,0.09161274,-0.11717909,14.64,-32.88,-37.38
1554879500232,-7.086836999999999,-1.2695253999999998,6.4062852999999995,0.18322548,0.068176925,-0.12357068,14.64,-32.82,-37.26
1554879500251,-7.134721300000001,-1.1976993999999999,6.2339025,0.19281286,0.043675844000000005,-0.14061491,14.64,-32.7,-37.02
1554879500271,-7.0341644,-1.2264298,6.2195373,0.18322548,0.04580637,-0.14274544,14.7,-32.64,-36.84
1554879500291,-7.1873937,-1.0157399999999999,6.071097,0.165116,0.05539375,-0.14168017,14.7,-32.58,-36.72
1554879500312,-7.201759,-1.0636241000000002,6.1381345000000005,0.11611383,0.06498113,-0.13528858,14.7,-32.58,-36.54
1554879500332,-7.254431200000001,-1.1976993999999999,6.1237693,0.09161274,0.068176925,-0.14487597,14.7,-32.52,-36.42
1554879500351,-7.1873937,-1.1833341999999998,5.975329,0.09587380000000001,0.06178534,-0.15765914,14.76,-32.52,-36.24
1554879500371,-7.1634517,-1.1402385,6.071097,0.12570119999999999,0.054328485999999995,-0.16724652,14.76,-32.52,-36.06
1554879500392,-7.1730285,-1.264737,5.869984,0.12357068,0.04261058,-0.17789917,14.82,-32.52,-35.82
1554879500412,-7.1969705,-1.2264298,5.9322333,0.07563378,0.03195793,-0.18855181,14.88,-32.46,-35.76
1554879500431,-7.249642999999999,-1.1546037,5.951387,0.0,0.014913702,-0.18216023,15.06,-32.46,-35.64
1554879500451,-7.1490865,-1.2982559,5.9226565,-0.04261058,-0.0010652645,-0.15552860000000002,15.24,-32.46,-35.58
1554879500472,-6.981492,-1.2216414,6.3488245,-0.033023197000000004,-0.02130529,-0.13528858,15.48,-32.46,-35.46
1554879500492,-6.895301,-1.1258733,6.329671,0.020240024,-0.03089267,-0.128897,15.66,-32.4,-35.34
1554879500512,-6.885724000000001,-1.1306617,6.305729,0.046871635999999994,-0.051132694000000006,-0.13741912,15.84,-32.28,-35.22
1554879500532,-6.9288197,-1.0348936,6.2243257000000005,0.035153727999999995,-0.07563378,-0.165116,16.02,-32.22,-35.16
1554879500551,-6.8091097000000005,-0.9295488000000001,6.4685345000000005,-0.03195793,-0.10226539,-0.18216023,16.2,-32.16,-35.16
1554879500572,-6.670246000000001,-0.98222125,6.6983776,-0.09267801,-0.12570119999999999,-0.18535602,16.32,-32.04,-35.16
1554879500591,-6.679823,-1.0923545000000001,6.602609599999999,-0.10333065,-0.13315806,-0.18642128,16.38,-31.98,-35.16
1554879500611,-6.5984197,-1.2072762,6.995259,-0.049002163,-0.14487597,-0.17363810000000002,16.38,-31.92,-35.16
1554879500632,-6.5601125,-1.1833341999999998,7.1724296,0.04474111,-0.14594123,-0.16937704,16.38,-31.86,-35.22
1554879500652,-6.4643445,-1.1498153,7.043143,0.10333065,-0.13422333,-0.17470337,16.32,-31.8,-35.28
1554879500672,-6.517017,-0.99179804,6.755839,0.111852765,-0.11824436,-0.18748654,16.32,-31.74,-35.34
1554879500691,-6.6415157,-0.7763199000000001,6.688801,0.05219796,-0.10226539,-0.19281286,16.32,-31.74,-35.4
1554879500712,-6.8186865,-0.7763199000000001,6.712743,-0.03195793,-0.10439592,-0.20772657,16.32,-31.68,-35.52
1554879500732,-6.924031299999999,-0.75716627,6.827665,-0.096939065,-0.09267801,-0.19813919,16.38,-31.62,-35.52
1554879500751,-7.0245875999999985,-0.98700964,6.9904703999999995,-0.10013486,-0.099069595,-0.18109496,16.38,-31.56,-35.52
1554879500771,-6.9527617,-1.1402385,7.033566,-0.02130529,-0.10865697,-0.1768339,16.44,-31.44,-35.52
1554879500792,-7.0341644,-0.96306765,7.1963716,0.10652645,-0.099069595,-0.13954964,16.56,-31.14,-35.52
1554879500811,-7.0485296,-1.0348936,7.129334,0.15978967,-0.08522116,-0.09054748,16.62,-31.02,-35.46
1554879500832,-6.8905125,-0.9391255999999999,7.043143,0.16405073,-0.068176925,-0.05219796,16.68,-30.84,-35.46
1554879500852,-6.7229185,-0.83856916,7.043143,0.10972224,-0.058589544,-0.05219796,16.68,-30.72,-35.46
1554879500871,-6.631939,-0.75237787,6.9425864,0.07137272,-0.03089267,-0.03834952,16.74,-30.54,-35.4
1554879500892,-6.708553299999999,-0.8912416,7.0527196,0.05006743,-0.020240024,0.002130529,16.86,-30.42,-35.4
1554879500911,-6.6893997,-0.99658644,7.023989,0.07563378,-0.017044231,0.011717908999999999,16.92,-30.3,-35.4
1554879500931,-6.564901,-1.1689690000000001,7.019201,0.11717909,-0.011717908999999999,0.007456851,17.04,-30.3,-35.4
1554879500952,-6.555324000000001,-1.1785458,6.765415700000001,0.13954964,-0.0010652645,0.008522116,17.16,-30.36,-35.4
1554879500973,-6.50744,-1.1258733,6.707954400000001,0.13954964,0.010652645,0.004261058,17.22,-30.3,-35.4
1554879500992,-6.593631299999999,-1.1258733,6.578667599999999,0.10546118,0.03195793,0.00958738,17.28,-30.3,-35.4
1554879501011,-6.5361705,-1.2216414,6.765415700000001,0.058589544,0.051132694000000006,0.03195793,17.34,-30.3,-35.4
1554879501031,-6.5792660000000005,-1.4466964,6.6744356,0.027696876000000002,0.05965481,0.033023197000000004,17.4,-30.3,-35.4
1554879501052,-6.617573299999999,-1.5472529,6.7606273,0.0063915867,0.05219796,0.02876214,17.4,-30.3,-35.34
1554879501071,-6.50744,-1.5759833,6.741472999999999,0.0063915867,0.04474111,0.026631612000000002,17.4,-30.24,-35.34
1554879501091,-6.483498,-1.6956933999999997,6.712743,0.0,0.026631612000000002,0.013848438000000001,17.28,-30.24,-35.34
1554879501112,-6.564901,-1.5568296999999998,6.612186400000001,-0.0010652645,0.034088463,0.020240024,17.22,-30.24,-35.28
1554879501131,-6.555324000000001,-1.5616181,6.1668650000000005,-0.022370555,0.03089267,0.029827405,17.16,-30.24,-35.28
1554879501151,-6.5457472999999995,-1.4993688,6.257845,-0.07243799,0.03195793,0.018109497,17.04,-30.18,-35.28
1554879501172,-6.50744,-1.513734,6.2339025,-0.11930962,0.025566347000000003,0.013848438000000001,16.98,-30.18,-35.28
1554879501192,-6.4404025,-1.5711948999999998,6.214748999999999,-0.11611383,0.025566347000000003,-0.020240024,16.92,-30.18,-35.28
1554879501211,-6.5984197,-1.6238673000000001,6.291363700000001,-0.10546118,0.037284255,-0.06924219,16.86,-30.24,-35.28
1554879501231,-6.6367273,-1.6095021,6.3344593,-0.113983296,0.04261058,-0.098004326,16.86,-30.24,-35.34
1554879501252,-6.679823,-1.5759833,6.2195373,-0.11824436,0.029827405,-0.12676647,16.86,-30.3,-35.34
1554879501272,-6.7612257,-1.6621746,6.3344593,-0.12783173,0.026631612000000002,-0.13315806,16.86,-30.36,-35.34
1554879501292,-6.823475,-1.8584990000000001,6.39192,-0.11611383,0.01917476,-0.12996227,16.92,-30.36,-35.34
1554879501312,-6.766014,-1.9207484000000001,6.449381,-0.08628642,-0.0031957934000000003,-0.14594123,16.98,-30.42,-35.34
1554879501332,-6.837839999999999,-1.8680758000000002,6.401497,-0.046871635999999994,-0.002130529,-0.16192019,17.04,-30.42,-35.34
1554879501354,-6.8665705,-1.8728642,6.502053299999999,-0.012783173500000002,0.011717908999999999,-0.1587244,17.1,-30.42,-35.28
1554879501373,-6.7277070000000005,-1.9734207,6.4541693,-0.0010652645,0.03195793,-0.15552860000000002,17.16,-30.42,-35.28
1554879501393,-6.813898,-1.8537107,6.502053299999999,0.0,0.06924219,-0.16298546,17.22,-30.42,-35.28
1554879501412,-6.885724000000001,-1.9303252,6.3105173,0.0063915867,0.09587380000000001,-0.17044231,17.28,-30.3,-35.28
1554879501432,-7.0485296,-1.8968061999999999,6.3823433,0.01917476,0.12144015,-0.18961707,17.34,-30.18,-35.22
1554879501452,-6.9958572,-1.9925743000000002,6.157287999999999,0.010652645,0.13209279,-0.18961707,17.34,-30.06,-35.22
1554879501472,-7.1395097000000005,-1.9255368000000002,6.0184245,-0.020240024,0.13528858,-0.18322548,17.4,-29.88,-35.16
1554879501492,-7.0820484,-1.9877859,6.1764417,-0.068176925,0.12250541,-0.17150758,17.46,-29.7,-35.16
1554879501512,-7.240066000000001,-2.1601684,6.214748999999999,-0.05539375,0.12037488,-0.13741912,17.52,-29.52,-35.16
1554879501532,-7.2592196,-2.1841104,6.4781113,0.0,0.098004326,-0.101200126,17.52,-29.34,-35.1
1554879501551,-7.019799000000001,-2.3229742,6.4781113,0.07350325,0.07030745599999999,-0.07776430000000001,17.58,-29.16,-35.04
1554879501571,-6.9671270000000005,-2.2511482000000003,6.554725599999999,0.13954964,0.060720075,-0.07563378,17.64,-28.98,-35.04
1554879501591,-6.8330517,-2.1266496,6.3344593,0.1587244,0.083090626,-0.05006743,17.7,-28.8,-34.98
1554879501611,-6.9623384,-1.9111716,6.1333459999999995,0.13528858,0.128897,-0.029827405,17.76,-28.56,-34.86
1554879501632,-6.9767036,-1.8728642,6.3823433,0.08735169,0.14168017,-0.02130529,17.82,-28.44,-34.8
1554879501652,-7.0341644,-1.8154035,6.1381345000000005,0.060720075,0.14274544,-0.03089267,17.88,-28.38,-34.68
1554879501672,-7.0102224,-1.8680758000000002,6.1716533,0.07882957,0.13635385,-0.04261058,18.0,-28.26,-34.62
1554879501692,-6.9719152,-1.7770962,6.2817870000000005,0.12676647,0.12996227,-0.049002163,18.06,-28.2,-34.44
1554879501711,-7.0581064,-1.6669630000000002,6.1955953,0.14168017,0.10865697,-0.07243799,18.12,-28.2,-34.26
1554879501733,-7.192182000000001,-1.6909049999999999,6.071097,0.12144015,0.08948222,-0.082025364,18.18,-28.2,-34.14
1554879501752,-7.1969705,-1.7052702000000002,5.999271,0.10333065,0.060720075,-0.06711166,18.24,-28.26,-33.96
1554879501772,-7.1586633,-1.7483658,5.994482499999999,0.08522116,0.04474111,-0.046871635999999994,18.24,-28.32,-33.78
1554879501793,-7.1826053,-1.6909049999999999,6.071097,0.08735169,0.017044231,-0.036218993,18.24,-28.38,-33.66
1554879501811,-7.1634517,-1.6621746,6.0519433,0.094808534,0.0010652645,-0.03089267,18.24,-28.44,-33.48
1554879501831,-7.2448545,-1.6956933999999997,6.0806737,0.09374327,-0.002130529,-0.015978966,18.3,-28.5,-33.36
1554879501852,-7.134721300000001,-1.9015948,6.2769985,0.08841695,-0.014913702,0.002130529,18.36,-28.5,-33.3
1554879501872,-7.0964136,-1.8776526000000002,6.267421700000001,0.10226539,-0.0053263223,0.007456851,18.42,-28.56,-33.24
1554879501891,-7.125144500000001,-1.8584990000000001,6.329671,0.11930962,0.02130529,0.014913702,18.54,-28.56,-33.24
1554879501912,-7.015011,-1.8010383,6.3009405,0.12996227,0.039414786,0.027696876000000002,18.6,-28.62,-33.24
1554879501931,-6.8905125,-1.6286557,6.3631897,0.128897,0.054328485999999995,0.039414786,18.72,-28.62,-33.3
1554879501952,-6.828263300000001,-1.6813281999999998,6.0327897,0.13741912,0.07243799,0.05539375,18.78,-28.68,-33.36
1554879501972,-6.9288197,-1.4993688,6.205172,0.14807177,0.07669904,0.07456851,18.78,-28.68,-33.42
1554879501991,-6.847417,-1.4083891000000002,6.2626333,0.14913702,0.058589544,0.07243799,18.78,-28.68,-33.48
1554879502012,-6.8091097000000005,-1.3509283,6.06152,0.16192019,0.049002163,0.06924219,18.78,-28.74,-33.48
1554879502031,-6.8569937,-1.264737,6.0040593,0.16618125,0.04580637,0.06711166,18.72,-28.86,-33.48
1554879502051,-6.9719152,-1.1354501000000001,5.994482499999999,0.15126756,0.03195793,0.056459017,18.66,-28.92,-33.42
1554879502071,-6.9958572,-1.264737,6.0758852999999995,0.111852765,0.024501082,0.04474111,18.54,-28.98,-33.36
1554879502091,-7.067683000000001,-1.2886791000000002,6.291363700000001,0.07776430000000001,0.013848438000000001,0.02876214,18.48,-29.16,-33.18
1554879502111,-7.1395097000000005,-1.2886791000000002,6.06152,0.05752428,0.00958738,0.022370555,18.42,-29.28,-33.06
1554879502131,-7.311891999999999,-1.3269863000000002,6.2243257000000005,0.039414786,-0.004261058,0.013848438000000001,18.36,-29.52,-32.88
1554879502151,-7.3549875999999985,-1.2455834,6.377555,0.017044231,-0.03089267,0.0,18.36,-29.76,-32.76
1554879502171,-7.4699089999999995,-1.1737574,6.612186400000001,-0.00958738,-0.037284255,0.004261058,18.24,-29.94,-32.64
1554879502192,-7.5704656,-1.1354501000000001,6.640917,-0.022370555,-0.027696876000000002,0.018109497,18.12,-30.18,-32.52
1554879502211,-7.714117999999999,-1.0923545000000001,6.669647,-0.024501082,-0.02130529,0.03834952,18.06,-30.36,-32.52
1554879502232,-7.517792999999999,-1.1593921,6.818088,0.017044231,-0.013848438000000001,0.06285059999999999,18.0,-30.54,-32.46
1554879502252,-7.369353,-1.0971429,6.7223196,0.06924219,0.018109497,0.083090626,17.94,-30.66,-32.46
1554879502272,-7.2448545,-0.76195467,6.6744356,0.09587380000000001,0.05752428,0.10865697,17.88,-30.78,-32.4
1554879502293,-7.249642999999999,-0.6183026,6.51163,0.07882957,0.09267801,0.12463594,17.88,-30.84,-32.34
1554879502311,-7.2592196,-0.6087258000000001,6.3392477,0.049002163,0.12037488,0.13954964,17.82,-30.84,-32.28
1554879502331,-7.398083,-0.54168814,6.2626333,0.02130529,0.13209279,0.14807177,17.82,-30.84,-32.22
1554879502351,-7.422025,-0.53211135,6.023213,-0.008522116,0.111852765,0.13848437,17.88,-30.84,-32.22
1554879502371,-7.5608889999999995,-0.4890157,6.114192500000001,-0.033023197000000004,0.082025364,0.12463594,17.88,-30.84,-32.22
1554879502392,-7.3214690000000004,-0.54647654,5.8651957999999995,-0.07030745599999999,0.046871635999999994,0.12144015,17.88,-30.84,-32.22
1554879502411,-7.3166804,-0.6087258000000001,5.879561,-0.09161274,0.02876214,0.13102753,17.82,-30.84,-32.22
1554879502432,-7.2209125,-0.7380127,5.644929,-0.094808534,0.023435817999999997,0.128897,17.82,-30.9,-32.28
1554879502451,-7.359775999999999,-0.97743285,5.8747725,-0.08522116,0.020240024,0.099069595,17.76,-30.9,-32.34
1554879502471,-7.2352777,-1.1258733,5.8412538,-0.07243799,0.010652645,0.043675844000000005,17.7,-30.9,-32.4
1554879502492,-7.134721300000001,-1.2455834,5.960963700000001,-0.049002163,0.012783173500000002,-0.0010652645,17.7,-30.9,-32.46
1554879502511,-7.038953,-1.264737,5.9801173,-0.007456851,0.04580637,-0.040480047000000005,17.7,-30.9,-32.52
1554879502531,-7.0964136,-1.2551602,6.1716533,0.0053263223,0.06924219,-0.056459017,17.64,-30.9,-32.52
1554879502551,-7.053317999999999,-1.0253168,6.2003837,-0.012783173500000002,0.099069595,-0.06498113,17.64,-30.9,-32.52
1554879502572,-7.153875,-0.8912416,6.18123,-0.049002163,0.12250541,-0.06711166,17.64,-30.9,-32.52
1554879502591,-7.383717999999999,-0.84814596,6.157287999999999,-0.082025364,0.14274544,-0.05965481,17.64,-30.9,-32.58
1554879502612,-7.4842744,-0.9295488000000001,6.118981,-0.084155895,0.10546118,-0.060720075,17.64,-30.9,-32.58
1554879502631,-7.4746976,-0.8912416,6.1381345000000005,-0.040480047000000005,0.06604639400000001,-0.060720075,17.64,-30.9,-32.58
1554879502651,-7.4363904000000005,-0.87208796,6.0806737,0.040480047000000005,0.01917476,-0.04474111,17.64,-30.9,-32.52
1554879502671,-7.4268136,-0.8098387,6.0423665,0.11504856,-0.012783173500000002,-0.040480047000000005,17.64,-30.96,-32.52
1554879502692,-7.517792999999999,-0.7954735,6.1094040000000005,0.14168017,-0.03195793,-0.03089267,17.64,-30.96,-32.52
1554879502712,-7.445967,-0.83378077,6.06152,0.11611383,-0.05006743,-0.012783173500000002,17.64,-30.96,-32.52
1554879502731,-7.4124484,-0.87687635,6.1094040000000005,0.07989483,-0.06178534,-0.011717908999999999,17.64,-30.96,-32.46
1554879502752,-7.2831616,-0.99179804,5.893926,0.058589544,-0.07243799,-0.014913702,17.64,-31.02,-32.46
1554879502771,-7.311891999999999,-1.0109516,5.831677,0.039414786,-0.06178534,-0.0053263223,17.64,-31.02,-32.4
1554879502792,-7.4028716,-0.9295488000000001,5.917868,-0.0063915867,-0.06604639400000001,-0.0010652645,17.64,-31.08,-32.4
1554879502812,-7.326257000000001,-0.88645315,6.0998273,-0.035153727999999995,-0.08522116,0.0,17.58,-31.14,-32.4
1554879502831,-7.302314999999999,-0.99179804,6.114192500000001,-0.0053263223,-0.09054748,0.004261058,17.58,-31.2,-32.4
1554879502851,-7.240066000000001,-0.9487024,6.0327897,0.05006743,-0.09587380000000001,0.002130529,17.58,-31.26,-32.4
1554879502871,-7.417236999999999,-0.8242039000000001,5.879561,0.07669904,-0.07882957,-0.014913702,17.58,-31.32,-32.4
1554879502892,-7.383717999999999,-0.6997054,5.802946599999999,0.011717908999999999,-0.06604639400000001,-0.014913702,17.58,-31.44,-32.4
1554879502911,-7.489063000000001,-0.7428011,6.0423665,-0.084155895,-0.058589544,-0.014913702,17.58,-31.5,-32.46
1554879502931,-7.479486,-0.88166475,6.118981,-0.12144015,-0.060720075,0.0,17.58,-31.56,-32.46
1554879502951,-7.393294999999999,-0.84335756,6.071097,-0.09267801,-0.05539375,0.015978966,17.58,-31.62,-32.46
1554879502972,-7.3885064,-0.9343372,6.128557700000001,-0.02876214,-0.060720075,0.012783173500000002,17.52,-31.68,-32.52
1554879502992,-7.3789296,-0.8960299999999999,6.1094040000000005,-0.010652645,-0.060720075,0.010652645,17.52,-31.74,-32.52
1554879503011,-7.273585000000001,-0.8912416,6.095039,-0.018109497,-0.05965481,0.014913702,17.52,-31.68,-32.52
1554879503031,-7.273585000000001,-0.98222125,6.329671,-0.034088463,-0.054328485999999995,0.02130529,17.52,-31.62,-32.58
1554879503052,-7.2975270000000005,-1.0205284,6.2003837,-0.046871635999999994,-0.05006743,0.03195793,17.46,-31.56,-32.64
1554879503072,-7.3214690000000004,-1.0157399999999999,6.1333459999999995,-0.05539375,-0.04261058,0.027696876000000002,17.46,-31.5,-32.7
1554879503092,-7.268796400000001,-1.0253168,6.0998273,-0.04474111,-0.037284255,0.026631612000000002,17.4,-31.44,-32.76
1554879503111,-7.3406224,-0.84335756,6.0519433,-0.041545313,-0.024501082,0.03089267,17.34,-31.44,-32.82
1554879503132,-7.192182000000001,-1.0061632,6.1046157,-0.051132694000000006,-0.020240024,0.03089267,17.28,-31.44,-32.88
1554879503151,-7.177817,-0.99179804,6.1716533,-0.05539375,-0.012783173500000002,0.01917476,17.28,-31.5,-32.94
1554879503171,-7.1634517,-1.0253168,6.1333459999999995,-0.02130529,-0.007456851,0.007456851,17.22,-31.62,-32.94
1554879503192,-7.0102224,-0.99658644,6.257845,0.02130529,0.0031957934000000003,0.0,17.16,-31.74,-33.0
1554879503211,-7.0724716,-0.99658644,6.186018499999999,0.043675844000000005,0.02130529,-0.007456851,17.1,-31.8,-33.0
1554879503231,-6.9719152,-0.9295488000000001,6.0184245,0.037284255,0.034088463,-0.01917476,17.1,-31.92,-33.06
1554879503252,-7.062895,-0.8960299999999999,6.2243257000000005,0.011717908999999999,0.043675844000000005,-0.040480047000000005,17.1,-31.98,-33.06
1554879503272,-7.0820484,-0.88645315,6.0088477,-0.020240024,0.049002163,-0.06285059999999999,17.1,-31.98,-33.06
1554879503292,-7.2592196,-0.9008184000000001,6.1620764999999995,-0.020240024,0.047936900000000005,-0.09374327,17.1,-31.92,-33.06
1554879503311,-7.2448545,-1.0348936,6.114192500000001,0.00958738,0.039414786,-0.12250541,17.16,-31.92,-33.06
1554879503331,-7.254431200000001,-0.9487024,6.1477113,0.023435817999999997,0.026631612000000002,-0.14168017,17.16,-31.86,-33.06
1554879503352,-7.249642999999999,-1.0348936,6.0567317,0.017044231,0.020240024,-0.14807177,17.16,-31.8,-33.0
1554879503372,-7.2927384,-1.0636241000000002,6.2099605,0.0053263223,0.0010652645,-0.15552860000000002,17.16,-31.74,-33.0
1554879503392,-7.168239999999999,-1.1785458,5.8891377,0.020240024,-0.026631612000000002,-0.17257284,17.16,-31.68,-33.0
1554879503413,-7.1826053,-1.2312181999999998,6.047155,0.04261058,-0.02876214,-0.16405073,17.16,-31.62,-33.0
1554879503432,-7.240066000000001,-1.1258733,6.118981,0.047936900000000005,-0.029827405,-0.15126756,17.16,-31.56,-33.0
1554879503452,-7.2975270000000005,-1.2120646000000002,6.329671,0.03834952,-0.024501082,-0.14487597,17.16,-31.44,-32.88
1554879503471,-7.3310455999999995,-1.2455834,6.2195373,0.035153727999999995,-0.025566347000000003,-0.13635385,17.16,-31.32,-32.82
1554879503491,-7.3071036,-1.2072762,6.2243257000000005,0.039414786,-0.018109497,-0.12357068,17.16,-31.26,-32.76
1554879503511,-7.4268136,-0.99179804,6.3344593,0.053263225,-0.022370555,-0.09267801,17.22,-31.14,-32.7
1554879503532,-7.311891999999999,-1.0348936,6.1381345000000005,0.054328485999999995,-0.035153727999999995,-0.06498113,17.22,-31.02,-32.7
1554879503551,-7.2927384,-0.9295488000000001,6.118981,0.04261058,-0.049002163,-0.046871635999999994,17.28,-30.9,-32.7
1554879503571,-7.350199000000001,-1.1067197,6.2482677,0.03834952,-0.06391586,-0.03089267,17.28,-30.84,-32.76
1554879503592,-7.28795,-1.2455834,6.3392477,0.02876214,-0.09054748,-0.018109497,17.28,-30.84,-32.76
1554879503612,-7.2304892999999995,-1.2934675,6.2530565000000005,0.07137272,-0.10226539,-0.020240024,17.34,-30.9,-32.88
1554879503631,-7.1730285,-1.1546037,6.118981,0.1107875,-0.096939065,-0.02130529,17.34,-30.96,-32.94
1554879503652,-7.3071036,-0.99658644,5.9082913,0.10013486,-0.07456851,-0.024501082,17.34,-31.02,-33.0
1554879503672,-7.168239999999999,-1.049259,5.831677,0.017044231,-0.060720075,-0.02876214,17.4,-31.02,-33.0
1554879503691,-7.3406224,-1.1976993999999999,5.879561,-0.054328485999999995,-0.06711166,-0.036218993,17.4,-31.02,-32.94
1554879503711,-7.273585000000001,-1.240795,5.807735,-0.06604639400000001,-0.09054748,-0.036218993,17.4,-31.08,-32.94
1554879503732,-7.1826053,-1.216853,6.013636,-0.012783173500000002,-0.10439592,-0.027696876000000002,17.4,-31.08,-32.88
1554879503752,-7.2592196,-1.2743138,6.047155,0.025566347000000003,-0.12250541,-0.03195793,17.4,-31.02,-32.76
1554879503771,-7.383717999999999,-1.2791021999999999,6.1094040000000005,0.00958738,-0.14061491,-0.036218993,17.4,-30.96,-32.7
1554879503791,-7.273585000000001,-1.264737,6.186018499999999,-0.012783173500000002,-0.1768339,-0.041545313,17.4,-30.9,-32.64
1554879503812,-7.0485296,-1.2312181999999998,6.4876879999999995,-0.020240024,-0.20026971,-0.027696876000000002,17.4,-30.9,-32.58
1554879503831,-7.0341644,-1.2695253999999998,6.4398040000000005,0.0063915867,-0.1949434,-0.018109497,17.4,-30.84,-32.58
1554879503851,-7.043741000000001,-1.2503718000000001,6.4110737,0.02130529,-0.18216023,-0.00958738,17.4,-30.78,-32.64
1554879503872,-7.043741000000001,-1.2312181999999998,6.535572,0.0,-0.15552860000000002,0.014913702,17.46,-30.78,-32.7
1554879503892,-7.086836999999999,-1.0827777,6.564302400000001,-0.029827405,-0.111852765,0.03195793,17.52,-30.72,-32.76
1554879503911,-7.005433999999999,-1.1258733,6.6265516,-0.049002163,-0.06711166,0.035153727999999995,17.58,-30.72,-32.88
1554879503931,-6.95755,-0.99658644,6.612186400000001,-0.040480047000000005,-0.04261058,0.04474111,17.64,-30.66,-33.0
1554879503952,-7.0245875999999985,-1.0157399999999999,6.6361284,0.0031957934000000003,-0.0031957934000000003,0.04580637,17.64,-30.66,-33.18
1554879503972,-7.005433999999999,-1.0348936,6.51163,0.008522116,0.01917476,0.047936900000000005,17.64,-30.6,-33.36
1554879503992,-6.9288197,-1.0540473,6.5403605,-0.014913702,0.02130529,0.041545313,17.64,-30.6,-33.54
1554879504013,-6.943185000000001,-1.0348936,6.616975,-0.024501082,0.026631612000000002,0.035153727999999995,17.52,-30.6,-33.72
1554879504032,-6.9048777,-1.0923545000000001,6.554725599999999,-0.0010652645,0.03195793,0.04474111,17.46,-30.66,-33.84
1554879504052,-6.885724000000001,-1.1115081,6.63134,0.03834952,0.02130529,0.04474111,17.34,-30.66,-33.96
1554879504071,-6.885724000000001,-1.1737574,6.415862000000001,0.053263225,0.015978966,0.039414786,17.28,-30.66,-34.08
1554879504092,-6.837839999999999,-1.073201,6.449381,0.056459017,0.01917476,0.051132694000000006,17.16,-30.72,-34.14
1554879504112,-6.823475,-1.0684125,6.3392477,0.046871635999999994,0.029827405,0.06391586,17.1,-30.78,-34.14
1554879504132,-6.9048777,-1.1115081,6.353613,0.027696876000000002,0.041545313,0.05965481,17.1,-30.96,-34.14
1554879504151,-6.8186865,-0.9391255999999999,6.3344593,0.01917476,0.03195793,0.04580637,17.04,-31.2,-34.08
1554879504173,-6.8665705,-0.84814596,6.377555,0.02130529,0.03089267,0.024501082,17.04,-31.44,-34.08
1554879504192,-7.0006455999999995,-0.83378077,6.2482677,0.0010652645,0.029827405,-0.0031957934000000003,16.98,-31.62,-34.08
1554879504211,-7.0341644,-0.88166475,6.2243257000000005,-0.036218993,0.03089267,-0.024501082,16.98,-31.8,-34.02
1554879504231,-7.153875,-0.9247603999999999,6.5164184999999994,-0.07456851,0.015978966,-0.036218993,16.98,-31.92,-34.02
1554879504251,-7.0724716,-1.0779893,6.425439,-0.06391586,-0.0031957934000000003,-0.035153727999999995,16.98,-32.04,-33.96
1554879504272,-7.015011,-1.0013748,6.329671,-0.022370555,-0.0063915867,-0.00958738,16.98,-32.1,-33.96
1554879504291,-7.110779300000001,-1.1162965,6.1620764999999995,0.0063915867,-0.013848438000000001,0.022370555,17.04,-31.98,-33.96
1554879504312,-7.1395097000000005,-0.9247603999999999,6.18123,-0.03834952,-0.02130529,0.053263225,17.04,-31.92,-33.96
1554879504332,-7.0724716,-1.0109516,6.1955953,-0.09374327,-0.047936900000000005,0.06498113,17.04,-31.74,-33.9
1554879504351,-7.067683000000001,-1.0109516,6.2003837,-0.09267801,-0.06178534,0.06711166,17.04,-31.68,-33.9
1554879504371,-7.053317999999999,-1.0348936,6.186018499999999,-0.07030745599999999,-0.07030745599999999,0.07243799,16.98,-31.62,-33.9
1554879504391,-6.924031299999999,-0.95349085,6.305729,-0.09054748,-0.056459017,0.056459017,16.98,-31.74,-33.9
1554879504412,-7.015011,-0.95349085,6.353613,-0.11504856,-0.033023197000000004,0.04580637,16.92,-31.8,-33.9
1554879504432,-7.278373200000001,-1.1210848999999998,6.238691,-0.12144015,-0.017044231,0.03195793,16.92,-31.86,-33.9
1554879504451,-7.053317999999999,-1.0205284,6.4924764999999995,-0.12783173,-0.008522116,0.03195793,16.92,-31.92,-33.9
1554879504472,-7.091625,-1.1019313,6.401497,-0.07030745599999999,-0.007456851,0.034088463,16.86,-31.92,-33.96
1554879504491,-7.091625,-1.049259,6.4637459999999995,-0.033023197000000004,-0.011717908999999999,0.054328485999999995,16.86,-31.92,-33.96
1554879504512,-7.086836999999999,-0.99658644,6.3871317,-0.034088463,-0.013848438000000001,0.06391586,16.8,-31.92,-34.02
1554879504531,-7.015011,-0.99179804,6.3631897,-0.08735169,-0.02130529,0.07563378,16.8,-31.92,-34.14
1554879504552,-7.029375999999999,-1.039682,6.3631897,-0.1107875,-0.026631612000000002,0.080960095,16.8,-31.8,-34.2
1554879504572,-7.053317999999999,-1.1067197,6.473323000000001,-0.13315806,-0.027696876000000002,0.094808534,16.8,-31.8,-34.2
1554879504592,-7.0102224,-1.0109516,6.655282000000001,-0.05539375,-0.04474111,0.05539375,16.8,-31.8,-34.32
1554879504612,-6.8330517,-1.073201,6.5738792,0.084155895,-0.09054748,0.035153727999999995,16.74,-31.86,-34.38
1554879504631,-6.794744500000001,-0.88166475,6.3727665,0.20453078,-0.096939065,0.018109497,16.68,-31.92,-34.44
1554879504652,-6.837839999999999,-0.8050503000000001,6.3727665,0.14594123,-0.09161274,0.023435817999999997,16.56,-32.04,-34.56
1554879504671,-6.8665705,-0.8912416,6.564302400000001,0.037284255,-0.082025364,0.033023197000000004,16.44,-32.22,-34.56
1554879504691,-6.8809357,-0.95827925,6.6217630000000005,-0.098004326,-0.06711166,0.033023197000000004,16.26,-32.34,-34.62
1554879504711,-6.7277070000000005,-0.98222125,6.741472999999999,-0.08628642,-0.06391586,0.015978966,16.14,-32.52,-34.68
1554879504732,-6.8186865,-0.98222125,6.7606273,0.033023197000000004,-0.06391586,0.0010652645,16.02,-32.7,-34.74
1554879504752,-6.9527617,-0.75237787,6.3153057,0.12996227,-0.08735169,0.0031957934000000003,15.84,-32.82,-34.8
1554879504771,-6.9096660000000005,-0.7092823,6.645705,0.08628642,-0.094808534,-0.0031957934000000003,15.72,-32.94,-34.86
1554879504792,-6.991069,-0.8050503000000001,6.5212069999999995,0.05752428,-0.10972224,-0.020240024,15.66,-33.0,-34.86
1554879504811,-7.053317999999999,-0.7811083000000001,6.3344593,0.002130529,-0.10546118,0.004261058,15.6,-33.0,-34.86
1554879504832,-7.129933,-1.0444705,6.267421700000001,-0.06924219,-0.096939065,0.046871635999999994,15.6,-33.0,-34.92
1554879504851,-7.019799000000001,-1.2934675,6.535572,-0.04474111,-0.08628642,0.07776430000000001,15.6,-33.06,-34.92
1554879504871,-6.732495299999999,-0.99658644,6.6983776,-0.020240024,-0.082025364,0.068176925,15.6,-33.06,-34.98
1554879504891,-7.0102224,-0.66139823,6.545148999999999,0.025566347000000003,-0.07243799,0.027696876000000002,15.6,-33.12,-34.98
1554879504911,-6.7229185,-0.53211135,6.5212069999999995,-0.039414786,-0.047936900000000005,0.020240024,15.6,-33.18,-34.98
1554879504931,-6.6893997,-0.87687635,6.63134,-0.16085494,0.0,0.027696876000000002,15.54,-33.3,-34.92
1554879504952,-6.847417,-0.7811083000000001,6.5259953,-0.16298546,0.039414786,-0.002130529,15.54,-33.36,-34.92
1554879504971,-6.627150500000001,-0.7332243,6.9808936,-0.13209279,0.04580637,-0.04261058,15.54,-33.36,-34.86
1554879504992,-6.770802499999999,-0.83378077,6.688801,-0.04261058,0.051132694000000006,-0.07882957,15.48,-33.42,-34.86
1554879505012,-6.756437299999999,-0.83378077,6.640917,0.06391586,0.02876214,-0.08735169,15.48,-33.42,-34.86
1554879505031,-6.8426285,-0.9391255999999999,6.569091,0.12357068,0.0010652645,-0.080960095,15.48,-33.36,-34.8
1554879505052,-6.9048777,-0.97743285,6.4398040000000005,0.16724652,-0.022370555,-0.06604639400000001,15.48,-33.3,-34.74
1554879505072,-6.756437299999999,-0.9056068000000002,6.535572,0.18109496,-0.06498113,-0.07350325,15.48,-33.3,-34.8
1554879505092,-6.7372837,-0.7236475,6.5307837,0.17150758,-0.07030745599999999,-0.11504856,15.48,-33.24,-34.86
1554879505111,-6.828263300000001,-0.7763199000000001,6.4541693,0.15233281,-0.058589544,-0.111852765,15.48,-33.24,-34.98
1554879505134,-6.9048777,-1.1546037,6.51163,0.0031957934000000003,-0.054328485999999995,-0.09054748,15.48,-33.24,-35.16
1554879505151,-7.019799000000001,-1.1258733,6.3631897,-0.036218993,-0.06498113,-0.07776430000000001,15.48,-33.24,-35.28
1554879505172,-7.043741000000001,-1.1737574,6.3631897,-0.07137272,-0.07243799,-0.040480047000000005,15.48,-33.24,-35.4
1554879505192,-7.0245875999999985,-1.0827777,6.27221,-0.15765914,-0.06178534,-0.008522116,15.48,-33.24,-35.52
1554879505212,-7.0006455999999995,-1.0588357,6.6217630000000005,-0.30679616,0.0,0.036218993,15.48,-33.18,-35.58
1554879505232,-6.9527617,-1.0923545000000001,6.684012400000001,-0.38456047,0.043675844000000005,0.040480047000000005,15.48,-33.12,-35.7
1554879505252,-7.043741000000001,-1.1641805,6.7941460000000005,-0.3653857,0.084155895,0.012783173500000002,15.42,-33.06,-35.76
1554879505271,-6.8330517,-0.98700964,6.875549,-0.35260254,0.113983296,-0.020240024,15.42,-32.94,-35.82
1554879505291,-6.900089299999999,-0.97743285,6.870760400000001,-0.34621096,0.13635385,-0.043675844000000005,15.48,-32.82,-35.76
1554879505312,-7.005433999999999,-0.97743285,6.502053299999999,-0.30892670000000005,0.12250541,-0.018109497,15.42,-32.76,-35.76
1554879505332,-7.0485296,-1.3269863000000002,6.1524997,-0.26418558,0.10226539,0.01917476,15.42,-32.64,-35.76
1554879505351,-6.847417,-1.4562732,6.4302273,-0.14913702,0.10759171,0.06498113,15.42,-32.52,-35.82
1554879505372,-6.7133417,-1.3413515,6.616975,-0.0053263223,0.06178534,0.0053263223,15.42,-32.46,-35.82
1554879505391,-6.7612257,-1.2455834,6.4541693,0.18109496,0.041545313,-0.043675844000000005,15.42,-32.34,-35.94
1554879505412,-6.823475,-1.0827777,6.63134,0.31957933,-0.00958738,-0.05219796,15.48,-32.28,-36.0
1554879505431,-6.871359,-1.1833341999999998,6.305729,0.35899413,-0.07776430000000001,-0.05539375,15.48,-32.28,-36.06
1554879505452,-6.9144545,-1.2120646000000002,6.27221,0.30466563,-0.098004326,-0.058589544,15.54,-32.22,-36.18
1554879505471,-6.9144545,-1.1162965,6.588244400000001,0.20453078,-0.101200126,-0.043675844000000005,15.6,-32.22,-36.18
1554879505492,-6.861782000000001,-1.1067197,6.4924764999999995,0.12463594,-0.10333065,-0.011717908999999999,15.72,-32.22,-36.24
1554879505512,-6.871359,-1.073201,6.6744356,0.098004326,-0.084155895,-0.0010652645,15.78,-32.22,-36.24
1554879505531,-6.9048777,-1.0205284,6.707954400000001,0.09374327,-0.060720075,0.004261058,15.84,-32.28,-36.24
1554879505552,-6.9767036,-1.073201,6.933009599999999,0.07882957,-0.025566347000000003,-0.0031957934000000003,15.9,-32.4,-36.24
1554879505572,-7.0724716,-0.96306765,6.8516070000000004,0.07882957,-0.013848438000000001,-0.008522116,15.9,-32.46,-36.18
1554879505592,-7.019799000000001,-0.8098387,6.779781,0.09054748,0.0063915867,-0.0031957934000000003,15.78,-32.52,-36.18
1554879505611,-7.0964136,-0.7428011,6.3488245,0.101200126,-0.0031957934000000003,0.007456851,15.66,-32.58,-36.12
1554879505632,-7.0485296,-0.87687635,6.3631897,0.06604639400000001,0.004261058,0.04261058,15.48,-32.64,-36.12
1554879505652,-7.0964136,-1.0013748,6.449381,0.018109497,0.014913702,0.051132694000000006,15.3,-32.64,-36.06
1554879505672,-7.053317999999999,-0.98222125,6.564302400000001,-0.02876214,0.02130529,0.060720075,15.12,-32.64,-36.06
1554879505692,-6.780379300000001,-1.0971429,6.3727665,-0.07563378,-0.0010652645,0.056459017,15.0,-32.64,-36.06
1554879505712,-6.8186865,-0.9247603999999999,6.1764417,-0.13635385,0.00958738,0.058589544,14.88,-32.64,-36.06
1554879505732,-6.8809357,-0.95827925,6.4398040000000005,-0.20133498,0.01917476,0.06604639400000001,14.7,-32.64,-36.06
1554879505752,-6.8761472999999995,-0.9247603999999999,6.4541693,-0.19068234,0.010652645,0.058589544,14.7,-32.64,-36.06
1554879505773,-6.8569937,-0.98700964,6.377555,-0.13741912,-0.020240024,0.033023197000000004,14.76,-32.7,-36.06
1554879505792,-6.756437299999999,-0.88166475,6.545148999999999,-0.06924219,-0.040480047000000005,0.034088463,14.82,-32.7,-36.06
1554879505811,-6.50744,-0.6374562,6.18123,0.06604639400000001,-0.08628642,-0.05006743,14.94,-32.76,-36.06
1554879505832,-6.7277070000000005,-0.6135142,6.1094040000000005,0.056459017,-0.09267801,-0.10652645,15.06,-32.82,-36.12
1554879505851,-6.679823,-0.7380127,6.118981,-0.013848438000000001,-0.10865697,-0.13954964,15.18,-32.94,-36.12
1554879505872,-6.6367273,-1.3509283,6.51163,-0.06285059999999999,-0.14274544,-0.10439592,15.3,-33.06,-36.12
1554879505891,-6.593631299999999,-1.6382325,7.062296400000001,-0.03195793,-0.16298546,-0.07563378,15.42,-33.18,-36.18
1554879505911,-6.631939,-1.3844471,6.664859,0.034088463,-0.18002969,-0.07776430000000001,15.54,-33.3,-36.18
1554879505932,-6.7133417,-1.0636241000000002,6.779781,0.035153727999999995,-0.16831179,-0.094808534,15.54,-33.42,-36.18
1554879505951,-6.780379300000001,-0.9103952,6.8132997,0.015978966,-0.15978967,-0.098004326,15.54,-33.48,-36.18
1554879505972,-6.780379300000001,-1.0636241000000002,7.0287776,-0.004261058,-0.12463594,-0.06498113,15.54,-33.54,-36.12
1554879505991,-6.9096660000000005,-1.1067197,6.832453299999999,-0.07989483,-0.09374327,-0.037284255,15.42,-33.54,-36.18
1554879506012,-6.885724000000001,-0.97743285,6.6792240000000005,-0.1438107,-0.060720075,-0.018109497,15.3,-33.42,-36.18
1554879506031,-6.943185000000001,-0.9247603999999999,6.741472999999999,-0.18002969,-0.034088463,0.0031957934000000003,15.24,-33.36,-36.24
1554879506051,-6.947973299999999,-1.1306617,6.885125599999999,-0.20240025,-0.010652645,0.035153727999999995,15.24,-33.3,-36.3
1554879506072,-6.9719152,-1.2455834,6.8611835999999995,-0.24820662,-0.002130529,0.05752428,15.18,-33.12,-36.36
1554879506091,-6.9767036,-1.2072762,6.746262,-0.39201729999999996,0.00958738,0.06924219,15.18,-32.94,-36.42
1554879506112,-6.655881,-1.1019313,6.569091,-0.5251754,0.029827405,0.082025364,15.18,-32.82,-36.48
1554879506132,-6.6941880000000005,-1.3078326999999998,6.39192,-0.5550028,0.06391586,0.08948222,15.18,-32.7,-36.6
1554879506151,-6.569689299999999,-1.2360066,6.5068417,-0.4889564,0.06711166,0.07882957,15.18,-32.58,-36.72
1554879506171,-6.588842999999999,-1.3748703000000002,6.6361284,-0.34834146,0.06178534,0.0063915867,15.24,-32.46,-36.96
1554879506191,-6.4068837,-1.4610616,6.707954400000001,-0.25672874,0.07989483,-0.07882957,15.24,-32.34,-37.2
1554879506213,-6.540959,-1.3844471,6.688801,-0.083090626,0.06285059999999999,-0.20133498,15.24,-32.22,-37.44
1554879506232,-6.4739213,-1.5855601000000001,6.458957700000001,0.025566347000000003,0.060720075,-0.19813919,15.18,-32.1,-37.68
1554879506251,-6.5457472999999995,-1.6525976999999998,6.564302400000001,0.12676647,0.040480047000000005,-0.18748654,15.12,-31.92,-37.86
1554879506271,-6.5744777,-1.7531542000000002,6.6983776,0.30999196,0.014913702,-0.18002969,15.12,-31.74,-38.04
1554879506292,-6.6654577,-1.7531542000000002,6.885125599999999,0.5518069999999999,-0.034088463,-0.17363810000000002,15.12,-31.62,-38.04
1554879506311,-6.6367273,-1.3892354999999998,6.4110737,0.6317018,-0.08628642,-0.16724652,15.06,-31.5,-37.98
1554879506331,-6.8905125,-1.0348936,6.4541693,0.49854377,-0.09054748,-0.17576863,15.06,-31.38,-37.86
1554879506351,-6.947973299999999,-0.8960299999999999,6.5307837,0.32490566,-0.08841695,-0.14594123,15.0,-31.26,-37.68
1554879506372,-6.799533,-1.216853,6.875549,0.033023197000000004,-0.029827405,-0.098004326,15.0,-31.26,-37.5
1554879506392,-6.7516490000000005,-1.3221979,7.153275999999999,-0.08841695,0.04474111,-0.10865697,15.0,-31.2,-37.32
1554879506411,-6.900089299999999,-1.7052702000000002,7.1006035999999995,-0.11824436,0.12357068,-0.07030745599999999,15.0,-31.26,-37.2
1554879506431,-6.8330517,-1.6382325,6.4350157,-0.11504856,0.17257284,-0.07456851,15.0,-31.32,-37.08
1554879506452,-6.981492,-1.2072762,6.593033,-0.14913702,0.19600865,-0.12037488,15.0,-31.38,-37.08
1554879506472,-7.086836999999999,-1.4514848,6.870760400000001,-0.12676647,0.21198763,-0.043675844000000005,15.06,-31.44,-37.02
1554879506492,-6.823475,-1.6478093,6.84203,0.14807177,0.13315806,0.043675844000000005,15.06,-31.5,-36.9
1554879506512,-6.7229185,-1.5185224,6.502053299999999,0.43462790000000007,0.11611383,0.015978966,15.12,-31.56,-36.84
1554879506532,-7.101202000000001,-1.2072762,6.085462000000001,0.43569317,0.10652645,0.025566347000000003,15.18,-31.62,-36.78
1554879506552,-6.7372837,-1.240795,6.229114,0.12357068,0.112918034,0.05539375,15.24,-31.68,-36.72
1554879506571,-6.799533,-1.5041572,6.535572,-0.13848437,0.13102753,0.025566347000000003,15.3,-31.68,-36.72
1554879506592,-6.861782000000001,-1.489792,6.3727665,-0.05539375,0.12250541,-0.020240024,15.42,-31.62,-36.66
1554879506612,-6.9623384,-1.3557166999999999,6.2626333,0.051132694000000006,0.10759171,-0.037284255,15.48,-31.62,-36.6
1554879506632,-6.9767036,-1.3557166999999999,6.39192,0.02130529,0.098004326,-0.014913702,15.54,-31.5,-36.54
1554879506651,-6.679823,-1.6813281999999998,7.167641000000001,-0.07030745599999999,0.10226539,-0.0031957934000000003,15.54,-31.44,-36.48
1554879506672,-6.7277070000000005,-1.2455834,7.014412400000001,0.20026971,0.10865697,-0.1470065,15.6,-31.44,-36.36
1554879506691,-7.029375999999999,-0.4938041,6.602609599999999,0.52837116,0.09054748,-0.23435818,15.6,-31.38,-36.3
1554879506711,-6.9096660000000005,-0.7428011,6.1237693,0.6508765999999999,0.05965481,-0.083090626,15.66,-31.32,-36.18
1554879506732,-6.8186865,-1.1546037,5.6736593,0.5954828000000001,-0.002130529,-0.033023197000000004,15.6,-31.32,-36.0
1554879506751,-7.038953,-0.7763199000000001,5.788581400000001,0.48043427,-0.04261058,-0.10013486,15.6,-31.32,-35.94
1554879506771,-6.804321300000001,-0.4938041,5.893926,0.16085494,-0.113983296,-0.14807177,15.6,-31.26,-35.76
1554879506792,-6.9288197,-1.2216414,6.4541693,-0.10226539,-0.08948222,-0.06711166,15.66,-31.32,-35.58
1554879506812,-6.708553299999999,-1.3892354999999998,6.731896400000001,-0.11504856,-0.07030745599999999,-0.040480047000000005,15.66,-31.38,-35.46
1554879506831,-7.005433999999999,-1.4323312,6.7845693,0.16405073,-0.05965481,-0.15978967,15.84,-31.38,-35.28
1554879506851,-7.086836999999999,-1.3126211,6.324882499999999,0.43675843,-0.10226539,-0.19281286,15.9,-31.44,-35.16
1554879506871,-6.95755,-1.0348936,6.186018499999999,0.6178534000000001,-0.165116,-0.18429075,15.96,-31.5,-35.04
1554879506892,-7.0485296,-1.0588357,6.0423665,0.48043427,-0.18748654,-0.13848437,16.08,-31.56,-34.8
1554879506913,-6.919242999999999,-1.0779893,6.559514,0.31957933,-0.1438107,-0.17150758,16.14,-31.56,-34.74
1554879506931,-6.7612257,-0.95827925,6.818088,0.17789917,-0.09267801,-0.15233281,16.2,-31.62,-34.68
1554879506951,-6.794744500000001,-0.9487024,6.971317,0.099069595,-0.023435817999999997,-0.14487597,16.32,-31.68,-34.62
1554879506971,-6.9719152,-0.96306765,6.3727665,0.040480047000000005,0.013848438000000001,-0.1470065,16.38,-31.68,-34.56
1554879506991,-7.0102224,-0.9391255999999999,5.94181,0.0010652645,0.004261058,-0.1587244,16.38,-31.74,-34.5
1554879507011,-7.019799000000001,-1.1976993999999999,5.798158,-0.07030745599999999,0.020240024,-0.10333065,16.38,-31.74,-34.5
1554879507032,-6.919242999999999,-0.96785605,7.249044400000001,-0.23968449999999997,0.04474111,0.01917476,16.44,-31.8,-34.44
1554879507052,-6.9048777,-0.46986207,6.880337,-0.24074976,0.013848438000000001,-0.046871635999999994,16.44,-31.8,-34.44
1554879507071,-7.2352777,-0.5081693,6.832453299999999,-0.10439592,0.05006743,-0.018109497,16.44,-31.86,-34.38
1554879507092,-7.005433999999999,-0.44113165,6.4350157,-0.080960095,0.026631612000000002,0.046871635999999994,16.5,-31.86,-34.26
1554879507111,-7.201759,-0.9439139999999999,5.951387,-0.21837921,-0.0053263223,0.046871635999999994,16.5,-31.92,-34.2
1554879507132,-6.828263300000001,-1.1689690000000001,6.2003837,-0.38242993,-0.11611383,0.1107875,16.44,-31.92,-34.14
1554879507151,-6.871359,-1.1833341999999998,5.879561,-0.44315,-0.18535602,0.13102753,16.38,-31.98,-34.02
1554879507172,-6.775591,-1.4562732,6.0327897,-0.29933932,-0.24074976,0.14487597,16.38,-31.98,-33.96
1554879507191,-6.540959,-0.98700964,7.201160000000001,-0.022370555,-0.20453078,0.13741912,16.32,-31.92,-33.96
1554879507212,-6.6893997,-1.417966,7.5650787,0.24714136,-0.13315806,0.015978966,16.32,-31.92,-33.96
1554879507231,-6.435614,-1.0444705,7.445369,0.36325517,-0.058589544,0.043675844000000005,16.26,-31.92,-34.02
1554879507251,-6.617573299999999,-0.9008184000000001,6.588244400000001,0.31851408,0.0063915867,0.0053263223,16.2,-31.98,-34.14
1554879507271,-6.9623384,-0.7380127,6.320094,0.14487597,0.049002163,0.017044231,16.08,-32.04,-34.26
1554879507292,-6.895301,-0.86251116,6.205172,0.004261058,0.041545313,0.07563378,15.9,-32.1,-34.44
1554879507311,-6.885724000000001,-1.1354501000000001,6.913856,-0.13315806,0.051132694000000006,0.128897,15.72,-32.22,-34.56
1554879507332,-7.019799000000001,-1.1785458,7.105392,-0.10759171,0.018109497,0.15659387,15.54,-32.28,-34.62
1554879507351,-6.943185000000001,-0.7954735,6.9425864,-0.047936900000000005,-0.014913702,0.13528858,15.42,-32.46,-34.74
1554879507372,-7.038953,-0.54647654,6.96174,-0.040480047000000005,-0.00958738,0.11930962,15.24,-32.64,-34.8
1554879507392,-7.153875,-0.55126494,7.0048356,-0.08735169,-0.0031957934000000003,0.16724652,15.12,-32.82,-34.92
1554879507411,-6.9767036,-0.6757634,6.6744356,-0.13315806,-0.012783173500000002,0.18429075,15.06,-33.0,-34.98
1554879507431,-7.0964136,-0.8242039000000001,7.0670850000000005,-0.19600865,0.040480047000000005,0.19068234,15.0,-33.12,-35.1
1554879507452,-7.254431200000001,-0.75237787,7.4884644,-0.18002969,0.09587380000000001,0.2066613,15.0,-33.24,-35.28
1554879507472,-7.4363904000000005,-0.86251116,7.7997108,-0.16085494,0.14168017,0.24394555,15.06,-33.42,-35.46
1554879507491,-7.61835,-0.95827925,7.617750999999999,-0.12463594,0.19174760000000002,0.3174488,15.12,-33.48,-35.64
1554879507511,-7.589619,-0.8242039000000001,7.4405804,-0.080960095,0.2727077,0.39308259999999995,15.12,-33.6,-35.82
1554879507532,-7.771578999999999,-0.88166475,7.368754400000001,-0.083090626,0.4048005,0.49002165,15.12,-33.66,-35.94
1554879507551,-7.8865004,-0.84335756,7.1006035999999995,-0.1949434,0.5518069999999999,0.58269966,15.12,-33.66,-36.06
1554879507571,-7.9008656,-1.0540473,7.2873516,-0.32384038,0.71585774,0.6380934,15.12,-33.66,-36.12
1554879507591,-7.690175999999999,-1.0779893,7.1915830000000005,-0.39521313,0.85753787,0.7030744999999999,15.06,-33.72,-36.12
1554879507611,-7.6135616,-1.1306617,6.559514,-0.37284255,0.9683254000000001,0.78083885,15.0,-33.78,-36.06
1554879507632,-7.522581599999999,-1.0971429,5.8987145,-0.35473305,1.063134,0.86179894,14.94,-33.96,-35.88
1554879507651,-7.4603324,-1.2072762,5.8651957999999995,-0.34088463,1.1100056,0.9076053,14.88,-34.02,-35.82
1554879507671,-7.3789296,-0.9247603999999999,5.472546599999999,-0.2972088,1.1110708999999999,0.94808537,14.82,-34.14,-35.7
1554879507692,-7.2975270000000005,-0.65182143,4.926668599999999,-0.18748654,1.0833739,0.97045594,14.76,-34.32,-35.58
1554879507712,-7.302314999999999,-0.6278794,4.8165355000000005,-0.008522116,1.0396981,0.9981528000000001,14.58,-34.62,-35.46
1554879507731,-7.125144500000001,-0.374094,4.6776714,0.23222765,0.96939063,0.9757822,14.4,-35.1,-35.34
1554879507752,-7.3071036,0.27712885,4.1557355000000005,0.5251754,0.8341021000000001,0.88203895,14.1,-36.0,-35.16
1554879507772,-7.2592196,0.6937199000000001,3.767875,0.6679208000000001,0.6828345,0.8117314999999999,13.86,-36.78,-35.1
1554879507791,-7.359775999999999,0.9187749,3.5476084,0.71479243,0.5933523,0.74035877,13.74,-37.2,-34.98
1554879507812,-7.5082164,1.2108675,3.4278982000000005,0.60293967,0.46019423,0.6178534000000001,13.32,-38.46,-34.74
1554879507832,-7.541735000000001,1.5077485000000002,3.6002807999999997,0.41119209999999995,0.3206446,0.5123922000000001,12.96,-39.3,-34.38
1554879507852,-7.7667904000000005,1.7328035,3.4326867999999995,0.15339808,0.2034655,0.42397526,12.54,-40.14,-34.02
1554879507871,-7.699753,1.8908207,3.5093012000000003,-0.13528858,0.09587380000000001,0.35260254,12.18,-40.8,-33.6
1554879507891,-8.025364,2.0248961,3.9354692000000004,-0.35473305,0.054328485999999995,0.28229508,11.82,-41.4,-33.18
1554879507912,-8.197746,1.8429368000000002,4.347272,-0.43675843,0.037284255,0.23435818,11.52,-41.82,-32.76
1554879507932,-8.456321,1.6274586000000002,4.6680946,-0.39840892,0.049002163,0.15126756,11.16,-42.18,-32.4
1554879507951,-8.432379,1.5652093999999999,4.5340195,-0.3568636,0.02876214,0.10652645,10.92,-42.42,-32.1
1554879507971,-8.532935,1.4933833,4.577115,-0.31105720000000003,0.027696876000000002,0.10226539,10.68,-42.66,-31.92
1554879507992,-8.566454,1.3880384,4.371214,-0.27057716,0.024501082,0.12250541,10.56,-42.84,-31.92
1554879508012,-8.628703,1.2539631000000002,4.419098,-0.22690132,0.043675844000000005,0.13528858,10.5,-43.02,-32.04
1554879508032,-8.686164,1.110311,4.2898107,-0.23009712,0.04261058,0.14168017,10.56,-43.14,-32.22
1554879508051,-8.6813755,1.2108675,4.2371383,-0.25140239999999997,0.047936900000000005,0.16298546,10.56,-43.2,-32.4
1554879508071,-8.614338,1.4359225,3.9594111000000005,-0.294013,0.037284255,0.20133498,10.5,-43.2,-32.64
1554879508092,-8.743625,1.4550761,3.8013937000000007,-0.30253512,0.046871635999999994,0.23435818,10.32,-43.2,-32.82
1554879508111,-8.743625,1.3449427999999999,3.7774517999999997,-0.32384038,0.06285059999999999,0.24714136,10.14,-43.2,-33.0
1554879508131,-8.719683,1.3880384,3.9881415000000002,-0.32810146,0.018109497,0.221575,9.96,-43.2,-33.18
1554879508152,-8.762777999999999,1.3880384,3.8540661,-0.31105720000000003,-0.01917476,0.23648871,9.78,-43.2,-33.36
1554879508172,-8.762777999999999,1.4502877,3.54282,-0.32810146,-0.05539375,0.27590349999999997,9.6,-43.26,-33.54
1554879508192,-8.839393,1.6226702,3.470994,-0.43356264,-0.06391586,0.31851408,9.36,-43.26,-33.72
1554879508212,-8.834603999999999,1.6035166,3.4518404,-0.6530071,-0.051132694000000006,0.38882150000000004,9.18,-43.38,-34.08
1554879508232,-8.7532015,1.6657659,3.887585,-0.8383630999999999,-0.039414786,0.45273739999999996,8.94,-43.44,-34.44
1554879508252,-8.762777999999999,1.6753427,4.055179,-0.94595486,-0.033023197000000004,0.515588,8.88,-43.5,-34.86
1554879508271,-8.7532015,1.5652093999999999,3.8827964999999995,-1.0599382,-0.015978966,0.567786,8.76,-43.56,-35.28
1554879508291,-8.494628,1.4933833,4.2945995,-1.1462245,0.012783173500000002,0.5795039000000001,8.64,-43.62,-35.76
1554879508311,-8.389283,1.3401544,4.103063,-1.1920309,0.040480047000000005,0.58696073,8.52,-43.62,-36.3
1554879508332,-8.408437,1.2395979,4.222773,-1.325189,0.07243799,0.62104917,8.4,-43.62,-36.84
1554879508352,-8.058883,1.2060791000000002,4.395156,-1.4498249,0.060720075,0.64555025,8.28,-43.62,-37.38
1554879508372,-7.905653999999999,1.2204443,4.624999,-1.4562165,0.07137272,0.67324716,7.98,-43.62,-37.92
1554879508391,-7.5082164,1.311424,4.5962687,-1.4093448999999998,0.08841695,0.664725,7.56,-43.5,-38.58
1554879508412,-7.7332716,1.3880384,4.912303400000001,-1.3550163999999998,0.111852765,0.58056915,7.14,-43.32,-39.36
1554879508431,-7.7667904000000005,1.3401544,5.213972599999999,-1.3156016000000001,0.101200126,0.48363006,6.72,-43.14,-40.2
1554879508451,-8.130709,1.2348095,5.146935,-1.2783173,0.09267801,0.44741106,6.3,-42.84,-41.04
1554879508472,-8.293514,1.0097545,5.0463786,-1.2761868,0.07776430000000001,0.4825648,5.88,-42.48,-41.76
1554879508492,-8.576031,0.95708215,5.156512,-1.2282499,0.09587380000000001,0.48363006,5.28,-41.88,-42.78
1554879508512,-9.069236,0.88046765,5.209184,-1.2239889,0.15978967,0.5571333,4.92,-41.4,-43.44
1554879508532,-9.165004,0.87567925,5.194819,-1.2655341999999998,0.19920446,0.6306366,4.74,-40.86,-44.22
1554879508552,-8.954314,0.7799111999999999,5.395932,-1.2889700000000002,0.23542345,0.6849651,4.68,-40.32,-44.82
1554879508571,-8.959103,0.9187749,5.1996074,-1.2634037,0.26205507,0.7392935,4.56,-39.72,-45.3
1554879508591,-8.470686,0.7320272,5.204396,-1.1899004,0.3057309,0.8032094,4.44,-39.12,-45.84
1554879508612,-8.0684595,0.717662,5.146935,-1.0748518999999999,0.3153183,0.8181231,4.26,-38.46,-46.44
1554879508631,-7.795521000000001,0.81343,5.075108999999999,-0.9193232,0.3270362,0.7765778,4.02,-37.62,-46.98
1554879508651,-7.632714999999999,1.0528502,4.7878050000000005,-0.7680557,0.31957933,0.69135666,3.72,-36.84,-47.46
1554879508671,-7.608772999999999,1.0576386,4.5340195,-0.6498113,0.2908172,0.5858955,3.48,-36.12,-47.88
1554879508691,-7.7667904000000005,1.1055226,4.23235,-0.60720074,0.26631612,0.4889564,3.18,-35.46,-48.18
1554879508712,-7.632714999999999,1.38325,4.447828299999999,-0.6988135,0.22796659,0.43356264,2.82,-34.8,-48.42
1554879508732,-7.8865004,1.2108675,4.5483847,-0.8745821,0.23435818,0.37816888,2.58,-34.26,-48.72
1554879508751,-8.09719,0.99060094,4.759074,-1.0460896000000002,0.27057716,0.34194988,2.28,-33.72,-49.08
1554879508771,-7.843405000000001,0.76554596,4.821324,-1.0940266,0.27590349999999997,0.30466563,1.98,-33.12,-49.32
1554879508792,-8.0684595,0.9091981,4.7016134,-1.0524813,0.30360037,0.24607609,1.8,-32.7,-49.62
1554879508812,-8.240842,0.85173726,4.8979383,-0.9832390999999999,0.31638354,0.21837921,1.62,-32.1,-49.92
1554879508832,-8.183380999999999,0.6362591,5.01286,-0.85753787,0.28442562,0.21944448,1.5,-31.32,-50.22
1554879508852,-8.307879,0.41120413,5.0224366,-0.6689861,0.22903186,0.19281286,1.44,-30.48,-50.52
1554879508871,-8.192958,0.66498953,4.7303440000000005,-0.515588,0.18961707,0.17789917,1.38,-29.7,-50.82
1554879508892,-8.169016000000001,0.8038531999999999,4.8261123,-0.4165184,0.17257284,0.13209279,1.32,-28.8,-51.06
1554879508911,-8.374918,0.8182184,4.854842700000001,-0.40586576,0.15020229,0.083090626,1.38,-28.02,-51.36
1554879508932,-8.394072,0.717662,4.821324,-0.43888897,0.113983296,0.053263225,1.44,-27.24,-51.66
1554879508952,-8.413225,0.85173726,4.7494974,-0.4889564,0.10972224,-0.010652645,1.5,-26.58,-51.9
1554879508972,-8.508992999999998,0.717662,4.7255554,-0.43782368,0.09587380000000001,-0.033023197000000004,1.56,-25.92,-52.14
1554879508991,-8.39886,0.6745663000000001,4.624999,-0.29188246,0.07350325,-0.080960095,1.68,-25.5,-52.44
1554879509011,-8.801085,0.27234045,4.6633059999999995,-0.16405073,0.06711166,-0.113983296,1.74,-25.14,-52.62
1554879509032,-8.595184,0.076015905,4.5819035,-0.060720075,0.024501082,-0.082025364,1.8,-24.72,-52.8
1554879509052,-8.51857,0.12868834,4.419098,0.041545313,0.025566347000000003,-0.10013486,1.86,-24.42,-52.86
1554879509071,-8.652645,0.46866497,4.2275615,0.12463594,0.041545313,-0.113983296,1.92,-24.12,-52.86
1554879509091,-8.671799,0.6266823,3.8540661,0.16405073,0.04580637,-0.094808534,1.98,-23.88,-52.86
1554879509111,-8.7532015,0.7990648,3.8157589999999995,0.111852765,0.080960095,-0.082025364,1.98,-23.58,-52.8
1554879509132,-8.829816000000001,0.6841431,3.7487214,-0.01917476,0.11504856,-0.05006743,1.98,-23.46,-52.8
1554879509152,-8.939949,0.8900445,3.9785647000000006,-0.112918034,0.11717909,-0.04261058,1.98,-23.34,-52.8
1554879509172,-8.930372,0.95708215,3.9354692000000004,-0.13315806,0.10546118,-0.03834952,1.98,-23.22,-52.8
1554879509191,-8.8777,0.85652566,4.1653123,-0.082025364,0.07776430000000001,-0.023435817999999997,1.98,-23.16,-52.86
1554879509211,-8.662222,0.7032967,4.3568487000000005,-0.03195793,0.049002163,-0.020240024,1.98,-23.1,-52.86
1554879509231,-8.781932000000001,0.45429978,4.194042700000001,-0.080960095,0.03195793,-0.011717908999999999,1.98,-22.92,-52.92
1554879509251,-8.829816000000001,0.38726214,4.0503907,-0.19281286,0.03089267,-0.0031957934000000003,1.98,-22.86,-52.86
1554879509272,-8.7053175,0.3681085,4.2898107,-0.19707392,0.013848438000000001,-0.0063915867,2.04,-22.8,-52.86
1554879509291,-8.576031,0.41120413,4.0695443,-0.112918034,-0.008522116,-0.01917476,2.04,-22.74,-52.86
1554879509312,-8.6095495,0.41120413,4.1557355000000005,-0.06391586,-0.0010652645,-0.027696876000000002,2.1,-22.68,-52.86
1554879509331,-8.604761,0.26276365,4.222773,-0.068176925,0.0031957934000000003,-0.0031957934000000003,2.22,-22.68,-52.86
1554879509351,-8.7053175,0.52133745,4.0120835,-0.06924219,0.008522116,-0.040480047000000005,2.34,-22.62,-52.86
1554879509372,-8.614338,0.6027403,3.9546227,-0.094808534,0.0010652645,-0.07669904,2.46,-22.56,-52.86
1554879509392,-8.781932000000001,0.6410475,4.0025067000000005,-0.128897,0.00958738,-0.047936900000000005,2.58,-22.56,-52.86
1554879509412,-8.7532015,0.43035775,3.9067385000000003,-0.21731395,0.022370555,0.0053263223,2.76,-22.5,-52.92
1554879509432,-8.820239,0.39683893,4.2658687,-0.24927188,0.02130529,-0.02876214,2.88,-22.38,-52.92
1554879509451,-8.8777,0.43514615,4.270657,-0.17470337,0.015978966,-0.056459017,3.0,-22.2,-52.92
1554879509472,-8.896853,0.27234045,4.2993879999999995,-0.09161274,0.020240024,-0.010652645,3.0,-22.02,-52.92
1554879509492,-8.671799,-0.99658644,4.759074,-0.013848438000000001,0.01917476,-0.014913702,3.0,-21.84,-52.92
1554879509511,-8.298303,1.7902644,4.0264487,0.86499476,-0.018109497,-0.42717105,3.0,-21.6,-52.92
1554879509532,-8.983044999999999,0.85173726,3.198055,1.5797871,-0.22050974,-0.59761333,3.0,-21.36,-52.86
1554879509551,-8.350976,1.4215573000000001,1.6418238,1.5318503,-0.35792887,-0.25992453,2.94,-21.18,-52.8
1554879509573,-7.881711999999999,0.45429978,2.4702177000000005,-0.060720075,-0.16192019,-0.24394555,3.0,-21.12,-52.74
1554879509592,-8.441956,-0.75237787,3.7726634,-1.0290455,0.0031957934000000003,-0.12037488,3.0,-21.24,-52.68
1554879509612,-8.346188,-1.4993688,5.506065400000001,-1.3869743,0.10546118,-0.07350325,3.06,-21.48,-52.62
1554879509631,-8.580819,-1.3748703000000002,6.291363700000001,-0.6412892,0.16724652,-0.15339808,3.06,-21.72,-52.5
1554879509653,-8.556877,-0.46507367,5.568314599999999,0.6956177,-0.02130529,-0.29188246,3.06,-21.96,-52.44
1554879509671,-8.331821000000001,0.31064767,4.5914803,1.2112056999999998,-0.12996227,-0.34514567,3.06,-22.2,-52.38
1554879509692,-8.2169,0.83258367,3.9354692000000004,1.3326459,-0.21092236,-0.35792887,3.06,-22.38,-52.26
1554879509711,-8.7292595,1.0001777,3.6721067,1.0546118,-0.19068234,-0.4250405,3.06,-22.62,-52.2
1554879509731,-8.470686,0.75118077,4.1557355000000005,0.5965481,-0.17789917,-0.43356264,3.12,-22.8,-52.08
1554879509752,-8.255207,0.3681085,4.9027267,0.17576863,-0.11504856,-0.39627838,3.12,-22.98,-52.02
1554879509772,-8.226477000000001,-0.12509704,5.228338,-0.047936900000000005,-0.040480047000000005,-0.39947417,3.18,-23.28,-51.9
1554879509791,-8.389283,-0.39803603,4.7159786,-0.053263225,0.0010652645,-0.42290998,3.24,-23.64,-51.84
1554879509811,-9.260772,-0.42676646,4.4861355000000005,0.10439592,-0.011717908999999999,-0.44528055,3.3,-24.0,-51.78
1554879509832,-9.701305,-0.10115502,4.064756,0.30253512,-0.23755397,-0.39627838,3.36,-24.42,-51.66
1554879509852,-9.141062,0.54527944,2.8820202,0.4857606,-0.57311225,-0.30679616,3.42,-24.84,-51.6
1554879509871,-8.556877,0.9331401,1.9434932,0.7233145999999999,-0.7819041,-0.30892670000000005,3.48,-25.26,-51.48
1554879509892,-8.145074000000001,0.5165489999999999,2.1254525,0.6924219,-0.80107886,-0.17257284,3.48,-25.62,-51.48
1554879509912,-7.714117999999999,-0.0005985504,4.0360255,0.21624869,-0.69029135,-0.18109496,3.48,-25.86,-51.42
1554879509932,-8.169016000000001,-0.034117375,5.975329,-0.22477080000000002,-0.5123922000000001,-0.3291667,3.48,-25.98,-51.36
1554879509952,-8.39886,-0.20171149,6.291363700000001,-0.40266997,-0.34514567,-0.25885928,3.42,-26.04,-51.3
1554879509972,-8.394072,-0.27832595,6.1524997,-0.43675843,-0.22477080000000002,-0.21092236,3.36,-26.1,-51.3
1554879509992,-8.379706,-0.20649989,5.443816,-0.36112466,-0.18216023,-0.23861924,3.24,-26.16,-51.3
1554879510011,-8.236053,-0.13946225,5.4102974,-0.17150758,-0.18748654,-0.27483824,3.12,-26.22,-51.36
1554879510031,-8.0924015,-0.30226797,5.6497173,0.06391586,-0.21731395,-0.28549087,3.0,-26.28,-51.36
1554879510052,-8.169016000000001,-0.374094,5.7023897,0.28016454,-0.25140239999999997,-0.32277513,2.88,-26.28,-51.42
1554879510072,-8.264783999999999,-0.30226797,5.61141,0.39734364,-0.2876214,-0.33981937,2.76,-26.28,-51.48
1554879510092,-7.8625584,-0.46986207,5.290587400000001,0.42290998,-0.32597092,-0.35260254,2.58,-26.28,-51.48
1554879510111,-7.6231384,-0.52732295,5.285799,0.38775626,-0.34727620000000003,-0.37071204,2.46,-26.22,-51.54
1554879510131,-7.4699089999999995,-0.42676646,5.453393,0.39095205,-0.37923414,-0.39308259999999995,2.34,-26.22,-51.66
1554879510152,-7.6614455999999995,-0.4842273,5.4917,0.4016047,-0.39840892,-0.38775626,2.28,-26.22,-51.72
1554879510172,-7.699753,-0.6805518,5.4342394,0.39947417,-0.4261058,-0.41225734,2.22,-26.22,-51.78
1554879510192,-7.632714999999999,-0.7763199000000001,5.597045,0.38882150000000004,-0.44421527,-0.4708469,2.16,-26.22,-51.84
1554879510212,-7.3645644,-0.7284359,5.568314599999999,0.4165184,-0.45167214,-0.5113269,2.1,-26.22,-51.9
1554879510232,-7.273585000000001,-0.57999533,5.917868,0.55287224,-0.5049353,-0.5432849000000001,2.04,-26.34,-51.9
1554879510252,-7.608772999999999,-0.43155485,6.1381345000000005,0.62104917,-0.5251754,-0.5816344,2.04,-26.58,-51.9
1554879510272,-7.431602000000001,-0.55605334,6.214748999999999,0.6114618,-0.5773733,-0.63915867,2.04,-26.88,-51.84
1554879510292,-7.062895,-0.52732295,5.994482499999999,0.6317018,-0.62744075,-0.69348717,2.04,-27.3,-51.78
1554879510311,-6.8905125,-0.56563014,6.0806737,0.67324716,-0.660464,-0.72011876,1.98,-27.72,-51.72
1554879510331,-6.622362,-0.44592008,6.095039,0.6924219,-0.6988135,-0.75101143,1.98,-27.9,-51.66
1554879510352,-6.3302693,-0.3645172,6.320094,0.7052050999999999,-0.753142,-0.80107886,1.92,-28.56,-51.6
1554879510372,-6.129156,-0.32142156,6.664859,0.66579026,-0.8159926,-0.8926915999999999,1.86,-29.04,-51.54
1554879510391,-6.0716953,-0.4938041,6.8132997,0.5550028,-0.8298409999999999,-1.0024139,1.8,-29.64,-51.48
1554879510412,-6.0908489999999995,-0.45549688,6.774992500000001,0.47297743,-0.83729786,-1.1195928999999998,1.74,-30.12,-51.42
1554879510432,-6.019023000000001,-0.6757634,6.4924764999999995,0.42397526,-0.83942837,-1.2314457,1.68,-30.6,-51.3
1554879510451,-5.774814599999999,-1.1115081,6.880337,0.37923414,-0.82877576,-1.3241237,1.62,-30.96,-51.18
1554879510472,-6.0621184999999995,-1.5041572,7.277775,0.35153726,-0.773382,-1.3880396000000002,1.56,-31.38,-51.0
1554879510491,-6.105214,-1.8489223000000001,7.5507135,0.35579833,-0.7094661,-1.4434333000000001,1.5,-31.74,-50.82
1554879510512,-6.1483099999999995,-1.6861166,7.325659,0.40053943,-0.6593986999999999,-1.4860438999999999,1.5,-32.04,-50.64
1554879510532,-5.932832,-1.4323312,6.96174,0.4048005,-0.56672066,-1.4668691,1.5,-32.28,-50.46
1554879510551,-5.93762,-2.1458032000000005,7.3065050000000005,0.49215218,-0.39627838,-1.4136058999999999,1.5,-32.4,-50.28
1554879510572,-5.6407394,-1.9446903000000002,7.627327999999999,0.46232477,-0.31851408,-1.5233282,1.56,-32.52,-50.16
1554879510592,-5.5976434,-1.9207484000000001,7.349601,0.45806372,-0.080960095,-1.6096146,1.68,-32.52,-50.04
1554879510611,-5.6551046,-2.0931308,7.421427,0.44101948,0.06604639400000001,-1.6149409,1.98,-32.58,-49.92
1554879510631,-5.5018754,-2.3517046,7.0287776,0.38882150000000004,0.22370553,-1.675661,2.4,-32.46,-49.74
1554879510652,-5.631162000000001,-2.5432408,6.8132997,0.23116238,0.4282363,-1.7853831999999998,2.94,-32.28,-49.5
1554879510672,-5.731719,-2.8209682000000003,6.640917,0.06924219,0.5635249,-1.8184064999999998,3.54,-32.1,-49.32
1554879510692,-5.7125654,-2.9550436,6.865972,0.024501082,0.63915867,-1.8333201000000001,4.26,-31.8,-49.08
1554879510712,-5.947197,-3.1992521000000003,6.899491,-0.0053263223,0.6870956,-1.8024273999999998,4.98,-31.32,-48.84
1554879510731,-6.019023000000001,-3.2662897,6.84203,-0.03089267,0.69774824,-1.7331853,5.88,-30.66,-48.54
1554879510752,-6.133945,-3.2615013,6.885125599999999,0.0010652645,0.62317973,-1.663943,6.9,-29.82,-48.12
1554879510772,-5.7987566,-3.4147300000000005,6.7845693,0.036218993,0.5219796,-1.5733956,7.92,-28.86,-47.76
1554879510792,-5.592855,-3.5296519,6.971317,0.06391586,0.43569317,-1.4966966,8.82,-27.84,-47.34
1554879510811,-5.650316,-3.4626143,6.7845693,0.06924219,0.30679616,-1.4210628,9.72,-26.76,-46.86
1554879510832,-5.5401826,-3.2950199999999996,6.947375,0.099069595,0.17150758,-1.3337111000000001,10.62,-25.62,-46.44
1554879510853,-5.396530599999999,-3.2806550000000003,6.669647,0.15020229,0.033023197000000004,-1.2399678,11.4,-24.42,-45.96
1554879510872,-5.185841,-3.4674027,6.7941460000000005,0.22477080000000002,-0.11824436,-1.1867046,12.3,-23.28,-45.48
1554879510891,-4.903325,-3.7882257000000004,6.923433,0.2790993,-0.27164245,-1.1270498,13.08,-22.14,-44.94
1554879510911,-5.0086699999999995,-3.793014,6.865972,0.24820662,-0.37284255,-1.0887003,13.74,-21.12,-44.52
1554879510932,-5.449203,-3.4530375,6.63134,0.18109496,-0.4857606,-1.0333065000000001,14.28,-20.28,-43.98
1554879510951,-5.2145715,-3.5152867,6.583456,0.13848437,-0.62744075,-0.9438243000000001,14.76,-19.5,-43.62
1554879510971,-4.879383,-4.463390400000001,7.215525,0.10865697,-0.7552725,-0.8223841999999999,15.18,-18.78,-43.32
1554879510992,-4.7453080000000005,-4.583101,7.3065050000000005,0.11717909,-0.8042746999999999,-0.7488809000000001,15.54,-18.18,-43.02
1554879511012,-4.9464207,-4.185663,6.9665284,0.11504856,-0.8681905000000001,-0.7499462,15.78,-17.58,-42.84
1554879511032,-4.759673,-4.31495,7.6369047000000005,0.15446335,-0.96406436,-0.7041398,15.96,-17.1,-42.72
1554879511052,-4.0557775000000005,-4.5256395,7.6608467000000005,0.23435818,-1.019458,-0.5656554,15.96,-16.5,-42.9
1554879511071,-3.9025488,-4.4777555,7.498041000000001,0.25246766,-0.99708754,-0.567786,15.9,-16.38,-43.02
1554879511092,-4.074930999999999,-3.6254199000000003,7.8332295,0.23861924,-0.9321064,-0.5656554,15.66,-15.84,-43.5
1554879511112,-3.9025488,-4.0707417,7.450157000000001,0.31212249999999997,-0.95128113,-0.48043427,15.42,-15.48,-43.74
1554879511131,-3.2896330000000003,-4.329315,7.6608467000000005,0.30360037,-0.9576728000000001,-0.45699844,15.3,-15.36,-43.92
1554879511152,-3.2321722999999998,-3.7116113,7.512406299999999,0.36218992,-0.9033443000000001,-0.44208476,14.82,-14.94,-44.34
1554879511172,-3.1842883,-3.3812113,7.5746554999999995,0.4708469,-0.8990832000000001,-0.37390783,14.34,-14.76,-44.76
1554879511192,-2.5713725,-3.697246,7.9146323,0.4857606,-0.92038846,-0.30786142,13.92,-14.64,-45.12
1554879511211,-1.9440918000000003,-3.6349967000000003,8.446145,0.42290998,-0.9171927,-0.2876214,13.5,-14.52,-45.48
1554879511232,-1.7573439999999998,-3.8265328000000003,8.546700999999999,0.39201729999999996,-0.89375687,-0.30253512,13.26,-14.46,-45.78
1554879511252,-2.0015526,-2.959832,8.350377,0.31318775,-0.8404937,-0.3334278,12.78,-14.52,-46.5
1554879511272,-1.6376339,-3.5440169999999998,8.93935,0.33662358,-0.87351686,-0.32277513,12.42,-14.64,-46.98
1554879511291,-0.79966336,-3.6014779000000003,9.068638,0.386691,-0.8926915999999999,-0.23329292,12.0,-14.94,-47.52
1554879511311,-0.4261679,-3.8361096,9.619304,0.41438788,-0.8522116,-0.22903186,11.52,-15.3,-48.0
1554879511332,-0.24899697,-3.946243,9.375095,0.45380265,-0.8426242,-0.2034655,11.1,-15.66,-48.36
1554879511351,-0.5315128,-3.342904,8.834005,0.4165184,-0.7840345999999999,-0.099069595,10.62,-16.02,-48.66
1554879511371,-0.4261679,-3.1561562999999997,8.690353,0.34727620000000003,-0.77444726,-0.026631612000000002,10.14,-16.32,-48.9
1554879511392,-0.009576807,-3.208829,8.728661,0.07243799,-0.7850999,0.12037488,9.66,-16.68,-49.02
1554879511411,0.08619126,-3.5392287000000002,9.097368,-0.1438107,-0.77125144,0.15765914,9.18,-16.98,-49.14
1554879511432,0.11492168,-3.7307648999999996,9.217078,-0.3717773,-0.77444726,0.16831179,8.7,-17.22,-49.26
1554879511451,0.18195933,-4.147355999999999,9.499594,-0.48682585,-0.75101143,0.20240025,8.22,-17.4,-49.44
1554879511471,0.19632454,-4.410718,9.432556,-0.45593318,-0.71159667,0.22796659,7.74,-17.52,-49.68
1554879511491,0.18195933,-4.348469000000001,9.063849000000001,-0.3270362,-0.5901565,0.27803403,7.38,-17.7,-49.92
1554879511512,-0.05267244,-4.223970400000001,8.905831,-0.23329292,-0.47510794,0.30253512,7.02,-17.88,-50.16
1554879511532,-0.11492168,-4.233547,8.929772999999999,-0.18535602,-0.386691,0.30679616,6.6,-18.0,-50.46
1554879511551,-0.30166942,-4.2814309999999995,9.030331,-0.19920446,-0.31318775,0.27164245,6.18,-18.12,-50.76
1554879511571,-0.5506664000000001,-4.252701,8.953716,-0.23861924,-0.2545982,0.23435818,5.64,-18.18,-51.12
1554879511592,-0.5410896,-4.300585,8.652046,-0.28655612,-0.18961707,0.23435818,5.16,-18.24,-51.42
1554879511611,-0.6607997,-4.472967,8.752603,-0.34514567,-0.12996227,0.26418558,4.8,-18.24,-51.72
1554879511633,-0.6512229,-4.6692919999999996,8.958505,-0.4101268,-0.113983296,0.30146983,4.5,-18.18,-51.9
1554879511652,-0.7230489,-4.894346700000001,8.968081,-0.42717105,-0.1107875,0.34514567,4.14,-18.12,-52.08
1554879511672,-0.81881696,-5.148132299999999,8.905831,-0.37284255,-0.11930962,0.4016047,3.96,-17.94,-52.26
1554879511691,-0.81402856,-5.3157263,9.068638,-0.26312032,-0.14168017,0.47297743,3.78,-17.76,-52.38
1554879511711,-0.78529817,-5.406706,9.178771000000001,-0.10972224,-0.1768339,0.5475459,3.72,-17.64,-52.5
1554879511731,-0.5506664000000001,-5.468955,9.121310000000001,0.10333065,-0.18216023,0.6178534000000001,3.6,-17.4,-52.5
1554879511751,-0.49320555,-5.502473999999999,9.279327,0.27377295,-0.15233281,0.69348717,3.42,-17.22,-52.5
1554879511771,-0.37349546,-5.373187000000001,9.020754,0.39201729999999996,-0.10972224,0.72011876,3.18,-17.1,-52.56
1554879511791,-0.24420857,-5.239112,8.843582000000001,0.46552056,-0.049002163,0.72011876,2.94,-16.98,-52.56
1554879511812,-0.16280572,-4.947019,8.6712,0.5113269,0.049002163,0.72970617,2.7,-17.16,-52.68
1554879511832,-0.1436521,-4.7219644,8.364742,0.47297743,0.16937704,0.70200926,2.46,-17.4,-52.8
1554879511851,-0.37349546,-4.291008000000001,8.024766,0.34940675,0.27377295,0.6317018,2.16,-17.7,-52.98
1554879511871,-0.33518824,-3.9845502,7.790133999999999,0.1768339,0.34940675,0.5635249,1.92,-18.06,-53.1
1554879511891,-0.545878,-3.9318779000000004,7.7183075,0.008522116,0.40266997,0.4889564,1.68,-18.42,-53.28
1554879511912,-0.7565677,-4.0420110000000005,7.6369047000000005,-0.08522116,0.43462790000000007,0.39627838,1.56,-18.9,-53.4
1554879511931,-0.82360536,-4.209605000000001,7.7709804,-0.13209279,0.43888897,0.30466563,1.5,-19.38,-53.52
1554879511951,-0.90021986,-4.267066000000001,7.9577279999999995,-0.16937704,0.41225734,0.20772657,1.44,-19.98,-53.58
1554879511972,-1.3359646,-4.247912400000001,8.288128,-0.18642128,0.38882150000000004,0.17470337,1.38,-20.22,-53.58
1554879511992,-1.4173675,-4.3388919999999995,8.254609,-0.20240025,0.34621096,0.16831179,1.38,-20.34,-53.46
1554879512011,-1.4652513999999999,-4.324527,8.345589,-0.18216023,0.31318775,0.18002969,1.38,-20.4,-53.46
1554879512032,-1.5131354,-4.43466,8.302493,-0.099069595,0.27164245,0.22050974,1.38,-20.46,-53.34
1554879512052,-1.4796166000000002,-4.329315,8.230667,-0.054328485999999995,0.25566345,0.23968449999999997,1.38,-20.4,-53.22
1554879512071,-1.6711528000000002,-4.200028400000001,8.206725,0.0,0.25140239999999997,0.25140239999999997,1.38,-20.22,-53.1
1554879512091,-1.7860744999999998,-4.152144399999999,8.134899,0.037284255,0.23861924,0.25992453,1.44,-20.1,-52.98
1554879512112,-1.9776106,-4.013280399999999,8.096592,0.029827405,0.22370553,0.23009712,1.44,-19.98,-52.92
1554879512132,-2.0733786,-3.8600516000000002,8.077438,0.0010652645,0.21624869,0.19920446,1.56,-19.86,-52.8
1554879512152,-2.2505496,-3.9797617999999995,8.197148,-0.04580637,0.221575,0.17576863,1.68,-19.74,-52.74
1554879512171,-2.3798366,-4.109049,8.532336,-0.05965481,0.22050974,0.13635385,1.8,-19.62,-52.62
1554879512191,-2.4229321,-4.1425676,8.656835000000001,-0.06285059999999999,0.221575,0.099069595,1.86,-19.56,-52.56
1554879512212,-2.1643584,-4.429871599999999,8.805275,-0.098004326,0.22796659,0.082025364,1.98,-19.62,-52.5
1554879512233,-2.183512,-4.5352163,8.585009,-0.12996227,0.25992453,0.068176925,2.04,-19.62,-52.5
1554879512252,-2.3750482,-4.4777555,8.345589,-0.15233281,0.31957933,0.082025364,2.22,-19.62,-52.5
1554879512271,-2.336741,-4.291008000000001,8.379107000000001,-0.16724652,0.3568636,0.10333065,2.34,-19.62,-52.5
1554879512291,-2.4660277,-4.3436804,8.321647,-0.24820662,0.43995422,0.14487597,2.4,-19.62,-52.5
1554879512311,-2.695871,-4.228758999999999,8.3312235,-0.33875409999999995,0.47830373,0.16405073,2.52,-19.62,-52.56
1554879512331,-2.8203697,-4.3724110000000005,8.240244,-0.43356264,0.50813115,0.16724652,2.7,-19.62,-52.56
1554879512351,-2.8155810000000003,-4.5687356,8.134899,-0.46552056,0.5230448000000001,0.17257284,2.82,-19.62,-52.56
1554879512372,-2.882619,-4.7698483,8.096592,-0.45060685,0.5187838,0.18429075,3.0,-19.56,-52.56
1554879512391,-2.9209259999999997,-5.00448,8.10138,-0.41864893,0.5230448000000001,0.19707392,3.12,-19.5,-52.5
1554879512411,-2.9879637000000003,-4.947019,7.996035000000001,-0.4079963,0.5230448000000001,0.2066613,3.3,-19.38,-52.5
1554879512431,-2.9400797,-5.0523643,7.8428062999999995,-0.42077947,0.5422196,0.24181503,3.42,-19.26,-52.44
1554879512452,-3.098097,-5.09546,7.9098440000000005,-0.39521313,0.5496765,0.28442562,3.54,-19.08,-52.44
1554879512471,-3.241749,-4.9757495,7.5267715,-0.37923414,0.53263223,0.3270362,3.72,-18.84,-52.38
1554879512492,-3.3566709,-5.0140567,7.378331,-0.39947417,0.49641323,0.36964676,4.02,-18.54,-52.38
1554879512511,-3.4859576,-4.923076999999999,7.258621000000001,-0.39308259999999995,0.4261058,0.39627838,4.32,-18.18,-52.38
1554879512531,-3.5003227999999997,-4.7842135,7.3208704,-0.31212249999999997,0.35153726,0.41438788,4.68,-17.7,-52.38
1554879512553,-3.5338415999999997,-4.741118,7.301717,-0.15126756,0.26418558,0.45806372,5.22,-16.92,-52.32
1554879512572,-3.5098996,-4.6501384,7.0048356,-0.02130529,0.21731395,0.47404268,5.4,-16.68,-52.32
1554879512591,-3.490746,-4.621408,6.909067599999999,0.13635385,0.14168017,0.47723848,5.7,-16.2,-52.26
1554879512611,-3.5098996,-4.6405616,6.774992500000001,0.29827404,0.05752428,0.45486793,5.94,-15.78,-52.14
1554879512633,-3.4955344,-4.707599,6.894702400000001,0.4889564,-0.049002163,0.4282363,6.18,-15.42,-52.08
1554879512652,-3.4476504,-4.544793599999999,6.875549,0.62744075,-0.15233281,0.3568636,6.24,-15.18,-52.02
1554879512671,-3.323152,-4.152144399999999,6.923433,0.7126619000000001,-0.23755397,0.26631612,6.3,-15.12,-51.96
1554879512691,-3.6727053999999995,-3.8504747999999998,6.602609599999999,0.7339671999999999,-0.28975195,0.20453078,6.3,-15.24,-51.84
1554879512712,-3.4859576,-3.9653966,7.038354400000001,0.67218184,-0.294013,0.17363810000000002,6.3,-15.54,-51.78
1554879512731,-3.5434184,-3.6206315000000004,7.0670850000000005,0.5400891,-0.294013,0.10652645,6.24,-16.02,-51.66
1554879512752,-3.394978,-3.4195184999999997,7.2729864,0.15659387,-0.24394555,-0.015978966,6.12,-16.86,-51.54
1554879512771,-3.3614593,-3.2471360000000002,7.665635000000001,-0.111852765,-0.17257284,-0.049002163,6.12,-17.16,-51.48
1554879512791,-3.466804,-3.6924577000000003,7.838017999999999,-0.46125950000000004,-0.082025364,-0.05539375,6.0,-17.88,-51.42
1554879512812,-3.7541082,-4.228758999999999,8.134899,-0.7435546,0.0063915867,-0.07669904,5.88,-18.78,-51.36
1554879512833,-3.8019924,-4.540005000000001,8.446145,-0.7435546,0.054328485999999995,-0.06711166,5.76,-19.26,-51.3
1554879512851,-3.6679169999999996,-4.635773,8.441357,-0.5496765,0.09161274,-0.049002163,5.7,-19.62,-51.3
1554879512872,-3.7732617999999993,-4.621408,8.31207,-0.314253,0.12783173,-0.026631612000000002,5.58,-19.74,-51.36
1554879512892,-3.7205894,-4.7219644,8.3312235,-0.08522116,0.12676647,-0.03089267,5.46,-19.56,-51.48
1554879512912,-3.7349546,-4.3436804,7.8092875,0.11504856,0.10013486,-0.084155895,5.34,-19.2,-51.54
1554879512932,-3.5290532,-4.252701,7.804499000000001,0.15446335,0.099069595,-0.13315806,5.28,-18.72,-51.66
1554879512951,-3.7349546,-4.0037036,7.493252799999999,0.18961707,0.11717909,-0.1768339,5.22,-18.24,-51.78
1554879512971,-3.8833952000000003,-4.0276456,7.1963716,0.10546118,0.11930962,-0.17150758,5.28,-17.76,-51.84
1554879512992,-4.0174704,-4.152144399999999,7.3591776,-0.04474111,0.128897,-0.16298546,5.28,-17.34,-51.9
1554879513012,-4.0318356,-4.3724110000000005,7.2969284,-0.16405073,0.10546118,-0.19387813,5.34,-16.98,-51.96
1554879513032,-3.9935283999999998,-4.4538136,7.4645224,-0.21944448,0.08841695,-0.20985709,5.4,-16.74,-51.96
1554879513051,-3.8881836000000005,-4.635773,7.392696400000001,-0.19387813,0.10013486,-0.20026971,5.52,-16.74,-51.9
1554879513071,-3.8929720000000003,-4.707599,7.392696400000001,-0.15659387,0.10759171,-0.19813919,5.7,-16.8,-51.9
1554879513092,-3.9217023999999996,-4.827309,7.435792,-0.1107875,0.12463594,-0.2034655,5.82,-16.86,-51.9
1554879513111,-3.7924154000000003,-4.9996915,7.124545599999999,-0.11717909,0.13741912,-0.15978967,5.94,-16.86,-51.9
1554879513132,-3.8115692,-4.932654,7.033566,-0.165116,0.15978967,-0.13635385,5.94,-16.8,-51.84
1554879513152,-3.739743,-5.0427876,7.258621000000001,-0.17363810000000002,0.17896444,-0.11717909,6.0,-16.68,-51.84
1554879513171,-3.7924154000000003,-4.9518075,7.1580644,-0.082025364,0.17150758,-0.11717909,6.06,-16.5,-51.84
1554879513191,-3.8881836000000005,-4.841674299999999,6.9904703999999995,0.00958738,0.1438107,-0.12783173,6.12,-16.32,-51.78
1554879513212,-3.8738184,-4.64535,6.947375,0.06178534,0.09587380000000001,-0.13635385,6.18,-16.08,-51.78
1554879513232,-3.7301662,-4.8225207,7.114969,0.0053263223,0.098004326,-0.13848437,6.3,-15.9,-51.72
1554879513251,-3.7828386,-4.779425,7.215525,-0.036218993,0.101200126,-0.13954964,6.3,-15.72,-51.66
1554879513271,-3.8594532,-4.741118,7.330447,-0.023435817999999997,0.094808534,-0.17044231,6.42,-15.54,-51.66
1554879513294,-3.8163576,-4.64535,7.105392,0.029827405,0.06924219,-0.21092236,6.54,-15.48,-51.6
1554879513311,-3.9983168,-4.4921207,7.153275999999999,-0.012783173500000002,0.07030745599999999,-0.2066613,6.66,-15.36,-51.54
1554879513332,-3.8786068,-4.611831,7.023989,-0.17150758,0.05752428,-0.20453078,6.72,-15.3,-51.54
1554879513352,-3.9504328,-4.7602715,7.08145,-0.3206446,0.07882957,-0.18109496,6.78,-15.3,-51.48
1554879513372,-4.1659107,-4.7123876,7.1006035999999995,-0.39308259999999995,0.07989483,-0.13315806,6.9,-15.18,-51.42
1554879513392,-4.1276035,-5.00448,7.0527196,-0.45273739999999996,0.05752428,-0.10652645,6.9,-15.12,-51.42
1554879513411,-4.1611223,-5.1529207,6.96174,-0.51452273,0.025566347000000003,-0.08841695,7.02,-14.94,-51.36
1554879513432,-4.0940847,-5.3396683,6.937798,-0.46019423,-0.03195793,-0.101200126,7.08,-14.52,-51.3
1554879513451,-3.9695864000000003,-5.2582655,7.033566,-0.36432046,-0.06604639400000001,-0.10013486,7.08,-14.4,-51.3
1554879513471,-3.9408559999999997,-5.4545900000000005,7.2203135,-0.22370553,-0.07030745599999999,-0.06391586,7.14,-13.92,-51.18
1554879513492,-3.8163576,-5.48332,7.3065050000000005,-0.11611383,-0.04261058,-0.03089267,7.2,-13.62,-51.18
1554879513511,-4.003105000000001,-5.4545900000000005,7.2969284,-0.0031957934000000003,-0.02876214,-0.035153727999999995,7.26,-13.32,-51.12
1554879513531,-3.98874,-5.612607499999999,7.038354400000001,0.10972224,-0.025566347000000003,-0.047936900000000005,7.26,-13.02,-51.06
1554879513551,-4.0174704,-5.5647235,7.062296400000001,0.16405073,-0.010652645,-0.03195793,7.26,-12.72,-51.06
1554879513571,-4.0940847,-5.325303,6.9665284,0.21624869,-0.026631612000000002,-0.004261058,7.26,-12.54,-51.0
1554879513592,-3.9647980000000005,-5.2582655,6.885125599999999,0.25246766,-0.05539375,0.0063915867,7.2,-12.42,-51.0
1554879513611,-3.8355112,-5.2103815,6.880337,0.22370553,-0.07350325,0.05006743,7.14,-12.3,-51.06
1554879513631,-3.6679169999999996,-5.2726307,6.865972,0.14487597,-0.07350325,0.1107875,7.08,-12.24,-51.06
1554879513651,-3.8115692,-5.607819,6.502053299999999,0.094808534,-0.10652645,0.15446335,7.02,-12.3,-51.06
1554879513672,-3.7828386,-5.3971290000000005,6.746262,0.012783173500000002,-0.13209279,0.18109496,7.02,-12.42,-51.06
1554879513691,-3.7110126000000005,-4.9757495,6.4685345000000005,-0.08522116,-0.19813919,0.12783173,7.02,-12.6,-51.06
1554879513711,-3.8833952000000003,-4.8799815,6.51163,-0.221575,-0.20772657,0.11504856,6.96,-12.78,-51.06
1554879513731,-3.9504328,-5.1146135,6.502053299999999,-0.30466563,-0.23116238,0.13422333,6.96,-12.96,-51.12
1554879513751,-3.6631286,-5.191228,6.3584013,-0.42290998,-0.24181503,0.14274544,6.9,-13.08,-51.12
1554879513771,-3.7110126000000005,-5.3396683,6.6744356,-0.5550028,-0.18642128,0.08628642,6.9,-13.14,-51.12
1554879513792,-3.7876269999999996,-5.5982423,6.995259,-0.60933125,-0.12570119999999999,0.10546118,6.84,-13.08,-51.12
1554879513811,-3.6343982000000006,-5.6509147,7.344812400000001,-0.5773733,-0.080960095,0.09267801,6.72,-13.02,-51.12
1554879513831,-3.7014358,-5.7227407,7.392696400000001,-0.42077947,-0.039414786,0.007456851,6.66,-12.78,-51.18
1554879513851,-3.9983168,-5.4498014,7.244256,-0.16724652,-0.05006743,-0.054328485999999995,6.54,-12.48,-51.24
1554879513871,-3.8977604,-5.1816510000000005,6.96174,0.2034655,-0.049002163,-0.111852765,6.48,-12.12,-51.36
1554879513892,-3.5817258,-5.4593782,7.1963716,0.38029942,0.02130529,-0.10546118,6.42,-11.76,-51.42
1554879513911,-3.5625722,-5.555146700000001,7.330447,0.49641323,0.07882957,-0.06924219,6.3,-11.52,-51.48
1554879513932,-3.5960910000000004,-5.7466826,7.2873516,0.531567,0.09374327,-0.053263225,6.24,-11.34,-51.6
1554879513951,-3.5529952000000007,-5.325303,7.459734,0.43782368,0.056459017,-0.11504856,6.12,-11.16,-51.66
1554879513971,-3.5769374,-4.8225207,7.071872999999999,0.21944448,0.0,-0.16831179,6.06,-11.04,-51.72
1554879513991,-3.6822822,-4.6692919999999996,6.889914,-0.02876214,-0.012783173500000002,-0.08841695,6.0,-10.98,-51.72
1554879514011,-3.6966474000000002,-5.0427876,6.894702400000001,-0.30040458,-0.004261058,0.096939065,5.94,-11.1,-51.72
1554879514032,-4.074930999999999,-4.980538,6.4541693,-0.45593318,0.024501082,0.16405073,5.88,-11.22,-51.72
1554879514051,-3.7828386,-5.2199583,6.593033,-0.716923,-0.024501082,0.040480047000000005,5.82,-11.46,-51.72
1554879514072,-3.6774937999999993,-5.1768627,6.583456,-0.7797736,0.014913702,0.058589544,5.82,-11.64,-51.72
1554879514091,-3.9504328,-5.689222,6.7223196,-0.7861651999999999,0.07456851,0.1107875,5.82,-11.76,-51.66
1554879514111,-3.8259343999999995,-6.14412,6.367978,-0.81705785,0.033023197000000004,0.14807177,5.82,-11.82,-51.66
1554879514131,-3.7493198,-6.168062,6.1716533,-0.7414241,0.0,0.12357068,5.82,-11.76,-51.66
1554879514151,-3.8881836000000005,-6.201581,6.095039,-0.664725,-0.034088463,0.05752428,5.88,-11.46,-51.66
1554879514172,-3.6487634,-6.139332,6.1381345000000005,-0.6040049,-0.054328485999999995,0.002130529,5.76,-10.98,-51.72
1554879514191,-3.8786068,-5.895123,6.0088477,-0.57311225,-0.05752428,0.017044231,5.64,-10.5,-51.78
1554879514211,-3.9360676,-5.8089319999999995,5.515642,-0.62744075,-0.08628642,0.07137272,5.46,-9.96,-51.78
1554879514231,-3.9264907999999994,-6.182427400000001,5.37199,-0.8490158000000001,-0.084155895,0.16085494,5.34,-9.42,-51.78
1554879514251,-3.7780502,-6.417059,4.89315,-1.2676646999999999,-0.10333065,0.18642128,5.16,-8.46,-51.84
1554879514271,-3.7876269999999996,-6.4840965,4.926668599999999,-1.4977618000000001,-0.07563378,0.15659387,5.1,-8.04,-51.84
1554879514291,-3.8929720000000003,-6.369175,4.9984946,-1.7246631000000001,-0.06604639400000001,0.15126756,5.04,-6.54,-51.84
1554879514311,-3.6679169999999996,-6.7761892999999995,4.577115,-1.7193368999999998,0.07882957,0.18961707,5.04,-5.52,-51.84
1554879514331,-3.5194763999999994,-7.49445,4.941033999999999,-1.8759307,0.28229508,0.221575,5.1,-4.14,-51.84
1554879514351,-4.103661499999999,-8.069058,5.5922565,-1.9100191999999998,0.36112466,0.14487597,5.16,-2.52,-51.84
1554879514371,-4.1276035,-8.107366,5.3145294000000005,-1.6927053,0.28868666,0.03089267,5.22,-0.84,-51.78
1554879514391,-4.323928400000001,-8.174403,4.7255554,-1.3358417,0.19920446,-0.023435817999999997,5.28,1.08,-51.6
1554879514411,-4.209007,-8.365939,4.7542860000000005,-0.84155893,0.13954964,-0.027696876000000002,5.34,3.06,-51.36
1554879514431,-4.1371803,-8.164826,4.9027267,-0.20240025,0.09161274,-0.029827405,5.34,4.92,-51.06
1554879514452,-4.5633483,-8.308478,5.156512,0.35260254,0.002130529,0.051132694000000006,5.34,6.54,-50.82
1554879514471,-4.189853,-8.5143795,4.3903675,0.8202536,-0.07350325,0.1587244,5.4,7.92,-50.58
1554879514491,-4.0318356,-7.911041,4.7303440000000005,0.9832390999999999,-0.017044231,0.11504856,5.4,8.88,-50.34
1554879514511,-4.338293599999999,-7.0730705,5.0463786,0.98430437,0.008522116,0.0053263223,5.46,9.6,-50.1
1554879514531,-4.510676,-6.5942300000000005,5.075108999999999,0.96939063,-0.054328485999999995,0.06391586,5.46,10.14,-49.86
1554879514551,-4.189853,-7.092224000000001,4.136582,0.92997587,-0.16085494,0.1587244,5.52,10.08,-49.8
1554879514572,-3.7636849999999997,-6.517616,3.0879216,0.5305017,-0.19174760000000002,0.15446335,5.52,9.72,-49.86
1554879514591,-4.31914,-6.656479400000001,3.1501707999999997,-0.21944448,-0.17576863,0.056459017,5.58,9.0,-49.86
1554879514611,-4.0653543,-6.9437833,3.0065188,-0.8309063,-0.2130529,0.082025364,5.58,8.28,-49.92
1554879514631,-4.146757,-7.7626004,3.7487214,-1.1206582,-0.17257284,0.165116,5.58,7.56,-49.98
1554879514651,-4.156333999999999,-7.561487700000001,4.1796775,-1.2463594999999998,-0.13954964,0.15552860000000002,5.58,6.9,-50.04
1554879514672,-4.175488,-7.154473299999999,3.9737763,-1.5478293,-0.101200126,0.12037488,5.52,6.42,-50.1
1554879514691,-4.261679,-7.1879919999999995,3.5476084,-1.6895093999999997,-0.040480047000000005,0.11611383,5.52,6.18,-50.16
1554879514711,-4.0078936,-8.059482000000001,3.413533,-1.5435683,-0.010652645,0.15339808,5.46,6.48,-50.16
1554879514731,-3.6870705999999998,-8.246229,3.7343562000000006,-1.180313,0.04580637,0.033023197000000004,5.34,7.14,-50.04
1554879514751,-4.2760444,-7.4561424,3.7056258,-0.90014845,0.07563378,-0.15552860000000002,5.22,8.16,-49.8
1554879514771,-4.3478703,-7.939771,3.7535098,-0.8490158000000001,0.068176925,0.0,5.04,9.48,-49.62
1554879514792,-4.280833,-9.156025999999999,3.7152026,-0.66365975,0.053263225,0.14274544,4.86,10.8,-49.44
1554879514811,-4.280833,-9.237428999999999,3.7630866000000003,-0.17789917,0.06391586,0.06924219,4.74,12.18,-49.2
1554879514831,-4.4915223,-8.116942,3.4039562000000005,0.25672874,0.06498113,0.039414786,4.56,13.5,-48.96
1554879514851,-4.3957543,-7.5183919999999995,2.8389246,0.406931,0.06604639400000001,0.10439592,4.38,14.52,-48.6
1554879514871,-4.434061499999999,-7.413047,2.6330232999999996,0.2876214,0.09161274,0.14487597,4.26,15.36,-48.3
1554879514891,-4.43885,-7.949348,2.5037365,-0.07776430000000001,0.083090626,0.14274544,4.2,15.96,-48.06
1554879514912,-4.5058875,-8.002021000000001,2.8580782000000005,-0.3717773,0.094808534,0.053263225,4.14,16.32,-47.94
1554879514931,-4.405330999999999,-8.361151,3.5476084,-0.46552056,0.14274544,-0.008522116,4.14,16.44,-47.76
1554879514951,-4.486733999999999,-8.284536,3.1070752,-0.22796659,0.080960095,-0.047936900000000005,4.32,16.5,-47.64
1554879514971,-4.654328,-8.456919000000001,3.413533,-0.09054748,0.06391586,0.007456851,4.5,16.62,-47.52
1554879514991,-4.3861775000000005,-8.073847,2.3840263,-0.10865697,0.04580637,0.007456851,4.56,16.86,-47.4
1554879515011,-4.525041000000001,-8.112153999999999,2.5276785,-0.17044231,0.13741912,-0.051132694000000006,4.68,17.16,-47.4
1554879515032,-4.721366000000001,-7.8248496,1.6178818000000001,-0.20240025,0.18429075,-0.10865697,4.8,17.46,-47.4
1554879515051,-4.6878470000000005,-7.729081599999999,1.2156559,-0.57098174,0.36964676,-0.083090626,4.92,17.76,-47.34
1554879515071,-6.397307,-8.5622635,3.1453824,-1.176052,0.56459016,-0.07563378,4.98,18.12,-47.22
1554879515091,-4.8985367,-8.409035000000001,3.5476084,-0.9012136999999999,0.30786142,-0.05965481,5.1,18.48,-47.04
1554879515112,-4.3957543,-9.448118,3.4422636,0.12037488,0.035153727999999995,0.046871635999999994,5.16,19.14,-46.62
1554879515131,-4.3478703,-9.883863,2.1254525,0.7456851,-0.16192019,0.060720075,5.16,19.38,-46.5
1554879515151,-4.5920787,-7.7769656000000005,1.2826935,1.160073,-0.19813919,0.0053263223,5.22,19.86,-46.26
1554879515171,-5.023035,-7.1305312999999995,1.3210008,0.72970617,-0.21944448,-0.051132694000000006,5.28,20.22,-46.02
1554879515191,-4.7261543,-7.508815299999999,2.0919337,0.18961707,-0.19813919,0.034088463,5.4,20.7,-45.78
1554879515212,-4.2760444,-7.422623599999999,2.4079683,-0.022370555,-0.053263225,0.024501082,5.46,20.76,-45.6
1554879515231,-4.5058875,-7.623736999999999,3.1693244,-0.20026971,0.12996227,0.007456851,5.52,20.7,-45.54
1554879515251,-4.572925,-8.069058,3.3991678,-0.30892670000000005,0.15446335,0.07137272,5.58,20.58,-45.54
1554879515271,-4.6255975,-8.509591,3.4039562000000005,-0.15233281,0.10972224,0.09161274,5.58,20.34,-45.54
1554879515291,-4.4819455,-8.533533,2.949058,0.23435818,0.07882957,0.08841695,5.58,19.98,-45.6
