TimeStamp,Ax,Ay,Az,Gx,Gy,Gz,Mx,My,Mz
1554108465125,-6.2345014,-4.563947,5.7502737,0.2545982,0.09587380000000001,0.19068234,-12.84,-5.94,-46.14
1554108465146,-6.363788,-4.4538136,5.620987,0.2908172,0.068176925,0.18961707,-12.66,-6.18,-46.08
1554108465166,-6.3589997,-4.3819875999999995,5.7502737,0.2908172,0.04261058,0.21092236,-12.54,-6.48,-46.08
1554108465186,-6.445191,-4.3819875999999995,5.7502737,0.2695119,0.035153727999999995,0.24927188,-12.48,-6.6,-46.14
1554108465205,-6.5361705,-4.4538136,5.707178,0.24927188,0.02876214,0.27696875,-12.36,-6.72,-46.14
1554108465225,-6.5122285,-4.3436804,5.7023897,0.21731395,0.025566347000000003,0.29188246,-12.24,-6.84,-46.14
1554108465246,-6.555324000000001,-4.2622776,5.807735,0.18855181,0.013848438000000001,0.3057309,-12.24,-7.14,-46.14
1554108465266,-6.5122285,-4.185663,5.6784476999999995,0.18642128,0.013848438000000001,0.32810146,-12.18,-7.5,-46.2
1554108465286,-6.5840545,-4.1665095999999995,5.6736593,0.20026971,0.025566347000000003,0.33768883,-12.12,-7.92,-46.2
1554108465305,-6.569689299999999,-4.1904516,5.755062000000001,0.21411815,0.022370555,0.34621096,-12.12,-8.28,-46.2
1554108465325,-6.50744,-3.9749733999999997,5.855619,0.18961707,0.018109497,0.36005938,-12.18,-8.7,-46.2
1554108465346,-6.655881,-3.9558197999999996,5.755062000000001,0.084155895,0.035153727999999995,0.37071204,-12.12,-9.36,-46.2
1554108465366,-6.670246000000001,-4.013280399999999,5.6545057,-0.0063915867,0.04261058,0.37603834,-12.12,-9.54,-46.2
1554108465386,-6.6415157,-3.9989154,5.707178,0.033023197000000004,0.026631612000000002,0.39414784,-12.12,-10.14,-46.2
1554108465406,-6.564901,-3.9749733999999997,5.5922565,0.096939065,0.01917476,0.40373522,-12.12,-10.38,-46.2
1554108465425,-6.517017,-3.7594953,5.6018333,0.10439592,0.017044231,0.39414784,-12.12,-10.56,-46.2
1554108465446,-6.4164605,-3.5631707,5.4486045999999995,0.054328485999999995,0.0010652645,0.3749731,-12.06,-10.68,-46.26
1554108465465,-6.655881,-3.5057099999999997,5.644929,-0.018109497,-0.0053263223,0.36218992,-12.06,-10.8,-46.26
1554108465485,-6.555324000000001,-3.4195184999999997,5.5347957999999995,-0.07456851,-0.018109497,0.35153726,-12.06,-10.92,-46.32
1554108465506,-6.564901,-3.3907879999999997,5.5347957999999995,-0.12250541,-0.029827405,0.33129725,-12.06,-10.98,-46.38
1554108465526,-6.459556,-3.4674027,5.458181400000001,-0.12676647,-0.049002163,0.30999196,-12.06,-11.04,-46.44
1554108465546,-6.4020953,-3.342904,5.7790045999999995,-0.08628642,-0.07030745599999999,0.26738137,-12.0,-11.04,-46.5
1554108465566,-6.50744,-3.1848867000000003,5.606621700000001,-0.023435817999999997,-0.084155895,0.21731395,-12.06,-11.1,-46.62
1554108465585,-6.622362,-2.9358897,5.506065400000001,0.0,-0.084155895,0.18002969,-12.06,-11.1,-46.68
1554108465605,-6.703765,-3.0412347,5.558737799999999,-0.039414786,-0.07882957,0.18429075,-12.12,-11.16,-46.74
1554108465628,-6.780379300000001,-3.2136172999999997,5.5539494000000005,-0.11717909,-0.08522116,0.18748654,-12.18,-11.22,-46.8
1554108465646,-6.900089299999999,-3.3907879999999997,5.774216,-0.15233281,-0.094808534,0.16937704,-12.24,-11.22,-46.8
1554108465666,-6.871359,-3.4434607,5.7502737,-0.18216023,-0.101200126,0.14168017,-12.3,-11.28,-46.8
1554108465686,-6.9671270000000005,-3.4674027,5.7215432999999996,-0.19281286,-0.099069595,0.13954964,-12.36,-11.34,-46.8
1554108465705,-7.0102224,-3.5392287000000002,5.7454852999999995,-0.20133498,-0.09161274,0.16618125,-12.48,-11.4,-46.8
1554108465726,-7.105990400000001,-3.615843,5.802946599999999,-0.2066613,-0.07776430000000001,0.21092236,-12.54,-11.46,-46.86
1554108465746,-7.019799000000001,-3.520075,5.846042,-0.20772657,-0.068176925,0.23648871,-12.6,-11.46,-46.86
1554108465766,-7.0724716,-3.6541502,5.6976013,-0.221575,-0.056459017,0.26418558,-12.78,-11.52,-46.86
1554108465785,-7.168239999999999,-3.5775358999999995,5.999271,-0.1949434,-0.035153727999999995,0.31105720000000003,-12.9,-11.52,-46.86
1554108465807,-7.1826053,-3.5775358999999995,5.879561,-0.10013486,-0.027696876000000002,0.35260254,-13.02,-11.52,-46.86
1554108465825,-7.2113357,-3.5679589999999997,5.879561,-0.09161274,-0.0063915867,0.38136467,-13.08,-11.4,-46.86
1554108465845,-7.0102224,-3.4195184999999997,6.013636,-0.09374327,-0.00958738,0.4048005,-13.2,-11.28,-46.86
1554108465866,-7.062895,-3.2806550000000003,5.8412538,-0.041545313,0.008522116,0.43888897,-13.32,-11.16,-46.86
1554108465886,-7.105990400000001,-3.2854433,5.740697,0.0031957934000000003,0.024501082,0.46232477,-13.38,-11.04,-46.86
1554108465906,-7.053317999999999,-3.0986955000000003,5.6784476999999995,0.007456851,0.026631612000000002,0.46658584,-13.44,-10.86,-46.86
1554108465926,-6.9527617,-2.9311013,5.6784476999999995,0.0031957934000000003,0.027696876000000002,0.46658584,-13.44,-10.8,-46.86
1554108465945,-7.077260000000001,-2.7778726000000002,5.7359085,-0.002130529,0.039414786,0.45380265,-13.5,-10.68,-46.86
1554108465965,-7.216124000000001,-2.7012582000000003,5.644929,-0.013848438000000001,0.04580637,0.43569317,-13.5,-10.62,-46.86
1554108465986,-7.2304892999999995,-2.7347770000000002,5.7119665,-0.008522116,0.058589544,0.43782368,-13.56,-10.56,-46.8
1554108466006,-7.1826053,-2.6916811000000003,5.8508306,-0.004261058,0.06924219,0.44315,-13.62,-10.62,-46.8
1554108466026,-7.3071036,-2.533664,5.6018333,-0.037284255,0.083090626,0.43249738,-13.62,-10.62,-46.8
1554108466045,-7.5082164,-2.4474726,5.549161,-0.111852765,0.094808534,0.41758367,-13.68,-10.68,-46.8
1554108466065,-7.656657000000001,-2.4905684,5.5826797,-0.15446335,0.10759171,0.4079963,-13.74,-10.68,-46.74
1554108466085,-7.5321584,-2.5432408,5.6018333,-0.13848437,0.10546118,0.42397526,-13.8,-10.68,-46.74
1554108466106,-7.3549875999999985,-2.3038206000000003,5.6640825,-0.06924219,0.10652645,0.42717105,-13.86,-10.74,-46.68
1554108466126,-7.345411,-2.1505916000000003,5.458181400000001,-0.02130529,0.12463594,0.41119209999999995,-13.92,-10.74,-46.68
1554108466146,-7.513005000000001,-2.0979192,5.467758,-0.018109497,0.13315806,0.3898868,-13.92,-10.74,-46.68
1554108466166,-7.455544000000001,-2.0883423999999997,5.472546599999999,-0.011717908999999999,0.12357068,0.37816888,-13.92,-10.74,-46.62
1554108466186,-7.2975270000000005,-2.1362264,5.4055089999999995,0.012783173500000002,0.10546118,0.3685815,-13.92,-10.68,-46.62
1554108466205,-7.3645644,-1.9111716,5.257068,0.05539375,0.09587380000000001,0.3323625,-13.92,-10.68,-46.62
1554108466226,-7.455544000000001,-1.8201918999999998,5.3528366,0.07669904,0.08628642,0.28336033,-13.8,-10.62,-46.56
1554108466246,-7.335833999999999,-1.8728642,5.37199,0.07989483,0.082025364,0.2609898,-13.74,-10.68,-46.56
1554108466265,-7.3166804,-1.7866731,5.467758,0.15659387,0.080960095,0.23435818,-13.62,-10.74,-46.56
1554108466286,-7.28795,-1.738789,5.510854,0.24501082,0.07030745599999999,0.19920446,-13.56,-10.86,-46.56
1554108466305,-7.3406224,-1.6669630000000002,5.367202,0.27803403,0.06391586,0.15233281,-13.5,-11.04,-46.5
1554108466325,-7.441178999999999,-1.5280992,5.467758,0.26631612,0.060720075,0.10865697,-13.38,-11.22,-46.44
1554108466346,-7.417236999999999,-1.3221979,5.506065400000001,0.2428803,0.056459017,0.06178534,-13.2,-11.34,-46.44
1554108466366,-7.546523599999999,-1.3269863000000002,5.4055089999999995,0.20985709,0.056459017,0.02876214,-13.14,-11.46,-46.44
1554108466385,-7.6231384,-1.2695253999999998,5.3049526,0.1470065,0.040480047000000005,-0.00958738,-13.02,-11.7,-46.32
1554108466405,-7.603985000000001,-1.3269863000000002,5.295376,0.05752428,0.040480047000000005,-0.024501082,-12.96,-11.94,-46.32
1554108466426,-7.4363904000000005,-1.2120646000000002,5.525219,0.0,0.029827405,-0.07030745599999999,-12.9,-12.18,-46.26
1554108466446,-7.4268136,-1.4993688,5.0798974,-0.010652645,0.014913702,-0.10546118,-12.9,-12.36,-46.26
1554108466466,-7.9248075,-1.8058267,5.266645,-0.05219796,0.020240024,-0.08841695,-12.96,-12.54,-46.26
1554108466486,-7.809886,-1.8010383,5.563526,-0.07350325,0.002130529,-0.06711166,-12.96,-12.72,-46.26
1554108466506,-7.5082164,-1.7579426,5.539584,0.029827405,0.007456851,-0.07350325,-13.08,-12.9,-46.26
1554108466526,-7.852981599999999,-1.7962499,5.659294,0.113983296,0.041545313,-0.09054748,-13.14,-13.08,-46.32
1554108466546,-7.891288799999999,-1.216853,5.7646394,0.16831179,0.08735169,-0.15978967,-13.2,-13.26,-46.32
1554108466566,-7.915230800000001,-1.0253168,5.132569999999999,0.24181503,0.09267801,-0.1949434,-13.26,-13.32,-46.32
1554108466586,-7.8003089999999995,-1.2072762,5.3049526,0.1587244,0.12037488,-0.13848437,-13.26,-13.26,-46.32
1554108466605,-7.6375036,-1.3317747,5.252279799999999,0.054328485999999995,0.101200126,-0.10546118,-13.2,-13.26,-46.32
1554108466625,-7.589619,-1.4036007,5.1613,0.008522116,0.07669904,-0.12783173,-13.08,-13.2,-46.32
1554108466646,-7.5800424,-1.5664065,5.137358,-0.013848438000000001,0.04580637,-0.15126756,-13.02,-13.2,-46.32
1554108466665,-7.738060000000001,-1.762731,5.1613,-0.07669904,0.018109497,-0.14807177,-12.96,-13.14,-46.32
1554108466685,-7.632714999999999,-1.7770962,5.1660886,-0.16405073,-0.01917476,-0.13848437,-12.84,-13.2,-46.32
1554108466705,-7.465121000000001,-1.6047136999999998,5.1038394,-0.2609898,-0.05006743,-0.16618125,-12.78,-13.26,-46.26
1554108466725,-7.3406224,-1.6286557,5.146935,-0.3057309,-0.06604639400000001,-0.2066613,-12.66,-13.32,-46.26
1554108466745,-7.383717999999999,-1.5855601000000001,5.482123400000001,-0.221575,-0.06711166,-0.27057716,-12.6,-13.32,-46.26
1554108466766,-7.7907324000000004,-1.6813281999999998,5.242703,-0.15233281,-0.068176925,-0.3323625,-12.54,-13.32,-46.26
1554108466785,-7.632714999999999,-1.7004818,5.1900306,-0.165116,-0.07456851,-0.36112466,-12.48,-13.32,-46.32
1554108466806,-7.5034279999999995,-1.6813281999999998,5.1613,-0.18322548,-0.07030745599999999,-0.39201729999999996,-12.42,-13.2,-46.32
1554108466825,-7.2065472999999995,-1.489792,4.89315,-0.24607609,-0.07989483,-0.43888897,-12.42,-13.02,-46.38
1554108466846,-7.067683000000001,-1.2312181999999998,4.7734394,-0.33875409999999995,-0.11504856,-0.5219796,-12.42,-12.84,-46.38
1554108466865,-6.943185000000001,-1.2360066,4.68246,-0.50173956,-0.15020229,-0.6199839,-12.42,-12.6,-46.44
1554108466887,-6.861782000000001,-1.6765398,4.634576,-0.7850999,-0.20240025,-0.7190535,-12.48,-12.3,-46.5
1554108466906,-6.7133417,-2.0021513,4.5819035,-1.1195928999999998,-0.26418558,-0.813862,-12.54,-12.06,-46.5
1554108466925,-6.6367273,-2.332551,4.222773,-1.4977618000000001,-0.30892670000000005,-0.8863,-12.6,-11.58,-46.56
1554108466946,-6.7612257,-2.8592752999999997,4.4238862999999995,-1.8748653999999998,-0.314253,-0.97258645,-12.66,-10.92,-46.56
1554108466965,-6.861782000000001,-3.6206315000000004,4.5196543,-2.111354,-0.314253,-1.0599382,-12.66,-9.96,-46.56
1554108466985,-6.6941880000000005,-4.300585,4.759074,-2.1614215,-0.31851408,-1.0652645,-12.72,-8.88,-46.56
1554108467005,-6.3446345,-4.6261964,4.6680946,-2.1273332000000003,-0.29827404,-1.0322412,-12.78,-7.56,-46.44
1554108467025,-6.3446345,-4.841674299999999,4.3329067000000006,-2.13479,-0.22264028,-1.0322412,-12.84,-5.82,-46.32
1554108467046,-6.6367273,-5.679645,4.2419267,-2.1379857,-0.13954964,-1.067395,-12.96,-3.72,-46.14
1554108467065,-6.6415157,-6.4457892999999995,4.6633059999999995,-1.9931098000000003,-0.09054748,-1.055677,-13.14,-1.32,-46.02
1554108467086,-6.397307,-6.8863225,4.4382515,-1.6916398999999998,-0.056459017,-0.9896306999999999,-13.44,0.96,-45.84
1554108467106,-6.4499793,-6.9342065,4.2945995,-1.3411678999999999,0.002130529,-0.9150621999999999,-13.74,3.3,-45.6
1554108467125,-6.5840545,-7.283760000000001,4.371214,-0.92997587,0.024501082,-0.87351686,-14.1,5.52,-45.36
1554108467145,-6.497863300000001,-7.5710645,4.5723267,-0.47191215,0.0063915867,-0.8181231,-14.4,7.74,-45.06
1554108467166,-6.703765,-7.662044,4.3903675,-0.08841695,0.002130529,-0.7190535,-14.7,9.9,-44.7
1554108467185,-6.7277070000000005,-7.3364325,4.256292,0.07563378,-0.013848438000000001,-0.62317973,-15.0,11.52,-44.46
1554108467205,-6.588842999999999,-7.2262993,4.2945995,0.10652645,-0.04580637,-0.51026165,-15.36,13.32,-44.04
1554108467226,-6.349423000000001,-7.1448965,4.481347,0.18748654,-0.06285059999999999,-0.41119209999999995,-15.48,14.16,-43.8
1554108467246,-6.1770406,-7.173627000000001,4.4717703,0.350472,-0.07669904,-0.3685815,-15.48,14.52,-43.74
1554108467265,-5.9184665999999995,-6.9102645,4.3281183,0.60293967,-0.09267801,-0.34834146,-15.66,15.0,-43.5
1554108467286,-5.8945246,-6.488885,4.103063,0.7073356,-0.10333065,-0.34514567,-15.78,15.24,-43.38
1554108467305,-5.8179099999999995,-6.3404446,3.7966053,0.6498113,-0.12996227,-0.36005938,-15.96,15.18,-43.32
1554108467326,-5.8801594,-6.3165026,4.2419267,0.4644553,-0.14487597,-0.33449304,-16.08,14.88,-43.32
1554108467346,-5.8945246,-6.4936733,4.280234,0.2908172,-0.15552860000000002,-0.30892670000000005,-16.2,14.52,-43.32
1554108467366,-5.875371,-6.6852098,4.5723267,0.17896444,-0.17363810000000002,-0.2908172,-16.26,14.1,-43.32
1554108467385,-5.851429,-6.6612678,4.5100775,0.16085494,-0.17576863,-0.27057716,-16.38,13.74,-43.32
1554108467406,-5.8801594,-6.7426705,4.744708999999999,0.23222765,-0.18216023,-0.24820662,-16.5,13.32,-43.32
1554108467425,-5.803545,-6.747458999999999,4.6058455,0.29614353,-0.18109496,-0.22796659,-16.62,12.96,-43.38
1554108467445,-5.8083334,-6.8144965,4.6920366,0.33662358,-0.17044231,-0.19920446,-16.74,12.48,-43.5
1554108467467,-5.626374,-6.938994999999999,4.988918,0.37390783,-0.15552860000000002,-0.15978967,-16.92,11.94,-43.74
1554108467486,-5.449203,-6.9246297000000006,4.7925935,0.4644553,-0.13954964,-0.12144015,-17.1,11.52,-43.98
1554108467505,-5.3103394999999995,-6.517616,4.6058455,0.5763081,-0.111852765,-0.099069595,-17.22,11.16,-44.16
1554108467526,-5.2241483,-6.335656,4.7016134,0.58909124,-0.09587380000000001,-0.096939065,-17.4,10.68,-44.4
1554108467546,-5.1379566,-6.1967926,4.577115,0.5773733,-0.07989483,-0.098004326,-17.52,10.2,-44.64
1554108467565,-5.056554,-6.0244102,4.5819035,0.5752428,-0.07776430000000001,-0.10439592,-17.64,9.66,-44.82
1554108467585,-5.090072599999999,-6.033987000000001,4.5675383,0.50173956,-0.06711166,-0.12144015,-17.7,9.06,-44.94
1554108467606,-4.8985367,-5.966949,4.5675383,0.35899413,-0.07243799,-0.1438107,-17.82,8.46,-45.06
1554108467625,-4.975151,-5.837662,4.6393642,0.20026971,-0.05539375,-0.16405073,-17.94,7.98,-45.06
1554108467645,-5.018246700000001,-5.990891,4.768651,0.037284255,-0.04474111,-0.18642128,-18.12,7.44,-45.12
1554108467665,-4.960786,-6.192004,4.9218802,-0.084155895,-0.035153727999999995,-0.20133498,-18.24,6.9,-45.24
1554108467685,-4.9799394999999995,-6.469731299999999,5.213972599999999,-0.12037488,-0.024501082,-0.21198763,-18.36,6.3,-45.3
1554108467706,-4.9703627,-6.3643866,5.122993,-0.10652645,-0.017044231,-0.23222765,-18.48,5.82,-45.3
1554108467725,-5.104438,-6.2925606,5.1038394,-0.07563378,0.002130529,-0.22690132,-18.6,5.34,-45.36
1554108467745,-5.114014599999999,-6.3787518,5.501277,-0.025566347000000003,0.011717908999999999,-0.21198763,-18.72,4.98,-45.42
1554108467766,-5.185841,-6.3643866,5.266645,0.033023197000000004,0.00958738,-0.19600865,-18.9,4.74,-45.54
1554108467785,-5.12838,-6.503250599999999,5.544372599999999,0.053263225,0.017044231,-0.18109496,-19.02,4.5,-45.6
1554108467806,-5.0996494000000006,-6.431424,5.5539494000000005,0.011717908999999999,0.033023197000000004,-0.1587244,-19.08,4.32,-45.66
1554108467825,-5.1666875,-6.517616,5.276222,-0.03195793,0.046871635999999994,-0.14274544,-19.2,4.32,-45.78
1554108467845,-5.118803,-6.517616,5.333683000000001,-0.023435817999999997,0.058589544,-0.12463594,-19.2,4.38,-45.84
1554108467866,-5.0517654,-6.5942300000000005,5.4342394,0.040480047000000005,0.06924219,-0.10439592,-19.26,4.44,-45.9
1554108467886,-5.0421886,-6.431424,5.419874,0.09054748,0.07563378,-0.09161274,-19.32,4.5,-45.96
1554108467906,-5.1475334,-6.282984,5.4342394,0.12570119999999999,0.09054748,-0.10013486,-19.26,4.62,-46.02
1554108467925,-5.133168,-6.225523,5.2474914,0.13635385,0.08948222,-0.094808534,-19.2,4.68,-46.08
1554108467946,-5.056554,-6.3165026,5.156512,0.11824436,0.099069595,-0.06604639400000001,-19.08,4.8,-46.08
1554108467965,-5.0374002,-6.2638300000000005,5.132569999999999,0.08841695,0.10333065,-0.07243799,-19.02,4.92,-46.08
1554108467985,-5.1092260000000005,-6.239888,5.132569999999999,0.051132694000000006,0.10759171,-0.084155895,-19.02,4.92,-46.08
1554108468007,-4.936844000000001,-6.259042,5.0463786,0.06604639400000001,0.10226539,-0.09374327,-18.9,5.04,-46.08
1554108468025,-4.841076,-6.359598,5.099051,0.07989483,0.094808534,-0.09267801,-18.72,5.1,-46.08
1554108468045,-4.8362875,-6.282984,4.835689,0.07882957,0.08948222,-0.10652645,-18.66,5.16,-46.08
1554108468066,-4.917690299999999,-6.259042,5.0320134,0.098004326,0.07137272,-0.13422333,-18.6,5.16,-46.02
1554108468086,-4.802768700000001,-6.158485400000001,4.89315,0.1107875,0.049002163,-0.13954964,-18.54,5.16,-46.02
1554108468106,-4.817133999999999,-6.1632739999999995,5.003283000000001,0.10865697,0.029827405,-0.15020229,-18.48,5.1,-45.96
1554108468125,-4.8267107000000005,-6.172850599999999,4.821324,0.083090626,0.0031957934000000003,-0.17044231,-18.42,4.98,-45.96
1554108468145,-4.7644614999999995,-6.2303114,4.7399206,0.053263225,-0.018109497,-0.18642128,-18.36,4.92,-45.96
1554108468167,-4.6878470000000005,-6.297349,4.969764,0.053263225,-0.03834952,-0.19387813,-18.36,4.8,-45.96
1554108468187,-4.6255975,-6.2781954,4.988918,0.06924219,-0.06285059999999999,-0.2130529,-18.42,4.68,-45.96
1554108468206,-4.5872903,-6.369175,5.036802,0.035153727999999995,-0.09161274,-0.22903186,-18.48,4.62,-45.9
1554108468226,-4.525041000000001,-6.469731299999999,4.9745526,0.008522116,-0.12144015,-0.23542345,-18.48,4.5,-45.9
1554108468246,-4.525041000000001,-6.4793080000000005,5.151723400000001,0.043675844000000005,-0.15020229,-0.24394555,-18.54,4.44,-45.9
1554108468266,-4.4915223,-6.522404,5.213972599999999,0.11824436,-0.17896444,-0.25353295,-18.54,4.44,-45.96
1554108468285,-4.4101195,-6.431424,5.036802,0.19707392,-0.20772657,-0.27057716,-18.6,4.44,-45.9
1554108468305,-4.429273,-6.464943,5.2618566,0.20985709,-0.21944448,-0.2695119,-18.6,4.44,-45.9
1554108468325,-4.3813889999999995,-6.531981,5.4102974,0.22903186,-0.23648871,-0.28655612,-18.66,4.44,-45.84
1554108468346,-4.4819455,-6.512827400000001,5.443816,0.24714136,-0.26312032,-0.3174488,-18.78,4.32,-45.78
1554108468366,-4.6255975,-6.321291,5.309741000000001,0.15233281,-0.27696875,-0.32384038,-18.9,4.2,-45.72
1554108468386,-4.5394063,-6.067506,5.4964886,-0.05965481,-0.27696875,-0.3153183,-19.02,4.02,-45.72
1554108468406,-4.510676,-6.1345434,5.573103,-0.26312032,-0.25566345,-0.3270362,-19.2,3.9,-45.78
1554108468426,-4.606444000000001,-6.3548098,5.960963700000001,-0.35473305,-0.21411815,-0.33662358,-19.38,3.72,-45.96
1554108468445,-4.606444000000001,-6.517616,6.1094040000000005,-0.35260254,-0.17363810000000002,-0.33875409999999995,-19.5,3.54,-46.08
1554108468465,-4.673482,-6.3883285999999995,6.023213,-0.3153183,-0.13102753,-0.35260254,-19.68,3.42,-46.2
1554108468486,-4.5681367,-6.417059,6.0280013,-0.30786142,-0.08841695,-0.3568636,-19.86,3.3,-46.38
1554108468506,-4.534618,-6.531981,5.8987145,-0.39308259999999995,-0.026631612000000002,-0.31105720000000003,-19.98,3.3,-46.5
1554108468526,-4.510676,-6.83365,6.229114,-0.43995422,0.04580637,-0.27483824,-20.1,3.36,-46.62
1554108468545,-4.5633483,-6.8863225,6.1955953,-0.34514567,0.098004326,-0.25246766,-20.16,3.48,-46.74
1554108468565,-4.4005427,-7.0634937,5.807735,-0.24927188,0.13528858,-0.21411815,-20.22,3.54,-46.74
1554108468586,-4.390966000000001,-7.1065892999999996,5.6497173,-0.27590349999999997,0.18535602,-0.15552860000000002,-20.28,3.66,-46.62
1554108468606,-4.261679,-7.255029700000001,5.2618566,-0.38882150000000004,0.21837921,-0.101200126,-20.4,3.78,-46.56
1554108468625,-4.1419687000000005,-7.2215110000000005,5.233126,-0.51984906,0.24607609,-0.05006743,-20.46,4.02,-46.5
1554108468645,-4.036624,-7.379528,5.285799,-0.57098174,0.2695119,-0.02876214,-20.52,4.32,-46.44
1554108468665,-3.98874,-7.4322004,5.089474,-0.46232477,0.27590349999999997,-0.025566347000000003,-20.52,4.62,-46.38
1554108468686,-3.9839516,-7.6045833,4.8979383,-0.21092236,0.28229508,-0.022370555,-20.52,4.98,-46.32
1554108468706,-3.9504328,-7.6285253,4.8165355000000005,0.07350325,0.28442562,-0.04474111,-20.46,5.4,-46.32
1554108468726,-4.0318356,-7.2789717000000005,4.5196543,0.16937704,0.28122982,-0.06711166,-20.4,5.82,-46.26
1554108468747,-4.098873,-6.8288617,4.2610803,-0.036218993,0.2695119,-0.07456851,-20.22,6.42,-46.2
1554108468766,-4.175488,-6.7283053,4.2131963,-0.3206446,0.26844665,-0.06391586,-20.1,6.78,-46.14
1554108468790,-4.232949,-7.3843164,4.409521,-0.50387007,0.23648871,-0.06498113,-19.92,7.02,-46.02
1554108468805,-4.1371803,-7.5950065,4.5483847,-0.45593318,0.20772657,-0.053263225,-19.8,7.2,-45.96
1554108468826,-4.122815,-7.8104844,4.6202106,-0.25033715,0.18109496,-0.05539375,-19.68,7.32,-45.9
1554108468845,-4.2521024,-7.8248496,4.3999443,-0.07350325,0.15659387,-0.053263225,-19.56,7.5,-45.78
1554108468865,-4.405330999999999,-7.7626004,4.5148660000000005,0.015978966,0.13741912,-0.04580637,-19.44,7.68,-45.72
1554108468886,-4.323928400000001,-7.614160000000001,4.433463,0.084155895,0.10652645,-0.026631612000000002,-19.32,7.92,-45.66
1554108468905,-4.223372,-7.341221000000001,4.4286747,0.12676647,0.08735169,-0.002130529,-19.2,8.1,-45.6
1554108468925,-4.338293599999999,-7.317278999999999,4.4382515,0.13741912,0.084155895,-0.0031957934000000003,-19.08,8.34,-45.54
1554108468945,-4.247314,-7.259817999999999,4.466982,0.16085494,0.08735169,-0.008522116,-19.02,8.52,-45.48
1554108468966,-4.2042184,-7.3699512,4.4621935,0.27377295,0.09161274,-0.03089267,-18.9,8.7,-45.42
1554108468985,-4.1276035,-7.0970125,4.481347,0.3685815,0.09587380000000001,-0.05539375,-18.84,8.82,-45.42
1554108469005,-4.1946416,-6.843227000000001,4.217984700000001,0.3898868,0.09161274,-0.09054748,-18.78,8.88,-45.42
1554108469025,-4.098873,-6.7187285,4.0695443,0.29827404,0.10972224,-0.11611383,-18.72,8.88,-45.42
1554108469045,-4.1515455,-6.8049197,4.11264,0.16831179,0.13848437,-0.13848437,-18.72,8.82,-45.42
1554108469066,-4.1659107,-6.996455999999999,4.2850223,-0.00958738,0.12463594,-0.16831179,-18.66,8.7,-45.42
1554108469085,-4.209007,-6.9916677,4.160524,-0.09161274,0.14061491,-0.18748654,-18.66,8.46,-45.48
1554108469105,-4.309563,-7.259817999999999,4.419098,-0.10865697,0.13102753,-0.21198763,-18.54,8.22,-45.54
1554108469125,-4.247314,-7.4034699999999996,4.529230999999999,-0.083090626,0.12144015,-0.18429075,-18.42,7.98,-45.6
1554108469146,-4.3861775000000005,-7.542333999999999,4.5100775,-0.07563378,0.11717909,-0.17150758,-18.3,7.74,-45.66
1554108469165,-4.525041000000001,-7.451353999999999,4.5962687,-0.058589544,0.10972224,-0.1768339,-18.12,7.5,-45.72
1554108469185,-4.606444000000001,-7.508815299999999,4.5819035,-0.013848438000000001,0.082025364,-0.17789917,-18.0,7.26,-45.72
1554108469205,-4.606444000000001,-7.3603745,4.481347,0.014913702,0.05219796,-0.17470337,-17.82,7.14,-45.78
1554108469225,-4.606444000000001,-7.1688385,4.4286747,-0.0031957934000000003,0.00958738,-0.18002969,-17.7,7.02,-45.84
1554108469246,-4.711789,-7.2023573,4.3424835,-0.07030745599999999,-0.017044231,-0.19068234,-17.58,7.08,-45.78
1554108469265,-4.8458643,-7.398681599999999,4.466982,-0.12463594,-0.06711166,-0.17789917,-17.52,7.14,-45.78
1554108469285,-4.7548847,-7.4992385,4.5435963,-0.10865697,-0.10652645,-0.14807177,-17.46,7.14,-45.72
1554108469305,-4.663905000000001,-7.374739599999999,4.4957123,-0.040480047000000005,-0.128897,-0.13209279,-17.4,7.2,-45.72
1554108469325,-4.7644614999999995,-7.379528,4.409521,-0.012783173500000002,-0.15126756,-0.10865697,-17.34,7.26,-45.66
1554108469345,-4.644751,-7.4609309999999995,4.4143095,-0.06604639400000001,-0.15126756,-0.068176925,-17.34,7.26,-45.6
1554108469365,-4.5633483,-7.5183919999999995,4.481347,-0.08841695,-0.14487597,-0.04474111,-17.4,7.26,-45.6
1554108469385,-4.43885,-7.5758529999999995,4.6154222,-0.040480047000000005,-0.13209279,-0.015978966,-17.46,7.26,-45.54
1554108469405,-4.343082,-7.4322004,4.5723267,0.047936900000000005,-0.10972224,0.0063915867,-17.58,7.2,-45.48
1554108469425,-4.271256,-7.2023573,4.3664255,0.08628642,-0.07989483,0.012783173500000002,-17.76,7.2,-45.36
1554108469446,-4.223372,-7.2789717000000005,4.361637,0.06178534,-0.06498113,0.007456851,-17.88,7.2,-45.3
1554108469465,-4.1802763999999994,-7.1927805,4.217984700000001,-0.026631612000000002,-0.046871635999999994,0.007456851,-18.0,7.2,-45.18
1554108469485,-4.1611223,-7.269394999999999,4.055179,-0.113983296,-0.04474111,-0.0053263223,-18.18,7.2,-45.12
1554108469505,-4.19943,-7.4034699999999996,4.2610803,-0.15978967,-0.053263225,-0.014913702,-18.3,7.2,-45.0
1554108469525,-4.0892963,-7.508815299999999,4.2898107,-0.15978967,-0.06604639400000001,-0.008522116,-18.42,7.2,-44.94
1554108469546,-4.0318356,-7.4465656000000005,4.194042700000001,-0.18855181,-0.08628642,-0.007456851,-18.48,7.2,-44.88
1554108469565,-3.9935283999999998,-7.3938932,4.1317935,-0.23222765,-0.09161274,-0.010652645,-18.54,7.2,-44.94
1554108469585,-4.074930999999999,-7.441777,4.2754455,-0.28975195,-0.10333065,-0.007456851,-18.54,7.2,-44.94
1554108469605,-4.060566000000001,-7.417835,4.208408,-0.33129725,-0.13741912,-0.013848438000000001,-18.66,7.2,-45.0
1554108469626,-4.122815,-7.4274119999999995,4.117428299999999,-0.36432046,-0.165116,-0.036218993,-18.72,7.2,-45.0
1554108469645,-4.1132383,-7.4034699999999996,4.1222167,-0.39521313,-0.18322548,-0.05539375,-18.78,7.26,-45.0
1554108469665,-4.0797195,-7.681197599999999,4.2658687,-0.3206446,-0.20133498,-0.07669904,-18.9,7.32,-45.0
1554108469685,-3.98874,-7.8248496,4.246715,-0.22264028,-0.2034655,-0.07137272,-19.02,7.44,-44.94
1554108469705,-4.146757,-7.772177,4.1844660000000005,-0.2130529,-0.18748654,-0.07456851,-19.14,7.62,-44.88
1554108469725,-4.0701427,-7.566275999999999,4.2658687,-0.30040458,-0.18322548,-0.09267801,-19.26,7.86,-44.82
1554108469745,-4.1180267,-7.839214999999999,3.9211037,-0.4048005,-0.17896444,-0.082025364,-19.32,8.16,-44.7
1554108469766,-4.0701427,-8.06427,4.0120835,-0.44954160000000004,-0.18109496,-0.07137272,-19.44,8.58,-44.64
1554108469785,-4.0174704,-8.059482000000001,4.079121,-0.44741106,-0.16298546,-0.05539375,-19.5,9.12,-44.52
1554108469805,-3.98874,-7.992444,4.11264,-0.41438788,-0.1438107,-0.043675844000000005,-19.56,9.84,-44.4
1554108469825,-4.189853,-8.193557,4.1557355000000005,-0.31318775,-0.11611383,-0.03834952,-19.56,10.5,-44.28
1554108469845,-4.0653543,-8.140884,4.174889,-0.11930962,-0.10226539,-0.029827405,-19.56,11.16,-44.16
1554108469866,-3.9935283999999998,-8.030750999999999,3.8013937000000007,-0.0031957934000000003,-0.098004326,-0.007456851,-19.62,11.7,-44.04
1554108469885,-4.0174704,-7.848791599999999,3.7535098,0.00958738,-0.080960095,0.018109497,-19.68,12.3,-43.92
1554108469906,-4.0892963,-7.896675599999999,3.6098576,-0.083090626,-0.07669904,0.03089267,-19.74,12.78,-43.8
1554108469926,-4.0174704,-8.030750999999999,3.863643,-0.101200126,-0.08628642,0.046871635999999994,-19.86,13.14,-43.68
1554108469945,-3.8929720000000003,-8.126519,3.9163153,-0.046871635999999994,-0.08948222,0.06711166,-19.98,13.38,-43.62
1554108469965,-3.8546648,-7.939771,4.0695443,0.03195793,-0.07776430000000001,0.06498113,-20.1,13.5,-43.62
1554108469985,-3.7588966,-7.9301944,4.222773,0.08522116,-0.051132694000000006,0.04580637,-20.16,13.56,-43.62
1554108470006,-3.7541082,-7.939771,4.2850223,0.13102753,-0.035153727999999995,0.033023197000000004,-20.22,13.56,-43.62
1554108470025,-3.8450879999999996,-7.949348,4.136582,0.19281286,-0.002130529,0.017044231,-20.22,13.62,-43.68
1554108470046,-3.9791632000000003,-7.848791599999999,3.9737763,0.21198763,0.011717908999999999,0.002130529,-20.16,13.68,-43.68
1554108470065,-3.9073372,-7.844003,3.9881415000000002,0.21092236,0.015978966,-0.004261058,-20.04,13.68,-43.68
1554108470085,-4.0318356,-7.887099,4.1557355000000005,0.21837921,0.03195793,-0.0063915867,-19.92,13.74,-43.74
1554108470106,-3.9408559999999997,-7.887099,4.160524,0.33555830000000003,0.039414786,-0.043675844000000005,-19.8,13.74,-43.74
1554108470127,-4.0270470000000005,-7.709928,4.194042700000001,0.42290998,0.035153727999999995,-0.06391586,-19.62,13.74,-43.74
1554108470145,-3.98874,-7.647678999999999,4.1413703,0.44421527,0.020240024,-0.068176925,-19.5,13.74,-43.74
1554108470166,-4.0174704,-7.599794999999999,4.064756,0.4079963,0.011717908999999999,-0.068176925,-19.44,13.68,-43.74
1554108470185,-4.074930999999999,-7.6189485,4.160524,0.35473305,-0.007456851,-0.07137272,-19.5,13.5,-43.74
1554108470205,-4.0940847,-7.7386584,4.0695443,0.35153726,-0.034088463,-0.06924219,-19.56,13.26,-43.8
1554108470230,-4.2425256,-7.5375457,4.0503907,0.32170987,-0.07456851,-0.05006743,-19.62,12.84,-43.92
1554108470246,-4.098873,-7.417835,4.1461587,0.31851408,-0.09374327,-0.051132694000000006,-19.68,12.66,-43.92
1554108470265,-4.098873,-7.4034699999999996,4.1461587,0.28868666,-0.11611383,-0.051132694000000006,-19.74,12.3,-44.04
1554108470285,-4.0940847,-7.341221000000001,4.103063,0.16192019,-0.12570119999999999,-0.034088463,-19.86,11.88,-44.1
1554108470306,-4.0892963,-7.317278999999999,4.088698,-0.06604639400000001,-0.11824436,0.014913702,-19.98,11.4,-44.16
1554108470327,-4.10845,-7.4992385,4.586692,-0.084155895,-0.10439592,-0.03089267,-20.1,10.86,-44.28
1554108470347,-3.9839516,-7.5136037,4.955399,0.05965481,-0.08735169,-0.043675844000000005,-20.16,10.5,-44.28
1554108470366,-3.8450879999999996,-7.436989,4.7399206,0.25885928,-0.07456851,-0.07243799,-20.22,10.2,-44.34
1554108470386,-3.9073372,-7.307702000000001,4.586692,0.2790993,-0.054328485999999995,-0.084155895,-20.28,9.9,-44.4
1554108470405,-3.9025488,-7.211933999999999,4.6154222,0.07776430000000001,-0.039414786,-0.06285059999999999,-20.34,9.6,-44.4
1554108470426,-4.0270470000000005,-7.599794999999999,4.553173,-0.16831179,-0.037284255,-0.06285059999999999,-20.34,9.42,-44.46
1554108470446,-3.9504328,-7.772177,4.9506106,-0.12996227,-0.047936900000000005,-0.07243799,-20.34,9.3,-44.46
1554108470466,-3.9983168,-7.527969000000001,4.6680946,0.099069595,-0.06924219,-0.06285059999999999,-20.28,9.24,-44.52
1554108470487,-3.9695864000000003,-7.389105000000001,4.56275,0.21624869,-0.08948222,-0.041545313,-20.28,9.24,-44.58
1554108470505,-3.8738184,-7.2023573,4.490924,0.18429075,-0.084155895,-0.026631612000000002,-20.22,9.18,-44.64
1554108470525,-3.8163576,-7.3124905,4.624999,0.05219796,-0.06604639400000001,-0.027696876000000002,-20.16,9.18,-44.64
1554108470545,-3.8977604,-7.389105000000001,4.634576,-0.09267801,-0.054328485999999995,-0.029827405,-20.16,9.12,-44.7
1554108470566,-3.8019924,-7.422623599999999,4.8021703,-0.11504856,-0.024501082,-0.047936900000000005,-20.16,9.06,-44.7
1554108470585,-3.7828386,-7.3364325,4.8500543,-0.007456851,-0.0063915867,-0.084155895,-20.16,9.06,-44.7
1554108470605,-3.8163576,-7.2981253,4.835689,0.094808534,0.027696876000000002,-0.07669904,-20.16,9.0,-44.7
1554108470626,-3.7924154000000003,-7.4274119999999995,4.7925935,0.09587380000000001,0.049002163,-0.05752428,-20.16,8.94,-44.7
1554108470646,-3.8450879999999996,-7.4705076,4.6441526,0.041545313,0.060720075,-0.058589544,-20.22,8.88,-44.64
1554108470667,-3.8546648,-7.441777,4.7399206,0.012783173500000002,0.058589544,-0.054328485999999995,-20.28,8.88,-44.64
1554108470686,-3.9264907999999994,-7.422623599999999,4.6297874000000006,0.04580637,0.047936900000000005,-0.046871635999999994,-20.28,8.88,-44.64
1554108470705,-3.8450879999999996,-7.365163000000001,4.687248,0.12996227,0.035153727999999995,-0.043675844000000005,-20.4,8.88,-44.64
1554108470726,-3.8738184,-7.3603745,4.835689,0.13635385,0.03089267,-0.034088463,-20.4,8.88,-44.7
1554108470746,-3.9647980000000005,-7.1975690000000005,4.6633059999999995,0.10865697,0.011717908999999999,-0.007456851,-20.4,8.82,-44.76
1554108470766,-4.146757,-7.5950065,4.3760023,0.024501082,-0.014913702,0.024501082,-20.4,8.82,-44.82
1554108470786,-3.9791632000000003,-7.4274119999999995,4.7016134,-0.04580637,-0.022370555,0.026631612000000002,-20.46,8.76,-44.88
1554108470806,-3.8977604,-7.2454529999999995,4.960187400000001,0.02130529,-0.024501082,0.014913702,-20.46,8.7,-44.94
1554108470825,-3.9121256,-7.2885485,4.9841294000000005,0.06711166,-0.025566347000000003,0.027696876000000002,-20.52,8.64,-45.0
1554108470845,-3.9408559999999997,-7.2406645,4.89315,0.060720075,-0.017044231,0.036218993,-20.52,8.58,-45.06
1554108470866,-3.8498763999999994,-7.2885485,4.7207669999999995,0.068176925,-0.027696876000000002,0.03089267,-20.52,8.52,-45.12
1554108470885,-3.9600096,-7.1879919999999995,4.768651,0.098004326,-0.022370555,0.01917476,-20.52,8.46,-45.18
1554108470905,-3.8786068,-7.1113777,5.0511669999999995,0.13315806,-0.018109497,-0.010652645,-20.58,8.34,-45.18
1554108470926,-3.9456443999999995,-7.1927805,4.907515,0.14913702,-0.017044231,-0.01917476,-20.58,8.28,-45.24
1554108470945,-4.0174704,-7.211933999999999,4.936245400000001,0.12144015,-0.017044231,-0.017044231,-20.58,8.28,-45.24
1554108470965,-4.0174704,-7.1688385,4.830900700000001,0.04261058,-0.013848438000000001,-0.0063915867,-20.58,8.22,-45.24
1554108470986,-4.103661499999999,-7.2741833,5.036802,-0.04261058,-0.013848438000000001,0.0010652645,-20.58,8.16,-45.24
1554108471005,-3.9647980000000005,-7.2215110000000005,5.156512,0.024501082,-0.011717908999999999,-0.0010652645,-20.58,8.1,-45.24
1554108471026,-3.9647980000000005,-7.0491285,5.1086279999999995,0.08628642,-0.0031957934000000003,-0.011717908999999999,-20.58,8.1,-45.24
1554108471045,-3.9408559999999997,-7.092224000000001,4.672883000000001,0.004261058,0.0031957934000000003,0.014913702,-20.58,8.1,-45.24
1554108471066,-4.0797195,-7.480085000000001,4.7734394,-0.15020229,0.0053263223,0.056459017,-20.52,8.1,-45.24
1554108471085,-4.323928400000001,-7.949348,4.7303440000000005,-0.19920446,-0.026631612000000002,0.09054748,-20.58,8.04,-45.3
1554108471105,-4.2425256,-7.599794999999999,4.797382,0.024501082,-0.07882957,0.06178534,-20.58,8.04,-45.3
1554108471126,-4.0318356,-6.977302000000001,4.9745526,0.22370553,-0.08522116,0.049002163,-20.58,7.92,-45.36
1554108471145,-3.9647980000000005,-6.9246297000000006,5.0942625999999995,0.23542345,-0.049002163,0.05219796,-20.64,7.74,-45.42
1554108471165,-3.9552212,-7.0491285,5.300164,0.18109496,-0.004261058,0.06498113,-20.7,7.56,-45.42
1554108471186,-3.9983168,-6.881533999999999,5.3288946,0.1587244,0.02876214,0.046871635999999994,-20.76,7.38,-45.42
1554108471206,-3.9791632000000003,-6.675633,5.175665400000001,0.12996227,0.036218993,0.02130529,-20.82,7.2,-45.48
1554108471225,-3.9552212,-6.4793080000000005,5.0942625999999995,0.06924219,0.02876214,0.0010652645,-20.82,7.02,-45.54
1554108471245,-3.9935283999999998,-6.618172,4.8739963,-0.03195793,0.025566347000000003,-0.014913702,-20.82,6.9,-45.6
1554108471266,-4.0318356,-6.900687700000001,4.955399,-0.12996227,0.02876214,-0.024501082,-20.82,6.78,-45.6
1554108471286,-4.0701427,-7.0970125,5.0080714,-0.16298546,0.026631612000000002,-0.040480047000000005,-20.82,6.72,-45.66
1554108471306,-3.9264907999999994,-7.211933999999999,5.137358,-0.12144015,0.02876214,-0.06391586,-20.76,6.66,-45.6
1554108471326,-3.8977604,-7.0826473,5.0463786,-0.07669904,0.033023197000000004,-0.07243799,-20.76,6.72,-45.6
1554108471345,-3.9600096,-7.211933999999999,5.1086279999999995,-0.08948222,0.06178534,-0.060720075,-20.7,6.72,-45.6
1554108471367,-4.1419687000000005,-7.2406645,4.888361499999999,-0.13635385,0.07243799,-0.068176925,-20.58,6.84,-45.6
1554108471385,-4.1371803,-7.2023573,5.113416,-0.13528858,0.07243799,-0.07350325,-20.58,6.84,-45.6
1554108471405,-4.060566000000001,-7.029975,4.6920366,-0.14913702,0.06178534,-0.07350325,-20.46,6.9,-45.54
1554108471426,-4.1276035,-7.0826473,4.7925935,-0.23968449999999997,0.06498113,-0.08522116,-20.28,7.14,-45.54
1554108471446,-4.1371803,-7.1879919999999995,4.7255554,-0.19813919,0.043675844000000005,-0.096939065,-20.22,7.32,-45.54
1554108471466,-4.209007,-7.3603745,4.5723267,-0.10759171,0.03195793,-0.098004326,-20.1,7.5,-45.54
1554108471486,-4.338293599999999,-7.417835,4.5148660000000005,-0.11930962,0.020240024,-0.098004326,-19.98,7.68,-45.6
1554108471506,-4.290409599999999,-7.211933999999999,4.490924,-0.20240025,0.011717908999999999,-0.09054748,-19.92,7.8,-45.6
1554108471525,-4.2664676,-7.331644,4.3760023,-0.30466563,-0.0063915867,-0.07989483,-19.86,7.92,-45.54
1554108471545,-4.280833,-7.542333999999999,4.601057,-0.34727620000000003,-0.00958738,-0.056459017,-19.86,8.1,-45.54
1554108471565,-4.1371803,-7.891887,4.744708999999999,-0.20879184,-0.015978966,-0.029827405,-19.86,8.28,-45.54
1554108471587,-4.271256,-7.753023599999999,4.3664255,-0.03089267,-0.025566347000000003,-0.00958738,-19.86,8.4,-45.48
1554108471606,-4.2999864,-7.436989,4.11264,0.029827405,-0.035153727999999995,0.0063915867,-19.86,8.58,-45.48
1554108471626,-4.185065,-7.413047,4.4382515,-0.025566347000000003,-0.03834952,0.03195793,-19.92,8.7,-45.42
1554108471646,-4.0414124,-7.5327573,4.2610803,-0.10865697,-0.023435817999999997,0.07350325,-19.92,8.88,-45.3
1554108471666,-4.1419687000000005,-7.542333999999999,4.3760023,-0.18855181,-0.004261058,0.07456851,-19.98,9.06,-45.12
1554108471686,-4.2664676,-7.5758529999999995,4.256292,-0.18961707,-0.007456851,0.06604639400000001,-19.98,9.18,-44.94
1554108471706,-4.156333999999999,-7.422623599999999,4.3760023,-0.09374327,-0.015978966,0.056459017,-20.04,9.36,-44.82
1554108471726,-3.9743748,-7.2981253,4.409521,0.02130529,-0.01917476,0.047936900000000005,-20.04,9.48,-44.7
1554108471746,-3.9600096,-7.2885485,4.4765587,0.035153727999999995,-0.0010652645,0.039414786,-20.1,9.6,-44.52
1554108471765,-4.098873,-7.374739599999999,4.9506106,-0.0053263223,0.04474111,0.020240024,-20.1,9.72,-44.4
1554108471786,-4.036624,-7.317278999999999,4.912303400000001,0.06285059999999999,0.082025364,-0.010652645,-20.1,9.84,-44.28
1554108471805,-4.0318356,-7.331644,4.44304,0.15020229,0.10333065,-0.049002163,-20.1,9.9,-44.34
1554108471826,-4.1371803,-7.0491285,4.2850223,0.16618125,0.09374327,-0.06924219,-20.1,9.96,-44.46
1554108471845,-4.146757,-7.092224000000001,4.1653123,0.098004326,0.05965481,-0.08841695,-20.1,10.02,-44.52
1554108471865,-4.237737,-7.441777,4.2419267,0.01917476,0.02876214,-0.09267801,-20.04,10.08,-44.58
1554108471885,-4.228160400000001,-7.4561424,4.601057,0.039414786,0.0053263223,-0.08948222,-19.98,10.08,-44.64
1554108471905,-4.2521024,-7.4465656000000005,4.337695,0.07776430000000001,-0.011717908999999999,-0.07989483,-19.86,10.02,-44.7
1554108471926,-4.261679,-7.5566993,4.4143095,0.07563378,-0.0031957934000000003,-0.080960095,-19.74,10.02,-44.76
1554108471945,-4.3574470000000005,-7.398681599999999,4.447828299999999,0.08735169,0.0063915867,-0.08841695,-19.62,9.96,-44.76
1554108471965,-4.3526587,-7.2885485,4.5819035,0.08628642,0.004261058,-0.08841695,-19.5,9.9,-44.76
1554108471986,-4.280833,-7.2406645,4.7016134,0.05006743,0.012783173500000002,-0.08735169,-19.38,9.9,-44.7
1554108472005,-4.122815,-7.1879919999999995,4.586692,0.043675844000000005,0.03089267,-0.094808534,-19.32,9.84,-44.7
1554108472026,-4.1946416,-7.231087700000001,4.5675383,0.029827405,0.046871635999999994,-0.11504856,-19.32,9.78,-44.7
1554108472046,-4.2425256,-7.2502413,4.3903675,0.026631612000000002,0.04474111,-0.12463594,-19.38,9.72,-44.7
1554108472066,-4.1706996,-7.341221000000001,4.3664255,0.0031957934000000003,0.033023197000000004,-0.13315806,-19.44,9.6,-44.7
1554108472085,-4.122815,-7.3268557,4.5723267,-0.013848438000000001,0.02130529,-0.1438107,-19.5,9.48,-44.7
1554108472105,-4.175488,-7.413047,4.7494974,-0.023435817999999997,0.029827405,-0.13102753,-19.56,9.42,-44.7
1554108472126,-4.1515455,-7.413047,4.601057,0.022370555,0.027696876000000002,-0.12463594,-19.68,9.36,-44.7
1554108472146,-4.10845,-7.269394999999999,4.888361499999999,0.07989483,0.04261058,-0.12996227,-19.74,9.3,-44.7
1554108472166,-3.8402996,-7.1353197,4.8500543,0.15233281,0.053263225,-0.1470065,-19.74,9.24,-44.7
1554108472187,-3.9647980000000005,-7.0587053,4.859630999999999,0.21624869,0.082025364,-0.16831179,-19.68,9.18,-44.88
1554108472205,-3.8690300000000004,-7.231087700000001,4.8021703,0.20240025,0.09374327,-0.15233281,-19.68,9.24,-44.88
1554108472226,-3.9647980000000005,-7.3220673,4.7303440000000005,0.15233281,0.098004326,-0.10972224,-19.62,9.24,-45.0
1554108472245,-4.2760444,-7.5758529999999995,4.1844660000000005,0.12996227,0.060720075,-0.12463594,-19.62,9.3,-45.12
1554108472265,-4.314351599999999,-7.3699512,4.256292,0.07989483,0.00958738,-0.12996227,-19.56,9.3,-45.24
1554108472286,-4.3047748,-7.2167225,4.2898107,0.09374327,-0.035153727999999995,-0.10333065,-19.56,9.12,-45.36
1554108472305,-4.1946416,-7.092224000000001,4.433463,0.06178534,-0.058589544,-0.08522116,-19.56,9.06,-45.42
1554108472325,-4.271256,-7.0970125,4.7782279999999995,-0.099069595,-0.049002163,-0.07137272,-19.5,8.88,-45.54
1554108472345,-4.247314,-7.379528,4.7878050000000005,-0.14594123,-0.041545313,-0.07456851,-19.5,8.76,-45.48
1554108472366,-4.314351599999999,-7.49445,4.9506106,-0.101200126,-0.03195793,-0.07137272,-19.5,8.64,-45.48
1554108472385,-4.290409599999999,-7.1927805,4.936245400000001,0.002130529,-0.012783173500000002,-0.08522116,-19.5,8.46,-45.48
1554108472405,-4.31914,-7.173627000000001,4.768651,0.094808534,-0.010652645,-0.09054748,-19.56,8.16,-45.48
1554108472426,-4.1419687000000005,-7.092224000000001,4.9218802,0.13422333,0.0053263223,-0.06711166,-19.56,7.8,-45.48
1554108472445,-4.1419687000000005,-7.417835,4.8404775,0.16724652,0.012783173500000002,-0.06924219,-19.56,7.5,-45.48
1554108472466,-4.103661499999999,-7.4274119999999995,4.830900700000001,0.07989483,-0.002130529,-0.043675844000000005,-19.56,7.2,-45.48
1554108472485,-4.1515455,-7.1927805,4.9027267,-0.004261058,-0.013848438000000001,-0.018109497,-19.56,6.9,-45.48
1554108472505,-4.3047748,-7.2454529999999995,4.385579,-0.053263225,-0.041545313,-0.008522116,-19.56,6.6,-45.48
1554108472525,-4.232949,-7.2981253,4.7207669999999995,-0.15020229,-0.058589544,0.018109497,-19.56,6.3,-45.48
1554108472545,-4.1946416,-7.6285253,4.5723267,-0.09054748,-0.099069595,0.008522116,-19.62,6.12,-45.48
1554108472566,-4.0078936,-7.4561424,4.68246,-0.07776430000000001,-0.09587380000000001,0.049002163,-19.68,6.12,-45.54
1554108472586,-4.0462008,-7.2454529999999995,4.7016134,-0.10013486,-0.05539375,0.07882957,-19.74,6.18,-45.54
1554108472605,-4.098873,-7.2789717000000005,4.9937059999999995,-0.099069595,-0.029827405,0.04474111,-19.8,6.42,-45.6
1554108472625,-4.2425256,-7.3124905,5.027225,-0.14061491,-0.015978966,0.029827405,-19.92,6.66,-45.6
1554108472645,-4.1132383,-7.3603745,4.869208,-0.17896444,-0.010652645,0.043675844000000005,-19.98,7.02,-45.66
1554108472666,-4.362235500000001,-7.2454529999999995,4.2610803,-0.26738137,-0.040480047000000005,0.017044231,-20.04,7.32,-45.66
1554108472685,-4.2185836,-7.0251865,4.1557355000000005,-0.4314321,-0.082025364,0.02876214,-20.04,7.62,-45.66
1554108472705,-4.0509889999999995,-6.9677253,4.2945995,-0.59761333,-0.1107875,0.06391586,-20.1,7.92,-45.66
1554108472726,-3.9025488,-7.2502413,4.4526167,-0.5432849000000001,-0.12996227,0.020240024,-20.04,8.22,-45.66
1554108472746,-3.6774937999999993,-7.422623599999999,4.706402,-0.38349520000000004,-0.10865697,-0.015978966,-20.04,8.52,-45.6
1554108472765,-3.8115692,-7.542333999999999,4.2275615,-0.24501082,-0.096939065,-0.03195793,-20.04,8.88,-45.54
1554108472785,-3.8738184,-7.6045833,4.1270050000000005,-0.28442562,-0.10333065,-0.047936900000000005,-20.04,9.12,-45.36
1554108472806,-3.9456443999999995,-7.451353999999999,4.016872,-0.39627838,-0.10759171,-0.06498113,-20.04,9.42,-45.18
1554108472825,-4.0318356,-7.480085000000001,3.6337996,-0.5944176,-0.11504856,-0.06498113,-20.04,9.78,-44.94
1554108472846,-3.98874,-7.858368400000001,4.11264,-0.7584683000000001,-0.07776430000000001,-0.041545313,-20.1,10.26,-44.7
1554108472865,-3.8977604,-8.188768,4.280234,-0.5933523,-0.082025364,-0.084155895,-20.1,10.8,-44.4
1554108472886,-3.7684733999999995,-8.289325,4.1796775,-0.28975195,-0.06498113,-0.07669904,-20.16,11.34,-44.16
1554108472906,-3.9073372,-8.15525,4.194042700000001,-0.06711166,-0.03834952,-0.047936900000000005,-20.22,11.82,-43.92
1554108472926,-3.9552212,-7.949348,3.8780080999999997,0.033023197000000004,-0.041545313,-0.06498113,-20.28,12.42,-43.74
1554108472946,-4.0078936,-7.681197599999999,3.8732197,0.04580637,-0.04261058,-0.07350325,-20.28,13.02,-43.68
1554108472966,-4.0797195,-7.49445,3.9115269999999995,0.017044231,-0.039414786,-0.07350325,-20.34,13.56,-43.62
1554108472986,-4.0557775000000005,-7.585429700000001,3.7487214,-0.04261058,-0.04474111,-0.07882957,-20.34,13.98,-43.62
1554108473005,-3.9504328,-7.968502,3.8205473,-0.082025364,-0.054328485999999995,-0.068176925,-20.34,14.28,-43.62
1554108473026,-3.9839516,-8.054692999999999,4.016872,-0.039414786,-0.05219796,-0.07669904,-20.34,14.58,-43.68
1554108473045,-3.9121256,-7.939771,3.9306807999999998,0.07456851,-0.05965481,-0.07776430000000001,-20.34,14.76,-43.68
1554108473066,-3.9647980000000005,-7.743447,3.8013937000000007,0.11504856,-0.060720075,-0.07350325,-20.34,14.88,-43.68
1554108473086,-3.9647980000000005,-7.8152729999999995,3.9498343,0.09161274,-0.07669904,-0.082025364,-20.34,14.88,-43.68
1554108473106,-3.7253778,-7.9062524000000005,3.8588544999999996,0.113983296,-0.09267801,-0.08628642,-20.4,14.82,-43.62
1554108473126,-3.8067808,-7.9301944,3.8397010000000003,0.12463594,-0.083090626,-0.07563378,-20.46,14.82,-43.62
1554108473146,-3.9408559999999997,-8.002021000000001,3.9833531000000004,0.083090626,-0.08522116,-0.07030745599999999,-20.46,14.82,-43.56
1554108473166,-3.9695864000000003,-7.877522,4.031237,0.035153727999999995,-0.08948222,-0.06924219,-20.52,14.76,-43.56
1554108473186,-3.8211459999999997,-7.796119,3.9402574999999995,0.07669904,-0.098004326,-0.07882957,-20.58,14.7,-43.5
1554108473205,-3.7828386,-7.8104844,4.079121,0.11717909,-0.08522116,-0.07563378,-20.64,14.64,-43.5
1554108473226,-3.7588966,-7.973290400000001,3.9689879999999995,0.128897,-0.07882957,-0.06178534,-20.76,14.58,-43.44
1554108473246,-3.8594532,-7.848791599999999,4.0599675,0.12037488,-0.07350325,-0.07030745599999999,-20.82,14.46,-43.44
1554108473265,-3.9983168,-7.709928,3.9115269999999995,0.10759171,-0.07563378,-0.08522116,-20.88,14.34,-43.44
1554108473286,-3.9695864000000003,-7.6093717000000005,4.0839095,0.08948222,-0.09161274,-0.09267801,-20.94,14.22,-43.44
1554108473305,-3.8594532,-7.3843164,4.0743327,0.022370555,-0.10333065,-0.07030745599999999,-21.0,14.04,-43.44
1554108473325,-3.8402996,-7.6524673,4.2610803,-0.07882957,-0.08628642,-0.056459017,-21.06,13.98,-43.44
1554108473346,-3.6870705999999998,-7.7578119999999995,4.1796775,-0.13848437,-0.07989483,-0.046871635999999994,-21.12,13.86,-43.38
1554108473366,-3.7588966,-7.901464,4.217984700000001,-0.13422333,-0.06498113,-0.03195793,-21.3,13.74,-43.38
1554108473385,-3.7541082,-7.968502,4.3424835,-0.07882957,-0.060720075,-0.029827405,-21.36,13.62,-43.38
1554108473405,-3.7588966,-7.973290400000001,4.3568487000000005,-0.012783173500000002,-0.046871635999999994,-0.02876214,-21.54,13.5,-43.38
1554108473426,-3.7158010000000004,-7.877522,4.3664255,0.047936900000000005,-0.03089267,-0.020240024,-21.66,13.44,-43.38
1554108473446,-3.8211459999999997,-7.858368400000001,4.208408,0.04474111,-0.015978966,-0.013848438000000001,-21.78,13.44,-43.38
1554108473466,-3.8642415999999997,-7.9541364,4.079121,-0.04474111,-0.023435817999999997,0.002130529,-21.96,13.38,-43.38
1554108473485,-3.7972038,-7.85358,4.1844660000000005,-0.082025364,-0.02130529,0.007456851,-22.08,13.38,-43.44
1554108473506,-3.6583402,-7.6285253,4.5914803,-0.05965481,0.008522116,-0.014913702,-22.2,13.38,-43.44
1554108473526,-3.7493198,-7.6907744000000005,4.2898107,-0.0031957934000000003,0.029827405,-0.027696876000000002,-22.2,13.38,-43.44
1554108473546,-3.8594532,-7.791331,4.1222167,-0.04580637,0.04261058,-0.02130529,-22.2,13.38,-43.44
1554108473566,-3.8929720000000003,-7.73387,4.0934862999999995,-0.07243799,0.02876214,-0.017044231,-22.14,13.38,-43.44
1554108473585,-3.7541082,-7.781753999999999,4.040814,-0.07137272,0.026631612000000002,-0.013848438000000001,-22.08,13.38,-43.5
1554108473606,-3.7636849999999997,-7.685986,4.2275615,-0.05752428,0.035153727999999995,-0.024501082,-22.02,13.44,-43.5
1554108473630,-3.7205894,-7.772177,4.11264,-0.096939065,0.033023197000000004,-0.034088463,-21.9,13.44,-43.5
1554108473646,-3.7541082,-7.963713,3.9258924,-0.13741912,0.046871635999999994,-0.035153727999999995,-21.9,13.44,-43.5
1554108473665,-3.8833952000000003,-8.006809,4.1892543,-0.14168017,0.06178534,-0.03195793,-21.78,13.5,-43.5
1554108473685,-3.8067808,-8.045116,4.208408,-0.10013486,0.068176925,-0.033023197000000004,-21.72,13.56,-43.5
1554108473706,-3.7541082,-7.839214999999999,4.136582,-0.083090626,0.08522116,-0.029827405,-21.66,13.62,-43.5
1554108473726,-3.739743,-7.7626004,3.7822402000000004,-0.1587244,0.10333065,-0.02876214,-21.6,13.74,-43.5
1554108473746,-3.7014358,-7.7865424,3.8588544999999996,-0.27377295,0.11717909,-0.035153727999999995,-21.6,13.86,-43.44
1554108473765,-3.7062242,-8.131308,3.863643,-0.27590349999999997,0.11717909,-0.037284255,-21.54,14.04,-43.44
1554108473785,-3.739743,-7.891887,3.6577415,-0.16298546,0.10972224,-0.05219796,-21.48,14.16,-43.44
1554108473806,-3.7732617999999993,-7.85358,3.7822402000000004,-0.053263225,0.12357068,-0.080960095,-21.42,14.34,-43.38
1554108473826,-3.9264907999999994,-7.796119,3.8732197,-0.039414786,0.12676647,-0.08522116,-21.42,14.52,-43.38
1554108473845,-3.98874,-8.078635,3.7870286,-0.08841695,0.113983296,-0.05219796,-21.42,14.7,-43.38
1554108473865,-3.8450879999999996,-8.049905,3.863643,-0.098004326,0.11611383,-0.029827405,-21.42,14.82,-43.32
1554108473886,-4.0174704,-8.169615,3.614646,-0.07882957,0.11717909,-0.041545313,-21.36,14.94,-43.32
1554108473906,-4.098873,-7.9828672,3.7056258,-0.06498113,0.11930962,-0.040480047000000005,-21.36,15.06,-43.32
1554108473926,-4.098873,-8.222287,3.5571851999999997,-0.05006743,0.08735169,-0.01917476,-21.3,15.18,-43.26
1554108473946,-4.074930999999999,-8.322844,3.6673183,0.008522116,0.07563378,0.020240024,-21.18,15.36,-43.2
1554108473966,-4.0414124,-8.121731,3.5859156000000003,0.14061491,0.046871635999999994,0.03089267,-21.0,15.54,-43.08
1554108473985,-4.0845080000000005,-7.896675599999999,3.8205473,0.24394555,0.035153727999999995,0.012783173500000002,-20.88,15.72,-43.02
1554108474006,-4.175488,-7.8248496,3.8827964999999995,0.26205507,0.0053263223,0.02130529,-20.76,15.78,-42.96
1554108474025,-4.1419687000000005,-7.767389,3.6290112,0.24501082,-0.05219796,0.03089267,-20.64,15.9,-42.9
1554108474045,-4.0222587999999995,-7.590217999999999,3.6098576,0.17257284,-0.05219796,0.024501082,-20.58,15.9,-42.84
1554108474065,-4.1371803,-7.781753999999999,3.5284547999999996,0.07030745599999999,-0.10972224,0.024501082,-20.46,15.78,-42.78
1554108474085,-4.156333999999999,-7.719505000000001,3.5859156000000003,-0.00958738,-0.12037488,0.041545313,-20.46,15.66,-42.78
1554108474106,-4.2999864,-7.772177,3.4805707999999997,-0.07350325,-0.165116,0.037284255,-20.4,15.42,-42.78
1554108474125,-4.074930999999999,-7.5519110000000005,3.7104141999999998,-0.07243799,-0.18535602,0.0,-20.4,15.18,-42.78
1554108474145,-3.8019924,-7.5519110000000005,3.614646,-0.083090626,-0.19281286,-0.04580637,-20.46,15.06,-42.78
1554108474166,-3.7493198,-7.542333999999999,4.088698,-0.16192019,-0.15978967,-0.06924219,-20.46,14.88,-42.78
1554108474186,-3.7445314,-7.73387,4.0264487,-0.24607609,-0.13848437,-0.046871635999999994,-20.46,14.82,-42.78
1554108474206,-4.0462008,-7.7003509999999995,3.7870286,-0.39308259999999995,-0.10759171,-0.04580637,-20.46,14.7,-42.84
1554108474226,-4.1276035,-7.7578119999999995,3.6864722000000003,-0.48149952,-0.12037488,-0.07350325,-20.46,14.82,-42.84
1554108474245,-4.1515455,-7.997232400000001,3.5045127999999997,-0.51026165,-0.13635385,-0.07456851,-20.52,14.94,-42.84
1554108474266,-4.156333999999999,-8.145673,3.6194344,-0.44741106,-0.13954964,-0.058589544,-20.52,15.12,-42.84
1554108474286,-4.074930999999999,-8.112153999999999,3.7199910000000003,-0.36112466,-0.13528858,-0.07243799,-20.52,15.48,-42.78
1554108474306,-4.0845080000000005,-8.011598,3.4997244,-0.36218992,-0.12463594,-0.07563378,-20.52,15.84,-42.66
1554108474325,-3.8402996,-8.251018,3.413533,-0.4857606,-0.10439592,-0.033023197000000004,-20.58,16.2,-42.6
1554108474345,-3.8163576,-8.289325,3.447052,-0.5603291,-0.08841695,-0.026631612000000002,-20.58,16.68,-42.48
1554108474366,-3.8498763999999994,-8.351574000000001,3.3704373999999997,-0.46871635,-0.068176925,-0.03834952,-20.64,17.16,-42.3
1554108474385,-3.7205894,-8.370728,3.0879216,-0.36005938,-0.07030745599999999,-0.043675844000000005,-20.7,17.64,-42.06
1554108474405,-3.7301662,-8.361151,3.3225534,-0.24501082,-0.04261058,-0.046871635999999994,-20.88,18.18,-41.94
1554108474426,-3.7301662,-8.418612,3.1693244,-0.21837921,-0.024501082,-0.037284255,-21.0,18.66,-41.76
1554108474448,-3.7301662,-8.088212,3.0974984,-0.2545982,-0.0053263223,-0.036218993,-21.12,19.02,-41.64
1554108474466,-3.7876269999999996,-8.227076,2.891597,-0.294013,0.004261058,-0.04580637,-21.24,19.44,-41.52
1554108474486,-3.9217023999999996,-8.576628999999999,2.9442697,-0.24394555,0.004261058,-0.049002163,-21.36,19.8,-41.46
1554108474505,-3.9217023999999996,-8.729858,3.020884,-0.11611383,0.008522116,-0.053263225,-21.48,20.1,-41.34
1554108474525,-3.7110126000000005,-8.461707,2.9634232999999996,-0.014913702,0.01917476,-0.05006743,-21.6,20.34,-41.28
1554108474545,-3.8355112,-8.480861,2.8006175,0.012783173500000002,0.03089267,-0.04261058,-21.66,20.58,-41.16
1554108474566,-3.916914,-8.45213,2.8868085999999997,0.035153727999999995,0.029827405,-0.036218993,-21.66,20.76,-41.1
1554108474586,-3.9121256,-8.260594000000001,2.9059622000000003,0.054328485999999995,0.03195793,-0.013848438000000001,-21.72,20.94,-41.04
1554108474607,-3.8642415999999997,-8.4425535,2.6521769,0.034088463,0.03834952,0.0010652645,-21.72,21.06,-40.92
1554108474627,-3.9935283999999998,-8.437764999999999,2.8868085999999997,-0.010652645,0.049002163,-0.002130529,-21.78,21.12,-40.86
1554108474647,-3.9839516,-8.500014,2.8868085999999997,-0.013848438000000001,0.041545313,0.002130529,-21.78,21.18,-40.8
1554108474666,-4.0318356,-8.30369,2.8485014,0.008522116,0.039414786,0.00958738,-21.78,21.24,-40.8
1554108474686,-3.8690300000000004,-8.456919000000001,2.867655,0.04261058,0.035153727999999995,0.026631612000000002,-21.78,21.3,-40.8
1554108474706,-3.7828386,-8.523956,2.9203273999999997,0.05219796,0.046871635999999994,0.039414786,-21.66,21.36,-40.8
1554108474726,-3.8402996,-8.461707,2.9921536,0.06498113,0.06178534,0.03195793,-21.6,21.36,-40.74
1554108474746,-3.7972038,-8.385093,3.020884,0.083090626,0.06498113,0.018109497,-21.48,21.36,-40.74
1554108474765,-3.9121256,-8.15525,2.867655,0.094808534,0.07776430000000001,0.012783173500000002,-21.36,21.36,-40.68
1554108474785,-3.7924154000000003,-8.389880999999999,2.9921536,0.07669904,0.07989483,0.023435817999999997,-21.24,21.36,-40.62
1554108474805,-3.8594532,-8.346786,2.9346926,0.07456851,0.082025364,0.017044231,-21.0,21.42,-40.56
1554108474825,-3.9552212,-8.4234,2.9394810000000002,0.07563378,0.08735169,0.014913702,-20.88,21.42,-40.5
1554108474846,-4.1132383,-8.27496,3.044826,0.09374327,0.101200126,0.0031957934000000003,-20.82,21.36,-40.5
1554108474865,-3.9504328,-8.260594000000001,3.2986114,0.16085494,0.11824436,0.010652645,-20.76,21.3,-40.44
1554108474886,-3.8402996,-8.27496,3.2172085999999998,0.22477080000000002,0.14487597,0.0053263223,-20.7,21.18,-40.44
1554108474905,-4.0174704,-8.227076,3.3560722000000003,0.2727077,0.17896444,-0.004261058,-20.64,20.94,-40.44
1554108474926,-4.1946416,-8.4234,3.2746694,0.3323625,0.20240025,-0.002130529,-20.64,20.76,-40.44
1554108474945,-4.156333999999999,-8.255806,3.293823,0.406931,0.21624869,0.00958738,-20.64,20.52,-40.56
1554108474966,-4.280833,-8.341997000000001,3.3225534,0.48682585,0.20985709,0.013848438000000001,-20.58,20.28,-40.62
1554108474985,-4.4819455,-8.614936,3.5763388,0.60933125,0.19281286,0.02876214,-20.52,20.04,-40.74
1554108475006,-4.338293599999999,-8.495225999999999,3.6433763999999997,0.8426242,0.1587244,0.051132694000000006,-20.46,19.86,-40.86
1554108475026,-4.362235500000001,-8.164826,3.5763388,0.9598033000000001,0.16298546,0.068176925,-20.34,19.68,-41.1
1554108475046,-4.510676,-7.877522,3.7152026,0.99708754,0.16298546,0.08841695,-20.22,19.56,-41.4
1554108475066,-4.572925,-7.7578119999999995,3.8492777,1.0056095999999999,0.16192019,0.099069595,-20.04,19.32,-41.64
1554108475086,-4.5681367,-7.7147164,4.1892543,1.0343717,0.16724652,0.11717909,-19.92,18.72,-41.94
1554108475105,-4.6495394999999995,-7.729081599999999,4.2371383,1.0855045,0.15233281,0.13528858,-19.8,18.0,-42.12
1554108475126,-4.7740383,-7.49445,4.337695,1.1270498,0.13422333,0.12676647,-19.5,17.22,-42.42
1554108475145,-4.76925,-7.3699512,4.4765587,1.1408982,0.11611383,0.12144015,-19.32,16.26,-42.72
1554108475166,-4.7405194999999996,-7.2023573,4.6393642,1.1377025,0.10652645,0.12570119999999999,-19.2,15.3,-43.14
1554108475185,-4.707000700000001,-7.0491285,4.6633059999999995,1.0982877,0.10013486,0.13848437,-19.14,14.22,-43.56
1554108475206,-4.707000700000001,-6.9820905,4.955399,1.1068097,0.09161274,0.14061491,-19.02,13.08,-43.92
1554108475226,-4.76925,-6.9246297000000006,4.941033999999999,1.1472898999999999,0.09374327,0.14061491,-18.9,11.88,-44.22
1554108475246,-4.7500963,-6.8144965,5.209184,1.1877699,0.07563378,0.14913702,-18.66,10.74,-44.58
1554108475268,-4.759673,-6.5271926,5.218761,1.1771171999999999,0.06178534,0.16192019,-18.42,9.6,-44.94
1554108475285,-4.807557,-6.192004,5.204396,1.0812434,0.05219796,0.1587244,-18.24,8.4,-45.24
1554108475305,-4.8506527,-6.0291986,5.156512,0.9491506,0.06391586,0.1587244,-18.0,7.14,-45.54
1554108475326,-4.802768700000001,-6.1632739999999995,5.472546599999999,0.8948221,0.06924219,0.16085494,-17.88,6.48,-45.6
1554108475345,-4.8937483,-6.033987000000001,5.7263317,0.88203895,0.05752428,0.14594123,-17.58,4.26,-45.78
1554108475365,-4.8362875,-5.789778,5.7263317,0.89162636,0.05752428,0.14061491,-17.52,2.7,-46.02
1554108475386,-4.8841715,-5.6269727,5.333683000000001,0.77231675,0.07350325,0.15020229,-17.46,1.32,-46.26
1554108475405,-4.975151,-5.555146700000001,5.6545057,0.5965481,0.09267801,0.16405073,-17.58,0.12,-46.5
1554108475425,-5.090072599999999,-5.507262,5.659294,0.46125950000000004,0.09161274,0.17257284,-17.7,-1.14,-46.74
1554108475445,-5.046977,-5.5647235,5.7790045999999995,0.31851408,0.10546118,0.18216023,-17.82,-2.34,-46.92
1554108475465,-5.094861,-5.535993,5.855619,0.19387813,0.12676647,0.18642128,-17.94,-3.3,-47.04
1554108475486,-5.0996494000000006,-5.3444567,5.8891377,0.06285059999999999,0.14487597,0.18109496,-18.06,-4.26,-47.16
1554108475505,-5.2145715,-5.492897,5.9465985,-0.09161274,0.17470337,0.18216023,-18.12,-4.86,-47.22
1554108475525,-5.1475334,-5.468955,5.831677,-0.2428803,0.18216023,0.19813919,-18.06,-5.34,-47.22
1554108475545,-5.248090299999999,-5.559935,5.692813,-0.3685815,0.18642128,0.19068234,-18.0,-5.88,-47.22
1554108475565,-5.233725,-5.512050599999999,5.395932,-0.5858955,0.16724652,0.18748654,-18.0,-6.36,-47.16
1554108475585,-5.353435,-5.310938,5.1900306,-0.9033443000000001,0.16724652,0.20772657,-17.94,-6.6,-47.16
1554108475605,-5.5497594,-5.1624975,4.869208,-1.3933659,0.17576863,0.23755397,-17.88,-6.72,-47.22
1554108475625,-5.60722,-5.727529,4.7830167,-1.9909793000000002,0.18961707,0.26631612,-17.76,-6.48,-47.22
1554108475645,-5.5545480000000005,-6.168062,4.7734394,-2.4703484,0.20559604,0.28868666,-17.7,-5.82,-47.22
1554108475665,-5.6790465999999995,-6.7187285,4.931457,-2.5023062,0.18429075,0.28868666,-17.58,-4.68,-47.16
1554108475685,-5.434838,-7.1688385,4.821324,-1.9057581000000001,0.13209279,0.24181503,-17.28,-2.28,-47.1
1554108475705,-5.3821654,-7.231087700000001,4.6680946,-1.3315805,0.13954964,0.24607609,-17.04,-0.18,-46.98
1554108475726,-5.5641245999999995,-7.4034699999999996,4.6297874000000006,-0.8341021000000001,0.18002969,0.25566345,-16.8,2.1,-46.8
1554108475745,-5.544971,-7.2502413,4.797382,-0.31105720000000003,0.1949434,0.22050974,-16.5,4.5,-46.44
1554108475765,-5.363012,-6.9198413,4.040814,0.20026971,0.19281286,0.19920446,-16.26,6.78,-46.14
1554108475785,-5.5737014,-6.7522473,3.8588544999999996,0.5113269,0.21198763,0.19707392,-16.02,8.64,-45.78
1554108475806,-5.7029886,-6.4457892999999995,3.9594111000000005,0.5858955,0.20133498,0.18642128,-15.78,10.02,-45.48
1554108475825,-5.765238,-6.3643866,3.9211037,0.55287224,0.18748654,0.18535602,-15.66,10.92,-45.18
1554108475845,-5.664681400000001,-6.335656,4.088698,0.5400891,0.17576863,0.18002969,-15.54,11.34,-44.88
1554108475866,-5.851429,-6.350021400000001,4.0743327,0.59122175,0.16405073,0.16085494,-15.42,11.22,-44.64
1554108475885,-5.961562000000001,-6.249465,4.0503907,0.64768076,0.15339808,0.14168017,-15.24,10.8,-44.52
1554108475906,-5.971139,-6.206369400000001,4.1413703,0.7392935,0.14487597,0.13528858,-15.06,10.2,-44.52
1554108475926,-5.995081,-6.1153900000000005,4.308964700000001,0.83516735,0.13209279,0.13422333,-14.82,9.54,-44.52
1554108475945,-6.047753299999999,-6.010045,4.2898107,0.87777793,0.13102753,0.13102753,-14.58,8.88,-44.52
1554108475965,-6.167464,-5.938218599999999,4.270657,0.8511463,0.13635385,0.14274544,-14.34,8.28,-44.64
1554108475986,-6.191406,-5.689222,4.395156,0.6785734,0.1587244,0.19813919,-14.1,7.68,-44.88
1554108476006,-6.3063273,-5.703587000000001,4.433463,0.55074173,0.16831179,0.22477080000000002,-13.92,7.08,-45.06
1554108476026,-6.3925184999999995,-5.7179523,4.6680946,0.4314321,0.18216023,0.25566345,-13.8,6.48,-45.3
1554108476045,-6.4164605,-5.823297,4.624999,0.39521313,0.18002969,0.2972088,-13.74,5.94,-45.54
1554108476066,-6.617573299999999,-5.751471,4.687248,0.33768883,0.20985709,0.3568636,-13.68,5.4,-45.72
1554108476085,-6.6941880000000005,-5.6509147,4.859630999999999,0.26205507,0.21837921,0.39840892,-13.68,4.8,-45.9
1554108476106,-6.9288197,-5.5407815000000005,4.969764,0.2130529,0.221575,0.43249738,-13.56,4.2,-46.02
1554108476126,-6.9527617,-5.507262,4.9027267,0.20559604,0.21624869,0.46552056,-13.5,3.6,-46.08
1554108476146,-7.0341644,-5.349245,5.0846860000000005,0.25353295,0.20985709,0.5400891,-13.32,3.0,-46.08
1554108476165,-7.0341644,-5.1816510000000005,5.065532,0.31318775,0.20240025,0.5954828000000001,-13.14,2.34,-46.02
1554108476185,-7.129933,-4.970961,5.0320134,0.33555830000000003,0.19920446,0.628506,-12.9,1.86,-45.96
1554108476206,-7.335833999999999,-4.7123876,5.1900306,0.37923414,0.19174760000000002,0.6423545,-12.6,1.44,-45.96
1554108476225,-7.2448545,-4.463390400000001,4.9458222,0.43995422,0.1768339,0.65513766,-12.24,1.14,-45.9
1554108476245,-7.2352777,-4.109049,4.9506106,0.4644553,0.18109496,0.6764429,-11.88,0.78,-45.84
1554108476266,-7.1826053,-4.0755300000000005,4.9937059999999995,0.46978164,0.19174760000000002,0.6743124,-11.64,0.36,-45.84
1554108476285,-7.216124000000001,-3.9749733999999997,4.8404775,0.5294364,0.19068234,0.6444850000000001,-11.4,-0.12,-45.78
1554108476306,-7.2640080000000005,-3.8025907999999995,4.7016134,0.56459016,0.19068234,0.62104917,-11.16,-0.6,-45.66
1554108476326,-7.0245875999999985,-3.4386723,4.883573,0.5581986,0.19707392,0.5901565,-10.98,-1.02,-45.6
1554108476345,-7.0724716,-3.2040405,4.577115,0.5496765,0.21092236,0.535828,-10.86,-1.5,-45.54
1554108476366,-7.2592196,-2.959832,4.371214,0.52411014,0.20985709,0.47510794,-10.8,-2.1,-45.48
1554108476385,-7.350199000000001,-2.926313,4.361637,0.48149952,0.17896444,0.43995422,-10.74,-2.7,-45.42
1554108476406,-7.278373200000001,-2.7635074,4.3903675,0.43249738,0.15446335,0.42397526,-10.68,-3.36,-45.36
1554108476426,-7.350199000000001,-2.782661,4.553173,0.41864893,0.13422333,0.39734364,-10.68,-4.08,-45.3
1554108476445,-7.422025,-2.7347770000000002,4.371214,0.41864893,0.11930962,0.35260254,-10.62,-4.68,-45.3
1554108476466,-7.417236999999999,-2.5959132,4.433463,0.39627838,0.10013486,0.31318775,-10.5,-5.4,-45.36
1554108476486,-7.5944076,-2.2798786,4.5483847,0.39734364,0.080960095,0.27164245,-10.32,-6.06,-45.36
1554108476505,-7.723694999999999,-2.0260932,4.5340195,0.4016047,0.07669904,0.22264028,-10.2,-6.54,-45.36
1554108476525,-7.843405000000001,-1.9111716,4.768651,0.3749731,0.07243799,0.20026971,-10.02,-7.08,-45.36
1554108476546,-7.7572136,-1.9159599999999999,4.56275,0.2790993,0.06604639400000001,0.21518342,-9.9,-7.5,-45.36
1554108476566,-7.8146744,-2.0787656,4.7734394,0.10972224,0.068176925,0.23116238,-9.78,-7.98,-45.36
1554108476585,-7.752425,-2.0165164,5.04159,0.039414786,0.053263225,0.21837921,-9.66,-8.52,-45.36
1554108476605,-7.738060000000001,-2.0979192,4.9841294000000005,0.06604639400000001,0.054328485999999995,0.22264028,-9.54,-9.12,-45.36
1554108476626,-7.6853875999999985,-2.0165164,5.146935,0.15020229,0.07882957,0.21944448,-9.54,-9.54,-45.36
1554108476646,-7.852981599999999,-1.8393455,4.8452660000000005,0.23861924,0.10546118,0.17363810000000002,-9.54,-9.96,-45.36
1554108476665,-8.001422,-1.8106151000000001,4.936245400000001,0.2609898,0.10439592,0.13315806,-9.54,-10.44,-45.36
1554108476685,-7.881711999999999,-1.7962499,5.075108999999999,0.30679616,0.08522116,0.12570119999999999,-9.54,-10.98,-45.42
1554108476706,-7.943961,-1.8920178,4.979341000000001,0.38562572,0.06498113,0.15233281,-9.48,-11.34,-45.42
1554108476725,-7.852981599999999,-1.5616181,5.185242,0.39201729999999996,0.058589544,0.12783173,-9.48,-11.58,-45.42
1554108476746,-8.130709,-1.6334441000000002,4.9027267,0.37284255,0.054328485999999995,0.056459017,-9.48,-11.58,-45.42
1554108476766,-8.054094000000001,-1.5280992,4.9984946,0.39308259999999995,0.020240024,0.027696876000000002,-9.48,-11.7,-45.42
1554108476786,-7.953538000000001,-1.7052702000000002,4.8452660000000005,0.47617322,-0.02130529,0.053263225,-9.42,-12.0,-45.42
1554108476806,-8.111555000000001,-1.6956933999999997,4.912303400000001,0.56885123,-0.035153727999999995,0.06604639400000001,-9.36,-12.3,-45.42
1554108476826,-8.130709,-1.4945803999999998,4.89315,0.5795039000000001,-0.043675844000000005,0.053263225,-9.36,-12.66,-45.42
1554108476846,-8.111555000000001,-1.46585,4.7878050000000005,0.5070659000000001,-0.037284255,0.05539375,-9.3,-13.02,-45.42
1554108476865,-8.101977999999999,-1.3030443,4.7303440000000005,0.3685815,-0.020240024,0.068176925,-9.3,-13.38,-45.42
1554108476885,-8.010999,-1.240795,5.075108999999999,0.32810146,-0.027696876000000002,0.05219796,-9.24,-13.86,-45.42
1554108476905,-7.967903,-1.2838906,5.185242,0.37710363,-0.017044231,0.043675844000000005,-9.24,-14.4,-45.42
1554108476926,-7.5608889999999995,-1.1593921,5.3528366,0.56245965,-0.0053263223,0.020240024,-9.24,-15.0,-45.3
1554108476946,-7.393294999999999,-1.073201,4.9027267,0.68176925,-0.008522116,-0.0063915867,-9.24,-15.54,-45.24
1554108476966,-7.608772999999999,-0.9295488000000001,4.3664255,0.5273059,-0.011717908999999999,-0.049002163,-9.24,-15.96,-45.12
1554108476985,-7.9822683,-0.76195467,4.32333,0.14594123,-0.00958738,-0.09587380000000001,-9.24,-16.44,-45.06
1554108477006,-8.374918,-1.0588357,4.735132,-0.30679616,-0.012783173500000002,-0.112918034,-9.24,-16.92,-44.94
1554108477026,-8.020576,-1.0588357,5.290587400000001,-0.38562572,-0.013848438000000001,-0.128897,-9.24,-17.52,-44.82
1554108477045,-7.920019,-1.3652935,4.8739963,-0.3568636,-0.015978966,-0.10013486,-9.24,-18.06,-44.76
1554108477066,-8.001422,-1.6286557,5.156512,-0.20133498,0.014913702,-0.1107875,-9.24,-18.48,-44.7
1554108477086,-8.1881695,-1.7579426,5.1086279999999995,-0.07776430000000001,0.008522116,-0.11824436,-9.24,-18.66,-44.76
1554108477105,-8.403648,-1.8441339,4.854842700000001,0.080960095,-0.0053263223,-0.10652645,-9.24,-18.78,-44.82
1554108477125,-8.456321,-1.0971429,6.1955953,0.23755397,0.041545313,-0.12996227,-9.24,-18.84,-44.88
1554108477146,-7.8003089999999995,-1.1498153,4.9937059999999995,0.44634579999999996,0.008522116,-0.14487597,-9.24,-18.9,-45.0
1554108477166,-7.9583262999999995,-1.1210848999999998,4.7494974,0.35899413,0.101200126,-0.05219796,-9.3,-18.9,-45.12
1554108477186,-7.9487495,-1.0205284,4.5723267,0.17257284,0.10333065,-0.039414786,-9.3,-18.84,-45.18
1554108477206,-7.7572136,-1.0827777,4.5483847,0.05965481,0.05965481,-0.10546118,-9.36,-18.72,-45.24
1554108477226,-7.852981599999999,-1.2264298,4.5483847,-0.020240024,0.027696876000000002,-0.15126756,-9.36,-18.72,-45.3
1554108477246,-7.891288799999999,-1.2695253999999998,4.6920366,-0.12783173,0.011717908999999999,-0.1470065,-9.36,-18.78,-45.24
1554108477266,-7.785944000000001,-1.5376761,4.8404775,-0.24927188,-0.027696876000000002,-0.128897,-9.42,-18.96,-45.18
1554108477285,-7.5082164,-1.7004818,4.936245400000001,-0.4079963,-0.014913702,-0.13635385,-9.36,-19.14,-45.06
1554108477305,-7.656657000000001,-1.7052702000000002,5.122993,-0.386691,0.023435817999999997,-0.21837921,-9.36,-19.26,-45.0
1554108477325,-7.963114699999999,-1.7531542000000002,5.0559554,-0.27696875,0.041545313,-0.28975195,-9.36,-19.38,-44.94
1554108477346,-7.996633500000001,-1.7196354,5.137358,-0.2066613,0.049002163,-0.30146983,-9.36,-19.38,-44.88
1554108477365,-7.9343843,-1.6669630000000002,4.7399206,-0.12357068,0.039414786,-0.30999196,-9.3,-19.32,-44.82
1554108477385,-7.776367,-1.5568296999999998,4.6393642,-0.09267801,0.039414786,-0.32490566,-9.18,-19.08,-44.82
1554108477406,-7.5608889999999995,-1.2503718000000001,4.7159786,-0.1107875,0.004261058,-0.42077947,-9.0,-18.48,-44.88
1554108477425,-7.4746976,-1.1689690000000001,4.3568487000000005,-0.23435818,-0.02876214,-0.51026165,-8.88,-18.06,-44.88
1554108477445,-7.565677,-1.4323312,4.0695443,-0.47191215,-0.06178534,-0.6061354999999999,-8.76,-17.64,-44.88
1554108477466,-7.493850999999999,-1.7292121999999999,4.3281183,-0.7414241,-0.10439592,-0.70840085,-8.64,-17.22,-44.94
1554108477485,-7.254431200000001,-2.0165164,4.079121,-0.9416938,-0.15978967,-0.78936094,-8.52,-16.86,-45.0
1554108477505,-7.0581064,-2.236783,4.2850223,-1.1057445,-0.18961707,-0.8447546999999999,-8.34,-16.44,-45.06
1554108477526,-7.067683000000001,-2.8113914,4.0264487,-1.2889700000000002,-0.19813919,-0.8990832000000001,-8.22,-15.78,-45.12
1554108477547,-7.1395097000000005,-3.2902317,4.2993879999999995,-1.4391723,-0.2034655,-0.96619487,-8.22,-15.06,-45.18
1554108477566,-6.8426285,-3.6302083,4.371214,-1.4583471000000001,-0.22796659,-1.0418286,-8.22,-14.04,-45.24
1554108477585,-6.6510925,-3.769072,4.0743327,-1.4146712,-0.24181503,-1.1068097,-8.22,-12.84,-45.24
1554108477606,-6.6606693,-4.123414,3.6529531000000004,-1.365669,-0.21624869,-1.1952267,-8.16,-11.46,-45.24
1554108477626,-6.7612257,-4.5352163,3.8349125,-1.4136058999999999,-0.19920446,-1.2655341999999998,-8.16,-9.84,-45.24
1554108477646,-6.5026517,-4.9757495,4.079121,-1.4263891000000002,-0.1949434,-1.2868395000000001,-8.16,-7.98,-45.18
1554108477665,-6.172251999999999,-5.373187000000001,3.9163153,-1.2772521000000001,-0.15552860000000002,-1.2900352,-8.22,-5.94,-45.06
1554108477685,-6.320692500000001,-5.727529,3.7582982000000005,-1.128115,-0.09587380000000001,-1.325189,-8.28,-4.08,-45.0
1554108477706,-6.6750345,-6.072294,3.7104141999999998,-1.067395,-0.04474111,-1.3752563999999998,-8.34,-2.22,-44.88
1554108477726,-6.5122285,-6.330868,3.9067385000000003,-0.96299905,-0.053263225,-1.3795174,-8.46,-0.54,-44.82
1554108477746,-6.38773,-6.603807000000001,3.8971617,-0.7637946,-0.047936900000000005,-1.325189,-8.58,1.14,-44.76
1554108477765,-6.229712999999999,-6.5750766,3.5571851999999997,-0.5635249,-0.047936900000000005,-1.2985574,-8.7,2.7,-44.7
1554108477786,-6.229712999999999,-6.7666125,3.8349125,-0.43995422,-0.04580637,-1.3262542,-8.82,4.02,-44.64
1554108477805,-6.2632318,-6.8719573,4.0839095,-0.4048005,-0.07563378,-1.3305153,-8.94,5.22,-44.58
1554108477826,-6.042965000000001,-6.905475999999999,4.103063,-0.35792887,-0.068176925,-1.2921658,-9.12,6.24,-44.46
1554108477846,-5.837064,-7.211933999999999,3.7152026,-0.2908172,-0.037284255,-1.2335763000000002,-9.24,7.2,-44.4
1554108477865,-5.8322754,-7.4896617,3.4183214,-0.39414784,-0.017044231,-1.1685951,-9.42,8.1,-44.34
1554108477885,-5.837064,-7.6189485,3.8205473,-0.4708469,-0.00958738,-1.1121361,-9.54,8.88,-44.22
1554108477905,-5.645528,-7.887099,3.863643,-0.45167214,-0.036218993,-1.0610034,-9.72,9.6,-44.1
1554108477926,-5.444414599999999,-8.251018,4.0216603,-0.31957933,-0.046871635999999994,-0.98110855,-10.02,10.26,-44.04
1554108477945,-5.1092260000000005,-8.131308,3.7870286,-0.14168017,-0.035153727999999995,-0.9054747999999999,-10.32,10.92,-43.98
1554108477965,-5.291186,-8.251018,3.293823,-0.07243799,-0.035153727999999995,-0.85753787,-10.68,11.46,-43.86
1554108477985,-5.2289367,-8.341997000000001,3.5045127999999997,-0.14913702,-0.05006743,-0.7957525,-11.16,12.0,-43.74
1554108478006,-5.0374002,-8.600571,3.6002807999999997,-0.18002969,-0.07882957,-0.7222493000000001,-11.58,12.42,-43.5
1554108478026,-4.7405194999999996,-8.634089,3.494936,-0.19813919,-0.098004326,-0.63702816,-11.94,12.84,-43.32
1554108478046,-4.635174299999999,-8.806473,3.4614172,-0.20026971,-0.094808534,-0.5475459,-12.24,13.26,-43.14
1554108478066,-4.5441947,-8.772953999999999,3.4566288,-0.18216023,-0.07563378,-0.4644553,-12.48,13.5,-42.96
1554108478085,-4.4149080000000005,-8.734647,3.5619736000000004,-0.099069595,-0.07563378,-0.40586576,-12.72,13.8,-42.78
1554108478106,-4.280833,-8.763377,3.2555158,0.004261058,-0.08522116,-0.3653857,-12.84,14.1,-42.6
1554108478126,-4.003105000000001,-8.480861,3.1022868,0.029827405,-0.084155895,-0.31638354,-12.9,14.34,-42.48
1554108478145,-4.003105000000001,-8.495225999999999,3.1405939999999997,-0.029827405,-0.068176925,-0.26844665,-12.9,14.58,-42.42
1554108478165,-4.0509889999999995,-8.619724,3.164536,-0.07882957,-0.05752428,-0.23116238,-12.96,14.76,-42.48
1554108478186,-3.9935283999999998,-8.5622635,3.3464954,-0.05539375,-0.05539375,-0.20133498,-13.08,14.82,-42.42
1554108478206,-3.7876269999999996,-8.418612,3.2555158,0.02130529,-0.049002163,-0.20133498,-13.26,14.94,-42.42
1554108478225,-3.7445314,-8.332419999999999,3.2507273999999997,0.07563378,-0.040480047000000005,-0.19920446,-13.38,15.0,-42.42
1554108478245,-3.7205894,-8.198345,3.0974984,0.06178534,-0.02130529,-0.19281286,-13.56,15.0,-42.42
1554108478266,-3.7541082,-8.222287,2.9730000000000003,-0.0063915867,-0.014913702,-0.19281286,-13.74,15.0,-42.42
1554108478286,-3.7205894,-8.337209,3.2028434,-0.06498113,-0.020240024,-0.19707392,-13.98,15.06,-42.48
1554108478306,-3.6008794,-8.255806,3.1405939999999997,-0.058589544,-0.022370555,-0.19707392,-14.1,15.18,-42.48
1554108478325,-3.6152446000000005,-8.341997000000001,3.1932666000000003,-0.027696876000000002,-0.03089267,-0.2066613,-14.22,15.3,-42.48
1554108478345,-3.6966474000000002,-8.404246,3.1932666000000003,0.007456851,-0.03834952,-0.22050974,-14.28,15.36,-42.48
1554108478366,-3.5913025999999997,-8.476072,3.1932666000000003,0.040480047000000005,-0.056459017,-0.22903186,-14.28,15.48,-42.48
1554108478385,-3.6248214,-8.107366,3.0160956000000003,0.039414786,-0.06924219,-0.221575,-14.34,15.66,-42.48
1554108478406,-3.5817258,-8.212710000000001,2.8532897999999998,0.004261058,-0.08735169,-0.23542345,-14.4,15.72,-42.48
1554108478426,-3.5769374,-8.399458000000001,3.0065188,-0.06924219,-0.094808534,-0.22796659,-14.4,15.78,-42.48
1554108478446,-3.5817258,-8.739435,3.0591912,-0.08628642,-0.10759171,-0.21944448,-14.46,15.78,-42.48
1554108478466,-3.3901896000000002,-8.681973,3.1022868,-0.06924219,-0.10972224,-0.21092236,-14.52,15.72,-42.54
1554108478486,-3.3854012000000004,-8.456919000000001,3.1932666000000003,-0.07882957,-0.101200126,-0.20559604,-14.58,15.66,-42.54
1554108478506,-3.4045547999999997,-8.255806,3.0304607999999997,-0.13102753,-0.09161274,-0.20985709,-14.7,15.6,-42.6
1554108478526,-3.4189199999999995,-8.533533,2.9825767999999995,-0.20772657,-0.08841695,-0.19600865,-14.82,15.54,-42.6
1554108478545,-3.3375172999999996,-8.576628999999999,2.949058,-0.30146983,-0.08948222,-0.1768339,-15.0,15.54,-42.6
1554108478565,-3.2944214,-8.418612,2.867655,-0.41864893,-0.08735169,-0.18748654,-15.12,15.54,-42.6
1554108478586,-3.4284968,-8.5383215,2.8772318,-0.58909124,-0.09161274,-0.18642128,-15.24,15.6,-42.54
1554108478605,-3.3806129,-8.835203,3.164536,-0.58056915,-0.11504856,-0.16724652,-15.36,15.78,-42.48
1554108478625,-3.1603463,-9.132083999999999,2.9873652,-0.2876214,-0.14807177,-0.15659387,-15.48,16.08,-42.42
1554108478646,-3.1603463,-9.122507,2.8101943,-0.0063915867,-0.14274544,-0.12250541,-15.54,16.44,-42.36
1554108478666,-3.2321722999999998,-8.81605,2.8628666000000003,0.083090626,-0.12570119999999999,-0.096939065,-15.66,16.74,-42.3
1554108478685,-3.3327288999999998,-8.648455,2.891597,-0.014913702,-0.12037488,-0.07989483,-15.66,17.04,-42.24
1554108478705,-3.3614593,-8.744224,2.9394810000000002,-0.09054748,-0.1107875,-0.06285059999999999,-15.66,17.34,-42.18
1554108478725,-3.2513257999999996,-8.811261,2.8868085999999997,-0.08948222,-0.111852765,-0.05219796,-15.72,17.64,-42.18
1554108478746,-3.0693667000000002,-8.768166,2.9825767999999995,-0.02876214,-0.098004326,-0.035153727999999995,-15.84,17.94,-42.12
1554108478766,-3.0023289,-8.758589,3.3033997999999998,0.011717908999999999,-0.06711166,-0.025566347000000003,-16.08,18.12,-42.12
1554108478786,-3.0310593,-8.863934,3.2507273999999997,0.058589544,-0.03195793,-0.025566347000000003,-16.26,18.18,-42.12
1554108478806,-3.1076740000000003,-8.907029,2.9969419999999998,0.12250541,-0.014913702,-0.037284255,-16.44,18.3,-42.12
1554108478826,-2.9400797,-8.729858,2.9442697,0.17257284,-0.015978966,-0.039414786,-16.62,18.36,-42.12
1554108478845,-2.9400797,-8.643666,2.7431567,0.18322548,-0.020240024,-0.037284255,-16.8,18.42,-42.12
1554108478865,-2.9209259999999997,-8.624513,2.7910407000000004,0.1587244,-0.02130529,-0.04474111,-16.98,18.54,-42.12
1554108478886,-3.0071173,-8.4234,2.6856956000000003,0.13102753,-0.041545313,-0.07243799,-17.1,18.6,-42.12
1554108478906,-3.1076740000000003,-8.476072,2.8293478,0.051132694000000006,-0.07137272,-0.07350325,-17.1,18.54,-42.12
1554108478926,-3.0214825000000003,-8.567052,2.6856956000000003,-0.036218993,-0.09587380000000001,-0.068176925,-17.1,18.42,-42.12
1554108478946,-3.0310593,-8.638878,2.6809072,-0.1587244,-0.08522116,-0.06498113,-17.1,18.3,-42.06
1554108478966,-3.1172507,-8.883087,3.09271,-0.27696875,-0.07669904,-0.047936900000000005,-17.04,18.24,-42.06
1554108478986,-2.9592332999999997,-9.098564999999999,3.3081882000000005,-0.24074976,-0.06498113,-0.035153727999999995,-17.04,18.12,-42.06
1554108479006,-2.8634652999999997,-8.96449,3.1453824,-0.05006743,-0.039414786,-0.03089267,-17.04,18.0,-42.0
1554108479025,-2.8778305,-8.729858,2.9634232999999996,0.09587380000000001,-0.0010652645,-0.04580637,-16.98,17.94,-42.0
1554108479045,-2.9113493,-8.5622635,2.8485014,0.12250541,0.012783173500000002,-0.06924219,-16.98,17.88,-42.06
1554108479066,-2.906561,-8.576628999999999,2.9203273999999997,0.07989483,0.002130529,-0.05539375,-16.92,17.88,-42.06
1554108479086,-2.705448,-8.413822999999999,2.9107506,-0.002130529,0.00958738,-0.036218993,-16.92,17.94,-42.12
1554108479106,-2.6527755,-8.389880999999999,2.9969419999999998,-0.07882957,0.04580637,-0.07563378,-16.92,18.0,-42.12
1554108479127,-3.040636,-8.686762,2.8006175,-0.20133498,0.04580637,-0.10546118,-16.92,18.06,-42.18
1554108479146,-3.0885203,-8.629301,2.6426,-0.39414784,0.04580637,-0.07563378,-16.92,18.06,-42.18
1554108479165,-2.801216,-8.581417,2.9203273999999997,-0.48682585,0.05752428,-0.05752428,-16.92,18.12,-42.18
1554108479186,-2.9831752999999996,-8.772953999999999,2.7335799,-0.44741106,0.07563378,-0.07137272,-16.92,18.12,-42.18
1554108479205,-3.0789435000000003,-8.93576,2.5995044999999997,-0.42930159999999995,0.08841695,-0.041545313,-16.86,18.18,-42.12
1554108479226,-2.96881,-8.854357,2.4702177000000005,-0.44954160000000004,0.09587380000000001,-0.014913702,-16.86,18.18,-42.12
1554108479245,-3.0166939999999998,-8.768166,2.0296845,-0.5571333,0.098004326,-0.035153727999999995,-16.8,18.42,-42.0
1554108479265,-2.944868,-8.72507,2.2643162999999995,-0.660464,0.10865697,-0.07456851,-16.8,18.54,-42.0
1554108479286,-3.217807,-9.146449,2.0248961,-0.74675035,0.08628642,-0.08522116,-16.68,19.02,-41.82
1554108479306,-3.1507695,-9.342773,2.0153193,-0.67324716,0.06604639400000001,-0.034088463,-16.56,19.62,-41.76
1554108479325,-2.906561,-9.32362,1.8908207,-0.47617322,0.06178534,-0.012783173500000002,-16.44,20.22,-41.58
1554108479345,-2.9496564999999997,-9.361927,1.857302,-0.27057716,0.07456851,-0.020240024,-16.38,20.82,-41.4
1554108479365,-3.0933087,-9.366715,1.6705543,-0.13422333,0.05965481,-0.022370555,-16.32,21.42,-41.1
1554108479385,-3.1268275,-9.280524,1.3449427999999999,-0.03834952,0.024501082,-0.024501082,-16.26,21.96,-40.8
1554108479406,-2.9783869,-9.1033535,1.4167688999999999,0.05219796,0.008522116,-0.015978966,-16.32,22.5,-40.38
1554108479426,-2.9400797,-9.041103999999999,1.38325,0.080960095,-0.008522116,-0.035153727999999995,-16.32,22.98,-40.08
1554108479446,-3.122039,-8.974067,1.5412674,-0.014913702,-0.008522116,-0.05219796,-16.44,23.4,-39.78
1554108479466,-3.4332852,-9.050680999999999,1.6705543,-0.080960095,-0.010652645,-0.03834952,-16.56,23.64,-39.54
1554108479485,-3.4093432,-9.199121,1.8189948,-0.036218993,-0.026631612000000002,-0.0010652645,-16.62,23.82,-39.3
1554108479505,-3.1794999,-9.20391,1.7854759999999998,0.09374327,-0.039414786,0.02130529,-16.68,24.0,-39.12
1554108479526,-3.1842883,-9.093777000000001,1.9099745,0.15552860000000002,-0.027696876000000002,0.023435817999999997,-16.74,24.12,-39.0
1554108479545,-3.1747115000000004,-8.954913000000001,1.7806876,0.15446335,-0.022370555,0.036218993,-16.74,24.3,-39.0
1554108479566,-3.3039982000000006,-9.179967999999999,1.8333599999999999,0.10865697,-0.036218993,0.05219796,-16.68,24.36,-39.06
1554108479585,-3.1603463,-9.165602999999999,1.9722236000000002,0.07563378,-0.05965481,0.06285059999999999,-16.62,24.36,-39.06
1554108479606,-3.145981,-9.122507,1.7663223000000001,0.07030745599999999,-0.07776430000000001,0.06924219,-16.56,24.3,-39.06
1554108479625,-2.9592332999999997,-8.820838,1.8860323,0.03195793,-0.08628642,0.07882957,-16.56,24.24,-39.06
1554108479645,-3.0214825000000003,-8.681973,2.2164322999999997,0.08948222,-0.053263225,0.036218993,-16.5,24.24,-39.06
1554108479666,-3.0071173,-8.930971000000001,2.0536265,0.14487597,-0.051132694000000006,0.015978966,-16.5,24.12,-39.06
1554108479686,-3.1651347000000003,-8.911817999999998,1.9674352,0.12037488,-0.01917476,0.018109497,-16.5,24.06,-39.12
1554108479706,-3.2130187,-8.839992,1.929128,0.10439592,-0.015978966,-0.0031957934000000003,-16.5,23.94,-39.12
1554108479725,-3.1555579,-8.863934,2.0153193,0.16831179,-0.015978966,-0.03195793,-16.56,23.82,-39.18
1554108479745,-3.1555579,-9.1512375,1.8189948,0.24927188,-0.03089267,-0.049002163,-16.62,23.7,-39.24
1554108479766,-3.2130187,-9.021951,2.0392613,0.21518342,-0.008522116,-0.010652645,-16.68,23.58,-39.3
1554108479786,-3.3518825,-9.045893,2.2930467,0.20559604,0.0,0.007456851,-16.62,23.46,-39.36
1554108479806,-3.4284968,-8.969278,2.178125,0.25246766,-0.008522116,0.0,-16.62,23.28,-39.42
1554108479826,-3.2369606,-8.988432000000001,2.297835,0.31957933,-0.010652645,0.008522116,-16.62,23.16,-39.48
1554108479846,-3.2944214,-8.768166,2.1350293,0.36325517,-0.013848438000000001,0.00958738,-16.62,22.98,-39.54
1554108479865,-3.4189199999999995,-8.978855000000001,2.345719,0.37071204,-0.0063915867,0.013848438000000001,-16.62,22.8,-39.6
1554108479885,-3.4189199999999995,-8.916606,2.4941597,0.39947417,-0.007456851,0.02876214,-16.56,22.62,-39.66
1554108479905,-3.4045547999999997,-8.983644,2.345719,0.46658584,-0.024501082,0.040480047000000005,-16.62,22.2,-39.66
1554108479926,-3.4045547999999997,-8.696339,2.5228900000000003,0.5091964,-0.02876214,0.039414786,-16.68,21.84,-39.78
1554108479946,-3.4572272000000006,-8.629301,2.3505075,0.4878911,-0.040480047000000005,0.049002163,-16.74,21.42,-39.84
1554108479966,-3.3279405,-8.581417,2.6138697,0.45167214,-0.054328485999999995,0.05219796,-16.74,21.06,-39.9
1554108479986,-3.2273839,-8.480861,2.8772318,0.43356264,-0.05965481,0.04474111,-16.74,20.46,-40.14
1554108480005,-3.2082303,-8.523956,2.7335799,0.40906155,-0.05752428,0.03834952,-16.8,20.1,-40.38
1554108480026,-3.2561142000000003,-8.5862055,3.0879216,0.40906155,-0.046871635999999994,0.022370555,-16.74,19.62,-40.62
1554108480047,-3.394978,-8.57184,3.1693244,0.39308259999999995,-0.05539375,0.01917476,-16.68,19.26,-40.98
1554108480067,-3.4189199999999995,-8.519167999999999,3.0160956000000003,0.3685815,-0.068176925,0.022370555,-16.56,18.9,-41.28
1554108480085,-3.394978,-8.298902,3.0496144,0.2972088,-0.08628642,0.010652645,-16.5,18.48,-41.58
1554108480106,-3.3997664,-8.356361999999999,3.0496144,0.22690132,-0.10546118,-0.0031957934000000003,-16.44,18.12,-41.88
1554108480125,-3.3135752999999997,-8.222287,3.3081882000000005,0.16085494,-0.111852765,-0.010652645,-16.44,17.76,-42.12
1554108480145,-3.2130187,-8.169615,3.2507273999999997,0.113983296,-0.1107875,-0.015978966,-16.44,17.52,-42.24
1554108480166,-3.371036,-8.476072,3.2650926,0.033023197000000004,-0.11504856,-0.022370555,-16.44,16.98,-42.42
1554108480185,-3.3806129,-8.380303999999999,3.2411506,0.010652645,-0.12144015,-0.036218993,-16.56,16.5,-42.54
1554108480205,-3.4380736000000005,-8.346786,3.3129766000000003,-0.014913702,-0.128897,-0.04474111,-16.74,16.08,-42.6
1554108480225,-3.4189199999999995,-8.227076,3.2794578000000003,-0.111852765,-0.12250541,0.004261058,-16.92,15.84,-42.66
1554108480245,-3.2609026,-8.485649,3.4662056000000003,-0.11717909,-0.10226539,0.0,-17.04,15.6,-42.72
1554108480265,-3.4572272000000006,-8.504802999999999,3.3225534,-0.09054748,-0.10333065,-0.011717908999999999,-17.16,15.36,-42.78
1554108480286,-3.4284968,-8.476072,3.09271,-0.10439592,-0.10972224,0.0053263223,-17.28,15.12,-42.84
1554108480305,-3.3997664,-8.389880999999999,3.116652,-0.1438107,-0.11930962,0.00958738,-17.46,14.94,-42.9
1554108480325,-3.466804,-8.4664955,3.1549592,-0.15126756,-0.13528858,0.015978966,-17.64,14.88,-42.9
1554108480345,-3.2752678,-8.409035000000001,3.221997,-0.11930962,-0.14274544,0.020240024,-17.7,14.88,-42.96
1554108480365,-3.3279405,-8.418612,3.2794578000000003,-0.12463594,-0.12570119999999999,0.022370555,-17.76,14.94,-42.96
1554108480385,-3.3423057000000003,-8.356361999999999,3.2124202,-0.16724652,-0.12037488,0.02876214,-17.82,15.06,-42.96
1554108480406,-3.3375172999999996,-8.30369,2.9969419999999998,-0.23116238,-0.12996227,0.00958738,-17.82,15.12,-42.96
1554108480425,-3.3135752999999997,-8.327632000000001,3.0160956000000003,-0.2876214,-0.13848437,0.00958738,-17.88,15.18,-42.96
1554108480445,-3.2800562000000006,-8.485649,3.1214404,-0.30040458,-0.14168017,0.03195793,-17.94,15.42,-42.96
1554108480465,-3.3423057000000003,-8.528744999999999,3.0496144,-0.22264028,-0.15552860000000002,0.015978966,-17.94,15.6,-42.96
1554108480485,-3.3518825,-8.504802999999999,3.164536,-0.16831179,-0.16298546,-0.002130529,-17.94,15.78,-42.9
1554108480506,-3.3566709,-8.409035000000001,2.891597,-0.20879184,-0.16724652,0.0053263223,-17.94,15.96,-42.9
1554108480526,-3.2752678,-8.4425535,2.891597,-0.2908172,-0.16192019,0.008522116,-17.94,16.2,-42.9
1554108480545,-3.2609026,-8.404246,2.9442697,-0.34088463,-0.15659387,-0.008522116,-17.94,16.56,-42.78
1554108480565,-3.3039982000000006,-8.413822999999999,2.8485014,-0.39627838,-0.15659387,-0.01917476,-17.94,16.98,-42.72
1554108480586,-3.2848446000000004,-8.782531,3.1597476,-0.39201729999999996,-0.1587244,-0.02130529,-17.94,17.34,-42.6
1554108480606,-3.3470940000000002,-8.892664,2.8532897999999998,-0.25992453,-0.17044231,-0.01917476,-17.94,17.64,-42.48
1554108480626,-3.2848446000000004,-8.648455,2.8149827000000003,-0.15339808,-0.165116,-0.00958738,-17.94,18.0,-42.36
1554108480646,-3.3758245000000002,-8.619724,2.7383683,-0.14913702,-0.15020229,-0.026631612000000002,-18.0,18.3,-42.3
1554108480666,-3.4524388,-8.619724,2.8293478,-0.2695119,-0.14168017,-0.035153727999999995,-18.0,18.6,-42.18
1554108480686,-3.3662476999999997,-8.672397,2.7383683,-0.4048005,-0.13209279,-0.012783173500000002,-18.06,18.9,-42.06
1554108480705,-3.3183637000000004,-8.653243,2.6569653,-0.44315,-0.11717909,-0.014913702,-18.06,19.08,-41.94
1554108480725,-3.4141315999999997,-8.658031,2.6234465,-0.4708469,-0.101200126,-0.0063915867,-18.12,19.2,-41.82
1554108480746,-3.3135752999999997,-8.820838,2.4462755,-0.49534798,-0.08522116,0.0,-18.18,19.44,-41.76
1554108480765,-3.3758245000000002,-8.926183,2.5995044999999997,-0.44315,-0.083090626,-0.011717908999999999,-18.3,19.62,-41.7
1554108480786,-3.265691,-8.940548,2.1206641,-0.3291667,-0.10546118,-0.017044231,-18.36,19.98,-41.58
1554108480806,-3.2321722999999998,-8.921394,2.168548,-0.26418558,-0.098004326,-0.0031957934000000003,-18.48,20.52,-41.34
1554108480825,-3.3901896000000002,-9.165602999999999,2.3361422999999997,-0.16724652,-0.07776430000000001,0.011717908999999999,-18.6,20.94,-41.1
1554108480846,-3.2848446000000004,-9.021951,2.2882583,-0.014913702,-0.07456851,0.0010652645,-18.66,21.36,-40.8
1554108480865,-3.1842883,-8.801684,2.2260091,0.06924219,-0.06178534,0.0,-18.78,21.78,-40.5
1554108480885,-3.2082303,-8.705916,2.1015105,0.053263225,-0.039414786,0.023435817999999997,-18.84,22.2,-40.26
1554108480906,-3.2944214,-8.772953999999999,2.3744495,0.013848438000000001,-0.027696876000000002,0.025566347000000003,-18.84,22.56,-39.96
1554108480926,-3.3614593,-8.72507,2.331354,0.008522116,-0.026631612000000002,0.018109497,-18.9,22.86,-39.84
1554108480945,-3.1794999,-8.763377,2.3505075,0.04580637,-0.025566347000000003,0.012783173500000002,-18.9,22.98,-39.72
1554108480965,-3.1172507,-8.686762,2.2786815,0.10333065,-0.00958738,-0.002130529,-18.9,22.98,-39.72
1554108480986,-3.122039,-8.7538,2.1829132999999996,0.12996227,0.020240024,-0.018109497,-18.9,23.04,-39.78
1554108481006,-3.1890767,-8.715492999999999,2.3696610000000002,0.12144015,0.029827405,-0.02876214,-18.96,23.1,-39.9
1554108481026,-3.2609026,-8.782531,2.3409307,0.098004326,0.043675844000000005,-0.026631612000000002,-18.96,23.1,-40.02
1554108481045,-3.2848446000000004,-8.667608,2.2499511,0.07350325,0.046871635999999994,-0.036218993,-19.02,23.1,-40.14
1554108481065,-3.3039982000000006,-8.614936,2.1877017000000003,0.03089267,0.054328485999999995,-0.046871635999999994,-19.02,23.1,-40.26
1554108481086,-3.3375172999999996,-8.701127,2.4079683,-0.013848438000000001,0.056459017,-0.05219796,-19.08,23.04,-40.2
1554108481105,-3.3423057000000003,-8.772953999999999,2.331354,-0.08735169,0.05752428,-0.047936900000000005,-19.14,22.98,-40.2
1554108481125,-3.3183637000000004,-8.758589,2.3696610000000002,-0.13315806,0.07137272,-0.033023197000000004,-19.14,22.98,-40.2
1554108481146,-3.4284968,-8.839992,2.4702177000000005,-0.037284255,0.07137272,-0.05752428,-19.14,22.92,-40.2
1554108481165,-3.4189199999999995,-8.782531,2.2403743,-0.0053263223,0.07882957,-0.03195793,-19.14,22.8,-40.2
1554108481186,-3.3087866000000004,-8.907029,2.144606,-0.010652645,0.080960095,-0.0063915867,-19.14,22.74,-40.14
1554108481205,-3.2992098,-8.811261,2.1350293,-0.07563378,0.08841695,0.011717908999999999,-19.08,22.68,-40.14
1554108481226,-3.371036,-8.93576,2.2930467,-0.08522116,0.094808534,0.0010652645,-19.08,22.68,-40.08
1554108481245,-3.3614593,-8.926183,2.3983915000000002,-0.049002163,0.098004326,0.0010652645,-18.96,22.62,-40.14
1554108481266,-3.3566709,-8.878299,2.2930467,0.03195793,0.10652645,0.00958738,-18.84,22.62,-40.14
1554108481285,-3.371036,-8.93576,2.3505075,0.08841695,0.11717909,0.029827405,-18.72,22.56,-40.14
1554108481305,-3.5865142,-8.907029,2.3361422999999997,0.12783173,0.112918034,0.024501082,-18.6,22.56,-40.08
1554108481326,-3.5913025999999997,-8.792108,2.441487,0.2034655,0.084155895,0.012783173500000002,-18.48,22.56,-40.08
1554108481345,-3.5386300000000004,-8.552686999999999,2.5516205000000003,0.3536678,0.08735169,0.022370555,-18.3,22.62,-40.08
1554108481366,-3.5386300000000004,-8.610147,2.1637597,0.46019423,0.07882957,0.033023197000000004,-18.18,22.62,-40.08
1554108481385,-3.6583402,-8.806473,1.9243397,0.39627838,0.07030745599999999,0.025566347000000003,-18.06,22.62,-40.08
1554108481405,-3.7972038,-8.658031,2.0440497,0.19174760000000002,0.060720075,0.029827405,-17.94,22.62,-40.08
1554108481426,-3.8786068,-8.509591,2.345719,0.0063915867,0.05752428,0.039414786,-17.94,22.56,-40.08
1554108481447,-3.8786068,-8.696339,2.1350293,-0.084155895,0.034088463,0.05006743,-17.88,22.44,-40.14
1554108481466,-3.7732617999999993,-8.485649,2.484583,-0.112918034,0.041545313,0.049002163,-17.82,22.32,-40.2
1554108481486,-3.6918589999999996,-8.5862055,2.6473885,-0.05965481,0.06178534,0.023435817999999997,-17.82,22.08,-40.32
1554108481506,-3.739743,-8.629301,2.4797945,-0.056459017,0.080960095,0.04474111,-17.76,21.9,-40.38
1554108481525,-3.6822822,-8.667608,2.556409,-0.1107875,0.10865697,0.07776430000000001,-17.76,21.78,-40.5
1554108481546,-3.5913025999999997,-8.447341999999999,2.4702177000000005,-0.17576863,0.112918034,0.07989483,-17.76,21.66,-40.62
1554108481567,-3.4524388,-8.456919000000001,2.4893713,-0.12676647,0.15126756,0.034088463,-17.7,21.48,-40.74
1554108481585,-3.6104562000000007,-8.610147,2.4702177000000005,-0.07563378,0.14807177,-0.017044231,-17.7,21.48,-40.8
1554108481606,-3.7253778,-8.787319,2.2643162999999995,-0.12250541,0.14487597,0.007456851,-17.64,21.48,-40.86
1554108481626,-3.6870705999999998,-8.873510000000001,2.1924900000000003,-0.2066613,0.13635385,0.026631612000000002,-17.52,21.6,-40.86
1554108481645,-3.8115692,-8.701127,2.0967221,-0.22903186,0.12676647,0.0053263223,-17.4,21.72,-40.86
1554108481665,-4.012682,-8.648455,2.1110873,-0.12250541,0.096939065,-0.004261058,-17.28,21.9,-40.86
1554108481686,-3.8019924,-8.600571,2.4223334999999997,0.043675844000000005,0.098004326,-0.007456851,-17.1,22.08,-40.86
1554108481705,-3.8833952000000003,-8.413822999999999,2.0105310000000003,0.12996227,0.08522116,-0.039414786,-16.92,22.26,-40.8
1554108481728,-4.0414124,-8.351574000000001,1.8333599999999999,0.060720075,0.083090626,-0.040480047000000005,-16.74,22.38,-40.74
1554108481746,-4.098873,-8.370728,2.1206641,-0.083090626,0.07563378,-0.04261058,-16.68,22.5,-40.62
1554108481765,-4.1180267,-8.519167999999999,2.0248961,-0.165116,0.05006743,-0.039414786,-16.62,22.62,-40.44
1554108481785,-3.8738184,-8.610147,1.929128,-0.19281286,0.033023197000000004,-0.022370555,-16.62,22.68,-40.32
1554108481806,-3.9552212,-8.696339,1.9913772,-0.22264028,0.034088463,-0.02130529,-16.56,22.8,-40.2
1554108481825,-3.9552212,-8.710705,2.2499511,-0.23329292,0.039414786,-0.017044231,-16.56,22.8,-40.08
1554108481845,-3.8642415999999997,-8.696339,2.0248961,-0.21944448,0.025566347000000003,-0.0031957934000000003,-16.56,22.86,-39.9
1554108481866,-3.9217023999999996,-8.667608,1.7854759999999998,-0.23435818,0.033023197000000004,-0.002130529,-16.56,22.92,-39.78
1554108481886,-3.8355112,-8.648455,1.9387047999999998,-0.26525086,0.025566347000000003,-0.015978966,-16.56,23.04,-39.66
1554108481906,-3.7636849999999997,-8.715492999999999,1.8668787,-0.26738137,0.017044231,-0.014913702,-16.62,23.16,-39.6
1554108481926,-3.7684733999999995,-8.81605,1.977012,-0.22796659,0.02876214,-0.027696876000000002,-16.56,23.46,-39.54
1554108481946,-3.9552212,-8.854357,1.8046296000000002,-0.15978967,0.035153727999999995,-0.05006743,-16.56,23.7,-39.48
1554108481966,-3.9743748,-8.878299,2.0248961,-0.128897,0.054328485999999995,-0.033023197000000004,-16.5,24.0,-39.42
1554108481985,-3.9025488,-8.940548,2.0392613,-0.02876214,0.046871635999999994,-0.026631612000000002,-16.5,24.3,-39.42
1554108482005,-3.9073372,-8.7538,1.7471686999999998,0.1107875,0.02876214,-0.029827405,-16.38,24.54,-39.36
1554108482026,-4.098873,-8.567052,1.7232267,0.17363810000000002,0.024501082,-0.026631612000000002,-16.32,24.84,-39.36
1554108482046,-4.1132383,-8.552686999999999,1.7423803,0.14594123,0.0053263223,-0.033023197000000004,-16.14,25.02,-39.36
1554108482066,-4.0270470000000005,-8.581417,1.5077485000000002,0.029827405,-0.024501082,-0.013848438000000001,-15.96,25.14,-39.36
1554108482085,-3.98874,-8.758589,1.7854759999999998,-0.0010652645,-0.034088463,-0.010652645,-15.84,25.02,-39.3
1554108482105,-3.9360676,-8.595782,1.6178818000000001,0.03195793,-0.04474111,-0.034088463,-15.72,24.9,-39.24
1554108482126,-3.9791632000000003,-8.643666,1.7423803,0.056459017,-0.05219796,-0.03089267,-15.6,24.78,-39.24
1554108482146,-3.8786068,-8.705916,1.6801311,0.026631612000000002,-0.04261058,-0.010652645,-15.54,24.66,-39.18
1554108482166,-4.003105000000001,-8.873510000000001,1.6083049999999999,0.0010652645,-0.03089267,-0.010652645,-15.42,24.6,-39.12
1554108482185,-3.9743748,-8.897452000000001,1.9147629000000002,0.015978966,-0.036218993,0.0053263223,-15.42,24.54,-39.06
1554108482206,-3.9121256,-8.758589,1.881244,0.07776430000000001,-0.03195793,0.0063915867,-15.42,24.54,-38.94
1554108482225,-3.8881836000000005,-8.705916,1.8764555,0.13528858,-0.033023197000000004,0.0031957934000000003,-15.42,24.54,-38.88
1554108482246,-3.9073372,-8.710705,1.7328035,0.15339808,-0.018109497,0.022370555,-15.42,24.6,-38.82
1554108482266,-3.9121256,-8.581417,1.8764555,0.10439592,0.004261058,0.027696876000000002,-15.42,24.66,-38.76
1554108482286,-4.0222587999999995,-8.643666,2.082357,0.024501082,0.015978966,0.023435817999999997,-15.42,24.66,-38.76
1554108482305,-3.9552212,-8.600571,2.1254525,0.01917476,0.02130529,0.018109497,-15.42,24.66,-38.76
1554108482326,-3.9073372,-8.54311,1.9674352,0.080960095,0.024501082,0.00958738,-15.42,24.6,-38.76
1554108482346,-3.9121256,-8.523956,1.9578583999999999,0.08522116,0.040480047000000005,0.0,-15.48,24.48,-38.82
1554108482367,-3.98874,-8.5622635,2.0392613,0.046871635999999994,0.053263225,-0.008522116,-15.48,24.36,-38.88
1554108482386,-4.0892963,-8.701127,1.9339164,0.060720075,0.047936900000000005,-0.018109497,-15.48,24.24,-39.0
1554108482406,-4.060566000000001,-8.653243,2.1733365,0.13741912,0.041545313,-0.029827405,-15.54,24.12,-39.06
1554108482426,-3.9695864000000003,-8.509591,2.0248961,0.23222765,0.025566347000000003,-0.037284255,-15.54,24.06,-39.12
1554108482446,-4.1371803,-8.5143795,1.7184383,0.25033715,0.020240024,-0.04580637,-15.54,24.0,-39.18
1554108482466,-4.209007,-8.552686999999999,1.9865887999999998,0.12783173,0.01917476,-0.037284255,-15.48,24.0,-39.24
1554108482485,-4.1611223,-8.590994,2.1015105,0.029827405,0.007456851,-0.036218993,-15.48,24.0,-39.3
1554108482506,-4.0318356,-8.69155,1.9961656000000003,0.015978966,-0.002130529,-0.026631612000000002,-15.42,24.0,-39.36
1554108482525,-4.1419687000000005,-8.614936,2.2691047,0.033023197000000004,0.00958738,-0.008522116,-15.42,23.94,-39.36
1554108482546,-4.1132383,-8.567052,2.2882583,0.07350325,0.008522116,-0.004261058,-15.36,23.94,-39.42
1554108482565,-3.9839516,-8.509591,2.2451627,0.15233281,0.007456851,-0.004261058,-15.3,23.94,-39.48
1554108482586,-4.2185836,-8.581417,2.1350293,0.15020229,0.020240024,0.0063915867,-15.3,23.88,-39.54
1554108482606,-4.256891,-8.672397,2.3696610000000002,0.15233281,0.015978966,0.015978966,-15.24,23.76,-39.6
1554108482625,-4.1611223,-8.5862055,2.321777,0.20133498,0.00958738,0.01917476,-15.24,23.64,-39.66
1554108482646,-4.223372,-8.590994,2.40318,0.294013,-0.004261058,0.03089267,-15.24,23.28,-39.78
1554108482666,-4.1515455,-8.480861,2.3696610000000002,0.32597092,-0.012783173500000002,0.026631612000000002,-15.24,22.98,-39.9
1554108482686,-4.10845,-8.4234,2.4702177000000005,0.3334278,-0.023435817999999997,0.02130529,-15.18,22.68,-39.96
1554108482706,-4.132391999999999,-8.461707,2.4271219,0.34834146,-0.027696876000000002,0.026631612000000002,-15.18,22.32,-40.08
1554108482726,-4.1276035,-8.471283999999999,2.4223334999999997,0.3685815,-0.029827405,0.029827405,-15.18,22.02,-40.2
1554108482746,-4.1371803,-8.284536,2.345719,0.3568636,-0.027696876000000002,0.025566347000000003,-15.18,21.72,-40.32
1554108482765,-4.189853,-8.121731,2.3888147,0.2790993,-0.024501082,0.020240024,-15.12,21.48,-40.44
1554108482785,-4.1706996,-8.212710000000001,2.4797945,0.19281286,-0.029827405,0.018109497,-15.12,21.24,-40.56
1554108482806,-4.074930999999999,-8.160038,2.6330232999999996,0.15446335,-0.046871635999999994,0.012783173500000002,-15.06,21.12,-40.68
1554108482826,-4.1276035,-8.116942,2.4941597,0.13741912,-0.04261058,-0.012783173500000002,-15.0,20.94,-40.86
1554108482846,-4.0940847,-8.160038,2.7910407000000004,0.10972224,-0.040480047000000005,-0.03195793,-14.94,20.82,-40.98
1554108482865,-4.1180267,-8.188768,2.6761188999999996,0.07137272,-0.041545313,-0.041545313,-14.88,20.7,-41.16
1554108482886,-4.1180267,-8.39467,2.7144263,0.068176925,-0.05006743,-0.034088463,-14.88,20.52,-41.34
1554108482905,-3.98874,-8.385093,2.6473885,0.12250541,-0.05965481,-0.022370555,-14.88,20.34,-41.4
1554108482925,-4.0318356,-8.294113000000001,2.7910407000000004,0.21198763,-0.07350325,-0.033023197000000004,-14.88,20.16,-41.46
1554108482946,-4.1276035,-8.131308,2.8532897999999998,0.19387813,-0.05752428,-0.04580637,-14.88,19.98,-41.52
1554108482965,-4.1371803,-8.246229,3.1214404,0.10546118,-0.034088463,-0.047936900000000005,-14.88,19.86,-41.52
1554108482985,-4.1371803,-8.346786,2.867655,0.06711166,-0.013848438000000001,-0.04261058,-14.94,19.74,-41.58
1554108483006,-4.1419687000000005,-8.289325,3.0160956000000003,0.029827405,0.007456851,-0.03834952,-14.94,19.62,-41.58
1554108483026,-4.323928400000001,-8.356361999999999,2.9873652,0.046871635999999994,0.002130529,-0.037284255,-15.0,19.44,-41.58
1554108483046,-4.309563,-8.356361999999999,2.949058,0.080960095,-0.002130529,-0.018109497,-15.06,19.32,-41.52
1554108483066,-4.2042184,-8.413822999999999,3.1453824,0.111852765,0.0010652645,-0.002130529,-15.12,19.14,-41.52
1554108483086,-4.19943,-8.313267,3.0974984,0.15978967,0.0053263223,0.007456851,-15.18,18.96,-41.52
1554108483106,-4.309563,-8.231864,2.9921536,0.16405073,0.01917476,0.01917476,-15.24,18.84,-41.58
1554108483125,-4.343082,-8.107366,3.2124202,0.13209279,0.034088463,0.03089267,-15.3,18.72,-41.64
1554108483146,-4.3526587,-8.164826,3.3512837999999996,0.112918034,0.04580637,0.04474111,-15.36,18.54,-41.7
1554108483165,-4.3861775000000005,-8.27496,3.1453824,0.12144015,0.05219796,0.05752428,-15.42,18.36,-41.76
1554108483187,-4.2760444,-8.18398,3.0400376000000002,0.16831179,0.06391586,0.07030745599999999,-15.42,18.24,-41.76
1554108483205,-4.343082,-8.164826,2.9682117000000003,0.22690132,0.06178534,0.068176925,-15.42,18.12,-41.82
1554108483226,-4.3813889999999995,-8.073847,3.1549592,0.22050974,0.06178534,0.07030745599999999,-15.42,18.0,-41.88
1554108483245,-4.429273,-8.126519,3.1405939999999997,0.20879184,0.05752428,0.07882957,-15.42,18.0,-41.88
1554108483265,-4.390966000000001,-8.107366,3.0113072,0.12783173,0.06604639400000001,0.101200126,-15.36,17.82,-41.88
1554108483285,-4.5058875,-8.016386,3.1932666000000003,0.07882957,0.06924219,0.1107875,-15.3,17.64,-41.94
1554108483305,-4.5058875,-8.059482000000001,3.1741127999999996,0.08841695,0.06711166,0.12357068,-15.3,17.22,-41.94
1554108483325,-4.630386,-8.059482000000001,3.1501707999999997,0.1107875,0.07243799,0.13528858,-15.3,16.68,-42.0
1554108483346,-4.5394063,-7.968502,3.0304607999999997,0.16618125,0.06285059999999999,0.13635385,-15.3,16.26,-42.06
1554108483366,-4.43885,-7.743447,3.0591912,0.16618125,0.06604639400000001,0.14061491,-15.18,15.6,-42.12
1554108483386,-4.5154643,-7.719505000000001,3.1022868,0.10013486,0.07776430000000001,0.14594123,-15.12,15.42,-42.12
1554108483405,-4.5633483,-7.6907744000000005,2.9059622000000003,0.017044231,0.068176925,0.13315806,-14.94,15.12,-42.12
1554108483426,-4.6255975,-7.6189485,2.9011737999999996,-0.11717909,0.06498113,0.13528858,-14.82,14.94,-42.18
1554108483446,-4.802768700000001,-7.743447,2.9969419999999998,-0.2428803,0.046871635999999994,0.1470065,-14.58,15.0,-42.18
1554108483465,-4.697424,-8.054692999999999,2.9873652,-0.18748654,0.014913702,0.14807177,-14.4,15.24,-42.18
1554108483485,-4.6208089999999995,-7.877522,2.9873652,-0.058589544,-0.004261058,0.14061491,-14.28,15.54,-42.18
1554108483506,-4.711789,-7.781753999999999,2.9346926,0.0010652645,-0.0031957934000000003,0.13741912,-14.16,15.78,-42.18
1554108483526,-4.817133999999999,-7.705139599999999,2.7910407000000004,-0.07243799,0.004261058,0.14487597,-14.1,15.96,-42.18
1554108483546,-4.927267,-7.8009076,3.0639796,-0.17576863,0.0031957934000000003,0.15126756,-14.1,16.14,-42.18
1554108483565,-4.8602295,-7.743447,2.891597,-0.27483824,0.007456851,0.15126756,-14.16,16.26,-42.18
1554108483585,-5.023035,-7.753023599999999,2.7670987,-0.38562572,0.013848438000000001,0.16085494,-14.16,16.26,-42.18
1554108483606,-5.1475334,-7.934983,2.8868085999999997,-0.5113269,0.011717908999999999,0.16831179,-14.16,16.26,-42.18
1554108483626,-5.2289367,-7.8248496,2.8006175,-0.58056915,-0.0010652645,0.19813919,-14.16,16.26,-42.18
1554108483646,-5.2241483,-7.968502,2.6234465,-0.5699165,-0.017044231,0.22264028,-14.16,16.32,-42.12
1554108483666,-5.1666875,-7.958925,2.6665419999999997,-0.55287224,-0.02876214,0.24181503,-14.1,16.44,-42.12
1554108483686,-5.2385135,-7.8152729999999995,2.6378117000000003,-0.55606806,-0.023435817999999997,0.24714136,-13.98,16.74,-42.12
1554108483706,-5.45878,-7.7386584,2.3983915000000002,-0.6146576,-0.034088463,0.24927188,-13.8,17.1,-42.06
1554108483726,-5.410896,-7.896675599999999,2.3744495,-0.67537767,-0.056459017,0.27696875,-13.68,17.58,-42.0
1554108483745,-5.3582234,-8.102577,2.2691047,-0.63702816,-0.07563378,0.29188246,-13.44,18.24,-41.88
1554108483766,-5.626374,-8.222287,2.3265655,-0.47191215,-0.096939065,0.27696875,-13.26,18.96,-41.64
1554108483786,-5.568912999999999,-8.073847,2.144606,-0.37390783,-0.11717909,0.28655612,-13.08,19.68,-41.4
1554108483805,-5.5258174,-8.121731,2.2260091,-0.26525086,-0.13954964,0.33981937,-12.9,20.4,-41.1
1554108483825,-5.588066599999999,-8.145673,2.321777,-0.13209279,-0.15126756,0.38029942,-12.72,21.06,-40.86
1554108483845,-5.5641245999999995,-8.18398,2.3888147,0.06498113,-0.17257284,0.39521313,-12.6,21.6,-40.62
1554108483865,-5.765238,-8.059482000000001,2.297835,0.2428803,-0.16831179,0.4314321,-12.54,22.02,-40.38
1554108483885,-5.750872599999999,-7.949348,2.3505075,0.25353295,-0.1768339,0.4644553,-12.48,22.26,-40.14
1554108483905,-5.8849480000000005,-7.796119,2.508525,0.25246766,-0.18429075,0.48149952,-12.42,22.38,-39.96
1554108483927,-5.899312999999999,-7.73387,2.532467,0.28549087,-0.19281286,0.49641323,-12.36,22.5,-39.96
1554108483945,-5.865794,-7.527969000000001,2.570774,0.36005938,-0.20133498,0.51771855,-12.3,22.5,-39.9
1554108483965,-5.90889,-7.508815299999999,2.6378117000000003,0.4101268,-0.21092236,0.53476274,-12.24,22.38,-39.96
1554108483985,-6.066907,-7.4274119999999995,2.7000610000000003,0.44847634,-0.21518342,0.52837116,-12.18,22.02,-40.02
1554108484006,-6.325481,-7.331644,2.5755625,0.43995422,-0.23222765,0.53263223,-12.12,21.54,-40.08
1554108484025,-6.3925184999999995,-7.1688385,2.8772318,0.39414784,-0.26738137,0.5581986,-12.06,21.06,-40.14
1554108484047,-6.291962,-7.0826473,2.7335799,0.35899413,-0.294013,0.5954828000000001,-12.0,20.58,-40.26
1554108484066,-6.6079965,-7.149685000000001,2.9538465,0.330232,-0.2908172,0.62317973,-11.94,20.04,-40.38
1554108484086,-6.617573299999999,-7.149685000000001,3.0065188,0.37390783,-0.31105720000000003,0.64555025,-11.94,19.5,-40.62
1554108484106,-6.50744,-6.881533999999999,3.0160956000000003,0.44634579999999996,-0.3291667,0.6711166000000001,-11.94,18.96,-40.86
1554108484125,-6.6079965,-6.7905545,2.9682117000000003,0.44101948,-0.32170987,0.6870956,-11.94,18.36,-41.1
1554108484146,-6.71813,-6.4122705,2.9394810000000002,0.32170987,-0.32170987,0.716923,-12.0,17.94,-41.28
1554108484165,-6.7277070000000005,-6.273407,3.4566288,0.23968449999999997,-0.32384038,0.7488809000000001,-12.0,17.58,-41.46
1554108484186,-6.6079965,-6.1967926,3.3608606,0.25246766,-0.32810146,0.7776430000000001,-12.06,17.16,-41.64
1554108484206,-6.799533,-5.938218599999999,3.3560722000000003,0.29188246,-0.30679616,0.78296936,-12.12,16.74,-41.82
1554108484226,-6.9048777,-5.7083755,3.1884782000000005,0.23968449999999997,-0.28868666,0.7637946,-12.18,16.26,-41.94
1554108484246,-6.7612257,-5.535993,3.2698810000000003,0.14594123,-0.30786142,0.76485986,-12.3,15.78,-41.94
1554108484265,-6.6367273,-5.4354362,3.3943794,0.09161274,-0.31851408,0.7819041,-12.36,15.3,-42.0
1554108484286,-6.6750345,-5.3300915,3.7726634,0.12463594,-0.30466563,0.7499462,-12.36,14.88,-42.0
1554108484306,-6.679823,-5.00448,3.614646,0.18748654,-0.30679616,0.70200926,-12.42,14.52,-42.12
1554108484325,-6.6079965,-4.88477,3.4087446000000003,0.19387813,-0.30679616,0.6828345,-12.42,14.22,-42.24
1554108484345,-6.6941880000000005,-4.908712,3.6768951000000003,0.16192019,-0.28549087,0.664725,-12.42,13.86,-42.42
1554108484366,-6.775591,-4.6932339999999995,3.9211037,0.21092236,-0.2876214,0.6103965,-12.42,13.5,-42.6
1554108484386,-6.5984197,-4.386776,3.9402574999999995,0.3270362,-0.27377295,0.58483016,-12.36,13.08,-42.84
1554108484406,-6.7133417,-4.152144399999999,3.9833531000000004,0.39308259999999995,-0.23861924,0.55287224,-12.36,12.72,-42.96
1554108484427,-6.5122285,-4.089895200000001,3.9594111000000005,0.41438788,-0.221575,0.48043427,-12.36,12.42,-43.14
1554108484445,-6.631939,-3.8744167999999997,4.0360255,0.37816888,-0.18109496,0.40906155,-12.36,12.12,-43.32
1554108484466,-6.9096660000000005,-3.8361096,3.9641995000000003,0.32384038,-0.15233281,0.32597092,-12.36,11.82,-43.5
1554108484485,-7.125144500000001,-3.7882257000000004,4.170100700000001,0.20879184,-0.13315806,0.2545982,-12.36,11.46,-43.62
1554108484505,-7.067683000000001,-3.8744167999999997,4.11264,0.10226539,-0.12144015,0.20985709,-12.36,10.98,-43.68
1554108484525,-7.0006455999999995,-3.9223008000000004,4.371214,0.012783173500000002,-0.099069595,0.18109496,-12.42,10.44,-43.8
1554108484546,-7.125144500000001,-3.840898,4.208408,-0.007456851,-0.082025364,0.11930962,-12.48,9.96,-43.86
1554108484566,-7.1634517,-3.946243,4.2850223,-0.051132694000000006,-0.07882957,0.06498113,-12.48,9.54,-43.98
1554108484585,-7.110779300000001,-3.9893386,4.136582,-0.12996227,-0.07030745599999999,0.056459017,-12.6,9.18,-44.1
1554108484607,-7.383717999999999,-4.291008000000001,4.4238862999999995,-0.20772657,-0.034088463,0.05219796,-12.66,8.82,-44.16
1554108484626,-7.575253999999999,-4.43466,4.6297874000000006,-0.20026971,-0.03195793,0.05539375,-12.72,8.52,-44.16
1554108484646,-7.522581599999999,-4.530428,4.5340195,-0.082025364,-0.02876214,0.08841695,-12.84,8.28,-44.22
1554108484666,-7.249642999999999,-4.463390400000001,4.624999,0.05219796,-0.008522116,0.10226539,-12.9,8.34,-44.22
1554108484685,-7.201759,-4.209605000000001,4.687248,0.16724652,0.015978966,0.07137272,-12.96,8.46,-44.28
1554108484706,-7.086836999999999,-4.065953299999999,4.7207669999999995,0.25246766,0.008522116,0.046871635999999994,-12.96,8.58,-44.28
1554108484725,-7.019799000000001,-4.065953299999999,4.8069587,0.3685815,0.01917476,0.026631612000000002,-12.9,8.64,-44.28
1554108484748,-7.0341644,-3.9893386,4.5148660000000005,0.38029942,0.023435817999999997,-0.0063915867,-12.84,8.76,-44.28
1554108484766,-7.268796400000001,-3.9606082000000002,4.3903675,0.22903186,0.036218993,-0.051132694000000006,-12.78,8.88,-44.28
1554108484785,-7.2831616,-3.7834373,4.8021703,0.096939065,0.03834952,-0.07882957,-12.72,8.94,-44.34
1554108484805,-7.268796400000001,-3.9845502,4.6537294000000005,0.12783173,0.034088463,-0.083090626,-12.66,8.94,-44.34
1554108484826,-7.3645644,-4.0994720000000004,4.481347,0.28229508,0.025566347000000003,-0.10652645,-12.6,8.88,-44.4
1554108484846,-7.3885064,-3.8025907999999995,4.744708999999999,0.32277513,0.034088463,-0.128897,-12.54,8.7,-44.46
1554108484865,-7.383717999999999,-3.840898,4.4621935,0.35579833,0.03834952,-0.1587244,-12.54,8.52,-44.52
1554108484885,-7.2640080000000005,-3.6254199000000003,4.672883000000001,0.36645097,0.060720075,-0.17896444,-12.54,8.22,-44.52
1554108484906,-7.302314999999999,-3.5775358999999995,4.4765587,0.39627838,0.05539375,-0.22583607,-12.54,7.92,-44.58
1554108484925,-7.3789296,-3.5823242999999994,4.337695,0.2876214,0.068176925,-0.26844665,-12.54,7.62,-44.58
1554108484946,-7.4746976,-3.4674027,4.6202106,0.094808534,0.06924219,-0.29507825,-12.54,7.26,-44.64
1554108484966,-7.369353,-3.5871127,4.586692,-0.014913702,0.05965481,-0.330232,-12.54,6.9,-44.64
1554108484986,-7.101202000000001,-3.7307648999999996,4.524442700000001,-0.06498113,0.07137272,-0.3568636,-12.54,6.54,-44.64
1554108485005,-7.153875,-3.8265328000000003,4.538808,-0.10226539,0.099069595,-0.38242993,-12.54,6.24,-44.64
1554108485025,-7.2113357,-3.7547068999999995,4.347272,-0.13848437,0.1107875,-0.44634579999999996,-12.54,6.0,-44.64
1554108485046,-7.086836999999999,-3.7594953,4.2993879999999995,-0.1768339,0.094808534,-0.49215218,-12.48,5.76,-44.64
1554108485066,-6.95755,-3.9223008000000004,4.44304,-0.15765914,0.08948222,-0.5251754,-12.48,5.58,-44.64
1554108485086,-6.9623384,-4.032433999999999,3.8684312999999997,-0.19068234,0.09054748,-0.5603291,-12.48,5.52,-44.64
1554108485105,-6.991069,-4.228758999999999,4.016872,-0.3323625,0.101200126,-0.5858955,-12.54,5.58,-44.64
1554108485126,-6.885724000000001,-4.621408,3.8684312999999997,-0.46019423,0.08948222,-0.59867865,-12.54,5.7,-44.64
1554108485147,-6.742072,-4.88477,3.9929300000000003,-0.50387007,0.10439592,-0.6061354999999999,-12.54,6.24,-44.64
1554108485165,-6.7612257,-5.037999,3.8540661,-0.46339005,0.112918034,-0.6380934,-12.6,6.66,-44.64
1554108485186,-6.703765,-5.1002483,4.088698,-0.43995422,0.14061491,-0.6423545,-12.6,7.14,-44.64
1554108485206,-6.684611299999999,-5.157709,3.8732197,-0.41119209999999995,0.16085494,-0.6530071,-12.6,7.38,-44.64
1554108485226,-6.742072,-5.263054,3.9498343,-0.36112466,0.17257284,-0.69987875,-12.6,8.34,-44.58
1554108485245,-6.4404025,-5.2343235,3.8205473,-0.33129725,0.165116,-0.721184,-12.6,8.64,-44.52
1554108485266,-6.363788,-5.373187000000001,4.079121,-0.2876214,0.20879184,-0.73609775,-12.6,9.36,-44.4
1554108485286,-6.220136,-5.6844335,3.7822402000000004,-0.28868666,0.23116238,-0.7584683000000001,-12.54,9.78,-44.28
1554108485306,-6.2632318,-5.9142766,3.6673183,-0.37710363,0.27377295,-0.7797736,-12.54,10.14,-44.16
1554108485326,-6.445191,-6.1489085999999995,3.6433763999999997,-0.4878911,0.294013,-0.8000136,-12.54,10.5,-44.04
1554108485346,-6.244078,-6.2542534000000005,3.7966053,-0.48682585,0.28122982,-0.8159926,-12.42,10.92,-43.86
1554108485366,-6.009446,-6.177639,3.4901476000000002,-0.4079963,0.26844665,-0.8362325999999999,-12.36,11.46,-43.68
1554108485385,-5.899312999999999,-6.2207346,3.1884782000000005,-0.38349520000000004,0.28549087,-0.8522116,-12.3,11.88,-43.5
1554108485405,-6.172251999999999,-6.321291,3.2124202,-0.5390238,0.2972088,-0.8767126000000001,-12.3,12.42,-43.32
1554108485426,-6.244078,-6.618172,3.2267854,-0.7414241,0.294013,-0.9054747999999999,-12.36,12.96,-43.14
1554108485446,-6.1770406,-6.8719573,3.1118636000000004,-0.85540736,0.27696875,-0.8990832000000001,-12.36,13.68,-42.9
1554108485465,-6.0142345,-6.9820905,2.7431567,-0.9139969000000001,0.26738137,-0.8607336999999999,-12.36,14.46,-42.66
1554108485486,-6.047753299999999,-7.077858999999999,2.475006,-0.95128113,0.25672874,-0.8607336999999999,-12.42,15.24,-42.48
1554108485506,-6.191406,-7.422623599999999,2.1350293,-1.0482203,0.24501082,-0.86392945,-12.48,16.02,-42.3
1554108485525,-6.3350577,-7.872733599999999,2.2164322999999997,-1.0503508,0.21092236,-0.8681905000000001,-12.54,16.98,-42.12
1554108485545,-6.0142345,-8.025963,2.321777,-0.9374326999999999,0.18855181,-0.8213189000000001,-12.6,17.94,-41.82
1554108485565,-5.8226986,-8.15525,1.9195513,-0.80533993,0.18748654,-0.7190535,-12.6,18.9,-41.4
1554108485586,-5.626374,-8.011598,1.7758990000000001,-0.8117314999999999,0.19600865,-0.67218184,-12.54,19.92,-40.92
1554108485606,-5.5258174,-8.289325,1.5125369,-0.7850999,0.17363810000000002,-0.64341974,-12.54,20.76,-40.44
1554108485626,-5.473145,-8.45213,1.3497312,-0.7254451,0.16085494,-0.58696073,-12.6,21.66,-39.9
1554108485645,-5.4922986,-8.351574000000001,1.4694413,-0.67537767,0.16085494,-0.5592638000000001,-12.66,22.68,-39.42
1554108485665,-5.363012,-8.212710000000001,1.4167688999999999,-0.63702816,0.1470065,-0.49747851,-12.78,23.7,-38.88
1554108485686,-5.444414599999999,-8.581417,1.3066356000000001,-0.588026,0.13102753,-0.42717105,-12.9,24.48,-38.46
1554108485706,-5.257667,-8.681973,1.1725603,-0.43995422,0.10972224,-0.39095205,-12.96,25.26,-38.1
1554108485726,-5.257667,-8.677185,0.9139864999999999,-0.28655612,0.08522116,-0.37816888,-13.08,25.92,-37.74
1554108485747,-5.267244,-8.557475,0.8182184,-0.23222765,0.04261058,-0.3568636,-13.2,26.58,-37.56
1554108485766,-5.0086699999999995,-8.456919000000001,0.9235633,-0.19920446,0.020240024,-0.32170987,-13.32,27.24,-37.38
1554108485786,-5.0374002,-8.686762,1.2204443,-0.18429075,0.012783173500000002,-0.30040458,-13.38,27.78,-37.26
1554108485806,-5.0038815,-8.849568,1.2012907,-0.20772657,0.029827405,-0.28868666,-13.5,28.2,-37.08
1554108485826,-4.841076,-8.978855000000001,1.1965023000000001,-0.11717909,0.034088463,-0.28655612,-13.62,28.62,-36.84
1554108485846,-4.7453080000000005,-8.911817999999998,1.1965023000000001,0.112918034,0.05539375,-0.28016454,-13.74,29.04,-36.66
1554108485866,-4.7979803,-8.619724,1.0384849,0.32810146,0.041545313,-0.28442562,-13.92,29.4,-36.36
1554108485885,-4.8985367,-8.768166,1.0815806000000001,0.35579833,0.03195793,-0.25672874,-14.04,29.7,-36.24
1554108485905,-4.7788267,-8.576628999999999,1.0384849,0.29614353,0.014913702,-0.22370553,-14.22,30.0,-36.12
1554108485925,-4.7979803,-8.447341999999999,0.9235633,0.21411815,0.004261058,-0.19281286,-14.4,30.24,-36.0
1554108485945,-4.721366000000001,-8.145673,0.64583594,0.05539375,-0.004261058,-0.17896444,-14.52,30.36,-35.94
1554108485965,-4.903325,-8.404246,0.5883751,-0.14274544,-0.00958738,-0.15339808,-14.58,30.36,-35.88
1554108485986,-4.6399627,-8.667608,0.98102415,-0.25672874,-0.018109497,-0.14168017,-14.64,30.06,-35.94
1554108486006,-4.5298295,-8.7538,1.2060791000000002,-0.1768339,-0.020240024,-0.14594123,-14.7,30.0,-36.0
1554108486025,-4.3957543,-8.634089,1.3066356000000001,0.01917476,0.011717908999999999,-0.16085494,-14.76,29.82,-36.06
1554108486046,-4.4436383,-8.15525,1.2491747,0.13635385,0.034088463,-0.17363810000000002,-14.82,29.64,-36.12
1554108486066,-4.295198,-8.255806,0.7990648,0.099069595,0.046871635999999994,-0.22050974,-14.94,29.46,-36.24
1554108486085,-4.333505000000001,-8.332419999999999,0.6218939,-0.05219796,0.051132694000000006,-0.23329292,-15.0,29.34,-36.3
1554108486106,-4.486733999999999,-8.370728,0.3393781,-0.31105720000000003,0.01917476,-0.23116238,-15.12,29.28,-36.3
1554108486125,-4.323928400000001,-8.772953999999999,0.5069722,-0.46019423,-0.026631612000000002,-0.23222765,-15.12,29.22,-36.3
1554108486146,-4.175488,-8.921394,0.7703344,-0.44101948,-0.06391586,-0.24181503,-15.18,29.22,-36.3
1554108486165,-4.1946416,-8.835203,0.84216046,-0.26738137,-0.08628642,-0.26525086,-15.18,29.22,-36.3
1554108486185,-3.8690300000000004,-8.959702,0.6314706999999999,-0.16405073,-0.096939065,-0.2695119,-15.24,29.22,-36.3
1554108486206,-3.9983168,-8.835203,0.5883751,-0.20559604,-0.07882957,-0.28549087,-15.24,29.34,-36.3
1554108486225,-3.7924154000000003,-9.021951,0.9187749,-0.31851408,-0.06604639400000001,-0.28336033,-15.42,29.4,-36.3
1554108486246,-3.7110126000000005,-8.897452000000001,0.75118077,-0.39414784,-0.05006743,-0.29188246,-15.54,29.58,-36.3
1554108486265,-3.8115692,-8.892664,0.75596917,-0.43888897,-0.0063915867,-0.2972088,-15.66,29.82,-36.3
1554108486286,-4.0462008,-9.0842,0.65062433,-0.48682585,0.02876214,-0.2972088,-15.84,30.12,-36.24
1554108486305,-3.7014358,-9.261371,0.44472298,-0.4889564,0.011717908999999999,-0.30360037,-15.96,30.54,-36.18
1554108486326,-3.5194763999999994,-9.170391,0.39205053,-0.47191215,0.018109497,-0.26205507,-16.14,31.02,-35.88
1554108486346,-3.7780502,-9.199121,0.31064767,-0.44847634,0.058589544,-0.24501082,-16.26,31.44,-35.58
1554108486366,-4.1276035,-9.074622999999999,-0.10115502,-0.40586576,0.06924219,-0.26631612,-16.38,31.86,-35.28
