TimeStamp,Ax,Ay,Az,Gx,Gy,Gz,Mx,My,Mz
1554103652153,-6.2871737,-0.3405752,6.655282000000001,0.42717105,-0.025566347000000003,-0.09374327,19.32,-24.48,-4.2
1554103652173,-6.253655,-0.11552023,6.114192500000001,0.46339005,-0.05219796,-0.23222765,19.26,-24.54,-4.14
1554103652192,-6.947973299999999,-0.21128829999999998,6.2099605,0.29827404,-0.03089267,-0.30786142,19.14,-24.66,-4.08
1554103652212,-7.0820484,-0.9439139999999999,6.267421700000001,-0.06391586,-0.02130529,-0.23861924,19.08,-24.78,-3.96
1554103652233,-6.770802499999999,-1.0779893,7.091027,-0.21198763,0.014913702,-0.21624869,19.02,-24.9,-3.9
1554103652253,-6.0333879999999995,-0.8242039000000001,7.277775,-0.025566347000000003,0.03195793,-0.2908172,19.02,-25.02,-3.9
1554103652272,-6.7612257,-0.091578215,6.937798,0.29507825,0.11717909,-0.44421527,19.02,-25.08,-3.84
1554103652293,-6.885724000000001,-0.39324763,6.4206505,0.36005938,0.11824436,-0.5230448000000001,18.96,-25.26,-3.72
1554103652312,-6.6989765,-0.9247603999999999,6.3009405,0.1438107,0.10865697,-0.50813115,19.02,-25.32,-3.6
1554103652332,-6.684611299999999,-1.0061632,6.39192,0.043675844000000005,0.11611383,-0.5550028,19.14,-25.32,-3.54
1554103652353,-6.5218053,-0.9391255999999999,6.425439,0.06285059999999999,0.12250541,-0.6327670999999999,19.32,-25.08,-3.42
1554103652374,-6.315904,-1.049259,6.5068417,0.14487597,0.12570119999999999,-0.6956177,19.56,-24.84,-3.36
1554103652394,-6.1483099999999995,-1.1498153,6.449381,0.18535602,0.096939065,-0.7701861999999999,19.86,-24.6,-3.24
1554103652413,-6.019023000000001,-1.0779893,6.157287999999999,0.23861924,0.06285059999999999,-0.8788431999999999,20.1,-24.36,-3.06
1554103652433,-6.0381765,-0.99179804,5.893926,0.24394555,0.00958738,-1.0375676,20.46,-24.06,-2.94
1554103652453,-5.865794,-1.0157399999999999,5.7359085,0.2034655,-0.05539375,-1.2058792999999999,20.76,-23.7,-2.76
1554103652473,-5.966350599999999,-1.2982559,5.7933699999999995,0.19174760000000002,-0.12783173,-1.3603427,21.12,-23.22,-2.58
1554103652492,-5.9280434,-1.5711948999999998,5.903503,0.19387813,-0.23009712,-1.5030881,21.6,-22.44,-2.34
1554103652512,-5.942408599999999,-1.8058267,6.157287999999999,0.27164245,-0.34834146,-1.6053536,22.2,-21.72,-2.1
1554103652533,-5.8322754,-2.0308816000000003,6.205172,0.27164245,-0.47191215,-1.748099,22.8,-20.94,-1.86
1554103652552,-5.932832,-1.8872293999999998,5.960963700000001,0.19281286,-0.5305017,-1.865278,23.34,-19.98,-1.62
1554103652572,-5.93762,-1.6956933999999997,5.951387,0.018109497,-0.6317018,-1.9675435000000001,23.94,-18.9,-1.38
1554103652593,-5.4539914000000005,-1.9877859,6.5403605,-0.22050974,-0.773382,-2.0943098,24.54,-17.64,-1.2
1554103652612,-5.027823400000001,-2.6198552000000004,6.731896400000001,-0.30892670000000005,-0.8213189000000001,-2.1827269,25.14,-16.08,-1.08
1554103652633,-4.7884035,-3.5679589999999997,6.918644400000001,-0.23542345,-0.87351686,-2.2732744,25.8,-14.34,-1.02
1554103652652,-4.7165775000000005,-3.7020345,6.880337,-0.07456851,-0.9683254000000001,-2.2381206000000002,26.4,-12.6,-1.08
1554103652672,-4.390966000000001,-3.5871127,6.616975,0.04261058,-1.0695255,-2.1891184,26.76,-10.86,-1.2
1554103652693,-4.0318356,-3.6541502,6.755839,-0.010652645,-1.1323761,-2.3105586,27.18,-8.94,-1.44
1554103652713,-3.466804,-4.156933,6.985682000000001,-0.10972224,-1.1547466999999998,-2.288188,27.54,-6.78,-1.68
1554103652732,-3.0262709,-4.6405616,7.330447,-0.14913702,-1.180313,-2.2104237,27.96,-4.56,-1.92
1554103652752,-2.7006595,-4.8656163,7.148487599999999,-0.11824436,-1.1749867,-2.1656826000000002,28.5,-2.34,-2.28
1554103652773,-2.528277,-4.8799815,6.6600703999999995,-0.1587244,-1.1877699,-2.1007016,28.98,-0.06,-2.76
1554103652793,-2.0350714,-4.9135003,6.6792240000000005,-0.44741106,-1.1888351000000001,-1.9941751,29.46,2.04,-3.24
1554103652812,-1.6424223000000002,-5.3683987,6.7845693,-0.8127968000000001,-1.1547466999999998,-1.9174759999999997,29.76,4.14,-3.66
1554103652833,-1.3455413999999999,-5.9477954,6.755839,-1.0908308,-1.1100056,-1.8098843,30.12,6.36,-4.02
1554103652853,-1.0965444,-6.4840965,6.4828997,-1.2506205,-1.067395,-1.6777915,30.36,8.58,-4.38
1554103652872,-0.90021986,-6.330868,6.5403605,-1.2889700000000002,-1.0215886,-1.582983,30.6,10.62,-4.98
1554103652892,-0.4309563,-6.373963400000001,7.1963716,-1.2069446000000001,-0.97258645,-1.5808525,30.72,12.6,-5.58
1554103652913,-0.01436521,-7.140108000000001,7.1867948,-1.0567423,-0.89375687,-1.5584818999999999,30.6,14.52,-6.12
1554103652933,0.320823,-7.0826473,6.899491,-0.96086854,-0.83942837,-1.4136058999999999,30.3,16.32,-6.6
1554103652952,0.16280572,-6.642114,6.3344593,-1.0077401,-0.7819041,-1.3486248,29.94,18.36,-7.02
1554103652972,0.31124622,-6.6852098,6.4924764999999995,-1.2325108999999999,-0.74781567,-1.3518206,29.58,20.34,-7.5
1554103652993,1.0821792,-7.417835,7.0766615999999996,-1.4104101999999998,-0.69348717,-1.3475596,29.16,22.2,-7.98
1554103653013,1.6903063999999999,-7.8248496,7.493252799999999,-1.2996226999999998,-0.60293967,-1.3528858,28.68,24.06,-8.4
1554103653033,1.7381904,-8.107366,7.3974850000000005,-0.80533993,-0.5028047999999999,-1.4221281000000001,28.2,26.1,-8.64
1554103653053,2.0111293999999997,-7.724292999999999,7.148487599999999,-0.21837921,-0.46552056,-1.4402375,27.42,29.04,-8.88
1554103653073,2.2026656000000004,-7.5758529999999995,6.9904703999999995,0.28549087,-0.41864893,-1.4604776000000002,27.06,30.0,-8.94
1554103653093,2.456451,-6.4362125,7.478887599999999,0.7222493000000001,-0.386691,-1.5819178,26.52,31.92,-9.06
1554103653113,2.695871,-5.727529,7.138911,1.010936,-0.40053943,-1.743838,26.04,33.36,-9.12
1554103653132,3.2225955,-5.512050599999999,6.4110737,0.9438243000000001,-0.47617322,-1.8769958999999998,25.56,34.62,-9.24
1554103653153,3.8019924,-5.3636102999999995,5.798158,0.41438788,-0.5539375,-1.8716697,24.9,36.24,-9.36
1554103653173,4.122815,-5.48332,5.9801173,0.19600865,-0.55606806,-1.8738002,24.48,36.9,-9.54
1554103653192,4.223372,-5.899911400000001,6.2817870000000005,0.35153726,-0.5933523,-1.9696740000000001,24.0,37.56,-9.9
1554103653213,5.161899,-6.3021374,5.903503,0.47297743,-0.6263755,-2.0634172,23.58,38.28,-10.26
1554103653235,6.315904,-6.848015299999999,5.644929,0.20453078,-0.66579026,-2.0516994,23.1,38.88,-10.62
1554103653252,6.411672,-6.3979053,5.482123400000001,-0.21411815,-0.6508765999999999,-1.9089539,22.5,39.42,-11.04
1554103653274,6.143522,-6.7091517000000005,5.606621700000001,-0.6988135,-0.47936899999999993,-1.4327807,21.9,40.08,-11.46
1554103653293,5.913678,-6.7522473,5.769428,-0.6785734,-0.38456047,-1.325189,21.06,40.86,-11.88
1554103653313,6.143522,-6.306926,5.846042,-0.5091964,-0.33555830000000003,-1.3699301000000002,20.22,41.82,-12.24
1554103653333,5.990292500000001,-5.373187000000001,5.716755,-0.33768883,-0.28122982,-1.3859091000000001,19.32,42.84,-12.54
1554103653353,6.0046577,-4.597466000000001,5.429451,-0.28229508,-0.23435818,-1.4221281000000001,18.3,43.8,-12.54
1554103653373,6.191406,-3.9558197999999996,5.01286,-0.36325517,-0.2545982,-1.5616777,17.46,44.82,-12.48
1554103653392,6.679823,-3.9893386,4.7494974,-0.5486112,-0.26312032,-1.7204021,16.68,45.78,-12.48
1554103653413,7.249642999999999,-3.9079356,4.4526167,-0.9225190000000001,-0.28229508,-1.8631475,16.02,46.8,-12.42
1554103653433,7.541735000000001,-3.9510313999999997,4.9027267,-1.3379722,-0.26738137,-1.933455,15.24,47.76,-12.36
1554103653452,7.7907324000000004,-4.185663,4.907515,-1.5744608999999998,-0.22477080000000002,-1.9686086999999999,14.4,48.72,-12.24
1554103653473,7.9391727,-4.76506,5.4486045999999995,-1.5180018,-0.20240025,-2.0090888,13.5,49.8,-12.06
1554103653492,8.130709,-4.803367,5.333683000000001,-1.3358417,-0.19600865,-1.9792613999999997,12.6,51.0,-11.82
1554103653512,8.183380999999999,-4.587889,5.089474,-0.96939063,-0.20133498,-1.9622171000000002,11.7,52.2,-11.4
1554103653533,8.298303,-4.463390400000001,4.6393642,-0.572047,-0.19387813,-2.001632,10.74,53.34,-10.8
1554103653553,8.494628,-4.0803185,4.481347,-0.4016047,-0.20240025,-2.086853,9.66,54.3,-10.26
1554103653573,8.580819,-3.74513,4.4861355000000005,-0.3323625,-0.19813919,-2.1859226,8.52,55.32,-9.66
1554103653593,8.51857,-3.2710779999999997,4.11264,-0.4048005,-0.19068234,-2.2146847000000003,7.5,56.28,-9.12
1554103653613,8.6334915,-2.8927941,3.8061821000000005,-0.6540724,-0.18216023,-2.2306638,6.6,57.18,-8.58
1554103653632,8.7771435,-2.830545,3.7152026,-0.9502159,-0.17789917,-2.211489,5.64,57.9,-8.16
1554103653652,9.150639,-3.1226375,3.6098576,-1.2559468,-0.14487597,-2.150769,4.62,58.44,-7.74
1554103653673,9.3421755,-3.2998084999999997,3.8301241000000004,-1.4721955,-0.10972224,-2.0804615,3.6,58.8,-7.56
1554103653692,9.466674000000001,-3.1800982999999996,3.7726634,-1.5776566,-0.07456851,-1.9963056000000001,2.4,59.16,-7.38
1554103653712,9.457097000000001,-3.2758665000000002,3.5715504,-1.6319852,-0.03089267,-1.8897791000000002,1.2,59.52,-7.02
1554103653733,9.442732000000001,-3.2040405,3.1932666000000003,-1.6458336,-0.017044231,-1.7385116000000003,-0.06,59.88,-6.48
1554103653753,9.346964,-3.093907,3.2603042,-1.603223,-0.014913702,-1.5723303999999998,-1.32,60.18,-5.82
1554103653772,9.303867,-3.1657330000000004,3.2124202,-1.5329156000000002,-0.029827405,-1.3582121999999999,-2.46,60.48,-4.98
1554103653792,9.227253,-3.3045970000000002,3.1262288,-1.4434333000000001,-0.05752428,-1.164334,-3.6,60.6,-4.02
1554103653813,9.054871,-3.2758665000000002,3.09271,-1.3028183999999998,-0.084155895,-1.0386329,-4.68,60.78,-3.06
1554103653833,8.6574335,-3.1561562999999997,3.1453824,-1.1206582,-0.12250541,-0.9353021999999999,-5.58,60.96,-1.92
1554103653852,8.595184,-3.1848867000000003,3.2172085999999998,-0.97258645,-0.18748654,-0.83942837,-6.3,61.14,-0.96
1554103653873,8.6813755,-3.141791,3.1549592,-0.8543421,-0.23648871,-0.76485986,-6.96,61.26,-0.12
1554103653893,8.930372,-2.878429,3.1070752,-0.76592517,-0.27803403,-0.6849651,-7.98,61.44,0.84
1554103653913,9.193734,-3.007716,3.0974984,-0.73290193,-0.28122982,-0.62104917,-8.28,61.44,1.2
1554103653932,9.088389,-3.0029275,2.8820202,-0.7584683000000001,-0.27803403,-0.60507023,-8.94,61.5,1.8
1554103653953,9.150639,-2.9550436,3.2650926,-0.8511463,-0.2727077,-0.57098174,-9.42,61.56,2.34
1554103653972,9.078813,-2.7012582000000003,3.2028434,-0.9193232,-0.25140239999999997,-0.47404268,-10.2,61.56,3.06
1554103653993,9.26556,-2.8832173,3.4278982000000005,-0.9715212,-0.19174760000000002,-0.34834146,-10.8,61.5,3.66
1554103654012,8.973467999999999,-2.9502552000000004,3.3512837999999996,-1.0386329,-0.13528858,-0.28122982,-11.16,61.5,3.96
1554103654032,8.887277000000001,-2.629432,3.4614172,-1.1930962,-0.06924219,-0.24181503,-11.76,61.44,4.68
1554103654053,8.801085,-2.533664,3.4183214,-1.3528858,0.017044231,-0.07989483,-12.36,61.38,5.82
1554103654073,8.801085,-2.60549,3.6768951000000003,-1.4370418,0.082025364,0.0031957934000000003,-12.72,61.32,6.48
1554103654092,8.872911,-2.806603,3.8157589999999995,-1.4391723,0.12783173,0.034088463,-13.08,61.26,7.2
1554103654113,8.805874000000001,-2.9933507,3.8013937000000007,-1.3709954,0.1438107,0.04261058,-13.38,61.2,7.98
1554103654132,8.643068,-3.3333273,3.4183214,-1.2282499,0.15233281,0.04580637,-13.62,61.2,8.82
1554103654152,8.451532,-3.141791,3.7104141999999998,-1.0333065000000001,0.16831179,-0.014913702,-13.68,61.2,9.72
1554103654172,8.614338,-3.0172927000000005,3.8971617,-0.87777793,0.15765914,-0.06924219,-13.68,61.2,10.14
1554103654192,8.829816000000001,-2.8975825,4.016872,-0.62104917,0.17363810000000002,-0.07456851,-13.68,61.32,11.28
1554103654213,8.820239,-2.9358897,3.863643,-0.45699844,0.19600865,-0.010652645,-13.62,61.38,11.94
1554103654233,8.983044999999999,-2.9837740000000004,3.3225534,-0.40053943,0.22370553,0.029827405,-13.62,61.5,12.54
1554103654253,9.112331,-2.710835,3.317765,-0.40266997,0.24181503,0.04474111,-13.56,61.56,13.08
1554103654272,9.165004,-2.6868927000000005,3.3560722000000003,-0.38882150000000004,0.2695119,0.08735169,-13.56,61.68,13.5
1554103654293,9.241617999999999,-2.5863364,3.0639796,-0.41971418,0.28122982,0.10972224,-13.5,61.74,13.86
1554103654312,9.385271000000001,-2.6725276,3.0735563999999997,-0.45912898,0.28016454,0.14061491,-13.5,61.86,14.04
1554103654333,9.457097000000001,-2.6198552000000004,2.9873652,-0.4889564,0.27803403,0.12570119999999999,-13.5,61.92,14.22
1554103654353,9.332599,-2.7299886000000004,2.9682117000000003,-0.48149952,0.26312032,0.12570119999999999,-13.5,61.92,14.46
1554103654372,9.275136999999999,-2.7347770000000002,2.7623102999999998,-0.43249738,0.23861924,0.14168017,-13.5,61.92,14.7
1554103654393,9.074024,-2.6437972000000003,2.8389246,-0.3568636,0.21944448,0.1587244,-13.56,61.92,15.0
1554103654413,9.006986999999999,-2.6581624,2.7766755,-0.29188246,0.18216023,0.17257284,-13.56,61.92,15.3
1554103654433,8.99741,-2.6102784,2.5611973,-0.18642128,0.14168017,0.18855181,-13.5,61.98,15.6
1554103654452,8.944737,-2.5384523999999997,2.7766755,-0.05219796,0.10439592,0.16405073,-13.38,62.1,15.84
1554103654472,8.892064999999999,-2.5384523999999997,2.6856956000000003,0.080960095,0.08522116,0.1470065,-13.32,62.22,16.02
1554103654493,8.762777999999999,-2.3612813999999998,2.7048495,0.17257284,0.07456851,0.13102753,-13.26,62.34,16.14
1554103654517,8.767567,-2.3277626000000002,2.570774,0.19387813,0.05006743,0.083090626,-13.14,62.46,16.2
1554103654532,8.868122999999999,-2.2224178,2.4319102999999997,0.165116,0.040480047000000005,0.051132694000000006,-13.08,62.52,16.2
1554103654553,8.925583999999999,-2.0979192,2.5037365,0.06178534,0.03195793,0.004261058,-12.96,62.58,16.14
1554103654572,8.987833,-2.2655133999999997,2.4223334999999997,-0.111852765,0.023435817999999997,-0.05006743,-12.84,62.64,16.14
1554103654593,8.887277000000001,-2.3517046,2.556409,-0.28122982,0.014913702,-0.096939065,-12.78,62.64,16.08
1554103654613,8.978256,-2.5719712,2.6473885,-0.38242993,-0.0010652645,-0.15659387,-12.78,62.64,16.02
1554103654633,8.829816000000001,-2.7730842,2.9586349,-0.36432046,-0.02130529,-0.22050974,-12.72,62.58,15.96
1554103654653,8.825027,-2.8449101000000003,3.0591912,-0.30786142,-0.05219796,-0.25672874,-12.6,62.58,15.96
1554103654673,8.738836000000001,-2.9454667999999997,3.0591912,-0.23861924,-0.094808534,-0.28336033,-12.6,62.58,15.96
1554103654693,8.676587,-3.031658,2.9730000000000003,-0.16405073,-0.13954964,-0.31957933,-12.54,62.58,15.96
1554103654712,8.580819,-2.8640637000000004,3.0591912,-0.111852765,-0.17363810000000002,-0.31957933,-12.54,62.52,16.2
1554103654732,8.662222,-2.9837740000000004,3.1022868,-0.08735169,-0.2066613,-0.2972088,-12.54,62.52,16.44
1554103654753,8.556877,-3.0125043,3.044826,-0.022370555,-0.20879184,-0.25353295,-12.6,62.4,16.74
1554103654773,8.643068,-3.0843303,3.1741127999999996,0.011717908999999999,-0.19920446,-0.21731395,-12.72,62.28,16.98
1554103654793,8.719683,-3.151368,3.3464954,0.060720075,-0.18642128,-0.17044231,-12.84,62.16,17.28
1554103654812,8.839393,-3.0172927000000005,3.3512837999999996,0.10652645,-0.16831179,-0.1438107,-12.96,61.98,17.52
1554103654832,8.896853,-3.0125043,3.341707,0.13635385,-0.13422333,-0.08948222,-13.08,61.86,17.82
1554103654853,8.839393,-2.9789855,3.3225534,0.1470065,-0.08948222,-0.039414786,-13.2,61.74,18.06
1554103654873,8.930372,-2.926313,3.2698810000000003,0.22264028,-0.06498113,0.03089267,-13.26,61.62,18.12
1554103654893,8.820239,-2.6342204,3.2028434,0.25353295,-0.034088463,0.112918034,-13.44,61.44,18.06
1554103654912,8.786719999999999,-2.4666264,2.8868085999999997,0.23755397,-0.036218993,0.14487597,-13.44,61.38,18.06
1554103654932,8.710106,-2.4953567999999997,2.7383683,0.18535602,-0.05219796,0.18535602,-13.5,61.38,18.0
1554103654953,8.556877,-2.3756466,2.9011737999999996,0.14594123,-0.06604639400000001,0.21518342,-13.5,61.32,17.94
1554103654974,8.470686,-2.3038206000000003,2.7144263,0.12357068,-0.06604639400000001,0.25353295,-13.44,61.32,17.88
1554103654993,8.2169,-2.2463598,2.7766755,0.12250541,-0.06391586,0.27590349999999997,-13.32,61.38,17.76
1554103655013,8.145074000000001,-2.2319946,2.4797945,0.1107875,-0.084155895,0.28336033,-13.32,61.44,17.7
1554103655033,8.0684595,-2.3181857999999997,2.7240029999999997,0.07669904,-0.12570119999999999,0.27377295,-13.26,61.56,17.64
1554103655052,8.001422,-2.3852234,2.7623102999999998,0.098004326,-0.18642128,0.25353295,-13.14,61.68,17.52
1554103655072,8.317456,-2.3756466,2.8293478,0.17044231,-0.26631612,0.22264028,-13.08,61.8,17.4
1554103655092,8.667010000000001,-2.4762032000000005,3.2555158,0.26844665,-0.30679616,0.19387813,-12.96,61.98,17.34
1554103655113,8.896853,-2.6150667999999997,3.4422636,0.4878911,-0.33875409999999995,0.13422333,-12.9,62.1,17.28
1554103655132,9.500193,-2.5863364,3.7535098,0.6327670999999999,-0.33555830000000003,0.07776430000000001,-12.84,62.22,17.16
1554103655152,9.773131,-2.3660697999999996,3.6242227999999996,0.7435546,-0.30466563,0.00958738,-12.78,62.34,17.1
1554103655173,9.89763,-2.0644004000000002,3.8061821000000005,0.75633776,-0.27057716,-0.05752428,-12.66,62.52,16.98
1554103655193,10.017339999999999,-1.9829974999999997,4.007295,0.62104917,-0.25140239999999997,-0.049002163,-12.6,62.64,16.86
1554103655213,9.782708,-2.0260932,3.8588544999999996,0.43995422,-0.23648871,0.0031957934000000003,-12.48,62.76,16.56
1554103655232,9.883265,-2.3612813999999998,3.887585,0.330232,-0.20772657,0.039414786,-12.36,62.88,16.26
1554103655253,9.591172,-2.1841104,3.9211037,0.25992453,-0.08522116,0.084155895,-12.3,63.0,15.96
1554103655273,9.26556,-1.8201918999999998,3.767875,0.15339808,0.05006743,0.098004326,-12.18,63.12,15.66
1554103655292,8.90643,-2.0931308,3.5954924,-0.020240024,0.15978967,0.113983296,-12.06,63.24,15.36
1554103655312,8.829816000000001,-2.3277626000000002,3.5763388,-0.16831179,0.2428803,0.10759171,-12.0,63.3,15.06
1554103655332,8.571242,-2.1410147999999998,3.6577415,-0.24714136,0.29827404,0.02876214,-11.88,63.3,14.76
1554103655352,8.619126,-2.1410147999999998,3.317765,-0.33555830000000003,0.32277513,-0.068176925,-11.82,63.3,14.52
1554103655373,8.676587,-2.2463598,3.3704373999999997,-0.41971418,0.32384038,-0.15020229,-11.76,63.3,14.52
1554103655393,8.6813755,-2.5145104,3.3704373999999997,-0.48149952,0.28975195,-0.19174760000000002,-11.7,63.3,14.52
1554103655413,8.815451,-2.5384523999999997,3.5954924,-0.46019423,0.26418558,-0.23968449999999997,-11.64,63.3,14.52
1554103655433,8.925583999999999,-2.2750902,3.3895910000000002,-0.34834146,0.24181503,-0.28122982,-11.64,63.24,14.52
1554103655454,8.959103,-2.2798786,3.3895910000000002,-0.24714136,0.21837921,-0.23648871,-11.64,63.24,14.52
1554103655473,8.968679,-2.4187422,3.413533,-0.18961707,0.20133498,-0.1768339,-11.64,63.24,14.52
1554103655494,9.045294,-2.5576060000000003,3.5859156000000003,-0.080960095,0.17257284,-0.096939065,-11.64,63.24,14.52
1554103655512,9.275136999999999,-2.5767596,3.3991678,0.051132694000000006,0.15446335,-0.033023197000000004,-11.64,63.18,14.52
1554103655532,9.26556,-2.6102784,3.4231097999999998,0.17789917,0.165116,0.026631612000000002,-11.7,63.12,14.58
1554103655552,9.107543,-2.2942438,3.116652,0.26418558,0.20772657,0.101200126,-11.76,62.82,14.58
1554103655573,9.030928999999999,-2.1266496,3.0496144,0.20985709,0.25140239999999997,0.12996227,-11.82,62.64,14.64
1554103655592,8.863335000000001,-1.9925743000000002,2.915539,0.08522116,0.28975195,0.15446335,-11.88,62.46,14.7
1554103655612,8.844180999999999,-2.15538,2.9203273999999997,-0.04261058,0.29827404,0.165116,-11.88,62.34,14.7
1554103655633,8.628703,-2.059612,2.9299042,-0.24714136,0.28549087,0.15233281,-11.88,62.16,14.76
1554103655652,8.700529,-2.1458032000000005,2.9873652,-0.330232,0.25353295,0.13102753,-11.88,62.22,14.76
1554103655672,8.614338,-2.308609,2.9586349,-0.36005938,0.23755397,0.09054748,-11.76,62.28,14.76
1554103655693,8.355764,-2.2703017999999995,3.1836896,-0.29507825,0.20026971,0.05539375,-11.58,62.58,14.82
1554103655713,8.312667999999999,-2.3900118,3.1884782000000005,-0.23968449999999997,0.16192019,0.02130529,-11.46,62.7,14.82
1554103655732,8.394072,-2.3612813999999998,3.068768,-0.14807177,0.12144015,-0.03089267,-11.34,63.06,14.82
1554103655753,8.269572,-2.2176294,3.0735563999999997,-0.04261058,0.07563378,-0.08841695,-11.1,63.6,14.82
1554103655776,8.413225,-2.1649568,3.0639796,-0.025566347000000003,0.05219796,-0.11930962,-10.98,63.78,14.82
1554103655793,8.556877,-2.2176294,3.116652,-0.041545313,0.036218993,-0.1470065,-10.86,64.08,14.88
1554103655812,8.700529,-2.1984756,3.2124202,-0.094808534,0.020240024,-0.16937704,-10.8,64.32,14.94
1554103655832,8.734048,-2.1458032000000005,3.116652,-0.14487597,0.008522116,-0.18109496,-10.8,64.38,15.0
1554103655852,8.90643,-2.2750902,3.3464954,-0.2130529,-0.015978966,-0.18855181,-10.8,64.44,15.06
1554103655872,8.987833,-2.236783,3.2555158,-0.25033715,-0.033023197000000004,-0.20453078,-10.86,64.5,15.12
1554103655893,8.973467999999999,-2.3229742,3.4087446000000003,-0.26312032,-0.033023197000000004,-0.21944448,-10.92,64.44,15.18
1554103655912,8.868122999999999,-2.3229742,3.341707,-0.28229508,-0.026631612000000002,-0.25140239999999997,-10.98,64.32,15.24
1554103655932,8.700529,-2.3469162,3.4087446000000003,-0.294013,-0.010652645,-0.28442562,-11.04,64.26,15.36
1554103655953,8.6334915,-2.5192987999999996,3.5571851999999997,-0.30360037,-0.014913702,-0.314253,-11.1,64.2,15.42
1554103655973,8.662222,-2.5623944,3.614646,-0.30786142,-0.023435817999999997,-0.35792887,-11.16,64.08,15.54
1554103655993,8.619126,-2.581548,3.6673183,-0.30466563,-0.03195793,-0.4101268,-11.34,63.9,15.6
1554103656013,8.695741,-2.7060466,3.6002807999999997,-0.3057309,-0.040480047000000005,-0.45593318,-11.46,63.72,15.72
1554103656032,8.781932000000001,-2.7443538,3.6194344,-0.29294774,-0.022370555,-0.50173956,-11.52,63.6,15.9
1554103656053,8.7292595,-2.7060466,3.6433763999999997,-0.28549087,0.0010652645,-0.5368933000000001,-11.64,63.36,16.08
1554103656073,8.743625,-2.8449101000000003,3.7199910000000003,-0.28868666,0.027696876000000002,-0.54435015,-11.82,63.18,16.32
1554103656092,8.724471000000001,-2.7156234,3.7295678,-0.27696875,0.060720075,-0.5273059,-12.06,62.94,16.5
1554103656113,8.815451,-2.677316,3.7630866000000003,-0.314253,0.099069595,-0.49108690000000005,-12.36,62.7,16.62
1554103656133,8.863335000000001,-2.7299886000000004,3.7343562000000006,-0.37603834,0.14487597,-0.4261058,-12.72,62.4,16.8
1554103656153,8.6813755,-2.629432,3.5715504,-0.41971418,0.18642128,-0.35579833,-13.08,62.1,16.98
1554103656173,8.619126,-2.6485856,3.8013937000000007,-0.48149952,0.20772657,-0.2908172,-13.44,61.74,17.16
1554103656192,8.595184,-2.7252002,3.4997244,-0.5273059,0.18961707,-0.22583607,-13.86,61.32,17.28
1554103656213,8.585608,-2.8353333,3.5093012000000003,-0.5273059,0.15446335,-0.17789917,-14.22,60.9,17.4
1554103656233,8.643068,-2.9454667999999997,3.54282,-0.46658584,0.13315806,-0.14913702,-14.52,60.42,17.58
1554103656253,8.686164,-2.9981391,3.4614172,-0.36325517,0.12996227,-0.12570119999999999,-14.7,60.0,17.76
1554103656272,8.695741,-2.9071592999999996,3.5523968,-0.19920446,0.1470065,-0.112918034,-14.82,59.7,17.94
1554103656293,8.6334915,-2.7730842,3.4422636,-0.08522116,0.14594123,-0.080960095,-14.94,59.4,18.12
1554103656313,8.51857,-2.7635074,3.3991678,-0.058589544,0.13209279,-0.04474111,-15.0,59.22,18.3
1554103656333,8.51857,-2.6437972000000003,3.3560722000000003,-0.058589544,0.10013486,-0.010652645,-15.12,59.1,18.48
1554103656353,8.599973,-2.6916811000000003,3.4518404,-0.07030745599999999,0.07563378,0.014913702,-15.18,58.98,18.66
1554103656372,8.623915,-2.5719712,3.2028434,-0.080960095,0.060720075,0.04261058,-15.36,58.98,18.84
1554103656392,8.537724,-2.7252002,3.293823,-0.07776430000000001,0.040480047000000005,0.054328485999999995,-15.48,58.98,18.9
1554103656413,8.571242,-2.677316,3.4614172,-0.056459017,0.015978966,0.053263225,-15.6,58.92,18.96
1554103656433,8.552089,-2.7443538,3.518878,-0.011717908999999999,-0.010652645,0.046871635999999994,-15.78,58.86,19.02
1554103656452,8.556877,-2.7347770000000002,3.3800142,0.04474111,-0.037284255,0.036218993,-15.9,58.8,19.02
1554103656472,8.552089,-2.7491422,3.5859156000000003,0.1107875,-0.06285059999999999,0.026631612000000002,-16.02,58.8,19.08
1554103656493,8.5473,-2.6677392,3.5140896,0.165116,-0.07882957,0.022370555,-16.08,58.74,19.08
1554103656512,8.576031,-2.6102784,3.6768951000000003,0.17576863,-0.08948222,0.034088463,-16.08,58.68,19.08
1554103656533,8.6334915,-2.7347770000000002,3.3800142,0.18642128,-0.096939065,0.05006743,-15.96,58.68,19.08
1554103656553,8.714894000000001,-2.6677392,3.5811272000000005,0.20026971,-0.101200126,0.054328485999999995,-15.9,58.68,19.08
1554103656572,8.7053175,-2.6437972000000003,3.8157589999999995,0.22583607,-0.10333065,0.06285059999999999,-15.78,58.74,19.08
1554103656594,8.695741,-2.5623944,3.5093012000000003,0.26631612,-0.094808534,0.07243799,-15.72,58.74,19.08
1554103656613,8.690952000000001,-2.5719712,3.7870286,0.2876214,-0.08735169,0.10226539,-15.6,58.8,19.02
1554103656632,8.643068,-2.5576060000000003,3.6337996,0.2876214,-0.08948222,0.12996227,-15.54,58.86,19.02
1554103656652,8.719683,-2.533664,3.7199910000000003,0.30679616,-0.09374327,0.1438107,-15.48,58.92,18.96
1554103656672,8.743625,-2.6102784,3.8827964999999995,0.32170987,-0.084155895,0.15233281,-15.42,58.98,18.96
1554103656692,8.75799,-2.5240872000000003,3.8013937000000007,0.35473305,-0.07243799,0.15446335,-15.42,59.04,18.9
1554103656713,8.762777999999999,-2.5001452,3.7774517999999997,0.38136467,-0.051132694000000006,0.15020229,-15.42,59.1,18.9
1554103656732,8.7771435,-2.5192987999999996,3.7008373999999997,0.38349520000000004,-0.026631612000000002,0.14913702,-15.42,59.22,18.84
1554103656752,8.734048,-2.4139538,3.5045127999999997,0.36751625,-0.0063915867,0.16192019,-15.36,59.28,18.84
1554103656773,8.714894000000001,-2.3756466,3.5571851999999997,0.31851408,-0.0010652645,0.16618125,-15.3,59.46,18.72
1554103656792,8.604761,-2.2990322,3.614646,0.2609898,0.0010652645,0.17044231,-15.18,59.64,18.54
1554103656812,8.75799,-2.4378957999999997,3.413533,0.23116238,-0.002130529,0.16618125,-15.0,59.82,18.36
1554103656833,8.820239,-2.404377,3.4231097999999998,0.21411815,-0.0063915867,0.16298546,-14.88,60.06,18.12
1554103656852,8.6813755,-2.4426842,3.5045127999999997,0.23222765,0.0,0.15446335,-14.64,60.3,17.94
1554103656872,8.595184,-2.2559366,3.4614172,0.24394555,0.0031957934000000003,0.15339808,-14.34,60.54,17.7
1554103656893,8.604761,-2.3852234,3.4278982000000005,0.23222765,-0.0031957934000000003,0.15446335,-14.16,60.78,17.46
1554103656912,8.695741,-2.3133974,3.3895910000000002,0.22050974,-0.0031957934000000003,0.14594123,-13.92,61.14,17.28
1554103656932,8.671799,-2.2176294,3.341707,0.18855181,-0.00958738,0.14061491,-13.74,61.38,17.1
1554103656953,8.643068,-2.3038206000000003,3.447052,0.16085494,-0.00958738,0.13848437,-13.56,61.68,16.98
1554103656972,8.647857,-2.2655133999999997,3.5140896,0.14274544,-0.014913702,0.12250541,-13.44,61.92,16.86
1554103656993,8.647857,-2.260725,3.4901476000000002,0.14913702,-0.03089267,0.10759171,-13.26,62.1,16.8
1554103657013,8.810661999999999,-2.2750902,3.3225534,0.16724652,-0.036218993,0.09161274,-13.14,62.22,16.74
1554103657032,8.676587,-2.1458032000000005,3.4087446000000003,0.16618125,-0.036218993,0.07243799,-12.96,62.34,16.62
1554103657052,8.748413000000001,-2.1601684,3.2794578000000003,0.12783173,-0.04474111,0.06711166,-12.84,62.4,16.5
1554103657072,8.805874000000001,-2.3373394,3.4805707999999997,0.094808534,-0.053263225,0.06178534,-12.66,62.4,16.38
1554103657092,8.748413000000001,-2.308609,3.365649,0.07669904,-0.05219796,0.041545313,-12.54,62.4,16.14
1554103657113,8.719683,-2.2798786,3.4566288,0.054328485999999995,-0.049002163,0.033023197000000004,-12.42,62.46,15.96
1554103657133,8.786719999999999,-2.1505916000000003,3.614646,0.056459017,-0.040480047000000005,0.024501082,-12.3,62.58,15.78
1554103657153,8.7532015,-2.1218612,3.6194344,0.040480047000000005,-0.02130529,0.010652645,-12.24,62.7,15.66
1554103657173,8.695741,-2.1841104,3.6050692000000004,-0.014913702,-0.022370555,0.0063915867,-12.24,62.82,15.54
1554103657193,8.762777999999999,-2.1936872000000003,3.6529531000000004,-0.060720075,-0.033023197000000004,-0.008522116,-12.24,62.94,15.48
1554103657213,8.7053175,-2.260725,3.6050692000000004,-0.08628642,-0.037284255,-0.036218993,-12.24,63.06,15.42
1554103657233,8.695741,-2.2463598,3.6768951000000003,-0.08948222,-0.033023197000000004,-0.058589544,-12.24,63.18,15.42
1554103657253,8.643068,-2.3373394,3.8349125,-0.06391586,-0.025566347000000003,-0.080960095,-12.24,63.3,15.54
1554103657273,8.7053175,-2.2894554,3.6864722000000003,-0.07456851,-0.010652645,-0.096939065,-12.24,63.36,15.6
1554103657293,8.686164,-2.2224178,3.6864722000000003,-0.11717909,-0.0010652645,-0.10865697,-12.18,63.3,15.66
1554103657313,8.571242,-2.2990322,3.7343562000000006,-0.13954964,0.0010652645,-0.12676647,-12.18,63.3,15.66
1554103657332,8.667010000000001,-2.380435,3.9689879999999995,-0.14168017,0.004261058,-0.14487597,-12.18,63.3,15.66
1554103657352,8.647857,-2.3708582000000002,3.7199910000000003,-0.13102753,0.022370555,-0.165116,-12.18,63.3,15.66
1554103657373,8.542512,-2.2990322,3.8253357000000006,-0.14061491,0.036218993,-0.1768339,-12.18,63.3,15.66
1554103657392,8.552089,-2.4139538,3.9402574999999995,-0.16831179,0.037284255,-0.17470337,-12.18,63.24,15.6
1554103657412,8.590396,-2.4331074,4.0025067000000005,-0.15552860000000002,0.035153727999999995,-0.17789917,-12.18,63.24,15.6
1554103657433,8.676587,-2.4570496,3.9881415000000002,-0.11824436,0.04474111,-0.19707392,-12.18,63.18,15.6
1554103657452,8.6095495,-2.4666264,4.088698,-0.1107875,0.05219796,-0.18748654,-12.18,63.12,15.66
1554103657473,8.652645,-2.404377,3.8492777,-0.12783173,0.06498113,-0.17257284,-12.24,63.0,15.72
1554103657493,8.63828,-2.3469162,3.8732197,-0.16618125,0.07776430000000001,-0.16192019,-12.36,62.82,15.84
1554103657512,8.724471000000001,-2.461838,3.9354692000000004,-0.2034655,0.084155895,-0.13315806,-12.48,62.7,15.96
1554103657533,8.738836000000001,-2.4905684,3.8205473,-0.21624869,0.08735169,-0.111852765,-12.6,62.52,16.14
1554103657553,8.710106,-2.4762032000000005,3.9019501000000005,-0.22264028,0.094808534,-0.10013486,-12.72,62.4,16.32
1554103657573,8.700529,-2.581548,3.7726634,-0.22796659,0.10226539,-0.07030745599999999,-12.78,62.22,16.44
1554103657592,8.714894000000001,-2.4714148,3.9546227,-0.21411815,0.10546118,-0.056459017,-12.9,62.1,16.56
1554103657613,8.781932000000001,-2.3708582000000002,3.8540661,-0.221575,0.098004326,-0.049002163,-12.96,61.98,16.62
1554103657632,8.724471000000001,-2.461838,3.6768951000000003,-0.23222765,0.08735169,-0.041545313,-12.96,61.98,16.74
1554103657652,8.743625,-2.461838,3.6481647000000006,-0.23435818,0.07563378,-0.047936900000000005,-12.96,61.92,16.8
1554103657673,8.710106,-2.4809916000000003,3.9498343,-0.22264028,0.07776430000000001,-0.06285059999999999,-13.02,61.86,16.86
1554103657693,8.580819,-2.461838,3.7726634,-0.20985709,0.07350325,-0.06924219,-13.02,61.8,16.92
1554103657712,8.504205,-2.4091654,3.6529531000000004,-0.20453078,0.07243799,-0.07882957,-13.08,61.8,16.98
1554103657732,8.403648,-2.3612813999999998,3.7726634,-0.20026971,0.080960095,-0.09054748,-13.08,61.8,17.1
1554103657753,8.379706,-2.3469162,3.6242227999999996,-0.221575,0.08628642,-0.094808534,-13.08,61.8,17.22
1554103657772,8.384495,-2.3660697999999996,3.5715504,-0.25140239999999997,0.09054748,-0.099069595,-13.08,61.8,17.34
1554103657793,8.437167,-2.4331074,3.5715504,-0.27696875,0.10333065,-0.11930962,-13.14,61.74,17.46
1554103657813,8.394072,-2.3708582000000002,3.5763388,-0.3174488,0.10865697,-0.13102753,-13.14,61.74,17.58
1554103657833,8.485051,-2.5192987999999996,3.4901476000000002,-0.34194988,0.10333065,-0.15233281,-13.14,61.68,17.76
1554103657854,8.523358,-2.5001452,3.5859156000000003,-0.32810146,0.09054748,-0.16724652,-13.2,61.68,17.94
1554103657872,8.437167,-2.5001452,3.5715504,-0.31105720000000003,0.07776430000000001,-0.17257284,-13.26,61.62,18.12
1554103657893,8.580819,-2.4905684,3.6098576,-0.30999196,0.06711166,-0.1768339,-13.32,61.56,18.42
1554103657913,8.485051,-2.5384523999999997,3.518878,-0.3174488,0.054328485999999995,-0.17150758,-13.44,61.5,18.72
1554103657932,8.446744,-2.5576060000000003,3.3081882000000005,-0.31957933,0.037284255,-0.17044231,-13.56,61.44,18.96
1554103657953,8.394072,-2.533664,3.3225534,-0.314253,0.013848438000000001,-0.17150758,-13.68,61.32,19.26
1554103657973,8.346188,-2.6437972000000003,3.4805707999999997,-0.29614353,-0.007456851,-0.18109496,-13.8,61.2,19.5
1554103657992,8.303091,-2.6916811000000003,3.4183214,-0.26312032,-0.020240024,-0.20026971,-13.92,61.08,19.62
1554103658014,8.312667999999999,-2.7156234,3.5523968,-0.22796659,-0.027696876000000002,-0.21518342,-14.04,60.84,19.8
1554103658033,8.37013,-2.710835,3.4662056000000003,-0.20240025,-0.027696876000000002,-0.22903186,-14.16,60.6,20.04
1554103658053,8.236053,-2.6725276,3.3943794,-0.20772657,-0.027696876000000002,-0.24181503,-14.22,60.42,20.1
1554103658073,8.499416,-2.830545,3.6433763999999997,-0.23542345,-0.034088463,-0.25246766,-14.28,60.18,20.22
1554103658093,8.48984,-2.8975825,3.5284547999999996,-0.24820662,-0.026631612000000002,-0.26525086,-14.28,60.0,20.28
1554103658112,8.422802,-2.9406781000000004,3.6481647000000006,-0.2428803,-0.025566347000000003,-0.2790993,-14.28,59.88,20.34
1554103658132,8.413225,-3.0603882999999996,3.767875,-0.25033715,-0.033023197000000004,-0.28122982,-14.34,59.7,20.46
1554103658153,8.394072,-3.1226375,3.9306807999999998,-0.23009712,-0.049002163,-0.26844665,-14.46,59.58,20.58
1554103658172,8.51857,-3.2279825,3.7966053,-0.17896444,-0.058589544,-0.24820662,-14.58,59.52,20.88
1554103658192,8.465898,-3.232771,3.8732197,-0.10333065,-0.05539375,-0.21624869,-14.7,59.4,21.12
1554103658213,8.485051,-3.1465794999999996,3.7582982000000005,-0.02130529,-0.035153727999999995,-0.18002969,-14.82,59.34,21.36
1554103658233,8.403648,-3.2423477000000003,3.7822402000000004,0.05752428,-0.022370555,-0.13954964,-15.0,59.16,21.66
1554103658253,8.48984,-3.2231941,3.6625300000000003,0.099069595,-0.025566347000000003,-0.12676647,-15.06,59.1,21.78
1554103658272,8.451532,-3.2902317,3.6577415,0.16937704,-0.03195793,-0.12463594,-15.18,59.04,21.96
1554103658292,8.5473,-3.3476925000000004,3.5715504,0.26205507,-0.033023197000000004,-0.128897,-15.3,58.86,22.14
1554103658313,8.882488,-3.3859997,3.5763388,0.35473305,-0.036218993,-0.13209279,-15.42,58.62,22.2
1554103658333,9.107543,-3.2279825,3.3464954,0.44208476,-0.04261058,-0.113983296,-15.48,58.38,22.02
1554103658352,9.093178,-3.2136172999999997,3.2890346,0.48469532,-0.05539375,-0.060720075,-15.54,58.2,21.9
1554103658373,9.006986999999999,-3.1561562999999997,3.1022868,0.5123922000000001,-0.07137272,-0.012783173500000002,-15.6,58.14,21.84
1554103658393,8.973467999999999,-3.2231941,3.2028434,0.5496765,-0.099069595,0.054328485999999995,-15.66,57.96,21.72
1554103658413,8.935161,-3.0651767000000003,3.2028434,0.5837649,-0.12996227,0.14487597,-15.72,57.84,21.6
1554103658432,8.839393,-3.0268695,3.0591912,0.62104917,-0.16937704,0.26418558,-15.78,57.84,21.36
1554103658453,8.767567,-3.0747535,3.0639796,0.66579026,-0.19387813,0.33875409999999995,-15.78,57.96,21.12
1554103658472,8.604761,-2.9694088,3.044826,0.7254451,-0.2130529,0.40586576,-15.78,58.08,20.88
1554103658493,8.552089,-2.8401217,2.8341362,0.7552725,-0.22477080000000002,0.43675843,-15.78,58.32,20.52
1554103658512,8.494628,-2.8161798,2.8006175,0.7776430000000001,-0.23648871,0.47297743,-15.78,58.56,20.16
1554103658533,8.523358,-2.7539306,2.843713,0.793622,-0.2428803,0.49534798,-15.72,58.86,19.8
1554103658553,8.604761,-2.8161798,2.6952724,0.8085357,-0.24181503,0.5006742999999999,-15.6,59.34,19.44
1554103658573,8.743625,-2.6485856,2.6138697,0.81918836,-0.22264028,0.5028047999999999,-15.3,59.76,19.08
1554103658593,8.848969,-2.5240872000000003,2.5420437000000002,0.79681784,-0.20559604,0.49321744,-14.94,60.18,18.78
1554103658612,8.810661999999999,-2.5432408,2.5851393,0.71585774,-0.18855181,0.48469532,-14.52,60.66,18.54
1554103658632,8.901641999999999,-2.4953567999999997,2.3744495,0.60293967,-0.18322548,0.47404268,-14.16,61.08,18.3
1554103658653,9.150639,-2.581548,2.4079683,0.45060685,-0.17257284,0.43675843,-13.74,61.5,17.94
1554103658673,9.141062,-2.5432408,2.4223334999999997,0.36645097,-0.18109496,0.42397526,-13.32,61.92,17.46
1554103658693,9.14585,-2.4953567999999997,2.4893713,0.257794,-0.21411815,0.41438788,-12.96,62.28,17.04
1554103658712,9.112331,-2.5384523999999997,2.6617537000000002,0.22477080000000002,-0.2545982,0.4048005,-12.6,62.58,16.62
1554103658733,8.968679,-2.7060466,2.891597,0.25033715,-0.34408042,0.38562572,-12.3,62.82,16.2
1554103658753,8.887277000000001,-2.782661,2.9299042,0.34727620000000003,-0.4282363,0.36432046,-12.12,63.06,15.78
1554103658772,8.901641999999999,-2.878429,3.1358056,0.49854377,-0.5230448000000001,0.32597092,-11.88,63.24,15.42
1554103658792,8.839393,-2.8975825,3.2794578000000003,0.6689861,-0.5933523,0.2727077,-11.58,63.48,15.12
1554103658813,8.781932000000001,-2.8496985,3.413533,0.79894835,-0.6412892,0.23542345,-11.28,63.66,15.0
1554103658833,8.75799,-2.7730842,3.2794578000000003,0.89162636,-0.6466155,0.21731395,-10.92,63.9,15.0
1554103658853,8.623915,-2.782661,3.3129766000000003,0.94488955,-0.6103965,0.21518342,-10.56,64.08,15.0
1554103658872,8.643068,-2.710835,3.4326867999999995,0.96086854,-0.5496765,0.20985709,-10.2,64.26,14.94
1554103658893,8.690952000000001,-2.782661,3.1693244,0.96299905,-0.47191215,0.21092236,-9.84,64.5,14.88
1554103658913,8.599973,-2.6390088,3.2267854,0.9331716999999998,-0.38349520000000004,0.20559604,-9.54,64.74,14.64
1554103658933,8.825027,-2.6198552000000004,3.1453824,0.86392945,-0.29294774,0.19281286,-9.36,64.98,14.28
1554103658952,9.002198,-2.5959132,2.7910407000000004,0.78723043,-0.1949434,0.17044231,-9.12,65.16,13.8
1554103658972,9.222465,-2.581548,2.7910407000000004,0.69135666,-0.10652645,0.14061491,-9.0,65.28,13.32
1554103658992,9.3182335,-2.5001452,2.3936029999999997,0.5390238,-0.036218993,0.084155895,-8.88,65.46,12.72
1554103659012,9.332599,-2.4474726,2.5372553,0.32490566,0.02130529,0.058589544,-8.76,65.58,12.18
1554103659033,9.313444,-2.5049335999999998,2.3983915000000002,0.08841695,0.05752428,0.07350325,-8.76,65.7,11.64
1554103659053,9.260772,-2.5576060000000003,2.321777,-0.111852765,0.07882957,0.08841695,-8.7,65.76,11.1
1554103659072,9.279925,-2.629432,2.3888147,-0.23116238,0.07776430000000001,0.098004326,-8.64,65.76,10.68
1554103659093,9.227253,-2.7730842,2.4558525,-0.25992453,0.056459017,0.11504856,-8.52,65.82,10.44
1554103659112,9.227253,-2.902371,2.5611973,-0.21092236,0.020240024,0.112918034,-8.46,65.82,10.32
1554103659133,9.011775,-2.9550436,2.7144263,-0.083090626,-0.022370555,0.10652645,-8.34,65.82,10.14
1554103659152,9.054871,-2.9358897,2.5276785,0.07137272,-0.07776430000000001,0.09054748,-8.28,65.82,10.08
1554103659172,8.973467999999999,-2.8113914,2.3888147,0.17896444,-0.12357068,0.06604639400000001,-8.16,65.88,10.08
1554103659193,8.8777,-2.806603,2.5899277,0.21731395,-0.15765914,0.05219796,-8.04,65.94,10.08
1554103659213,8.8777,-2.8832173,2.4462755,0.20985709,-0.18002969,0.03195793,-7.98,65.94,10.08
1554103659233,8.896853,-2.7682957999999998,2.5516205000000003,0.18535602,-0.18748654,-0.011717908999999999,-7.92,66.0,10.08
1554103659252,8.882488,-2.8496985,2.4702177000000005,0.16085494,-0.19174760000000002,-0.04261058,-7.8,66.0,10.02
1554103659273,8.8777,-2.959832,2.5899277,0.15659387,-0.18535602,-0.07350325,-7.68,66.06,9.96
1554103659293,8.825027,-2.8113914,2.6090812999999997,0.18216023,-0.17789917,-0.10439592,-7.5,66.12,9.9
1554103659313,8.872911,-2.7299886000000004,2.6473885,0.17257284,-0.17363810000000002,-0.12250541,-7.38,66.18,9.78
1554103659333,8.810661999999999,-2.7922377999999997,2.4462755,0.14594123,-0.16831179,-0.14168017,-7.26,66.18,9.72
1554103659353,8.901641999999999,-2.7874494,2.508525,0.11930962,-0.16085494,-0.15126756,-7.2,66.24,9.54
1554103659372,8.973467999999999,-2.878429,2.3696610000000002,0.080960095,-0.13422333,-0.15765914,-7.14,66.3,9.36
1554103659392,9.006986999999999,-2.9167361,2.3361422999999997,0.049002163,-0.096939065,-0.15339808,-7.08,66.36,9.18
1554103659413,9.02614,-2.8832173,2.3696610000000002,0.051132694000000006,-0.056459017,-0.15233281,-7.08,66.36,9.06
1554103659433,9.179369,-2.8592752999999997,2.307412,0.03089267,-0.024501082,-0.1438107,-7.2,66.36,8.88
1554103659452,9.136273,-2.8113914,2.331354,-0.024501082,0.002130529,-0.12676647,-7.26,66.24,8.7
1554103659473,9.313444,-2.9167361,2.28347,-0.098004326,0.020240024,-0.11504856,-7.26,66.18,8.52
1554103659492,9.437942999999999,-2.8401217,2.321777,-0.17257284,0.033023197000000004,-0.10546118,-7.32,66.12,8.4
1554103659512,9.672575,-2.9981391,2.1972785,-0.21837921,0.047936900000000005,-0.10546118,-7.32,66.06,8.34
1554103659532,9.682152,-3.0268695,2.2068555,-0.22370553,0.07030745599999999,-0.112918034,-7.38,66.0,8.34
1554103659552,9.605537,-2.9550436,2.3600842999999996,-0.21731395,0.07989483,-0.12996227,-7.38,65.88,8.4
1554103659573,9.514558000000001,-2.8975825,2.3361422999999997,-0.25246766,0.083090626,-0.12996227,-7.44,65.88,8.58
1554103659593,9.3421755,-2.9694088,2.4558525,-0.28549087,0.082025364,-0.12037488,-7.5,65.94,8.7
1554103659612,9.26556,-2.9167361,2.484583,-0.29507825,0.07776430000000001,-0.112918034,-7.56,66.0,8.88
1554103659633,9.131485000000001,-3.007716,2.6330232999999996,-0.28336033,0.07563378,-0.101200126,-7.62,66.0,9.06
1554103659653,8.935161,-3.0603882999999996,2.8868085999999997,-0.25353295,0.06604639400000001,-0.09161274,-7.74,66.06,9.24
1554103659673,8.868122999999999,-3.0268695,2.9059622000000003,-0.19600865,0.049002163,-0.094808534,-7.86,66.12,9.48
1554103659692,8.887277000000001,-3.151368,2.8868085999999997,-0.14168017,0.03834952,-0.10439592,-7.98,66.12,9.66
1554103659713,8.858546,-2.9981391,2.8772318,-0.03834952,0.023435817999999997,-0.13102753,-8.1,66.18,9.9
1554103659733,8.801085,-3.1848867000000003,2.9873652,0.036218993,0.02876214,-0.15552860000000002,-8.22,66.18,9.96
1554103659752,8.6334915,-3.1226375,3.0113072,0.080960095,0.043675844000000005,-0.15552860000000002,-8.34,66.18,10.14
1554103659773,8.652645,-3.0508115,3.0496144,0.08841695,0.068176925,-0.16618125,-8.46,66.18,10.26
1554103659793,8.379706,-3.007716,3.0879216,0.05752428,0.09054748,-0.14807177,-8.58,66.12,10.38
1554103659813,8.446744,-3.031658,2.9873652,0.0010652645,0.111852765,-0.11504856,-8.64,66.06,10.44
1554103659833,8.470686,-3.1130607000000006,2.8772318,-0.033023197000000004,0.11930962,-0.128897,-8.7,66.06,10.38
1554103659852,8.556877,-3.1226375,3.0831332000000002,-0.029827405,0.113983296,-0.13741912,-8.82,65.94,10.38
1554103659873,8.561666,-3.208829,2.891597,-0.007456851,0.10759171,-0.16937704,-8.82,65.82,10.32
1554103659892,8.6334915,-3.3476925000000004,2.8820202,0.03089267,0.08522116,-0.18322548,-8.88,65.58,10.2
1554103659912,8.7292595,-3.3141737,2.7623102999999998,-0.033023197000000004,0.06498113,-0.14807177,-8.88,65.34,10.14
1554103659933,8.662222,-3.6685154000000004,3.020884,-0.11930962,0.040480047000000005,-0.07030745599999999,-8.88,65.1,10.08
1554103659952,8.858546,-4.0084919999999995,3.1597476,-0.12250541,0.01917476,0.06178534,-8.88,64.92,9.96
1554103659972,8.911219000000001,-4.180875,3.245939,-0.027696876000000002,0.020240024,0.18429075,-8.88,64.86,9.96
1554103659992,8.882488,-4.223970400000001,3.2555158,0.14061491,0.05219796,0.35899413,-9.0,64.74,9.9
1554103660013,8.585608,-4.0372224,3.1597476,0.24074976,0.083090626,0.531567,-9.12,64.68,9.84
1554103660032,8.432379,-3.9414546,3.0591912,0.221575,0.084155895,0.6018744,-9.18,64.68,9.84
1554103660053,8.259995,-3.9749733999999997,2.9873652,0.14807177,0.054328485999999995,0.6540724,-9.24,64.8,9.84
1554103660073,8.063671000000001,-4.171298,3.1358056,0.10865697,0.004261058,0.6775081999999999,-9.24,65.04,9.78
1554103660092,8.178593,-4.2862196,3.2363622000000003,0.15339808,-0.01917476,0.6956177,-9.24,65.16,9.78
1554103660112,8.269572,-4.611831,3.1693244,0.29294774,-0.04580637,0.74781567,-9.12,65.4,9.72
1554103660133,8.37013,-4.918288700000001,3.1118636000000004,0.44954160000000004,-0.034088463,0.9086706,-8.76,65.82,9.66
1554103660153,8.494628,-5.1624975,3.2028434,0.5049353,0.002130529,1.1036139999999999,-8.4,66.06,9.66
1554103660173,8.394072,-5.33488,3.1358056,0.52624065,0.03089267,1.320928,-7.92,66.3,9.6
1554103660193,8.39886,-5.617396,3.1118636000000004,0.44421527,0.06924219,1.5254587,-7.38,66.6,9.54
1554103660212,8.1881695,-5.7802014,3.3608606,0.36325517,0.094808534,1.663943,-6.6,66.84,9.42
1554103660233,7.795521000000001,-6.096236,3.4183214,0.314253,0.11930962,1.8322549,-5.7,67.08,9.36
1554103660253,7.5273699999999995,-6.3548098,3.5332432000000003,0.406931,0.14168017,1.9494339,-4.86,67.38,9.3
1554103660272,7.2927384,-6.393117,3.8397010000000003,0.6530071,0.14807177,2.0208068,-3.96,67.68,9.12
1554103660293,7.2975270000000005,-6.5511346,3.8349125,0.93636745,0.15126756,2.0485036,-2.88,68.04,8.88
1554103660312,7.2592196,-6.330868,3.7199910000000003,1.1536813999999997,0.14487597,2.0602214,-1.68,68.34,8.7
1554103660332,7.1873937,-6.177639,3.5619736000000004,1.180313,0.1470065,2.0666130000000003,-0.24,68.58,8.46
1554103660352,7.1969705,-6.072294,3.5045127999999997,1.0471549,0.16618125,2.0687435,1.2,68.82,8.16
1554103660373,7.125144500000001,-6.3979053,3.9354692000000004,0.72011876,0.1949434,2.1102889,2.58,69.0,7.8
1554103660393,7.302314999999999,-6.6085954,4.1270050000000005,0.5123922000000001,0.20133498,2.1369205,3.9,69.12,7.26
1554103660412,7.407660000000001,-7.3124905,3.9402574999999995,0.22370553,0.21624869,2.1603562999999997,5.4,69.06,6.78
1554103660432,7.393294999999999,-7.422623599999999,4.0025067000000005,0.12783173,0.22477080000000002,2.183792,6.96,68.82,6.36
1554103660453,7.345411,-7.7386584,4.0599675,0.012783173500000002,0.18322548,2.2391857999999996,8.52,68.46,6.0
1554103660473,7.153875,-7.834426400000001,4.016872,-0.094808534,0.12250541,2.2690134,10.02,68.04,5.64
1554103660492,6.766014,-7.9876556,4.0120835,-0.13848437,0.04580637,2.271144,11.34,67.62,5.28
1554103660512,6.4643445,-8.045116,4.0743327,-0.12037488,-0.020240024,2.275405,12.66,67.14,5.04
1554103660533,5.7939680000000005,-8.011598,4.117428299999999,0.023435817999999997,-0.07563378,2.2903185,13.86,66.6,4.92
1554103660553,5.1906295,-7.767389,3.9641995000000003,0.28549087,-0.14061491,2.2807312,15.06,65.94,4.92
1554103660573,4.663905000000001,-7.4609309999999995,4.2658687,0.53476274,-0.17470337,2.227468,16.2,65.16,4.92
1554103660592,4.103661499999999,-7.0970125,4.395156,0.7914915,-0.20026971,2.167813,17.4,64.26,4.92
1554103660614,3.6966474000000002,-6.843227000000001,4.361637,0.98110855,-0.23222765,2.0527647,18.66,63.12,4.92
1554103660633,3.3327288999999998,-6.7330937,4.6154222,1.1291803,-0.27057716,1.9036276,19.86,61.98,4.86
1554103660653,2.9640217,-6.321291,4.347272,1.1781825000000001,-0.3153183,1.7939054,21.0,60.78,4.74
1554103660672,2.7629087,-6.330868,4.529230999999999,1.0844392,-0.35153726,1.6511599,22.2,59.4,4.56
1554103660692,2.3989902,-6.5750766,4.7255554,1.0002834,-0.406931,1.4998924,23.4,57.96,4.14
1554103660712,2.3080103,-6.8288617,4.768651,1.0396981,-0.47297743,1.2964269,24.54,56.22,3.6
1554103660732,2.0350714,-6.819285000000001,5.0798974,1.0663296999999998,-0.5209143,1.144094,25.5,54.54,3.06
1554103660752,2.0207062,-6.7187285,5.146935,0.93849796,-0.52837116,1.0865698000000001,26.22,52.92,2.52
1554103660773,1.8339584999999998,-6.848015299999999,5.036802,0.76485986,-0.5219796,1.0407634,26.7,51.42,1.92
1554103660793,1.4604629999999998,-7.116166000000001,5.146935,0.6199839,-0.5006742999999999,0.9800433000000001,27.24,48.9,0.72
1554103660813,1.6807296000000003,-7.015609700000001,4.9745526,0.59761333,-0.4878911,0.9076053,27.36,48.12,0.3
1554103660833,1.6663644,-7.101800999999999,5.3815669999999995,0.60293967,-0.4133226,0.76912093,27.54,46.5,-0.54
1554103660852,1.5179238000000002,-7.0730705,5.8268886,0.5091964,-0.29827404,0.73290193,27.6,44.94,-1.2
1554103660873,1.163582,-6.7043633,5.6784476999999995,0.28549087,-0.16937704,0.716923,27.66,43.2,-1.98
1554103660893,0.79487497,-6.5655,4.888361499999999,0.043675844000000005,-0.12357068,0.6263755,27.72,42.06,-2.52
1554103660912,0.7038953,-6.5511346,5.027225,-0.12144015,-0.12144015,0.54435015,27.72,41.58,-2.76
1554103660933,0.46447513,-6.900687700000001,5.6640825,-0.3291667,-0.11717909,0.42077947,27.84,40.32,-3.42
1554103660952,0.5650316,-7.015609700000001,5.9705405,-0.4314321,-0.12570119999999999,0.43569317,27.9,39.9,-3.6
1554103660972,0.31603462,-7.015609700000001,6.0327897,-0.27057716,-0.11504856,0.45912898,28.02,38.82,-3.9
1554103660993,0.02873042,-6.929417999999999,6.085462000000001,0.026631612000000002,-0.13422333,0.36645097,28.08,38.34,-4.02
1554103661012,0.110133275,-6.7666125,6.1046157,0.28655612,-0.1438107,0.26631612,28.2,37.98,-4.14
1554103661032,0.110133275,-6.3548098,6.205172,0.48469532,-0.13848437,0.20133498,28.32,37.68,-4.26
1554103661053,0.02873042,-6.2542534000000005,5.6880245,0.49854377,-0.14487597,0.11504856,28.44,37.44,-4.32
1554103661073,0.01436521,-6.259042,5.5922565,0.35260254,-0.13954964,0.04474111,28.56,37.2,-4.5
1554103661092,0.11492168,-6.14412,5.6257753,0.20133498,-0.13422333,-0.020240024,28.68,36.96,-4.62
1554103661112,0.34955344,-6.3021374,5.716755,-0.05965481,-0.13635385,-0.165116,28.74,36.78,-4.74
1554103661133,0.60333884,-7.1975690000000005,5.486912,-0.3653857,-0.128897,-0.26844665,28.86,36.54,-4.8
1554103661152,0.61291564,-7.6285253,5.506065400000001,-0.46765109999999993,-0.112918034,-0.27483824,28.98,36.3,-4.92
1554103661172,0.7613561,-7.772177,5.6545057,-0.54648066,-0.09267801,-0.27590349999999997,29.04,36.06,-5.1
1554103661193,0.7757214,-7.647678999999999,5.659294,-0.5603291,-0.06604639400000001,-0.28229508,28.98,35.88,-5.28
1554103661213,0.6847416999999999,-7.887099,5.3624134,-0.5613944000000001,-0.054328485999999995,-0.25672874,28.92,35.7,-5.4
1554103661232,0.5506664000000001,-8.06427,5.472546599999999,-0.46871635,-0.047936900000000005,-0.24394555,28.92,35.7,-5.52
1554103661252,0.59376204,-7.992444,5.7454852999999995,-0.35579833,-0.05752428,-0.23116238,28.86,35.76,-5.58
1554103661273,0.58897364,-7.915829,5.9082913,-0.19068234,-0.047936900000000005,-0.18535602,28.8,35.88,-5.7
1554103661293,0.4309563,-7.484873299999999,5.788581400000001,-0.111852765,-0.054328485999999995,-0.20772657,28.74,36.06,-5.76
1554103661313,0.5363011999999999,-7.283760000000001,5.6784476999999995,-0.16618125,-0.07243799,-0.23648871,28.62,36.3,-5.76
1554103661332,0.6751649000000001,-7.5327573,5.855619,-0.25140239999999997,-0.08628642,-0.22583607,28.56,36.54,-5.76
1554103661353,0.5650316,-7.8104844,6.0758852999999995,-0.25566345,-0.07137272,-0.26312032,28.5,36.84,-5.7
1554103661373,0.5410896,-8.002021000000001,6.186018499999999,-0.18748654,-0.040480047000000005,-0.29827404,28.5,37.26,-5.64
1554103661393,0.5746084,-7.820061,6.229114,-0.10972224,-0.002130529,-0.33875409999999995,28.44,37.62,-5.64
1554103661412,0.6895300999999999,-7.441777,5.668871,-0.113983296,0.022370555,-0.39840892,28.44,38.04,-5.52
1554103661432,0.6560113000000001,-7.5566993,5.6640825,-0.27377295,0.07137272,-0.41758367,28.32,38.4,-5.46
1554103661453,0.5315128,-7.867945,5.453393,-0.36005938,0.09587380000000001,-0.42717105,28.26,38.76,-5.4
1554103661473,0.2777274,-8.174403,5.132569999999999,-0.34514567,0.09587380000000001,-0.406931,28.2,39.18,-5.28
1554103661493,0.25857377,-8.409035000000001,5.1996074,-0.33129725,0.06924219,-0.33555830000000003,28.14,39.54,-5.22
1554103661514,0.39264908,-8.380303999999999,5.5922565,-0.20453078,0.058589544,-0.27803403,28.08,39.9,-5.16
1554103661533,0.20590134,-7.915829,5.099051,-0.051132694000000006,0.051132694000000006,-0.26844665,28.02,40.2,-5.04
1554103661552,0.33518824,-7.901464,5.2474914,-0.13528858,0.037284255,-0.2034655,27.96,40.56,-4.86
1554103661572,0.58418524,-8.088212,5.802946599999999,-0.27803403,0.047936900000000005,-0.128897,27.9,40.92,-4.74
1554103661592,0.7326256999999999,-8.198345,5.6545057,-0.37603834,0.082025364,-0.09587380000000001,27.84,41.34,-4.62
1554103661612,0.8571242,-8.059482000000001,5.4055089999999995,-0.35260254,0.10013486,-0.07243799,27.78,41.76,-4.5
1554103661633,0.7326256999999999,-8.116942,5.156512,-0.28868666,0.101200126,-0.07989483,27.72,42.18,-4.38
1554103661653,0.78529817,-8.27496,5.252279799999999,-0.26525086,0.083090626,-0.053263225,27.66,42.6,-4.26
1554103661673,0.7469909,-8.322844,5.3145294000000005,-0.22264028,0.07137272,-0.047936900000000005,27.6,42.9,-4.14
1554103661692,0.9576806999999999,-8.049905,5.2618566,-0.19387813,0.047936900000000005,-0.05539375,27.54,43.2,-4.02
1554103661713,1.1300632,-7.623736999999999,4.9027267,-0.20026971,0.017044231,-0.10759171,27.42,43.38,-3.96
1554103661732,0.8858546,-7.6428905,4.44304,-0.36964676,-0.02130529,-0.17789917,27.36,43.56,-3.84
1554103661753,0.90979666,-7.844003,5.1038394,-0.6380934,-0.07350325,-0.16618125,27.3,43.86,-3.72
1554103661773,0.91458505,-8.385093,4.7925935,-0.7073356,-0.08948222,-0.23009712,27.3,44.1,-3.6
1554103661793,1.1300632,-8.954913000000001,4.5675383,-0.7137272,-0.12463594,-0.18002969,27.24,44.28,-3.48
1554103661812,1.0295067,-8.820838,4.500500700000001,-0.55287224,-0.13848437,-0.18429075,27.24,44.52,-3.3
1554103661832,0.79008657,-8.93576,4.524442700000001,-0.44741106,-0.12144015,-0.13741912,27.24,44.76,-3.18
1554103661853,0.866701,-8.849568,4.5100775,-0.46765109999999993,-0.082025364,-0.06711166,27.18,44.94,-3.0
1554103661873,1.1252748,-9.266159,4.6776714,-0.40586576,-0.024501082,-0.004261058,27.18,45.18,-2.82
1554103661892,0.9911995000000001,-8.978855000000001,4.4621935,-0.23116238,0.0053263223,0.03089267,27.12,45.36,-2.64
1554103661912,0.5746084,-8.313267,4.385579,-0.043675844000000005,0.02130529,-0.012783173500000002,27.0,45.66,-2.4
1554103661932,0.9720459000000001,-8.523956,4.2610803,-0.18109496,0.004261058,0.018109497,26.94,45.84,-2.22
1554103661953,1.5562311000000002,-9.337985,4.4286747,-0.23755397,0.024501082,0.05219796,26.82,46.02,-1.98
1554103661972,1.364695,-9.620500999999999,4.89315,-0.0010652645,0.08628642,0.022370555,26.7,46.26,-1.86
1554103661992,1.1875241,-9.036316000000001,5.132569999999999,0.16298546,0.10652645,0.014913702,26.58,46.38,-1.68
1554103662013,1.4269443000000002,-8.227076,4.3999443,0.46765109999999993,0.128897,0.011717908999999999,26.46,46.56,-1.62
1554103662032,1.3120226000000001,-7.911041,3.8397010000000003,0.47191215,0.07776430000000001,-0.080960095,26.4,46.68,-1.56
1554103662053,1.4221559,-8.337209,3.9498343,0.27377295,0.039414786,-0.049002163,26.34,46.68,-1.5
1554103662073,1.2018893,-8.246229,4.1222167,0.22583607,0.027696876000000002,-0.046871635999999994,26.34,46.68,-1.44
1554103662092,1.283292,-8.040328,4.2658687,0.16724652,0.0031957934000000003,-0.12250541,26.4,46.68,-1.44
1554103662113,1.3120226000000001,-7.992444,4.5914803,0.09054748,0.026631612000000002,-0.1587244,26.46,46.68,-1.44
1554103662133,1.1540052,-8.188768,4.9027267,0.084155895,0.068176925,-0.18109496,26.58,46.68,-1.44
1554103662152,1.0965444,-8.916606,5.587468,0.18322548,0.15552860000000002,-0.19387813,26.7,46.74,-1.44
1554103662172,0.92416185,-9.797672,5.798158,0.40373522,0.26738137,-0.12357068,26.82,46.86,-1.5
1554103662193,0.39743748,-10.219051,6.023213,0.7499462,0.37710363,-0.0031957934000000003,26.88,46.92,-1.5
1554103662213,-0.1436521,-9.821614,5.1086279999999995,1.1536813999999997,0.41119209999999995,0.113983296,27.0,46.98,-1.5
1554103662232,0.1388637,-8.705916,4.89315,1.3763216999999999,0.36964676,0.26525086,27.12,46.98,-1.56
1554103662253,0.2873042,-7.681197599999999,4.7542860000000005,1.3805827,0.31212249999999997,0.30146983,27.12,47.04,-1.56
1554103662273,0.5554548,-6.977302000000001,4.9984946,1.2687298999999999,0.23329292,0.28229508,27.18,46.98,-1.62
1554103662293,0.8762778,-6.7426705,5.429451,1.067395,0.17257284,0.21731395,27.24,46.74,-1.74
1554103662313,0.79487497,-7.0634937,5.515642,0.9044095,0.12783173,0.13209279,27.3,46.32,-1.92
1554103662333,0.8571242,-7.0634937,5.606621700000001,0.77125144,0.033023197000000004,0.07243799,27.42,45.6,-2.16
1554103662352,0.6991069000000001,-7.341221000000001,5.237914599999999,0.6178534000000001,-0.08841695,0.010652645,27.54,44.88,-2.34
1554103662372,0.8475474000000001,-7.5519110000000005,5.419874,0.5294364,-0.21411815,-0.0031957934000000003,27.66,44.1,-2.58
1554103662392,0.81402856,-7.2167225,5.831677,0.5656554,-0.30466563,-0.029827405,27.78,43.38,-2.88
1554103662412,0.8571242,-7.2741833,6.1333459999999995,0.4857606,-0.33875409999999995,-0.036218993,27.9,42.66,-3.18
1554103662434,0.7469909,-7.422623599999999,6.2530565000000005,0.41225734,-0.3536678,-0.018109497,28.02,42.0,-3.6
1554103662452,0.7661445,-7.0634937,6.4541693,0.37710363,-0.35899413,-0.0053263223,28.08,41.46,-3.96
1554103662472,0.8571242,-6.9916677,6.4828997,0.35579833,-0.34727620000000003,0.008522116,28.08,41.1,-4.2
1554103662493,0.6703765,-6.8528037,6.4828997,0.35792887,-0.33449304,0.0053263223,28.02,40.92,-4.38
1554103662513,1.067814,-6.8623804999999996,6.755839,0.33555830000000003,-0.33662358,0.008522116,27.96,40.74,-4.62
1554103662533,1.1156979999999999,-6.6612678,7.105392,0.38242993,-0.31957933,-0.05539375,27.9,40.5,-4.86
1554103662553,0.78529817,-7.044339999999999,7.1867948,0.36645097,-0.28336033,-0.03195793,27.84,40.26,-5.1
1554103662573,1.0869676000000001,-7.053917,7.560290299999999,0.5123922000000001,-0.24074976,-0.026631612000000002,27.72,39.72,-5.46
1554103662592,0.93373865,-6.962936999999999,7.330447,0.6466155,-0.17576863,-0.039414786,27.66,39.3,-5.7
1554103662612,1.2401965,-6.9150529999999995,7.402272999999999,0.75633776,-0.128897,-0.014913702,27.6,39.0,-5.94
1554103662633,1.2641385,-6.512827400000001,7.6081743,0.87990844,-0.09054748,-0.034088463,27.6,38.58,-6.3
1554103662653,1.2785037000000001,-6.3979053,7.5219830000000005,0.96406436,-0.06604639400000001,-0.034088463,27.54,38.22,-6.66
1554103662672,1.1252748,-6.311714,7.545925,0.99282646,-0.02876214,-0.034088463,27.54,37.74,-6.96
1554103662693,1.0247183000000002,-6.182427400000001,7.1867948,0.97471696,-0.00958738,-0.007456851,27.48,37.26,-7.32
1554103662713,1.0630256,-6.129755,6.995259,0.87564737,-0.015978966,0.03834952,27.48,36.72,-7.56
1554103662733,1.043872,-6.1058129999999995,7.330447,0.76059884,-0.01917476,0.060720075,27.42,36.06,-7.74
1554103662752,0.89064306,-6.215946,7.282563000000001,0.71798825,-0.01917476,0.09587380000000001,27.36,35.52,-7.86
1554103662772,0.94810385,-6.158485400000001,7.512406299999999,0.78296936,-0.029827405,0.14487597,27.3,34.92,-8.1
1554103662793,1.2449848999999997,-5.54557,7.426214999999999,0.8479504999999999,-0.022370555,0.16192019,27.24,34.32,-8.22
1554103662813,1.1061212,-5.1768627,7.344812400000001,0.813862,-0.010652645,0.18002969,27.24,33.72,-8.46
1554103662832,0.9624690999999999,-5.133767,7.4884644,0.6498113,0.002130529,0.2130529,27.18,33.12,-8.64
1554103662852,0.8858546,-5.2343235,7.641692999999999,0.46978164,0.027696876000000002,0.24927188,27.18,32.52,-8.88
1554103662873,1.1252748,-4.970961,7.603386,0.36112466,0.029827405,0.25353295,27.18,31.86,-9.18
1554103662893,1.3072342,-4.630985,7.756614999999999,0.16618125,0.037284255,0.21198763,27.24,31.26,-9.42
1554103662913,1.1109096,-4.6501384,7.8188642999999995,-0.034088463,0.060720075,0.19281286,27.24,30.6,-9.72
1554103662933,0.8762778,-4.8656163,7.4310035999999995,-0.084155895,0.083090626,0.19174760000000002,27.24,29.94,-9.84
1554103662953,0.92416185,-5.253476999999999,7.756614999999999,-0.22264028,0.07882957,0.15552860000000002,27.3,29.34,-9.96
1554103662973,0.7038953,-5.631761,8.091804,-0.3536678,0.11611383,0.18109496,27.3,28.8,-10.02
1554103662992,0.32561144,-5.512050599999999,8.115746000000001,-0.18109496,0.101200126,0.20985709,27.3,28.26,-10.02
1554103663013,0.521936,-5.224746700000001,7.8571715,0.07989483,0.06285059999999999,0.16085494,27.3,27.78,-10.02
1554103663032,0.62728083,-4.9135003,7.9050555,0.18002969,0.09161274,0.14807177,27.3,27.42,-10.02
1554103663054,0.46447513,-4.544793599999999,7.972092999999999,0.22583607,0.13209279,0.11611383,27.3,27.06,-10.02
1554103663072,0.44532153,-4.401141,7.512406299999999,0.20772657,0.12570119999999999,0.11504856,27.24,26.76,-10.02
1554103663092,0.5602431999999999,-4.3388919999999995,7.330447,0.1107875,0.12570119999999999,0.06391586,27.24,26.52,-10.02
1554103663112,0.7038953,-4.554370400000001,7.5028296,-0.07030745599999999,0.10439592,0.06711166,27.24,26.28,-9.96
1554103663132,0.9576806999999999,-5.0571527000000005,7.6321163,-0.15552860000000002,0.1107875,0.0063915867,27.3,26.04,-10.02
1554103663153,0.33518824,-5.382764,7.7614035999999995,-0.22477080000000002,0.12144015,-0.06285059999999999,27.3,25.8,-10.02
1554103663172,0.110133275,-5.4641665999999995,7.7518270000000005,-0.28975195,0.08948222,-0.015978966,27.3,25.68,-10.02
1554103663193,0.11971009,-5.373187000000001,7.349601,-0.24820662,0.035153727999999995,0.0,27.3,25.68,-10.02
1554103663212,0.45489833,-5.0523643,7.627327999999999,-0.18002969,0.002130529,-0.010652645,27.3,25.62,-9.96
1554103663233,0.4261679,-4.9135003,7.790133999999999,-0.113983296,0.011717908999999999,-0.013848438000000001,27.36,25.62,-9.9
1554103663253,0.35913026,-5.3157263,7.804499000000001,-0.21624869,0.022370555,0.033023197000000004,27.36,25.62,-9.84
1554103663273,0.4261679,-5.478532,7.9337860000000004,-0.3174488,0.02876214,0.07030745599999999,27.36,25.68,-9.72
1554103663293,0.11971009,-5.4402246,7.9146323,-0.30040458,0.04580637,0.026631612000000002,27.42,25.92,-9.66
1554103663312,0.26336220000000005,-5.5647235,7.5650787,-0.30466563,0.056459017,0.01917476,27.42,26.1,-9.54
1554103663333,0.22026655,-5.445012999999999,7.7614035999999995,-0.31638354,0.098004326,0.023435817999999997,27.42,26.34,-9.48
1554103663353,0.20111294,-5.6269727,8.230667,-0.2609898,0.17576863,-0.04261058,27.48,26.58,-9.36
1554103663373,0.30166942,-5.761048000000001,7.665635000000001,-0.19813919,0.21837921,-0.05752428,27.54,26.82,-9.3
1554103663392,0.39743748,-5.3300915,8.230667,-0.09374327,0.28336033,-0.06178534,27.6,27.06,-9.18
1554103663415,0.1436521,-4.7219644,8.450933000000001,-0.07456851,0.3536678,-0.09161274,27.78,27.42,-8.88
1554103663433,-0.07182605,-5.3444567,7.756614999999999,-0.16298546,0.36432046,-0.08948222,27.84,27.54,-8.7
1554103663452,-0.0047884034,-6.192004,7.675211999999999,-0.31957933,0.35260254,-0.025566347000000003,27.96,27.6,-8.46
1554103663473,-0.49320555,-6.287772,8.063073,-0.10013486,0.29188246,0.025566347000000003,28.2,27.9,-8.1
1554103663494,-0.7086836999999999,-6.239888,7.593808999999999,0.017044231,0.21624869,0.024501082,28.26,27.96,-7.98
1554103663512,-0.18195933,-6.546346,7.4405804,0.06391586,0.14168017,0.13422333,28.5,28.2,-7.62
1554103663532,-0.22505496,-6.0483522,7.852383000000001,0.26844665,0.10759171,0.15126756,28.62,28.38,-7.44
1554103663553,-0.44532153,-5.1146135,7.9194207,0.24927188,0.13848437,0.15659387,28.74,28.5,-7.32
1554103663573,-0.17238252,-5.3683987,8.522758999999999,0.014913702,0.21624869,0.21518342,28.8,28.62,-7.38
1554103663593,-0.272939,-6.0770826,8.508394000000001,-0.113983296,0.23542345,0.24501082,28.86,28.62,-7.38
1554103663613,-0.61770403,-6.8049197,8.752603,0.03834952,0.27377295,0.28975195,28.92,28.56,-7.44
1554103663632,-0.89543146,-6.431424,9.45171,0.38029942,0.34940675,0.3270362,28.92,28.44,-7.44
1554103663652,-0.8858546,-5.990891,9.039907000000001,0.5123922000000001,0.37710363,0.39095205,28.92,28.32,-7.44
1554103663673,-1.2114661,-5.2343235,8.005612,0.39308259999999995,0.33129725,0.44208476,28.92,28.08,-7.5
1554103663693,-1.4604629999999998,-5.2917843,8.211513499999999,0.049002163,0.2034655,0.5187838,28.92,27.78,-7.5
1554103663713,-1.5658079,-6.033987000000001,8.628103999999999,-0.026631612000000002,0.09161274,0.59228706,28.98,27.36,-7.44
1554103663732,-1.5562311000000002,-6.5942300000000005,8.987235,0.15446335,0.02130529,0.6625945,29.04,26.88,-7.32
1554103663752,-1.4413095,-6.7666125,9.111733000000001,0.49215218,-0.020240024,0.7030744999999999,29.1,26.46,-7.2
1554103663773,-1.2449848999999997,-6.010045,8.608951,1.0982877,-0.10865697,0.7105314,29.16,25.92,-7.08
1554103663792,-1.0055646999999999,-5.3875523,8.273763,1.3379722,-0.15339808,0.71479243,29.28,25.26,-7.02
1554103663813,-0.9911995000000001,-4.415506400000001,7.5746554999999995,1.4530207,-0.20453078,0.6679208000000001,29.34,24.54,-6.9
1554103663833,-0.93373865,-4.204817,7.943362700000001,1.2474246999999998,-0.18535602,0.6924219,29.4,23.64,-6.84
1554103663853,-1.0247183000000002,-4.013280399999999,8.532336,0.9331716999999998,-0.099069595,0.73290193,29.52,22.38,-6.78
1554103663872,-0.8523358,-3.7307648999999996,8.604161999999999,0.49321744,0.002130529,0.7041398,29.58,21.12,-6.78
1554103663892,-1.091756,-3.3620577000000003,8.288128,0.02876214,0.09374327,0.62531024,29.58,19.86,-6.9
1554103663913,-1.3455413999999999,-3.7834373,7.225102000000001,-0.23755397,0.13848437,0.6317018,29.58,18.54,-7.08
1554103663932,-1.3503298000000001,-3.912724,7.3400240000000005,-0.21837921,0.21198763,0.6061354999999999,29.64,17.28,-7.2
1554103663952,-1.4700398000000001,-3.816956,7.651269999999999,-0.11504856,0.33129725,0.5411543000000001,29.64,16.02,-7.38
1554103663973,-1.4413095,-3.7786489000000003,7.3831196,-0.37071204,0.4282363,0.53476274,29.64,14.94,-7.5
1554103663992,-1.8339584999999998,-3.520075,5.855619,-0.9033443000000001,0.47510794,0.45912898,29.64,14.04,-7.68
1554103664013,-2.0590134,-4.3676224,6.741472999999999,-1.2634037,0.48363006,0.5219796,29.64,13.5,-7.74
1554103664033,-1.9536686,-4.683657,7.129334,-1.200553,0.4250405,0.6178534000000001,29.58,13.08,-7.8
1554103664053,-2.1164744,-4.956596,5.769428,-0.82344943,0.31851408,0.6018744,29.58,12.78,-7.68
1554103664072,-2.2505496,-5.382764,6.655282000000001,-0.38029942,0.17470337,0.588026,29.52,12.54,-7.5
1554103664092,-1.7286136000000003,-5.1385555,7.9194207,-0.020240024,0.1438107,0.6103965,29.52,12.36,-7.32
1554103664113,-1.8435352999999999,-4.7506948,8.034343,0.13315806,0.17150758,0.5795039000000001,29.52,12.24,-7.2
1554103664133,-2.3511062000000003,-4.5687356,8.728661,0.09161274,0.21092236,0.57417756,29.58,12.18,-7.02
1554103664152,-1.9680338,-4.899135,9.691130000000001,0.096939065,0.25140239999999997,0.57417756,29.58,12.12,-6.9
1554103664173,-2.1164744,-4.9374423,9.518747,0.6018744,0.31957933,0.42930159999999995,29.64,12.0,-6.72
1554103664192,-2.5378537,-4.573524,9.490017,0.9981528000000001,0.40053943,0.36325517,29.7,11.76,-6.6
1554103664213,-2.9017725,-4.683657,10.14124,1.2591426000000001,0.50173956,0.38349520000000004,29.88,11.04,-6.42
1554103664232,-3.1507695,-4.6501384,10.155605,1.3496901000000001,0.56245965,0.4048005,29.94,10.74,-6.36
1554103664252,-3.2465374,-4.540005000000001,9.997588,1.3464943,0.64341974,0.47723848,30.06,10.02,-6.24
1554103664273,-3.3375172999999996,-4.496909,9.695917999999999,1.2740563,0.75420725,0.5944176,30.12,9.12,-6.12
1554103664293,-3.7205894,-4.415506400000001,9.442133,1.2314457,0.83942837,0.7190535,30.18,8.22,-5.88
1554103664312,-3.7876269999999996,-3.9510313999999997,9.739014,1.2602079,0.902279,0.88203895,30.24,6.66,-5.34
1554103664332,-3.916914,-3.7211879999999997,9.418191,1.3646038,0.9960223,0.9651296,30.24,5.58,-4.86
1554103664353,-4.280833,-3.1657330000000004,8.91062,1.4828482,1.0567423,1.107875,30.3,4.5,-4.26
1554103664372,-4.644751,-2.581548,8.31207,1.582983,1.0940266,1.2069446000000001,30.24,3.9,-3.9
1554103664393,-4.7022123,-1.762731,7.8092875,1.7033578,1.1089402,1.2175972,30.12,1.92,-2.7
1554103664413,-4.7357309999999995,-1.1402385,7.177217999999999,1.7694043000000002,1.1025486999999998,1.2538162,30.0,0.6,-1.86
1554103664433,-4.697424,-0.110731825,6.578667599999999,1.6202673,1.0823087,1.2495551999999999,29.94,-0.96,-0.9
1554103664453,-4.917690299999999,0.6171055000000001,5.994482499999999,1.3954965,1.0322412,1.2069446000000001,29.82,-2.58,0.12
1554103664472,-4.9320555,1.0384849,5.798158,1.135572,0.9225190000000001,1.1153319,29.7,-4.26,1.14
1554103664493,-5.1092260000000005,1.4215573000000001,5.3624134,0.9321064,0.7946873000000001,1.0162623,29.52,-5.94,2.22
1554103664512,-5.142745,1.6849195,5.510854,0.7680557,0.63383234,0.8266452,29.4,-6.78,2.76
1554103664533,-5.2624555,1.9722236000000002,5.510854,0.7669904000000001,0.4857606,0.7275756,29.1,-8.46,3.78
1554103664552,-5.233725,2.0201077,5.573103,0.7350325,0.36964676,0.6221144000000001,28.74,-10.02,4.8
1554103664573,-5.2049947,2.2260091,5.7454852999999995,0.6487460999999999,0.25566345,0.4250405,28.32,-11.4,5.88
1554103664592,-5.3390699999999995,2.795829,5.558737799999999,0.64768076,0.14807177,0.15446335,27.84,-12.54,6.84
1554103664612,-5.650316,3.3464954,5.472546599999999,0.47723848,0.039414786,0.014913702,27.42,-13.56,7.74
1554103664632,-5.559336,3.0304607999999997,5.807735,0.04261058,-0.010652645,-0.06604639400000001,27.0,-14.4,8.46
1554103664653,-5.779603,1.905186,6.329671,-0.38882150000000004,0.0063915867,-0.12463594,26.58,-15.06,9.0
1554103664672,-5.966350599999999,1.1821371,6.865972,-0.5571333,0.039414786,-0.15126756,26.28,-15.6,9.42
1554103664693,-6.066907,0.57879823,7.4884644,-0.5070659000000001,0.10226539,-0.13741912,25.98,-15.78,9.66
1554103664712,-6.1578870000000006,0.6075286999999999,7.536348299999999,-0.30360037,0.17044231,-0.11504856,25.92,-15.9,9.78
1554103664733,-6.143522,0.9187749,7.536348299999999,-0.1438107,0.23116238,-0.051132694000000006,25.98,-15.9,9.78
1554103664753,-6.2392898,1.2012907,7.531560000000001,-0.083090626,0.29614353,-0.014913702,25.98,-15.78,9.78
1554103664772,-6.2632318,1.287482,7.3591776,-0.10972224,0.33875409999999995,0.034088463,25.98,-15.6,9.72
1554103664792,-6.325481,1.2922704,7.3974850000000005,-0.2034655,0.33129725,0.060720075,25.92,-15.42,9.72
1554103664812,-6.26802,0.98581254,7.373543,-0.27377295,0.28868666,0.08522116,25.92,-15.24,9.66
1554103664833,-6.363788,1.0576386,7.3591776,-0.23329292,0.2066613,0.06604639400000001,25.92,-15.06,9.66
1554103664853,-6.3302693,1.3257892,7.402272999999999,-0.1107875,0.10546118,0.024501082,25.98,-14.88,9.66
1554103664873,-6.244078,1.4311341,7.8092875,-0.047936900000000005,0.03089267,-0.00958738,25.98,-14.76,9.66
1554103664893,-6.4164605,1.3257892,7.9337860000000004,-0.002130529,-0.017044231,-0.029827405,25.98,-14.82,9.66
1554103664913,-6.349423000000001,0.98102415,7.6369047000000005,0.05752428,-0.056459017,-0.053263225,25.98,-14.94,9.72
1554103664934,-6.3685765,1.1007341999999998,7.421427,0.10013486,-0.06924219,-0.080960095,25.98,-15.06,9.78
1554103664953,-6.2105594,1.0384849,7.4884644,0.12783173,-0.05752428,-0.07882957,26.04,-15.24,9.78
1554103664973,-6.009446,1.1629834,7.5890207,0.15233281,-0.040480047000000005,-0.07989483,26.04,-15.42,9.84
1554103664992,-6.1100025,1.1629834,7.1580644,0.13422333,0.004261058,-0.082025364,26.04,-15.54,9.9
1554103665012,-6.196194,1.2443863000000002,6.746262,0.15659387,0.033023197000000004,-0.094808534,26.04,-15.72,9.9
1554103665034,-5.9807158,1.5604209999999998,6.5403605,0.20453078,0.013848438000000001,-0.14913702,26.04,-15.84,9.96
1554103665052,-6.0621184999999995,1.9147629000000002,6.238691,0.19281286,0.007456851,-0.22264028,26.04,-15.9,9.96
1554103665073,-6.133945,1.6178818000000001,6.3344593,0.082025364,0.023435817999999997,-0.23329292,25.98,-15.96,10.02
1554103665093,-6.2632318,1.2970588,6.755839,0.034088463,0.033023197000000004,-0.24927188,25.92,-15.96,10.08
1554103665113,-6.3350577,1.0384849,6.727108,0.05752428,0.049002163,-0.25992453,25.92,-15.96,10.08
1554103665132,-6.4547677000000006,1.0576386,6.8372416,0.06604639400000001,0.058589544,-0.24927188,25.86,-15.9,10.14
1554103665153,-6.6079965,1.1294646000000002,6.928221000000001,0.06391586,0.06391586,-0.23222765,25.8,-15.72,10.2
1554103665175,-6.5026517,1.0001777,7.330447,0.053263225,0.060720075,-0.20133498,25.8,-15.36,10.32
1554103665193,-6.4882865,1.1486181999999998,7.253833,0.06391586,0.05965481,-0.17896444,25.8,-15.12,10.38
1554103665212,-6.517017,1.2539631000000002,7.325659,0.080960095,0.056459017,-0.17363810000000002,25.92,-14.88,10.5
1554103665232,-6.517017,1.2826935,7.239467599999999,0.08522116,0.034088463,-0.16724652,25.98,-14.64,10.56
1554103665253,-6.6079965,1.3018471999999999,7.225102000000001,0.04261058,0.01917476,-0.1438107,26.04,-14.4,10.62
1554103665274,-6.627150500000001,1.0815806000000001,7.3591776,0.022370555,-0.014913702,-0.1438107,26.1,-14.16,10.68
1554103665293,-6.6415157,1.1629834,7.229890299999999,0.058589544,-0.053263225,-0.15020229,26.16,-14.04,10.8
1554103665312,-6.5744777,1.0863690000000001,7.177217999999999,0.07776430000000001,-0.08628642,-0.12783173,26.28,-13.98,10.86
1554103665333,-6.5026517,1.1629834,7.301717,0.101200126,-0.098004326,-0.10013486,26.4,-13.92,10.92
1554103665352,-6.3829417,1.1294646000000002,7.435792,0.15233281,-0.09267801,-0.07669904,26.4,-13.92,10.98
1554103665373,-6.3302693,1.1677719,7.124545599999999,0.21624869,-0.080960095,-0.06178534,26.46,-13.86,11.04
1554103665393,-6.349423000000001,1.2348095,7.0287776,0.26205507,-0.047936900000000005,-0.06498113,26.52,-13.8,11.1
1554103665413,-6.1578870000000006,1.3162124,6.818088,0.26738137,-0.03195793,-0.056459017,26.58,-13.74,11.16
1554103665432,-6.1578870000000006,1.2060791000000002,6.846818400000001,0.22690132,-0.023435817999999997,-0.05965481,26.64,-13.68,11.16
1554103665453,-6.1866174,1.1534066,6.9521630000000005,0.17896444,-0.007456851,-0.06498113,26.7,-13.56,11.22
1554103665472,-6.143522,1.3880384,7.014412400000001,0.16937704,-0.0031957934000000003,-0.06924219,26.76,-13.5,11.22
1554103665492,-6.1578870000000006,1.5221136999999998,6.875549,0.10546118,0.0053263223,-0.06498113,26.76,-13.38,11.22
1554103665513,-6.3589997,1.4263457,6.885125599999999,0.02876214,0.02130529,-0.07350325,26.82,-13.26,11.22
1554103665532,-6.2488665999999995,1.7328035,7.1580644,0.03834952,0.025566347000000003,-0.07669904,26.88,-13.2,11.28
1554103665554,-6.435614,1.584363,7.08145,0.027696876000000002,0.018109497,-0.1107875,26.94,-13.08,11.28
1554103665574,-6.4787097000000005,1.3449427999999999,7.268198,0.03195793,0.018109497,-0.11504856,27.0,-13.02,11.28
1554103665592,-6.4404025,1.3736732,7.392696400000001,0.080960095,0.013848438000000001,-0.12037488,27.06,-12.96,11.34
1554103665613,-6.3063273,1.2731166999999999,7.2873516,0.11717909,0.017044231,-0.113983296,27.12,-12.96,11.4
1554103665633,-6.3685765,1.2826935,7.091027,0.15126756,0.018109497,-0.11504856,27.12,-12.96,11.52
1554103665653,-6.3350577,1.3688848,6.9904703999999995,0.18109496,0.0063915867,-0.098004326,27.18,-12.9,11.82
1554103665673,-6.3350577,1.3640964,6.885125599999999,0.18961707,-0.017044231,-0.10013486,27.18,-12.84,12.12
1554103665692,-6.339846,1.5556326,7.153275999999999,0.18429075,-0.051132694000000006,-0.12037488,27.24,-12.78,12.36
1554103665712,-6.244078,1.5556326,7.047931,0.19068234,-0.07456851,-0.13741912,27.24,-12.78,12.6
1554103665733,-6.301539,1.6178818000000001,7.08145,0.17896444,-0.06498113,-0.165116,27.24,-12.78,12.78
1554103665753,-6.4020953,1.7280151000000001,7.043143,0.13102753,-0.053263225,-0.1768339,27.3,-12.72,12.9
1554103665773,-6.378153299999999,1.6849195,7.215525,0.07776430000000001,-0.04261058,-0.18642128,27.3,-12.6,12.96
1554103665793,-6.540959,1.6657659,6.985682000000001,0.07137272,-0.040480047000000005,-0.17576863,27.36,-12.48,12.9
1554103665812,-6.469133,1.5125369,7.023989,0.10546118,-0.049002163,-0.15446335,27.36,-12.36,12.78
1554103665833,-6.3446345,1.6178818000000001,7.000047,0.1470065,-0.04474111,-0.12676647,27.42,-12.24,12.6
1554103665853,-6.3589997,1.6897078999999997,6.889914,0.15233281,-0.013848438000000001,-0.099069595,27.48,-12.06,12.42
1554103665872,-6.459556,1.6370354,6.832453299999999,0.10759171,0.011717908999999999,-0.08948222,27.54,-11.88,12.3
1554103665892,-6.3925184999999995,1.5173253,6.707954400000001,0.06285059999999999,0.023435817999999997,-0.084155895,27.54,-11.64,12.18
1554103665913,-6.445191,1.407192,6.8085113,0.017044231,0.017044231,-0.06711166,27.54,-11.46,12.3
1554103665933,-6.469133,1.2395979,6.554725599999999,-0.02876214,-0.007456851,-0.046871635999999994,27.54,-11.34,12.42
1554103665952,-6.4260373,1.2683283,6.971317,-0.040480047000000005,-0.020240024,-0.03195793,27.54,-11.22,12.54
1554103665972,-6.378153299999999,1.584363,7.148487599999999,-0.002130529,-0.017044231,-0.03195793,27.6,-11.16,12.66
1554103665992,-6.2632318,1.6370354,6.995259,-0.020240024,-0.0063915867,-0.026631612000000002,27.66,-11.1,12.78
1554103666013,-6.2105594,1.4981716999999999,6.8611835999999995,-0.06924219,-0.0010652645,0.002130529,27.72,-11.04,12.9
1554103666033,-6.0860605,1.4646529,6.6600703999999995,-0.05539375,-0.0063915867,-0.00958738,27.72,-11.04,13.02
1554103666052,-6.129156,1.3401544,6.9665284,-0.03834952,0.0031957934000000003,-0.022370555,27.78,-11.04,13.08
1554103666072,-6.133945,1.2683283,6.755839,-0.06604639400000001,-0.0031957934000000003,-0.00958738,27.84,-11.04,13.02
1554103666093,-5.990292500000001,1.2779051000000001,6.909067599999999,-0.11824436,-0.004261058,-0.008522116,27.9,-11.04,13.02
1554103666113,-6.023811299999999,1.2348095,7.091027,-0.16618125,0.0010652645,0.0053263223,27.96,-11.04,13.02
1554103666133,-6.0621184999999995,1.2348095,7.0527196,-0.16298546,0.010652645,0.002130529,27.96,-11.1,13.02
1554103666153,-6.1483099999999995,1.3305776000000002,7.1724296,-0.10865697,0.027696876000000002,-0.0063915867,28.02,-11.16,13.02
1554103666173,-6.291962,1.3401544,7.201160000000001,-0.06178534,0.041545313,-0.01917476,28.02,-11.16,12.96
1554103666192,-6.3302693,1.3736732,7.2969284,-0.05965481,0.049002163,-0.024501082,28.02,-11.22,12.96
1554103666213,-6.2584434,1.2108675,7.3974850000000005,-0.07989483,0.053263225,-0.03089267,28.08,-11.28,12.96
1554103666233,-6.2249246,1.2252326999999998,7.3831196,-0.07030745599999999,0.040480047000000005,-0.036218993,28.08,-11.28,12.96
1554103666253,-6.277597,1.2348095,7.507617999999999,-0.039414786,0.03089267,-0.05219796,28.02,-11.28,12.9
1554103666272,-6.3446345,1.0672153999999998,7.349601,-0.01917476,0.020240024,-0.05539375,28.02,-11.34,12.9
1554103666292,-6.3829417,1.0576386,7.1724296,-0.0053263223,0.01917476,-0.06604639400000001,28.02,-11.34,12.9
1554103666313,-6.363788,1.2779051000000001,7.201160000000001,0.012783173500000002,0.0063915867,-0.098004326,28.02,-11.34,12.84
1554103666333,-6.172251999999999,1.2539631000000002,7.167641000000001,0.05752428,-0.034088463,-0.11930962,27.96,-11.34,12.84
1554103666352,-6.2249246,1.2443863000000002,7.1341224,0.10439592,-0.06924219,-0.13954964,27.96,-11.34,12.84
1554103666373,-6.1578870000000006,1.2635399,7.234678999999999,0.1438107,-0.08522116,-0.15446335,27.96,-11.34,12.78
1554103666392,-6.4212489999999995,1.2826935,7.0287776,0.165116,-0.099069595,-0.15978967,27.96,-11.28,12.78
1554103666413,-6.4787097000000005,1.3162124,6.96174,0.13635385,-0.101200126,-0.15659387,27.96,-11.28,12.78
1554103666433,-6.497863300000001,1.3497312,7.095814999999999,0.12144015,-0.10759171,-0.13954964,27.96,-11.28,12.78
1554103666452,-6.4739213,1.5795746000000002,6.7606273,0.17257284,-0.09587380000000001,-0.15020229,27.9,-11.28,12.78
1554103666473,-6.26802,1.8525136000000002,7.325659,0.20985709,-0.046871635999999994,-0.13209279,27.9,-11.22,12.84
1554103666492,-6.378153299999999,2.1350293,6.502053299999999,0.28549087,-0.041545313,-0.25033715,27.9,-11.16,12.84
1554103666513,-6.354211299999999,1.9482816000000003,6.4685345000000005,0.05539375,-0.017044231,-0.24927188,27.84,-11.04,12.84
1554103666532,-6.191406,0.99060094,7.019201,-0.12357068,0.014913702,-0.20133498,27.84,-10.92,12.84
1554103666552,-6.291962,0.9379284999999999,7.225102000000001,0.018109497,0.035153727999999995,-0.24181503,27.84,-10.8,12.84
1554103666572,-6.143522,1.3784616000000003,6.8611835999999995,0.15978967,0.04580637,-0.24501082,27.9,-10.68,12.84
1554103666593,-6.2345014,1.6801311,6.7941460000000005,0.15020229,0.056459017,-0.23542345,28.08,-10.38,12.84
1554103666613,-6.3925184999999995,1.7375918999999997,6.5068417,0.056459017,0.035153727999999995,-0.23329292,28.2,-10.14,12.84
1554103666633,-6.133945,1.5269021,6.707954400000001,-0.020240024,-0.00958738,-0.28016454,28.38,-9.9,12.84
1554103666653,-6.05733,1.5029601000000001,6.688801,-0.06178534,-0.06498113,-0.3291667,28.5,-9.66,12.9
1554103666673,-6.0860605,1.4933833,6.602609599999999,-0.10759171,-0.14274544,-0.40053943,28.62,-9.48,12.9
1554103666692,-6.009446,1.5029601000000001,6.238691,-0.22370553,-0.24181503,-0.47723848,28.74,-9.24,12.96
1554103666712,-6.172251999999999,1.2348095,6.3344593,-0.47936899999999993,-0.30466563,-0.51984906,28.86,-9.0,13.02
1554103666732,-6.114791,0.64583594,6.755839,-0.74675035,-0.32597092,-0.535828,28.92,-8.7,13.08
1554103666753,-6.0525417,0.21009120000000003,6.9521630000000005,-0.9395633,-0.33662358,-0.5336975,28.92,-8.52,13.14
1554103666773,-6.1387334000000005,-0.10115502,6.947375,-1.1419635000000001,-0.31851408,-0.5070659000000001,28.92,-8.22,13.14
1554103666792,-5.746084,-0.30226797,7.239467599999999,-1.2442288000000001,-0.28655612,-0.4889564,28.98,-7.86,13.14
1554103666813,-5.5401826,-0.32621,6.880337,-1.1728562,-0.23329292,-0.48043427,29.16,-7.5,12.96
1554103666832,-5.707777,-0.24001873,6.415862000000001,-1.091896,-0.16405073,-0.44101948,29.34,-7.14,12.6
1554103666852,-5.66947,-0.091578215,6.305729,-1.063134,-0.10759171,-0.45167214,29.58,-6.78,12.06
1554103666874,-5.645528,-0.12509704,6.880337,-1.0013485999999998,-0.060720075,-0.53795856,29.88,-6.12,11.16
1554103666898,-5.5976434,-0.3788824,6.765415700000001,-0.91612744,-0.040480047000000005,-0.5901565,30.0,-5.94,10.86
1554103666912,-5.243302,-0.5033809,6.305729,-0.75633776,-0.025566347000000003,-0.6775081999999999,30.3,-5.1,9.96
1554103666934,-5.0134583,-0.6278794,6.27221,-0.81705785,-0.033023197000000004,-0.84581995,30.48,-4.56,9.42
1554103666952,-5.1666875,-0.9487024,6.401497,-0.9736517,-0.05752428,-0.96086854,30.6,-3.96,9.0
1554103666975,-5.410896,-1.6430208999999998,6.6361284,-1.2911005,-0.094808534,-1.0748518999999999,30.66,-3.36,8.7
1554103666992,-5.233725,-1.8489223000000001,6.324882499999999,-1.4199976,-0.13741912,-1.128115,30.66,-2.58,8.58
1554103667013,-4.8985367,-1.9494787,6.2243257000000005,-1.5275892,-0.18002969,-1.2410331000000001,30.78,-1.74,8.52
1554103667032,-4.7644614999999995,-2.03567,6.4110737,-1.5723303999999998,-0.23329292,-1.4285196000000002,31.08,-0.84,8.4
1554103667052,-4.5394063,-2.2655133999999997,7.000047,-1.4551512,-0.29188246,-1.6511599,31.32,0.24,8.28
1554103667073,-4.156333999999999,-3.2279825,6.880337,-1.135572,-0.34621096,-1.8865832999999999,31.62,1.38,8.04
1554103667092,-3.8211459999999997,-3.5248635000000004,6.885125599999999,-0.8213189000000001,-0.38456047,-2.0527647,31.86,2.76,7.8
1554103667113,-3.8546648,-3.4434607,6.669647,-0.47936899999999993,-0.44847634,-2.2455776000000003,32.16,4.38,7.44
1554103667133,-3.6583402,-3.7163997,6.640917,-0.18002969,-0.56459016,-2.4703484,32.46,6.18,7.14
1554103667153,-2.8874072999999996,-4.214393599999999,6.353613,-0.11504856,-0.72970617,-2.5875272999999996,32.76,8.16,6.78
1554103667172,-2.4037786,-4.0084919999999995,6.1381345000000005,-0.25140239999999997,-0.8085357,-2.6823359,33.06,10.44,6.48
1554103667193,-1.9823990000000002,-4.463390400000001,5.951387,-0.61678815,-0.9108011,-2.8826056,33.24,12.96,6.18
1554103667213,-1.7142484,-4.9661726999999996,6.023213,-0.8298409999999999,-0.98110855,-2.9262815,33.36,15.6,5.88
1554103667233,-0.9864110999999999,-5.7802014,5.7790045999999995,-0.90973586,-1.0482203,-3.0349383,33.54,18.24,5.64
1554103667253,0.038307227,-7.1065892999999996,5.8987145,-1.0929613,-1.1174624,-3.1308122000000003,33.72,21.06,5.4
1554103667272,0.6943185000000001,-7.4609309999999995,5.7933699999999995,-1.1653993,-1.1259845,-3.0658312000000003,33.84,24.12,5.16
1554103667292,0.5554548,-7.0347633,5.6497173,-1.1313108,-1.099353,-3.0594394,33.84,27.3,4.86
1554103667313,1.0582372,-6.824073299999999,5.501277,-1.0748518999999999,-1.0940266,-3.1318773999999996,33.6,30.48,4.62
1554103667333,2.0781669999999997,-8.002021000000001,5.544372599999999,-1.0705907,-1.1153319,-3.1265512,33.06,33.66,4.38
1554103667352,2.8874072999999996,-8.801684,5.846042,-1.0333065000000001,-1.139833,-3.0178943,32.28,36.84,4.14
1554103667372,3.217807,-8.619724,5.846042,-0.8309063,-1.1206582,-2.9784794,31.44,39.96,3.96
1554103667393,3.0597897,-7.4561424,5.333683000000001,-0.5091964,-1.1046791999999999,-3.0882017999999998,30.42,43.08,3.72
1554103667412,3.7110126000000005,-7.101800999999999,5.539584,-0.31638354,-1.1313108,-3.1563785,29.1,46.08,3.6
1554103667433,4.7500963,-8.088212,5.6640825,-0.080960095,-1.1366372,-3.1233554,27.66,48.78,3.48
1554103667453,5.760449400000001,-8.461707,5.7933699999999995,0.27590349999999997,-1.0855045,-3.1425302000000004,26.16,51.24,3.36
1554103667473,6.315904,-7.504027000000001,5.3528366,0.4165184,-1.0258497,-3.1563785,24.66,53.52,3.18
1554103667492,6.828263300000001,-6.8575919999999995,4.7734394,0.27057716,-0.96619487,-3.0445259,23.16,55.56,2.94
1554103667513,6.9862804,-6.3404446,4.4717703,0.07882957,-0.9214538000000001,-2.9422605,21.66,57.3,2.58
1554103667532,7.407660000000001,-5.909488,4.3807906999999995,-0.09161274,-0.8628642,-2.9379995,19.86,58.8,2.1
1554103667553,8.154651,-5.478532,4.624999,-0.2609898,-0.8159926,-2.9784794,18.0,60.12,1.62
1554103667572,8.595184,-5.1529207,4.8165355000000005,-0.38882150000000004,-0.7819041,-3.0360036,16.26,61.26,1.14
1554103667593,9.232041,-4.894346700000001,4.696825,-0.39734364,-0.7637946,-3.064766,14.46,62.22,0.66
1554103667613,9.548077000000001,-4.563947,4.5340195,-0.28975195,-0.7137272,-3.0945932999999997,12.54,63.06,0.18
1554103667632,9.883265,-3.9318779000000004,4.4765587,-0.26418558,-0.6988135,-3.0498521,10.5,63.72,-0.18
1554103667653,10.184934,-3.5440169999999998,4.883573,-0.43249738,-0.7126619000000001,-2.9028456,7.5,64.44,-0.54
1554103667672,10.405201,-3.7786489000000003,5.0224366,-0.6562029,-0.7488809000000001,-2.6865968999999996,6.48,64.62,-0.6
1554103667692,10.405201,-3.5535938999999996,4.9027267,-0.7978831000000001,-0.7946873000000001,-2.4256072,4.5,64.98,-0.66
1554103667713,10.223241,-2.9933507,4.7207669999999995,-0.8628642,-0.8042746999999999,-2.1465080000000003,2.46,65.28,-0.6
1554103667733,10.070012,-3.0699651,4.888361499999999,-0.9800433000000001,-0.7616641,-1.8216022,0.36,65.34,-0.54
1554103667753,9.701305,-3.3764230000000004,5.228338,-0.99282646,-0.67537767,-1.3539511,-2.4,65.16,-0.48
1554103667772,9.744401,-3.7211879999999997,5.137358,-0.8948221,-0.5795039000000001,-1.0844392,-4.02,64.98,-0.3
1554103667792,9.433155000000001,-3.5631707,4.821324,-0.80747044,-0.50173956,-0.97258645,-4.74,64.86,-0.24
1554103667813,9.203311,-2.7347770000000002,4.2658687,-0.75633776,-0.43782368,-0.8298409999999999,-6.78,64.5,0.24
1554103667833,9.016563,-2.5623944,4.3281183,-0.850081,-0.26418558,-0.7392935,-7.92,64.14,0.6
1554103667853,8.580819,-2.8975825,4.1317935,-1.107875,-0.09374327,-0.6348976,-8.76,63.72,1.08
1554103667872,8.532935,-3.4578260000000003,4.0839095,-1.3592775,0.05752428,-0.5187838,-9.36,63.3,1.62
1554103667892,8.169016000000001,-3.3620577000000003,4.3903675,-1.4924355,0.17789917,-0.5475459,-9.9,63.0,2.28
1554103667913,8.212111,-3.1896752999999998,4.4526167,-1.4966966,0.2545982,-0.5294364,-10.5,62.7,3.18
1554103667933,8.255207,-3.3620577000000003,4.395156,-1.4466291999999998,0.3174488,-0.5028047999999999,-10.98,62.46,4.14
1554103667953,8.145074000000001,-3.4386723,4.3807906999999995,-1.3443637,0.34408042,-0.45167214,-11.34,62.22,5.04
1554103667973,8.485051,-3.4626143,4.2610803,-1.176052,0.34194988,-0.33449304,-11.58,62.04,6.0
1554103667992,8.6813755,-3.6062663,3.9402574999999995,-1.0769824,0.34514567,-0.26418558,-11.82,61.92,6.9
1554103668013,8.719683,-3.6541502,4.055179,-0.9289106,0.36112466,-0.14061491,-12.06,61.92,7.68
1554103668032,8.7053175,-3.3620577000000003,4.055179,-0.77870834,0.36325517,-0.0053263223,-12.3,61.92,8.46
1554103668052,8.743625,-3.1848867000000003,4.1078515,-0.6679208000000001,0.3334278,0.13102753,-12.54,61.92,9.12
1554103668072,8.724471000000001,-3.3716345000000003,4.079121,-0.5613944000000001,0.28442562,0.29933932,-12.72,61.98,9.6
1554103668093,8.743625,-3.2375592999999996,3.9881415000000002,-0.42397526,0.25140239999999997,0.40373522,-12.84,62.04,10.02
1554103668113,8.901641999999999,-3.0651767000000003,3.7774517999999997,-0.29507825,0.22477080000000002,0.4857606,-12.96,62.04,10.5
1554103668132,8.872911,-2.9789855,3.5140896,-0.17363810000000002,0.21624869,0.5411543000000001,-13.08,62.1,10.8
1554103668152,8.6574335,-2.8592752999999997,3.5811272000000005,-0.07350325,0.22477080000000002,0.5837649,-13.14,62.16,11.1
1554103668172,8.480263,-2.6150667999999997,3.7199910000000003,0.0063915867,0.20985709,0.5965481,-13.08,62.22,11.46
1554103668192,8.403648,-2.5145104,3.6290112,0.06285059999999999,0.15339808,0.58483016,-12.9,62.28,11.82
1554103668213,8.250419,-2.4235306,3.696049,0.08735169,0.06604639400000001,0.5816344,-12.66,62.28,12.12
1554103668232,8.470686,-2.533664,3.3704373999999997,0.12570119999999999,-0.027696876000000002,0.55606806,-12.36,62.4,12.36
1554103668252,8.643068,-2.6916811000000003,3.4566288,0.17470337,-0.099069595,0.50173956,-11.94,62.76,12.48
1554103668273,8.686164,-2.7443538,3.5476084,0.31638354,-0.13635385,0.43569317,-11.46,63.18,12.54
1554103668292,8.887277000000001,-2.710835,3.5954924,0.46339005,-0.12996227,0.3717773,-10.98,63.54,12.6
1554103668313,8.738836000000001,-2.2415714,3.4087446000000003,0.56885123,-0.10972224,0.33449304,-10.5,63.96,12.6
1554103668333,8.504205,-2.203264,3.4518404,0.52411014,-0.094808534,0.314253,-10.08,64.38,12.54
1554103668353,8.327033,-2.2703017999999995,3.5093012000000003,0.4133226,-0.10972224,0.3057309,-9.78,64.86,12.42
1554103668373,8.561666,-2.48578,3.7343562000000006,0.2972088,-0.14594123,0.28655612,-9.54,65.4,12.24
1554103668393,8.580819,-2.5719712,3.5523968,0.25992453,-0.18216023,0.23009712,-9.3,65.82,12.06
1554103668413,8.63828,-2.7156234,3.9019501000000005,0.28975195,-0.18855181,0.17789917,-9.18,66.0,11.82
1554103668433,8.470686,-2.5049335999999998,3.5140896,0.38029942,-0.17044231,0.111852765,-9.06,66.18,11.64
1554103668453,8.461109,-2.461838,3.7008373999999997,0.406931,-0.15552860000000002,0.056459017,-8.94,66.3,11.46
1554103668472,8.384495,-2.4714148,3.7822402000000004,0.38136467,-0.14594123,0.0,-8.7,66.48,11.22
1554103668493,8.5473,-2.5001452,3.6768951000000003,0.350472,-0.15233281,-0.07030745599999999,-8.52,66.48,11.04
1554103668513,8.576031,-2.4331074,3.6625300000000003,0.3174488,-0.14168017,-0.13528858,-8.28,66.48,10.86
1554103668533,8.791509,-2.5576060000000003,3.4566288,0.27590349999999997,-0.11611383,-0.165116,-8.1,66.36,10.68
1554103668552,8.738836000000001,-2.5911248,3.6481647000000006,0.22264028,-0.07137272,-0.17257284,-8.04,66.3,10.62
1554103668573,8.6813755,-2.6629508,3.7152026,0.19600865,-0.033023197000000004,-0.16298546,-7.92,66.06,10.32
1554103668593,8.7292595,-2.6150667999999997,3.7487214,0.17257284,-0.025566347000000003,-0.15233281,-7.92,66.0,10.2
1554103668612,8.738836000000001,-2.6533740000000003,3.863643,0.16085494,-0.012783173500000002,-0.14274544,-7.92,65.82,9.96
1554103668632,8.686164,-2.7443538,3.767875,0.14807177,-0.00958738,-0.13848437,-8.04,65.76,9.66
1554103668653,8.5473,-2.7347770000000002,3.7822402000000004,0.12783173,0.002130529,-0.12676647,-8.16,65.7,9.48
1554103668672,8.576031,-2.5959132,3.3608606,0.09267801,0.00958738,-0.10865697,-8.4,65.76,9.18
1554103668693,8.595184,-2.7252002,3.5236663999999998,0.025566347000000003,0.017044231,-0.09054748,-8.52,65.76,9.0
1554103668713,8.667010000000001,-2.7443538,3.6433763999999997,-0.024501082,0.02876214,-0.07030745599999999,-8.64,65.76,8.88
1554103668732,8.599973,-2.8018146,3.518878,-0.05965481,0.029827405,-0.056459017,-8.7,65.82,8.76
1554103668753,8.595184,-2.8688521000000002,3.3800142,-0.08628642,0.027696876000000002,-0.034088463,-8.7,65.94,8.7
1554103668773,8.647857,-2.782661,3.4326867999999995,-0.082025364,0.025566347000000003,-0.023435817999999997,-8.7,66.0,8.64
1554103668793,8.6813755,-2.7682957999999998,3.3608606,-0.07350325,0.022370555,-0.0031957934000000003,-8.7,66.0,8.58
1554103668813,8.6813755,-2.806603,3.5763388,-0.037284255,0.014913702,0.008522116,-8.64,66.0,8.52
1554103668832,8.743625,-2.8688521000000002,3.365649,-0.0053263223,0.023435817999999997,0.027696876000000002,-8.64,66.0,8.52
1554103668853,8.51857,-2.7299886000000004,3.3464954,0.0031957934000000003,0.022370555,0.058589544,-8.58,66.0,8.46
1554103668873,8.647857,-2.7012582000000003,3.4566288,-0.035153727999999995,0.00958738,0.082025364,-8.58,66.06,8.46
1554103668893,8.643068,-2.6581624,3.2746694,-0.054328485999999995,-0.02130529,0.096939065,-8.58,66.06,8.46
1554103668913,8.643068,-2.6868927000000005,3.4183214,-0.05006743,-0.047936900000000005,0.094808534,-8.52,66.06,8.52
1554103668933,8.700529,-2.6677392,3.6529531000000004,-0.0010652645,-0.068176925,0.083090626,-8.52,66.06,8.58
1554103668952,8.671799,-2.7730842,3.6194344,0.049002163,-0.07669904,0.068176925,-8.52,66.0,8.58
1554103668972,8.820239,-2.5623944,3.5045127999999997,0.07669904,-0.068176925,0.046871635999999994,-8.58,66.0,8.64
1554103668993,8.695741,-2.5528176,3.6816837999999996,0.07882957,-0.05539375,0.037284255,-8.58,66.0,8.64
1554103669012,8.695741,-2.4187422,3.696049,0.04580637,-0.051132694000000006,0.036218993,-8.58,66.0,8.7
1554103669033,8.604761,-2.48578,3.5715504,-0.0010652645,-0.04580637,0.03089267,-8.64,66.0,8.7
1554103669053,8.676587,-2.5767596,3.7008373999999997,-0.05752428,-0.046871635999999994,0.017044231,-8.64,66.0,8.7
1554103669073,8.767567,-2.6102784,3.6864722000000003,-0.07989483,-0.04474111,-0.007456851,-8.64,66.0,8.76
1554103669092,8.7532015,-2.5001452,3.5093012000000003,-0.07776430000000001,-0.03834952,-0.03834952,-8.58,66.0,8.76
1554103669113,8.6334915,-2.5623944,3.5811272000000005,-0.08522116,-0.03089267,-0.07776430000000001,-8.52,65.94,8.82
1554103669133,8.652645,-2.4666264,3.7152026,-0.08735169,-0.025566347000000003,-0.10972224,-8.46,65.94,8.82
1554103669153,8.513782,-2.5288756,3.5859156000000003,-0.06924219,-0.040480047000000005,-0.1438107,-8.4,65.94,8.82
1554103669174,8.590396,-2.5528176,3.5811272000000005,-0.051132694000000006,-0.051132694000000006,-0.18429075,-8.34,65.94,8.88
1554103669193,8.585608,-2.6437972000000003,3.7008373999999997,-0.020240024,-0.041545313,-0.22264028,-8.22,65.94,8.88
1554103669213,8.5473,-2.4426842,3.5523968,-0.01917476,-0.024501082,-0.25033715,-8.16,65.94,8.94
1554103669232,8.604761,-2.5576060000000003,3.5045127999999997,-0.080960095,-0.010652645,-0.26525086,-8.1,66.0,8.94
1554103669253,8.504205,-2.6485856,3.6290112,-0.13528858,0.002130529,-0.27590349999999997,-8.1,66.0,8.94
1554103669273,8.485051,-2.6677392,3.6721067,-0.14487597,0.0010652645,-0.29294774,-8.1,66.0,8.94
1554103669293,8.461109,-2.6725276,3.4901476000000002,-0.13422333,-0.012783173500000002,-0.2972088,-8.16,66.0,8.94
1554103669313,8.475474,-2.6964695,3.7582982000000005,-0.08735169,-0.02130529,-0.29933932,-8.22,66.0,9.0
1554103669332,8.432379,-2.629432,3.7966053,-0.007456851,-0.033023197000000004,-0.29507825,-8.28,65.94,9.06
1554103669353,8.485051,-2.5719712,3.6290112,0.037284255,-0.025566347000000003,-0.26844665,-8.4,65.88,9.12
1554103669373,8.595184,-2.6198552000000004,3.7726634,0.046871635999999994,-0.020240024,-0.23222765,-8.52,65.82,9.18
1554103669392,8.686164,-2.7491422,3.863643,0.039414786,-0.02876214,-0.20559604,-8.76,65.64,9.42
1554103669413,8.714894000000001,-2.8161798,4.040814,0.037284255,-0.036218993,-0.18642128,-8.82,65.64,9.48
1554103669433,8.738836000000001,-2.9837740000000004,3.9929300000000003,0.05539375,-0.04580637,-0.16298546,-9.0,65.52,9.6
1554103669453,8.762777999999999,-2.926313,4.11264,0.083090626,-0.027696876000000002,-0.14168017,-9.12,65.46,9.72
1554103669472,8.839393,-2.8640637000000004,4.1844660000000005,0.09374327,0.00958738,-0.11504856,-9.18,65.34,9.78
1554103669493,8.786719999999999,-2.8927941,4.3664255,0.07563378,0.06178534,-0.07456851,-9.24,65.16,9.72
1554103669512,8.834603999999999,-2.959832,4.385579,0.046871635999999994,0.101200126,-0.03834952,-9.3,65.1,9.66
1554103669532,8.834603999999999,-2.9311013,4.524442700000001,0.008522116,0.14913702,-0.014913702,-9.3,64.98,9.54
1554103669553,8.939949,-2.9071592999999996,4.553173,-0.041545313,0.21092236,0.025566347000000003,-9.3,64.92,9.3
1554103669572,8.494628,-2.710835,4.3329067000000006,-0.20240025,0.31638354,0.1587244,-9.3,64.86,9.12
1554103669592,8.465898,-2.8353333,4.3568487000000005,-0.43356264,0.4079963,0.2790993,-9.3,64.74,8.94
1554103669613,8.312667999999999,-3.4434607,4.5723267,-0.58909124,0.43782368,0.36325517,-9.36,64.74,8.82
1554103669632,8.164227499999999,-3.7355532999999994,4.466982,-0.7094661,0.44954160000000004,0.49747851,-9.36,64.8,8.76
1554103669653,8.101977999999999,-3.8600516000000002,4.0360255,-0.73822826,0.44315,0.6061354999999999,-9.42,64.86,8.76
1554103669672,8.082825,-4.051588,4.055179,-0.680704,0.44421527,0.660464,-9.42,64.98,8.88
1554103669693,7.915230800000001,-4.3101616,4.0695443,-0.5091964,0.4314321,0.67537767,-9.3,65.16,9.12
1554103669713,7.642291999999999,-4.487332299999999,4.11264,-0.22903186,0.41545314,0.6466155,-9.18,65.34,9.42
1554103669733,7.6375036,-4.348469000000001,3.6768951000000003,0.16405073,0.39521313,0.5581986,-9.0,65.52,9.78
1554103669752,7.627927000000001,-4.1665095999999995,3.5763388,0.35792887,0.38882150000000004,0.5209143,-8.76,65.76,10.08
1554103669772,7.690175999999999,-3.9031472000000003,3.4087446000000003,0.515588,0.34621096,0.49428272,-8.4,66.06,10.38
1554103669793,7.953538000000001,-3.7834373,3.2172085999999998,0.55074173,0.27590349999999997,0.47404268,-7.98,66.36,10.68
1554103669813,7.97748,-3.7547068999999995,3.1549592,0.5294364,0.22370553,0.48043427,-7.56,66.66,10.92
1554103669832,8.058883,-3.6302083,3.0735563999999997,0.4878911,0.19600865,0.47936899999999993,-6.9,66.9,11.04
1554103669852,8.178593,-3.3381157,3.1214404,0.43356264,0.18216023,0.47936899999999993,-6.42,67.2,11.1
1554103669873,8.09719,-3.2662897,3.020884,0.38029942,0.17363810000000002,0.49747851,-5.88,67.44,10.92
1554103669893,8.09719,-3.1226375,3.2124202,0.28229508,0.1438107,0.5432849000000001,-5.4,67.62,10.74
1554103669913,8.058883,-2.9837740000000004,3.164536,0.17789917,0.08628642,0.5784385999999999,-4.92,67.8,10.5
1554103669932,8.073248,-2.9502552000000004,3.3081882000000005,0.09267801,0.013848438000000001,0.5997439,-4.5,67.92,10.26
1554103669953,7.9487495,-2.8736405,3.4231097999999998,0.051132694000000006,-0.080960095,0.5954828000000001,-4.02,67.98,10.02
1554103669972,8.058883,-2.7874494,3.5332432000000003,0.068176925,-0.16724652,0.572047,-3.6,68.04,9.78
1554103669993,8.063671000000001,-2.7443538,3.7152026,0.12996227,-0.2428803,0.53476274,-3.24,68.1,9.54
1554103670013,8.006210000000001,-2.5959132,3.9737763,0.22690132,-0.28975195,0.45912898,-2.88,68.16,9.3
1554103670032,8.054094000000001,-2.5432408,3.8780080999999997,0.30999196,-0.3206446,0.3568636,-2.58,68.34,9.24
1554103670053,7.9391727,-2.2750902,3.9929300000000003,0.3685815,-0.3291667,0.20240025,-2.28,68.52,9.12
1554103670073,7.8673470000000005,-2.3181857999999997,4.2036195,0.39521313,-0.34834146,0.014913702,-2.04,68.76,9.06
1554103670093,7.876923599999999,-2.2080526000000003,4.409521,0.35579833,-0.36964676,-0.20772657,-1.8,68.94,8.94
1554103670113,7.9583262999999995,-2.1841104,4.2275615,0.22903186,-0.40266997,-0.44421527,-1.62,69.18,8.88
1554103670133,8.164227499999999,-2.131438,4.194042700000001,0.023435817999999997,-0.4048005,-0.6775081999999999,-1.44,69.36,8.82
1554103670152,8.355764,-2.356493,4.3664255,-0.21411815,-0.40906155,-0.9033443000000001,-1.32,69.48,8.76
1554103670172,8.614338,-2.7060466,4.4765587,-0.3653857,-0.39521313,-1.0897655000000002,-1.26,69.54,8.64
1554103670193,8.743625,-2.8113914,4.7207669999999995,-0.41119209999999995,-0.38456047,-1.2644688999999998,-1.2,69.42,8.46
1554103670212,8.623915,-2.7682957999999998,4.672883000000001,-0.41225734,-0.37923414,-1.3379722,-1.2,69.36,8.4
1554103670232,8.6574335,-2.8592752999999997,4.6154222,-0.4133226,-0.35792887,-1.3795174,-1.44,69.18,8.34
1554103670252,8.820239,-3.0891187,4.5675383,-0.39201729999999996,-0.30786142,-1.3731258999999998,-1.86,68.94,8.28
1554103670273,8.839393,-3.2231941,4.5675383,-0.34301516,-0.24607609,-1.3582121999999999,-2.34,68.7,8.16
1554103670292,8.767567,-3.2758665000000002,4.5148660000000005,-0.30253512,-0.19281286,-1.3443637,-3.0,68.46,8.1
1554103670313,8.820239,-3.5248635000000004,4.4717703,-0.30253512,-0.14487597,-1.2708606000000002,-4.2,68.04,8.22
1554103670333,8.805874000000001,-3.481768,4.280234,-0.29933932,-0.094808534,-1.1888351000000001,-5.22,67.8,8.4
1554103670352,8.791509,-3.5296519,4.2945995,-0.3153183,-0.054328485999999995,-1.1174624,-5.76,67.68,8.46
1554103670373,8.959103,-3.7116113,4.2131963,-0.35260254,0.002130529,-0.99708754,-6.84,67.2,8.7
1554103670393,8.7532015,-3.840898,4.1413703,-0.37071204,0.10546118,-0.79894835,-8.16,66.24,9.12
1554103670413,8.767567,-3.7307648999999996,4.2036195,-0.38775626,0.1768339,-0.62531024,-9.0,65.7,9.42
1554103670433,8.499416,-3.6541502,3.8732197,-0.41119209999999995,0.221575,-0.43782368,-9.78,65.16,9.66
1554103670453,8.48984,-3.6637269999999997,3.8588544999999996,-0.41971418,0.24714136,-0.25566345,-10.56,64.62,9.9
1554103670473,8.437167,-3.481768,3.7774517999999997,-0.40373522,0.26631612,-0.10439592,-11.22,64.14,10.08
1554103670493,8.283937,-3.4578260000000003,3.5045127999999997,-0.3536678,0.28229508,0.07243799,-11.7,63.6,10.2
1554103670513,8.212111,-3.3812113,3.5763388,-0.31318775,0.28655612,0.18429075,-12.06,63.18,10.32
1554103670533,8.240842,-3.2710779999999997,3.54282,-0.27483824,0.27164245,0.24607609,-12.42,63.06,10.38
1554103670560,8.192958,-3.2758665000000002,3.6721067,-0.26205507,0.26418558,0.26205507,-12.42,63.06,10.38
1554103670573,8.231264999999999,-3.2040405,3.3991678,-0.15446335,0.20879184,0.35899413,-12.6,63.06,10.44
1554103670596,8.394072,-3.1465794999999996,3.6481647000000006,0.0063915867,0.13635385,0.44954160000000004,-12.84,62.94,10.5
1554103670613,8.542512,-3.0747535,3.1070752,0.05006743,0.10865697,0.515588,-12.9,63.0,10.56
1554103670632,8.767567,-2.9406781000000004,3.3273417999999997,0.08522116,0.10013486,0.572047,-12.72,63.06,10.62
1554103670652,8.6813755,-2.7252002,3.3273417999999997,0.11717909,0.07030745599999999,0.6295713000000001,-12.48,63.12,10.68
1554103670673,8.781932000000001,-2.7539306,3.2890346,0.098004326,0.008522116,0.69348717,-12.24,63.24,10.74
1554103670692,8.767567,-2.6629508,3.4901476000000002,0.09161274,-0.04580637,0.75420725,-11.94,63.36,10.74
1554103670713,8.7053175,-2.4762032000000005,3.5715504,0.13848437,-0.083090626,0.78723043,-11.58,63.48,10.74
1554103670733,8.647857,-2.4331074,3.6050692000000004,0.16937704,-0.08522116,0.81066626,-11.16,63.72,10.74
1554103670753,8.556877,-2.5192987999999996,3.6577415,0.19920446,-0.07669904,0.8245146999999999,-10.68,64.02,10.74
1554103670773,8.298303,-2.3133974,3.6290112,0.21624869,-0.07563378,0.7882956999999999,-10.2,64.38,10.74
1554103670792,8.164227499999999,-2.2559366,3.696049,0.19920446,-0.112918034,0.7339671999999999,-9.78,64.8,10.74
1554103670812,8.058883,-2.15538,3.8013937000000007,0.15659387,-0.17257284,0.6583334,-9.3,65.16,10.74
1554103670834,8.106767,-2.1936872000000003,3.5811272000000005,0.13528858,-0.23435818,0.5518069999999999,-8.76,65.58,10.74
1554103670854,8.331821000000001,-2.3038206000000003,3.6864722000000003,0.13954964,-0.25885928,0.4261058,-8.28,65.94,10.74
1554103670874,8.298303,-2.2511482000000003,3.7535098,0.17789917,-0.26844665,0.29188246,-7.8,66.42,10.74
1554103670896,8.341399000000001,-2.2415714,3.8588544999999996,0.23861924,-0.27057716,0.12037488,-7.08,66.96,10.74
1554103670913,8.346188,-2.260725,3.9306807999999998,0.2609898,-0.26844665,0.020240024,-6.9,67.14,10.74
1554103670932,8.374918,-2.2655133999999997,3.887585,0.24607609,-0.26418558,-0.08948222,-6.48,67.32,10.8
1554103670952,8.480263,-2.131438,3.6816837999999996,0.18216023,-0.257794,-0.17470337,-6.18,67.5,10.8
1554103670973,8.614338,-2.1266496,3.743933,0.083090626,-0.23968449999999997,-0.25140239999999997,-5.94,67.68,10.8
1554103670993,8.714894000000001,-2.2511482000000003,3.8109705000000003,-0.039414786,-0.20772657,-0.3153183,-5.76,67.86,10.8
1554103671013,8.585608,-2.2894554,3.7822402000000004,-0.18429075,-0.19707392,-0.39627838,-5.58,68.04,10.8
1554103671033,8.39886,-2.2894554,3.7774517999999997,-0.2428803,-0.2034655,-0.45380265,-5.58,68.04,10.86
1554103671053,8.259995,-2.2942438,3.6816837999999996,-0.26418558,-0.20879184,-0.49747851,-5.58,68.1,10.86
1554103671072,8.264783999999999,-2.3852234,3.5811272000000005,-0.29294774,-0.20453078,-0.55606806,-5.64,68.04,10.8
1554103671092,8.322245,-2.461838,3.4662056000000003,-0.3057309,-0.2034655,-0.59228706,-5.64,68.04,10.8
1554103671113,8.825027,-2.6964695,3.4518404,-0.31957933,-0.21411815,-0.664725,-6.0,67.92,10.8
1554103671132,9.308656,-2.8401217,3.447052,-0.30040458,-0.23435818,-0.7488809000000001,-6.24,67.86,10.86
1554103671153,9.821015,-2.902371,3.4662056000000003,-0.2609898,-0.26844665,-0.8447546999999999,-6.54,67.86,10.92
1554103671173,9.964667,-2.9885623,3.5284547999999996,-0.20240025,-0.30786142,-0.9129315999999998,-6.96,67.74,10.92
1554103671193,9.854534,-3.1322143,3.5236663999999998,-0.11504856,-0.32810146,-0.9374326999999999,-7.44,67.56,10.98
1554103671212,9.701305,-3.2471360000000002,3.8157589999999995,0.008522116,-0.33768883,-0.9289106,-8.04,67.32,11.04
1554103671232,9.380483,-3.2184057,3.9402574999999995,0.19174760000000002,-0.314253,-0.8863,-8.7,67.02,11.1
1554103671252,9.045294,-3.2231941,4.0264487,0.36751625,-0.28336033,-0.8117314999999999,-9.36,66.66,11.1
1554103671273,8.848969,-3.127426,3.9163153,0.46871635,-0.24394555,-0.7254451,-10.02,66.24,11.16
1554103671293,8.772355000000001,-3.0747535,3.7774517999999997,0.4878911,-0.19813919,-0.6487460999999999,-10.62,65.64,11.16
1554103671313,8.686164,-3.007716,3.8397010000000003,0.45699844,-0.13954964,-0.57417756,-11.16,65.1,11.16
1554103671332,8.51857,-3.117849,3.4231097999999998,0.38242993,-0.096939065,-0.50600064,-11.64,64.62,11.16
1554103671353,8.580819,-3.0891187,3.4183214,0.2908172,-0.05219796,-0.43782368,-12.06,64.2,11.22
1554103671372,8.734048,-3.0651767000000003,3.1693244,0.24820662,-0.014913702,-0.37284255,-12.36,63.78,11.22
1554103671392,8.652645,-3.0747535,3.2124202,0.21731395,0.017044231,-0.28655612,-12.66,63.54,11.16
1554103671413,8.6334915,-3.0891187,3.3273417999999997,0.24074976,0.03195793,-0.14168017,-12.84,63.24,11.16
1554103671432,8.671799,-3.0747535,3.4614172,0.294013,0.026631612000000002,-0.00958738,-13.02,63.06,11.04
1554103671453,8.748413000000001,-2.9837740000000004,3.2986114,0.3536678,0.017044231,0.094808534,-13.26,62.94,10.86
1554103671473,8.786719999999999,-2.9311013,3.1836896,0.44208476,0.013848438000000001,0.24181503,-13.5,62.76,10.62
1554103671492,8.834603999999999,-2.806603,3.164536,0.5134575,0.025566347000000003,0.3898868,-13.68,62.64,10.38
1554103671514,8.805874000000001,-2.6485856,3.164536,0.5571333,0.046871635999999994,0.567786,-13.86,62.46,10.08
1554103671532,8.892064999999999,-2.629432,3.2172085999999998,0.5773733,0.07350325,0.680704,-13.92,62.28,9.72
1554103671552,8.781932000000001,-2.3995886000000004,3.09271,0.5933523,0.10333065,0.76272935,-13.92,62.16,9.36
1554103671572,8.920795,-2.4809916000000003,3.2746694,0.6061354999999999,0.12357068,0.8149273,-13.68,62.04,9.0
1554103671593,8.939949,-2.3708582000000002,3.3943794,0.6199839,0.13954964,0.85540736,-13.32,62.04,8.76
1554103671612,9.11712,-2.3277626000000002,3.3512837999999996,0.6306366,0.16192019,0.8852348,-12.84,62.16,8.52
1554103671632,8.987833,-2.2559366,3.2746694,0.59122175,0.2034655,0.8969527,-12.36,62.34,8.22
1554103671653,8.930372,-2.1505916000000003,3.2076318,0.5251754,0.23755397,0.9076053,-11.88,62.64,7.98
1554103671673,8.911219000000001,-2.0739772000000003,3.2698810000000003,0.43462790000000007,0.24927188,0.91825795,-11.34,63.0,7.74
1554103671693,8.930372,-2.0787656,3.2172085999999998,0.3291667,0.24074976,0.92997587,-10.86,63.36,7.38
1554103671712,8.868122999999999,-2.2080526000000003,3.1741127999999996,0.26525086,0.2428803,0.9289106,-10.32,63.78,7.08
1554103671732,9.002198,-2.0404584,3.0831332000000002,0.24501082,0.25353295,0.9033443000000001,-9.84,64.2,6.78
1554103671752,8.930372,-1.9303252,3.3895910000000002,0.22903186,0.25033715,0.87564737,-9.24,64.56,6.48
1554103671773,9.078813,-2.1505916000000003,3.0160956000000003,0.22264028,0.22477080000000002,0.83516735,-8.7,64.92,6.12
1554103671793,8.8777,-2.0404584,3.1501707999999997,0.21944448,0.2066613,0.77125144,-8.1,65.28,5.82
1554103671813,8.930372,-2.0404584,3.1836896,0.21837921,0.17044231,0.72437984,-7.44,65.58,5.52
1554103671833,8.853758000000001,-1.9494787,3.1597476,0.221575,0.15020229,0.6562029,-6.72,65.76,5.28
1554103671853,8.810661999999999,-1.9111716,3.1214404,0.22903186,0.12996227,0.60080916,-5.94,66.0,5.16
1554103671872,8.829816000000001,-2.0883423999999997,3.1501707999999997,0.22370553,0.12463594,0.531567,-5.22,66.24,5.04
1554103671892,8.662222,-1.9686323000000001,3.317765,0.21731395,0.12037488,0.44634579999999996,-4.62,66.42,4.98
1554103671913,8.6574335,-2.0213048,3.1022868,0.19174760000000002,0.07243799,0.35899413,-3.96,66.66,4.86
1554103671933,8.552089,-1.9063831999999998,3.1549592,0.14807177,0.04261058,0.29188246,-3.72,66.72,4.8
1554103671953,8.51857,-1.8920178,3.1884782000000005,0.06285059999999999,-0.002130529,0.19068234,-3.36,66.84,4.8
1554103671972,8.461109,-1.9015948,3.1693244,-0.037284255,-0.035153727999999995,0.082025364,-2.94,66.9,4.74
1554103671993,8.394072,-1.9877859,3.1214404,-0.13422333,-0.07989483,-0.080960095,-2.52,67.02,4.68
1554103672013,8.303091,-2.1266496,3.1549592,-0.22903186,-0.099069595,-0.23009712,-2.34,67.08,4.62
1554103672032,8.408437,-2.0260932,3.2076318,-0.27057716,-0.11611383,-0.39095205,-2.16,67.2,4.56
1554103672052,8.427589999999999,-2.1266496,3.1932666000000003,-0.28975195,-0.13741912,-0.5390238,-2.04,67.26,4.5
1554103672072,8.475474,-2.308609,3.2267854,-0.28975195,-0.17044231,-0.680704,-1.92,67.32,4.44
1554103672092,8.7292595,-2.5384523999999997,3.5093012000000003,-0.27483824,-0.20026971,-0.8064051999999999,-1.86,67.38,4.38
1554103672113,8.920795,-2.5192987999999996,3.6098576,-0.24074976,-0.22583607,-0.92038846,-1.92,67.38,4.38
1554103672133,9.169792,-2.7204118,3.5811272000000005,-0.21518342,-0.24394555,-0.98110855,-2.22,67.38,4.38
1554103672152,9.217675999999999,-2.6485856,3.5715504,-0.14913702,-0.257794,-1.0141318000000001,-2.58,67.38,4.44
1554103672172,9.452309,-2.533664,3.3752258,-0.12357068,-0.2545982,-1.0333065000000001,-3.06,67.26,4.62
1554103672193,9.476251,-2.5719712,3.54282,-0.2066613,-0.1949434,-0.97258645,-3.54,67.14,4.86
1554103672212,9.404425,-2.8880057,3.5811272000000005,-0.25885928,-0.18535602,-0.87032104,-4.14,66.96,5.04
1554103672232,9.227253,-2.6916811000000003,3.341707,-0.27057716,-0.15339808,-0.79042625,-4.86,66.72,5.22
1554103672252,8.920795,-2.5240872000000003,3.2076318,-0.36432046,-0.13635385,-0.7190535,-5.64,66.48,5.4
1554103672273,8.738836000000001,-2.2655133999999997,2.843713,-0.5028047999999999,-0.096939065,-0.6689861,-6.36,66.24,5.52
1554103672292,8.767567,-2.5911248,2.8868085999999997,-0.67963874,-0.043675844000000005,-0.628506,-6.9,66.0,5.7
1554103672313,8.580819,-2.8401217,3.3752258,-0.7701861999999999,-0.018109497,-0.64555025,-7.32,65.82,5.76
1554103672333,8.470686,-2.9981391,3.1932666000000003,-0.7797736,-0.06285059999999999,-0.7222493000000001,-7.8,65.64,5.82
1554103672352,8.523358,-3.1609447,3.116652,-0.7840345999999999,-0.111852765,-0.7946873000000001,-8.22,65.46,5.94
1554103672372,8.585608,-3.031658,2.9969419999999998,-0.773382,-0.1587244,-0.92997587,-8.64,65.34,6.12
1554103672393,8.585608,-3.1848867000000003,3.2124202,-0.76059884,-0.16298546,-1.0088054,-9.06,65.34,6.48
1554103672413,8.714894000000001,-3.615843,3.3081882000000005,-0.66152924,-0.17257284,-0.9768475000000001,-9.42,65.28,6.84
1554103672433,8.714894000000001,-3.7594953,3.6768951000000003,-0.54648066,-0.1470065,-0.91612744,-9.78,65.22,7.26
1554103672453,9.006986999999999,-3.5679589999999997,3.6529531000000004,-0.33662358,-0.13635385,-0.79894835,-10.2,65.04,7.68
1554103672472,9.141062,-3.3381157,3.3608606,-0.23009712,-0.128897,-0.62317973,-10.56,64.8,8.16
1554103672492,9.294291000000001,-3.5871127,3.4422636,-0.20879184,-0.12250541,-0.41545314,-11.1,64.5,8.64
1554103672513,9.299078999999999,-3.7116113,3.7582982000000005,-0.17896444,-0.098004326,-0.17150758,-11.82,64.14,9.06
1554103672533,9.193734,-3.6876693,3.6002807999999997,-0.060720075,-0.06285059999999999,0.05752428,-12.42,63.72,9.36
1554103672553,9.021352,-3.3572693,3.6673183,0.04261058,-0.025566347000000003,0.2609898,-12.9,63.24,9.54
1554103672573,8.834603999999999,-3.103484,3.4662056000000003,0.11824436,-0.0063915867,0.43569317,-13.32,62.88,9.72
1554103672593,8.820239,-3.1465794999999996,3.5523968,0.1768339,0.01917476,0.5795039000000001,-13.68,62.52,9.84
1554103672613,8.748413000000001,-3.1992521000000003,3.5859156000000003,0.314253,0.040480047000000005,0.67963874,-13.98,62.22,9.96
1554103672633,8.882488,-2.8688521000000002,3.365649,0.46019423,0.043675844000000005,0.737163,-14.16,62.1,10.02
1554103672653,8.930372,-2.7252002,3.4183214,0.50387007,0.058589544,0.74035877,-14.16,62.1,10.08
1554103672672,9.050082000000002,-2.6007016,3.4039562000000005,0.5613944000000001,0.08841695,0.76912093,-13.86,62.28,10.2
1554103672692,8.8777,-2.3660697999999996,3.0544027999999996,0.5368933000000001,0.10439592,0.7435546,-13.56,62.52,10.2
1554103672713,8.920795,-2.3373394,3.2794578000000003,0.5006742999999999,0.11717909,0.72437984,-13.2,62.76,10.2
1554103672732,8.772355000000001,-2.2990322,2.8963853999999998,0.43462790000000007,0.10439592,0.7286409,-12.84,63.12,10.2
1554103672753,8.791509,-2.2655133999999997,2.9873652,0.36218992,0.07989483,0.7275756,-12.42,63.48,10.14
1554103672773,8.892064999999999,-2.0644004000000002,2.795829,0.27803403,0.09587380000000001,0.7052050999999999,-11.94,63.84,10.02
1554103672793,8.916007,-2.0979192,2.8628666000000003,0.19707392,0.111852765,0.6860303000000001,-11.46,64.26,9.84
1554103672812,9.059659,-2.2655133999999997,2.949058,0.1587244,0.11824436,0.65194184,-10.92,64.56,9.54
1554103672833,9.002198,-2.1936872000000003,2.8820202,0.17576863,0.14061491,0.54435015,-10.14,64.98,9.06
1554103672852,8.987833,-2.2415714,2.7335799,0.1949434,0.13422333,0.49428272,-9.9,65.1,8.88
1554103672872,8.954314,-1.9494787,2.6426,0.18216023,0.14913702,0.39947417,-9.42,65.34,8.64
1554103672893,8.805874000000001,-2.0308816000000003,3.020884,0.09054748,0.15020229,0.2972088,-8.64,65.64,8.22
1554103672912,8.844180999999999,-2.03567,2.8772318,0.05219796,0.11717909,0.25353295,-8.4,65.76,8.16
1554103672932,8.781932000000001,-1.8058267,2.8006175,-0.012783173500000002,0.07350325,0.13954964,-7.86,66.06,7.86
1554103672952,8.839393,-1.8632874,2.7144263,-0.07776430000000001,0.015978966,0.060720075,-7.56,66.24,7.8
1554103672972,8.911219000000001,-2.0069396,2.7096379,-0.12996227,-0.03834952,-0.008522116,-7.26,66.36,7.74
1554103672993,8.887277000000001,-2.1410147999999998,3.1214404,-0.11824436,-0.047936900000000005,-0.10652645,-6.9,66.48,7.74
1554103673013,8.767567,-2.2703017999999995,3.4422636,-0.05006743,-0.05006743,-0.19068234,-6.6,66.6,7.68
1554103673033,8.743625,-2.236783,3.3464954,0.022370555,-0.06178534,-0.22796659,-6.36,66.72,7.68
1554103673054,8.432379,-1.9351135,2.8149827000000003,-0.029827405,-0.10546118,-0.32277513,-6.18,66.84,7.62
1554103673073,8.7532015,-1.9829974999999997,3.2650926,-0.15020229,-0.10865697,-0.40053943,-6.0,66.9,7.56
1554103673092,8.662222,-2.3133974,3.8684312999999997,-0.11611383,-0.08735169,-0.46978164,-5.94,66.96,7.62
1554103673113,8.820239,-2.4283189999999997,3.5140896,-0.008522116,-0.10226539,-0.5550028,-5.94,66.96,7.62
1554103673132,8.968679,-2.5288756,3.494936,-0.010652645,-0.12996227,-0.66365975,-6.0,66.96,7.62
1554103673152,9.021352,-2.4187422,3.4805707999999997,-0.0063915867,-0.1438107,-0.716923,-6.24,66.96,7.68
1554103673174,9.088389,-2.4426842,3.4805707999999997,-0.046871635999999994,-0.13635385,-0.76912093,-6.54,66.96,7.68
1554103673196,9.011775,-2.4905684,3.3895910000000002,-0.098004326,-0.11930962,-0.76059884,-6.84,66.9,7.74
1554103673213,8.887277000000001,-2.461838,3.7343562000000006,-0.14594123,-0.09161274,-0.737163,-7.2,66.84,7.74
1554103673232,8.901641999999999,-2.6150667999999997,3.4231097999999998,-0.20879184,-0.094808534,-0.67537767,-7.62,66.6,7.74
1554103673253,9.035717,-2.6102784,3.2124202,-0.2727077,-0.06498113,-0.5933523,-8.04,66.24,7.68
1554103673272,8.848969,-2.7252002,3.3273417999999997,-0.28549087,-0.008522116,-0.5294364,-8.64,65.88,7.68
1554103673293,8.930372,-2.8161798,3.198055,-0.27483824,0.020240024,-0.45912898,-9.24,65.46,7.68
1554103673312,8.978256,-2.7204118,3.2363622000000003,-0.25566345,0.060720075,-0.38882150000000004,-9.78,64.98,7.8
1554103673332,8.829816000000001,-2.8209682000000003,3.2028434,-0.23329292,0.08628642,-0.32384038,-10.2,64.44,7.92
1554103673353,8.667010000000001,-2.8592752999999997,3.1358056,-0.21092236,0.09267801,-0.25672874,-10.62,63.9,8.04
1554103673372,8.7532015,-2.959832,3.1501707999999997,-0.18216023,0.084155895,-0.21092236,-10.98,63.36,8.16
1554103673393,8.848969,-2.8832173,3.1597476,-0.14061491,0.07456851,-0.15978967,-11.34,63.0,8.34
1554103673412,8.743625,-2.6916811000000003,3.2124202,-0.12037488,0.07776430000000001,-0.10652645,-11.7,62.76,8.46
1554103673432,8.7292595,-2.8496985,3.365649,-0.07030745599999999,0.06924219,-0.04261058,-11.82,62.52,8.64
1554103673453,8.820239,-2.8832173,3.566762,0.040480047000000005,0.043675844000000005,0.039414786,-11.88,62.34,8.7
1554103673473,9.02614,-2.8880057,3.2555158,0.17470337,0.008522116,0.07989483,-12.0,62.22,8.76
1554103673492,8.920795,-2.7204118,3.470994,0.26844665,0.0053263223,0.12463594,-12.12,62.1,8.7
1554103673512,8.987833,-2.7060466,3.4183214,0.39201729999999996,0.0063915867,0.20453078,-12.24,62.04,8.7
1554103673533,8.916007,-2.6390088,3.3081882000000005,0.44315,0.02130529,0.23329292,-12.3,61.98,8.64
1554103673552,8.7532015,-2.4809916000000003,3.2890346,0.44954160000000004,0.035153727999999995,0.3153183,-12.3,61.92,8.64
1554103673572,8.805874000000001,-2.48578,3.3704373999999997,0.42717105,0.043675844000000005,0.37710363,-12.24,61.86,8.58
1554103673593,8.920795,-2.0452468,3.020884,0.3536678,0.056459017,0.4261058,-12.12,61.8,8.52
1554103673612,8.992621,-1.8632874,2.9203273999999997,0.18642128,0.08948222,0.43995422,-11.88,61.8,8.46
1554103673633,9.083601,-1.762731,2.9730000000000003,-0.053263225,0.15446335,0.47723848,-11.64,61.8,8.4
1554103673652,9.078813,-1.9303252,3.3800142,-0.24714136,0.2066613,0.46871635,-11.46,61.86,8.28
1554103673672,8.892064999999999,-2.48578,3.9785647000000006,-0.221575,0.21092236,0.46552056,-11.22,61.98,8.16
1554103673692,8.6574335,-2.581548,3.767875,-0.008522116,0.18961707,0.45486793,-10.98,62.22,8.04
1554103673713,8.762777999999999,-2.2798786,3.2507273999999997,0.16937704,0.12570119999999999,0.4261058,-10.8,62.52,7.92
1554103673732,8.925583999999999,-2.0931308,3.3369186,0.25885928,0.12463594,0.39734364,-10.5,62.82,7.8
1554103673753,8.99741,-1.9925743000000002,3.5523968,0.25566345,0.15233281,0.3653857,-10.08,63.24,7.74
1554103673773,8.647857,-2.1888987999999996,4.208408,0.31318775,0.18109496,0.294013,-9.72,63.6,7.68
1554103673792,8.710106,-2.0500352,3.6433763999999997,0.39734364,0.17150758,0.21731395,-9.36,64.02,7.62
1554103673812,8.576031,-1.8537107,3.4326867999999995,0.3270362,0.1587244,0.11717909,-9.0,64.5,7.56
1554103673833,8.580819,-1.9829974999999997,3.5332432000000003,0.15339808,0.16192019,0.027696876000000002,-8.58,64.92,7.44
1554103673853,8.303091,-2.0452468,4.016872,-0.02876214,0.17896444,-0.046871635999999994,-8.22,65.34,7.38
1554103673872,8.51857,-2.0979192,3.7822402000000004,-0.15233281,0.15659387,-0.099069595,-7.92,65.64,7.26
1554103673892,8.307879,-2.0308816000000003,4.222773,-0.18642128,0.15765914,-0.19387813,-7.68,65.88,7.14
1554103673912,8.394072,-2.2703017999999995,4.0360255,-0.19281286,0.10972224,-0.23009712,-7.62,66.06,7.02
1554103673933,8.643068,-2.4331074,3.6768951000000003,-0.10439592,0.046871635999999994,-0.27696875,-7.56,66.12,6.96
1554103673953,8.623915,-2.533664,3.9546227,0.025566347000000003,0.05752428,-0.3270362,-7.56,66.24,6.84
1554103673972,8.542512,-2.4905684,4.1796775,0.20240025,0.060720075,-0.3291667,-7.5,66.24,6.78
1554103673993,8.331821000000001,-2.4809916000000003,3.9163153,0.2545982,0.011717908999999999,-0.31105720000000003,-7.5,66.18,6.78
1554103674014,8.576031,-2.3995886000000004,3.9067385000000003,0.1949434,-0.06285059999999999,-0.27590349999999997,-7.44,66.18,6.72
1554103674032,9.030928999999999,-2.7156234,3.5093012000000003,0.10439592,-0.13528858,-0.27590349999999997,-7.44,66.12,6.72
1554103674053,9.3421755,-2.830545,3.2650926,0.024501082,-0.14807177,-0.3153183,-7.44,66.06,6.66
1554103674073,8.858546,-2.4809916000000003,3.7104141999999998,0.08841695,-0.07669904,-0.31957933,-7.5,66.0,6.6
1554103674092,8.7292595,-2.0213048,3.3991678,0.18855181,-0.06285059999999999,-0.30040458,-7.62,65.88,6.54
1554103674112,8.892064999999999,-2.1649568,2.9299042,0.20133498,-0.03834952,-0.24501082,-7.74,65.76,6.48
1554103674133,8.714894000000001,-2.2942438,2.594716,0.18642128,-0.017044231,-0.18322548,-7.92,65.58,6.42
1554103674152,8.944737,-2.3133974,3.0400376000000002,0.14913702,-0.0053263223,-0.046871635999999994,-8.1,65.4,6.3
