TimeStamp,Ax,Ay,Az,Gx,Gy,Gz,Mx,My,Mz
1554102927270,-4.4149080000000005,-1.4706384,8.139688,-0.5539375,0.1949434,0.50600064,20.1,-28.92,-14.7
1554102927289,-4.4005427,-0.8242039000000001,7.29214,-0.38775626,0.034088463,0.46125950000000004,20.22,-28.5,-14.7
1554102927310,-4.209007,-0.7188591,7.4070616,-0.46978164,-0.05539375,0.41545314,20.22,-28.08,-14.76
1554102927329,-4.0222587999999995,-0.9103952,8.10138,-0.64768076,-0.080960095,0.38349520000000004,20.22,-27.72,-14.82
1554102927350,-3.8929720000000003,-0.6853402,8.55149,-0.8522116,-0.10865697,0.35260254,20.22,-27.42,-14.94
1554102927370,-3.6535518,-0.14425065,7.531560000000001,-1.2271847,-0.19813919,0.26844665,20.22,-27.18,-15.12
1554102927389,-3.2752678,0.05686229,6.870760400000001,-1.9696740000000001,-0.24074976,0.15659387,20.16,-26.82,-15.36
1554102927410,-2.8538885,-1.1737574,6.669647,-2.8112328,-0.19600865,0.09054748,20.1,-26.28,-15.66
1554102927429,-2.8682537,-2.7682957999999998,7.454945599999999,-3.4216294,-0.053263225,0.12783173,19.92,-25.56,-16.08
1554102927450,-3.3901896000000002,-4.2814309999999995,8.177995,-3.5878108,0.010652645,0.21837921,19.62,-24.48,-16.74
1554102927469,-3.4859576,-5.105036699999999,7.9002669999999995,-3.3587787000000002,-0.013848438000000001,0.16831179,19.38,-23.16,-17.58
1554102927489,-3.1364042999999997,-5.7418942,7.7709804,-2.7814054,0.00958738,-0.07456851,19.14,-21.3,-18.66
1554102927510,-3.4572272000000006,-6.239888,7.890690299999999,-1.6117451,-0.046871635999999994,-0.12570119999999999,18.9,-19.14,-19.8
1554102927529,-3.4284968,-6.2351,8.149264,-0.77231675,-0.098004326,-0.06178534,18.66,-16.8,-20.88
1554102927549,-3.7301662,-6.345233,7.967304700000001,0.21624869,-0.16937704,-0.020240024,18.42,-14.34,-21.96
1554102927571,-3.9408559999999997,-6.0244102,7.713519,0.91186637,-0.26525086,0.013848438000000001,18.24,-12.12,-22.92
1554102927590,-4.074930999999999,-5.521628,7.9625163,1.1046791999999999,-0.29614353,0.098004326,18.24,-10.26,-23.7
1554102927609,-3.9791632000000003,-4.8895583,8.034343,1.2314457,-0.33449304,0.17150758,18.24,-8.82,-24.3
1554102927630,-4.0509889999999995,-4.3676224,7.5411367,1.220793,-0.39521313,0.18002969,18.24,-7.8,-24.66
1554102927649,-3.7062242,-4.1282024,7.555502000000001,0.9938916999999999,-0.39201729999999996,0.19707392,18.24,-7.5,-24.78
1554102927669,-3.4284968,-4.0084919999999995,8.063073,0.7957525,-0.3291667,0.25033715,18.24,-7.74,-24.78
1554102927689,-3.4859576,-4.2718544000000005,8.3312235,0.8064051999999999,-0.28975195,0.28229508,18.18,-8.4,-24.72
1554102927710,-3.3327288999999998,-3.9989154,8.407838,0.8905610999999999,-0.20026971,0.3057309,18.0,-9.42,-24.72
1554102927729,-3.3087866000000004,-3.6062663,8.398261,1.1345067,-0.15978967,0.25246766,17.82,-10.44,-24.66
1554102927750,-3.4332852,-3.151368,7.8475947,1.2751216,-0.12676647,0.16085494,17.52,-11.64,-24.54
1554102927770,-3.4237084,-3.1226375,7.9098440000000005,1.257012,-0.049002163,0.15659387,17.22,-12.9,-24.42
1554102927789,-3.5434184,-3.1753099999999996,8.19236,1.3283848,-0.025566347000000003,0.21092236,16.98,-14.16,-24.24
1554102927810,-3.5625722,-2.6964695,8.379107000000001,1.4093448999999998,-0.054328485999999995,0.19707392,16.62,-15.42,-23.94
1554102927829,-3.5913025999999997,-2.1362264,7.948150999999999,1.3933659,-0.053263225,0.14594123,16.38,-16.68,-23.64
1554102927852,-3.4524388,-1.834557,7.785345599999999,1.0748518999999999,-0.01917476,0.16831179,16.02,-18.48,-23.16
1554102927869,-3.241749,-1.7435773999999997,7.9194207,0.8404937,-0.004261058,0.18535602,15.9,-19.14,-22.92
1554102927889,-3.2034418999999996,-1.738789,8.321647,0.6444850000000001,-0.0010652645,0.14487597,15.78,-20.52,-22.5
1554102927910,-3.4524388,-1.6669630000000002,8.173206,0.51452273,-0.013848438000000001,0.11504856,15.66,-21.78,-21.96
1554102927929,-3.1603463,-1.4227544,8.503606,0.29827404,0.041545313,0.12570119999999999,15.54,-22.98,-21.48
1554102927950,-3.0789435000000003,-1.4945803999999998,8.503606,0.083090626,0.094808534,0.10546118,15.36,-24.06,-21.06
1554102927970,-3.0741549999999997,-1.1641805,8.647258,-0.07030745599999999,0.10865697,0.1107875,15.24,-25.26,-20.58
1554102927989,-3.4763808,-1.0205284,8.69993,-0.11611383,0.12250541,0.03834952,15.18,-25.56,-20.46
1554102928010,-3.4715924,-1.4945803999999998,8.877101,-0.3174488,0.15339808,0.049002163,15.0,-26.22,-20.16
1554102928029,-3.1603463,-1.6861166,8.781333,-0.40266997,0.15765914,0.027696876000000002,15.0,-26.34,-20.1
1554102928049,-3.5577837999999997,-1.7962499,8.474875,-0.34940675,0.17576863,-0.014913702,14.88,-26.46,-19.98
1554102928070,-3.5146879999999996,-1.1546037,8.426991000000001,-0.14807177,0.007456851,-0.053263225,14.76,-26.52,-20.1
1554102928090,-3.3279405,-1.5233108,8.886678,-0.23861924,0.07882957,-0.08841695,14.7,-26.52,-20.1
1554102928110,-3.3279405,-2.1745335999999997,9.370307,-0.33981937,0.1470065,-0.014913702,14.64,-26.58,-20.16
1554102928129,-4.0701427,-2.5480292,9.341577000000001,-0.30786142,0.1107875,0.025566347000000003,14.58,-26.52,-20.16
1554102928150,-3.9600096,-2.1218612,8.877101,-0.22264028,0.03834952,0.06285059999999999,14.52,-26.52,-20.22
1554102928169,-3.7541082,-1.6334441000000002,8.010401,-0.35260254,0.05539375,0.046871635999999994,14.52,-26.4,-20.28
1554102928190,-3.6200330000000003,-2.3995886000000004,9.6049385,-0.5209143,0.14274544,0.12250541,14.52,-26.34,-20.4
1554102928209,-3.8594532,-2.7778726000000002,9.375095,-0.30786142,0.18322548,0.14274544,14.58,-26.22,-20.52
1554102928230,-3.9647980000000005,-2.3133974,8.450933000000001,-0.02876214,0.16085494,0.08735169,14.64,-26.04,-20.64
1554102928249,-3.7732617999999993,-1.762731,8.273763,-0.012783173500000002,0.14168017,0.094808534,14.64,-25.8,-20.76
1554102928270,-3.916914,-1.8154035,7.852383000000001,-0.07137272,0.083090626,0.1107875,14.7,-25.62,-20.82
1554102928290,-3.9839516,-2.0069396,7.9625163,-0.08628642,-0.004261058,0.15552860000000002,14.76,-25.44,-20.94
1554102928310,-3.6391866000000004,-2.3181857999999997,8.508394000000001,0.023435817999999997,-0.06391586,0.128897,14.76,-25.2,-21.0
1554102928329,-3.4284968,-2.2655133999999997,8.987235,0.19174760000000002,-0.06604639400000001,0.049002163,14.82,-25.08,-21.12
1554102928350,-3.5482068,-2.0117279999999997,8.498816999999999,0.3334278,-0.10546118,0.05752428,14.82,-24.9,-21.12
1554102928370,-3.7493198,-1.6238673000000001,7.9098440000000005,0.314253,-0.15339808,0.04474111,14.82,-24.78,-21.12
1554102928389,-3.7972038,-1.7962499,8.07265,0.15339808,-0.16192019,0.03834952,14.82,-24.78,-21.12
1554102928409,-3.5482068,-2.2511482000000003,8.81964,0.09161274,-0.13954964,0.09267801,14.82,-24.9,-21.12
1554102928431,-3.5721489999999996,-2.7347770000000002,9.106945,0.11504856,-0.07350325,0.08735169,14.82,-24.96,-21.12
1554102928450,-3.7876269999999996,-2.533664,8.766967999999999,0.14168017,-0.07243799,0.098004326,14.76,-25.08,-21.12
1554102928469,-3.8402996,-2.1984756,8.43178,0.2034655,-0.033023197000000004,0.10972224,14.7,-25.26,-21.12
1554102928490,-3.7732617999999993,-1.9686323000000001,8.484452000000001,0.25033715,-0.022370555,0.10652645,14.7,-25.38,-21.12
1554102928510,-3.7828386,-1.7244238,8.580219999999999,0.20772657,-0.00958738,0.12144015,14.64,-25.5,-21.06
1554102928529,-3.9983168,-1.7435773999999997,8.383896,0.12676647,0.02876214,0.12144015,14.58,-25.68,-21.06
1554102928550,-3.8450879999999996,-1.5041572,8.201937,0.112918034,-0.0063915867,0.1107875,14.52,-25.86,-21.06
1554102928570,-3.5051112,-1.3844471,8.278551,0.19281286,-0.06924219,0.04580637,14.46,-26.1,-21.06
1554102928589,-3.4332852,-1.5664065,8.503606,0.17896444,-0.051132694000000006,0.0010652645,14.4,-26.4,-21.0
1554102928609,-3.3806129,-1.417966,8.374319,0.16085494,-0.07243799,0.0031957934000000003,14.34,-26.7,-21.0
1554102928630,-3.4811692,-1.2360066,8.3312235,0.094808534,-0.07243799,-0.07456851,14.22,-27.0,-21.0
1554102928649,-3.5051112,-1.3892354999999998,8.594585,-0.03089267,-0.05006743,-0.06498113,14.1,-27.24,-20.94
1554102928670,-3.7158010000000004,-1.5807717,8.766967999999999,-0.13848437,0.0053263223,-0.03089267,13.86,-27.42,-20.94
1554102928690,-3.7636849999999997,-2.03567,8.924985000000001,-0.12783173,0.034088463,-0.015978966,13.68,-27.66,-20.88
1554102928710,-3.7205894,-1.8393455,8.55149,0.04474111,-0.0010652645,-0.06391586,13.56,-27.78,-20.82
1554102928729,-3.6248214,-1.6334441000000002,8.297705,0.10865697,-0.041545313,-0.08628642,13.44,-27.78,-20.76
1554102928749,-3.6008794,-1.7196354,8.776545,0.054328485999999995,-0.034088463,-0.04474111,13.44,-27.72,-20.76
1554102928770,-3.5577837999999997,-1.7196354,8.93935,0.07882957,-0.0053263223,-0.020240024,13.44,-27.66,-20.7
1554102928790,-3.6152446000000005,-1.441908,8.776545,0.12996227,0.026631612000000002,-0.051132694000000006,13.44,-27.6,-20.64
1554102928809,-3.5721489999999996,-1.3317747,8.412626,0.2034655,0.04261058,-0.080960095,13.56,-27.6,-20.58
1554102928829,-3.7636849999999997,-1.1115081,8.374319,0.257794,0.025566347000000003,-0.10546118,13.74,-27.72,-20.58
1554102928851,-3.5098996,-1.5472529,6.9808936,0.26312032,-0.05006743,-0.16085494,13.86,-27.78,-20.58
1554102928869,-3.3183637000000004,-0.9056068000000002,8.561067,0.2876214,-0.16085494,-0.17576863,13.86,-27.84,-20.58
1554102928890,-4.462791999999999,-0.8912416,8.087015,0.46871635,-0.2695119,-0.26312032,13.92,-27.9,-20.58
1554102928909,-4.7309427,-0.9056068000000002,8.93935,0.23648871,-0.34621096,-0.011717908999999999,13.8,-28.02,-20.58
1554102928929,-3.4715924,-1.3844471,9.466075,-0.3270362,-0.23009712,0.043675844000000005,13.68,-28.2,-20.58
1554102928949,-3.4572272000000006,-1.3844471,9.370307,-0.7957525,-0.058589544,0.022370555,13.56,-28.38,-20.58
1554102928970,-3.265691,-1.9255368000000002,9.705494999999999,-1.0567423,0.020240024,0.17470337,13.32,-28.62,-20.58
1554102928989,-2.873042,-2.48578,8.934562,-0.9033443000000001,0.07030745599999999,0.13741912,13.26,-28.74,-20.58
1554102929010,-3.5482068,-2.0979192,8.106169,-0.69348717,-0.07776430000000001,0.111852765,13.08,-28.8,-20.64
1554102929030,-3.2848446000000004,-2.380435,8.714295,-0.55074173,-0.09054748,0.1107875,12.96,-28.68,-20.82
1554102929049,-3.2561142000000003,-2.6677392,9.178771000000001,-0.4016047,-0.03089267,0.05219796,12.84,-28.38,-21.06
1554102929070,-3.7110126000000005,-2.7491422,9.154829,-0.12357068,0.002130529,0.00958738,12.78,-27.9,-21.3
1554102929090,-3.6583402,-2.2942438,8.733449,0.041545313,-0.007456851,0.0063915867,12.78,-27.36,-21.54
1554102929110,-3.265691,-2.0213048,8.494029,-0.0031957934000000003,0.0031957934000000003,0.017044231,12.78,-26.76,-21.78
1554102929130,-3.5913025999999997,-2.1745335999999997,8.829217,0.020240024,0.08628642,0.051132694000000006,12.78,-26.16,-22.02
1554102929149,-3.916914,-2.0931308,8.115746000000001,0.40906155,0.036218993,0.00958738,12.78,-25.62,-22.26
1554102929170,-3.323152,-1.8632874,7.9529395,0.567786,-0.07350325,-0.09054748,12.78,-25.2,-22.44
1554102929190,-3.2609026,-1.039682,7.8811135,0.44208476,-0.13209279,-0.20559604,12.78,-25.02,-22.5
1554102929210,-3.3423057000000003,-1.1306617,8.599374000000001,0.14487597,-0.07563378,-0.2034655,12.78,-25.02,-22.44
1554102929230,-3.4093432,-1.8489223000000001,8.93935,-0.12357068,-0.03089267,-0.07350325,12.78,-25.14,-22.38
1554102929250,-3.4572272000000006,-2.1936872000000003,8.125322,-0.330232,-0.08948222,-0.040480047000000005,12.78,-25.32,-22.32
1554102929270,-3.4093432,-2.03567,8.091804,-0.5028047999999999,-0.13315806,-0.096939065,12.78,-25.56,-22.26
1554102929289,-3.2896330000000003,-2.0404584,8.580219999999999,-0.5486112,-0.16405073,-0.11930962,12.78,-25.74,-22.2
1554102929310,-3.217807,-2.6007016,9.169194000000001,-0.47510794,-0.128897,-0.094808534,12.72,-25.92,-22.14
1554102929330,-3.0358477,-2.9502552000000004,9.188348,-0.28229508,-0.10972224,-0.05006743,12.66,-26.1,-22.08
1554102929349,-3.1555579,-2.6437972000000003,8.278551,-0.22796659,-0.15978967,-0.07030745599999999,12.54,-26.16,-22.08
1554102929370,-3.0023289,-2.0931308,8.43178,-0.36112466,-0.19281286,-0.1768339,12.48,-26.04,-22.2
1554102929389,-2.9257145,-1.9734207,8.685564999999999,-0.35260254,-0.16618125,-0.24927188,12.42,-25.92,-22.32
1554102929410,-3.3566709,-2.1841104,8.326435,-0.21944448,-0.18961707,-0.29827404,12.3,-25.62,-22.44
1554102929430,-3.1986535,-2.6007016,7.9577279999999995,-0.5550028,-0.16937704,-0.23648871,12.24,-25.26,-22.56
1554102929449,-3.0071173,-2.7539306,8.067862,-1.0492854999999999,-0.21837921,-0.16618125,12.18,-24.84,-22.68
1554102929470,-3.0262709,-2.7156234,8.07265,-1.4988271,-0.2428803,-0.15765914,12.24,-24.36,-22.8
1554102929490,-2.6240451,-2.8257565,8.719084,-1.6745956999999998,-0.19068234,-0.19600865,12.3,-23.7,-22.92
1554102929510,-2.3032220000000003,-3.6541502,8.723872,-1.8322549,-0.112918034,-0.19281286,12.42,-22.86,-23.04
1554102929529,-2.5091232999999997,-4.5256395,8.786121000000001,-2.1241374,-0.0053263223,-0.10759171,12.42,-21.84,-23.16
1554102929549,-2.9592332999999997,-4.860828,9.068638,-2.2913837000000004,0.05006743,-0.05219796,12.48,-20.52,-23.4
1554102929570,-2.9640217,-5.8041434,9.399037,-2.026133,0.20559604,-0.07243799,12.54,-19.08,-23.76
1554102929590,-3.064578,-6.603807000000001,9.681553,-1.1984226,0.29827404,-0.05965481,12.54,-17.4,-24.24
1554102929609,-3.0454244999999998,-6.713939999999999,8.656835000000001,-0.20772657,0.26631612,-0.040480047000000005,12.54,-15.54,-24.84
1554102929630,-3.3662476999999997,-5.880758,8.077438,0.50387007,0.21092236,-0.068176925,12.48,-13.68,-25.5
1554102929650,-3.3806129,-4.664503599999999,7.9146323,0.9534117,0.18216023,-0.14487597,12.42,-12.06,-26.16
1554102929670,-3.3279405,-4.496909,7.5794440000000005,1.1483551,0.22370553,-0.16618125,12.42,-10.68,-26.76
1554102929689,-3.5721489999999996,-4.654927,8.359954,1.2879047,0.23542345,-0.12783173,12.36,-9.6,-27.24
1554102929709,-3.9600096,-4.472967,6.8372416,1.3092101,0.094808534,-0.08522116,12.48,-9.06,-27.48
1554102929729,-3.9504328,-4.2862196,6.1333459999999995,0.9651296,-0.099069595,0.040480047000000005,12.6,-8.88,-27.6
1554102929751,-2.9161377,-4.678869000000001,7.6081743,0.72011876,-0.14594123,0.1768339,12.84,-9.42,-27.42
1554102929769,-2.3606830000000003,-4.3580456,8.575432000000001,1.171791,-0.16618125,0.09587380000000001,12.96,-10.26,-27.12
1554102929790,-2.7485435000000003,-3.7403417,8.867524000000001,1.5339808000000001,-0.07989483,-0.033023197000000004,13.08,-11.34,-26.82
1554102929812,-2.767697,-2.6390088,8.814852,1.5456988,0.068176925,-0.10759171,13.2,-12.54,-26.52
1554102929829,-3.0693667000000002,-2.1410147999999998,8.067862,1.4295848999999998,0.18002969,-0.25353295,13.2,-13.86,-26.22
1554102929850,-3.0741549999999997,-1.7770962,8.139688,1.1110708999999999,0.25885928,-0.29294774,13.26,-15.12,-25.92
1554102929869,-3.1124623,-2.3133974,7.9577279999999995,0.5475459,0.41971418,-0.28975195,13.14,-16.32,-25.62
1554102929889,-3.4045547999999997,-2.9406781000000004,8.594585,0.44208476,0.46552056,-0.3685815,13.08,-17.52,-25.32
1554102929909,-3.3279405,-2.7682957999999998,8.364742,0.47404268,0.47830373,-0.42290998,13.14,-18.66,-24.96
1554102929929,-3.6104562000000007,-2.4283189999999997,7.74225,0.57098174,0.41225734,-0.48469532,13.26,-19.62,-24.6
1554102929950,-3.6679169999999996,-2.4905684,7.7374616,0.53263223,0.37923414,-0.49854377,13.38,-19.98,-24.42
1554102929969,-3.8833952000000003,-2.5480292,7.6847887,0.30040458,0.30999196,-0.44208476,13.98,-20.88,-23.82
1554102929990,-3.9504328,-2.6868927000000005,7.866748299999999,0.10439592,0.24820662,-0.38562572,14.4,-21.3,-23.4
1554102930010,-4.0318356,-2.7635074,7.756614999999999,-0.035153727999999995,0.17363810000000002,-0.31638354,14.82,-21.6,-23.04
1554102930030,-4.0462008,-2.6916811000000003,7.7949224,-0.19174760000000002,0.11717909,-0.25353295,15.24,-21.84,-22.74
1554102930051,-4.012682,-2.6581624,7.1867948,-0.31851408,0.012783173500000002,-0.21198763,15.66,-21.9,-22.44
1554102930070,-4.0078936,-2.8927941,7.641692999999999,-0.37710363,-0.010652645,-0.15552860000000002,15.96,-21.9,-22.26
1554102930090,-4.0078936,-3.4626143,7.972092999999999,-0.34088463,-0.037284255,-0.1107875,16.26,-21.84,-22.02
1554102930110,-3.9264907999999994,-3.1609447,7.9098440000000005,-0.2428803,-0.07456851,-0.094808534,16.44,-21.66,-21.9
1554102930129,-3.98874,-2.8209682000000003,7.890690299999999,-0.29188246,-0.06604639400000001,-0.06711166,16.5,-21.48,-21.78
1554102930149,-3.8259343999999995,-2.8257565,8.115746000000001,-0.49747851,-0.002130529,-0.0053263223,16.62,-21.24,-21.66
1554102930169,-3.6918589999999996,-3.0891187,8.321647,-0.5475459,0.036218993,-0.0053263223,16.74,-21.0,-21.6
1554102930190,-3.7876269999999996,-3.4721910000000005,8.93935,-0.3334278,0.096939065,-0.033023197000000004,16.86,-20.7,-21.6
1554102930209,-3.7110126000000005,-3.4865562999999993,8.79091,-0.19600865,0.11824436,-0.00958738,16.92,-20.4,-21.6
1554102930229,-3.7493198,-3.2902317,8.585009,-0.17789917,0.15233281,0.002130529,17.04,-20.16,-21.66
1554102930251,-3.9073372,-3.0843303,8.383896,-0.29933932,0.17044231,0.04474111,17.04,-19.92,-21.66
1554102930269,-3.9264907999999994,-3.1226375,8.3072815,-0.3898868,0.16618125,0.07669904,17.04,-19.74,-21.66
1554102930290,-3.9025488,-3.3333273,8.604161999999999,-0.34940675,0.15659387,0.09587380000000001,17.04,-19.44,-21.72
1554102930310,-3.8738184,-3.6589386,9.039907000000001,-0.18642128,0.1470065,0.14274544,17.04,-19.08,-21.72
1554102930330,-3.8067808,-3.6206315000000004,8.575432000000001,-0.02130529,0.12250541,0.18429075,17.04,-18.66,-21.78
1554102930349,-4.0557775000000005,-3.2615013,8.3408,0.033023197000000004,0.096939065,0.19600865,17.1,-18.3,-21.78
1554102930370,-4.0318356,-3.3764230000000004,8.096592,0.0,0.080960095,0.21092236,17.16,-17.94,-21.9
1554102930392,-4.0174704,-3.5631707,8.422203,0.015978966,0.07989483,0.23542345,17.28,-17.64,-22.02
1554102930410,-3.8786068,-3.5152867,8.537125,0.07882957,0.07350325,0.27377295,17.34,-17.4,-22.08
1554102930429,-3.9552212,-3.5823242999999994,8.470087,0.10333065,0.08841695,0.31212249999999997,17.46,-17.28,-22.2
1554102930451,-4.0222587999999995,-3.6302083,8.55149,0.13848437,0.12357068,0.34301516,17.46,-17.34,-22.26
1554102930471,-4.1946416,-3.3764230000000004,8.364742,0.16618125,0.14807177,0.36751625,17.46,-17.46,-22.38
1554102930491,-4.1706996,-3.2184057,8.43178,0.15978967,0.19600865,0.40373522,17.46,-17.7,-22.44
1554102930510,-4.036624,-3.208829,8.412626,0.19707392,0.25246766,0.44315,17.4,-17.94,-22.56
1554102930530,-4.036624,-3.0268695,8.144476,0.32810146,0.31318775,0.43249738,17.28,-18.24,-22.56
1554102930550,-4.1659107,-2.9071592999999996,8.139688,0.5049353,0.35792887,0.40053943,17.16,-18.54,-22.44
1554102930570,-4.0509889999999995,-2.8640637000000004,8.383896,0.7414241,0.40373522,0.34301516,17.04,-18.84,-22.38
1554102930589,-4.3957543,-2.4762032000000005,7.699153999999999,1.0013485999999998,0.38775626,0.25672874,16.92,-19.38,-22.26
1554102930609,-4.692635500000001,-1.6190788999999999,7.124545599999999,1.1249193000000002,0.3206446,0.16937704,16.98,-19.92,-22.14
1554102930630,-4.7740383,-0.9487024,6.6983776,0.9374326999999999,0.27377295,0.13315806,16.98,-20.46,-22.02
1554102930649,-4.76925,-1.6047136999999998,7.3974850000000005,0.4825648,0.29294774,0.20240025,16.98,-21.12,-21.84
1554102930670,-4.5154643,-2.0213048,8.288128,0.13102753,0.36964676,0.22264028,16.98,-21.78,-21.6
1554102930690,-4.759673,-2.0979192,7.9577279999999995,0.11611383,0.36325517,0.20133498,17.04,-22.5,-21.36
1554102930710,-4.7548847,-1.9829974999999997,8.087015,0.11611383,0.36325517,0.2545982,17.04,-23.28,-21.06
1554102930730,-5.085284,-1.2695253999999998,7.9577279999999995,0.06285059999999999,0.39734364,0.257794,17.16,-24.18,-20.52
1554102930749,-5.521029,-1.1593921,7.6081743,0.084155895,0.36964676,0.15339808,17.28,-24.6,-20.16
1554102930770,-5.1092260000000005,-1.2886791000000002,8.503606,-0.07989483,0.42184472,0.20772657,17.28,-24.96,-19.8
1554102930790,-4.8362875,-1.7244238,8.719084,-0.21944448,0.51452273,0.22264028,17.34,-25.2,-19.44
1554102930811,-5.535394,-1.8680758000000002,7.5028296,-0.2695119,0.5368933000000001,0.09054748,17.46,-25.44,-19.14
1554102930831,-5.947197,-1.9063831999999998,6.7366850000000005,-0.27590349999999997,0.40586576,0.10759171,17.52,-25.56,-18.9
1554102930851,-5.8466406,-1.7770962,7.330447,-0.06178534,0.22370553,0.221575,17.64,-25.68,-18.72
1554102930870,-5.449203,-1.3413515,7.9194207,0.17363810000000002,0.10226539,0.11930962,17.82,-25.68,-18.66
1554102930889,-5.487509999999999,-1.4083891000000002,7.612962700000001,0.26631612,0.043675844000000005,0.06498113,17.94,-25.74,-18.6
1554102930909,-5.530606,-1.5328877,8.087015,0.23755397,0.007456851,0.15126756,18.06,-25.86,-18.6
1554102930930,-5.765238,-1.6525976999999998,8.115746000000001,0.37071204,-0.015978966,0.13954964,18.12,-25.98,-18.6
1554102930950,-5.913678,-1.1402385,7.536348299999999,0.5933523,-0.07882957,0.036218993,18.24,-26.1,-18.6
1554102930970,-5.568912999999999,-1.0253168,7.9050555,0.7680557,-0.16192019,-0.08735169,18.3,-26.28,-18.48
1554102930989,-5.233725,-0.75237787,8.158841,0.6689861,-0.128897,0.10865697,18.36,-26.46,-18.36
1554102931009,-4.8745947,-1.3078326999999998,8.024766,0.5368933000000001,-0.09267801,0.18002969,18.42,-26.7,-18.24
1554102931029,-5.530606,-1.1162965,7.8332295,0.35899413,-0.024501082,0.06285059999999999,18.3,-27.0,-18.06
1554102931049,-5.7365074,-0.87687635,7.8475947,0.3749731,0.00958738,0.03089267,18.18,-27.3,-17.88
1554102931069,-5.487509999999999,-0.8912416,8.010401,0.41758367,0.07882957,0.039414786,18.0,-27.72,-17.58
1554102931089,-5.7029886,-1.1067197,7.924208999999999,0.43462790000000007,0.15765914,0.025566347000000003,17.82,-28.14,-17.28
1554102931110,-5.765238,-1.1162965,7.6321163,0.406931,0.22796659,0.041545313,17.7,-28.56,-16.92
1554102931129,-5.755661,-0.85293436,7.450157000000001,0.36751625,0.27164245,0.07137272,17.58,-28.98,-16.62
1554102931149,-5.8226986,-0.66139823,7.531560000000001,0.33662358,0.31957933,0.09161274,17.4,-29.4,-16.32
1554102931169,-5.851429,-0.6997054,7.612962700000001,0.34088463,0.35899413,0.13422333,17.34,-29.76,-16.08
1554102931190,-5.951985400000001,-0.670975,7.426214999999999,0.36005938,0.36218992,0.19387813,17.34,-30.06,-15.78
1554102931209,-6.0764837,-0.44592008,7.282563000000001,0.35473305,0.34514567,0.2428803,17.4,-30.48,-15.54
1554102931230,-6.047753299999999,-0.31663316,7.095814999999999,0.31105720000000003,0.30466563,0.26525086,17.46,-30.9,-15.36
1554102931249,-6.2392898,0.0712275,7.071872999999999,0.26205507,0.24607609,0.30360037,17.52,-31.26,-15.24
1554102931269,-6.009446,0.023343466,7.201160000000001,0.20026971,0.18429075,0.36005938,17.64,-31.8,-15.18
1554102931290,-5.631162000000001,-0.28311434,7.450157000000001,0.20879184,0.15020229,0.35899413,17.7,-32.28,-15.12
1554102931311,-5.4922986,-0.31184477,7.450157000000001,0.35579833,0.13528858,0.33129725,17.7,-32.76,-15.0
1554102931331,-5.391742,-0.17298107,7.392696400000001,0.5294364,0.12037488,0.32277513,17.64,-33.24,-14.82
1554102931350,-5.616797,0.44472298,6.913856,0.51665324,0.07030745599999999,0.31105720000000003,17.58,-33.72,-14.58
1554102931370,-5.1092260000000005,0.6841431,7.253833,0.32490566,0.08948222,0.26844665,17.4,-34.08,-14.34
1554102931390,-5.1762643,0.55006784,7.474099000000001,0.1438107,0.12357068,0.2066613,17.28,-34.32,-14.1
1554102931410,-5.3582234,0.43514615,7.689577000000001,0.08522116,0.17257284,0.20559604,17.1,-34.56,-13.8
1554102931430,-4.984728,0.56922144,8.015189,0.19174760000000002,0.22370553,0.18855181,17.04,-34.68,-13.44
1554102931450,-5.7987566,1.3257892,7.301717,0.33662358,0.25672874,0.09267801,16.86,-35.1,-12.96
1554102931469,-5.923255,1.6753427,7.0766615999999996,0.30679616,0.25033715,0.05965481,16.86,-35.22,-12.78
1554102931491,-5.9041014,1.7232267,7.1341224,0.10013486,0.20559604,0.0063915867,16.8,-35.64,-12.36
1554102931510,-5.947197,1.6897078999999997,7.114969,-0.04580637,0.1587244,-0.011717908999999999,16.8,-35.76,-12.24
1554102931529,-6.1387334000000005,1.1438298,7.4070616,-0.20026971,0.11930962,0.02876214,16.8,-36.06,-11.94
1554102931549,-6.3063273,0.75118077,7.3065050000000005,-0.25885928,0.051132694000000006,0.07563378,16.74,-36.24,-11.7
1554102931570,-6.766014,0.57879823,7.354389,-0.22796659,-0.084155895,0.056459017,16.74,-36.6,-11.46
1554102931591,-6.5840545,0.6362591,7.4070616,-0.11930962,-0.21092236,0.017044231,16.68,-36.78,-11.34
1554102931609,-5.90889,0.26276365,7.8428062999999995,-0.029827405,-0.23861924,0.023435817999999997,16.62,-36.84,-11.28
1554102931630,-5.693412,-0.18255788,7.9194207,0.049002163,-0.18748654,0.041545313,16.62,-36.9,-11.34
1554102931650,-5.6790465999999995,-0.38845924,7.8332295,0.2130529,-0.13635385,0.002130529,16.56,-36.96,-11.34
1554102931669,-5.722142,0.11911154,7.282563000000001,0.3174488,-0.12037488,-0.047936900000000005,16.5,-36.96,-11.46
1554102931689,-5.674258,0.66020113,7.177217999999999,0.28229508,-0.098004326,-0.060720075,16.5,-37.02,-11.52
1554102931710,-5.6407394,0.87089086,7.1867948,0.17150758,-0.06711166,-0.06285059999999999,16.38,-37.08,-11.64
1554102931730,-5.971139,0.65062433,7.378331,0.11824436,-0.05219796,-0.083090626,16.26,-37.08,-11.7
1554102931750,-6.1818290000000005,0.52612585,7.2729864,0.12783173,-0.07776430000000001,-0.06604639400000001,16.2,-37.08,-11.7
1554102931769,-6.172251999999999,0.6027403,7.1724296,0.13315806,-0.09267801,-0.05752428,16.08,-37.14,-11.7
1554102931791,-6.042965000000001,0.4878186,7.114969,0.094808534,-0.07989483,-0.018109497,15.96,-37.2,-11.76
1554102931809,-5.990292500000001,0.3633201,7.3591776,0.07456851,-0.03089267,0.034088463,15.84,-37.2,-11.76
1554102931831,-6.047753299999999,0.6171055000000001,7.435792,0.10013486,0.00958738,0.07989483,15.72,-37.32,-11.82
1554102931850,-6.143522,0.76075757,7.023989,0.13209279,0.029827405,0.08735169,15.66,-37.38,-11.88
1554102931870,-6.129156,0.83737206,7.167641000000001,0.10013486,0.051132694000000006,0.08522116,15.6,-37.56,-11.94
1554102931890,-6.066907,0.85173726,7.239467599999999,-0.010652645,0.08522116,0.09054748,15.6,-37.74,-12.0
1554102931909,-6.0285997,0.83737206,7.29214,-0.049002163,0.11717909,0.084155895,15.6,-37.92,-12.0
1554102931930,-6.0381765,1.0097545,7.6800003,-0.05965481,0.1438107,0.09161274,15.6,-38.1,-11.94
1554102931949,-6.0860605,0.98581254,7.3208704,-0.054328485999999995,0.165116,0.10439592,15.6,-38.28,-11.88
1554102931969,-6.229712999999999,1.0528502,7.047931,-0.12250541,0.17470337,0.14274544,15.6,-38.46,-11.76
1554102931990,-6.1818290000000005,1.0911574,7.023989,-0.17896444,0.15659387,0.13954964,15.54,-38.58,-11.58
1554102932010,-6.1195793,1.1534066,7.3831196,-0.20133498,0.15765914,0.14274544,15.54,-38.7,-11.46
1554102932030,-6.1387334000000005,1.1294646000000002,7.454945599999999,-0.16405073,0.15659387,0.17470337,15.54,-38.76,-11.34
1554102932050,-6.349423000000001,1.1869254999999999,7.268198,-0.12037488,0.15020229,0.20453078,15.48,-38.76,-11.22
1554102932070,-6.804321300000001,0.7032967,7.1006035999999995,-0.046871635999999994,0.128897,0.24714136,15.42,-38.76,-11.16
1554102932089,-6.5265937,0.65541273,7.5028296,0.08735169,0.096939065,0.3291667,15.36,-38.7,-11.1
1554102932109,-6.2009826,0.9187749,7.9337860000000004,0.18642128,0.098004326,0.39414784,15.3,-38.7,-11.16
1554102932130,-6.26802,1.2779051000000001,7.828441000000001,0.17576863,0.1768339,0.4282363,15.18,-38.64,-11.22
1554102932149,-6.26802,1.3928268,7.536348299999999,0.08948222,0.28336033,0.49534798,15.06,-38.64,-11.22
1554102932171,-6.2057709999999995,1.0336965,7.483675999999999,0.08735169,0.3717773,0.5496765,14.94,-38.76,-11.34
1554102932191,-6.133945,1.3497312,7.253833,0.20559604,0.42077947,0.5305017,14.82,-38.82,-11.34
1554102932210,-6.2488665999999995,1.9482816000000003,6.937798,0.31318775,0.46765109999999993,0.48682585,14.7,-39.06,-11.34
1554102932230,-6.172251999999999,2.0727801,6.937798,0.26631612,0.49960902,0.48149952,14.52,-39.36,-11.34
1554102932249,-6.315904,2.1110873,6.4685345000000005,0.15020229,0.51452273,0.44954160000000004,14.34,-39.66,-11.34
1554102932270,-6.469133,1.977012,6.3105173,0.043675844000000005,0.49321744,0.40373522,14.16,-40.02,-11.22
1554102932290,-6.2392898,1.8525136000000002,6.449381,0.036218993,0.45486793,0.38456047,13.98,-40.38,-11.16
1554102932310,-6.191406,2.0967221,6.3727665,0.10439592,0.41225734,0.3270362,13.8,-40.8,-11.04
1554102932330,-6.26802,2.178125,6.2769985,0.18855181,0.40373522,0.24820662,13.56,-41.16,-10.92
1554102932350,-6.291962,2.3265655,6.1620764999999995,0.25566345,0.37071204,0.19174760000000002,13.38,-41.52,-10.8
1554102932370,-6.5601125,2.259528,6.0806737,0.26418558,0.3291667,0.14061491,13.14,-41.7,-10.56
1554102932389,-6.71813,2.355296,6.0423665,0.2545982,0.27057716,0.09267801,12.84,-42.06,-10.26
1554102932409,-6.555324000000001,2.3505075,6.0663085,0.26631612,0.22583607,0.06924219,12.72,-42.36,-10.08
1554102932430,-6.5457472999999995,2.4893713,6.2003837,0.27483824,0.15020229,0.02130529,12.54,-42.72,-9.9
1554102932450,-7.019799000000001,2.8006175,6.128557700000001,0.22796659,0.10439592,-0.008522116,12.42,-42.9,-9.66
1554102932470,-7.2304892999999995,2.8580782000000005,6.2003837,0.08841695,0.07137272,0.03089267,12.3,-43.08,-9.48
1554102932489,-7.2592196,2.5420437000000002,6.3392477,-0.05752428,0.054328485999999995,0.07669904,12.24,-43.14,-9.36
1554102932510,-7.249642999999999,2.2691047,6.63134,-0.21198763,0.05752428,0.10652645,12.12,-43.38,-9.06
1554102932530,-7.2975270000000005,2.3122002999999998,6.6983776,-0.19068234,0.07563378,0.12570119999999999,12.06,-43.5,-8.94
1554102932549,-7.249642999999999,2.460641,6.502053299999999,-0.099069595,0.08735169,0.14274544,12.06,-43.62,-8.82
1554102932571,-6.991069,2.4319102999999997,6.870760400000001,0.046871635999999994,0.12463594,0.1470065,12.06,-43.62,-8.7
1554102932590,-6.919242999999999,2.5995044999999997,6.545148999999999,0.20026971,0.16618125,0.15765914,12.06,-43.68,-8.58
1554102932609,-7.0102224,2.6809072,6.291363700000001,0.27803403,0.2066613,0.1768339,12.06,-43.8,-8.46
1554102932629,-6.8091097000000005,2.771887,6.39192,0.27483824,0.22690132,0.17576863,12.06,-43.92,-8.4
1554102932650,-6.847417,2.8772318,6.0663085,0.25885928,0.22264028,0.16405073,12.06,-44.04,-8.34
1554102932670,-6.7277070000000005,2.949058,5.9801173,0.24394555,0.2034655,0.14168017,12.06,-44.22,-8.34
1554102932689,-6.7468604999999995,3.0017304,5.831677,0.2545982,0.18748654,0.10333065,11.88,-44.34,-8.28
1554102932709,-6.435614,2.8628666000000003,5.8747725,0.2790993,0.17257284,0.056459017,11.76,-44.46,-8.22
1554102932729,-6.603208,2.9251158,5.6497173,0.30253512,0.14913702,0.011717908999999999,11.64,-44.64,-8.16
1554102932749,-6.5361705,3.3752258,5.228338,0.2790993,0.11611383,0.0010652645,11.52,-44.76,-8.1
1554102932769,-6.708553299999999,3.3608606,5.319318,0.18642128,0.09161274,0.011717908999999999,11.4,-44.88,-8.04
1554102932790,-6.900089299999999,3.2363622000000003,5.5922565,0.06178534,0.029827405,-0.0010652645,11.34,-44.94,-7.86
1554102932809,-7.120356,3.4231097999999998,5.5347957999999995,-0.049002163,-0.03195793,-0.03195793,11.22,-44.94,-7.68
1554102932831,-7.6518690000000005,3.2555158,5.668871,-0.17363810000000002,-0.041545313,-0.037284255,11.16,-45.0,-7.44
1554102932849,-7.584830800000001,2.5755625,6.013636,-0.20026971,-0.06178534,0.060720075,11.22,-45.06,-7.26
1554102932870,-7.1730285,2.6856956000000003,6.013636,-0.080960095,-0.10439592,0.07350325,11.34,-45.12,-7.02
1554102932889,-7.0485296,3.1597476,6.1094040000000005,0.10333065,-0.11611383,0.0010652645,11.34,-45.18,-6.84
1554102932909,-6.924031299999999,2.9251158,6.27221,0.19813919,-0.06924219,-0.05006743,11.34,-45.18,-6.72
1554102932929,-6.7372837,2.460641,6.4206505,0.19174760000000002,-0.0063915867,-0.08628642,11.4,-45.24,-6.6
1554102932949,-6.7277070000000005,2.2882583,6.3584013,0.10972224,0.06285059999999999,-0.10759171,11.4,-45.3,-6.48
1554102932969,-6.766014,2.1254525,5.8891377,0.034088463,0.15126756,-0.10226539,11.4,-45.3,-6.48
1554102932991,-6.603208,2.0967221,5.8604074,0.23222765,0.14594123,-0.051132694000000006,11.4,-45.36,-6.54
1554102933011,-7.019799000000001,3.0639796,5.467758,0.45273739999999996,0.09054748,-0.060720075,11.34,-45.42,-6.54
1554102933031,-7.2592196,3.8732197,5.204396,0.34088463,0.054328485999999995,0.011717908999999999,11.34,-45.42,-6.6
1554102933051,-7.493850999999999,3.9163153,5.2810106,-0.015978966,0.02130529,0.101200126,11.28,-45.48,-6.54
1554102933070,-7.785944000000001,3.4566288,5.9561753,-0.3206446,0.017044231,0.07350325,11.28,-45.48,-6.42
1554102933090,-7.762002000000001,3.1597476,6.27221,-0.32810146,0.018109497,0.10972224,11.22,-45.48,-6.3
1554102933110,-7.4124484,3.1932666000000003,6.1381345000000005,-0.096939065,0.0063915867,0.18429075,11.22,-45.54,-6.12
1554102933130,-7.2304892999999995,3.3704373999999997,5.9082913,0.12676647,0.02130529,0.16618125,11.16,-45.6,-6.0
1554102933149,-6.646304,3.1932666000000003,5.6976013,0.26312032,0.027696876000000002,0.09054748,11.16,-45.6,-5.88
1554102933169,-6.445191,2.7192147,5.855619,0.19387813,0.099069595,0.07882957,11.16,-45.66,-5.82
1554102933190,-6.445191,2.819771,5.7215432999999996,0.10759171,0.14061491,0.060720075,11.16,-45.72,-5.82
1554102933210,-6.617573299999999,3.0160956000000003,5.7263317,0.09374327,0.13954964,0.02130529,11.1,-45.72,-5.82
1554102933229,-6.5601125,3.1453824,5.8747725,0.128897,0.15446335,0.017044231,11.1,-45.78,-5.88
1554102933249,-6.828263300000001,3.365649,5.501277,0.12996227,0.16192019,0.012783173500000002,11.04,-45.84,-5.88
1554102933270,-7.101202000000001,3.7008373999999997,5.419874,0.058589544,0.13635385,-0.047936900000000005,10.92,-45.96,-5.94
1554102933289,-7.407660000000001,3.7391446000000004,5.539584,0.014913702,0.10759171,-0.053263225,10.86,-46.02,-6.0
1554102933309,-7.407660000000001,3.7008373999999997,5.7598505,-0.00958738,0.084155895,0.020240024,10.8,-46.08,-5.94
1554102933330,-7.369353,3.5045127999999997,5.755062000000001,0.033023197000000004,0.09267801,0.05539375,10.74,-46.14,-5.88
1554102933349,-7.2065472999999995,3.4278982000000005,5.716755,0.12037488,0.10865697,0.07243799,10.74,-46.2,-5.82
1554102933369,-7.101202000000001,3.3512837999999996,5.4007206,0.22264028,0.113983296,0.049002163,10.68,-46.26,-5.76
1554102933390,-7.053317999999999,3.3081882000000005,5.089474,0.25246766,0.099069595,0.025566347000000003,10.68,-46.32,-5.7
1554102933410,-6.885724000000001,3.3273417999999997,5.563526,0.16618125,0.07350325,0.053263225,10.68,-46.5,-5.64
1554102933430,-6.766014,3.1358056,5.510854,0.09587380000000001,0.07350325,0.06391586,10.62,-46.74,-5.64
1554102933449,-6.6606693,3.4231097999999998,5.4007206,0.09587380000000001,0.053263225,0.041545313,10.62,-46.98,-5.58
1554102933470,-6.861782000000001,4.136582,5.175665400000001,0.080960095,0.04474111,0.008522116,10.62,-47.28,-5.52
1554102933489,-7.1730285,4.2131963,5.003283000000001,0.014913702,0.06924219,-0.025566347000000003,10.56,-47.58,-5.46
1554102933510,-7.2831616,3.614646,5.1996074,-0.096939065,0.099069595,0.00958738,10.5,-47.82,-5.34
1554102933529,-7.383717999999999,3.3464954,5.185242,-0.060720075,0.08735169,-0.004261058,10.44,-48.12,-5.28
1554102933550,-7.350199000000001,3.2603042,4.9984946,0.06498113,0.03834952,-0.0010652645,10.44,-48.42,-5.22
1554102933569,-7.077260000000001,3.5571851999999997,5.0463786,0.05006743,-0.0063915867,0.03089267,10.38,-48.54,-5.1
1554102933589,-6.871359,3.5859156000000003,5.1996074,-0.101200126,-0.010652645,0.04261058,10.38,-48.66,-5.04
1554102933609,-7.029375999999999,3.945046,5.415086,-0.30360037,0.018109497,0.05965481,10.32,-48.6,-4.98
1554102933630,-6.780379300000001,3.9019501000000005,5.6976013,-0.49321744,0.15765914,-0.10972224,10.32,-48.54,-4.86
1554102933649,-6.9862804,3.3033997999999998,5.544372599999999,-0.18429075,0.18642128,-0.21092236,10.26,-48.48,-4.86
1554102933670,-6.924031299999999,3.2315737999999996,5.209184,0.2609898,0.128897,-0.20772657,10.32,-48.36,-4.8
1554102933690,-7.383717999999999,3.6481647000000006,4.5148660000000005,0.45593318,0.06711166,-0.23755397,10.32,-48.24,-4.8
1554102933711,-7.6853875999999985,3.7104141999999998,4.2131963,0.26312032,-0.010652645,-0.13848437,10.32,-48.12,-4.8
1554102933729,-7.5082164,2.9921536,4.7782279999999995,-0.06391586,-0.058589544,-0.058589544,10.32,-48.0,-4.86
1554102933750,-7.422025,2.8149827000000003,5.3049526,-0.21411815,-0.08628642,-0.08628642,10.38,-47.82,-4.86
1554102933769,-7.311891999999999,2.867655,5.4102974,-0.16085494,-0.09374327,-0.06391586,10.38,-47.76,-4.86
1554102933789,-7.105990400000001,2.9730000000000003,5.659294,-0.07137272,-0.06391586,0.025566347000000003,10.44,-47.58,-4.86
1554102933809,-7.105990400000001,3.2794578000000003,5.4964886,-0.0031957934000000003,-0.037284255,0.054328485999999995,10.5,-47.46,-4.8
1554102933829,-7.177817,3.5954924,5.319318,0.04474111,-0.02130529,0.014913702,10.5,-47.28,-4.8
1554102933849,-7.153875,3.8971617,5.2810106,0.06178534,-0.010652645,-0.025566347000000003,10.56,-47.16,-4.74
1554102933870,-6.95755,3.6721067,5.458181400000001,0.020240024,0.00958738,-0.026631612000000002,10.56,-47.04,-4.68
1554102933890,-7.225700999999999,3.518878,5.257068,-0.022370555,0.03834952,-0.027696876000000002,10.56,-46.92,-4.62
1554102933909,-7.110779300000001,3.6433763999999997,5.146935,-0.01917476,0.025566347000000003,-0.03089267,10.56,-46.86,-4.56
1554102933929,-6.981492,3.6912606,4.969764,-0.04474111,0.012783173500000002,-0.06604639400000001,10.56,-46.8,-4.5
1554102933950,-7.1395097000000005,3.614646,5.142146599999999,-0.09374327,0.01917476,-0.10013486,10.56,-46.8,-4.5
1554102933970,-7.201759,3.2076318,5.218761,-0.13422333,0.015978966,-0.10333065,10.56,-46.92,-4.5
1554102933989,-7.005433999999999,3.0879216,5.185242,-0.12783173,-0.0063915867,-0.10759171,10.62,-46.92,-4.5
1554102934009,-7.0245875999999985,3.09271,5.285799,-0.09587380000000001,-0.01917476,-0.1107875,10.68,-46.98,-4.5
1554102934029,-7.0820484,3.1597476,5.4102974,-0.060720075,-0.025566347000000003,-0.09587380000000001,10.74,-46.98,-4.5
1554102934049,-7.1395097000000005,3.2746694,5.462969999999999,-0.07137272,-0.008522116,-0.08735169,10.8,-46.98,-4.62
1554102934070,-7.153875,3.1789012000000003,5.5204306,-0.10333065,0.007456851,-0.06711166,10.86,-46.98,-4.74
1554102934089,-7.1873937,3.1549592,5.237914599999999,-0.15765914,0.00958738,-0.07882957,10.92,-46.92,-4.98
1554102934110,-7.3071036,3.3321302000000004,5.319318,-0.18429075,-0.004261058,-0.083090626,10.98,-46.92,-5.16
1554102934129,-7.249642999999999,3.1501707999999997,5.606621700000001,-0.18535602,0.0053263223,-0.06604639400000001,11.04,-46.86,-5.34
1554102934150,-7.3645644,3.0160956000000003,5.740697,-0.14594123,0.024501082,-0.05539375,11.1,-46.8,-5.52
1554102934169,-7.5082164,3.0304607999999997,5.606621700000001,-0.09161274,0.051132694000000006,-0.04474111,11.1,-46.8,-5.64
1554102934190,-7.441178999999999,2.949058,5.4342394,-0.054328485999999995,0.09267801,-0.026631612000000002,11.04,-46.74,-5.76
1554102934210,-7.383717999999999,3.0256724,5.443816,-0.049002163,0.13209279,-0.011717908999999999,11.04,-46.74,-5.88
1554102934231,-7.431602000000001,3.164536,5.769428,-0.036218993,0.17470337,-0.015978966,11.1,-46.74,-5.88
1554102934250,-7.4124484,3.3129766000000003,5.5347957999999995,0.02130529,0.22690132,-0.036218993,11.1,-46.74,-5.82
1554102934269,-7.517792999999999,3.341707,5.3384714,0.047936900000000005,0.25246766,-0.035153727999999995,11.1,-46.68,-5.82
1554102934290,-7.489063000000001,3.5332432000000003,4.9027267,-0.015978966,0.24394555,-0.013848438000000001,11.16,-46.68,-5.76
1554102934310,-7.28795,3.4901476000000002,4.8069587,-0.11611383,0.22050974,-0.014913702,11.16,-46.62,-5.76
1554102934330,-7.1155677,3.4805707999999997,4.89315,-0.17470337,0.18748654,-0.040480047000000005,11.22,-46.56,-5.7
1554102934349,-7.2209125,3.4231097999999998,4.9841294000000005,-0.18002969,0.14168017,-0.068176925,11.22,-46.5,-5.64
1554102934369,-7.201759,3.5093012000000003,4.56275,-0.23329292,0.049002163,-0.06178534,11.28,-46.44,-5.64
1554102934389,-7.062895,3.566762,4.3185415,-0.34621096,-0.040480047000000005,-0.111852765,11.28,-46.38,-5.58
1554102934410,-6.943185000000001,3.566762,4.5483847,-0.5091964,-0.13848437,-0.19813919,11.34,-46.26,-5.64
1554102934429,-6.789956,3.1405939999999997,4.648941000000001,-0.61678815,-0.20879184,-0.31212249999999997,11.4,-46.2,-5.7
1554102934449,-6.900089299999999,2.6426,5.367202,-0.6625945,-0.221575,-0.41758367,11.52,-46.02,-5.82
1554102934469,-6.8186865,2.3265655,5.300164,-0.700944,-0.24607609,-0.41758367,11.64,-45.9,-6.06
1554102934490,-6.775591,2.2786815,5.252279799999999,-0.81705785,-0.28868666,-0.45273739999999996,11.82,-45.78,-6.3
1554102934510,-6.823475,2.508525,5.276222,-0.99069595,-0.35260254,-0.51984906,12.06,-45.6,-6.6
1554102934529,-6.900089299999999,2.4462755,5.429451,-1.0833739,-0.37603834,-0.5613944000000001,12.24,-45.42,-6.96
1554102934549,-7.0964136,2.0248961,5.7933699999999995,-1.0088054,-0.38775626,-0.567786,12.42,-45.06,-7.5
1554102934570,-7.091625,1.5029601000000001,5.9465985,-0.74035877,-0.44208476,-0.5454154,12.66,-44.64,-8.04
1554102934589,-7.168239999999999,1.3497312,6.267421700000001,-0.3323625,-0.5123922000000001,-0.5336975,12.84,-44.16,-8.64
1554102934610,-7.3214690000000004,1.3976152,6.4781113,0.19281286,-0.6135923000000001,-0.5858955,12.96,-43.68,-9.24
1554102934630,-7.0485296,1.7471686999999998,6.3584013,0.71159667,-0.7137272,-0.680704,13.08,-43.14,-9.84
1554102934649,-6.742072,1.9099745,6.214748999999999,1.0641992,-0.78936094,-0.773382,13.14,-42.6,-10.38
1554102934671,-6.7851677,1.8716671000000003,6.2482677,1.1888351000000001,-0.87032104,-0.7914915,13.2,-42.12,-10.86
1554102934689,-6.756437299999999,1.7902644,6.2243257000000005,1.1547466999999998,-0.9502159,-0.7669904000000001,13.32,-41.64,-11.28
1554102934710,-6.497863300000001,1.7423803,6.3584013,1.0386329,-1.055677,-0.773382,13.44,-41.34,-11.52
1554102934730,-6.196194,1.9147629000000002,6.3631897,0.8873653,-1.1408982,-0.79255676,13.56,-41.16,-11.64
1554102934750,-5.415684,1.8716671000000003,6.2339025,0.70627034,-1.1739215,-0.8042746999999999,13.68,-41.1,-11.64
1554102934769,-5.3247046,1.5699978,6.3823433,0.51452273,-1.1590078000000001,-0.8564726,13.8,-41.1,-11.34
1554102934789,-5.21936,1.3497312,6.2865753,0.35792887,-1.1419635000000001,-0.90654004,13.92,-41.16,-10.92
1554102934810,-5.090072599999999,1.1055226,6.5738792,0.24501082,-1.1121361,-0.98856544,14.1,-41.22,-10.56
1554102934830,-4.6878470000000005,0.87089086,6.693589,0.18642128,-1.0908308,-1.0641992,14.28,-41.34,-10.2
1554102934850,-4.4005427,0.5931635000000001,6.7845693,0.084155895,-1.0428939,-1.1547466999999998,14.52,-41.34,-9.84
1554102934870,-4.8219223,0.54049104,6.880337,-0.033023197000000004,-0.9917611999999999,-1.2367721,14.76,-41.34,-9.48
1554102934890,-4.707000700000001,-0.02932897,6.909067599999999,-0.18535602,-0.9374326999999999,-1.2900352,15.0,-41.28,-9.18
1554102934909,-4.4915223,-0.39803603,7.0527196,-0.48469532,-0.86606,-1.3528858,15.36,-40.92,-8.94
1554102934930,-4.5681367,-0.7236475,7.5267715,-0.7499462,-0.7914915,-1.3986923,15.6,-40.5,-9.06
1554102934949,-4.630386,-1.240795,7.866748299999999,-0.92038846,-0.6711166000000001,-1.454086,15.9,-39.9,-9.3
1554102934971,-4.88896,-1.7770962,7.9577279999999995,-0.99282646,-0.5400891,-1.5020228999999998,16.26,-39.06,-9.72
1554102934990,-5.070919,-1.9829974999999997,7.967304700000001,-1.0162623,-0.4708469,-1.4966966,16.62,-38.04,-10.26
1554102935009,-5.1810527,-1.8441339,8.321647,-1.031176,-0.47191215,-1.4295848999999998,17.16,-36.84,-10.74
1554102935030,-5.185841,-1.6813281999999998,8.752603,-0.97258645,-0.44954160000000004,-1.3944311000000003,17.76,-35.64,-11.28
1554102935050,-5.6407394,-1.8776526000000002,9.442133,-0.85540736,-0.42397526,-1.3305153,18.48,-34.32,-11.76
1554102935069,-5.645528,-2.1936872000000003,9.57142,-0.70627034,-0.41225734,-1.1920309,19.2,-32.94,-12.3
1554102935089,-5.875371,-2.0931308,9.810839999999999,-0.53476274,-0.45167214,-1.067395,19.98,-31.5,-12.84
1554102935111,-6.0764837,-1.7770962,9.633669,-0.39521313,-0.531567,-0.9129315999999998,20.64,-29.94,-13.26
1554102935131,-5.813122,-1.6478093,9.978435000000001,-0.31105720000000003,-0.5944176,-0.71479243,21.24,-28.5,-13.74
1554102935150,-5.5497594,-1.5280992,10.026319,-0.24501082,-0.6018744,-0.53263223,21.66,-27.24,-14.16
1554102935170,-5.559336,-1.5041572,10.055049,-0.16085494,-0.608266,-0.39734364,21.96,-26.04,-14.64
1554102935190,-5.544971,-1.5233108,10.098145,0.080960095,-0.6423545,-0.18855181,22.14,-24.84,-15.12
1554102935210,-5.185841,-1.3461398999999998,9.806051,0.25885928,-0.6892261,-0.08841695,22.14,-23.82,-15.6
1554102935230,-4.5202527,-1.1067197,9.997588,0.36432046,-0.6945524000000001,-0.049002163,22.14,-23.04,-16.02
1554102935250,-4.0078936,-1.216853,9.820416,0.36218992,-0.6040049,-0.024501082,22.08,-22.44,-16.38
1554102935270,-4.132391999999999,-1.4036007,9.638457,0.26738137,-0.49747851,0.029827405,21.84,-22.08,-16.68
1554102935289,-4.012682,-1.5903485000000002,9.466075,0.19068234,-0.40266997,0.03834952,21.6,-21.96,-16.8
1554102935310,-3.7301662,-1.6909049999999999,9.370307,0.15233281,-0.26738137,-0.023435817999999997,21.36,-22.08,-16.92
1554102935330,-3.5769374,-1.4131776000000003,8.786121000000001,0.094808534,-0.17470337,-0.068176925,21.12,-22.32,-17.1
1554102935349,-3.2944214,-1.4227544,8.379107000000001,-0.007456851,-0.084155895,-0.16405073,20.94,-22.56,-17.22
1554102935369,-3.083732,-1.5664065,8.575432000000001,-0.23435818,0.054328485999999995,-0.28229508,20.7,-22.8,-17.4
1554102935390,-2.9209259999999997,-2.356493,8.316858,-0.49641323,0.20026971,-0.32170987,20.58,-23.04,-17.52
1554102935409,-3.0358477,-2.926313,8.359954,-0.59761333,0.30679616,-0.34088463,20.4,-23.22,-17.64
1554102935429,-3.1890767,-2.8401217,8.556278,-0.51984906,0.34834146,-0.35579833,20.46,-23.34,-17.82
1554102935450,-3.1555579,-2.4187422,8.656835000000001,-0.49002165,0.45486793,-0.4101268,20.52,-23.28,-17.94
1554102935470,-3.3662476999999997,-2.3373394,7.972092999999999,-0.5933523,0.5475459,-0.49854377,20.58,-23.04,-18.0
1554102935489,-3.6918589999999996,-3.0412347,7.651269999999999,-0.6487460999999999,0.56459016,-0.48043427,20.7,-22.62,-18.0
1554102935510,-4.2425256,-3.6254199000000003,7.8571715,-0.51984906,0.45593318,-0.33555830000000003,20.82,-22.14,-18.0
1554102935529,-4.223372,-3.3524809999999996,7.9864583,-0.32597092,0.294013,-0.221575,21.0,-21.54,-18.0
1554102935549,-3.8977604,-2.8113914,8.058285,-0.25885928,0.19920446,-0.22796659,21.3,-20.82,-18.0
1554102935571,-4.10845,-2.7874494,8.010401,-0.28549087,0.15552860000000002,-0.17789917,21.6,-20.16,-17.94
1554102935591,-4.4580035,-3.2375592999999996,8.465299,-0.2609898,0.094808534,-0.040480047000000005,21.9,-19.5,-17.94
1554102935610,-4.314351599999999,-3.4195184999999997,9.135675,-0.10546118,0.029827405,0.08522116,22.26,-18.96,-17.88
1554102935630,-4.0557775000000005,-3.1082723,8.599374000000001,0.058589544,-0.026631612000000002,0.12037488,22.56,-18.42,-17.76
1554102935649,-3.9504328,-2.7347770000000002,8.359954,0.049002163,-0.036218993,0.1470065,22.8,-18.0,-17.64
1554102935669,-4.060566000000001,-2.4426842,7.9098440000000005,-0.080960095,-0.043675844000000005,0.18002969,22.98,-17.7,-17.58
1554102935690,-3.8115692,-2.7587189999999997,7.838017999999999,-0.22264028,-0.06178534,0.18216023,23.16,-17.46,-17.46
1554102935711,-3.7445314,-3.1753099999999996,8.3072815,-0.26525086,-0.047936900000000005,0.22903186,23.22,-17.4,-17.58
1554102935730,-3.7301662,-3.1130607000000006,8.230667,-0.21411815,-0.06711166,0.26844665,23.28,-17.4,-17.64
1554102935749,-3.7588966,-2.9454667999999997,8.302493,-0.15126756,-0.07350325,0.22690132,23.22,-17.34,-17.7
1554102935769,-3.7541082,-2.6390088,8.201937,-0.13741912,-0.05006743,0.11930962,23.16,-17.34,-17.88
1554102935789,-3.7732617999999993,-2.5863364,7.890690299999999,-0.16192019,-0.02876214,0.06924219,23.16,-17.34,-18.06
1554102935810,-3.7876269999999996,-3.0508115,7.9529395,-0.18429075,-0.040480047000000005,0.068176925,23.04,-17.4,-18.3
1554102935830,-3.7014358,-3.0556,7.9529395,-0.2034655,-0.05539375,0.07882957,22.98,-17.4,-18.48
1554102935849,-3.7158010000000004,-2.9167361,7.6560583,-0.23968449999999997,-0.06604639400000001,0.06604639400000001,22.92,-17.4,-18.6
1554102935870,-3.6679169999999996,-3.0268695,7.8092875,-0.386691,-0.05539375,0.05006743,22.86,-17.46,-18.6
1554102935890,-3.5434184,-3.1465794999999996,8.206725,-0.43888897,-0.022370555,0.037284255,22.86,-17.46,-18.6
1554102935910,-3.7876269999999996,-3.4721910000000005,8.19236,-0.30679616,-0.011717908999999999,0.012783173500000002,22.86,-17.46,-18.6
1554102935929,-3.8211459999999997,-3.6254199000000003,8.273763,-0.08948222,-0.015978966,-0.018109497,22.8,-17.4,-18.66
1554102935949,-3.8786068,-3.4099417,7.866748299999999,0.01917476,-0.033023197000000004,-0.012783173500000002,22.74,-17.28,-18.66
1554102935971,-3.7828386,-3.0986955000000003,7.74225,-0.07456851,-0.03195793,0.002130529,22.68,-17.16,-18.72
1554102935990,-3.9121256,-3.3620577000000003,7.8428062999999995,-0.18216023,-0.03195793,0.002130529,22.62,-17.04,-18.78
1554102936010,-3.9695864000000003,-3.4530375,8.115746000000001,-0.16618125,-0.04261058,-0.0053263223,22.56,-16.92,-18.84
1554102936030,-3.7158010000000004,-3.5057099999999997,8.039131,-0.09374327,-0.043675844000000005,0.0010652645,22.5,-16.74,-18.9
1554102936050,-3.7828386,-3.5535938999999996,8.154053,-0.010652645,-0.046871635999999994,-0.002130529,22.38,-16.62,-18.9
1554102936070,-3.9264907999999994,-3.2662897,8.077438,0.0031957934000000003,-0.056459017,0.0010652645,22.32,-16.5,-18.96
1554102936090,-3.8163576,-3.2231941,8.048708,-0.07669904,-0.056459017,0.014913702,22.26,-16.32,-18.96
1554102936110,-3.7876269999999996,-3.4338839999999995,8.379107000000001,-0.12676647,-0.026631612000000002,0.010652645,22.26,-16.26,-18.96
1554102936130,-3.7493198,-3.5440169999999998,8.359954,-0.068176925,-0.0010652645,0.01917476,22.32,-16.14,-18.96
1554102936150,-3.739743,-3.5488055,8.201937,-0.033023197000000004,0.010652645,0.026631612000000002,22.32,-15.9,-19.02
1554102936170,-4.012682,-3.1896752999999998,7.9337860000000004,-0.06924219,-0.0053263223,0.025566347000000003,22.32,-15.78,-19.02
1554102936189,-3.8977604,-3.2375592999999996,7.8715367,-0.1438107,-0.008522116,0.03089267,22.26,-15.66,-19.08
1554102936209,-3.7732617999999993,-3.3716345000000003,8.240244,-0.16831179,0.0053263223,0.024501082,22.26,-15.54,-19.14
1554102936229,-3.8738184,-3.4290953,8.201937,-0.14487597,0.014913702,0.023435817999999997,22.26,-15.48,-19.26
1554102936250,-3.7972038,-3.3812113,7.9912467000000005,-0.13635385,0.014913702,0.01917476,22.26,-15.42,-19.38
1554102936269,-3.8067808,-3.4386723,7.9912467000000005,-0.12037488,0.0063915867,-0.0010652645,22.26,-15.36,-19.5
1554102936290,-3.9408559999999997,-3.3333273,7.861960000000001,-0.05539375,-0.040480047000000005,-0.040480047000000005,22.26,-15.3,-19.56
1554102936310,-3.7014358,-3.5392287000000002,8.04392,-0.041545313,-0.05752428,-0.046871635999999994,22.2,-15.36,-19.68
1554102936330,-3.5194763999999994,-3.7020345,8.149264,-0.053263225,-0.041545313,-0.010652645,22.14,-15.36,-19.74
1554102936350,-3.643975,-3.5775358999999995,7.9002669999999995,-0.058589544,-0.03195793,-0.00958738,22.08,-15.36,-19.74
1554102936370,-3.9025488,-3.4051532999999994,7.9050555,-0.05752428,-0.03834952,-0.020240024,22.02,-15.36,-19.8
1554102936392,-3.9264907999999994,-3.481768,7.699153999999999,-0.053263225,-0.049002163,-0.037284255,22.02,-15.3,-19.8
1554102936409,-3.7636849999999997,-3.4530375,7.9529395,-0.04580637,-0.04261058,-0.041545313,21.96,-15.3,-19.8
1554102936431,-3.7445314,-3.6876693,8.034343,-0.04261058,-0.03195793,-0.024501082,21.9,-15.24,-19.74
1554102936451,-3.8642415999999997,-3.7020345,7.9912467000000005,-0.06391586,-0.012783173500000002,-0.002130529,21.9,-15.18,-19.74
1554102936470,-3.916914,-3.5823242999999994,8.048708,-0.07776430000000001,0.008522116,0.02130529,21.84,-15.12,-19.74
1554102936489,-3.9791632000000003,-3.5871127,7.9098440000000005,-0.06391586,0.02130529,0.022370555,21.78,-15.06,-19.74
1554102936510,-3.7924154000000003,-3.6637269999999997,8.048708,-0.046871635999999994,0.047936900000000005,0.023435817999999997,21.78,-15.0,-19.74
1554102936530,-3.8163576,-3.6589386,7.967304700000001,-0.05219796,0.07030745599999999,0.035153727999999995,21.72,-14.94,-19.74
1554102936550,-3.9695864000000003,-3.5966894999999997,7.9625163,-0.09587380000000001,0.09587380000000001,0.03089267,21.72,-14.94,-19.8
1554102936570,-4.0797195,-3.5823242999999994,7.8954787,-0.113983296,0.08948222,0.04261058,21.66,-14.88,-19.8
1554102936590,-4.074930999999999,-3.6254199000000003,8.010401,-0.06604639400000001,0.05539375,0.024501082,21.6,-14.88,-19.8
1554102936609,-3.8402996,-3.6302083,8.230667,-0.029827405,0.047936900000000005,0.027696876000000002,21.6,-14.88,-19.86
1554102936629,-4.036624,-3.3907879999999997,7.9337860000000004,-0.026631612000000002,0.03834952,0.03089267,21.6,-14.88,-19.92
1554102936649,-3.9360676,-3.3333273,8.005612,-0.09267801,0.027696876000000002,0.03834952,21.66,-14.88,-19.98
1554102936669,-3.8881836000000005,-3.3189620000000004,7.6560583,-0.14274544,0.020240024,0.03834952,21.66,-14.88,-20.04
1554102936690,-3.7588966,-3.6924577000000003,8.000824,-0.07882957,0.017044231,0.013848438000000001,21.66,-14.94,-20.1
1554102936709,-3.739743,-3.7738605000000005,7.9337860000000004,0.002130529,0.022370555,0.02130529,21.6,-14.94,-20.16
1554102936729,-3.9073372,-3.5248635000000004,7.8332295,0.010652645,0.024501082,0.011717908999999999,21.54,-14.94,-20.16
1554102936749,-3.9839516,-3.3812113,7.4884644,-0.03195793,0.022370555,-0.011717908999999999,21.48,-14.94,-20.16
1554102936770,-3.98874,-3.6349967000000003,7.536348299999999,-0.04580637,0.0053263223,-0.04261058,21.42,-14.94,-20.22
1554102936790,-3.6727053999999995,-3.9558197999999996,7.9625163,-0.024501082,0.0010652645,-0.047936900000000005,21.36,-14.94,-20.22
1554102936809,-3.7445314,-4.0037036,7.9146323,0.011717908999999999,0.004261058,-0.047936900000000005,21.36,-14.94,-20.22
1554102936831,-3.9073372,-3.840898,7.747038400000001,0.011717908999999999,0.007456851,-0.04261058,21.3,-14.88,-20.28
1554102936850,-4.0509889999999995,-3.6302083,7.732672999999999,0.008522116,-0.0053263223,-0.05006743,21.3,-14.94,-20.28
1554102936870,-4.0940847,-3.6062663,7.627327999999999,0.05539375,-0.04474111,-0.06711166,21.36,-14.94,-20.28
1554102936889,-3.9504328,-3.888782,7.838017999999999,0.09054748,-0.07882957,-0.07137272,21.36,-15.0,-20.28
1554102936909,-3.9025488,-3.7020345,8.106169,0.096939065,-0.10333065,-0.07989483,21.42,-15.0,-20.28
1554102936930,-4.0701427,-3.5440169999999998,7.7997108,0.03089267,-0.10759171,-0.07563378,21.42,-15.06,-20.22
1554102936950,-4.2425256,-3.6828809000000002,7.9625163,-0.014913702,-0.1107875,-0.068176925,21.48,-15.06,-20.22
1554102936970,-4.0462008,-3.697246,8.149264,0.008522116,-0.11930962,-0.04580637,21.48,-15.06,-20.16
1554102936989,-3.9935283999999998,-3.615843,8.115746000000001,0.07563378,-0.12463594,-0.04474111,21.48,-15.12,-20.16
1554102937009,-3.8977604,-3.6062663,8.230667,0.09161274,-0.07989483,-0.014913702,21.48,-15.12,-20.16
1554102937030,-4.1515455,-3.6110547,8.04392,0.07137272,-0.034088463,-0.011717908999999999,21.48,-15.12,-20.16
1554102937050,-4.0845080000000005,-3.5631707,7.7374616,0.07882957,-0.027696876000000002,-0.018109497,21.48,-15.12,-20.22
1554102937069,-4.0653543,-3.4578260000000003,7.6800003,0.12037488,-0.024501082,-0.035153727999999995,21.48,-15.12,-20.28
1554102937089,-3.9743748,-3.7020345,8.034343,0.17257284,-0.002130529,-0.041545313,21.48,-15.18,-20.28
1554102937109,-3.8546648,-3.6062663,8.144476,0.18748654,0.014913702,-0.022370555,21.42,-15.18,-20.34
1554102937130,-3.9600096,-3.5104983,7.8428062999999995,0.16405073,0.03195793,-0.036218993,21.42,-15.18,-20.34
1554102937149,-4.003105000000001,-3.4721910000000005,8.053496,0.10865697,0.036218993,-0.046871635999999994,21.42,-15.18,-20.34
1554102937170,-4.0270470000000005,-3.2854433,7.785345599999999,0.07030745599999999,0.018109497,-0.03834952,21.42,-15.18,-20.34
1554102937189,-4.0892963,-3.5009214999999996,7.838017999999999,0.037284255,0.0010652645,-0.037284255,21.42,-15.18,-20.28
1554102937209,-3.7780502,-3.3907879999999997,8.058285,0.03089267,-0.0063915867,-0.0063915867,21.42,-15.18,-20.22
1554102937230,-3.5913025999999997,-3.2662897,8.31207,-0.04261058,0.03089267,0.0,21.42,-15.18,-20.16
1554102937249,-3.8211459999999997,-3.5488055,8.31207,-0.07989483,0.08841695,0.012783173500000002,21.42,-15.18,-20.16
1554102937269,-3.9647980000000005,-3.5583823,7.9337860000000004,-0.00958738,0.06924219,-0.0010652645,21.48,-15.3,-20.16
1554102937289,-3.8211459999999997,-3.1226375,7.7518270000000005,0.12783173,0.05219796,-0.04580637,21.42,-15.36,-20.16
1554102937309,-3.9839516,-2.9406781000000004,7.5650787,0.16085494,0.010652645,-0.027696876000000002,21.42,-15.48,-20.16
1554102937329,-3.7014358,-3.3333273,7.8428062999999995,0.06391586,0.027696876000000002,0.00958738,21.42,-15.6,-20.16
1554102937350,-3.4093432,-3.5392287000000002,8.067862,0.024501082,0.023435817999999997,0.015978966,21.42,-15.72,-20.16
1554102937371,-3.5673605999999998,-3.5871127,8.125322,0.06711166,0.033023197000000004,-0.00958738,21.42,-15.96,-20.16
1554102937390,-3.5051112,-3.6828809000000002,8.240244,0.10226539,0.047936900000000005,0.024501082,21.42,-16.02,-20.16
1554102937409,-3.7445314,-3.5440169999999998,8.115746000000001,0.17363810000000002,0.054328485999999995,0.017044231,21.42,-16.14,-20.16
1554102937432,-3.8450879999999996,-3.1800982999999996,8.120534,0.23542345,0.07669904,-0.025566347000000003,21.42,-16.14,-20.1
1554102937449,-3.9360676,-3.0747535,7.6608467000000005,0.25566345,0.05965481,-0.018109497,21.42,-16.2,-20.1
1554102937469,-4.1371803,-2.9502552000000004,7.8188642999999995,0.2727077,0.034088463,-0.011717908999999999,21.42,-16.2,-20.04
1554102937489,-4.1132383,-3.0364463,8.005612,0.17470337,0.02876214,0.033023197000000004,21.42,-16.26,-19.98
1554102937510,-4.0557775000000005,-3.007716,8.058285,0.018109497,0.0063915867,0.04580637,21.42,-16.32,-19.86
1554102937529,-4.338293599999999,-3.1992521000000003,8.16363,-0.049002163,0.0053263223,0.04474111,21.42,-16.44,-19.8
1554102937549,-4.2185836,-3.103484,8.125322,-0.014913702,-0.047936900000000005,0.10652645,21.42,-16.56,-19.68
1554102937570,-4.0270470000000005,-2.959832,8.067862,0.06604639400000001,-0.07030745599999999,0.036218993,21.42,-16.8,-19.5
1554102937590,-4.1419687000000005,-2.830545,8.31207,0.07882957,-0.054328485999999995,0.034088463,21.48,-16.98,-19.44
1554102937610,-4.223372,-3.0172927000000005,8.005612,0.1107875,-0.043675844000000005,0.07243799,21.48,-17.1,-19.38
1554102937629,-4.1371803,-3.0268695,7.996035000000001,0.12996227,-0.07243799,0.06924219,21.48,-17.34,-19.38
1554102937650,-4.1419687000000005,-2.7922377999999997,8.494029,0.06391586,-0.07882957,0.07243799,21.48,-17.46,-19.38
1554102937669,-4.0797195,-2.4905684,8.412626,-0.040480047000000005,-0.05219796,0.112918034,21.48,-17.7,-19.44
1554102937689,-4.1659107,-2.5288756,7.996035000000001,-0.14807177,-0.020240024,0.06178534,21.48,-17.88,-19.5
1554102937711,-4.0653543,-3.0556,7.6943655,-0.2130529,-0.013848438000000001,-0.012783173500000002,21.48,-18.0,-19.5
1554102937730,-4.2760444,-3.6014779000000003,7.7997108,-0.1587244,-0.05219796,0.012783173500000002,21.48,-18.12,-19.56
1554102937749,-3.8738184,-3.7594953,8.206725,-0.00958738,-0.12144015,0.13848437,21.48,-18.24,-19.56
1554102937771,-3.8402996,-2.8592752999999997,8.091804,0.14274544,-0.16618125,0.07030745599999999,21.48,-18.36,-19.56
1554102937790,-4.0318356,-2.8688521000000002,7.885902000000001,0.18109496,-0.14168017,-0.007456851,21.42,-18.42,-19.56
1554102937810,-3.8546648,-2.9454667999999997,7.9529395,0.17150758,-0.13102753,-0.011717908999999999,21.42,-18.54,-19.56
1554102937829,-3.9073372,-3.1082723,8.225878999999999,0.09374327,-0.08841695,0.02130529,21.36,-18.54,-19.5
1554102937850,-3.8929720000000003,-3.1896752999999998,7.972092999999999,0.07776430000000001,-0.10972224,0.022370555,21.24,-18.54,-19.5
1554102937869,-3.9743748,-3.007716,7.852383000000001,0.05752428,-0.15446335,-0.002130529,21.06,-18.6,-19.5
1554102937890,-3.5338415999999997,-2.9215245,8.417415,-0.10333065,-0.10333065,0.03195793,20.88,-18.66,-19.5
1554102937910,-3.7062242,-2.8688521000000002,8.350377,-0.1768339,-0.058589544,0.053263225,20.7,-18.78,-19.5
1554102937929,-3.8929720000000003,-2.710835,7.9864583,-0.20879184,-0.018109497,0.022370555,20.52,-18.9,-19.5
1554102937949,-3.9264907999999994,-2.782661,7.967304700000001,-0.16192019,0.0031957934000000003,0.027696876000000002,20.34,-19.02,-19.5
1554102937970,-3.8738184,-3.1465794999999996,8.297705,-0.06498113,0.004261058,0.04474111,20.16,-19.14,-19.56
1554102937990,-3.8642415999999997,-3.2040405,8.661622999999999,-0.06178534,0.033023197000000004,0.053263225,20.04,-19.2,-19.56
1554102938010,-4.0270470000000005,-2.9741971,8.3551655,-0.05965481,0.04580637,0.053263225,19.92,-19.26,-19.62
1554102938029,-4.10845,-2.7012582000000003,8.374319,-0.10226539,0.08628642,0.046871635999999994,19.92,-19.32,-19.62
1554102938050,-4.223372,-2.5719712,8.087015,-0.2034655,0.080960095,0.08841695,19.92,-19.32,-19.68
1554102938069,-4.098873,-2.830545,8.297705,-0.29614353,0.084155895,0.096939065,19.98,-19.32,-19.74
1554102938089,-4.1802763999999994,-3.2375592999999996,8.3408,-0.34514567,0.09054748,0.10546118,20.1,-19.32,-19.8
1554102938110,-4.434061499999999,-3.3907879999999997,8.240244,-0.25033715,0.06711166,0.1438107,20.16,-19.26,-19.86
1554102938131,-4.2185836,-3.141791,8.546700999999999,-0.15020229,0.084155895,0.15020229,20.22,-19.26,-19.92
1554102938150,-4.247314,-2.9502552000000004,8.3072815,-0.034088463,0.080960095,0.13848437,20.28,-19.2,-19.98
1554102938171,-4.43885,-2.7060466,8.053496,0.041545313,0.04580637,0.12676647,20.34,-19.14,-20.04
1554102938191,-4.290409599999999,-2.8880057,8.067862,0.024501082,0.05219796,0.13741912,20.4,-19.02,-20.1
1554102938210,-4.338293599999999,-3.1609447,8.556278,0.010652645,0.046871635999999994,0.18855181,20.4,-18.9,-20.16
1554102938230,-4.338293599999999,-3.328539,8.532336,0.128897,0.024501082,0.21624869,20.4,-18.84,-20.22
1554102938250,-4.3718123,-3.0747535,8.757391,0.32170987,0.024501082,0.18642128,20.34,-18.72,-20.28
1554102938269,-4.1706996,-2.7635074,8.872313,0.42397526,0.06604639400000001,0.19813919,20.22,-18.72,-20.34
1554102938289,-4.5154643,-2.7347770000000002,8.675988,0.43675843,0.112918034,0.23968449999999997,20.1,-18.78,-20.4
1554102938309,-4.707000700000001,-2.959832,8.714295,0.39414784,0.12037488,0.32277513,19.98,-19.02,-20.4
1554102938330,-4.644751,-3.0556,8.508394000000001,0.40586576,0.11824436,0.38562572,19.86,-19.32,-20.4
1554102938350,-4.525041000000001,-2.3133974,8.690353,0.5113269,0.112918034,0.41758367,19.68,-19.92,-20.28
1554102938370,-4.3718123,-2.1745335999999997,8.3312235,0.45273739999999996,0.17257284,0.44421527,19.56,-20.28,-20.16
1554102938389,-4.5394063,-2.2942438,8.292916,0.34514567,0.25353295,0.46232477,19.44,-20.7,-20.04
1554102938409,-4.635174299999999,-2.4953567999999997,8.379107000000001,0.36325517,0.28868666,0.4644553,19.38,-21.18,-19.86
1554102938430,-4.596867,-2.2224178,8.067862,0.47404268,0.29294774,0.45380265,19.32,-21.6,-19.74
1554102938449,-4.534618,-1.9782091,8.120534,0.50173956,0.31318775,0.44741106,19.26,-22.02,-19.62
1554102938470,-4.525041000000001,-1.762731,7.7087307,0.43249738,0.34088463,0.44101948,19.14,-22.5,-19.44
1554102938489,-4.7022123,-1.8584990000000001,7.612962700000001,0.32384038,0.3536678,0.43569317,19.08,-23.16,-19.32
1554102938509,-4.6591167,-1.7818846999999998,7.617750999999999,0.20772657,0.35473305,0.44847634,18.96,-23.76,-19.2
1554102938529,-4.7357309999999995,-1.6861166,7.5985975,0.15552860000000002,0.34088463,0.44421527,18.9,-24.42,-19.08
1554102938550,-4.7740383,-1.8154035,8.000824,0.14168017,0.36964676,0.44315,18.78,-25.02,-18.9
1554102938570,-4.8841715,-1.6430208999999998,7.814075999999999,0.15339808,0.40266997,0.45167214,18.72,-25.62,-18.78
1554102938590,-4.903325,-1.4514848,7.6369047000000005,0.165116,0.44421527,0.43888897,18.66,-26.22,-18.48
1554102938609,-5.046977,-1.6525976999999998,7.435792,0.112918034,0.4825648,0.41758367,18.6,-26.82,-18.12
1554102938630,-5.1475334,-1.4227544,7.478887599999999,0.08841695,0.50387007,0.39201729999999996,18.6,-27.42,-17.76
1554102938649,-5.1762643,-1.1881226,7.4645224,0.10546118,0.5187838,0.33662358,18.6,-27.78,-17.4
1554102938670,-5.2002063,-1.1402385,7.368754400000001,0.07137272,0.5571333,0.31212249999999997,18.54,-28.2,-17.1
1554102938689,-5.473145,-0.84335756,6.928221000000001,-0.023435817999999997,0.58269966,0.30466563,18.54,-28.56,-16.8
1554102938710,-5.741296,-0.9487024,6.8132997,-0.10865697,0.5795039000000001,0.28336033,18.6,-28.92,-16.56
1554102938730,-5.659893,-0.9343372,6.870760400000001,-0.165116,0.54648066,0.25885928,18.6,-29.28,-16.26
1554102938750,-5.60722,-0.86729956,6.870760400000001,-0.16831179,0.5123922000000001,0.22796659,18.66,-29.52,-16.14
1554102938769,-5.693412,-0.694917,6.870760400000001,-0.17470337,0.49215218,0.19920446,18.66,-29.7,-16.14
1554102938790,-5.9567738,-0.694917,6.4350157,-0.20985709,0.45486793,0.15233281,18.72,-29.64,-16.14
1554102938809,-5.9280434,-0.7667431,6.559514,-0.22477080000000002,0.39627838,0.10865697,18.78,-29.7,-16.08
1554102938829,-5.90889,-0.96306765,6.880337,-0.2034655,0.34834146,0.05752428,18.84,-29.64,-16.08
1554102938850,-6.0046577,-0.8242039000000001,7.0048356,-0.15339808,0.30892670000000005,0.011717908999999999,18.84,-29.58,-16.02
1554102938869,-6.2632318,-0.670975,6.9665284,-0.1107875,0.26418558,-0.03834952,18.9,-29.58,-15.96
1554102938890,-6.2345014,-0.7284359,6.9904703999999995,-0.12463594,0.21944448,-0.04474111,18.96,-29.52,-15.9
1554102938910,-6.2823853,-0.99179804,6.913856,-0.16724652,0.18109496,-0.058589544,18.96,-29.52,-15.84
1554102938929,-6.373365,-1.1354501000000001,7.1580644,-0.23435818,0.18109496,-0.08948222,18.96,-29.46,-15.72
1554102938952,-6.349423000000001,-1.1737574,7.038354400000001,-0.26631612,0.20559604,-0.11930962,18.96,-29.4,-15.66
1554102938969,-6.555324000000001,-1.2455834,6.923433,-0.24607609,0.22477080000000002,-0.11611383,19.02,-29.34,-15.6
1554102938989,-6.627150500000001,-1.4371196000000002,6.84203,-0.21837921,0.24501082,-0.10972224,19.14,-29.34,-15.48
1554102939011,-6.617573299999999,-1.6047136999999998,6.865972,-0.31212249999999997,0.2908172,-0.09054748,19.2,-29.28,-15.42
1554102939029,-6.5984197,-1.8584990000000001,6.755839,-0.4825648,0.36005938,-0.06178534,19.32,-29.22,-15.36
1554102939050,-6.8426285,-1.8537107,6.5307837,-0.5997439,0.41545314,-0.05752428,19.44,-29.16,-15.3
1554102939070,-6.780379300000001,-2.0452468,6.569091,-0.56459016,0.45699844,-0.037284255,19.56,-29.1,-15.24
1554102939090,-6.6606693,-2.1027076,6.63134,-0.44634579999999996,0.5028047999999999,-0.0063915867,19.8,-28.86,-15.24
1554102939109,-6.5505357,-2.2559366,6.415862000000001,-0.3291667,0.56459016,-0.023435817999999997,20.1,-28.62,-15.24
1554102939130,-6.363788,-2.179322,5.917868,-0.31851408,0.65194184,-0.09374327,20.34,-28.32,-15.24
1554102939150,-6.991069,-1.9303252,5.237914599999999,-0.44421527,0.7222493000000001,-0.19600865,20.7,-27.72,-15.24
1554102939169,-7.268796400000001,-1.8058267,5.175665400000001,-0.58269966,0.7030744999999999,-0.19281286,20.82,-27.48,-15.24
1554102939189,-7.0341644,-2.1218612,5.798158,-0.76592517,0.700944,-0.1470065,21.12,-27.0,-15.24
1554102939210,-7.2448545,-2.4474726,6.545148999999999,-0.6849651,0.76592517,-0.12783173,21.54,-26.04,-15.18
1554102939230,-7.4603324,-2.7922377999999997,6.535572,-0.40266997,0.84581995,-0.10652645,21.78,-25.38,-15.12
1554102939250,-8.0445175,-2.4331074,5.486912,-0.13102753,0.88843054,-0.113983296,21.9,-24.84,-15.06
1554102939270,-8.0445175,-2.2750902,4.830900700000001,-0.036218993,0.93423694,-0.17363810000000002,22.08,-24.36,-15.0
1554102939289,-8.025364,-2.4474726,4.9745526,-0.16298546,0.9416938,-0.16724652,22.44,-23.94,-14.94
1554102939310,-8.111555000000001,-2.6868927000000005,5.4055089999999995,-0.29614353,0.93423694,-0.049002163,22.86,-23.58,-14.88
1554102939329,-8.346188,-2.6725276,5.462969999999999,-0.3270362,0.93849796,0.027696876000000002,23.34,-23.16,-14.76
1554102939349,-8.6813755,-2.404377,5.1038394,-0.29188246,0.94275904,0.056459017,23.88,-22.74,-14.64
1554102939370,-8.743625,-2.2080526000000003,5.146935,-0.30999196,0.9651296,0.10759171,24.3,-22.32,-14.46
1554102939389,-8.829816000000001,-1.9494787,4.912303400000001,-0.33768883,0.9619338,0.16192019,24.78,-21.96,-14.22
1554102939409,-8.614338,-1.762731,5.0224366,-0.4101268,0.9438243000000001,0.23648871,25.26,-21.6,-13.98
1554102939430,-8.671799,-1.513734,4.8404775,-0.5219796,0.9257148000000001,0.27483824,25.74,-21.3,-13.56
1554102939449,-8.920795,-1.2216414,4.2610803,-0.53263223,0.84688526,0.29294774,26.1,-20.94,-13.08
1554102939469,-8.949525999999999,-1.6717514,3.6721067,-0.44634579999999996,0.6924219,0.29507825,26.4,-20.64,-12.6
1554102939490,-8.954314,-1.8632874,3.3991678,-0.48469532,0.53476274,0.34194988,26.58,-20.4,-12.12
1554102939510,-9.093178,-1.8968061999999999,3.447052,-0.628506,0.44208476,0.406931,26.76,-20.28,-11.64
1554102939530,-8.916007,-2.0117279999999997,3.7199910000000003,-0.7286409,0.47936899999999993,0.38349520000000004,26.94,-20.22,-11.22
1554102939549,-8.978256,-2.083554,3.7247794,-0.6317018,0.55074173,0.33768883,27.06,-20.22,-10.92
1554102939570,-8.882488,-2.131438,3.2507273999999997,-0.41225734,0.5603291,0.3323625,27.24,-20.22,-10.62
1554102939590,-8.949525999999999,-2.1888987999999996,3.0160956000000003,-0.01917476,0.49534798,0.33555830000000003,27.36,-20.16,-10.5
1554102939609,-8.762777999999999,-1.8584990000000001,3.0544027999999996,0.26205507,0.38242993,0.34194988,27.36,-20.16,-10.44
1554102939629,-8.868122999999999,-1.6190788999999999,2.7670987,0.36005938,0.30360037,0.32810146,27.36,-20.1,-10.38
1554102939650,-8.916007,-1.6669630000000002,2.8006175,0.20026971,0.29614353,0.25992453,27.36,-20.1,-10.38
1554102939670,-8.839393,-1.4610616,2.4366987,0.060720075,0.28442562,0.21198763,27.42,-20.16,-10.32
1554102939690,-8.863335000000001,-1.8632874,2.3265655,0.03195793,0.2545982,0.20133498,27.48,-20.28,-10.26
1554102939710,-8.839393,-2.0165164,2.4558525,0.03195793,0.21092236,0.23755397,27.48,-20.46,-10.14
1554102939729,-8.671799,-1.9063831999999998,2.5755625,0.02130529,0.18109496,0.25885928,27.54,-20.7,-10.02
1554102939749,-8.738836000000001,-1.5951369,2.498948,-0.051132694000000006,0.2066613,0.24714136,27.54,-21.0,-9.84
1554102939769,-9.002198,-1.46585,2.3696610000000002,-0.16724652,0.24820662,0.21198763,27.54,-21.3,-9.72
1554102939790,-9.193734,-1.4945803999999998,2.321777,-0.23222765,0.23435818,0.20985709,27.42,-21.6,-9.6
1554102939810,-8.8777,-1.7340006000000001,2.0536265,-0.23861924,0.17363810000000002,0.2066613,27.42,-21.9,-9.48
1554102939830,-8.8777,-1.8106151000000001,2.3936029999999997,-0.28655612,0.13635385,0.20240025,27.3,-22.2,-9.36
1554102939851,-9.093178,-1.7818846999999998,2.0679917000000003,-0.34408042,0.12570119999999999,0.1949434,27.24,-22.5,-9.3
1554102939871,-9.246407000000001,-1.5711948999999998,2.2164322999999997,-0.44847634,0.09267801,0.18535602,27.24,-22.68,-9.3
1554102939891,-9.121908,-1.417966,2.0679917000000003,-0.45486793,0.046871635999999994,0.17044231,27.18,-22.8,-9.24
1554102939910,-9.069236,-1.5089456,2.3505075,-0.33981937,-0.0031957934000000003,0.13635385,27.12,-22.92,-9.24
1554102939930,-9.150639,-1.5472529,2.2930467,-0.27377295,-0.039414786,0.13315806,27.06,-23.04,-9.24
1554102939950,-8.872911,-1.46585,2.3840263,-0.27696875,-0.054328485999999995,0.12037488,27.12,-23.16,-9.24
1554102939969,-9.088389,-1.5376761,2.3983915000000002,-0.28442562,-0.04474111,0.084155895,27.12,-23.22,-9.3
1554102939991,-9.3661175,-1.3940238999999999,2.1206641,-0.28655612,-0.047936900000000005,0.06924219,27.06,-23.28,-9.3
1554102940010,-9.112331,-1.3221979,2.0488381,-0.21624869,-0.094808534,0.002130529,27.06,-23.22,-9.48
1554102940029,-9.002198,-1.3988123,2.130241,-0.2695119,-0.13209279,-0.04580637,27.0,-23.16,-9.66
1554102940049,-9.150639,-1.5855601000000001,2.2307975,-0.3717773,-0.15020229,-0.053263225,26.94,-23.04,-9.84
1554102940070,-9.188946000000001,-1.4323312,2.321777,-0.47297743,-0.17044231,-0.03089267,26.88,-22.98,-9.96
1554102940089,-9.23683,-1.3892354999999998,2.6521769,-0.6135923000000001,-0.17896444,0.011717908999999999,26.64,-22.68,-10.32
1554102940110,-9.275136999999999,-1.3461398999999998,3.198055,-0.49641323,-0.17044231,0.015978966,26.52,-22.5,-10.56
1554102940129,-9.260772,-1.5041572,3.2650926,-0.29614353,-0.15020229,-0.013848438000000001,26.52,-22.38,-10.8
1554102940149,-9.294291000000001,-1.46585,2.8772318,-0.08735169,-0.12996227,-0.023435817999999997,26.34,-22.2,-10.98
1554102940170,-9.437942999999999,-1.4371196000000002,2.7814639,-0.07243799,-0.10652645,0.018109497,26.22,-22.08,-11.16
1554102940189,-9.370906,-1.3940238999999999,2.6378117000000003,-0.068176925,-0.08841695,0.010652645,26.1,-21.96,-11.34
1554102940210,-9.227253,-1.441908,2.7383683,0.0,-0.06711166,-0.01917476,26.04,-21.9,-11.52
1554102940230,-9.255983,-1.5759833,2.7287915000000003,0.06178534,-0.05539375,-0.024501082,25.98,-21.84,-11.82
1554102940249,-9.346964,-1.5855601000000001,2.5899277,0.035153727999999995,-0.017044231,0.0063915867,25.92,-21.84,-12.06
1554102940270,-9.332599,-1.6861166,2.5803509,0.0031957934000000003,-0.007456851,0.039414786,25.86,-21.78,-12.24
1554102940290,-9.11712,-1.7770962,2.4462755,0.029827405,-0.0063915867,0.029827405,25.8,-21.72,-12.42
1554102940309,-8.963891,-1.7100586,2.6234465,0.096939065,-0.008522116,0.008522116,25.74,-21.66,-12.54
1554102940330,-9.064447,-1.4323312,2.8389246,0.16405073,0.0053263223,0.020240024,25.68,-21.66,-12.66
1554102940350,-9.097966,-1.3652935,2.6330232999999996,0.165116,0.027696876000000002,0.04474111,25.62,-21.6,-12.72
1554102940370,-9.150639,-1.3030443,2.331354,0.15552860000000002,0.036218993,0.03834952,25.62,-21.6,-12.72
1554102940389,-9.246407000000001,-1.2743138,2.1829132999999996,0.14594123,0.0031957934000000003,0.026631612000000002,25.62,-21.72,-12.6
1554102940409,-9.040505,-1.0588357,2.7240029999999997,0.08841695,-0.02130529,0.014913702,25.62,-21.78,-12.54
1554102940429,-9.083601,-1.3078326999999998,2.8772318,0.036218993,0.0031957934000000003,-0.025566347000000003,25.62,-21.9,-12.48
1554102940450,-9.390058999999999,-1.5711948999999998,2.7670987,0.03089267,0.047936900000000005,-0.022370555,25.62,-22.02,-12.42
1554102940470,-9.3661175,-1.6286557,2.7000610000000003,0.094808534,0.053263225,0.0031957934000000003,25.68,-22.14,-12.3
1554102940490,-9.370906,-1.5089456,2.6378117000000003,0.16724652,0.036218993,0.04474111,25.68,-22.26,-12.3
1554102940509,-9.351752000000001,-1.1737574,2.4271219,0.1768339,0.011717908999999999,0.068176925,25.68,-22.38,-12.3
1554102940530,-9.131485000000001,-1.0348936,2.5228900000000003,0.13741912,0.0,0.08522116,25.68,-22.5,-12.24
1554102940550,-8.949525999999999,-0.8242039000000001,2.5851393,0.15659387,-0.01917476,0.06604639400000001,25.68,-22.56,-12.24
1554102940569,-8.815451,-0.57999533,2.0632033,0.14274544,-0.058589544,0.014913702,25.68,-22.68,-12.24
1554102940589,-8.839393,-0.52732295,2.4462755,-0.007456851,-0.09374327,-0.06711166,25.62,-22.8,-12.18
1554102940610,-8.892064999999999,-0.84335756,2.6282349,-0.16298546,-0.07776430000000001,-0.14913702,25.56,-22.92,-12.18
1554102940629,-9.150639,-1.7340006000000001,2.570774,-0.2034655,-0.058589544,-0.1949434,25.56,-23.04,-12.18
1554102940650,-9.595961,-2.0165164,2.7383683,-0.16085494,-0.026631612000000002,-0.16298546,25.5,-23.16,-12.18
1554102940670,-9.677363,-1.8728642,2.8820202,-0.05965481,0.015978966,-0.112918034,25.5,-23.22,-12.12
1554102940690,-9.744401,-1.6861166,2.5755625,0.03089267,0.027696876000000002,-0.034088463,25.44,-23.28,-12.06
1554102940710,-9.624691,-1.6813281999999998,2.5851393,0.05219796,0.035153727999999995,0.06924219,25.5,-23.28,-12.06
1554102940730,-9.758766,-1.5664065,2.9011737999999996,0.08628642,0.03195793,0.18535602,25.5,-23.28,-12.0
1554102940749,-9.619903,-1.2503718000000001,2.9634232999999996,0.15446335,0.01917476,0.27483824,25.56,-23.28,-12.0
1554102940769,-9.423578,-0.9295488000000001,2.7000610000000003,0.16724652,0.008522116,0.30999196,25.56,-23.22,-11.94
1554102940791,-9.217675999999999,-0.7858967,2.6569653,0.112918034,0.01917476,0.28549087,25.56,-23.22,-11.88
1554102940810,-9.054871,-0.99658644,2.6809072,0.13209279,0.017044231,0.23755397,25.56,-23.28,-11.82
1554102940830,-8.829816000000001,-0.7140707,2.4223334999999997,0.21731395,-0.00958738,0.17150758,25.56,-23.34,-11.76
1554102940849,-8.690952000000001,-0.46507367,2.2499511,0.16831179,-0.024501082,0.113983296,25.5,-23.4,-11.7
1554102940869,-8.63828,-0.42197806,2.2930467,0.008522116,-0.034088463,0.047936900000000005,25.32,-23.46,-11.64
1554102940890,-8.676587,-0.44113165,2.273893,-0.053263225,-0.004261058,-0.08841695,25.2,-23.58,-11.64
1554102940909,-9.203311,-1.3844471,2.7240029999999997,-0.16937704,0.020240024,-0.10972224,25.02,-23.7,-11.64
1554102940929,-9.284714,-1.3365631000000002,2.7048495,-0.11504856,0.017044231,-0.053263225,24.9,-23.82,-11.64
1554102940950,-9.313444,-0.55126494,2.5899277,-0.014913702,0.0,-0.06391586,24.72,-24.06,-11.7
1554102940970,-9.169792,-0.4794389,2.7527334999999997,-0.06924219,0.014913702,-0.08841695,24.6,-24.18,-11.7
1554102940989,-9.404425,-0.86251116,2.9203273999999997,-0.10439592,0.02876214,-0.10013486,24.54,-24.3,-11.7
1554102941010,-9.26556,-1.2216414,2.9682117000000003,-0.04261058,0.034088463,-0.07350325,24.54,-24.42,-11.7
1554102941029,-9.370906,-1.1402385,2.7910407000000004,0.07456851,0.035153727999999995,-0.05219796,24.54,-24.48,-11.7
1554102941049,-9.390058999999999,-0.8194155000000001,2.5899277,0.13741912,0.029827405,-0.039414786,24.6,-24.54,-11.7
1554102941070,-9.294291000000001,-0.88645315,2.4319102999999997,0.12037488,0.027696876000000002,-0.049002163,24.6,-24.6,-11.7
1554102941090,-9.370906,-0.75716627,2.331354,0.05965481,0.013848438000000001,-0.07456851,24.6,-24.6,-11.7
1554102941109,-9.260772,-0.9008184000000001,2.4079683,-0.036218993,0.00958738,-0.06711166,24.66,-24.6,-11.64
1554102941130,-9.323022,-0.95827925,2.5516205000000003,-0.10759171,0.0,-0.05006743,24.66,-24.6,-11.64
1554102941149,-9.433155000000001,-0.9487024,2.747945,-0.09587380000000001,0.008522116,-0.039414786,24.66,-24.6,-11.58
1554102941169,-9.26556,-1.0253168,2.6521769,-0.022370555,0.023435817999999997,-0.041545313,24.72,-24.6,-11.52
1554102941189,-9.313444,-0.9439139999999999,2.4702177000000005,0.041545313,0.018109497,-0.068176925,24.72,-24.6,-11.52
1554102941210,-9.260772,-0.8098387,2.7000610000000003,0.024501082,0.025566347000000003,-0.06391586,24.78,-24.66,-11.46
1554102941230,-9.3182335,-1.0109516,2.5372553,0.017044231,0.02876214,-0.068176925,24.84,-24.66,-11.46
1554102941249,-9.26556,-1.0588357,2.3936029999999997,-0.0063915867,0.025566347000000003,-0.051132694000000006,24.84,-24.66,-11.4
1554102941269,-9.169792,-1.1881226,2.532467,-0.0053263223,0.010652645,-0.036218993,24.9,-24.6,-11.4
1554102941290,-9.246407000000001,-0.86729956,2.5851393,0.02130529,-0.0053263223,-0.037284255,24.9,-24.6,-11.4
1554102941309,-9.155427,-0.95827925,2.5420437000000002,0.03089267,-0.008522116,-0.033023197000000004,24.96,-24.6,-11.46
1554102941329,-9.26556,-0.8912416,2.484583,-0.0031957934000000003,-0.007456851,-0.05752428,24.96,-24.6,-11.46
1554102941350,-9.835381,-1.4227544,2.7240029999999997,-0.05006743,-0.013848438000000001,-0.046871635999999994,25.02,-24.6,-11.52
1554102941369,-8.825027,-0.7715314999999999,2.6569653,-0.010652645,0.02876214,-0.011717908999999999,25.02,-24.48,-11.52
1554102941389,-8.949525999999999,-0.54647654,2.498948,0.01917476,0.018109497,-0.221575,25.08,-24.42,-11.58
1554102941410,-8.734048,-0.010175358,2.6569653,-0.05752428,0.0053263223,-0.30679616,25.14,-24.36,-11.58
1554102941429,-8.327033,-0.76195467,2.6138697,-0.15339808,0.02130529,-0.39201729999999996,25.2,-24.3,-11.58
1554102941450,-8.719683,-1.3605051000000001,2.8868085999999997,-0.17363810000000002,0.047936900000000005,-0.42930159999999995,25.26,-24.24,-11.58
1554102941470,-8.710106,-1.7483658,2.8101943,-0.06604639400000001,0.027696876000000002,-0.41864893,25.26,-24.12,-11.58
1554102941489,-8.480263,-1.6813281999999998,3.2028434,0.15126756,-0.025566347000000003,-0.43462790000000007,25.32,-23.94,-11.58
1554102941509,-7.9822683,-1.1833341999999998,3.365649,0.41545314,-0.10333065,-0.54435015,25.38,-23.82,-11.58
1554102941530,-8.374918,-0.5943606,3.1118636000000004,0.6689861,-0.18216023,-0.6327670999999999,25.38,-23.7,-11.52
1554102941550,-8.695741,-0.75716627,2.8628666000000003,0.8841694999999999,-0.21092236,-0.6785734,25.44,-23.64,-11.52
1554102941570,-8.5473,-1.1881226,2.7575218999999995,0.9193232,-0.26312032,-0.7094661,25.44,-23.52,-11.4
1554102941589,-8.159439,-1.3940238999999999,2.5037365,0.78936094,-0.36218992,-0.7797736,25.5,-23.34,-11.22
1554102941609,-7.9104424,-1.4371196000000002,2.8101943,0.6689861,-0.57311225,-0.8149273,25.62,-23.22,-11.04
1554102941630,-8.015787,-1.2695253999999998,3.0831332000000002,0.5773733,-0.809601,-0.81918836,25.74,-23.04,-10.86
1554102941650,-7.704541000000001,-1.1258733,3.8301241000000004,0.6423545,-1.0002834,-0.8948221,25.92,-22.74,-10.68
1554102941670,-7.2352777,-1.3940238999999999,3.8349125,0.8586031999999999,-1.1515508999999997,-1.0396981,26.16,-22.56,-10.5
1554102941689,-7.053317999999999,-1.5759833,3.6337996,1.1068097,-1.3592775,-1.1472898999999999,26.4,-22.38,-10.38
1554102941709,-7.077260000000001,-2.2463598,3.9737763,1.3177321000000002,-1.5957662000000001,-1.3432984,26.64,-22.08,-10.26
1554102941729,-6.847417,-2.212841,4.2419267,1.3859091000000001,-1.8290591,-1.5819178,26.88,-21.78,-10.2
1554102941753,-6.2009826,-2.3660697999999996,4.9745526,1.4317155000000001,-1.9739349999999998,-1.8013622,27.06,-21.42,-10.32
1554102941770,-5.592855,-2.7252002,5.4964886,1.4327807,-1.9888487000000001,-1.9504991999999999,27.24,-21.12,-10.44
1554102941789,-5.391742,-3.2136172999999997,5.8508306,1.3859091000000001,-1.9174759999999997,-2.1007016,27.42,-20.82,-10.62
1554102941809,-5.2241483,-3.2854433,5.7454852999999995,1.3134711000000001,-1.865278,-2.198706,27.42,-20.64,-10.68
1554102941830,-5.2241483,-3.6110547,5.7454852999999995,1.220793,-1.8333201000000001,-2.3819312999999998,27.48,-20.34,-10.86
1554102941849,-4.501099,-4.362833999999999,6.4398040000000005,0.8990832000000001,-1.7427727,-2.5470474,27.48,-19.62,-11.22
1554102941869,-4.156333999999999,-4.7842135,6.684012400000001,0.56459016,-1.6000272,-2.621616,27.48,-19.08,-11.52
1554102941889,-4.247314,-5.406706,7.1580644,0.30892670000000005,-1.4157364,-2.6610305,27.42,-18.3,-11.76
1554102941910,-4.2760444,-6.0387754000000005,7.5746554999999995,0.083090626,-1.2090752,-2.6056367999999996,27.42,-17.34,-12.06
1554102941930,-4.534618,-6.4936733,7.612962700000001,-0.12250541,-1.0013485999999998,-2.4650217999999997,27.48,-15.96,-12.36
1554102941949,-4.6160207,-6.680421400000001,7.9050555,-0.2545982,-0.77231675,-2.3798008,27.48,-14.52,-12.72
1554102941969,-4.4484267,-6.962936999999999,7.9912467000000005,-0.36005938,-0.5187838,-2.3073627999999995,27.54,-12.96,-13.08
1554102941990,-4.644751,-6.7761892999999995,7.8092875,-0.37603834,-0.3153183,-2.1848574,27.66,-11.16,-13.44
1554102942010,-4.8219223,-6.5750766,7.8332295,-0.30679616,-0.18642128,-2.0602214,27.96,-9.3,-13.8
1554102942030,-5.2241483,-6.192004,8.019978,-0.314253,-0.13209279,-1.8801918000000002,28.2,-7.2,-14.1
1554102942049,-5.8226986,-5.842450599999999,8.752603,-0.29933932,-0.13528858,-1.5925703000000002,28.44,-4.98,-14.4
1554102942069,-5.391742,-5.861604,9.116522,-0.23542345,-0.10972224,-1.257012,28.74,-2.7,-14.64
1554102942090,-5.21936,-6.019622,9.135675,-0.10652645,-0.08522116,-0.9917611999999999,28.98,-0.72,-14.82
1554102942110,-4.999093,-5.9047,9.116522,0.13422333,-0.05965481,-0.7755125,29.22,1.32,-14.94
1554102942130,-4.1276035,-6.2207346,9.020754,0.36964676,0.0053263223,-0.5422196,29.4,3.24,-15.06
1554102942150,-3.4284968,-6.182427400000001,8.714295,0.48469532,0.12783173,-0.38136467,29.52,5.04,-15.12
1554102942169,-3.1603463,-6.000468,8.278551,0.5230448000000001,0.2727077,-0.32277513,29.52,6.48,-15.18
1554102942189,-2.767697,-5.583876999999999,7.651269999999999,0.51665324,0.38029942,-0.31318775,29.52,7.56,-15.24
1554102942210,-2.2840683,-5.593454,7.08145,0.4314321,0.47404268,-0.35473305,29.58,8.34,-15.3
1554102942230,-1.9153613999999999,-5.727529,7.08145,0.26631612,0.5336975,-0.32384038,29.58,8.7,-15.3
1554102942249,-1.9057846,-5.66528,6.918644400000001,0.082025364,0.5592638000000001,-0.27590349999999997,29.64,8.88,-15.18
1554102942270,-2.054225,-5.631761,6.870760400000001,-0.043675844000000005,0.5486112,-0.28016454,29.76,9.0,-15.0
1554102942290,-1.9632453999999997,-5.4545900000000005,6.96174,-0.096939065,0.49960902,-0.28442562,30.0,8.94,-14.76
1554102942310,-1.9680338,-5.48332,7.0287776,-0.08841695,0.43888897,-0.27696875,30.24,8.82,-14.4
1554102942330,-2.2026656000000004,-5.406706,6.9761050000000004,-0.07989483,0.35153726,-0.25672874,30.54,8.7,-14.04
1554102942350,-2.4133554,-5.2343235,6.8611835999999995,-0.049002163,0.257794,-0.25992453,30.78,8.64,-13.62
1554102942369,-2.5091232999999997,-5.310938,6.870760400000001,-0.013848438000000001,0.17470337,-0.26844665,31.08,8.64,-13.14
1554102942389,-2.6192567,-5.3061495,6.818088,-0.0053263223,0.12676647,-0.2727077,31.32,8.82,-12.66
1554102942411,-2.7772740000000002,-5.310938,6.923433,-0.020240024,0.068176925,-0.26738137,31.62,9.18,-12.36
1554102942431,-2.992752,-5.5407815000000005,6.9904703999999995,-0.037284255,0.027696876000000002,-0.26525086,31.74,9.54,-12.12
1554102942450,-3.0789435000000003,-5.6221843,7.177217999999999,-0.036218993,0.0063915867,-0.24501082,31.86,9.9,-11.88
1554102942470,-3.1842883,-5.713164,7.086238400000001,-0.026631612000000002,0.0031957934000000003,-0.22796659,31.92,10.26,-11.7
1554102942490,-3.2513257999999996,-5.617396,7.019201,0.002130529,0.0010652645,-0.22583607,31.98,10.56,-11.64
1554102942510,-3.2609026,-5.6940102999999995,7.105392,0.00958738,-0.007456851,-0.20240025,32.04,10.92,-11.52
1554102942530,-3.1603463,-5.842450599999999,7.282563000000001,-0.01917476,0.00958738,-0.15126756,32.1,11.22,-11.4
1554102942550,-3.1986535,-5.8663926,7.258621000000001,-0.040480047000000005,0.025566347000000003,-0.094808534,32.16,11.4,-11.34
1554102942569,-3.241749,-5.9956794,7.421427,-0.07030745599999999,0.029827405,-0.039414786,32.22,11.52,-11.22
1554102942589,-3.0119057000000002,-6.072294,7.258621000000001,-0.098004326,0.039414786,0.023435817999999997,32.22,11.58,-11.16
1554102942610,-3.0550013,-6.081871,7.167641000000001,-0.082025364,0.03834952,0.07989483,32.28,11.7,-11.04
1554102942630,-3.0214825000000003,-6.072294,7.1963716,-0.053263225,0.026631612000000002,0.12250541,32.22,11.82,-10.98
1554102942649,-2.8395232999999998,-5.899911400000001,7.1915830000000005,-0.056459017,0.01917476,0.1587244,32.22,12.0,-10.86
1554102942670,-2.7820622999999998,-5.8089319999999995,7.1724296,-0.11717909,0.0053263223,0.18855181,32.22,12.24,-10.8
1554102942689,-2.6144682999999995,-5.7658362,7.038354400000001,-0.15339808,-0.008522116,0.19707392,32.22,12.36,-10.74
1554102942709,-2.7006595,-5.54557,6.9521630000000005,-0.15020229,-0.024501082,0.19707392,32.22,12.36,-10.74
1554102942730,-2.6240451,-5.535993,6.818088,-0.15446335,-0.068176925,0.18429075,32.28,12.3,-10.74
1554102942750,-2.566584,-5.5647235,6.894702400000001,-0.19600865,-0.10439592,0.18855181,32.28,12.3,-10.74
1554102942769,-2.6192567,-5.4402246,7.000047,-0.28442562,-0.12783173,0.16405073,32.28,12.18,-10.74
1554102942789,-2.6623523,-5.3683987,7.038354400000001,-0.35579833,-0.10759171,0.11824436,32.34,12.0,-10.74
1554102942811,-2.6527755,-5.559935,7.349601,-0.33449304,-0.09587380000000001,0.10013486,32.34,11.88,-10.8
1554102942830,-2.6623523,-5.852027400000001,7.119757000000001,-0.22690132,-0.09374327,0.07243799,32.34,11.76,-10.86
1554102942850,-2.6527755,-5.875969400000001,7.282563000000001,-0.12463594,-0.10013486,0.039414786,32.4,11.76,-10.92
1554102942870,-2.5139117000000004,-5.7754129999999995,7.019201,-0.084155895,-0.10652645,0.05219796,32.4,11.82,-10.98
1554102942890,-2.4947581000000003,-5.6030307,6.8611835999999995,-0.128897,-0.101200126,0.03089267,32.4,11.94,-11.04
1554102942909,-2.695871,-5.7083755,6.741472999999999,-0.13209279,-0.10013486,-0.00958738,32.4,12.0,-11.16
1554102942929,-2.7868507,-5.875969400000001,6.9808936,-0.14168017,-0.1107875,0.008522116,32.4,12.12,-11.28
1554102942950,-2.8634652999999997,-5.990891,7.091027,-0.18642128,-0.128897,0.011717908999999999,32.4,12.18,-11.34
1554102942970,-2.8299465,-5.7802014,6.995259,-0.27164245,-0.10439592,-0.020240024,32.4,12.24,-11.46
1554102942989,-3.0550013,-5.93343,6.928221000000001,-0.31638354,-0.06924219,-0.017044231,32.4,12.24,-11.52
1554102943009,-2.9017725,-6.2446766,6.918644400000001,-0.2609898,-0.08628642,0.007456851,32.46,12.18,-11.64
1554102943030,-2.8969840000000002,-6.2781954,7.153275999999999,-0.10759171,-0.09587380000000001,-0.036218993,32.46,12.18,-11.7
1554102943050,-2.96881,-6.0387754000000005,7.0766615999999996,-0.041545313,-0.09054748,-0.018109497,32.46,12.18,-11.82
1554102943069,-2.8874072999999996,-5.828085400000001,6.727108,-0.07989483,-0.07137272,0.007456851,32.46,12.18,-11.88
1554102943090,-3.064578,-5.6700683,6.545148999999999,-0.19600865,-0.05752428,0.026631612000000002,32.46,12.18,-11.94
1554102943110,-3.0358477,-5.9477954,6.4062852999999995,-0.2545982,-0.06391586,0.047936900000000005,32.4,12.18,-12.0
1554102943130,-2.8778305,-6.187216,6.731896400000001,-0.21624869,-0.06498113,0.033023197000000004,32.4,12.24,-12.06
1554102943150,-2.9017725,-6.215946,6.9761050000000004,-0.13422333,-0.054328485999999995,0.00958738,32.34,12.3,-12.06
1554102943170,-2.9209259999999997,-6.311714,6.727108,-0.09374327,-0.03834952,-0.007456851,32.28,12.36,-12.12
1554102943190,-2.9161377,-6.201581,6.449381,-0.10439592,-0.035153727999999995,-0.02130529,32.16,12.48,-12.12
1554102943209,-2.9017725,-6.2303114,6.425439,-0.15659387,-0.05752428,-0.022370555,32.1,12.54,-12.12
1554102943232,-2.7389667,-6.541558,6.774992500000001,-0.16298546,-0.07563378,-0.02876214,31.98,12.6,-12.12
1554102943250,-2.5139117000000004,-6.3979053,6.909067599999999,-0.16085494,-0.06924219,0.0063915867,31.92,12.66,-12.12
1554102943271,-2.633622,-6.469731299999999,6.774992500000001,-0.16724652,-0.05006743,0.040480047000000005,31.86,12.72,-12.12
1554102943290,-2.681506,-6.259042,6.684012400000001,-0.16831179,-0.047936900000000005,0.07669904,31.86,12.78,-12.12
1554102943310,-2.7341783,-6.335656,6.4828997,-0.1587244,-0.08948222,0.08628642,31.8,12.84,-12.12
1554102943330,-2.5378537,-6.2446766,6.39192,-0.15126756,-0.12996227,0.09054748,31.8,12.9,-12.12
1554102943350,-2.6240451,-6.201581,6.818088,-0.14913702,-0.15126756,0.080960095,31.74,13.02,-12.12
1554102943370,-2.4133554,-6.2781954,6.8516070000000004,-0.17150758,-0.11930962,0.05219796,31.74,13.08,-12.12
1554102943390,-2.5378537,-6.4601545,6.7893577,-0.19813919,-0.07030745599999999,0.037284255,31.74,13.2,-12.12
1554102943409,-2.4756044999999998,-6.4840965,6.8132997,-0.14061491,-0.05219796,0.020240024,31.74,13.26,-12.12
1554102943429,-2.456451,-6.407482,6.6265516,-0.002130529,-0.07456851,-0.012783173500000002,31.68,13.32,-12.12
1554102943450,-2.4229321,-6.359598,6.880337,0.025566347000000003,-0.07243799,-0.014913702,31.62,13.44,-12.18
1554102943470,-2.5139117000000004,-6.081871,6.741472999999999,-0.035153727999999995,-0.053263225,-0.018109497,31.56,13.5,-12.18
1554102943489,-2.4756044999999998,-6.2303114,6.746262,-0.112918034,-0.03089267,-0.018109497,31.5,13.56,-12.24
1554102943509,-2.384625,-6.3165026,6.684012400000001,-0.111852765,-0.008522116,-0.026631612000000002,31.44,13.56,-12.3
1554102943530,-2.566584,-6.4745197,6.5307837,0.0031957934000000003,-0.02130529,-0.056459017,31.38,13.68,-12.36
1554102943550,-2.585738,-6.345233,6.7989345000000005,0.06498113,-0.013848438000000001,-0.084155895,31.32,13.68,-12.42
1554102943569,-2.6144682999999995,-6.249465,6.693589,0.026631612000000002,0.026631612000000002,-0.12357068,31.14,13.8,-12.54
1554102943589,-2.7581203,-6.3165026,6.4828997,-0.058589544,0.07776430000000001,-0.11824436,31.08,13.86,-12.66
1554102943609,-2.7437549999999997,-6.4122705,6.2817870000000005,-0.06285059999999999,0.084155895,-0.11611383,30.96,13.86,-12.78
1554102943629,-2.6479871,-6.3021374,6.267421700000001,-0.033023197000000004,0.08948222,-0.12250541,30.84,13.92,-12.9
1554102943650,-2.633622,-6.249465,6.238691,-0.02130529,0.099069595,-0.10652645,30.72,13.92,-12.96
1554102943669,-2.6240451,-6.2542534000000005,6.458957700000001,-0.056459017,0.14487597,-0.05965481,30.66,13.92,-13.02
1554102943690,-2.8921957000000003,-6.5655,6.5307837,-0.07882957,0.18322548,-0.05006743,30.66,13.92,-13.08
1554102943709,-2.9975405,-6.848015299999999,6.63134,-0.08948222,0.1768339,-0.082025364,30.66,13.92,-13.08
1554102943730,-2.8682537,-7.0826473,6.746262,-0.06178534,0.15552860000000002,-0.165116,30.78,13.92,-13.08
1554102943750,-2.6431987,-7.140108000000001,6.880337,0.002130529,0.12144015,-0.19174760000000002,30.84,14.04,-13.08
1554102943770,-2.4756044999999998,-6.9485717000000005,6.827665,0.060720075,0.07243799,-0.17150758,30.96,14.1,-13.08
1554102943790,-2.2984335,-6.737882000000001,6.616975,0.07030745599999999,0.040480047000000005,-0.094808534,31.14,14.22,-13.02
1554102943809,-2.5234885,-6.488885,6.588244400000001,0.05006743,0.029827405,-0.040480047000000005,31.2,14.28,-12.96
1554102943830,-2.8395232999999998,-6.172850599999999,6.415862000000001,0.008522116,0.017044231,-0.008522116,31.38,14.52,-12.84
1554102943849,-2.8395232999999998,-6.0244102,6.4110737,-0.06711166,0.03195793,0.008522116,31.44,14.64,-12.72
1554102943869,-3.0358477,-6.187216,6.39192,-0.09587380000000001,0.06285059999999999,-0.0063915867,31.5,14.76,-12.66
1554102943890,-2.96881,-6.249465,6.329671,0.00958738,0.06711166,-0.05219796,31.56,14.82,-12.54
1554102943909,-3.1028854999999997,-6.3404446,6.229114,0.17363810000000002,0.049002163,-0.14913702,31.62,14.88,-12.42
1554102943930,-3.1076740000000003,-6.3165026,6.1620764999999995,0.12250541,0.027696876000000002,-0.21198763,31.68,14.88,-12.3
1554102943949,-3.1842883,-6.4218473,6.229114,0.007456851,0.017044231,-0.1949434,31.68,14.94,-12.18
1554102943971,-3.2130187,-6.7761892999999995,6.612186400000001,-0.10333065,-0.02876214,-0.14487597,31.68,14.94,-12.12
1554102943989,-3.2034418999999996,-7.0634937,6.640917,-0.096939065,-0.056459017,-0.113983296,31.68,14.94,-12.12
1554102944010,-3.217807,-7.0874357,6.774992500000001,-0.01917476,-0.08841695,-0.08948222,31.74,14.94,-12.06
1554102944029,-3.0023289,-6.9246297000000006,6.583456,0.013848438000000001,-0.09161274,-0.013848438000000001,31.74,14.94,-12.06
1554102944049,-2.8969840000000002,-6.7426705,6.588244400000001,-0.037284255,-0.07776430000000001,0.033023197000000004,31.74,15.0,-12.06
1554102944070,-3.0597897,-6.3787518,6.18123,-0.165116,-0.037284255,0.07776430000000001,31.74,15.0,-12.0
1554102944090,-2.825158,-6.2925606,6.1333459999999995,-0.24181503,-0.0010652645,0.13102753,31.74,15.06,-11.94
1554102944109,-2.8299465,-6.2207346,6.0663085,-0.27696875,0.03089267,0.14168017,31.68,15.12,-11.88
1554102944130,-2.7820622999999998,-6.311714,6.186018499999999,-0.30999196,0.06604639400000001,0.14168017,31.62,15.24,-11.88
1554102944150,-2.5043349999999998,-6.3883285999999995,6.128557700000001,-0.32490566,0.098004326,0.17576863,31.56,15.36,-11.82
1554102944170,-2.3942018,-6.3787518,5.9130797,-0.26418558,0.09587380000000001,0.19387813,31.5,15.48,-11.82
1554102944190,-2.3175871,-6.4936733,5.769428,-0.18109496,0.09374327,0.19281286,31.44,15.6,-11.76
1554102944209,-2.4947581000000003,-6.699575,6.013636,-0.10546118,0.111852765,0.18961707,31.44,15.66,-11.76
1554102944229,-2.7581203,-6.7761892999999995,5.994482499999999,-0.046871635999999994,0.09587380000000001,0.12357068,31.5,15.78,-11.76
1554102944250,-2.834735,-6.8671690000000005,6.18123,-0.10439592,0.084155895,0.056459017,31.56,15.78,-11.82
1554102944270,-2.9161377,-7.020397999999999,6.128557700000001,-0.17044231,0.07030745599999999,0.018109497,31.56,15.78,-11.82
1554102944289,-3.0693667000000002,-7.1448965,6.3009405,-0.21944448,0.02876214,0.00958738,31.68,15.72,-11.82
1554102944309,-3.1507695,-7.2502413,6.4541693,-0.1587244,-0.022370555,0.03195793,31.74,15.66,-11.82
1554102944330,-3.1411927000000004,-7.0730705,6.4062852999999995,-0.07563378,-0.07776430000000001,0.06285059999999999,31.8,15.66,-11.76
1554102944350,-3.5673605999999998,-6.5990186,6.3153057,-0.03195793,-0.080960095,0.04261058,31.86,15.6,-11.7
1554102944370,-3.8355112,-6.6852098,6.1381345000000005,-0.004261058,-0.09587380000000001,0.096939065,31.8,15.6,-11.7
1554102944390,-3.7972038,-6.656479400000001,5.927445,0.015978966,-0.111852765,0.12783173,31.74,15.54,-11.7
1554102944410,-3.7253778,-6.785766000000001,6.013636,0.04580637,-0.12250541,0.12676647,31.68,15.54,-11.64
1554102944430,-3.3566709,-6.8575919999999995,6.1046157,-0.02876214,-0.07776430000000001,0.14913702,31.68,15.6,-11.64
1554102944449,-3.2609026,-6.8097080000000005,6.0519433,-0.101200126,-0.024501082,0.1438107,31.74,15.6,-11.64
1554102944469,-3.2752678,-6.938994999999999,5.994482499999999,-0.19068234,0.046871635999999994,0.15659387,31.74,15.6,-11.64
1554102944490,-3.2896330000000003,-6.7761892999999995,5.788581400000001,-0.21092236,0.082025364,0.16618125,31.8,15.6,-11.64
1554102944509,-3.2082303,-6.7761892999999995,5.3863554,-0.20559604,0.07350325,0.16937704,31.8,15.6,-11.7
1554102944530,-2.9400797,-6.6947865,5.6401405,-0.28442562,0.07456851,0.20559604,31.92,15.54,-11.76
1554102944550,-2.9496564999999997,-6.675633,5.831677,-0.3536678,0.10546118,0.19387813,31.92,15.48,-11.82
1554102944570,-2.873042,-6.7522473,5.558737799999999,-0.40053943,0.12357068,0.1587244,31.98,15.42,-11.88
1554102944590,-2.834735,-6.900687700000001,5.4390279999999995,-0.38136467,0.12357068,0.13528858,31.98,15.36,-11.94
1554102944609,-2.882619,-6.9820905,5.419874,-0.25992453,0.08628642,0.08735169,31.92,15.36,-12.0
1554102944629,-3.0214825000000003,-6.819285000000001,5.276222,-0.12357068,0.023435817999999997,0.023435817999999997,31.92,15.36,-12.0
1554102944650,-2.9209259999999997,-6.642114,5.3384714,-0.13848437,0.0031957934000000003,0.004261058,31.86,15.42,-12.0
1554102944669,-3.1555579,-6.589442,5.146935,-0.25992453,0.007456851,0.014913702,31.86,15.42,-12.0
1554102944689,-3.2992098,-6.603807000000001,5.228338,-0.35899413,0.03089267,0.041545313,31.86,15.48,-11.88
1554102944709,-3.5386300000000004,-6.929417999999999,5.1996074,-0.41119209999999995,0.013848438000000001,0.043675844000000005,31.8,15.54,-11.82
1554102944729,-3.5625722,-7.2646065,5.472546599999999,-0.4079963,0.0063915867,-0.0031957934000000003,31.8,15.66,-11.7
1554102944749,-3.5098996,-7.398681599999999,5.659294,-0.40053943,0.012783173500000002,-0.046871635999999994,31.8,15.72,-11.64
1554102944770,-3.6152446000000005,-7.480085000000001,5.7933699999999995,-0.39414784,0.002130529,-0.07350325,31.8,15.78,-11.58
1554102944790,-3.6391866000000004,-7.6045833,5.7790045999999995,-0.36432046,-0.036218993,-0.07669904,31.8,15.84,-11.52
1554102944810,-3.6535518,-7.6333137,5.8891377,-0.32277513,-0.09587380000000001,-0.04580637,31.8,16.08,-11.4
1554102944829,-3.7158010000000004,-7.7147164,5.7215432999999996,-0.28868666,-0.15339808,0.004261058,31.8,16.38,-11.34
1554102944850,-3.7636849999999997,-7.504027000000001,5.620987,-0.21944448,-0.17470337,0.049002163,31.8,16.62,-11.34
1554102944869,-3.9839516,-7.5710645,5.467758,-0.098004326,-0.17150758,0.080960095,31.86,16.86,-11.34
1554102944889,-4.012682,-7.527969000000001,5.462969999999999,0.0063915867,-0.13954964,0.11611383,31.86,17.16,-11.34
1554102944910,-3.9264907999999994,-7.4896617,5.2618566,0.05219796,-0.08628642,0.14807177,31.92,17.4,-11.34
1554102944931,-3.916914,-7.6907744000000005,5.137358,-0.0063915867,-0.046871635999999994,0.16085494,31.92,17.58,-11.34
1554102944950,-3.8786068,-7.5519110000000005,5.0320134,-0.12463594,-0.008522116,0.15552860000000002,31.98,17.76,-11.4
1554102944970,-3.8546648,-7.5519110000000005,4.9458222,-0.21731395,0.002130529,0.15126756,31.98,17.82,-11.52
1554102944990,-3.6870705999999998,-7.5950065,5.185242,-0.28336033,0.025566347000000003,0.17896444,31.98,17.76,-11.64
1554102945010,-3.6918589999999996,-7.508815299999999,5.34326,-0.2908172,0.034088463,0.24181503,31.98,17.76,-11.7
1554102945030,-3.5529952000000007,-7.398681599999999,5.467758,-0.21092236,0.04580637,0.2972088,31.92,17.76,-11.82
1554102945050,-3.490746,-7.0730705,5.237914599999999,-0.017044231,0.022370555,0.31105720000000003,31.92,17.7,-11.82
1554102945070,-3.5482068,-6.986878999999999,4.988918,0.16831179,0.00958738,0.31212249999999997,31.92,17.64,-11.88
1554102945089,-3.490746,-6.632537400000001,4.907515,0.22370553,0.00958738,0.34194988,31.98,17.46,-11.88
1554102945110,-3.643975,-6.5942300000000005,4.7878050000000005,0.23222765,0.027696876000000002,0.3153183,31.98,17.16,-11.88
1554102945130,-3.5673605999999998,-6.3979053,4.7159786,0.16831179,0.047936900000000005,0.33662358,32.04,16.92,-11.82
1554102945149,-3.5865142,-6.297349,4.5100775,0.07669904,0.06498113,0.36218992,32.04,16.68,-11.82
1554102945169,-4.060566000000001,-6.699575,4.447828299999999,-0.053263225,0.09161274,0.35473305,32.1,16.38,-11.76
1554102945189,-4.5058875,-7.0874357,4.936245400000001,-0.14594123,0.08948222,0.32490566,32.1,16.08,-11.76
1554102945210,-4.936844000000001,-7.4034699999999996,4.8787847,-0.19174760000000002,0.05219796,0.23329292,32.1,15.54,-11.82
1554102945229,-4.8745947,-7.566275999999999,5.228338,-0.22050974,0.0,0.16831179,32.1,15.36,-11.82
1554102945250,-4.817133999999999,-7.834426400000001,5.285799,-0.23222765,-0.05752428,0.17150758,32.04,15.06,-11.82
1554102945270,-4.759673,-7.858368400000001,5.587468,-0.16937704,-0.09374327,0.23435818,31.98,14.64,-11.88
1554102945289,-4.8506527,-7.6572556,5.61141,-0.099069595,-0.099069595,0.3270362,31.92,14.34,-11.82
1554102945310,-5.21936,-7.317278999999999,5.391144000000001,-0.060720075,-0.10226539,0.44741106,31.86,14.04,-11.82
1554102945329,-5.7125654,-7.2502413,5.443816,-0.007456851,-0.10972224,0.5635249,31.8,13.8,-11.82
1554102945350,-5.9567738,-7.3124905,5.4486045999999995,0.00958738,-0.098004326,0.6988135,31.74,13.56,-11.82
1554102945369,-6.0142345,-7.0730705,5.290587400000001,0.03195793,-0.05006743,0.8404937,31.68,13.38,-11.82
1554102945391,-6.1818290000000005,-6.7761892999999995,5.0463786,0.040480047000000005,0.004261058,0.9257148000000001,31.68,13.2,-11.88
1554102945410,-6.143522,-6.891111,4.9841294000000005,-0.037284255,0.06498113,1.0077401,31.62,12.9,-11.94
1554102945430,-6.0525417,-6.9102645,4.9841294000000005,-0.16298546,0.10865697,1.1419635000000001,31.62,12.42,-12.06
1554102945450,-6.0142345,-6.9246297000000006,4.960187400000001,-0.24607609,0.13848437,1.2591426000000001,31.56,11.82,-12.18
1554102945470,-6.133945,-7.0251865,4.7782279999999995,-0.26525086,0.14913702,1.3369069,31.5,11.16,-12.3
1554102945489,-6.26802,-6.819285000000001,4.6776714,-0.22050974,0.15339808,1.4061489999999999,31.44,10.38,-12.42
1554102945510,-6.38773,-6.522404,4.538808,-0.1949434,0.165116,1.4519554,31.38,9.48,-12.42
1554102945530,-6.3925184999999995,-6.2351,4.6633059999999995,-0.22796659,0.18216023,1.5030881,31.32,8.34,-12.42
1554102945550,-6.411672,-5.875969400000001,4.5675383,-0.27057716,0.20026971,1.5691346000000002,31.26,7.14,-12.42
1554102945569,-6.4499793,-6.1153900000000005,4.706402,-0.20879184,0.21092236,1.6362462,31.2,5.94,-12.36
1554102945589,-6.1483099999999995,-5.7849900000000005,4.7734394,-0.06178534,0.22477080000000002,1.7193368999999998,31.08,4.92,-12.3
1554102945610,-6.2967505,-4.9757495,4.586692,0.13209279,0.26844665,1.7587515999999999,31.08,3.84,-12.24
1554102945629,-6.4643445,-4.6884456,4.2371383,0.15552860000000002,0.30040458,1.7694043000000002,31.08,2.52,-12.24
1554102945650,-6.354211299999999,-4.482544,4.2993879999999995,0.007456851,0.36432046,1.8450380000000002,31.02,1.02,-12.24
1554102945670,-6.4164605,-4.64535,4.1078515,-0.041545313,0.39947417,1.8482338,31.02,-0.54,-12.3
1554102945689,-7.101202000000001,-4.386776,3.9785647000000006,-0.013848438000000001,0.41225734,1.7363810000000002,30.96,-2.1,-12.42
1554102945710,-7.302314999999999,-4.0037036,3.8205473,0.043675844000000005,0.4133226,1.6234629999999999,30.84,-3.78,-12.54
1554102945730,-7.3885064,-3.5535938999999996,3.6577415,-0.037284255,0.42290998,1.5243934,30.6,-5.58,-12.72
1554102945749,-7.541735000000001,-3.232771,3.7726634,-0.15552860000000002,0.4250405,1.4370418,30.3,-7.5,-12.84
1554102945769,-7.728483,-3.1130607000000006,3.9067385000000003,-0.20559604,0.4282363,1.3635385,30.0,-9.42,-12.9
1554102945790,-7.872135000000001,-3.0268695,3.887585,-0.14594123,0.45060685,1.3017531999999998,29.58,-11.04,-12.96
1554102945810,-7.8577699999999995,-2.4762032000000005,3.9546227,-0.018109497,0.46765109999999993,1.2250541000000001,29.1,-12.42,-13.08
1554102945829,-7.9391727,-2.15538,3.7104141999999998,0.068176925,0.46339005,1.1739215,28.5,-13.68,-13.08
1554102945850,-7.9487495,-1.7866731,3.6816837999999996,0.0031957934000000003,0.45167214,1.1781825000000001,27.96,-14.7,-13.08
1554102945870,-8.298303,-1.5041572,3.7247794,-0.07456851,0.42717105,1.160073,27.36,-15.84,-13.08
1554102945889,-8.379706,-1.5520413,3.7487214,-0.060720075,0.37816888,1.091896,26.94,-16.74,-13.02
1554102945909,-8.202535000000001,-1.4227544,3.9211037,0.10226539,0.34301516,0.9896306999999999,26.52,-17.58,-12.9
1554102945930,-8.413225,-1.240795,3.6768951000000003,0.4314321,0.28016454,0.9214538000000001,26.1,-18.36,-12.78
1554102945950,-8.576031,-0.8050503000000001,3.566762,0.72970617,0.23116238,0.87351686,25.8,-19.2,-12.66
1554102945969,-8.571242,-0.5129577000000001,3.2698810000000003,0.8341021000000001,0.21198763,0.78296936,25.5,-20.16,-12.54
1554102945990,-8.920795,0.018555064,3.09271,0.7755125,0.19813919,0.65194184,25.08,-21.96,-12.36
1554102946010,-9.02614,0.12389994,2.8389246,0.6306366,0.16405073,0.60507023,24.78,-23.1,-12.18
1554102946030,-9.083601,0.11911154,2.9011737999999996,0.46232477,0.13315806,0.58056915,24.6,-23.58,-12.06
1554102946049,-8.63828,0.047285482000000004,3.5093012000000003,0.22050974,0.10546118,0.52624065,24.3,-24.54,-11.76
1554102946069,-8.791509,0.15263036,3.518878,0.12570119999999999,0.11824436,0.46232477,23.94,-25.44,-11.52
1554102946090,-8.992621,-0.0724246,3.4901476000000002,0.25033715,0.10333065,0.43995422,23.52,-26.82,-11.04
1554102946110,-8.848969,-0.091578215,3.3895910000000002,0.35579833,0.07563378,0.45486793,23.22,-27.72,-10.74
1554102946129,-8.954314,0.42556936,3.4039562000000005,0.42077947,0.02876214,0.43782368,23.04,-28.38,-10.44
1554102946149,-8.791509,0.65541273,3.1884782000000005,0.42397526,-0.007456851,0.39521313,22.8,-28.86,-10.14
1554102946171,-8.738836000000001,0.6745663000000001,3.413533,0.35579833,-0.013848438000000001,0.35153726,22.56,-29.28,-9.9
1554102946190,-8.690952000000001,0.7032967,3.413533,0.25353295,-0.0031957934000000003,0.34621096,22.32,-29.76,-9.78
1554102946210,-8.6813755,0.75118077,3.3033997999999998,0.15978967,0.010652645,0.37923414,22.02,-30.3,-9.72
1554102946229,-8.714894000000001,0.83258367,3.4039562000000005,0.128897,0.018109497,0.38562572,21.84,-30.6,-9.66
1554102946250,-8.882488,1.0049661,3.1501707999999997,0.1587244,0.040480047000000005,0.31851408,21.42,-31.44,-9.6
1554102946269,-8.748413000000001,0.8182184,3.116652,0.2695119,0.06285059999999999,0.23329292,21.0,-31.98,-9.48
1554102946289,-8.834603999999999,0.7846996,2.9538465,0.30146983,0.083090626,0.21198763,20.64,-32.58,-9.36
1554102946310,-9.107543,0.7990648,2.8389246,0.23542345,0.10759171,0.22050974,20.4,-33.12,-9.24
1554102946330,-9.112331,0.7128736,3.0017304,0.12463594,0.11824436,0.21198763,20.16,-33.66,-9.06
1554102946349,-9.351752000000001,0.8900445,2.7000610000000003,0.060720075,0.10546118,0.18961707,20.04,-34.2,-8.88
1554102946369,-9.270349000000001,1.0289081,2.9825767999999995,0.10865697,0.06711166,0.14487597,19.98,-34.56,-8.64
1554102946390,-8.983044999999999,0.85652566,2.8868085999999997,0.20026971,0.049002163,0.09374327,19.86,-34.8,-8.52
1554102946409,-8.925583999999999,1.0815806000000001,2.949058,0.20772657,0.046871635999999994,0.09161274,19.86,-35.04,-8.34
1554102946429,-8.963891,1.2252326999999998,2.7862522999999997,0.10546118,0.049002163,0.111852765,19.86,-35.22,-8.22
1554102946450,-9.088389,1.2826935,2.8820202,-0.013848438000000001,0.03834952,0.07989483,19.86,-35.46,-8.16
1554102946470,-9.481038999999999,1.2108675,2.9538465,0.056459017,0.013848438000000001,0.04474111,19.8,-35.7,-8.1
1554102946490,-9.150639,1.0097545,3.3800142,0.12144015,-0.036218993,0.13954964,19.74,-35.88,-8.1
1554102946509,-9.390058999999999,1.0959458,3.0831332000000002,0.17150758,-0.07456851,0.17257284,19.62,-36.06,-8.1
1554102946530,-9.184157,1.3305776000000002,3.4757824,0.10759171,-0.049002163,0.19281286,19.5,-36.24,-8.1
1554102946550,-9.193734,1.3305776000000002,3.4805707999999997,0.16831179,-0.046871635999999994,0.18429075,19.32,-36.42,-8.1
1554102946569,-9.016563,2.0775685,3.494936,0.30253512,-0.046871635999999994,0.14807177,19.14,-36.6,-8.04
1554102946589,-8.959103,2.594716,3.2986114,0.4282363,-0.018109497,0.027696876000000002,19.02,-36.78,-8.04
1554102946610,-8.580819,1.4119805,2.9873652,0.27696875,0.022370555,0.05752428,18.84,-36.9,-8.04
1554102946630,-8.619126,1.0815806000000001,3.4087446000000003,0.039414786,0.06711166,0.13315806,18.72,-37.02,-7.98
1554102946650,-8.595184,1.1534066,3.5523968,0.12570119999999999,0.05006743,0.047936900000000005,18.66,-37.2,-7.98
1554102946669,-8.7771435,1.5604209999999998,3.3225534,0.30040458,0.037284255,0.015978966,18.66,-37.38,-7.86
1554102946690,-8.853758000000001,1.6035166,2.8868085999999997,0.38349520000000004,0.02130529,0.034088463,18.6,-37.62,-7.74
1554102946709,-8.652645,1.5508442,2.915539,0.31638354,0.017044231,-0.02876214,18.6,-37.8,-7.56
1554102946729,-8.719683,1.7232267,2.891597,0.18855181,0.020240024,-0.07030745599999999,18.54,-37.98,-7.32
1554102946750,-8.925583999999999,1.6514006,2.8963853999999998,0.10972224,0.02130529,-0.056459017,18.48,-38.1,-7.14
1554102946770,-8.820239,1.6609775000000002,3.0639796,0.12676647,0.01917476,-0.07243799,18.42,-38.22,-6.9
1554102946790,-8.556877,1.4407108999999998,2.9682117000000003,0.16724652,-0.0063915867,-0.060720075,18.42,-38.34,-6.66
1554102946810,-8.51857,1.6370354,3.0735563999999997,0.14594123,0.0063915867,-0.051132694000000006,18.36,-38.46,-6.48
1554102946830,-8.676587,1.7423803,2.9730000000000003,0.14487597,0.023435817999999997,-0.10546118,18.3,-38.52,-6.3
1554102946849,-8.8777,1.6418238,2.843713,0.13422333,0.053263225,-0.08948222,18.3,-38.58,-6.24
1554102946869,-8.963891,1.5364790000000002,2.8149827000000003,0.111852765,0.06498113,-0.040480047000000005,18.24,-38.64,-6.18
1554102946891,-8.839393,1.4454993,2.9203273999999997,0.05752428,0.060720075,-0.06604639400000001,18.18,-38.76,-6.06
1554102946910,-9.069236,2.0919337,2.7623102999999998,0.039414786,0.07350325,-0.14487597,18.18,-38.82,-5.94
1554102946930,-9.284714,1.8285716,2.331354,0.07669904,0.023435817999999997,-0.21837921,18.18,-38.88,-5.88
1554102946949,-8.643068,1.5604209999999998,2.8532897999999998,-0.022370555,0.004261058,-0.13315806,18.12,-39.0,-5.76
1554102946970,-8.848969,1.4981716999999999,2.949058,0.07776430000000001,-0.020240024,-0.15765914,18.12,-39.12,-5.58
1554102946989,-8.925583999999999,1.5364790000000002,2.9011737999999996,0.12357068,-0.040480047000000005,-0.12463594,18.18,-39.24,-5.46
1554102947010,-8.815451,1.6849195,3.0304607999999997,0.07350325,-0.06391586,-0.12676647,18.24,-39.3,-5.34
1554102947029,-9.097966,1.7423803,3.0352492,0.012783173500000002,-0.07243799,-0.16085494,18.3,-39.42,-5.22
1554102947050,-9.222465,1.6801311,3.2363622000000003,-0.020240024,-0.07030745599999999,-0.13315806,18.36,-39.42,-5.16
1554102947070,-9.002198,1.584363,3.0591912,-0.013848438000000001,-0.07243799,-0.096939065,18.42,-39.48,-5.1
1554102947090,-9.088389,1.7806876,3.245939,0.058589544,-0.049002163,-0.10546118,18.48,-39.48,-5.04
1554102947109,-8.863335000000001,1.9003976999999999,2.949058,0.19174760000000002,-0.04261058,-0.15233281,18.6,-39.48,-4.98
1554102947130,-9.030928999999999,1.9003976999999999,2.7144263,0.34514567,-0.056459017,-0.25246766,18.66,-39.48,-4.92
1554102947150,-9.016563,2.2547395,2.5037365,0.4101268,-0.11717909,-0.34301516,18.66,-39.42,-4.86
1554102947169,-8.676587,2.321777,2.570774,0.34834146,-0.20133498,-0.4314321,18.72,-39.42,-4.8
1554102947190,-8.322245,1.9578583999999999,2.6090812999999997,0.1587244,-0.26205507,-0.49108690000000005,18.78,-39.3,-4.8
1554102947209,-7.752425,1.4502877,2.9394810000000002,0.002130529,-0.34834146,-0.5123922000000001,18.84,-39.24,-4.8
1554102947230,-7.728483,1.1246762,3.198055,-0.033023197000000004,-0.45167214,-0.5230448000000001,19.02,-39.12,-4.74
1554102947250,-7.6518690000000005,0.9379284999999999,3.164536,0.07776430000000001,-0.55074173,-0.5539375,19.2,-39.0,-4.74
1554102947270,-7.589619,1.2204443,2.9825767999999995,0.28229508,-0.74248934,-0.71798825,19.38,-38.82,-4.74
1554102947290,-7.5944076,1.4790181,2.7096379,0.41758367,-0.8873653,-0.8671253000000001,19.56,-38.64,-4.74
1554102947309,-7.608772999999999,1.4119805,2.843713,0.5539375,-1.1185277,-1.0396981,19.74,-38.4,-4.74
1554102947329,-7.5369470000000005,1.1390414,3.3512837999999996,0.5752428,-1.2314457,-1.0961571,20.04,-38.1,-4.74
1554102947350,-6.981492,0.6075286999999999,3.8349125,0.58696073,-1.3667343,-1.2676646999999999,20.34,-37.74,-4.74
1554102947369,-6.828263300000001,0.43035775,4.007295,0.56885123,-1.4530207,-1.4913702,20.7,-37.32,-4.74
1554102947390,-7.2304892999999995,0.46387658,4.160524,0.515588,-1.5531555000000001,-1.6405072,21.06,-36.84,-4.86
1554102947410,-7.216124000000001,0.42078096,4.040814,0.4101268,-1.6767261999999998,-1.7267936000000002,21.42,-36.24,-4.98
1554102947430,-6.708553299999999,-0.05327099,4.2898107,0.31638354,-1.7512947,-1.8716697,21.84,-35.58,-5.16
1554102947449,-5.774814599999999,-0.7715314999999999,4.735132,0.24927188,-1.8226674999999999,-2.0453076,22.32,-34.86,-5.28
1554102947469,-5.1906295,-1.4706384,5.213972599999999,0.12783173,-1.8695391,-2.183792,22.8,-34.02,-5.46
1554102947489,-6.066907,-1.7196354,5.6545057,0.04580637,-1.9206718,-2.3222766,23.22,-33.06,-5.64
1554102947510,-6.272808599999999,-2.4666264,5.7502737,0.013848438000000001,-1.9611518000000001,-2.4724789,23.64,-31.98,-6.0
1554102947530,-5.329493,-2.9311013,6.013636,-0.033023197000000004,-2.026133,-2.6290727,23.94,-30.66,-6.54
1554102947549,-4.343082,-3.481768,6.554725599999999,-0.02130529,-2.0271983000000002,-2.775014,24.3,-29.04,-7.02
1554102947570,-3.8307227999999998,-3.7355532999999994,7.373543,-0.017044231,-1.9792613999999997,-2.755839,24.72,-27.24,-7.56
1554102947589,-4.3526587,-4.487332299999999,7.996035000000001,0.094808534,-1.892975,-2.630138,25.14,-25.32,-8.16
1554102947610,-4.175488,-4.994903,8.22109,0.19600865,-1.8066885,-2.4937842,25.62,-23.22,-8.82
1554102947630,-3.6391866000000004,-5.3636102999999995,8.422203,0.30040458,-1.7235979,-2.4309335,26.1,-21.06,-9.54
1554102947650,-3.3135752999999997,-5.1624975,8.398261,0.32810146,-1.6745956999999998,-2.3563650000000003,26.58,-19.08,-10.32
1554102947670,-3.4093432,-5.229535,8.446145,0.25885928,-1.6618125,-2.2210765,27.0,-17.1,-11.1
1554102947690,-3.0550013,-5.4402246,8.814852,0.0031957934000000003,-1.6468988999999998,-2.0133498,27.36,-15.18,-11.7
1554102947710,-3.0885203,-5.612607499999999,9.384672,-0.25033715,-1.619202,-1.8833876,27.66,-13.38,-12.42
1554102947729,-2.705448,-5.909488,9.5570545,-0.37390783,-1.5701998,-1.8205369999999998,27.9,-11.64,-13.08
1554102947749,-2.5474305,-5.6509147,9.681553,-0.34940675,-1.5052186,-1.7608821,27.96,-9.96,-13.74
1554102947769,-2.327164,-5.5695120000000005,9.403825999999999,-0.26738137,-1.4519554,-1.7044232,27.96,-8.52,-14.52
1554102947790,-1.9105729999999999,-5.148132299999999,9.135675,-0.28016454,-1.3571468999999998,-1.5776566,27.66,-6.3,-15.6
1554102947810,-1.7669207999999998,-5.172074299999999,9.145252000000001,-0.45273739999999996,-1.2825783000000002,-1.4487596999999999,27.36,-4.8,-16.26
1554102947829,-1.6184803,-5.109825,9.533113,-0.58909124,-1.2037488,-1.32945,27.06,-3.18,-16.98
1554102947850,-1.7238252,-4.9422307,9.801263,-0.5603291,-1.1334413,-1.2218584,26.52,-1.68,-17.7
1554102947869,-2.0398598000000003,-4.9901147,9.691130000000001,-0.44954160000000004,-1.0684601999999999,-1.0663296999999998,25.98,-0.48,-18.36
1554102947890,-1.7956512999999998,-5.3971290000000005,10.098145,-0.47723848,-0.98750013,-0.87990844,25.44,0.66,-18.96
1554102947910,-1.2689268999999999,-6.057929,10.557831,-0.5944176,-0.79042625,-0.6508765999999999,24.96,1.92,-19.5
1554102947930,-1.1109096,-6.431424,10.960057,-0.49960902,-0.5454154,-0.41758367,24.48,3.18,-20.04
1554102947950,-1.1731589,-6.330868,10.404602,-0.18109496,-0.3174488,-0.24394555,24.12,4.38,-20.58
1554102947969,-0.93852705,-6.350021400000001,9.595362,0.07030745599999999,-0.1587244,-0.12250541,23.76,5.58,-20.94
1554102947990,-0.4213795,-6.0244102,9.073426,0.22477080000000002,-0.0063915867,0.07563378,23.34,6.42,-21.3
1554102948010,-0.05267244,-5.66528,8.963293,0.2034655,0.14168017,0.17576863,23.1,7.14,-21.48
1554102948029,0.21068975,-5.157709,8.757391,0.10865697,0.2972088,0.16405073,22.92,7.8,-21.72
1554102948050,0.46926352,-5.037999,8.3312235,0.036218993,0.43569317,0.12463594,22.68,8.28,-21.84
1554102948070,0.7469909,-5.0523643,8.297705,-0.03089267,0.52411014,0.16831179,22.44,8.58,-21.96
1554102948090,1.0007763,-5.0332108,8.058285,-0.07669904,0.5454154,0.18429075,22.26,8.7,-22.08
1554102948109,1.0821792,-4.9422307,7.9577279999999995,-0.11717909,0.5390238,0.16405073,22.08,8.7,-22.08
1554102948130,1.0630256,-4.8560395,7.7949224,-0.20240025,0.49534798,0.15552860000000002,21.96,8.58,-22.14
1554102948150,1.1923125,-4.7602715,7.9529395,-0.23755397,0.43249738,0.15446335,21.96,8.46,-22.14
1554102948169,1.091756,-4.923076999999999,7.8954787,-0.19174760000000002,0.34940675,0.10439592,21.96,8.4,-22.08
1554102948189,1.0582372,-4.899135,7.8428062999999995,-0.15446335,0.2790993,0.080960095,22.08,8.28,-22.02
1554102948209,0.89543146,-4.994903,7.7183075,-0.13102753,0.15339808,0.039414786,22.32,8.22,-21.9
1554102948230,0.7326256999999999,-4.899135,7.6847887,-0.12570119999999999,0.07882957,-0.033023197000000004,22.62,8.22,-21.72
1554102948250,0.46447513,-4.8656163,7.435792,-0.16085494,0.026631612000000002,-0.046871635999999994,22.92,8.16,-21.6
1554102948270,0.25378537,-4.9853263,7.4645224,-0.18322548,0.004261058,-0.053263225,23.22,8.16,-21.42
1554102948297,-0.21547815,-4.947019,7.229890299999999,-0.16618125,-0.013848438000000001,-0.08948222,23.7,8.28,-21.12
1554102948310,-0.24899697,-4.908712,7.3400240000000005,-0.16405073,-0.025566347000000003,-0.10972224,23.82,8.34,-21.06
1554102948329,-0.30166942,-4.956596,7.349601,-0.16724652,-0.02130529,-0.13954964,24.06,8.46,-20.88
1554102948350,-0.5267244000000001,-5.1529207,7.330447,-0.15446335,-0.010652645,-0.15978967,24.18,8.52,-20.76
1554102948369,-0.41180268,-5.277419,7.828441000000001,-0.16085494,0.004261058,-0.18322548,24.24,8.64,-20.64
1554102948390,-0.3878607,-5.468955,7.665635000000001,-0.16298546,0.035153727999999995,-0.21518342,24.24,8.76,-20.58
1554102948411,-0.30166942,-5.6844335,7.8188642999999995,-0.1470065,0.06178534,-0.21944448,24.24,9.06,-20.46
1554102948430,-0.20590134,-5.7849900000000005,7.9864583,-0.12037488,0.060720075,-0.22903186,24.24,9.18,-20.46
1554102948450,0.01436521,-6.0483522,8.216302,-0.08628642,0.06285059999999999,-0.20985709,24.24,9.48,-20.46
1554102948470,0.095768064,-6.1489085999999995,8.249821,-0.008522116,0.058589544,-0.15765914,24.24,9.84,-20.4
1554102948490,0.04309563,-6.005256,8.254609,0.051132694000000006,0.037284255,-0.112918034,24.24,10.14,-20.46
1554102948510,0.047884032,-5.8663926,8.134899,0.07350325,0.026631612000000002,-0.06711166,24.3,10.44,-20.46
1554102948529,0.11971009,-5.713164,7.972092999999999,0.07137272,0.015978966,0.008522116,24.3,10.8,-20.46
1554102948550,-0.02873042,-5.6221843,7.7374616,0.06604639400000001,0.0031957934000000003,0.033023197000000004,24.36,11.04,-20.46
1554102948570,-0.019153614,-5.3923407,7.7183075,0.027696876000000002,0.0010652645,0.039414786,24.36,11.4,-20.46
1554102948590,-0.01436521,-5.3300915,7.5650787,-0.020240024,0.013848438000000001,0.04474111,24.36,11.4,-20.46
1554102948610,-0.08140286,-5.406706,7.5219830000000005,-0.049002163,0.035153727999999995,0.040480047000000005,24.36,11.46,-20.4
1554102948629,0.01436521,-5.492897,7.5890207,-0.046871635999999994,0.051132694000000006,0.041545313,24.36,11.52,-20.34
1554102948649,-0.033518825,-5.4258595000000005,7.478887599999999,-0.02130529,0.05752428,0.01917476,24.36,11.52,-20.28
1554102948670,0.047884032,-5.373187000000001,7.450157000000001,-0.007456851,0.06285059999999999,-0.01917476,24.42,11.52,-20.22
1554102948690,0.15801731,-5.282207499999999,7.3112936,-0.004261058,0.07989483,-0.033023197000000004,24.42,11.52,-20.22
1554102948709,0.17717093,-5.3061495,7.330447,-0.020240024,0.12037488,-0.010652645,24.36,11.46,-20.28
1554102948729,-0.0047884034,-5.1960163,7.330447,-0.06604639400000001,0.12996227,0.0010652645,24.36,11.46,-20.28
1554102948750,-0.12928689,-5.4498014,7.498041000000001,-0.128897,0.11611383,-0.025566347000000003,24.42,11.46,-20.34
