TimeStamp,Ax,Ay,Az,Gx,Gy,Gz,Mx,My,Mz
1554109459685,8.954314,-2.7587189999999997,2.2307975,0.07776430000000001,-0.023435817999999997,-0.06178534,-52.62,-38.76,-12.6
1554109459705,9.045294,-2.7204118,2.2547395,0.08522116,-0.026631612000000002,-0.054328485999999995,-52.68,-38.76,-12.6
1554109459724,9.030928999999999,-2.7347770000000002,2.1493945,0.05965481,-0.017044231,-0.06285059999999999,-52.68,-38.7,-12.6
1554109459744,9.006986999999999,-2.7012582000000003,2.2691047,0.043675844000000005,-0.018109497,-0.07137272,-52.68,-38.64,-12.6
1554109459765,9.006986999999999,-2.3708582000000002,2.460641,0.07669904,-0.047936900000000005,-0.03195793,-52.68,-38.64,-12.54
1554109459784,8.939949,-2.5432408,2.4558525,0.15020229,-0.05006743,0.034088463,-52.68,-38.64,-12.48
1554109459804,9.078813,-2.581548,2.2451627,0.111852765,-0.05965481,0.029827405,-52.68,-38.64,-12.42
1554109459824,9.136273,-2.6102784,1.7471686999999998,-0.06498113,-0.046871635999999994,-0.039414786,-52.62,-38.64,-12.3
1554109459845,8.810661999999999,-2.5719712,2.0919337,-0.26631612,0.008522116,-0.039414786,-52.62,-38.7,-12.18
1554109459864,8.686164,-2.5288756,2.4271219,-0.27803403,0.029827405,0.023435817999999997,-52.62,-38.7,-12.06
1554109459885,8.901641999999999,-2.5192987999999996,2.2786815,-0.2972088,0.037284255,0.06391586,-52.62,-38.76,-11.94
1554109459905,8.7532015,-2.461838,2.3169887000000005,-0.44741106,0.034088463,0.080960095,-52.62,-38.76,-11.88
1554109459925,8.561666,-2.4570496,2.1493945,-0.6178534000000001,0.035153727999999995,0.17470337,-52.62,-38.82,-11.82
1554109459944,8.461109,-2.8927941,2.3840263,-0.737163,0.040480047000000005,0.25885928,-52.62,-38.82,-11.76
1554109459964,8.1881695,-3.0603882999999996,2.6138697,-0.77444726,0.047936900000000005,0.28975195,-52.62,-38.88,-11.82
1554109459985,7.7189064,-2.9502552000000004,2.7287915000000003,-0.664725,0.03195793,0.36218992,-52.62,-38.88,-11.88
1554109460005,7.4124484,-2.7204118,2.2499511,-0.5752428,0.020240024,0.46871635,-52.62,-38.76,-12.0
1554109460025,7.335833999999999,-2.5001452,1.7375918999999997,-0.664725,0.027696876000000002,0.5613944000000001,-52.62,-38.64,-12.18
1554109460045,7.201759,-2.7682957999999998,1.584363,-0.9416938,0.05965481,0.6775081999999999,-52.62,-38.4,-12.36
1554109460065,6.823475,-2.8449101000000003,1.4885948999999998,-1.2708606000000002,0.083090626,0.86392945,-52.68,-37.86,-12.72
1554109460085,6.253655,-3.4195184999999997,1.7280151000000001,-1.474326,0.09374327,1.0876350000000001,-52.68,-37.62,-12.84
1554109460104,5.865794,-3.793014,1.6944963,-1.5456988,0.049002163,1.2815131000000002,-52.74,-36.96,-13.14
1554109460124,5.5162406,-4.233547,1.3736732,-1.5201323999999998,-0.010652645,1.470065,-52.86,-36.06,-13.5
1554109460145,5.21936,-4.5352163,1.359308,-1.4050837999999999,-0.09374327,1.6863136000000003,-52.98,-34.98,-13.8
1554109460165,5.046977,-4.563947,1.4407108999999998,-1.1749867,-0.20026971,1.9419771000000001,-53.28,-33.72,-14.22
1554109460185,4.941632299999999,-4.947019,1.0576386,-0.9086706,-0.33875409999999995,2.2125542,-53.64,-32.22,-14.52
1554109460205,5.046977,-5.4114943,0.86131406,-0.7456851,-0.45593318,2.4458472999999996,-54.06,-30.54,-14.82
1554109460225,4.8698063,-5.856816,0.8038531999999999,-0.7350325,-0.5550028,2.6269422000000002,-54.48,-28.5,-15.12
1554109460244,4.376600700000001,-6.249465,0.8996213,-0.7978831000000001,-0.67005134,2.7867317000000003,-54.84,-26.4,-15.36
1554109460265,3.9121256,-7.2071457,0.5979519,-0.8223841999999999,-0.78296936,2.9411952,-55.26,-24.12,-15.48
1554109460285,3.4620156000000004,-7.729081599999999,-0.21607670000000004,-0.9395633,-0.9715212,3.0391996,-55.74,-20.1,-15.48
1554109460305,3.3423057000000003,-8.217499,-1.1019313,-1.0460896000000002,-1.1100056,3.0146985,-55.92,-17.1,-15.12
1554109460325,3.0119057000000002,-8.590994,-1.7483658,-1.1472898999999999,-1.2282499,2.9656963,-56.1,-13.98,-14.46
1554109460344,2.5330652999999996,-9.132083999999999,-1.8680758000000002,-1.1909657,-1.2868395000000001,2.9678267999999997,-56.16,-10.68,-13.62
1554109460365,2.1021092,-10.008362,-2.1410147999999998,-1.2516857,-1.3390374,2.936934,-56.16,-7.26,-12.66
1554109460385,1.7381904,-10.099341,-1.5807717,-1.2751216,-1.5169365,2.7920582,-56.22,-3.78,-11.52
1554109460404,1.5801731,-10.549451,-2.4714148,-1.1366372,-1.6575514999999998,2.711098,-56.16,-0.3,-10.2
1554109460424,1.4077905000000002,-10.875063,-2.3948002,-0.8404937,-1.7683389999999999,2.6013758,-55.98,3.3,-8.58
1554109460444,1.1348516000000002,-11.119271000000001,-2.4809916000000003,-0.45273739999999996,-1.8503643,2.4905882000000004,-55.56,6.66,-6.78
1554109460465,0.5650316,-11.234193,-2.4666264,-0.11717909,-1.8748653999999998,2.3893880000000003,-55.08,9.96,-5.04
1554109460484,-0.10055647,-11.363480000000001,-2.7060466,0.21624869,-1.8897791000000002,2.3276029,-54.48,13.14,-3.3
1554109460504,-0.7182605,-12.167932,-3.8552632000000004,0.29827404,-1.7779262999999998,2.271144,-53.76,16.2,-1.68
1554109460525,-1.3599066,-11.866261999999999,-4.0084919999999995,-0.054328485999999995,-1.6990968000000002,2.0953753,-52.98,19.14,-0.12
1554109460545,-1.5610195,-11.871051,-4.1282024,-0.46658584,-1.7150756999999999,1.824798,-51.9,21.9,1.44
1554109460564,-1.5131354,-11.976396000000001,-4.1904516,-0.8681905000000001,-1.7012273,1.5052186,-50.52,24.48,3.06
1554109460584,-1.7238252,-12.019491,-3.5344403,-0.92997587,-1.6500946,1.2335763000000002,-48.96,26.82,4.74
1554109460605,-1.9823990000000002,-11.258135000000001,-2.7156234,-0.8277104999999999,-1.6394419999999998,1.0950918,-47.58,28.92,6.24
1554109460625,-2.2170308,-11.0618105,-2.8496985,-0.49534798,-1.5978967,1.0535465,-46.08,30.78,7.68
1554109460645,-2.8155810000000003,-10.487202,-2.8736405,-0.020240024,-1.5137408,1.0588728,-44.46,32.34,9.12
1554109460664,-2.930503,-10.34355,-2.7682957999999998,0.5187838,-1.4594122999999999,1.0961571,-42.78,33.66,10.56
1554109460685,-2.6384103,-9.041103999999999,-2.7635074,0.8905610999999999,-1.401888,1.1749867,-41.04,34.74,12.0
1554109460705,-2.432509,-7.307702000000001,-3.0268695,0.8692558000000001,-1.2623383999999997,1.252751,-39.54,35.7,13.26
1554109460725,-2.4133554,-6.1153900000000005,-3.3907879999999997,0.43782368,-1.0855045,1.3006879,-38.34,36.72,14.28
1554109460745,-2.96881,-5.205593,-3.3812113,-0.35473305,-0.9576728000000001,1.4029533,-37.2,37.8,14.94
1554109460764,-3.5817258,-6.536769400000001,-3.912724,-1.1217233999999998,-0.76592517,1.6064188,-36.0,38.82,15.48
1554109460785,-4.376600700000001,-8.289325,-3.4147300000000005,-1.6671387999999998,-0.66152924,1.7012273,-34.8,39.78,15.9
1554109460805,-4.3813889999999995,-9.136872,-3.1657330000000004,-1.5691346000000002,-0.6508765999999999,1.6650082999999998,-33.54,40.68,16.14
1554109460824,-4.175488,-9.1033535,-3.9845502,-1.1345067,-0.61572284,1.5957662000000001,-32.16,41.52,16.5
1554109460845,-4.912902,-9.735422999999999,-4.530428,-0.71798825,-0.3291667,1.6149409,-30.9,42.3,17.04
1554109460865,-5.841851999999999,-10.4010105,-4.3819875999999995,-0.36218992,-0.15339808,1.6021577,-29.58,42.84,17.64
1554109460884,-6.483498,-10.544661999999999,-4.0037036,0.1587244,0.002130529,1.4764565,-28.2,43.2,18.24
1554109460905,-6.7612257,-10.046669,-3.6733038000000002,0.18642128,0.03195793,1.3262542,-26.88,43.38,18.9
1554109460924,-7.029375999999999,-9.812037,-3.9318779000000004,-0.13635385,0.029827405,1.0929613,-25.56,43.5,19.5
1554109460944,-7.359775999999999,-9.778519000000001,-3.7882257000000004,-0.7233145999999999,0.023435817999999997,0.8543421,-24.42,43.5,20.1
1554109460966,-7.038953,-10.065823,-2.7874494,-1.0205233,-0.046871635999999994,0.64555025,-23.46,43.56,20.7
1554109460984,-6.540959,-10.391434,-2.1122843999999996,-0.6924219,-0.083090626,0.386691,-22.62,43.62,21.24
1554109461005,-6.1770406,-9.371504,-2.0021513,0.0031957934000000003,-0.082025364,0.12463594,-21.96,43.62,21.66
1554109461025,-5.8226986,-7.992444,-2.6868927000000005,0.6498113,-0.026631612000000002,-0.00958738,-21.36,43.62,22.02
1554109461044,-5.889736,-7.307702000000001,-3.3189620000000004,1.0258497,0.05752428,-0.068176925,-20.88,43.56,22.38
1554109461065,-6.1866174,-6.6947865,-3.127426,1.1973573,0.18429075,-0.09374327,-20.58,43.62,22.74
1554109461084,-6.0716953,-6.4122705,-3.1561562999999997,1.2836437,0.26205507,-0.027696876000000002,-20.28,43.62,23.1
1554109461104,-6.1195793,-6.249465,-3.2854433,1.2655341999999998,0.36218992,0.05006743,-20.22,43.74,23.16
1554109461124,-5.990292500000001,-6.0627174,-3.256713,1.063134,0.45167214,0.18748654,-20.16,44.1,23.04
1554109461145,-6.1818290000000005,-6.139332,-3.031658,0.737163,0.5411543000000001,0.29188246,-20.04,44.82,22.62
1554109461165,-6.703765,-6.273407,-2.260725,0.50813115,0.567786,0.28868666,-19.98,45.48,22.14
1554109461184,-7.1490865,-6.843227000000001,-2.0931308,0.41971418,0.5571333,0.32277513,-19.92,46.26,21.54
1554109461205,-7.541735000000001,-7.2071457,-1.5328877,0.45060685,0.53795856,0.3653857,-19.92,47.1,20.82
1554109461225,-7.8577699999999995,-7.1113777,-1.4514848,0.6178534000000001,0.4825648,0.3270362,-19.92,47.88,20.1
1554109461245,-7.120356,-7.0251865,-1.939902,0.8724516,0.43249738,0.32170987,-19.92,48.6,19.38
1554109461265,-6.919242999999999,-6.7761892999999995,-2.0021513,0.96406436,0.3717773,0.3057309,-19.92,48.9,19.08
1554109461284,-6.991069,-6.2925606,-2.5240872000000003,0.92038846,0.3568636,0.18535602,-19.92,49.44,18.36
1554109461304,-7.417236999999999,-6.0148335,-2.4905684,0.6828345,0.39734364,0.10333065,-19.92,49.68,17.94
1554109461324,-7.5704656,-5.8903346,-1.8297686999999998,0.41119209999999995,0.32277513,0.111852765,-19.92,49.92,17.46
1554109461345,-7.546523599999999,-5.875969400000001,-1.5951369,0.21411815,0.26631612,0.14807177,-19.92,50.1,16.98
1554109461364,-7.4028716,-5.885546,-1.417966,0.08841695,0.24927188,0.22477080000000002,-19.98,50.28,16.62
1554109461384,-7.2304892999999995,-5.9477954,-1.7340006000000001,0.013848438000000001,0.23648871,0.31318775,-19.98,50.52,16.26
1554109461405,-7.335833999999999,-6.350021400000001,-2.0213048,-0.036218993,0.21837921,0.36005938,-19.98,50.76,15.96
1554109461424,-7.589619,-6.6469026,-1.8489223000000001,-0.094808534,0.18109496,0.3153183,-19.98,51.06,15.66
1554109461444,-7.5369470000000005,-6.5271926,-1.8584990000000001,-0.14061491,0.12357068,0.2545982,-19.98,51.36,15.42
1554109461465,-7.0581064,-6.369175,-1.7052702000000002,-0.31851408,0.010652645,0.19174760000000002,-19.98,51.66,15.18
1554109461484,-7.062895,-6.1249666,-2.03567,-0.5187838,-0.023435817999999997,0.128897,-19.92,51.9,15.0
1554109461504,-7.110779300000001,-6.129755,-2.2415714,-0.67963874,-0.04261058,0.096939065,-19.86,52.14,14.94
1554109461524,-6.8809357,-6.3548098,-2.5576060000000003,-0.8852348,-0.054328485999999995,0.03834952,-19.8,52.26,14.94
1554109461545,-6.885724000000001,-6.5271926,-2.4187422,-1.0375676,-0.07243799,-0.018109497,-19.62,52.26,15.06
1554109461564,-6.9048777,-6.2925606,-2.533664,-1.0844392,-0.094808534,0.022370555,-19.5,52.2,15.18
1554109461584,-6.837839999999999,-6.201581,-2.4809916000000003,-1.0524813,-0.13102753,0.098004326,-19.38,52.02,15.54
1554109461605,-6.9288197,-6.5607114,-2.4570496,-0.9534117,-0.16085494,0.15765914,-19.26,51.72,16.08
1554109461625,-7.0245875999999985,-6.9102645,-2.3612813999999998,-0.8149273,-0.221575,0.128897,-19.14,51.3,16.62
1554109461645,-7.1490865,-7.1927805,-2.107496,-0.5997439,-0.32277513,0.012783173500000002,-19.08,50.82,17.22
1554109461664,-7.2113357,-7.0251865,-1.7292121999999999,-0.28229508,-0.4708469,-0.12996227,-19.02,50.28,17.82
1554109461684,-6.943185000000001,-6.881533999999999,-1.4945803999999998,0.094808534,-0.66152924,-0.2876214,-18.9,49.8,18.42
1554109461704,-7.28795,-6.4840965,-1.6142905,0.44208476,-0.82557994,-0.47404268,-18.9,49.38,18.96
1554109461725,-7.522581599999999,-6.168062,-1.9925743000000002,0.48043427,-0.9416938,-0.4644553,-18.78,48.96,19.44
1554109461745,-7.61835,-5.7658362,-1.9494787,0.2876214,-1.0002834,-0.29188246,-18.6,48.66,19.68
1554109461765,-7.302314999999999,-5.919065,-1.3940238999999999,0.002130529,-1.026915,-0.15659387,-18.36,48.48,19.8
1554109461785,-7.335833999999999,-5.7227407,-0.83378077,-0.26312032,-1.0482203,-0.14487597,-18.0,48.42,19.86
1554109461805,-7.6375036,-5.48332,-0.6135142,-0.3685815,-1.0705907,-0.11504856,-17.7,48.48,19.92
1554109461824,-7.876923599999999,-5.2199583,-0.6853402,-0.3717773,-1.1132014,-0.0053263223,-17.34,48.48,19.92
1554109461845,-7.991845,-4.9853263,-1.0157399999999999,-0.36112466,-1.160073,0.14913702,-17.04,48.48,19.92
1554109461865,-7.972691499999999,-4.894346700000001,-1.073201,-0.39095205,-1.1579423999999998,0.31105720000000003,-16.68,48.54,19.92
1554109461885,-8.015787,-4.851251,-0.88166475,-0.45699844,-1.1153319,0.4857606,-16.32,48.6,19.92
1554109461904,-8.279149,-4.554370400000001,-0.8912416,-0.48149952,-1.0705907,0.6785734,-15.96,48.66,19.92
1554109461924,-8.485051,-4.429871599999999,-1.1354501000000001,-0.42290998,-1.071656,0.8767126000000001,-15.54,48.66,19.98
1554109461946,-8.532935,-4.223970400000001,-1.2503718000000001,-0.36005938,-1.1057445,1.0343717,-15.06,48.66,19.98
1554109461965,-8.839393,-4.0276456,-1.5233108,-0.3653857,-1.144094,1.128115,-14.52,48.66,20.1
1554109461985,-9.581595,-3.888782,-2.03567,-0.5773733,-1.1675298,1.2399678,-13.38,48.6,20.28
1554109462005,-10.108319,-3.7499184999999997,-2.2559366,-0.77125144,-1.1771171999999999,1.3187973,-12.9,48.54,20.34
1554109462025,-10.132261,-3.8552632000000004,-1.9829974999999997,-1.0578076,-1.2037488,1.3880396000000002,-11.82,48.42,20.58
1554109462044,-9.998186,-3.7307648999999996,-2.2655133999999997,-1.4104101999999998,-1.1984226,1.3550163999999998,-10.5,48.06,20.76
1554109462064,-9.370906,-3.7259765,-2.3373394,-1.8173412,-1.1366372,1.1675298,-8.52,47.16,21.18
1554109462084,-9.102755,-3.7547068999999995,-2.2703017999999995,-2.0900488,-1.019458,0.90973586,-7.14,46.38,21.6
1554109462105,-9.150639,-3.7594953,-1.7292121999999999,-2.231729,-0.85327685,0.6679208000000001,-5.94,45.36,22.14
1554109462125,-9.222465,-4.022857,-1.2838906,-2.1699438,-0.66152924,0.47297743,-4.8,43.98,22.68
1554109462144,-9.150639,-4.032433999999999,-0.623091,-1.9057581000000001,-0.47297743,0.31638354,-3.72,42.42,23.22
1554109462165,-9.270349000000001,-4.185663,-0.19692309,-1.4295848999999998,-0.34514567,0.19281286,-2.82,40.68,23.7
1554109462185,-9.150639,-4.223970400000001,0.023343466,-0.9598033000000001,-0.27696875,0.112918034,-2.52,39.84,23.88
1554109462205,-9.02614,-4.1282024,0.19572599,-0.18322548,-0.17896444,0.07456851,-1.56,37.38,24.6
1554109462225,-8.987833,-4.0420110000000005,0.23882163,0.29614353,-0.082025364,0.15233281,-1.08,35.82,25.02
1554109462244,-8.834603999999999,-4.171298,0.3441665,0.61678815,0.018109497,0.2695119,-0.72,34.44,25.38
1554109462264,-8.868122999999999,-4.247912400000001,0.31064767,0.76059884,0.10226539,0.36645097,-0.36,33.36,25.56
1554109462285,-9.102755,-4.1138372,0.18614918,0.6562029,0.07776430000000001,0.36964676,-0.06,32.58,25.74
1554109462304,-9.078813,-4.156933,0.0712275,0.46339005,0.017044231,0.330232,0.24,32.04,25.86
1554109462325,-9.02614,-4.1665095999999995,-0.11552023,0.007456851,-0.11504856,0.22370553,0.48,31.86,25.92
1554109462345,-9.011775,-4.0755300000000005,-0.27832595,-0.37390783,-0.19707392,0.13422333,0.6,31.74,25.98
1554109462364,-9.193734,-3.9606082000000002,-0.077213004,-0.6348976,-0.2545982,0.068176925,0.72,31.74,26.04
1554109462384,-9.150639,-3.86484,-0.36930559999999996,-0.773382,-0.26312032,0.010652645,0.84,31.8,25.92
1554109462404,-9.251195,-3.6206315000000004,-0.45070848,-0.7776430000000001,-0.24074976,-0.024501082,1.02,31.92,25.86
1554109462425,-9.227253,-3.5727474999999997,-0.6901286,-0.664725,-0.20026971,-0.056459017,1.2,31.86,25.74
1554109462445,-9.203311,-3.4674027,-0.7140707,-0.47191215,-0.17789917,-0.11611383,1.38,31.74,25.56
1554109462464,-9.174581,-3.3333273,-0.75716627,-0.24607609,-0.16085494,-0.1768339,1.56,31.56,25.5
1554109462490,-9.232041,-2.9885623,-1.1546037,-0.07989483,-0.13102753,-0.22370553,1.86,31.08,25.44
1554109462505,-9.184157,-2.902371,-1.2216414,-0.09267801,-0.11611383,-0.21837921,1.92,30.9,25.44
1554109462524,-9.093178,-2.6581624,-1.3844471,-0.20026971,-0.07456851,-0.19707392,2.1,30.6,25.38
1554109462544,-9.179369,-2.7204118,-1.240795,-0.3749731,-0.035153727999999995,-0.17789917,2.22,30.3,25.38
1554109462564,-9.227253,-2.7778726000000002,-1.1498153,-0.5656554,-0.0010652645,-0.16192019,2.34,30.0,25.44
1554109462585,-9.246407000000001,-2.8927941,-0.95827925,-0.7137272,0.007456851,-0.13635385,2.46,29.82,25.5
1554109462605,-9.327810000000001,-3.0843303,-0.76195467,-0.7840345999999999,-0.0010652645,-0.12463594,2.52,29.76,25.56
1554109462625,-9.346964,-3.2040405,-0.670975,-0.77870834,-0.015978966,-0.10226539,2.58,29.7,25.68
1554109462644,-9.222465,-3.3381157,-0.3357868,-0.71159667,-0.02876214,-0.07882957,2.52,29.58,25.74
1554109462664,-9.375694000000001,-3.4961330000000004,-0.19692309,-0.60933125,-0.020240024,-0.06391586,2.46,29.46,25.8
1554109462686,-9.294291000000001,-3.6733038000000002,-0.13467385,-0.44528055,-0.03089267,-0.04261058,2.28,28.98,25.98
1554109462705,-9.356541,-3.6637269999999997,0.10474633,-0.34408042,-0.036218993,-0.036218993,2.16,28.8,26.04
1554109462725,-9.346964,-3.6062663,0.09516951400000001,-0.23009712,-0.04580637,-0.027696876000000002,2.04,28.44,26.16
1554109462744,-9.327810000000001,-3.5104983,0.08080431,-0.14274544,-0.06498113,-0.022370555,1.92,28.02,26.34
1554109462765,-9.246407000000001,-3.615843,-0.024540568,-0.07669904,-0.10439592,-0.049002163,1.74,27.3,26.58
1554109462784,-9.23683,-3.4003648999999996,-0.014963761,-0.06498113,-0.128897,-0.06285059999999999,1.68,27.06,26.7
1554109462804,-9.165004,-3.2231941,-0.38367084,-0.09374327,-0.16405073,-0.07350325,1.68,26.34,26.88
1554109462824,-9.150639,-3.1705215,-0.38367084,-0.13741912,-0.18429075,-0.08948222,1.68,26.16,27.0
1554109462845,-9.035717,-2.959832,-0.40761283,-0.22264028,-0.18322548,-0.094808534,1.68,25.74,27.12
1554109462865,-9.165004,-2.9885623,-0.38367084,-0.28442562,-0.18535602,-0.08522116,1.8,25.44,27.24
1554109462885,-9.174581,-2.9981391,-0.6039374,-0.314253,-0.18855181,-0.07989483,1.86,25.2,27.24
1554109462905,-9.241617999999999,-2.7778726000000002,-0.6901286,-0.33768883,-0.2034655,-0.06604639400000001,1.98,25.02,27.18
1554109462925,-9.23683,-2.9071592999999996,-0.7140707,-0.36645097,-0.21944448,-0.04261058,2.1,24.78,27.18
1554109462945,-9.121908,-2.8018146,-0.7954735,-0.42397526,-0.22583607,-0.014913702,2.28,24.6,27.12
1554109462965,-9.188946000000001,-2.7635074,-0.9151836,-0.46765109999999993,-0.22690132,0.013848438000000001,2.4,24.36,27.12
1554109462985,-9.208099,-2.8257565,-0.87687635,-0.5219796,-0.2428803,0.06498113,2.52,24.12,27.12
1554109463004,-9.179369,-2.959832,-0.7715314999999999,-0.5305017,-0.26418558,0.07350325,2.7,23.94,27.12
1554109463024,-9.179369,-3.1609447,-0.7715314999999999,-0.535828,-0.2972088,0.06285059999999999,2.76,23.58,27.06
1554109463045,-9.227253,-3.2615013,-0.84335756,-0.5933523,-0.28122982,0.05006743,2.82,23.1,27.06
1554109463065,-9.160214999999999,-3.3045970000000002,-0.7906850999999999,-0.6775081999999999,-0.25672874,0.06711166,2.94,22.62,27.06
1554109463085,-9.184157,-3.4051532999999994,-0.76195467,-0.7414241,-0.23648871,0.09054748,3.06,22.14,27.06
1554109463105,-9.155427,-3.4626143,-0.8098387,-0.7840345999999999,-0.22796659,0.09267801,3.18,21.66,27.0
1554109463125,-9.121908,-3.8265328000000003,-0.8242039000000001,-0.7819041,-0.22796659,0.083090626,3.3,21.18,27.0
1554109463144,-9.121908,-4.0755300000000005,-0.9247603999999999,-0.7595335999999999,-0.22477080000000002,0.04474111,3.54,20.64,26.94
1554109463164,-9.054871,-4.085107,-0.9247603999999999,-0.72437984,-0.21411815,-0.008522116,3.84,19.92,26.88
1554109463185,-8.959103,-4.324527,-1.0875661,-0.60933125,-0.15339808,-0.080960095,4.14,19.14,26.82
1554109463205,-8.791509,-4.779425,-1.2695253999999998,-0.43569317,-0.07882957,-0.17576863,4.38,18.54,26.82
1554109463225,-8.930372,-4.894346700000001,-1.3461398999999998,-0.23861924,0.002130529,-0.3057309,4.56,17.94,26.76
1554109463244,-8.896853,-5.0571527000000005,-1.9494787,-0.06498113,0.098004326,-0.4165184,4.74,17.28,26.7
1554109463264,-8.853758000000001,-5.1002483,-2.1362264,0.014913702,0.22370553,-0.55074173,4.92,16.68,26.7
1554109463285,-8.801085,-5.3205147,-2.2990322,0.08628642,0.38882150000000004,-0.69668293,5.04,16.14,26.7
1554109463305,-8.791509,-5.5168395,-2.5001452,0.15339808,0.51665324,-0.8681905000000001,5.04,15.66,26.7
1554109463324,-8.844180999999999,-5.66528,-3.0125043,0.12144015,0.63702816,-1.0354371,4.98,15.42,26.7
1554109463344,-8.743625,-5.713164,-3.0364463,-0.015978966,0.753142,-1.1494204,4.92,15.48,26.7
1554109463365,-8.599973,-5.9717374,-2.8018146,-0.06711166,0.87032104,-1.2303803999999998,4.74,15.72,26.7
1554109463385,-8.528147,-6.4457892999999995,-2.7204118,0.12144015,0.9619338,-1.3422332000000001,4.32,16.14,26.76
1554109463404,-8.7532015,-6.6229606,-3.0029275,0.42077947,1.0524813,-1.4189322,3.78,16.62,26.82
1554109463425,-8.738836000000001,-6.675633,-3.6637269999999997,0.6135923000000001,1.1632688,-1.4168017,3.12,17.22,27.0
1554109463447,-8.470686,-6.824073299999999,-3.8265328000000003,0.6412892,1.2974921,-1.4359765,2.28,18.0,27.3
1554109463465,-8.346188,-6.9437833,-3.8696284,0.6764429,1.4295848999999998,-1.567004,1.38,18.9,27.72
1554109463485,-8.427589999999999,-7.2981253,-3.8025907999999995,0.8202536,1.5361114,-1.700162,0.36,19.92,28.26
1554109463505,-8.384495,-7.475296000000001,-4.43466,0.9555421999999999,1.6373115,-1.7875136999999999,-0.72,21.12,28.74
1554109463524,-8.389283,-7.719505000000001,-4.449025,1.0098706,1.7385116000000003,-1.8514296000000001,-1.8,22.26,29.22
1554109463545,-7.9487495,-7.599794999999999,-4.449025,0.9917611999999999,1.8482338,-1.9249328,-2.94,23.52,29.7
1554109463565,-7.8050976,-7.882310400000001,-4.4921207,0.98430437,1.9547603,-1.9792613999999997,-4.2,24.78,30.12
1554109463584,-7.4603324,-7.949348,-4.559158999999999,1.0088054,2.030394,-2.0250678,-5.64,25.98,30.48
1554109463604,-7.4124484,-8.476072,-5.085883,0.9619338,2.1038973,-2.0772657,-7.32,27.06,30.66
1554109463624,-7.268796400000001,-8.476072,-5.1289787,0.74248934,2.1923141,-2.1283984,-9.18,28.02,30.72
1554109463645,-6.775591,-8.461707,-4.563947,0.6061354999999999,2.2871227000000003,-2.0975057999999995,-11.16,28.98,30.66
1554109463664,-6.1243677000000005,-8.504802999999999,-4.065953299999999,0.6327670999999999,2.3542345,-2.0847225,-13.32,29.88,30.54
1554109463684,-5.5976434,-8.658031,-4.2862196,0.74248934,2.4277377,-2.078331,-16.8,30.96,30.18
1554109463705,-5.401319,-8.614936,-4.573524,0.81066626,2.47674,-2.0559604,-18.0,31.26,30.0
1554109463725,-4.831499,-8.758589,-4.4538136,0.8245146999999999,2.4394555,-2.0591562,-20.4,31.74,29.64
1554109463744,-4.4723687000000005,-8.581417,-4.2622776,0.76912093,2.3542345,-2.07407,-22.56,32.16,29.16
1554109463764,-3.8450879999999996,-8.188768,-3.970185,0.60720074,2.2615564,-2.038916,-24.72,32.34,28.56
1554109463784,-3.3423057000000003,-8.504802999999999,-3.4721910000000005,0.36432046,2.2349248,-1.8951055,-27.72,32.28,27.42
1554109463805,-2.8634652999999997,-8.365939,-2.6868927000000005,0.35579833,2.1784658,-1.7619474,-30.0,31.98,26.58
1554109463825,-2.2074540000000002,-8.614936,-2.926313,0.5496765,2.118811,-1.6767261999999998,-32.22,31.38,25.62
1554109463844,-1.7525556,-8.504802999999999,-2.9119477000000002,0.6306366,2.0708742,-1.663943,-34.44,30.66,24.54
1554109463865,-1.3934253,-8.246229,-2.9837740000000004,0.62531024,2.010154,-1.6468988999999998,-36.3,29.82,23.4
1554109463884,-1.0726023999999998,-8.18398,-2.6102784,0.5592638000000001,1.9792613999999997,-1.5723303999999998,-38.34,28.74,22.2
1554109463904,-0.5363011999999999,-8.30369,-2.6150667999999997,0.5006742999999999,1.9185413,-1.4572818,-40.38,27.9,21.0
1554109463924,-0.13407529999999998,-8.140884,-2.4570496,0.36645097,1.8556907,-1.3592775,-42.18,27.0,19.68
1554109463945,0.2873042,-7.9062524000000005,-2.4762032000000005,0.16724652,1.7928401000000003,-1.3006879,-43.8,26.1,18.06
1554109463965,0.58897364,-8.174403,-2.212841,-0.12037488,1.7299895,-1.2431636000000001,-45.06,25.14,16.5
1554109463984,0.8619126,-8.590994,-1.6047136999999998,-0.2695119,1.6234629999999999,-1.200553,-46.26,23.94,14.88
1554109464004,1.1683705,-8.907029,-1.0540473,-0.2545982,1.5606124,-1.171791,-47.34,22.62,13.32
1554109464024,1.661576,-9.136872,-1.3892354999999998,-0.12250541,1.4583471000000001,-1.1430287000000001,-48.48,21.24,11.82
1554109464045,2.183512,-9.227852,-1.6047136999999998,0.06604639400000001,1.3592775,-1.139833,-49.38,19.92,10.44
1554109464064,2.4133554,-9.141661000000001,-1.5855601000000001,0.18961707,1.2836437,-1.1345067,-50.16,18.42,9.0
1554109464085,2.873042,-8.820838,-1.6909049999999999,0.294013,1.2037488,-1.1100056,-50.94,16.86,7.8
1554109464105,3.2992098,-8.796896,-1.7962499,0.27483824,1.1835088,-1.1036139999999999,-51.66,15.18,6.6
1554109464125,3.4859576,-9.012374000000001,-2.03567,0.09161274,1.1739215,-1.135572,-52.44,13.68,5.52
1554109464145,3.5960910000000004,-9.050680999999999,-1.6334441000000002,-0.19174760000000002,1.2048141,-1.1920309,-53.16,12.42,4.44
1554109464164,3.8355112,-9.050680999999999,-1.2886791000000002,-0.30679616,1.196292,-1.2186625,-53.82,11.28,3.3
1554109464185,4.132391999999999,-9.285313,-0.84335756,-0.18748654,1.1856394,-1.2175972,-54.3,10.08,2.04
1554109464205,4.376600700000001,-9.314043,-0.8050503000000001,0.06178534,1.1739215,-1.2580773,-54.78,8.88,0.78
1554109464224,4.697424,-9.165602999999999,-1.0971429,0.25672874,1.1334413,-1.3358417,-55.14,7.56,-0.36
1554109464244,4.8506527,-8.863934,-0.66618663,0.39201729999999996,1.1014834999999998,-1.3954965,-55.5,6.18,-1.56
1554109464265,5.1810527,-8.868722,-0.30226797,0.59867865,1.0290455,-1.4189322,-55.8,4.68,-2.58
1554109464284,5.583278,-8.002021000000001,0.3681085,0.7456851,0.95234644,-1.4658038999999998,-56.1,3.06,-3.54
1554109464306,5.9184665999999995,-7.6189485,0.40162733,0.9012136999999999,0.8479504999999999,-1.5094798,-56.16,1.26,-4.62
1554109464325,6.047753299999999,-7.4992385,0.76554596,1.0578076,0.7797736,-1.5286545,-56.28,-0.6,-5.58
1554109464345,5.9041014,-6.900687700000001,1.0815806000000001,1.2197278,0.6956177,-1.5297197,-56.4,-2.46,-6.54
1554109464365,6.1626754,-6.488885,1.1486181999999998,1.3986923,0.56885123,-1.4924355,-56.52,-4.32,-7.56
1554109464384,6.483498,-5.909488,1.4694413,1.4508902,0.44954160000000004,-1.4594122999999999,-56.64,-6.24,-8.58
1554109464405,6.6941880000000005,-5.8041434,1.584363,1.5073493,0.37816888,-1.3954965,-56.76,-8.04,-9.48
1554109464424,6.7372837,-5.8903346,1.8908207,1.5371766000000002,0.31851408,-1.3166668,-56.88,-9.84,-10.26
1554109464444,6.6750345,-5.8041434,2.0440497,1.582983,0.20240025,-1.252751,-57.0,-11.52,-10.92
1554109464464,6.933608,-5.6604915,1.9003976999999999,1.5840483,0.113983296,-1.2122709999999999,-57.06,-13.14,-11.4
1554109464485,7.029375999999999,-5.3540335,1.9722236000000002,1.4721955,0.012783173500000002,-1.200553,-57.06,-14.76,-11.7
1554109464505,7.1155677,-4.8799815,1.8620903000000002,1.2740563,-0.047936900000000005,-1.1696603,-57.06,-16.56,-11.94
1554109464524,7.201759,-4.482544,2.168548,1.0503508,-0.08522116,-1.1025486999999998,-56.88,-18.06,-12.0
1554109464545,7.2592196,-4.200028400000001,2.202067,0.8873653,-0.1107875,-1.0088054,-56.76,-19.5,-12.06
1554109464565,7.374141000000001,-4.013280399999999,2.0440497,0.7978831000000001,-0.13209279,-0.89162636,-56.52,-21.42,-12.06
1554109464585,7.445967,-3.9031472000000003,2.2499511,0.70200926,-0.13954964,-0.75101143,-56.34,-22.74,-12.06
1554109464604,7.565677,-3.7978023999999997,2.2691047,0.62531024,-0.15765914,-0.68176925,-56.28,-23.34,-12.06
1554109464625,7.8003089999999995,-3.7020345,2.1350293,0.4889564,-0.17257284,-0.57311225,-56.1,-25.02,-12.06
1554109464645,7.876923599999999,-3.74513,2.2499511,0.330232,-0.16085494,-0.49747851,-55.92,-25.86,-12.0
1554109464666,7.9008656,-3.793014,2.28347,0.16831179,-0.15446335,-0.42717105,-55.86,-26.64,-12.0
1554109464685,8.039729,-3.8504747999999998,2.297835,0.07243799,-0.15339808,-0.350472,-55.74,-27.36,-11.94
1554109464705,8.0924015,-3.8456864,2.4462755,0.05752428,-0.13528858,-0.28336033,-55.62,-28.08,-11.82
1554109464725,8.178593,-4.0037036,2.5468319999999998,0.07137272,-0.11930962,-0.25033715,-55.56,-28.8,-11.76
1554109464745,8.145074000000001,-3.912724,2.532467,0.08522116,-0.112918034,-0.22903186,-55.44,-29.34,-11.64
1554109464765,8.446744,-3.9270894999999997,2.5037365,0.082025364,-0.11611383,-0.21198763,-55.38,-29.82,-11.52
1554109464785,8.480263,-3.946243,2.5037365,0.07030745599999999,-0.11611383,-0.20026971,-55.32,-30.18,-11.34
1554109464804,8.470686,-3.8552632000000004,2.3936029999999997,0.09587380000000001,-0.10439592,-0.19174760000000002,-55.2,-30.54,-11.22
1554109464824,8.576031,-4.013280399999999,2.3696610000000002,0.16831179,-0.101200126,-0.17896444,-55.14,-30.78,-11.1
1554109464845,8.6095495,-3.8456864,2.4558525,0.22477080000000002,-0.07989483,-0.17789917,-55.08,-31.02,-10.98
1554109464865,8.571242,-3.8121676,2.5133132999999996,0.23755397,-0.07776430000000001,-0.20026971,-55.08,-31.26,-10.92
1554109464884,8.734048,-3.6637269999999997,2.2882583,0.18216023,-0.083090626,-0.221575,-55.02,-31.44,-10.8
1554109464905,8.858546,-3.7978023999999997,2.40318,0.11717909,-0.080960095,-0.23861924,-54.96,-31.56,-10.68
1554109464925,8.8777,-3.8121676,2.4702177000000005,0.09374327,-0.08841695,-0.25033715,-54.9,-31.68,-10.62
1554109464944,8.7053175,-3.7211879999999997,2.4558525,0.14061491,-0.094808534,-0.26525086,-54.78,-31.8,-10.56
1554109464964,8.743625,-3.6445735,2.3744495,0.20026971,-0.11611383,-0.28442562,-54.72,-31.92,-10.44
1554109464984,8.7292595,-3.3524809999999996,2.4271219,0.2727077,-0.13209279,-0.314253,-54.6,-32.1,-10.38
1554109465005,8.767567,-3.1465794999999996,2.4893713,0.31318775,-0.13741912,-0.31318775,-54.54,-32.28,-10.26
1554109465025,8.7053175,-2.9454667999999997,2.3936029999999997,0.37816888,-0.14274544,-0.2908172,-54.48,-32.46,-10.2
1554109465045,8.767567,-2.9550436,2.3600842999999996,0.45806372,-0.11930962,-0.24927188,-54.36,-32.58,-10.08
1554109465064,8.848969,-2.878429,2.3169887000000005,0.5219796,-0.112918034,-0.20879184,-54.3,-32.76,-9.96
1554109465085,8.829816000000001,-2.959832,2.2930467,0.51665324,-0.094808534,-0.19387813,-54.18,-33.0,-9.84
1554109465104,8.892064999999999,-2.8736405,2.1733365,0.40906155,-0.09267801,-0.20026971,-54.12,-33.18,-9.72
1554109465125,9.02614,-2.8592752999999997,2.202067,0.27164245,-0.08522116,-0.19813919,-54.06,-33.36,-9.6
1554109465145,9.160214999999999,-2.8832173,2.1924900000000003,0.13848437,-0.07882957,-0.21624869,-54.0,-33.54,-9.42
1554109465165,9.184157,-2.9215245,2.3169887000000005,0.06285059999999999,-0.07030745599999999,-0.23648871,-53.94,-33.66,-9.24
1554109465185,8.939949,-2.6533740000000003,2.6330232999999996,0.08522116,-0.06604639400000001,-0.23968449999999997,-53.88,-33.9,-9.0
1554109465205,8.901641999999999,-2.6198552000000004,2.5468319999999998,0.21837921,-0.060720075,-0.21518342,-53.76,-34.08,-8.82
1554109465225,9.016563,-2.5911248,2.5516205000000003,0.39308259999999995,-0.07243799,-0.18002969,-53.76,-34.38,-8.64
1554109465244,9.016563,-2.5719712,2.307412,0.53476274,-0.051132694000000006,-0.15126756,-53.7,-34.68,-8.46
1554109465265,8.973467999999999,-2.4666264,2.178125,0.5699165,-0.04261058,-0.14061491,-53.7,-34.98,-8.28
1554109465285,9.006986999999999,-2.3181857999999997,2.202067,0.4825648,-0.040480047000000005,-0.14061491,-53.64,-35.28,-8.04
1554109465304,9.093178,-2.3660697999999996,2.2260091,0.2790993,-0.047936900000000005,-0.15659387,-53.58,-35.52,-7.8
1554109465324,9.002198,-2.3612813999999998,2.3361422999999997,0.094808534,-0.02876214,-0.15446335,-53.58,-35.76,-7.56
1554109465345,9.021352,-2.4714148,2.3026235,-0.027696876000000002,-0.035153727999999995,-0.1587244,-53.52,-35.88,-7.38
1554109465365,9.064447,-2.404377,2.2643162999999995,-0.07669904,-0.039414786,-0.17789917,-53.52,-36.0,-7.08
1554109465384,8.987833,-2.308609,2.1254525,-0.046871635999999994,-0.027696876000000002,-0.18429075,-53.52,-36.0,-6.84
1554109465405,8.963891,-2.203264,2.4893713,0.053263225,-0.010652645,-0.16085494,-53.52,-36.0,-6.78
1554109465425,8.983044999999999,-2.332551,2.3169887000000005,0.19174760000000002,0.0031957934000000003,-0.12144015,-53.46,-36.0,-6.6
1554109465444,9.016563,-2.2703017999999995,2.2786815,0.26525086,0.011717908999999999,-0.098004326,-53.46,-35.94,-6.48
1554109465464,8.954314,-2.0117279999999997,2.2164322999999997,0.25885928,0.018109497,-0.09161274,-53.4,-35.94,-6.42
1554109465485,8.844180999999999,-1.7914615000000003,2.2882583,0.15765914,0.02876214,-0.07563378,-53.4,-36.0,-6.36
1554109465505,9.011775,-1.9829974999999997,2.2212207000000004,0.018109497,0.036218993,-0.051132694000000006,-53.4,-36.0,-6.36
1554109465524,9.284714,-2.1505916000000003,2.2786815,-0.14168017,0.025566347000000003,-0.051132694000000006,-53.4,-36.0,-6.3
1554109465545,9.126697,-2.3373394,2.484583,-0.34621096,0.049002163,-0.04580637,-53.4,-36.06,-6.3
1554109465565,9.011775,-2.356493,2.6521769,-0.36432046,0.054328485999999995,-0.041545313,-53.4,-36.12,-6.3
1554109465585,9.102755,-2.6198552000000004,2.5851393,-0.2727077,0.051132694000000006,-0.05219796,-53.4,-36.24,-6.3
1554109465604,9.155427,-2.5911248,2.4462755,-0.17576863,0.06178534,-0.07563378,-53.4,-36.36,-6.3
1554109465624,9.107543,-2.4714148,2.3888147,-0.11824436,0.07030745599999999,-0.083090626,-53.34,-36.42,-6.36
1554109465645,9.308656,-2.4953567999999997,2.4558525,-0.11611383,0.053263225,-0.07776430000000001,-53.28,-36.54,-6.48
1554109465665,9.504980999999999,-2.404377,2.6856956000000003,-0.16298546,0.017044231,-0.08841695,-53.22,-36.66,-6.6
1554109465684,9.241617999999999,-2.3133974,2.6617537000000002,-0.17896444,0.015978966,-0.10013486,-53.16,-36.72,-6.84
1554109465704,9.050082000000002,-2.2798786,2.475006,-0.17257284,0.01917476,-0.10226539,-53.1,-36.84,-7.02
1554109465725,9.112331,-2.4378957999999997,2.3505075,-0.11504856,0.020240024,-0.09587380000000001,-53.1,-36.9,-7.26
1554109465745,9.126697,-2.4762032000000005,2.3026235,-0.083090626,0.04261058,-0.096939065,-53.04,-36.96,-7.44
1554109465764,9.093178,-2.4905684,2.3409307,-0.10972224,0.046871635999999994,-0.096939065,-53.04,-37.02,-7.68
1554109465784,9.141062,-2.5719712,2.379238,-0.1768339,0.054328485999999995,-0.101200126,-52.98,-37.08,-7.8
1554109465805,9.059659,-2.4714148,2.5899277,-0.2130529,0.012783173500000002,-0.08628642,-52.98,-37.14,-7.92
1554109465824,8.825027,-2.5145104,2.4271219,-0.21731395,0.04261058,-0.09374327,-53.04,-37.14,-7.98
1554109465844,8.848969,-2.5767596,2.594716,-0.1768339,0.026631612000000002,-0.096939065,-53.04,-37.2,-7.98
1554109465865,8.825027,-2.0979192,2.594716,-0.08522116,0.034088463,-0.06391586,-53.04,-37.32,-7.98
1554109465884,8.925583999999999,-1.9542671000000003,2.594716,-0.00958738,0.033023197000000004,0.017044231,-53.04,-37.44,-7.98
1554109465905,9.035717,-1.9829974999999997,2.498948,-0.035153727999999995,0.037284255,0.058589544,-53.04,-37.62,-8.04
1554109465925,8.896853,-2.2559366,2.4797945,-0.13741912,0.04580637,0.07137272,-53.04,-37.8,-8.04
1554109465945,8.767567,-2.236783,2.5468319999999998,-0.23968449999999997,0.053263225,0.11930962,-53.04,-37.98,-8.04
1554109465966,8.801085,-2.3517046,2.5468319999999998,-0.31851408,0.06391586,0.17044231,-52.98,-38.1,-8.16
1554109465985,8.456321,-2.0883423999999997,2.594716,-0.39947417,0.07137272,0.21518342,-52.98,-38.28,-8.22
1554109466005,8.355764,-1.8632874,2.6378117000000003,-0.48149952,0.06498113,0.28655612,-52.98,-38.28,-8.34
1554109466024,8.159439,-1.9829974999999997,2.556409,-0.5187838,0.06924219,0.39734364,-52.98,-38.22,-8.46
1554109466045,7.991845,-2.404377,2.7670987,-0.49641323,0.083090626,0.5113269,-52.98,-38.1,-8.58
1554109466065,7.752425,-2.5001452,2.891597,-0.4079963,0.051132694000000006,0.6423545,-52.98,-37.92,-8.7
1554109466085,7.5369470000000005,-2.9837740000000004,2.8006175,-0.29188246,0.043675844000000005,0.77444726,-52.98,-37.56,-8.88
1554109466104,7.5034279999999995,-2.8113914,2.594716,-0.31851408,0.008522116,0.84581995,-53.04,-37.2,-9.06
1554109466124,7.522581599999999,-3.3045970000000002,2.5133132999999996,-0.38242993,0.012783173500000002,0.9651296,-53.1,-36.72,-9.18
1554109466144,7.8865004,-3.5104983,2.4366987,-0.51665324,-0.043675844000000005,1.0791129,-53.4,-36.18,-9.36
1554109466164,7.996633500000001,-4.0755300000000005,2.130241,-0.6593986999999999,-0.080960095,1.1568771999999998,-53.7,-35.58,-9.48
1554109466185,7.6135616,-4.185663,2.2451627,-0.84155893,-0.11717909,1.171791,-54.0,-34.8,-9.6
1554109466204,7.575253999999999,-4.3676224,2.178125,-1.0088054,-0.19813919,1.1835088,-54.3,-33.84,-9.72
1554109466224,8.255207,-4.9374423,1.9099745,-1.1163971000000001,-0.33981937,1.216532,-54.6,-32.82,-9.84
1554109466245,8.37013,-5.66528,1.7280151000000001,-1.1377025,-0.40266997,1.2133361999999999,-54.96,-31.68,-9.9
1554109466264,8.063671000000001,-6.1489085999999995,1.584363,-1.1046791999999999,-0.44315,1.1377025,-55.26,-30.48,-9.96
1554109466284,8.422802,-6.618172,1.4790181,-1.0247844000000002,-0.535828,1.0034790999999998,-55.56,-28.5,-10.02
1554109466305,8.662222,-7.101800999999999,1.0241197,-0.96086854,-0.5336975,0.89162636,-55.62,-27.06,-10.02
1554109466324,8.48984,-7.1927805,1.0528502,-0.88949585,-0.49428272,0.7350325,-55.74,-25.86,-10.02
1554109466345,8.552089,-7.4896617,1.0432734000000001,-0.7233145999999999,-0.46552056,0.58696073,-55.86,-24.84,-9.96
1554109466364,8.51857,-7.6285253,0.7368156,-0.48043427,-0.42930159999999995,0.46871635,-55.98,-23.88,-9.84
1554109466384,8.456321,-7.6524673,0.6985083000000001,-0.18855181,-0.40373522,0.3568636,-56.1,-22.98,-9.72
1554109466405,8.355764,-7.4992385,0.14784196,0.07882957,-0.36645097,0.23116238,-56.22,-22.02,-9.54
1554109466425,8.006210000000001,-7.1448965,0.0712275,0.27164245,-0.33449304,0.112918034,-56.34,-21.24,-9.36
1554109466444,7.8577699999999995,-6.8863225,0.16220717,0.39414784,-0.3206446,0.02130529,-56.46,-20.64,-9.12
1554109466466,7.8146744,-6.7043633,0.076015905,0.44847634,-0.29614353,-0.039414786,-56.58,-20.16,-8.76
1554109466484,7.632714999999999,-6.522404,-0.14425065,0.38349520000000004,-0.2695119,-0.08735169,-56.58,-19.68,-8.4
1554109466504,7.4363904000000005,-6.5750766,-0.05805939,0.27590349999999997,-0.21837921,-0.10972224,-56.58,-19.26,-8.1
1554109466525,7.1730285,-6.373963400000001,-0.014963761,0.16085494,-0.19920446,-0.12676647,-56.58,-18.84,-7.8
1554109466545,7.0485296,-6.431424,0.23882163,0.101200126,-0.15978967,-0.13102753,-56.52,-18.54,-7.5
1554109466564,6.823475,-6.373963400000001,0.3776853,0.111852765,-0.13209279,-0.12037488,-56.52,-18.42,-7.08
1554109466585,6.9096660000000005,-6.273407,0.43035775,0.18748654,-0.11717909,-0.083090626,-56.52,-18.36,-6.66
1554109466604,6.9862804,-6.2446766,0.38726214,0.23009712,-0.10865697,-0.049002163,-56.52,-18.3,-6.36
1554109466625,6.95755,-5.899911400000001,0.65541273,0.25566345,-0.09161274,-0.007456851,-56.46,-18.3,-6.18
1554109466645,7.038953,-5.919065,0.7990648,0.25885928,-0.08948222,0.024501082,-56.52,-18.24,-6.0
1554109466664,7.2592196,-5.789778,0.8900445,0.2545982,-0.10972224,0.058589544,-56.52,-18.24,-5.82
1554109466685,7.4699089999999995,-5.8185085999999995,0.88046765,0.2428803,-0.13422333,0.10226539,-56.52,-18.24,-5.7
1554109466706,7.522581599999999,-5.7849900000000005,0.76075757,0.23329292,-0.14913702,0.13954964,-56.52,-18.3,-5.58
1554109466725,7.5800424,-5.899911400000001,0.65062433,0.2034655,-0.17470337,0.15233281,-56.52,-18.3,-5.52
1554109466744,7.699753,-6.0387754000000005,0.86131406,0.14807177,-0.20559604,0.15339808,-56.52,-18.36,-5.52
1554109466764,7.8673470000000005,-6.172850599999999,0.55006784,0.094808534,-0.21731395,0.15020229,-56.46,-18.36,-5.52
1554109466785,7.8625584,-6.2638300000000005,0.6075286999999999,0.07563378,-0.23009712,0.13848437,-56.46,-18.36,-5.46
1554109466805,8.020576,-6.373963400000001,0.22445641,0.08522116,-0.22796659,0.11824436,-56.46,-18.24,-5.4
1554109466825,8.063671000000001,-6.417059,0.3681085,0.09054748,-0.21092236,0.08948222,-56.46,-18.06,-5.34
1554109466844,8.025364,-6.369175,0.09995792,0.08841695,-0.19174760000000002,0.05006743,-56.46,-17.88,-5.22
1554109466865,7.967903,-6.431424,-0.048482585999999994,0.07137272,-0.15978967,0.018109497,-56.4,-17.64,-5.04
1554109466884,7.896077,-6.5990186,0.08080431,0.060720075,-0.11611383,-0.004261058,-56.4,-17.34,-4.8
1554109466904,7.776367,-6.464943,0.13347675,0.05539375,-0.080960095,-0.026631612000000002,-56.46,-17.04,-4.56
1554109466924,7.680599000000001,-6.618172,0.30585927,0.068176925,-0.046871635999999994,-0.040480047000000005,-56.52,-16.8,-4.32
1554109466944,7.6518690000000005,-6.3548098,0.3298013,0.09054748,-0.022370555,-0.039414786,-56.52,-16.5,-4.08
1554109466965,7.680599000000001,-6.206369400000001,0.26755205,0.10759171,0.0010652645,-0.043675844000000005,-56.58,-16.38,-3.84
1554109466984,7.575253999999999,-6.297349,0.3441665,0.099069595,0.020240024,-0.05965481,-56.64,-16.2,-3.72
1554109467005,7.4124484,-6.1058129999999995,0.49260699999999996,0.07030745599999999,0.026631612000000002,-0.07243799,-56.64,-16.02,-3.6
1554109467025,7.5082164,-6.187216,0.29149407,0.039414786,0.027696876000000002,-0.06604639400000001,-56.7,-15.9,-3.54
1554109467045,7.479486,-6.0531406,0.3393781,0.010652645,0.026631612000000002,-0.060720075,-56.76,-15.78,-3.54
1554109467065,7.4699089999999995,-6.1632739999999995,0.28670564,-0.024501082,0.027696876000000002,-0.06391586,-56.76,-15.72,-3.6
1554109467084,7.3214690000000004,-6.129755,0.31543607,-0.06711166,0.025566347000000003,-0.068176925,-56.7,-15.6,-3.6
1554109467104,7.4363904000000005,-6.206369400000001,0.25797522,-0.098004326,0.033023197000000004,-0.06285059999999999,-56.7,-15.54,-3.66
1554109467125,7.445967,-6.225523,0.13826515,-0.10759171,0.03834952,-0.049002163,-56.7,-15.48,-3.72
1554109467146,7.445967,-6.2303114,0.21009120000000003,-0.12144015,0.040480047000000005,-0.035153727999999995,-56.76,-15.42,-3.72
1554109467166,7.4124484,-6.2638300000000005,0.26755205,-0.14487597,0.05006743,-0.02876214,-56.76,-15.42,-3.66
1554109467184,7.575253999999999,-6.3787518,0.30585927,-0.17150758,0.07456851,-0.012783173500000002,-56.82,-15.42,-3.66
1554109467205,7.522581599999999,-6.393117,0.30585927,-0.17789917,0.09267801,-0.014913702,-56.82,-15.42,-3.6
1554109467224,7.5704656,-6.4218473,0.3537433,-0.1768339,0.10333065,-0.024501082,-56.82,-15.42,-3.6
1554109467244,7.5704656,-6.4122705,0.3633201,-0.17363810000000002,0.11611383,-0.036218993,-56.82,-15.42,-3.54
1554109467265,7.417236999999999,-6.517616,0.44951138,-0.16724652,0.12570119999999999,-0.053263225,-56.76,-15.42,-3.54
1554109467284,7.4842744,-6.393117,0.48303019999999997,-0.14168017,0.112918034,-0.058589544,-56.76,-15.42,-3.54
1554109467305,7.632714999999999,-6.4601545,0.44472298,-0.096939065,0.10439592,-0.05965481,-56.7,-15.48,-3.6
1554109467324,7.4268136,-6.4457892999999995,0.52133745,-0.06604639400000001,0.10226539,-0.06285059999999999,-56.64,-15.54,-3.66
1554109467344,7.465121000000001,-6.455366000000001,0.23403321,-0.037284255,0.09267801,-0.060720075,-56.64,-15.6,-3.78
1554109467364,7.5082164,-6.321291,0.25318682,-0.058589544,0.083090626,-0.068176925,-56.58,-15.66,-3.9
1554109467385,7.465121000000001,-6.4457892999999995,0.22924481,-0.11717909,0.10333065,-0.082025364,-56.64,-15.72,-3.96
1554109467405,7.311891999999999,-6.4457892999999995,0.38726214,-0.1768339,0.113983296,-0.09267801,-56.64,-15.84,-4.08
1554109467424,7.268796400000001,-6.4457892999999995,0.30107087,-0.18855181,0.12037488,-0.08735169,-56.58,-16.02,-4.2
1554109467445,7.2352777,-6.417059,0.6123171,-0.16298546,0.11717909,-0.07776430000000001,-56.52,-16.2,-4.26
1554109467465,7.3071036,-6.3787518,0.6985083000000001,-0.13102753,0.113983296,-0.07563378,-56.52,-16.32,-4.38
1554109467484,7.1969705,-6.3404446,0.65541273,-0.08628642,0.101200126,-0.05752428,-56.52,-16.44,-4.44
1554109467504,7.2831616,-6.225523,0.65541273,-0.05539375,0.083090626,-0.039414786,-56.58,-16.56,-4.5
1554109467524,7.326257000000001,-6.1489085999999995,0.5883751,-0.025566347000000003,0.058589544,-0.02130529,-56.64,-16.62,-4.62
1554109467545,7.335833999999999,-6.1153900000000005,0.65062433,-0.01917476,0.037284255,-0.0010652645,-56.64,-16.68,-4.74
1554109467565,7.3885064,-6.010045,0.6362591,-0.051132694000000006,0.013848438000000001,0.026631612000000002,-56.7,-16.68,-4.8
1554109467587,7.5034279999999995,-6.0866594,0.5883751,-0.096939065,0.007456851,0.056459017,-56.82,-16.62,-4.92
1554109467605,7.5034279999999995,-6.2925606,0.45908818,-0.13741912,0.013848438000000001,0.07776430000000001,-56.88,-16.62,-5.04
1554109467625,7.383717999999999,-6.297349,0.52133745,-0.18535602,0.008522116,0.07776430000000001,-57.0,-16.62,-5.1
1554109467644,7.4028716,-6.4601545,0.56443304,-0.21837921,0.00958738,0.07030745599999999,-57.0,-16.62,-5.16
1554109467664,7.278373200000001,-6.589442,0.7368156,-0.221575,0.013848438000000001,0.06604639400000001,-56.94,-16.68,-5.28
1554109467685,7.3549875999999985,-6.7330937,0.76075757,-0.18322548,-0.0063915867,0.04580637,-56.94,-16.74,-5.28
1554109467705,7.3166804,-6.795342999999999,0.54049104,-0.10759171,-0.035153727999999995,0.025566347000000003,-56.94,-16.8,-5.34
1554109467725,7.345411,-6.713939999999999,0.7846996,-0.014913702,-0.058589544,0.002130529,-56.94,-16.8,-5.4
1554109467744,7.273585000000001,-6.5942300000000005,0.6075286999999999,0.06711166,-0.098004326,-0.02130529,-56.94,-16.8,-5.4
1554109467765,7.254431200000001,-6.5607114,0.741604,0.10865697,-0.13741912,-0.03195793,-56.94,-16.74,-5.4
1554109467784,7.2113357,-6.5846534,0.7128736,0.11930962,-0.1768339,-0.033023197000000004,-56.94,-16.68,-5.4
1554109467804,7.1730285,-6.6516910000000005,0.6123171,0.13635385,-0.20985709,-0.033023197000000004,-56.94,-16.62,-5.46
1554109467825,7.1873937,-6.5750766,0.55485624,0.16405073,-0.24820662,-0.027696876000000002,-57.0,-16.56,-5.46
1554109467844,7.216124000000001,-6.675633,0.30585927,0.1768339,-0.2695119,-0.012783173500000002,-57.0,-16.5,-5.46
1554109467864,7.2209125,-6.7570357,0.18614918,0.17044231,-0.26205507,0.0031957934000000003,-57.06,-16.44,-5.46
1554109467885,7.192182000000001,-6.737882000000001,-0.0053869537,0.1587244,-0.25140239999999997,0.014913702,-57.12,-16.38,-5.4
1554109467905,7.2209125,-6.7330937,0.13826515,0.15978967,-0.23009712,0.027696876000000002,-57.12,-16.32,-5.4
1554109467924,7.3166804,-6.5655,-0.02932897,0.15446335,-0.20559604,0.03089267,-57.18,-16.32,-5.28
1554109467944,7.249642999999999,-6.4745197,-0.13467385,0.16618125,-0.16724652,0.035153727999999995,-57.24,-16.26,-5.1
1554109467964,7.3645644,-6.4840965,-0.16819267,0.15233281,-0.13209279,0.029827405,-57.24,-16.2,-4.86
1554109467985,7.2831616,-6.522404,-0.15382746,0.113983296,-0.07350325,0.027696876000000002,-57.24,-16.02,-4.56
1554109468005,7.2209125,-6.311714,0.018555064,0.098004326,-0.04261058,0.01917476,-57.24,-15.9,-4.32
1554109468024,7.28795,-6.3404446,-0.05327099,0.09267801,-0.018109497,0.014913702,-57.24,-15.84,-4.2
1554109468045,7.3166804,-6.3165026,-0.091578215,0.05006743,0.015978966,0.025566347000000003,-57.24,-15.66,-3.84
1554109468064,7.3310455999999995,-6.259042,-0.024540568,0.018109497,0.051132694000000006,0.034088463,-57.24,-15.6,-3.72
1554109468085,7.3310455999999995,-6.306926,-0.02932897,-0.051132694000000006,0.07989483,0.02876214,-57.24,-15.36,-3.54
1554109468105,7.4124484,-6.522404,0.018555064,-0.09161274,0.096939065,0.027696876000000002,-57.24,-15.3,-3.42
1554109468125,7.374141000000001,-6.761824000000001,0.008978256,-0.11717909,0.11504856,0.018109497,-57.18,-15.18,-3.42
1554109468145,7.4363904000000005,-7.0347633,0.032920275,-0.13422333,0.12144015,-0.011717908999999999,-57.18,-15.12,-3.36
1554109468165,7.445967,-7.1353197,-0.024540568,-0.14913702,0.12463594,-0.04261058,-57.18,-15.12,-3.36
1554109468184,7.393294999999999,-7.1305312999999995,0.09995792,-0.15552860000000002,0.14168017,-0.06924219,-57.18,-15.12,-3.36
1554109468204,7.3310455999999995,-7.029975,0.15263036,-0.13741912,0.15446335,-0.099069595,-57.18,-15.06,-3.42
1554109468225,7.2304892999999995,-7.0970125,0.21009120000000003,-0.098004326,0.17470337,-0.12676647,-57.18,-15.06,-3.48
1554109468245,7.0964136,-6.9437833,0.3681085,-0.06285059999999999,0.16937704,-0.15552860000000002,-57.18,-15.06,-3.54
1554109468264,7.1634517,-6.713939999999999,0.3824737,-0.03089267,0.17363810000000002,-0.17044231,-57.18,-15.06,-3.6
1554109468285,6.981492,-6.6612678,0.49739540000000004,-0.007456851,0.16937704,-0.17257284,-57.18,-15.06,-3.72
1554109468304,7.105990400000001,-6.517616,0.55485624,0.004261058,0.14913702,-0.16831179,-57.12,-15.06,-3.84
1554109468324,7.1395097000000005,-6.503250599999999,0.6410475,0.014913702,0.13209279,-0.14913702,-57.06,-15.06,-4.02
1554109468345,7.2113357,-6.417059,0.66498953,0.014913702,0.10865697,-0.128897,-57.0,-15.06,-4.2
1554109468364,7.1395097000000005,-6.4745197,0.7368156,0.0010652645,0.084155895,-0.12144015,-56.94,-15.06,-4.38
1554109468384,7.3214690000000004,-6.531981,0.6697779,-0.00958738,0.053263225,-0.11824436,-56.88,-15.12,-4.62
1554109468405,7.3885064,-6.4362125,0.7368156,-0.0063915867,0.029827405,-0.113983296,-56.88,-15.18,-4.8
1554109468424,7.4124484,-6.431424,0.7846996,0.0063915867,0.020240024,-0.1107875,-56.82,-15.3,-4.98
1554109468444,7.2448545,-6.541558,0.82779527,0.034088463,-0.0031957934000000003,-0.10865697,-56.76,-15.36,-5.1
1554109468465,7.1826053,-6.522404,0.8230068000000001,0.051132694000000006,-0.020240024,-0.11504856,-56.76,-15.48,-5.16
1554109468484,7.2113357,-6.589442,0.56922144,0.068176925,-0.035153727999999995,-0.12570119999999999,-56.76,-15.54,-5.22
1554109468504,7.2065472999999995,-6.627749000000001,0.54527944,0.08522116,-0.047936900000000005,-0.13422333,-56.7,-15.66,-5.22
1554109468525,7.1155677,-6.407482,0.6362591,0.094808534,-0.06391586,-0.14913702,-56.64,-15.72,-5.28
1554109468545,7.2304892999999995,-6.3787518,0.55006784,0.10546118,-0.082025364,-0.15126756,-56.64,-15.78,-5.28
1554109468565,7.2640080000000005,-6.287772,0.6075286999999999,0.10013486,-0.07989483,-0.15126756,-56.58,-15.9,-5.28
1554109468585,7.153875,-6.158485400000001,0.52133745,0.10759171,-0.09054748,-0.14274544,-56.58,-16.02,-5.28
1554109468605,7.273585000000001,-6.0531406,0.7032967,0.12676647,-0.101200126,-0.12144015,-56.64,-16.2,-5.28
1554109468625,7.359775999999999,-6.0244102,0.46866497,0.13422333,-0.08948222,-0.099069595,-56.76,-16.32,-5.28
1554109468644,7.3214690000000004,-6.0244102,0.56922144,0.12783173,-0.09054748,-0.08522116,-56.88,-16.44,-5.28
1554109468665,7.546523599999999,-6.139332,0.7032967,0.11824436,-0.098004326,-0.06604639400000001,-57.06,-16.62,-5.28
1554109468684,7.6470804,-6.177639,0.5117606,0.10226539,-0.10013486,-0.047936900000000005,-57.18,-16.74,-5.22
1554109468704,7.6518690000000005,-6.225523,0.53091425,0.07030745599999999,-0.10226539,-0.03834952,-57.3,-16.8,-5.16
1554109468724,7.795521000000001,-6.297349,0.5979519,0.041545313,-0.10546118,-0.035153727999999995,-57.42,-16.92,-5.1
1554109468744,7.8003089999999995,-6.3643866,0.5883751,0.034088463,-0.099069595,-0.034088463,-57.48,-16.86,-5.04
1554109468764,7.723694999999999,-6.3979053,0.54527944,0.03089267,-0.08735169,-0.053263225,-57.42,-16.86,-4.98
1554109468785,7.680599000000001,-6.4026937,0.54049104,0.04474111,-0.08735169,-0.07989483,-57.36,-16.86,-4.92
1554109468804,7.728483,-6.345233,0.55006784,0.07563378,-0.082025364,-0.09161274,-57.24,-16.86,-4.86
1554109468824,7.6375036,-6.2446766,0.55964464,0.101200126,-0.053263225,-0.096939065,-57.12,-16.86,-4.74
1554109468845,7.522581599999999,-6.192004,0.40641573,0.12250541,-0.029827405,-0.09054748,-57.0,-16.92,-4.68
1554109468865,7.5082164,-6.1058129999999995,0.46387658,0.11930962,-0.012783173500000002,-0.07776430000000001,-56.82,-17.04,-4.5
1554109468884,7.5034279999999995,-6.0387754000000005,0.26755205,0.094808534,0.00958738,-0.06924219,-56.7,-17.16,-4.44
1554109468906,7.4842744,-6.005256,0.44951138,0.06391586,0.012783173500000002,-0.06285059999999999,-56.7,-17.28,-4.38
1554109468924,7.5944076,-6.0148335,0.44951138,0.041545313,0.015978966,-0.05752428,-56.64,-17.34,-4.32
1554109468945,7.603985000000001,-5.9956794,0.25318682,0.004261058,0.017044231,-0.047936900000000005,-56.64,-17.46,-4.2
1554109468965,7.5369470000000005,-6.067506,0.43035775,-0.013848438000000001,0.023435817999999997,-0.040480047000000005,-56.64,-17.52,-4.14
1554109468984,7.5704656,-6.096236,0.26755205,-0.049002163,0.029827405,-0.027696876000000002,-56.64,-17.64,-4.08
1554109469004,7.489063000000001,-6.158485400000001,0.3345897,-0.06604639400000001,0.049002163,-0.025566347000000003,-56.7,-17.64,-4.08
1554109469024,7.522581599999999,-6.1967926,0.3776853,-0.07456851,0.05006743,-0.029827405,-56.7,-17.64,-4.08
1554109469045,7.675811,-6.201581,0.3824737,-0.07243799,0.05752428,-0.03089267,-56.7,-17.64,-4.08
1554109469065,7.517792999999999,-6.14412,0.54049104,-0.07989483,0.07350325,-0.023435817999999997,-56.58,-17.64,-4.08
1554109469084,7.5321584,-6.2446766,0.53091425,-0.07456851,0.07030745599999999,-0.004261058,-56.52,-17.64,-4.08
1554109469104,7.5561004,-6.369175,0.6841431,-0.07030745599999999,0.068176925,-0.002130529,-56.46,-17.64,-4.14
1554109469124,7.493850999999999,-6.4840965,0.6937199000000001,-0.056459017,0.04580637,-0.007456851,-56.4,-17.64,-4.14
1554109469144,7.5321584,-6.6085954,0.86610246,-0.03195793,0.011717908999999999,-0.0063915867,-56.34,-17.64,-4.2
1554109469165,7.575253999999999,-6.6469026,0.9475053,0.00958738,-0.034088463,-0.010652645,-56.28,-17.64,-4.2
1554109469185,7.5608889999999995,-6.8049197,0.84216046,0.04580637,-0.068176925,-0.034088463,-56.28,-17.64,-4.26
1554109469204,7.5608889999999995,-6.7905545,0.76554596,0.06391586,-0.09267801,-0.06711166,-56.52,-17.58,-4.32
1554109469224,7.465121000000001,-6.7666125,0.81343,0.07989483,-0.101200126,-0.098004326,-56.76,-17.58,-4.32
1554109469245,7.278373200000001,-6.713939999999999,0.85652566,0.111852765,-0.1107875,-0.11504856,-56.94,-17.52,-4.38
1554109469265,7.369353,-6.503250599999999,0.65062433,0.17044231,-0.128897,-0.12783173,-57.12,-17.46,-4.44
1554109469284,7.369353,-6.3548098,0.5069722,0.24074976,-0.14274544,-0.12996227,-57.24,-17.4,-4.44
1554109469304,7.4363904000000005,-6.2542534000000005,0.47824179999999994,0.2876214,-0.14913702,-0.11824436,-57.42,-17.34,-4.44
1554109469324,7.3166804,-6.1106014,0.52133745,0.29933932,-0.14061491,-0.09587380000000001,-57.54,-17.34,-4.44
1554109469345,7.393294999999999,-5.943007,0.41599256,0.29507825,-0.15339808,-0.068176925,-57.6,-17.34,-4.38
1554109469364,7.4842744,-5.9047,0.40162733,0.294013,-0.15126756,-0.035153727999999995,-57.42,-17.34,-4.32
1554109469385,7.608772999999999,-5.842450599999999,0.25797522,0.2790993,-0.15552860000000002,-0.013848438000000001,-57.24,-17.28,-4.2
1554109469405,7.666233999999999,-5.875969400000001,0.12389994,0.24501082,-0.14168017,0.007456851,-57.06,-17.34,-4.08
1554109469425,7.704541000000001,-5.852027400000001,0.42078096,0.18535602,-0.13848437,0.014913702,-56.94,-17.34,-4.02
1554109469445,7.608772999999999,-6.0483522,0.3681085,0.11717909,-0.128897,0.020240024,-56.76,-17.34,-3.9
1554109469465,7.675811,-6.172850599999999,0.3776853,0.05539375,-0.128897,0.015978966,-56.58,-17.28,-3.72
1554109469485,7.6518690000000005,-6.206369400000001,0.3585317,0.024501082,-0.10865697,0.01917476,-56.46,-17.16,-3.6
1554109469505,7.6614455999999995,-6.469731299999999,0.43993455,0.027696876000000002,-0.08735169,0.018109497,-56.34,-17.04,-3.48
1554109469525,7.522581599999999,-6.4026937,0.48303019999999997,0.05539375,-0.068176925,0.008522116,-56.28,-16.92,-3.36
1554109469545,7.350199000000001,-6.531981,0.54049104,0.08841695,-0.05965481,-0.0053263223,-56.28,-16.8,-3.3
1554109469565,7.3789296,-6.4026937,0.53091425,0.12037488,-0.05539375,-0.0031957934000000003,-56.22,-16.62,-3.12
1554109469585,7.374141000000001,-6.4026937,0.5165489999999999,0.15552860000000002,-0.049002163,0.008522116,-56.22,-16.56,-3.06
1554109469605,7.2927384,-6.373963400000001,0.6697779,0.17470337,-0.043675844000000005,0.014913702,-56.28,-16.44,-2.88
1554109469624,7.268796400000001,-6.2925606,0.54049104,0.18535602,-0.056459017,0.013848438000000001,-56.34,-16.38,-2.76
1554109469644,7.3214690000000004,-6.201581,0.47824179999999994,0.19068234,-0.06498113,0.0031957934000000003,-56.34,-16.32,-2.64
1554109469665,7.422025,-6.129755,0.49260699999999996,0.18961707,-0.09267801,-0.017044231,-56.46,-16.26,-2.52
1554109469684,7.398083,-6.010045,0.46387658,0.17363810000000002,-0.10546118,-0.022370555,-56.52,-16.26,-2.46
1554109469704,7.4986396,-5.885546,0.32501290000000005,0.165116,-0.10865697,-0.02130529,-56.52,-16.26,-2.4
1554109469725,7.455544000000001,-5.823297,0.42078096,0.1587244,-0.10333065,-0.010652645,-56.58,-16.14,-2.28
1554109469745,7.4699089999999995,-5.799355,0.32501290000000005,0.15339808,-0.098004326,0.0,-56.58,-16.02,-2.22
1554109469765,7.632714999999999,-5.679645,0.13347675,0.12570119999999999,-0.08735169,0.0063915867,-56.58,-15.96,-2.16
1554109469785,7.5800424,-5.7323174,0.090381116,0.06498113,-0.05539375,0.004261058,-56.52,-15.9,-2.1
1554109469806,7.575253999999999,-5.6509147,0.08559271,-0.015978966,-0.015978966,-0.0063915867,-56.52,-15.78,-2.04
1554109469824,7.7428484,-5.7849900000000005,0.09516951400000001,-0.10226539,0.00958738,-0.02876214,-56.46,-15.72,-1.98
1554109469845,7.896077,-5.8663926,0.02813187,-0.1768339,0.046871635999999994,-0.047936900000000005,-56.46,-15.66,-1.92
1554109469864,7.9008656,-6.0866594,0.20530279,-0.23435818,0.09161274,-0.06604639400000001,-56.46,-15.66,-1.86
1554109469884,7.9008656,-6.282984,0.08080431,-0.28122982,0.13848437,-0.07137272,-56.46,-15.6,-1.8
1554109469904,7.9343843,-6.4266357,0.008978256,-0.30892670000000005,0.18322548,-0.07563378,-56.46,-15.6,-1.74
1554109469925,7.819463000000001,-6.589442,0.08080431,-0.33555830000000003,0.23222765,-0.08628642,-56.46,-15.6,-1.74
1554109469945,7.6614455999999995,-6.6516910000000005,0.20530279,-0.36005938,0.26418558,-0.09267801,-56.46,-15.72,-1.8
1554109469965,7.5704656,-6.771400999999999,0.29149407,-0.38136467,0.29614353,-0.09587380000000001,-56.52,-15.78,-1.8
1554109469984,7.6135616,-6.603807000000001,0.3345897,-0.38029942,0.314253,-0.096939065,-56.52,-15.84,-1.92
1554109470005,7.656657000000001,-6.522404,0.40641573,-0.36218992,0.3323625,-0.10546118,-56.58,-15.9,-2.04
1554109470025,7.6949644,-6.373963400000001,0.5979519,-0.3323625,0.35473305,-0.11611383,-56.58,-15.96,-2.22
1554109470044,7.7332716,-6.306926,0.7080852,-0.28975195,0.37710363,-0.10546118,-56.64,-16.02,-2.4
1554109470064,7.6518690000000005,-6.215946,0.6937199000000001,-0.28336033,0.39414784,-0.10652645,-56.64,-16.14,-2.64
1554109470085,7.493850999999999,-6.259042,0.55006784,-0.3057309,0.40053943,-0.12250541,-56.64,-16.26,-2.88
1554109470105,7.359775999999999,-6.359598,0.7368156,-0.34194988,0.39947417,-0.13209279,-56.64,-16.32,-3.24
1554109470124,7.2209125,-6.4218473,0.7990648,-0.3536678,0.38775626,-0.12676647,-56.64,-16.38,-3.66
1554109470145,7.101202000000001,-6.431424,0.95708215,-0.34088463,0.34727620000000003,-0.12996227,-56.64,-16.5,-4.08
1554109470165,7.067683000000001,-6.508039,0.96187055,-0.30146983,0.31212249999999997,-0.13528858,-56.7,-16.56,-4.5
1554109470184,6.947973299999999,-6.503250599999999,0.97623575,-0.26844665,0.26205507,-0.1438107,-56.76,-16.74,-4.86
1554109470204,6.933608,-6.5271926,1.0720038,-0.24394555,0.22050974,-0.15020229,-56.82,-16.92,-5.22
1554109470225,6.991069,-6.469731299999999,1.1773487,-0.20133498,0.15339808,-0.14913702,-56.88,-17.16,-5.52
1554109470245,7.0245875999999985,-6.359598,1.1821371,-0.15446335,0.098004326,-0.13635385,-56.88,-17.4,-5.82
1554109470264,7.062895,-6.369175,1.3162124,-0.10439592,0.05752428,-0.111852765,-56.94,-17.64,-6.0
1554109470284,7.005433999999999,-6.2351,1.287482,-0.04580637,0.02130529,-0.08841695,-56.94,-17.88,-6.18
1554109470305,7.1969705,-6.3404446,1.4981716999999999,0.012783173500000002,-0.023435817999999997,-0.07030745599999999,-56.88,-18.12,-6.24
1554109470324,7.350199000000001,-6.168062,1.287482,0.06498113,-0.06604639400000001,-0.058589544,-56.88,-18.36,-6.36
1554109470346,7.4028716,-6.1106014,1.2587515,0.12463594,-0.101200126,-0.03834952,-56.76,-18.48,-6.48
1554109470364,7.493850999999999,-6.172850599999999,1.2491747,0.17470337,-0.13635385,-0.012783173500000002,-56.7,-18.6,-6.6
1554109470385,7.5273699999999995,-6.096236,1.1055226,0.19707392,-0.16831179,0.0010652645,-56.64,-18.66,-6.78
1554109470405,7.5800424,-6.0148335,0.8948328999999999,0.19813919,-0.20026971,0.0053263223,-56.58,-18.72,-6.84
1554109470424,7.680599000000001,-6.1345434,0.84694886,0.18535602,-0.23755397,0.020240024,-56.52,-18.72,-6.96
1554109470445,7.5944076,-6.177639,0.55485624,0.1768339,-0.24607609,0.034088463,-56.52,-18.66,-6.96
1554109470465,7.714117999999999,-6.350021400000001,0.76075757,0.17789917,-0.24607609,0.034088463,-56.46,-18.6,-7.02
1554109470484,7.627927000000001,-6.4793080000000005,0.5069722,0.18855181,-0.23435818,0.023435817999999997,-56.52,-18.54,-6.96
1554109470504,7.599196000000001,-6.5271926,0.6123171,0.19281286,-0.20985709,0.013848438000000001,-56.52,-18.54,-6.96
1554109470524,7.7189064,-6.4457892999999995,0.56922144,0.20772657,-0.19387813,0.0063915867,-56.64,-18.48,-6.84
1554109470545,7.738060000000001,-6.3787518,0.49739540000000004,0.22796659,-0.15339808,-0.0010652645,-56.76,-18.36,-6.72
1554109470566,7.6518690000000005,-6.306926,0.8230068000000001,0.26525086,-0.12250541,-0.0031957934000000003,-56.94,-18.24,-6.42
1554109470585,7.704541000000001,-6.177639,0.87089086,0.3057309,-0.10865697,0.0063915867,-57.06,-18.12,-6.18
1554109470604,7.7572136,-6.201581,0.8038531999999999,0.3291667,-0.10333065,0.007456851,-57.12,-18.06,-6.0
1554109470624,7.7093296,-5.9956794,0.84216046,0.3270362,-0.10972224,0.0,-57.12,-18.06,-5.76
1554109470645,7.6231384,-5.938218599999999,0.8038531999999999,0.28868666,-0.12996227,-0.007456851,-57.06,-17.94,-5.4
1554109470665,7.666233999999999,-5.938218599999999,0.7272388000000001,0.25033715,-0.14061491,-0.013848438000000001,-57.0,-17.88,-5.22
1554109470684,7.599196000000001,-5.751471,0.6841431,0.21411815,-0.14807177,-0.024501082,-56.94,-17.76,-5.04
1554109470705,7.656657000000001,-5.895123,0.7272388000000001,0.18216023,-0.14913702,-0.02876214,-56.82,-17.7,-4.92
1554109470724,7.680599000000001,-5.8089319999999995,0.6218939,0.15020229,-0.13102753,-0.029827405,-56.7,-17.64,-4.8
1554109470744,7.541735000000001,-5.899911400000001,0.66020113,0.13741912,-0.1107875,-0.02876214,-56.64,-17.58,-4.8
1554109470764,7.546523599999999,-6.057929,0.7032967,0.12357068,-0.08841695,-0.03834952,-56.58,-17.52,-4.74
1554109470785,7.5944076,-6.005256,0.6889314999999999,0.11930962,-0.07350325,-0.046871635999999994,-56.58,-17.46,-4.68
1554109470804,7.61835,-5.981314,0.54049104,0.111852765,-0.06178534,-0.054328485999999995,-56.58,-17.34,-4.56
1554109470825,7.565677,-5.981314,0.6362591,0.084155895,-0.04474111,-0.083090626,-56.58,-17.28,-4.44
1554109470845,7.6231384,-5.9142766,0.66498953,0.06391586,-0.049002163,-0.10013486,-56.64,-17.28,-4.32
1554109470864,7.723694999999999,-5.938218599999999,0.84694886,0.05219796,-0.049002163,-0.10013486,-56.7,-17.22,-4.2
1554109470885,7.8865004,-6.010045,0.64583594,0.051132694000000006,-0.051132694000000006,-0.080960095,-56.76,-17.22,-4.14
1554109470904,7.915230800000001,-6.1058129999999995,0.65062433,0.05219796,-0.05006743,-0.06178534,-56.76,-17.16,-4.02
1554109470925,7.7667904000000005,-6.1106014,0.76075757,0.041545313,-0.034088463,-0.027696876000000002,-56.82,-17.16,-3.96
1554109470945,7.8146744,-6.2781954,0.6410475,0.03089267,-0.022370555,-0.022370555,-56.82,-17.1,-3.9
1554109470964,7.7428484,-6.139332,0.84216046,0.010652645,-0.0063915867,-0.036218993,-56.88,-17.1,-3.84
1554109470984,7.747636999999999,-6.081871,0.84216046,0.007456851,0.007456851,-0.05219796,-56.76,-17.1,-3.78
1554109471005,7.7907324000000004,-6.0244102,0.76554596,0.03089267,0.01917476,-0.053263225,-56.64,-17.1,-3.78
1554109471025,7.8050976,-6.0244102,0.81343,0.068176925,0.025566347000000003,-0.04261058,-56.52,-17.1,-3.72
1554109471044,7.728483,-6.0531406,0.6745663000000001,0.101200126,0.036218993,-0.027696876000000002,-56.4,-17.04,-3.66
1554109471064,7.690175999999999,-6.0866594,0.7703344,0.10333065,0.053263225,-0.024501082,-56.28,-17.04,-3.66
1554109471085,7.493850999999999,-6.129755,0.741604,0.07137272,0.06178534,-0.03089267,-56.16,-17.1,-3.6
1554109471105,7.374141000000001,-6.1249666,0.7128736,0.04580637,0.07350325,-0.027696876000000002,-56.04,-17.1,-3.6
1554109471125,7.3645644,-6.1058129999999995,0.98102415,0.035153727999999995,0.08735169,-0.007456851,-55.92,-17.1,-3.6
1554109471145,7.1826053,-6.129755,1.0911574,0.05965481,0.101200126,0.017044231,-55.86,-17.1,-3.6
1554109471165,7.077260000000001,-6.1058129999999995,1.134253,0.11824436,0.10759171,0.054328485999999995,-55.86,-17.1,-3.6
1554109471185,7.0102224,-6.2207346,1.1677719,0.19068234,0.12037488,0.101200126,-55.92,-17.1,-3.6
1554109471204,6.9862804,-5.9956794,1.1629834,0.24394555,0.13528858,0.15446335,-55.92,-17.04,-3.6
1554109471224,6.9671270000000005,-6.096236,1.134253,0.26418558,0.1438107,0.20026971,-56.04,-16.98,-3.66
1554109471245,6.947973299999999,-6.172850599999999,1.0097545,0.24820662,0.128897,0.23755397,-56.1,-16.86,-3.72
1554109471264,6.861782000000001,-6.3021374,1.1965023000000001,0.21837921,0.11824436,0.28229508,-56.22,-16.74,-3.78
1554109471284,6.947973299999999,-6.431424,1.1150993999999999,0.19068234,0.08735169,0.31212249999999997,-56.34,-16.62,-3.84
1554109471305,6.8809357,-6.5942300000000005,1.1773487,0.16405073,0.039414786,0.31957933,-56.46,-16.38,-3.96
1554109471325,6.756437299999999,-6.761824000000001,1.1629834,0.15446335,0.0053263223,0.3174488,-56.52,-16.32,-3.96
1554109471344,6.847417,-6.7426705,1.1821371,0.16618125,-0.037284255,0.30999196,-56.58,-16.02,-4.08
1554109471365,6.861782000000001,-6.8049197,1.2300211,0.19920446,-0.08522116,0.30360037,-56.64,-15.54,-4.08
1554109471385,6.804321300000001,-6.8097080000000005,1.1965023000000001,0.23861924,-0.11824436,0.31105720000000003,-56.64,-15.12,-4.08
1554109471405,6.789956,-6.6469026,1.287482,0.25033715,-0.14168017,0.32277513,-56.64,-14.64,-4.02
1554109471424,6.775591,-6.7666125,1.2635399,0.23755397,-0.16937704,0.3206446,-56.64,-14.4,-4.02
1554109471444,6.8426285,-6.637326,1.2731166999999999,0.20026971,-0.19707392,0.3153183,-56.7,-13.8,-4.02
1554109471465,6.732495299999999,-6.642114,1.2587515,0.16831179,-0.21624869,0.3291667,-56.7,-12.96,-3.96
1554109471485,6.7516490000000005,-6.7330937,1.6130934,0.17789917,-0.23755397,0.34088463,-56.7,-12.3,-3.9
1554109471505,6.7372837,-6.824073299999999,1.2491747,0.19281286,-0.2545982,0.34514567,-56.7,-11.82,-3.84
1554109471525,6.5792660000000005,-6.891111,1.311424,0.20879184,-0.25885928,0.34408042,-56.7,-11.46,-3.78
1554109471545,6.5744777,-6.9342065,1.2348095,0.21411815,-0.25033715,0.35153726,-56.64,-11.1,-3.6
1554109471566,6.4212489999999995,-6.9581485,1.2539631000000002,0.22264028,-0.23542345,0.3536678,-56.64,-10.74,-3.36
1554109471584,6.459556,-6.848015299999999,1.4550761,0.22903186,-0.22264028,0.33449304,-56.58,-10.32,-3.12
1554109471605,6.4547677000000006,-6.848015299999999,1.4790181,0.23329292,-0.2066613,0.29507825,-56.52,-9.78,-2.88
1554109471625,6.5026517,-6.637326,1.6370354,0.22690132,-0.20026971,0.2790993,-56.52,-9.3,-2.64
1554109471645,6.6989765,-6.603807000000001,1.5125369,0.20559604,-0.18002969,0.29507825,-56.46,-8.88,-2.46
1554109471664,6.8665705,-6.642114,1.584363,0.1587244,-0.1470065,0.32277513,-56.46,-8.34,-2.22
1554109471684,6.8905125,-6.675633,1.6130934,0.101200126,-0.111852765,0.34301516,-56.4,-7.92,-1.98
1554109471704,7.005433999999999,-6.905475999999999,1.7902644,0.02130529,-0.08522116,0.34834146,-56.4,-7.44,-1.86
1554109471724,7.1155677,-7.092224000000001,1.8908207,-0.07989483,-0.06498113,0.34408042,-56.4,-7.02,-1.68
1554109471744,7.0006455999999995,-7.3460092999999995,1.8333599999999999,-0.16831179,-0.022370555,0.31851408,-56.4,-6.72,-1.5
1554109471764,6.8091097000000005,-7.614160000000001,1.9434932,-0.22583607,-0.0063915867,0.25140239999999997,-56.4,-6.6,-1.32
1554109471785,6.775591,-7.839214999999999,2.154183,-0.19920446,-0.008522116,0.1768339,-56.4,-6.42,-1.2
1554109471805,6.655881,-7.867945,1.9913772,-0.101200126,-0.024501082,0.101200126,-56.4,-6.18,-1.02
1554109471825,6.708553299999999,-7.781753999999999,1.9243397,0.03089267,-0.07243799,0.012783173500000002,-56.46,-5.82,-0.9
1554109471845,6.6893997,-7.719505000000001,1.7950528000000001,0.15659387,-0.1107875,-0.05219796,-56.46,-5.46,-0.78
1554109471864,6.5984197,-7.4992385,1.5939398,0.23968449999999997,-0.14168017,-0.098004326,-56.46,-5.16,-0.72
1554109471885,6.679823,-7.3460092999999995,1.4646529,0.26738137,-0.16937704,-0.12676647,-56.46,-4.8,-0.66
1554109471905,6.531382,-7.0012445,1.3257892,0.23116238,-0.17363810000000002,-0.13635385,-56.46,-4.44,-0.66
1554109471924,6.593631299999999,-7.16405,1.158195,0.16618125,-0.15126756,-0.13741912,-56.46,-4.08,-0.66
1554109471944,6.569689299999999,-7.154473299999999,1.287482,0.080960095,-0.128897,-0.13635385,-56.46,-3.72,-0.66
1554109471965,6.4882865,-7.1688385,1.2635399,0.026631612000000002,-0.094808534,-0.12463594,-56.4,-3.42,-0.66
1554109471985,6.3589997,-7.0395517000000005,1.2060791000000002,0.011717908999999999,-0.051132694000000006,-0.1107875,-56.4,-3.3,-0.66
1554109472005,6.4499793,-7.1113777,1.359308,0.011717908999999999,0.0,-0.10546118,-56.34,-3.18,-0.6
1554109472024,6.3685765,-7.092224000000001,1.3257892,0.010652645,0.043675844000000005,-0.094808534,-56.34,-3.06,-0.54
1554109472044,6.2584434,-7.149685000000001,1.4502877,0.015978966,0.101200126,-0.080960095,-56.28,-3.0,-0.48
1554109472065,6.272808599999999,-7.020397999999999,1.1677719,0.012783173500000002,0.13635385,-0.07243799,-56.28,-2.94,-0.42
1554109472084,6.253655,-6.905475999999999,1.2443863000000002,-0.007456851,0.165116,-0.07456851,-56.28,-3.0,-0.36
1554109472105,6.2632318,-6.9102645,1.1917138999999999,-0.029827405,0.16937704,-0.07350325,-56.28,-3.06,-0.3
1554109472125,6.3302693,-6.900687700000001,1.3162124,-0.06924219,0.15446335,-0.06604639400000001,-56.28,-3.18,-0.24
1554109472144,6.4020953,-7.0347633,1.3880384,-0.12463594,0.14168017,-0.051132694000000006,-56.28,-3.36,-0.24
1554109472165,6.4547677000000006,-7.178415299999999,1.2683283,-0.19174760000000002,0.12250541,-0.04474111,-56.28,-3.48,-0.18
1554109472184,6.5361705,-7.1927805,1.3257892,-0.25566345,0.10439592,-0.049002163,-56.28,-3.6,-0.18
1554109472204,6.655881,-7.6093717000000005,1.359308,-0.3323625,0.10439592,-0.054328485999999995,-56.28,-3.78,-0.3
1554109472225,6.593631299999999,-7.85358,1.3449427999999999,-0.38562572,0.12250541,-0.07456851,-56.28,-3.84,-0.42
1554109472245,6.4068837,-8.030750999999999,1.5077485000000002,-0.41119209999999995,0.165116,-0.10546118,-56.28,-3.84,-0.54
1554109472264,6.4260373,-8.054692999999999,1.5604209999999998,-0.4101268,0.20985709,-0.14487597,-56.22,-3.9,-0.66
1554109472284,6.277597,-8.040328,1.6178818000000001,-0.36964676,0.26631612,-0.18109496,-56.22,-3.9,-0.84
1554109472305,6.1483099999999995,-7.614160000000001,1.7663223000000001,-0.30040458,0.32277513,-0.20985709,-56.22,-3.96,-0.96
1554109472325,5.899312999999999,-7.317278999999999,1.7806876,-0.21198763,0.36218992,-0.22583607,-56.22,-4.08,-1.14
1554109472345,5.8562174,-7.154473299999999,2.0440497,-0.13848437,0.38562572,-0.2130529,-56.22,-4.2,-1.26
1554109472364,5.8179099999999995,-6.977302000000001,2.1110873,-0.10439592,0.37710363,-0.18855181,-56.22,-4.44,-1.38
1554109472384,5.9184665999999995,-7.006033,1.9434932,-0.10546118,0.34621096,-0.15552860000000002,-56.22,-4.68,-1.5
1554109472405,5.841851999999999,-7.0634937,2.0153193,-0.13315806,0.29507825,-0.12250541,-56.22,-4.92,-1.56
1554109472425,5.947197,-7.2215110000000005,1.8477252,-0.16405073,0.24074976,-0.08948222,-56.28,-5.16,-1.68
1554109472445,5.8179099999999995,-7.2741833,1.9195513,-0.16831179,0.17044231,-0.043675844000000005,-56.4,-5.4,-1.86
1554109472465,5.813122,-7.480085000000001,2.0488381,-0.15233281,0.101200126,0.0053263223,-56.52,-5.58,-2.1
1554109472485,5.746084,-7.599794999999999,2.2307975,-0.13102753,0.039414786,0.03089267,-56.64,-5.76,-2.28
1554109472504,5.592855,-7.681197599999999,2.3265655,-0.10972224,-0.033023197000000004,0.049002163,-56.76,-5.94,-2.46
1554109472524,5.4779334,-7.5519110000000005,2.417545,-0.07776430000000001,-0.096939065,0.07456851,-56.82,-6.12,-2.7
1554109472545,5.415684,-7.3268557,2.3505075,0.015978966,-0.17470337,0.12250541,-56.94,-6.18,-2.88
1554109472564,5.420472599999999,-7.0587053,2.1877017000000003,0.10652645,-0.21411815,0.17150758,-57.0,-6.24,-3.12
1554109472584,5.3103394999999995,-6.4026937,2.441487,0.2609898,-0.27164245,0.29188246,-57.0,-6.3,-3.3
1554109472605,5.185841,-5.990891,2.273893,0.37710363,-0.30466563,0.43356264,-56.94,-6.3,-3.42
1554109472625,5.248090299999999,-5.952584,1.9387047999999998,0.4644553,-0.30146983,0.61678815,-56.94,-6.12,-3.48
1554109472644,5.0134583,-5.895123,1.7280151000000001,0.4857606,-0.26738137,0.81066626,-56.88,-5.82,-3.54
1554109472664,4.7884035,-6.4026937,1.5604209999999998,0.5187838,-0.21624869,1.0077401,-56.88,-5.4,-3.54
1554109472685,4.5154643,-6.206369400000001,1.4981716999999999,0.5475459,-0.1949434,1.1973573,-56.82,-4.92,-3.42
1554109472705,4.1946416,-6.369175,1.6274586000000002,0.5795039000000001,-0.13741912,1.4008228,-56.76,-4.32,-3.24
1554109472725,3.9073372,-6.795342999999999,1.632247,0.5454154,-0.080960095,1.5755261,-56.64,-3.54,-3.06
1554109472745,3.5386300000000004,-6.929417999999999,1.8046296000000002,0.46871635,-0.068176925,1.7033578,-56.52,-2.4,-2.82
1554109472764,3.3566709,-6.8671690000000005,1.9674352,0.47297743,-0.08841695,1.8237327,-56.46,-1.08,-2.52
1554109472784,3.217807,-6.8049197,2.144606,0.5049353,-0.11717909,1.9515644,-56.28,0.42,-2.16
1554109472805,3.1172507,-6.603807000000001,2.0775685,0.5486112,-0.1587244,2.0751352,-56.04,2.22,-1.86
1554109472824,2.7772740000000002,-6.8623804999999996,1.9578583999999999,0.5305017,-0.1587244,2.2040322,-55.74,4.2,-1.5
1554109472844,2.2649147999999997,-8.016386,1.5173253,0.34408042,-0.07989483,2.2871227000000003,-55.26,6.42,-1.2
1554109472864,1.685518,-8.174403,1.5652093999999999,0.07456851,-0.13209279,2.3105586,-54.72,8.94,-0.96
1554109472885,1.3790601,-7.729081599999999,1.9387047999999998,-0.16085494,-0.19281286,2.3414512000000003,-54.12,11.58,-0.66
1554109472905,1.1875241,-7.8104844,1.3497312,-0.45380265,-0.24074976,2.4000409,-53.46,14.22,-0.42
1554109472924,0.7230489,-8.251018,0.9475053,-0.87138635,-0.24927188,2.4564998,-52.62,16.8,-0.18
1554109472945,-0.033518825,-9.639654,0.45908818,-1.3422332000000001,-0.19387813,2.453304,-51.72,19.38,0.12
1554109472965,-0.93852705,-9.874286999999999,0.65062433,-1.7779262999999998,-0.28975195,2.3574302000000005,-50.7,21.9,0.42
1554109472985,-1.5179238000000002,-9.634866,0.41599256,-1.9590213,-0.48149952,2.2498386000000004,-49.56,24.42,0.84
1554109473004,-1.4796166000000002,-9.141661000000001,0.48303019999999997,-1.9664781999999998,-0.67963874,2.231729,-48.54,26.76,1.5
1554109473025,-1.7238252,-9.467272,0.3537433,-1.7576863999999999,-0.76912093,2.271144,-47.34,28.86,2.4
1554109473045,-2.8060042999999997,-10.702681,0.15263036,-1.3891048000000001,-0.80533993,2.2615564,-46.08,30.9,3.42
1554109473065,-3.6296098,-10.91337,0.26276365,-0.91612744,-0.9289106,2.15503,-44.82,32.64,4.5
1554109473085,-3.1794999,-10.070611,0.49739540000000004,-0.18429075,-0.97045594,2.1646172999999997,-42.66,34.92,6.18
1554109473105,-3.3518825,-9.998785,0.39683893,0.19920446,-0.94275904,2.2466428,-41.94,35.64,6.84
1554109473125,-3.6631286,-9.448118,0.19093758,0.5070659000000001,-0.86606,2.2370553,-40.44,36.9,8.28
1554109473144,-4.5920787,-9.510367,-0.20171149,0.65194184,-0.7765778,2.198706,-38.1,39.0,10.26
1554109473164,-5.21936,-9.89344,-0.7763199000000001,0.4250405,-0.7094661,2.1688783,-37.26,39.72,10.74
1554109473185,-5.487509999999999,-9.314043,-0.7140707,-0.28442562,-0.6327670999999999,2.0751352,-34.74,42.0,11.94
1554109473205,-5.521029,-8.686762,-0.6039374,-0.8788431999999999,-0.69668293,1.9430424,-33.06,43.44,12.6
1554109473224,-5.353435,-8.437764999999999,-0.10115502,-1.361408,-0.77444726,1.73212,-31.5,44.94,13.14
1554109473245,-6.0764837,-9.539098,-0.39803603,-1.6394419999999998,-0.8213189000000001,1.6223978000000001,-29.94,46.26,13.68
1554109473264,-6.339846,-9.625289,-0.65182143,-1.7310548,-0.8681905000000001,1.5275892,-28.44,47.4,14.04
1554109473285,-6.900089299999999,-9.845556,-1.240795,-1.5393071000000003,-0.9960223,1.3869743,-27.0,48.3,14.52
1554109473305,-6.900089299999999,-9.543886,-1.4036007,-1.4104101999999998,-1.0897655000000002,1.1323761,-25.5,48.66,15.24
1554109473325,-7.0102224,-9.304466,-1.2838906,-1.3688648,-1.1185277,0.9331716999999998,-24.06,48.72,16.2
1554109473345,-7.216124000000001,-9.184756,-1.3988123,-1.2495551999999999,-1.1036139999999999,0.8362325999999999,-22.74,48.48,17.1
1554109473365,-7.8386164,-9.251794,-1.9494787,-0.9917611999999999,-1.0769824,0.7701861999999999,-21.48,48.12,18.18
1554109473385,-8.173803999999999,-9.069835000000001,-2.2176294,-0.8873653,-1.063134,0.71479243,-20.22,47.58,19.26
1554109473404,-8.504205,-9.333197,-2.4714148,-0.8181231,-1.0290455,0.6743124,-19.56,47.28,19.86
1554109473424,-8.360553,-9.903017,-2.5192987999999996,-0.78723043,-0.9331716999999998,0.5486112,-17.58,46.26,21.36
1554109473444,-7.704541000000001,-9.778519000000001,-2.3708582000000002,-0.8522116,-0.7701861999999999,0.2545982,-16.38,45.54,22.2
1554109473465,-7.0102224,-9.122507,-2.1122843999999996,-0.8511463,-0.6359629,0.033023197000000004,-15.48,44.82,22.68
1554109473485,-6.325481,-8.988432000000001,-1.9686323000000001,-0.78296936,-0.5219796,-0.12357068,-14.7,44.22,23.1
1554109473505,-5.7700260000000005,-8.653243,-1.7483658,-0.60507023,-0.46232477,-0.25033715,-13.92,43.68,23.52
1554109473525,-5.430049400000001,-8.116942,-1.7340006000000001,-0.41225734,-0.43249738,-0.34514567,-13.26,43.08,24.0
1554109473545,-5.315128,-7.9062524000000005,-1.9686323000000001,-0.24607609,-0.39414784,-0.38882150000000004,-12.54,42.48,24.3
1554109473564,-5.070919,-7.73387,-2.0404584,-0.20026971,-0.350472,-0.45806372,-12.06,42.0,24.6
1554109473585,-4.984728,-7.8009076,-2.0404584,-0.22690132,-0.26738137,-0.5475459,-11.76,41.64,24.9
1554109473605,-5.1235914000000005,-8.088212,-2.3277626000000002,-0.27590349999999997,-0.13209279,-0.6668556,-11.58,41.28,25.26
1554109473625,-5.568912999999999,-8.495225999999999,-2.60549,-0.30360037,-0.0031957934000000003,-0.79681784,-11.4,41.04,25.56
1554109473644,-5.875371,-8.796896,-3.0651767000000003,-0.29188246,0.1107875,-0.8905610999999999,-11.28,40.86,25.8
1554109473664,-6.066907,-9.1033535,-2.9789855,-0.23861924,0.2130529,-0.94275904,-11.28,40.62,25.98
1554109473685,-5.995081,-9.165602999999999,-2.926313,-0.12250541,0.32170987,-0.99069595,-11.4,40.38,26.04
1554109473704,-5.8801594,-9.256582,-3.2423477000000003,0.025566347000000003,0.44741106,-1.0279802,-11.7,40.26,26.1
1554109473725,-5.8226986,-9.366715,-3.3764230000000004,0.15978967,0.58909124,-1.0567423,-11.94,40.02,26.22
1554109473745,-5.583278,-9.654019,-3.3716345000000003,0.28549087,0.7435546,-1.0684601999999999,-12.36,39.84,26.22
1554109473765,-5.104438,-9.639654,-3.4721910000000005,0.38136467,0.902279,-1.0950918,-12.84,39.66,26.16
1554109473784,-4.8937483,-9.543886,-3.1800982999999996,0.44954160000000004,1.055677,-1.1547466999999998,-13.38,39.48,26.16
1554109473805,-4.6255975,-9.539098,-3.0125043,0.49854377,1.1930962,-1.2250541000000001,-14.16,39.36,26.16
1554109473825,-4.31914,-9.438541,-2.7347770000000002,0.4857606,1.2772521000000001,-1.2793826000000001,-15.24,39.36,26.16
1554109473845,-4.146757,-9.333197,-2.710835,0.46125950000000004,1.3422332000000001,-1.3528858,-16.26,39.42,26.16
1554109473864,-3.9552212,-9.577405,-2.8401217,0.37816888,1.3954965,-1.4476944,-17.34,39.48,26.16
1554109473885,-3.8833952000000003,-9.318831,-2.533664,0.20985709,1.4327807,-1.5350461000000002,-18.54,39.6,26.1
1554109473905,-3.7493198,-9.405023,-2.2942438,0.11930962,1.4721955,-1.5712651000000002,-19.8,39.78,26.04
1554109473925,-3.5865142,-9.582193,-2.260725,0.12144015,1.5073493,-1.591505,-21.3,39.9,25.86
1554109473945,-3.6008794,-9.59177,-2.5192987999999996,0.12996227,1.5520903,-1.6234629999999999,-22.86,40.02,25.56
1554109473964,-3.5529952000000007,-9.706693,-2.4714148,0.15020229,1.5925703000000002,-1.6373115,-24.48,40.02,25.08
1554109473984,-3.4189199999999995,-9.725846,-2.6533740000000003,0.15020229,1.6234629999999999,-1.6319852,-25.98,39.72,24.6
1554109474005,-3.3039982000000006,-10.204686,-2.7491422,0.10546118,1.6511599,-1.6479641,-27.54,39.24,24.06
1554109474025,-2.9592332999999997,-10.310031,-2.7874494,0.049002163,1.6714,-1.663943,-30.18,38.28,23.16
1554109474045,-2.7006595,-10.238205,-2.6485856,0.06711166,1.6714,-1.6458336,-32.1,37.5,22.5
1554109474064,-2.432509,-10.065823,-2.5671828,0.06178534,1.6628778000000002,-1.6479641,-33.0,37.02,22.14
1554109474084,-1.7621324,-9.582193,-2.4283189999999997,0.05219796,1.6181368,-1.6948358000000001,-35.4,35.34,20.94
1554109474105,-1.2976573999999998,-9.519944,-2.2415714,0.05752428,1.5659386999999998,-1.7054884,-36.84,34.2,20.22
1554109474125,-0.7613561,-9.654019,-2.203264,0.083090626,1.5339808000000001,-1.6863136000000003,-38.16,33.18,19.38
1554109474144,-0.33518824,-10.070611,-2.236783,0.101200126,1.506284,-1.6692694,-39.66,32.16,18.6
1554109474165,0.038307227,-9.898228999999999,-1.7435773999999997,0.09374327,1.4679343999999999,-1.6777915,-41.04,30.96,17.7
1554109474185,0.6607997,-9.563039999999999,-1.7914615000000003,0.14274544,1.3933659,-1.6937705,-42.36,29.52,16.68
1554109474205,1.0390834999999998,-9.68275,-1.5472529,0.26205507,1.3603427,-1.6873789000000001,-43.5,28.02,15.48
1554109474225,1.3359646,-9.812037,-1.3892354999999998,0.39627838,1.3560816,-1.6937705,-44.58,26.52,14.28
1554109474245,1.8579005000000002,-9.850344999999999,-1.264737,0.535828,1.3187973,-1.716141,-45.66,24.9,13.26
1554109474264,2.2697031,-9.606135,-1.2791021999999999,0.5123922000000001,1.257012,-1.7640778999999998,-46.74,23.1,12.12
1554109474284,2.8107927000000004,-9.596559,-1.0779893,0.36751625,1.2058792999999999,-1.808819,-47.94,21.24,11.04
1554109474305,3.5338415999999997,-9.792883999999999,-1.0301052,0.2034655,1.1728562,-1.8674085999999999,-48.84,19.44,9.84
1554109474325,4.012682,-9.993997,-0.52253455,0.09161274,1.1664646,-1.9718044999999997,-49.8,17.64,8.52
1554109474344,4.2664676,-9.7641535,-0.15861586,0.14913702,1.1217233999999998,-2.0612866999999997,-50.82,16.02,7.32
1554109474365,4.6255975,-9.093777000000001,0.15741876,0.41119209999999995,1.0173275,-2.1742048,-51.72,14.28,6.3
1554109474385,4.817133999999999,-8.868722,0.45908818,0.5209143,0.98750013,-2.2200112,-52.68,12.3,5.28
1554109474405,4.9895163,-8.241441,0.6841431,0.5795039000000001,0.8841694999999999,-2.251969,-53.58,10.14,4.2
1554109474424,5.185841,-7.2646065,0.7751228,0.7233145999999999,0.75633776,-2.2327943,-54.3,7.98,3.12
1554109474445,5.616797,-6.7330937,0.7032967,0.88843054,0.6242449999999999,-2.1614215,-54.96,5.64,1.86
1554109474465,6.1578870000000006,-6.4457892999999995,0.55006784,0.9214538000000001,0.49960902,-2.1007016,-55.5,3.24,0.66
1554109474484,6.291962,-6.081871,0.5117606,0.8266452,0.40053943,-2.062352,-55.86,0.6,-0.36
1554109474504,6.220136,-5.502473999999999,0.55964464,0.71159667,0.28549087,-1.9899141,-56.16,-2.04,-1.32
1554109474525,6.0860605,-5.0571527000000005,0.28191724,0.6125271,0.16724652,-1.8706043999999997,-56.4,-4.62,-2.16
1554109474545,6.1195793,-4.6405616,0.6123171,0.49215218,0.07030745599999999,-1.7459685,-56.52,-7.08,-2.88
1554109474565,6.2153480000000005,-4.5352163,0.6937199000000001,0.42930159999999995,-0.010652645,-1.5925703000000002,-56.64,-9.42,-3.6
1554109474585,6.0764837,-4.463390400000001,0.96665895,0.41758367,-0.051132694000000006,-1.4231933,-56.76,-11.58,-4.2
1554109474605,5.9184665999999995,-4.2718544000000005,0.97144735,0.41545314,-0.10546118,-1.2538162,-56.88,-13.8,-4.5
1554109474624,5.8705826,-3.9893386,0.96665895,0.37071204,-0.13209279,-1.0748518999999999,-56.88,-15.84,-4.68
1554109474645,6.1530986,-3.9031472000000003,0.6985083000000001,0.26738137,-0.15765914,-0.87351686,-56.88,-17.64,-4.8
1554109474665,6.3829417,-4.0420110000000005,0.6314706999999999,0.08841695,-0.10865697,-0.7041398,-56.88,-19.2,-4.92
1554109474685,6.564901,-4.243124,0.6937199000000001,-0.2034655,-0.04580637,-0.56885123,-56.76,-21.24,-5.1
1554109474705,6.9096660000000005,-4.496909,0.717662,-0.34834146,-0.02130529,-0.4878911,-56.7,-21.84,-5.16
1554109474724,7.0724716,-4.554370400000001,0.9139864999999999,-0.50387007,0.043675844000000005,-0.386691,-56.58,-22.92,-5.22
1554109474745,7.4124484,-4.860828,0.9044097,-0.5933523,0.10865697,-0.32810146,-56.46,-23.94,-5.34
1554109474765,7.752425,-5.1529207,1.2348095,-0.58909124,0.14487597,-0.28975195,-56.34,-24.78,-5.34
1554109474784,8.1163435,-5.4258595000000005,1.2443863000000002,-0.47297743,0.17896444,-0.26312032,-56.16,-25.5,-5.4
1554109474805,8.413225,-5.8041434,1.4215573000000001,-0.221575,0.19281286,-0.29827404,-55.98,-26.28,-5.58
1554109474825,8.829816000000001,-5.789778,1.2443863000000002,0.008522116,0.1949434,-0.35260254,-55.74,-26.7,-5.76
1554109474844,9.198523,-5.6748567,0.9283517,0.20240025,0.22370553,-0.38242993,-55.62,-27.12,-5.94
1554109474864,9.514558000000001,-5.430648000000001,0.7846996,0.28655612,0.28442562,-0.43888897,-55.5,-27.54,-6.18
1554109474885,9.753978,-5.3157263,0.789488,0.24607609,0.3717773,-0.535828,-55.44,-27.84,-6.42
1554109474904,9.677363,-4.918288700000001,0.8230068000000001,0.15978967,0.4314321,-0.6178534000000001,-55.38,-28.02,-6.6
1554109474924,9.639056,-4.7219644,0.99060094,-0.04474111,0.5187838,-0.7499462,-55.26,-28.56,-6.96
1554109474944,9.591172,-4.31495,1.1438298,-0.28016454,0.55287224,-0.8863,-55.2,-28.92,-7.2
1554109474965,9.457097000000001,-3.9558197999999996,0.99060094,-0.51026165,0.588026,-1.0098706,-55.14,-29.46,-7.44
1554109474985,9.41879,-3.4865562999999993,1.0432734000000001,-0.7574029999999999,0.5954828000000001,-1.1153319,-55.08,-30.12,-7.68
1554109475005,9.275136999999999,-3.1561562999999997,1.2204443,-0.95447695,0.6242449999999999,-1.176052,-55.02,-30.96,-8.04
1554109475024,8.954314,-2.8161798,1.2156559,-1.0599382,0.6348976,-1.1675298,-54.9,-31.74,-8.52
1554109475045,8.738836000000001,-2.5480292,1.4838065,-1.0737866000000003,0.64341974,-1.1302456,-54.72,-32.52,-9.24
1554109475065,8.513782,-2.2942438,2.0009542000000002,-0.9938916999999999,0.6327670999999999,-1.0663296999999998,-54.48,-33.36,-9.96
1554109475084,8.355764,-2.2080526000000003,2.28347,-0.80533993,0.58056915,-0.97471696,-54.24,-34.32,-10.62
1554109475104,8.236053,-1.9494787,2.5755625,-0.66365975,0.5411543000000001,-0.9033443000000001,-54.0,-35.4,-11.4
1554109475125,8.226477000000001,-1.9782091,2.7144263,-0.44954160000000004,0.47617322,-0.7840345999999999,-53.7,-36.6,-12.24
1554109475145,8.350976,-2.2080526000000003,2.7287915000000003,-0.20133498,0.35260254,-0.6402239000000001,-53.34,-37.62,-13.08
1554109475164,8.379706,-2.1458032000000005,2.6952724,-0.07350325,0.29614353,-0.56885123,-52.92,-38.46,-14.04
1554109475184,8.513782,-2.131438,2.6042929,0.10759171,0.19600865,-0.46125950000000004,-52.62,-39.24,-14.76
1554109475205,8.614338,-2.0069396,2.6569653,0.17150758,0.14168017,-0.4101268,-52.32,-40.02,-15.3
1554109475224,8.690952000000001,-2.131438,2.7240029999999997,0.21944448,0.082025364,-0.3174488,-52.02,-40.68,-15.84
1554109475245,8.724471000000001,-2.236783,2.5803509,0.20879184,0.06498113,-0.2545982,-51.66,-41.28,-16.38
1554109475265,8.738836000000001,-2.1458032000000005,2.532467,0.17896444,0.04580637,-0.20453078,-51.3,-41.7,-16.8
1554109475285,8.882488,-1.9207484000000001,2.6665419999999997,0.13954964,0.046871635999999994,-0.16618125,-51.0,-42.0,-17.16
1554109475304,9.050082000000002,-1.8441339,2.475006,0.05006743,0.05219796,-0.1470065,-50.82,-42.42,-17.4
1554109475324,9.212888000000001,-1.8441339,2.4558525,-0.080960095,0.06604639400000001,-0.14913702,-50.64,-42.78,-17.4
1554109475344,9.346964,-2.0308816000000003,2.1829132999999996,-0.21731395,0.07456851,-0.15659387,-50.46,-43.2,-17.46
1554109475365,9.380483,-2.179322,2.3888147,-0.33768883,0.09054748,-0.16618125,-50.28,-43.62,-17.46
1554109475385,9.380483,-2.0979192,2.3361422999999997,-0.36751625,0.10759171,-0.17044231,-50.16,-43.92,-17.46
1554109475404,9.3661175,-2.203264,2.441487,-0.34194988,0.12037488,-0.17789917,-50.16,-44.28,-17.46
1554109475424,9.208099,-2.3038206000000003,2.2882583,-0.30360037,0.128897,-0.19068234,-50.1,-44.46,-17.46
1554109475445,9.184157,-2.1601684,2.5372553,-0.28975195,0.10759171,-0.19920446,-50.1,-44.64,-17.52
1554109475464,9.074024,-1.7962499,2.7096379,-0.23222765,0.08841695,-0.16298546,-50.1,-44.76,-17.64
1554109475485,9.112331,-1.7962499,2.5133132999999996,-0.14274544,0.06711166,-0.13102753,-50.04,-44.76,-17.7
1554109475504,9.097966,-1.9829974999999997,2.570774,-0.060720075,0.04580637,-0.13315806,-50.04,-44.76,-17.88
1554109475524,9.14585,-2.0213048,2.3409307,-0.02130529,0.02130529,-0.14594123,-50.04,-44.7,-18.0
1554109475545,9.112331,-2.0213048,2.355296,-0.06285059999999999,0.002130529,-0.13528858,-50.04,-44.64,-18.12
1554109475564,9.227253,-1.7770962,2.2260091,-0.16724652,-0.01917476,-0.113983296,-49.98,-44.58,-18.24
1554109475584,9.323022,-1.8010383,2.1350293,-0.2545982,-0.03195793,-0.10226539,-49.92,-44.52,-18.36
1554109475605,9.356541,-1.7818846999999998,2.144606,-0.34408042,-0.033023197000000004,-0.09161274,-49.86,-44.52,-18.48
1554109475625,9.3421755,-2.2319946,2.1158757,-0.38882150000000004,-0.024501082,-0.07776430000000001,-49.8,-44.46,-18.54
1554109475644,9.356541,-2.2176294,2.379238,-0.36005938,-0.018109497,-0.06924219,-49.68,-44.52,-18.6
1554109475664,9.184157,-2.1936872000000003,2.4558525,-0.23968449999999997,-0.014913702,-0.068176925,-49.56,-44.52,-18.66
1554109475685,9.208099,-1.9590555,2.3600842999999996,-0.015978966,-0.012783173500000002,-0.080960095,-49.44,-44.58,-18.78
1554109475706,9.155427,-2.0213048,2.2499511,0.128897,0.007456851,-0.07456851,-49.38,-44.58,-18.96
1554109475726,9.232041,-2.0931308,2.1398177000000005,0.1587244,0.026631612000000002,-0.07030745599999999,-49.32,-44.58,-19.08
1554109475744,9.3421755,-2.0260932,2.0296845,0.09161274,0.041545313,-0.06285059999999999,-49.26,-44.58,-19.26
1554109475766,9.208099,-2.0117279999999997,1.9961656000000003,0.025566347000000003,0.054328485999999995,-0.047936900000000005,-49.2,-44.58,-19.38
1554109475784,9.184157,-2.2798786,2.417545,-0.06391586,0.049002163,-0.041545313,-49.14,-44.52,-19.62
1554109475804,9.131485000000001,-2.1218612,2.5037365,-0.10226539,0.03089267,-0.05006743,-49.14,-44.58,-19.68
1554109475825,9.074024,-1.9925743000000002,2.484583,-0.053263225,0.00958738,-0.0063915867,-49.08,-44.64,-19.8
1554109475845,9.174581,-1.762731,2.321777,0.02876214,-0.025566347000000003,0.022370555,-49.08,-44.7,-19.92
1554109475865,9.346964,-1.8058267,2.355296,0.07137272,-0.058589544,0.011717908999999999,-49.14,-44.76,-19.92
1554109475885,9.41879,-1.7866731,2.1350293,0.060720075,-0.06285059999999999,0.018109497,-49.14,-44.82,-19.92
1554109475905,9.394848,-1.8968061999999999,1.9674352,-0.025566347000000003,-0.04261058,0.02876214,-49.2,-44.88,-19.92
1554109475924,9.476251,-1.7292121999999999,1.8860323,-0.17257284,-0.04474111,0.017044231,-49.2,-44.88,-19.86
1554109475944,9.437942999999999,-1.7579426,1.9722236000000002,-0.42397526,-0.05752428,-0.029827405,-49.26,-44.94,-19.8
1554109475964,9.370906,-1.9111716,2.130241,-0.55606806,-0.06711166,-0.043675844000000005,-49.32,-44.88,-19.8
1554109475985,9.356541,-2.203264,2.2930467,-0.6423545,-0.053263225,-0.029827405,-49.32,-44.82,-19.8
1554109476004,9.361329,-2.3373394,2.4319102999999997,-0.60933125,-0.06604639400000001,-0.04580637,-49.38,-44.82,-19.86
1554109476024,9.375694000000001,-2.5145104,2.3936029999999997,-0.46871635,-0.06498113,-0.06285059999999999,-49.38,-44.76,-19.92
1554109476045,9.217675999999999,-2.4953567999999997,2.2643162999999995,-0.1470065,-0.05006743,-0.034088463,-49.38,-44.76,-20.04
1554109476064,9.26556,-2.48578,2.28347,0.10013486,-0.049002163,0.0010652645,-49.38,-44.7,-20.22
1554109476084,9.332599,-2.1218612,2.0536265,0.38349520000000004,-0.05539375,-0.034088463,-49.38,-44.7,-20.4
1554109476105,9.184157,-1.8728642,2.0201077,0.44741106,-0.04474111,-0.06604639400000001,-49.38,-44.7,-20.58
1554109476125,9.016563,-1.9686323000000001,2.144606,0.38029942,-0.037284255,-0.05006743,-49.32,-44.7,-20.76
1554109476145,8.99741,-2.0883423999999997,2.0632033,0.29188246,-0.047936900000000005,0.002130529,-49.32,-44.64,-20.88
1554109476164,9.093178,-2.0165164,1.9913772,0.23755397,-0.039414786,0.039414786,-49.32,-44.64,-20.94
1554109476185,9.313444,-1.8920178,1.857302,0.17470337,-0.040480047000000005,0.040480047000000005,-49.32,-44.64,-20.88
1554109476205,9.461885,-2.0500352,1.9674352,0.13528858,-0.03089267,0.05965481,-49.32,-44.64,-20.82
1554109476224,9.313444,-2.059612,2.0536265,0.12357068,-0.014913702,0.07882957,-49.32,-44.64,-20.7
1554109476245,9.332599,-2.0931308,2.202067,0.15233281,-0.023435817999999997,0.06498113,-49.32,-44.64,-20.52
1554109476264,9.399636,-2.15538,2.1254525,0.22264028,-0.04580637,0.034088463,-49.32,-44.64,-20.34
1554109476285,9.327810000000001,-2.1505916000000003,2.0296845,0.28549087,-0.04580637,0.015978966,-49.32,-44.64,-20.04
1554109476304,9.332599,-2.0979192,2.0392613,0.32810146,-0.04580637,0.014913702,-49.38,-44.64,-19.8
1554109476325,9.509769,-2.1458032000000005,1.9195513,0.3323625,-0.06285059999999999,0.020240024,-49.38,-44.64,-19.62
1554109476345,9.485827,-1.9255368000000002,2.0009542000000002,0.27057716,-0.05539375,0.00958738,-49.38,-44.64,-19.44
1554109476365,9.313444,-2.0165164,1.929128,0.18002969,-0.026631612000000002,-0.0010652645,-49.38,-44.64,-19.26
1554109476384,9.356541,-2.107496,2.154183,0.056459017,-0.02876214,-0.024501082,-49.38,-44.58,-19.08
1554109476405,9.260772,-2.0452468,2.178125,-0.004261058,-0.020240024,-0.035153727999999995,-49.44,-44.58,-18.96
1554109476425,9.016563,-1.9159599999999999,2.2547395,0.01917476,-0.0063915867,-0.014913702,-49.5,-44.58,-18.84
1554109476445,9.26556,-2.0979192,2.202067,0.06604639400000001,-0.024501082,-0.015978966,-49.5,-44.52,-18.84
1554109476464,9.414000999999999,-2.0979192,2.0727801,0.07456851,-0.034088463,-0.026631612000000002,-49.56,-44.52,-18.78
1554109476485,9.150639,-1.9686323000000001,2.1350293,0.034088463,-0.012783173500000002,-0.020240024,-49.68,-44.52,-18.72
1554109476504,9.203311,-2.0260932,2.1972785,0.024501082,-0.025566347000000003,-0.004261058,-49.74,-44.52,-18.66
1554109476525,9.150639,-1.7675193999999999,2.3169887000000005,0.007456851,-0.06178534,0.0053263223,-49.8,-44.58,-18.6
1554109476545,8.719683,-1.7866731,2.2882583,0.027696876000000002,-0.049002163,0.06924219,-49.86,-44.52,-18.54
1554109476564,9.203311,-1.963844,2.0679917000000003,0.037284255,-0.07137272,0.101200126,-49.86,-44.52,-18.48
1554109476584,9.313444,-2.1170728,1.8189948,-0.040480047000000005,-0.05752428,0.06604639400000001,-49.8,-44.52,-18.42
1554109476605,9.255983,-2.2511482000000003,1.7088615000000003,-0.11824436,-0.033023197000000004,0.05965481,-49.8,-44.52,-18.42
1554109476625,9.23683,-2.356493,1.8668787,-0.15978967,-0.023435817999999997,0.10439592,-49.74,-44.46,-18.42
1554109476645,9.289502,-2.6533740000000003,2.0153193,-0.15765914,-0.007456851,0.12144015,-49.74,-44.34,-18.42
1554109476665,9.165004,-2.461838,2.144606,-0.15765914,-0.02130529,0.09587380000000001,-49.68,-44.22,-18.48
1554109476685,9.054871,-2.179322,2.379238,-0.1438107,-0.012783173500000002,0.11611383,-49.68,-44.1,-18.54
1554109476704,8.829816000000001,-2.0117279999999997,2.4319102999999997,-0.10972224,-0.023435817999999997,0.16298546,-49.74,-43.98,-18.54
1554109476724,8.762777999999999,-1.8537107,2.7383683,-0.06604639400000001,-0.049002163,0.20133498,-49.8,-43.8,-18.6
1554109476744,8.542512,-1.6190788999999999,2.747945,0.017044231,-0.07669904,0.27696875,-49.8,-43.68,-18.6
1554109476765,8.552089,-1.8393455,2.5995044999999997,0.11717909,-0.12570119999999999,0.38242993,-49.92,-43.56,-18.66
1554109476785,8.504205,-2.0404584,2.3840263,0.13528858,-0.21731395,0.48043427,-49.98,-43.44,-18.66
1554109476805,8.418014,-2.2655133999999997,2.4558525,0.113983296,-0.25885928,0.5230448000000001,-50.16,-43.32,-18.66
1554109476824,8.5473,-2.6437972000000003,2.508525,0.084155895,-0.33875409999999995,0.59761333,-50.28,-43.2,-18.6
1554109476845,8.441956,-2.806603,2.4319102999999997,0.10546118,-0.42077947,0.6892261,-50.4,-42.96,-18.54
1554109476865,8.485051,-3.0843303,2.2451627,0.15233281,-0.50600064,0.74035877,-50.58,-42.6,-18.48
1554109476884,8.63828,-3.2710779999999997,2.0632033,0.1438107,-0.62744075,0.73290193,-50.7,-42.12,-18.3
1554109476905,8.690952000000001,-3.4961330000000004,1.8956091,0.09267801,-0.70840085,0.7339671999999999,-50.88,-41.64,-18.06
1554109476925,8.805874000000001,-3.4865562999999993,1.6226702,0.0031957934000000003,-0.7957525,0.71479243,-51.12,-41.1,-17.76
1554109476945,8.748413000000001,-3.5775358999999995,1.6561891,-0.05539375,-0.8426242,0.69029135,-51.36,-40.44,-17.52
1554109476964,8.6574335,-3.7738605000000005,1.5508442,-0.05006743,-0.86392945,0.6785734,-51.6,-39.78,-17.16
1554109476985,8.571242,-3.86484,1.3736732,0.004261058,-0.8969527,0.6317018,-51.84,-39.0,-16.68
1554109477006,8.394072,-4.051588,0.99538934,0.1438107,-0.88203895,0.6178534000000001,-52.14,-38.28,-16.2
1554109477025,8.37013,-4.089895200000001,1.0672153999999998,0.24607609,-0.8383630999999999,0.628506,-52.5,-37.68,-15.66
1554109477044,8.336611,-4.156933,1.2587515,0.34940675,-0.81918836,0.6498113,-52.98,-37.08,-15.12
1554109477064,8.441956,-4.4059295999999994,1.1198878,0.43036684,-0.80747044,0.6988135,-53.34,-36.54,-14.52
1554109477084,8.413225,-4.664503599999999,0.74639237,0.42930159999999995,-0.8202536,0.73290193,-53.7,-35.94,-13.92
1554109477105,8.346188,-4.741118,0.44951138,0.32384038,-0.813862,0.75101143,-54.06,-35.28,-13.14
1554109477125,8.6334915,-5.1816510000000005,0.023343466,0.11611383,-0.8479504999999999,0.74675035,-54.3,-34.44,-12.12
1554109477145,8.628703,-5.4258595000000005,-0.74758947,-0.16724652,-0.8852348,0.716923,-54.6,-33.6,-11.28
1554109477165,8.7532015,-5.909488,-0.9295488000000001,-0.4889564,-0.8724516,0.6423545,-54.9,-32.4,-10.08
1554109477185,8.647857,-6.259042,-1.2312181999999998,-0.60933125,-0.85540736,0.5858955,-54.96,-31.98,-9.6
1554109477205,8.561666,-6.627749000000001,-1.1881226,-0.6263755,-0.82344943,0.5123922000000001,-54.96,-31.2,-8.7
1554109477224,8.647857,-6.9437833,-1.4466964,-0.47297743,-0.80533993,0.42397526,-54.96,-30.36,-7.8
1554109477244,8.647857,-6.962936999999999,-1.489792,-0.17150758,-0.75633776,0.30040458,-55.02,-29.46,-7.02
1554109477265,8.614338,-6.713939999999999,-1.7818846999999998,0.23861924,-0.6743124,0.18429075,-55.08,-28.68,-6.24
1554109477284,8.6095495,-6.469731299999999,-1.9686323000000001,0.61891866,-0.5858955,0.07669904,-55.14,-28.14,-5.82
1554109477305,8.595184,-6.14412,-2.1505916000000003,0.85540736,-0.49428272,-0.004261058,-55.2,-27.78,-5.22
1554109477325,8.604761,-5.9047,-2.2463598,0.9108011,-0.39201729999999996,-0.06604639400000001,-55.26,-27.42,-4.62
1554109477345,8.437167,-5.4641665999999995,-2.3373394,0.8159926,-0.2972088,-0.111852765,-55.26,-27.12,-4.02
1554109477365,8.418014,-5.3396683,-2.2272062000000004,0.6221144000000001,-0.22264028,-0.13741912,-55.32,-26.76,-3.48
1554109477384,8.202535000000001,-5.037999,-2.03567,0.37816888,-0.1587244,-0.14274544,-55.44,-26.22,-2.76
1554109477404,8.1163435,-5.0332108,-1.7770962,0.19600865,-0.10759171,-0.14807177,-55.44,-26.04,-2.52
1554109477425,8.078036,-5.1146135,-1.5759833,-0.0053263223,-0.06285059999999999,-0.15126756,-55.5,-25.56,-1.86
1554109477444,8.039729,-5.061941,-1.3940238999999999,-0.13102753,-0.036218993,-0.13848437,-55.5,-25.44,-1.62
1554109477464,8.078036,-5.157709,-1.2024878,-0.1587244,-0.011717908999999999,-0.112918034,-55.56,-25.14,-1.26
1554109477485,8.039729,-5.0906715,-1.1450268999999997,-0.10226539,-0.0031957934000000003,-0.09587380000000001,-55.56,-24.78,-0.9
1554109477505,8.121132000000001,-5.1529207,-0.96306765,-0.027696876000000002,-0.017044231,-0.07882957,-55.56,-24.66,-0.78
1554109477524,8.049306,-5.119402,-1.1258733,0.0063915867,-0.01917476,-0.06924219,-55.5,-24.66,-0.66
1554109477544,8.101977999999999,-5.229535,-1.073201,0.023435817999999997,-0.02130529,-0.051132694000000006,-55.44,-24.84,-0.6
1554109477565,8.106767,-5.2199583,-1.0013748,0.014913702,-0.033023197000000004,-0.04261058,-55.38,-25.02,-0.54
1554109477585,8.121132000000001,-5.2103815,-0.97743285,0.012783173500000002,-0.049002163,-0.022370555,-55.32,-25.2,-0.54
1554109477604,8.121132000000001,-5.157709,-1.073201,0.0031957934000000003,-0.07882957,-0.011717908999999999,-55.26,-25.32,-0.54
1554109477625,7.97748,-5.2343235,-1.0013748,0.004261058,-0.09161274,0.0053263223,-55.2,-25.44,-0.48
1554109477644,8.054094000000001,-5.1529207,-0.96785605,0.0031957934000000003,-0.11611383,0.022370555,-55.14,-25.44,-0.48
1554109477664,8.025364,-5.2199583,-1.1019313,0.0053263223,-0.1438107,0.035153727999999995,-55.14,-25.32,-0.48
1554109477685,7.9822683,-5.277419,-1.1737574,-0.013848438000000001,-0.16192019,0.051132694000000006,-55.08,-25.2,-0.48
1554109477704,7.8865004,-5.478532,-1.1976993999999999,-0.04261058,-0.18961707,0.05539375,-55.08,-25.08,-0.48
1554109477725,7.8625584,-5.3683987,-1.1689690000000001,-0.08841695,-0.21731395,0.06711166,-55.08,-24.9,-0.42
1554109477745,8.020576,-5.4593782,-1.2934675,-0.17044231,-0.2695119,0.09587380000000001,-55.02,-24.78,-0.3
1554109477766,7.991845,-5.4402246,-1.4754268,-0.27057716,-0.28122982,0.101200126,-55.02,-24.66,-0.18
1554109477785,7.987056699999999,-5.507262,-1.5424645000000001,-0.38456047,-0.29933932,0.098004326,-55.02,-24.66,0.0
1554109477804,7.8625584,-5.5743003,-1.6525976999999998,-0.46552056,-0.3057309,0.10759171,-55.02,-24.66,0.12
1554109477824,7.8625584,-5.655703,-1.7004818,-0.46871635,-0.30999196,0.11717909,-55.02,-24.66,0.3
1554109477845,7.905653999999999,-5.823297,-1.7004818,-0.39521313,-0.30679616,0.11824436,-55.02,-24.72,0.48
1554109477865,7.785944000000001,-6.072294,-1.8776526000000002,-0.30679616,-0.29294774,0.10439592,-55.02,-24.72,0.6
1554109477885,7.795521000000001,-5.966949,-1.9877859,-0.21624869,-0.2790993,0.09161274,-55.02,-24.66,0.78
1554109477906,7.896077,-5.9956794,-2.2942438,-0.14274544,-0.26205507,0.08948222,-55.02,-24.66,0.9
1554109477925,7.896077,-5.9621606,-2.3612813999999998,-0.084155895,-0.23329292,0.07776430000000001,-55.02,-24.66,1.02
1554109477945,7.8673470000000005,-5.9238534000000005,-2.3948002,-0.02130529,-0.19920446,0.05539375,-55.02,-24.66,1.14
1554109477964,8.030152000000001,-5.9238534000000005,-2.4235306,0.027696876000000002,-0.18748654,0.040480047000000005,-54.9,-24.6,1.26
1554109477985,8.054094000000001,-5.837662,-2.5671828,0.049002163,-0.17576863,0.026631612000000002,-54.78,-24.6,1.38
1554109478005,7.9583262999999995,-5.7227407,-2.15538,0.022370555,-0.17576863,0.00958738,-54.66,-24.54,1.5
1554109478025,7.852981599999999,-5.593454,-2.1505916000000003,-0.020240024,-0.19707392,0.0053263223,-54.54,-24.48,1.56
1554109478044,7.738060000000001,-5.617396,-2.1649568,-0.07350325,-0.21731395,0.007456851,-54.48,-24.42,1.68
1554109478065,7.690175999999999,-5.617396,-2.15538,-0.16192019,-0.25140239999999997,-0.0010652645,-54.42,-24.36,1.74
1554109478084,7.642291999999999,-5.579088700000001,-2.2224178,-0.29507825,-0.28122982,-0.0031957934000000003,-54.36,-24.24,1.8
1554109478105,7.522581599999999,-5.3971290000000005,-2.4426842,-0.45699844,-0.30999196,0.012783173500000002,-54.3,-24.18,1.92
1554109478125,7.5369470000000005,-5.4258595000000005,-2.6581624,-0.6263755,-0.3323625,0.023435817999999997,-54.42,-24.12,2.1
1554109478145,7.4507556,-5.5982423,-2.6964695,-0.7819041,-0.33768883,0.03089267,-54.48,-24.0,2.22
1554109478165,7.3789296,-5.5743003,-2.5767596,-0.8809737,-0.3536678,0.04580637,-54.54,-24.0,2.4
1554109478184,7.345411,-5.689222,-2.7299886000000004,-0.8831041999999999,-0.3898868,0.07776430000000001,-54.54,-24.0,2.58
1554109478204,7.422025,-5.823297,-2.8018146,-0.84368944,-0.41758367,0.07989483,-54.54,-24.0,2.64
1554109478225,7.3214690000000004,-5.6844335,-3.1609447,-0.8042746999999999,-0.45486793,0.056459017,-54.54,-24.0,2.7
1554109478245,7.273585000000001,-5.8089319999999995,-3.1705215,-0.80107886,-0.49321744,0.034088463,-54.54,-24.12,2.82
1554109478265,7.2640080000000005,-5.7849900000000005,-3.366846,-0.8298409999999999,-0.53263223,0.02876214,-54.48,-24.3,3.0
1554109478284,7.302314999999999,-5.7706246,-3.74513,-0.87990844,-0.56672066,-0.002130529,-54.42,-24.78,3.12
1554109478305,7.153875,-5.689222,-3.9223008000000004,-0.91186637,-0.57098174,-0.046871635999999994,-54.36,-25.08,3.24
1554109478325,7.2448545,-5.7323174,-4.3436804,-0.86392945,-0.54648066,-0.08522116,-54.3,-25.32,3.36
1554109478345,7.134721300000001,-5.689222,-4.4681787,-0.68816084,-0.50813115,-0.10759171,-54.24,-25.62,3.6
1554109478365,7.278373200000001,-5.737106,-4.4921207,-0.33768883,-0.47404268,-0.112918034,-54.12,-25.92,3.84
1554109478385,7.144297999999999,-5.7227407,-4.9518075,0.094808534,-0.43888897,-0.128897,-53.94,-26.16,4.14
1554109478405,7.168239999999999,-5.492897,-4.9757495,0.51771855,-0.39734364,-0.12676647,-53.76,-26.46,4.38
1554109478425,7.2448545,-5.21517,-4.9996915,0.8277104999999999,-0.35153726,-0.10759171,-53.52,-26.58,4.62
1554109478445,7.4028716,-5.0763063,-5.0667295,0.9619338,-0.29614353,-0.094808534,-53.28,-26.7,4.98
1554109478465,7.2975270000000005,-4.918288700000001,-5.0427876,0.9374326999999999,-0.23755397,-0.10013486,-53.1,-26.82,5.34
1554109478485,7.393294999999999,-4.745906400000001,-5.1002483,0.78936094,-0.20240025,-0.113983296,-52.92,-26.94,5.7
1554109478505,7.398083,-4.745906400000001,-5.143344,0.5571333,-0.16937704,-0.10972224,-52.74,-27.0,6.06
1554109478525,7.383717999999999,-4.8081555,-5.0332108,0.2130529,-0.113983296,-0.096939065,-52.56,-27.06,6.48
1554109478544,7.125144500000001,-4.908712,-4.918288700000001,-0.060720075,-0.054328485999999995,-0.07989483,-52.44,-27.0,6.96
1554109478565,7.1490865,-5.0332108,-4.918288700000001,-0.28868666,-0.0063915867,-0.05752428,-52.38,-26.94,7.32
1554109478584,7.144297999999999,-5.1768627,-4.635773,-0.43356264,0.049002163,-0.025566347000000003,-52.38,-26.82,7.62
1554109478605,7.0724716,-5.373187000000001,-4.587889,-0.49215218,0.096939065,0.0031957934000000003,-52.32,-26.7,7.86
1554109478624,6.9958572,-5.468955,-4.43466,-0.50387007,0.128897,0.01917476,-52.26,-26.58,8.04
1554109478645,7.1634517,-5.497685400000001,-4.3388919999999995,-0.46339005,0.15659387,0.037284255,-52.26,-26.52,8.1
1554109478664,7.2113357,-5.607819,-4.1329910000000005,-0.3898868,0.17044231,0.034088463,-52.2,-26.46,8.1
1554109478684,7.28795,-5.6509147,-4.0994720000000004,-0.2790993,0.15020229,0.018109497,-52.2,-26.4,8.04
1554109478705,7.4028716,-5.679645,-3.8600516000000002,-0.14061491,0.11504856,-0.004261058,-52.2,-26.4,7.98
1554109478724,7.4699089999999995,-5.66528,-3.8792052000000004,-0.013848438000000001,0.05965481,-0.03195793,-52.2,-26.4,7.86
1554109478744,7.5321584,-5.6365495,-3.9989154,0.099069595,0.007456851,-0.05752428,-52.26,-26.4,7.74
1554109478764,7.4746976,-5.54557,-4.204817,0.1587244,-0.037284255,-0.098004326,-52.38,-26.46,7.62
1554109478785,7.359775999999999,-5.4545900000000005,-4.276643,0.18109496,-0.07137272,-0.12250541,-52.44,-26.46,7.5
1554109478804,7.3166804,-5.3971290000000005,-4.496909,0.19387813,-0.08841695,-0.13315806,-52.56,-26.52,7.38
1554109478825,7.2640080000000005,-5.373187000000001,-4.554370400000001,0.21092236,-0.08948222,-0.1438107,-52.62,-26.58,7.26
1554109478845,7.1826053,-5.1816510000000005,-4.554370400000001,0.22264028,-0.07350325,-0.14168017,-52.74,-26.64,7.2
1554109478865,7.2448545,-5.105036699999999,-4.4681787,0.22796659,-0.051132694000000006,-0.128897,-52.74,-26.64,7.14
1554109478884,7.110779300000001,-5.0092683,-4.597466000000001,0.2066613,-0.02876214,-0.11504856,-52.74,-26.7,7.08
1554109478906,7.28795,-5.0906715,-4.463390400000001,0.16085494,-0.01917476,-0.10759171,-52.62,-26.7,7.02
1554109478924,7.2065472999999995,-5.00448,-4.520851,0.096939065,-0.008522116,-0.10652645,-52.5,-26.7,7.02
1554109478945,7.168239999999999,-4.9422307,-4.267066000000001,0.026631612000000002,-0.007456851,-0.10652645,-52.38,-26.7,6.96
1554109478965,7.2065472999999995,-5.0667295,-4.061165,-0.025566347000000003,-0.01917476,-0.09267801,-52.32,-26.64,7.02
1554109478986,7.2448545,-5.0810947,-3.7882257000000004,-0.05006743,-0.05539375,-0.08522116,-52.2,-26.64,7.02
1554109479005,7.1873937,-5.109825,-3.3333273,-0.046871635999999994,-0.11611383,-0.08522116,-52.08,-26.7,7.14
1554109479027,7.0245875999999985,-5.172074299999999,-3.2136172999999997,-0.00958738,-0.18748654,-0.07776430000000001,-51.9,-26.82,7.2
1554109479046,6.8905125,-5.148132299999999,-3.103484,0.04474111,-0.26631612,-0.068176925,-51.78,-26.88,7.26
1554109479065,6.8330517,-4.9374423,-2.9215245,0.14807177,-0.3536678,-0.03834952,-51.84,-26.94,7.32
1554109479084,6.8186865,-5.205593,-3.103484,0.33981937,-0.43782368,0.04261058,-51.78,-27.06,7.44
1554109479105,6.6510925,-5.3875523,-3.3141737,0.43569317,-0.49641323,0.07030745599999999,-51.78,-27.12,7.5
1554109479126,6.459556,-5.33488,-3.7786489000000003,0.45060685,-0.5858955,0.113983296,-51.78,-27.18,7.68
1554109479144,6.4499793,-5.119402,-3.5871127,0.39521313,-0.660464,0.21837921,-51.78,-27.18,7.98
1554109479165,6.531382,-4.745906400000001,-3.6541502,0.36218992,-0.70840085,0.30360037,-51.78,-27.12,8.1
1554109479185,6.363788,-4.6932339999999995,-3.6637269999999997,0.39840892,-0.79255676,0.41119209999999995,-51.9,-26.94,8.52
1554109479205,6.133945,-5.2008047,-4.2862196,0.45060685,-0.8341021000000001,0.45912898,-51.96,-26.58,8.88
1554109479224,5.8945246,-4.9996915,-4.5352163,0.36005938,-0.88203895,0.44634579999999996,-51.9,-26.4,9.12
1554109479244,5.66947,-4.918288700000001,-4.7698483,0.17257284,-0.97471696,0.5305017,-51.6,-25.62,10.02
1554109479264,5.568912999999999,-4.779425,-4.741118,-0.024501082,-1.0418286,0.61572284,-51.3,-25.02,10.68
1554109479286,5.434838,-5.4258595000000005,-4.7937902999999995,-0.14168017,-1.0982877,0.680704,-50.94,-24.3,11.4
1554109479305,4.960786,-5.1816510000000005,-4.64535,-0.25992453,-1.1345067,0.6785734,-50.64,-23.52,12.18
1554109479324,4.8219223,-5.8328739999999994,-5.4737434,-0.28336033,-1.200553,0.7307714,-50.28,-22.62,13.02
1554109479344,4.611232299999999,-5.842450599999999,-5.3205147,-0.3717773,-1.2133361999999999,0.7456851,-50.16,-22.14,13.44
1554109479365,4.462791999999999,-5.751471,-5.842450599999999,-0.4878911,-1.3102753,0.82877576,-49.62,-20.94,14.64
1554109479385,4.2425256,-6.158485400000001,-6.4026937,-0.5613944000000001,-1.2836437,0.87351686,-49.32,-20.28,15.42
1554109479405,3.7732617999999993,-6.168062,-6.891111,-0.72011876,-1.2868395000000001,0.8127968000000001,-48.9,-19.68,16.08
1554109479424,3.6918589999999996,-6.359598,-7.2215110000000005,-0.88949585,-1.3230585,0.7797736,-48.42,-19.2,16.86
1554109479445,3.4524388,-7.0634937,-7.911041,-1.0428939,-1.2676646999999999,0.72651035,-47.88,-18.72,17.7
1554109479464,3.4093432,-8.045116,-9.156025999999999,-1.196292,-1.200553,0.60507023,-47.22,-18.42,18.42
1554109479484,3.169923,-8.399458000000001,-9.366715,-1.3475596,-1.0812434,0.406931,-46.5,-18.24,19.08
1554109479505,3.7972038,-8.5383215,-10.128072,-1.2463594999999998,-1.0066749,0.27377295,-45.78,-18.12,19.68
1554109479525,4.189853,-8.380303999999999,-10.257359,-0.98856544,-0.8277104999999999,0.05752428,-45.12,-18.12,20.28
1554109479545,4.0222587999999995,-7.6764092,-9.716269500000001,-0.65513766,-0.65194184,-0.18642128,-44.4,-18.18,20.76
1554109479565,3.7828386,-7.0587053,-9.314043,-0.21944448,-0.46125950000000004,-0.29933932,-43.86,-18.48,21.24
1554109479585,3.4955344,-6.689997999999999,-9.026739,0.24714136,-0.25885928,-0.34301516,-43.44,-18.78,21.6
1554109479604,3.4093432,-6.2303114,-8.653243,0.67218184,-0.128897,-0.39627838,-43.08,-19.14,21.66
1554109479625,3.1747115000000004,-5.6269727,-8.547898,0.9555421999999999,-0.035153727999999995,-0.42717105,-42.84,-19.5,21.72
1554109479645,3.0023289,-5.3061495,-8.4425535,1.0546118,0.024501082,-0.40373522,-42.6,-19.86,21.78
1554109479665,2.96881,-5.0810947,-8.140884,0.9715212,0.053263225,-0.350472,-42.36,-20.16,21.84
1554109479685,3.0119057000000002,-5.037999,-7.920617599999999,0.75420725,0.06498113,-0.29827404,-42.06,-20.28,21.96
1554109479705,3.122039,-5.105036699999999,-7.398681599999999,0.4708469,0.07030745599999999,-0.24394555,-41.88,-20.22,22.14
1554109479725,3.2609026,-5.143344,-7.3938932,0.17150758,0.06604639400000001,-0.19174760000000002,-41.7,-19.86,22.38
1554109479744,3.3039982000000006,-5.2103815,-7.1879919999999995,-0.10439592,0.05752428,-0.14807177,-41.52,-19.44,22.56
1554109479764,3.4284968,-5.48332,-7.465719,-0.3323625,0.060720075,-0.11930962,-41.34,-18.96,22.8
1554109479784,3.3614593,-5.535993,-7.484873299999999,-0.5273059,0.051132694000000006,-0.112918034,-41.16,-18.54,22.98
1554109479805,3.3614593,-5.607819,-7.413047,-0.64555025,0.02130529,-0.08948222,-41.04,-18.18,23.16
1554109479825,3.3854012000000004,-5.761048000000001,-7.4561424,-0.6956177,0.013848438000000001,-0.07563378,-40.92,-18.0,23.28
1554109479845,3.2800562000000006,-5.7227407,-7.685986,-0.680704,0.011717908999999999,-0.084155895,-40.8,-18.12,23.4
1554109479865,3.2992098,-5.713164,-7.719505000000001,-0.58056915,0.002130529,-0.07456851,-40.74,-18.3,23.4
1554109479884,3.4763808,-5.7754129999999995,-7.614160000000001,-0.4048005,0.0031957934000000003,-0.05219796,-40.68,-18.84,23.4
1554109479904,3.5290532,-5.7658362,-7.6093717000000005,-0.17363810000000002,0.02130529,-0.046871635999999994,-40.68,-19.08,23.34
1554109479925,3.4811692,-5.7754129999999995,-7.638102000000001,0.07243799,0.03089267,-0.051132694000000006,-40.74,-19.5,23.34
1554109479945,3.4380736000000005,-5.4593782,-7.6333137,0.28016454,0.033023197000000004,-0.06498113,-40.74,-20.28,23.22
1554109479964,3.4237084,-5.521628,-7.6333137,0.33981937,0.036218993,-0.05219796,-40.8,-20.76,23.16
1554109479984,3.4476504,-5.512050599999999,-7.638102000000001,0.32810146,0.035153727999999995,-0.04261058,-40.86,-21.0,23.04
1554109480005,3.4189199999999995,-5.617396,-7.614160000000001,0.25885928,0.035153727999999995,-0.054328485999999995,-40.92,-21.18,22.92
1554109480025,3.3662476999999997,-5.4498014,-7.671621000000001,0.14168017,0.023435817999999997,-0.058589544,-40.92,-21.3,22.86
1554109480045,3.3854012000000004,-5.579088700000001,-7.820061,0.011717908999999999,0.022370555,-0.047936900000000005,-40.92,-21.42,22.8
1554109480065,3.4237084,-5.535993,-7.7386584,-0.080960095,0.027696876000000002,-0.04261058,-40.92,-21.42,22.74
1554109480085,3.4620156000000004,-5.655703,-7.695563000000001,-0.18322548,0.025566347000000003,-0.043675844000000005,-40.92,-21.36,22.68
1554109480104,3.3854012000000004,-5.6461263,-7.599794999999999,-0.19920446,0.01917476,-0.056459017,-40.98,-21.24,22.62
1554109480124,3.4763808,-5.7418942,-7.6524673,-0.1470065,0.00958738,-0.058589544,-41.04,-21.12,22.62
1554109480144,3.5194763999999994,-5.7179523,-7.709928,-0.054328485999999995,0.00958738,-0.05752428,-41.04,-21.0,22.68
1554109480164,3.466804,-5.7418942,-7.566275999999999,0.05539375,0.012783173500000002,-0.058589544,-41.1,-20.88,22.68
1554109480184,3.4380736000000005,-5.6700683,-7.638102000000001,0.12250541,0.014913702,-0.06285059999999999,-41.16,-20.82,22.74
1554109480205,3.5673605999999998,-5.6365495,-7.638102000000001,0.15126756,0.02130529,-0.046871635999999994,-41.22,-20.76,22.74
1554109480225,3.5242648,-5.6269727,-7.599794999999999,0.14168017,0.037284255,-0.03195793,-41.22,-20.76,22.8
1554109480245,3.394978,-5.5695120000000005,-7.5710645,0.1107875,0.037284255,-0.025566347000000003,-41.22,-20.76,22.8
1554109480265,3.3758245000000002,-5.6748567,-7.6189485,0.07669904,0.033023197000000004,-0.012783173500000002,-41.16,-20.76,22.8
1554109480284,3.4045547999999997,-5.6509147,-7.585429700000001,0.0053263223,0.035153727999999995,0.0010652645,-41.1,-20.82,22.8
1554109480305,3.4093432,-5.6844335,-7.4705076,-0.058589544,0.033023197000000004,0.007456851,-41.04,-20.82,22.74
1554109480325,3.4859576,-5.7658362,-7.5758529999999995,-0.10013486,0.041545313,0.012783173500000002,-41.04,-20.88,22.68
1554109480345,3.4620156000000004,-5.875969400000001,-7.441777,-0.12250541,0.04474111,0.004261058,-41.04,-20.88,22.62
1554109480364,3.5146879999999996,-5.751471,-7.542333999999999,-0.113983296,0.040480047000000005,0.002130529,-41.1,-20.94,22.5
1554109480385,3.5098996,-5.66528,-7.5758529999999995,-0.07243799,0.040480047000000005,0.0063915867,-41.16,-20.94,22.44
1554109480405,3.4715924,-5.7658362,-7.484873299999999,-0.041545313,0.04474111,0.008522116,-41.34,-20.94,22.38
1554109480424,3.466804,-5.789778,-7.3699512,-0.0063915867,0.047936900000000005,0.018109497,-41.52,-21.0,22.38
1554109480444,3.490746,-5.842450599999999,-7.614160000000001,0.014913702,0.049002163,0.014913702,-41.7,-21.0,22.38
1554109480465,3.4811692,-5.8185085999999995,-7.566275999999999,0.017044231,0.049002163,0.004261058,-41.88,-20.94,22.38
1554109480484,3.466804,-5.885546,-7.6668324000000005,0.002130529,0.049002163,-0.004261058,-42.06,-20.94,22.44
1554109480505,3.4620156000000004,-5.966949,-7.566275999999999,-0.011717908999999999,0.041545313,-0.010652645,-42.06,-20.94,22.5
1554109480525,3.5482068,-5.938218599999999,-7.5327573,0.008522116,0.04261058,-0.013848438000000001,-42.12,-20.94,22.56
1554109480545,3.5625722,-5.856816,-7.4322004,0.040480047000000005,0.040480047000000005,-0.027696876000000002,-42.18,-20.94,22.62
1554109480565,3.6343982000000006,-5.8185085999999995,-7.389105000000001,0.07456851,0.029827405,-0.04261058,-42.18,-20.94,22.62
1554109480586,3.6774937999999993,-5.7083755,-7.307702000000001,0.10759171,0.01917476,-0.046871635999999994,-42.12,-20.94,22.62
1554109480605,3.6918589999999996,-5.7466826,-7.365163000000001,0.11611383,0.012783173500000002,-0.060720075,-42.12,-20.88,22.62
1554109480625,3.7110126000000005,-5.7083755,-7.3603745,0.10865697,0.010652645,-0.06924219,-42.12,-20.88,22.62
1554109480644,3.6535518,-5.7323174,-7.355586,0.098004326,0.00958738,-0.07669904,-42.12,-20.82,22.62
1554109480664,3.6343982000000006,-5.7323174,-7.417835,0.068176925,0.00958738,-0.09587380000000001,-42.24,-20.76,22.5
1554109480684,3.5529952000000007,-5.6509147,-7.3268557,0.027696876000000002,0.014913702,-0.10972224,-42.24,-20.76,22.44
1554109480704,3.466804,-5.727529,-7.3699512,0.002130529,0.012783173500000002,-0.10865697,-42.3,-20.7,22.32
1554109480724,3.5242648,-5.761048000000001,-7.527969000000001,-0.01917476,0.007456851,-0.10013486,-42.3,-20.64,22.26
1554109480745,3.4141315999999997,-5.837662,-7.5231805,-0.03195793,0.0053263223,-0.10013486,-42.3,-20.64,22.14
1554109480765,3.5577837999999997,-5.8089319999999995,-7.398681599999999,-0.04580637,-0.004261058,-0.10333065,-42.3,-20.58,22.08
1554109480784,3.5482068,-5.9047,-7.5566993,-0.046871635999999994,-0.012783173500000002,-0.10865697,-42.3,-20.58,22.02
1554109480804,3.5721489999999996,-5.952584,-7.6045833,-0.04580637,-0.018109497,-0.12250541,-42.3,-20.52,21.96
1554109480825,3.7828386,-5.880758,-7.504027000000001,-0.023435817999999997,-0.02130529,-0.1470065,-42.24,-20.52,22.02
1554109480845,3.7493198,-5.9477954,-7.4034699999999996,0.017044231,-0.015978966,-0.15020229,-42.24,-20.58,22.02
1554109480866,3.7684733999999995,-5.7658362,-7.508815299999999,0.060720075,-0.010652645,-0.15978967,-42.18,-20.64,22.02
1554109480884,3.7014358,-5.679645,-7.355586,0.101200126,-0.004261058,-0.16085494,-42.12,-20.7,22.02
1554109480905,3.7876269999999996,-5.751471,-7.4274119999999995,0.13315806,-0.0031957934000000003,-0.15765914,-42.12,-20.82,22.02
1554109480925,3.7349546,-5.5743003,-7.441777,0.13209279,0.0,-0.16192019,-42.12,-20.88,22.02
1554109480945,3.739743,-5.7083755,-7.4274119999999995,0.112918034,-0.0010652645,-0.16405073,-42.12,-21.0,22.02
1554109480965,3.7588966,-5.7083755,-7.365163000000001,0.08522116,-0.0063915867,-0.16298546,-42.06,-21.06,22.02
1554109480985,3.7205894,-5.5264163,-7.5136037,0.03834952,-0.010652645,-0.16298546,-42.0,-21.18,22.02
1554109481005,3.7588966,-5.6269727,-7.3124905,0.017044231,-0.012783173500000002,-0.15978967,-42.0,-21.12,21.96
1554109481025,3.8115692,-5.579088700000001,-7.451353999999999,-0.008522116,-0.02130529,-0.16724652,-41.94,-21.12,22.02
1554109481044,3.8546648,-5.583876999999999,-7.527969000000001,-0.027696876000000002,-0.023435817999999997,-0.17363810000000002,-41.94,-21.18,22.02
1554109481065,3.8211459999999997,-5.583876999999999,-7.504027000000001,-0.011717908999999999,-0.014913702,-0.16937704,-41.94,-21.18,22.08
1554109481084,3.9264907999999994,-5.607819,-7.3938932,0.020240024,-0.008522116,-0.17044231,-41.88,-21.18,22.08
1554109481106,3.8786068,-5.54557,-7.5566993,0.03834952,0.0,-0.17363810000000002,-41.88,-21.12,22.14
1554109481124,3.9073372,-5.5407815000000005,-7.5758529999999995,0.05006743,0.007456851,-0.16192019,-41.82,-21.12,22.2
1554109481144,3.9073372,-5.48332,-7.7578119999999995,0.051132694000000006,0.024501082,-0.14594123,-41.82,-21.18,22.26
1554109481164,3.8738184,-5.3971290000000005,-7.772177,0.03089267,0.036218993,-0.15126756,-41.82,-21.24,22.32
