TimeStamp,Ax,Ay,Az,Gx,Gy,Gz,Mx,My,Mz
1554117459204,-7.9750857,-3.4099417,3.8881836000000005,-0.73609775,0.23116238,-0.4101268,52.86,-13.62,-14.1
1554117459226,-8.042722,-3.791817,4.225766,-0.7233145999999999,0.20026971,-0.38029942,52.86,-13.56,-13.92
1554117459246,-7.996633500000001,-3.9911342000000003,4.180875,-0.63383234,0.2066613,-0.3334278,52.92,-13.38,-13.68
1554117459265,-8.054094000000001,-4.268862,3.851672,-0.5113269,0.19920446,-0.33555830000000003,52.92,-13.2,-13.5
1554117459285,-8.213308999999999,-4.377199,3.855862,-0.38029942,0.19813919,-0.29507825,52.98,-12.9,-13.38
1554117459306,-8.359954,-4.3185415,3.887585,-0.25353295,0.15765914,-0.25246766,53.04,-12.6,-13.26
1554117459325,-8.202535000000001,-4.2940005999999995,3.6589386,-0.23755397,0.12037488,-0.19387813,53.1,-12.18,-13.14
1554117459345,-7.9278,-4.3915644,3.7666779000000004,-0.26525086,0.09374327,-0.165116,53.16,-11.82,-13.08
1554117459365,-7.6375036,-4.312556,3.8588544999999996,-0.22796659,0.09587380000000001,-0.20133498,53.28,-11.4,-12.96
1554117459384,-7.7027453999999995,-4.103063,3.8319199999999998,-0.14487597,0.14274544,-0.2790993,53.34,-10.98,-12.9
1554117459404,-7.801506,-4.158728,3.2962172,-0.15233281,0.17044231,-0.26844665,53.46,-10.62,-12.84
1554117459424,-7.865550999999999,-4.4765587,3.1932666000000003,-0.23435818,0.22264028,-0.1949434,53.58,-10.32,-12.84
1554117459444,-7.8152729999999995,-4.6680946,3.268684,-0.20879184,0.22477080000000002,-0.1949434,53.64,-10.08,-12.84
1554117459464,-7.8152729999999995,-4.64116,3.3303347000000003,-0.14274544,0.21518342,-0.17789917,53.7,-9.84,-12.78
1554117459485,-7.7218990000000005,-4.7279496,3.705027,-0.04261058,0.22796659,-0.16085494,53.76,-9.6,-12.66
1554117459505,-7.7608047000000004,-4.8542438,3.9432502,0.16192019,0.27483824,-0.18109496,53.82,-9.36,-12.54
1554117459525,-7.969699,-4.8907557,3.6936547999999996,0.44741106,0.31105720000000003,-0.16724652,53.82,-9.18,-12.42
1554117459545,-7.9762830000000005,-4.623203299999999,3.3476925000000004,0.5773733,0.33981937,-0.09267801,53.82,-9.0,-12.24
1554117459565,-7.891887,-4.497508,3.039439,0.47191215,0.33875409999999995,-0.06498113,53.76,-8.88,-11.94
1554117459585,-7.9367785,-4.405330999999999,2.8694507999999996,0.23009712,0.33129725,-0.08948222,53.76,-8.7,-11.58
1554117459605,-8.025364,-4.3077674,2.855684,0.039414786,0.3174488,-0.12250541,53.76,-8.58,-11.28
1554117459627,-8.050502999999999,-4.1096473,2.8030117000000003,-0.07563378,0.25672874,-0.14487597,53.76,-8.52,-10.92
1554117459647,-8.065467,-4.0396166,2.8215668,-0.17789917,0.21837921,-0.13954964,53.76,-8.4,-10.68
1554117459665,-8.031349,-4.161721,2.9257145,-0.257794,0.15233281,-0.13315806,53.76,-8.34,-10.44
1554117459686,-8.033145,-4.409521,3.256713,-0.28975195,0.15765914,-0.12463594,53.76,-8.28,-10.2
1554117459705,-8.015787,-4.7363295999999995,3.2513257999999996,-0.19068234,0.12037488,-0.13102753,53.76,-8.16,-9.96
1554117459724,-7.950545299999999,-4.8225207,3.0891187,-0.07776430000000001,0.13635385,-0.10759171,53.82,-8.1,-9.9
1554117459746,-8.02716,-4.7393220000000005,2.9897593999999996,-0.015978966,0.13528858,-0.112918034,53.82,-7.98,-9.84
1554117459764,-8.119935,-4.648941000000001,2.7461493,-0.0010652645,0.12144015,-0.11717909,53.76,-7.92,-9.78
1554117459784,-8.164826,-4.68665,2.8485014,0.0,0.12570119999999999,-0.10439592,53.76,-7.8,-9.78
1554117459806,-8.06427,-4.8147397000000005,2.7497406000000004,-0.002130529,0.12144015,-0.09161274,53.76,-7.74,-9.72
1554117459826,-8.046911999999999,-4.720168599999999,2.7976246,-0.0010652645,0.11824436,-0.111852765,53.82,-7.68,-9.66
1554117459845,-7.905653999999999,-4.486733999999999,2.9233203,0.06604639400000001,0.14807177,-0.11504856,53.82,-7.56,-9.54
1554117459865,-7.9367785,-4.499303299999999,2.7844564999999997,0.15552860000000002,0.165116,-0.11824436,53.82,-7.56,-9.48
1554117459885,-7.9086466,-4.417900599999999,2.4277205000000004,0.22903186,0.16724652,-0.13954964,53.82,-7.38,-9.18
1554117459905,-7.9828672,-4.449624,1.8369513,0.1107875,0.16618125,-0.14594123,53.76,-7.14,-8.82
1554117459925,-8.021174,-4.76506,1.9734207,-0.21092236,0.15765914,-0.09161274,53.7,-7.02,-8.52
1554117459944,-7.965509,-4.900332499999999,2.067393,-0.31318775,0.1438107,-0.10652645,53.7,-6.96,-8.4
1554117459965,-7.81647,-4.4717703,2.7868507,-0.36751625,0.19600865,-0.24607609,53.64,-6.78,-8.04
1554117459985,-7.9547353,-4.0539822999999995,3.1609447,-0.18642128,0.221575,-0.3717773,53.58,-6.66,-7.86
1554117460004,-8.135497,-3.9594111000000005,3.0544027999999996,0.029827405,0.23861924,-0.38349520000000004,53.52,-6.6,-7.8
1554117460025,-8.131308,-4.0587707,2.7976246,0.24714136,0.257794,-0.30466563,53.46,-6.54,-7.74
1554117460044,-7.803900200000001,-4.2275615,2.6270377999999996,0.25033715,0.24607609,-0.33449304,53.46,-6.54,-7.74
1554117460065,-7.695563000000001,-4.477157,2.6426,0.17896444,0.25246766,-0.41971418,53.46,-6.48,-7.74
1554117460084,-7.820061,-4.586692,2.6599581000000003,0.15765914,0.24074976,-0.52411014,53.4,-6.36,-7.74
1554117460105,-7.940968499999999,-4.708197599999999,2.4109612,0.15446335,0.22796659,-0.56459016,53.4,-6.24,-7.68
1554117460125,-7.9301944,-4.8285065000000005,2.1972785,0.13741912,0.22050974,-0.5635249,53.4,-6.0,-7.62
1554117460145,-7.876923599999999,-4.912303400000001,1.9907787000000001,0.10652645,0.19600865,-0.6061354999999999,53.4,-5.52,-7.44
1554117460165,-7.9463553,-5.0798974,1.8860323,0.046871635999999994,0.18109496,-0.63702816,53.4,-5.04,-7.08
1554117460185,-7.9565306,-5.2516812999999996,1.8034325,-0.046871635999999994,0.16192019,-0.59761333,53.4,-4.5,-6.72
1554117460205,-7.9146323,-5.4282537,1.6681601000000001,-0.11611383,0.17150758,-0.53795856,53.4,-4.02,-6.42
1554117460225,-7.881711999999999,-5.5647235,1.6238673000000001,-0.16724652,0.18855181,-0.4857606,53.46,-3.48,-6.06
1554117460245,-7.887099,-5.588066599999999,1.5957354,-0.17363810000000002,0.18748654,-0.45593318,53.46,-3.18,-5.88
1554117460265,-7.94037,-5.7029886,1.5658079,-0.1470065,0.18109496,-0.41438788,53.46,-2.28,-5.34
1554117460284,-7.916428,-5.718550700000001,1.6561891,-0.14594123,0.17470337,-0.38242993,53.52,-1.62,-5.04
1554117460304,-7.845799,-5.798158,1.6514006,-0.15446335,0.16085494,-0.350472,53.58,-1.14,-4.8
1554117460325,-7.782951400000001,-5.9322333,1.5568296999999998,-0.1949434,0.13848437,-0.3057309,53.64,-0.66,-4.74
1554117460345,-7.759608,-5.9980736,1.4820108,-0.23755397,0.10652645,-0.2609898,53.64,-0.18,-4.62
1554117460365,-7.6285253,-6.0513449999999995,1.5442601,-0.23116238,0.080960095,-0.23116238,53.7,0.24,-4.56
1554117460384,-7.568071400000001,-6.1489085999999995,1.6837223999999997,-0.16192019,0.034088463,-0.21198763,53.7,0.6,-4.44
1554117460405,-7.500435400000001,-6.2524576,1.8477252,-0.10333065,0.0,-0.17044231,53.7,0.96,-4.32
1554117460425,-7.419631,-6.311714,1.8459294999999998,-0.1107875,-0.010652645,-0.14913702,53.76,1.2,-4.2
1554117460444,-7.4124484,-6.399701,1.9255368000000002,-0.14274544,-0.017044231,-0.17576863,53.76,1.32,-4.08
1554117460465,-7.3831196,-6.4026937,2.1535845,-0.12357068,-0.0063915867,-0.17044231,53.76,1.44,-4.02
1554117460485,-7.3753386,-6.377555,2.1960813999999997,-0.043675844000000005,-0.008522116,-0.13422333,53.76,1.62,-3.9
1554117460505,-7.429806,-6.2925606,2.0661959999999997,0.049002163,-0.022370555,-0.12463594,53.76,1.8,-3.84
1554117460525,-7.478289,-6.1764417,1.9219455,0.12996227,-0.03834952,-0.13102753,53.7,1.98,-3.84
1554117460546,-7.4322004,-6.1644707,1.6531962,0.12144015,-0.046871635999999994,-0.11611383,53.7,2.16,-3.84
1554117460565,-7.2963295,-6.206369400000001,1.5059528,0.05219796,-0.039414786,-0.12783173,53.7,2.34,-3.84
1554117460585,-7.1395097000000005,-6.1399302,1.3443443000000002,-0.06604639400000001,-0.041545313,-0.18535602,53.7,2.46,-3.9
1554117460605,-7.1131735,-6.1483099999999995,1.2545617,-0.20453078,-0.020240024,-0.21624869,53.64,2.58,-4.02
1554117460624,-7.08145,-6.2871737,1.30484,-0.29827404,-0.010652645,-0.19281286,53.64,2.7,-4.08
1554117460646,-6.885125599999999,-6.455965,1.4269443000000002,-0.29827404,-0.002130529,-0.15978967,53.64,2.82,-4.14
1554117460665,-6.7684083,-6.4643445,1.5394716999999998,-0.24607609,0.015978966,-0.17470337,53.64,2.82,-4.2
1554117460684,-6.8569937,-6.363788,1.5382746,-0.16618125,0.027696876000000002,-0.23542345,53.64,2.88,-4.26
1554117460704,-6.9108634,-6.2003837,1.4101848999999997,-0.16405073,0.022370555,-0.28868666,53.64,3.0,-4.32
1554117460725,-6.983288000000001,-6.139332,1.5376761,-0.20559604,0.034088463,-0.31638354,53.64,3.18,-4.38
1554117460744,-7.1969705,-6.314707,1.6777369,-0.20772657,0.03195793,-0.30786142,53.58,3.36,-4.32
1554117460764,-7.132327,-6.3589997,1.5400703000000002,-0.17363810000000002,-0.0053263223,-0.26205507,53.58,3.54,-4.32
1554117460785,-6.995259,-6.3763575999999995,1.347337,-0.19707392,-0.02130529,-0.22583607,53.58,3.9,-4.2
1554117460804,-7.1035960000000005,-6.547543,1.4131776000000003,-0.29827404,-0.011717908999999999,-0.25246766,53.58,4.08,-4.14
1554117460824,-7.153875,-6.7588315,1.5430629999999999,-0.35579833,-0.029827405,-0.25033715,53.58,4.32,-4.08
1554117460845,-7.011419999999999,-6.926425500000001,1.6376339,-0.3174488,-0.03834952,-0.20559604,53.58,4.5,-4.02
1554117460865,-6.701969,-6.944382000000001,1.5873556999999998,-0.24820662,-0.051132694000000006,-0.17363810000000002,53.58,4.62,-4.02
1554117460887,-6.540959,-6.9485717000000005,1.5574282,-0.18748654,-0.037284255,-0.15552860000000002,53.58,4.74,-3.96
1554117460906,-6.469133,-6.831854300000001,1.6466121999999999,-0.14168017,-0.022370555,-0.16724652,53.58,4.86,-3.9
1554117460925,-6.2362967000000005,-6.6301429999999995,1.5179238000000002,-0.08735169,-0.04474111,-0.19068234,53.58,4.86,-3.96
1554117460949,-6.1578870000000006,-6.353014,1.2563573000000001,-0.06391586,-0.056459017,-0.19387813,53.58,4.92,-3.96
1554117460965,-6.1608795999999995,-6.291363700000001,1.0606314,-0.099069595,-0.07030745599999999,-0.18855181,53.64,4.98,-3.84
1554117460984,-6.179435,-6.38773,0.99179804,-0.15552860000000002,-0.09054748,-0.18216023,53.64,5.04,-3.72
1554117461007,-6.271611,-6.7001734,0.97862995,-0.17470337,-0.08522116,-0.16405073,53.64,5.04,-3.66
1554117461025,-6.3548098,-7.0664864000000005,0.8924386999999999,-0.16085494,-0.058589544,-0.15446335,53.7,5.1,-3.54
1554117461044,-6.42903,-7.3843164,0.8571242,-0.11824436,0.0053263223,-0.18429075,53.7,5.22,-3.48
1554117461064,-6.4685345000000005,-7.629123700000001,0.7529764,-0.04580637,0.051132694000000006,-0.22370553,53.64,5.34,-3.42
1554117461085,-6.4763155,-7.7189064,0.5374983,-0.007456851,0.10439592,-0.21944448,53.64,5.52,-3.36
1554117461105,-6.597821000000001,-8.087613000000001,0.5614403,-0.024501082,0.19707392,-0.17150758,53.64,5.76,-3.3
1554117461124,-6.803124,-8.448539,0.7457938000000001,-0.002130529,0.25246766,-0.113983296,53.64,6.06,-3.36
1554117461144,-6.778583500000001,-8.371326,0.7553706,0.06711166,0.30360037,-0.04261058,53.64,6.36,-3.42
1554117461165,-6.908469,-7.8637557000000005,0.55485624,0.112918034,0.38242993,0.025566347000000003,53.64,6.72,-3.42
1554117461185,-7.071872999999999,-7.439383,0.5057751,0.08735169,0.41545314,0.037284255,53.58,7.02,-3.48
1554117461205,-7.162853,-7.323863,0.48961425,0.008522116,0.42397526,0.041545313,53.58,7.26,-3.48
1554117461225,-7.121553,-7.300519500000001,0.6063316,-0.05006743,0.43249738,0.043675844000000005,53.52,7.5,-3.42
1554117461245,-7.049727000000001,-7.211933999999999,0.7224503999999999,-0.06924219,0.4250405,0.020240024,53.46,7.62,-3.3
1554117461264,-7.043143,-7.092224000000001,0.7200562,-0.06498113,0.38349520000000004,-0.014913702,53.4,7.68,-3.12
1554117461284,-6.962936999999999,-6.879739,0.6596026,-0.056459017,0.33449304,-0.02130529,53.34,7.62,-2.76
1554117461304,-6.9515649999999996,-6.7223196,0.52852005,-0.060720075,0.28122982,0.0031957934000000003,53.28,7.5,-2.46
1554117461324,-7.0251865,-6.7001734,0.39025488,-0.07456851,0.22690132,0.014913702,53.22,7.38,-2.16
1554117461345,-7.1395097000000005,-6.7666125,0.44532153,-0.08522116,0.18002969,0.039414786,53.16,7.26,-1.8
1554117461365,-7.146093400000001,-6.839036999999999,0.5955577,-0.047936900000000005,0.13848437,0.053263225,53.1,7.08,-1.5
1554117461386,-7.165247,-6.8348475,0.49260699999999996,-0.00958738,0.10439592,0.05539375,53.04,6.96,-1.26
1554117461404,-7.153875,-6.699575,0.51714754,-0.002130529,0.082025364,0.034088463,53.04,6.9,-1.02
1554117461426,-7.247847,-6.6151789999999995,0.49919105,-0.011717908999999999,0.06924219,0.036218993,52.98,6.84,-0.9
1554117461447,-7.278373200000001,-6.4386067,0.49200845,-0.014913702,0.058589544,0.07350325,52.92,6.84,-0.9
1554117461466,-7.3591776,-6.449381,0.4770447,-0.027696876000000002,0.05752428,0.11611383,52.86,6.84,-0.84
1554117461486,-7.3268557,-6.361992400000001,0.45669398,-0.05219796,0.03834952,0.11504856,52.8,6.78,-0.84
1554117461505,-7.3490020000000005,-6.3218894,0.5578489999999999,-0.083090626,0.026631612000000002,0.11504856,52.8,6.72,-0.78
1554117461525,-7.309498,-6.3350577,0.6733691999999999,-0.08628642,-0.012783173500000002,0.12037488,52.8,6.66,-0.72
1554117461544,-7.3202715,-6.4505777,0.5129577000000001,-0.08522116,-0.04580637,0.1107875,52.8,6.6,-0.66
1554117461565,-7.2179193,-6.4338182999999995,0.47105917,-0.10013486,-0.06711166,0.07243799,52.74,6.42,-0.54
1554117461584,-7.2592196,-6.42903,0.37469256,-0.1107875,-0.07456851,0.03089267,52.74,6.18,-0.48
1554117461604,-7.1945763,-6.524798400000001,0.29209262,-0.14061491,-0.083090626,0.039414786,52.74,6.0,-0.36
1554117461624,-6.980295,-6.6852098,0.33279404,-0.16405073,-0.06498113,0.047936900000000005,52.74,5.76,-0.3
1554117461645,-6.8049197,-6.8186865,0.28491,-0.15978967,-0.03834952,0.027696876000000002,52.74,5.46,-0.24
1554117461664,-6.746262,-6.8881183,0.3417723,-0.14913702,-0.024501082,0.02876214,52.68,5.34,-0.18
1554117461684,-6.7516490000000005,-6.946776400000001,0.4321534000000001,-0.12250541,-0.026631612000000002,0.03834952,52.68,5.16,-0.18
1554117461705,-6.680421400000001,-7.008427,0.3477578,-0.10013486,-0.05219796,0.026631612000000002,52.68,5.04,-0.12
1554117461725,-6.658873599999999,-6.969521,0.31783026,-0.08948222,-0.06498113,0.012783173500000002,52.68,4.98,-0.12
1554117461744,-6.6307415999999995,-6.901885000000001,0.36272156,-0.08948222,-0.07030745599999999,-0.0063915867,52.62,4.92,-0.18
1554117461764,-6.602609599999999,-6.881533999999999,0.3824737,-0.1107875,-0.07989483,-0.04261058,52.62,4.92,-0.18
1554117461786,-6.667253,-6.8821330000000005,0.38726214,-0.128897,-0.07669904,-0.08841695,52.62,4.92,-0.24
1554117461806,-6.825869,-6.9150529999999995,0.5069722,-0.12250541,-0.06924219,-0.13315806,52.62,4.86,-0.24
1554117461829,-6.880337,-6.873753,0.52253455,-0.1107875,-0.06391586,-0.15339808,52.56,4.86,-0.3
1554117461844,-6.963536,-6.869563,0.5602431999999999,-0.051132694000000006,-0.037284255,-0.13102753,52.5,4.8,-0.36
1554117461866,-6.8988924,-6.862978999999999,0.3878607,0.03089267,-0.0053263223,-0.09587380000000001,52.44,4.74,-0.36
1554117461884,-6.861782000000001,-6.795342999999999,0.24181437,0.080960095,0.03834952,-0.07989483,52.38,4.74,-0.36
1554117461904,-6.946776400000001,-6.683414,0.16220717,0.084155895,0.06498113,-0.084155895,52.38,4.68,-0.42
1554117461925,-6.992266000000001,-6.610989599999999,0.1364695,0.047936900000000005,0.08522116,-0.07563378,52.32,4.74,-0.36
1554117461945,-6.915652000000001,-6.7684083,0.1945289,-0.022370555,0.06391586,-0.07669904,52.32,4.74,-0.36
1554117461965,-6.8575919999999995,-6.8731546,0.2705448,-0.04580637,0.054328485999999995,-0.07882957,52.26,4.8,-0.36
1554117461984,-6.7851677,-7.0670850000000005,0.2896984,-0.018109497,0.06178534,-0.06924219,52.26,4.8,-0.3
1554117462004,-6.7205243,-7.165247,0.2896984,0.05965481,0.07776430000000001,-0.06285059999999999,52.32,4.92,-0.3
1554117462025,-6.627749000000001,-7.056909599999999,0.2873042,0.13954964,0.12144015,-0.06924219,52.38,4.98,-0.3
1554117462044,-6.691794,-6.9515649999999996,0.31783026,0.14594123,0.12463594,-0.08841695,52.38,4.98,-0.3
1554117462064,-6.7330937,-6.8581905,0.4441244000000001,0.12037488,0.128897,-0.07669904,52.44,5.04,-0.3
1554117462085,-6.796540299999999,-6.873753,0.41359833,0.1107875,0.12676647,-0.068176925,52.5,5.04,-0.3
1554117462105,-6.772598299999999,-6.867767999999999,0.39983168,0.12037488,0.12357068,-0.06285059999999999,52.44,5.1,-0.3
1554117462125,-6.8384385,-6.8599863,0.3633201,0.16831179,0.13315806,-0.07350325,52.44,5.16,-0.3
1554117462144,-6.955156,-6.8198833,0.32022446,0.19174760000000002,0.13635385,-0.101200126,52.44,5.22,-0.24
1554117462164,-7.006033,-6.8306575,0.28191724,0.17576863,0.13209279,-0.112918034,52.38,5.22,-0.12
1554117462184,-6.984484700000001,-6.8360443,0.28491,0.16618125,0.14168017,-0.1107875,52.26,5.28,0.06
1554117462205,-6.931214,-6.813898,0.2184709,0.17789917,0.15233281,-0.10759171,52.2,5.34,0.18
1554117462225,-6.933608,-6.789956,0.13168110000000002,0.18322548,0.13954964,-0.12357068,52.14,5.4,0.36
1554117462245,-6.996455999999999,-6.7684083,0.08559271,0.165116,0.13528858,-0.13422333,52.08,5.4,0.48
1554117462264,-6.923433,-6.7163343,0.090979666,0.14168017,0.13102753,-0.12037488,52.02,5.46,0.66
1554117462286,-6.901885000000001,-6.7719994,0.02932897,0.12570119999999999,0.13741912,-0.099069595,52.02,5.46,0.78
1554117462305,-6.862978999999999,-6.8109055,-0.06284779,0.096939065,0.12996227,-0.08735169,51.96,5.52,0.84
1554117462325,-6.862978999999999,-6.8599863,-0.130484,0.07030745599999999,0.11824436,-0.08735169,51.9,5.58,0.84
1554117462344,-6.875549,-6.907272,-0.14425065,0.051132694000000006,0.09587380000000001,-0.09374327,51.9,5.64,0.84
1554117462364,-6.901885000000001,-6.935403999999999,-0.08499416,0.027696876000000002,0.068176925,-0.112918034,51.9,5.76,0.84
1554117462384,-6.9611415999999995,-6.95755,-0.012569559,-0.010652645,0.04261058,-0.13635385,51.9,5.88,0.84
1554117462404,-6.9767036,-7.117363,0.055066638,-0.035153727999999995,0.023435817999999997,-0.13741912,51.9,5.94,0.9
1554117462424,-6.885125599999999,-7.2059484,0.076614454,-0.034088463,-0.00958738,-0.12250541,51.9,6.0,0.9
1554117462445,-6.7911529999999996,-7.1592617,0.14784196,-0.0053263223,-0.02876214,-0.12357068,51.96,6.06,0.9
1554117462464,-6.841431,-7.074866,0.17417817,0.015978966,-0.049002163,-0.14168017,51.96,6.12,0.96
1554117462484,-6.8767457,-6.924031299999999,0.31064767,0.03089267,-0.06604639400000001,-0.14168017,52.02,6.3,1.08
1554117462504,-6.8372416,-6.862978999999999,0.29747957,0.040480047000000005,-0.053263225,-0.10865697,52.02,6.42,1.14
1554117462524,-6.8162923,-6.8743514999999995,0.16460137,0.043675844000000005,-0.037284255,-0.080960095,52.02,6.54,1.26
1554117462545,-6.892906699999999,-7.185598,-0.17836803,0.007456851,-0.056459017,-0.07456851,52.02,6.66,1.32
1554117462565,-6.6744356,-7.154473299999999,0.0023942017,-0.01917476,-0.034088463,-0.111852765,52.08,6.78,1.44
1554117462585,-6.566097999999999,-7.1023993,0.054468088,0.004261058,-0.010652645,-0.19068234,52.08,6.9,1.5
1554117462605,-6.631939,-6.953958999999999,0.08619126,-0.0031957934000000003,0.0031957934000000003,-0.26844665,52.08,7.08,1.56
1554117462627,-6.831854300000001,-7.056909599999999,-0.023942016,-0.068176925,-0.027696876000000002,-0.3153183,52.14,7.2,1.56
1554117462646,-6.853402,-7.3549875999999985,-0.207697,-0.21837921,-0.07350325,-0.30466563,52.14,7.26,1.56
1554117462666,-6.485294000000001,-7.0730705,0.46746787,-0.33555830000000003,-0.04261058,-0.33662358,52.14,7.38,1.56
1554117462686,-6.381146,-7.0096240000000005,0.5859809,-0.31957933,-0.025566347000000003,-0.38029942,52.14,7.44,1.5
1554117462706,-6.4924764999999995,-7.1646485,0.28371290000000005,-0.24394555,0.013848438000000001,-0.35473305,52.2,7.68,1.44
1554117462725,-6.4224463,-7.3843164,-0.017956512,-0.24714136,0.053263225,-0.2908172,52.2,7.86,1.44
1554117462745,-6.0244102,-7.1790137000000005,0.25617957,-0.24927188,0.058589544,-0.32490566,52.26,8.1,1.38
1554117462765,-5.9687448,-7.441777,0.014963761,-0.21731395,0.027696876000000002,-0.36432046,52.26,8.4,1.32
1554117462786,-6.1273610000000005,-7.727286,-0.046088383,-0.20559604,0.011717908999999999,-0.34194988,52.26,8.64,1.26
1554117462811,-6.253655,-7.941567,-0.13108255,-0.29933932,-0.07456851,-0.23755397,52.14,9.0,1.32
1554117462824,-6.1740474999999995,-7.7703815,-0.10534488,-0.350472,-0.09161274,-0.20133498,52.08,9.12,1.32
1554117462845,-6.184223,-7.533954,-0.23822308,-0.34194988,-0.09161274,-0.15339808,51.9,9.3,1.38
1554117462865,-6.2273190000000005,-7.492654300000001,-0.40880993,-0.2727077,-0.054328485999999995,-0.068176925,51.72,9.42,1.44
1554117462884,-6.1129956,-7.4327993,-0.61052144,-0.17257284,-0.023435817999999997,-0.002130529,51.6,9.48,1.56
1554117462905,-6.0920463,-7.583634,-0.7673416999999999,-0.113983296,0.012783173500000002,0.017044231,51.48,9.6,1.62
1554117462925,-6.10701,-7.727885000000001,-0.6715736,-0.12996227,0.036218993,0.024501082,51.36,9.6,1.68
1554117462945,-6.0974330000000005,-7.7847466,-0.5315128,-0.15446335,0.015978966,0.0063915867,51.3,9.66,1.74
1554117462965,-6.1483099999999995,-7.8062944000000005,-0.49919105,-0.16831179,0.002130529,-0.0063915867,51.24,9.66,1.74
1554117462984,-6.363788,-7.7386584,-0.39743748,-0.22370553,-0.05752428,-0.024501082,51.3,9.66,1.8
1554117463004,-6.4044894999999995,-7.627327999999999,-0.35075054,-0.25246766,-0.10333065,-0.022370555,51.3,9.66,1.8
1554117463025,-6.278794,-7.5171947,-0.36032736,-0.2609898,-0.15446335,0.0031957934000000003,51.36,9.66,1.8
1554117463045,-6.206369400000001,-7.466317999999999,-0.35314476,-0.25246766,-0.16618125,0.037284255,51.48,9.6,1.8
1554117463065,-6.165668,-7.3974850000000005,-0.38127659999999997,-0.24501082,-0.13528858,0.06604639400000001,51.54,9.48,1.8
1554117463084,-6.1662664000000005,-7.37055,-0.44592008,-0.24927188,-0.10333065,0.07030745599999999,51.54,9.42,1.8
1554117463104,-6.1453169999999995,-7.2927384,-0.52971715,-0.24820662,-0.05219796,0.082025364,51.6,9.3,1.8
1554117463125,-6.144718599999999,-7.3106947,-0.5177461,-0.21092236,0.00958738,0.10013486,51.66,9.18,1.74
1554117463145,-6.1902084,-7.2448545,-0.54408234,-0.13848437,0.082025364,0.10652645,51.72,9.06,1.74
1554117463165,-6.3745623,-7.1502833,-0.6955156,-0.06391586,0.15552860000000002,0.08841695,51.78,8.88,1.74
1554117463185,-6.6480994,-7.199364699999999,-1.0307038,-0.07989483,0.17896444,0.07563378,51.78,8.76,1.68
1554117463205,-6.7480574,-7.267599000000001,-0.86969376,-0.16192019,0.17470337,0.05539375,51.96,8.64,1.62
1554117463224,-6.703765,-7.314884700000001,-0.6769605,-0.1949434,0.10972224,0.015978966,52.02,8.58,1.56
1554117463244,-6.681617999999999,-7.445967,-0.7745243,-0.19813919,0.06498113,0.02130529,52.08,8.46,1.56
1554117463265,-6.664859,-7.643489,-0.80564886,-0.16831179,0.013848438000000001,0.056459017,52.2,8.28,1.56
1554117463284,-6.535572,-7.735666,-0.7613561,-0.096939065,-0.039414786,0.082025364,52.2,8.1,1.56
1554117463304,-6.42903,-7.7578119999999995,-0.8511386999999999,-0.0063915867,-0.051132694000000006,0.10333065,52.26,7.92,1.62
1554117463325,-6.342839,-7.745242599999999,-0.7404069000000001,0.13741912,-0.02876214,0.13102753,52.2,7.56,1.62
1554117463345,-6.281187999999999,-7.848192999999999,-0.50996494,0.36964676,0.0,0.15978967,52.14,7.2,1.74
1554117463364,-6.2339025,-7.914034,-0.053869538,0.7914915,0.01917476,0.18642128,51.96,6.84,1.74
1554117463385,-6.226719999999999,-7.839214999999999,0.06464344,1.2665993999999998,0.040480047000000005,0.19707392,51.78,6.54,1.8
1554117463405,-6.213552,-7.5112095000000005,0.12270284,1.5638082,0.08841695,0.19068234,51.6,6.3,1.8
1554117463425,-6.336254599999999,-7.176619500000001,0.021547815,1.6394419999999998,0.10439592,0.14913702,51.48,6.18,1.8
1554117463444,-6.591836,-7.004237,0.14844051,1.5701998,0.113983296,0.10865697,51.36,6.12,1.8
1554117463464,-6.7791820000000005,-6.983886200000001,0.24779987,1.4306501,0.09161274,0.07776430000000001,51.24,6.18,1.8
1554117463485,-6.7570357,-6.880337,0.5410896,1.2474246999999998,0.06498113,0.09054748,51.3,6.6,1.8
1554117463505,-6.6947865,-6.870760400000001,0.6817489000000001,1.2026836,0.041545313,0.098004326,51.36,7.08,1.74
1554117463524,-6.654085,-6.8342485,0.6536171,1.0695255,0.039414786,0.09374327,51.42,7.56,1.74
1554117463545,-6.649895,-6.754641499999999,0.51116204,0.77125144,0.036218993,0.053263225,51.54,7.98,1.68
1554117463565,-6.7109475000000005,-6.557119999999999,0.41838676,0.3749731,0.010652645,-0.00958738,51.6,8.34,1.68
1554117463585,-6.8186865,-6.4098763,0.31663316,-0.023435817999999997,-0.00958738,-0.027696876000000002,51.66,8.7,1.62
1554117463604,-6.944382000000001,-6.5708866,0.374094,-0.33129725,-0.020240024,0.008522116,51.78,8.94,1.56
1554117463624,-6.8958993,-6.865373599999999,0.55126494,-0.5230448000000001,-0.039414786,0.03195793,51.84,9.18,1.5
1554117463644,-6.8085113,-7.133524,0.66139823,-0.58909124,-0.07350325,0.04474111,51.84,9.36,1.38
1554117463666,-6.8438253,-7.325659,0.717662,-0.59761333,-0.099069595,0.07030745599999999,51.84,9.42,1.38
1554117463684,-6.8773446,-7.20954,0.55365914,-0.6221144000000001,-0.14594123,0.084155895,51.84,9.42,1.32
1554117463705,-6.8761472999999995,-7.089231,0.36870706,-0.6775081999999999,-0.18642128,0.111852765,51.84,9.36,1.26
1554117463725,-6.949769,-6.992266000000001,0.29029694,-0.74461985,-0.20985709,0.15552860000000002,51.9,9.18,1.2
1554117463744,-6.9862804,-7.015011,0.30765492,-0.78083885,-0.24501082,0.21198763,51.96,8.94,1.14
1554117463765,-7.008427,-7.0521210000000005,0.24420857,-0.7680557,-0.26738137,0.23329292,51.96,8.7,1.08
1554117463785,-7.04015,-7.057508,0.13706805,-0.78723043,-0.29507825,0.25246766,51.96,8.28,0.96
1554117463805,-7.1353197,-7.017405,0.06883330000000001,-0.8064051999999999,-0.330232,0.25033715,51.96,7.92,0.96
1554117463824,-7.1945763,-7.015011,0.065242,-0.8117314999999999,-0.36751625,0.2609898,51.96,7.56,0.9
1554117463844,-7.2262993,-7.0970125,0.31423897,-0.7776430000000001,-0.36645097,0.28975195,51.9,7.14,0.84
1554117463865,-7.184999499999999,-6.96174,0.1945289,-0.737163,-0.38349520000000004,0.30786142,51.96,6.84,0.84
1554117463885,-7.285556,-7.012017999999999,0.12389994,-0.74675035,-0.3568636,0.31318775,51.96,6.6,0.78
1554117463905,-7.2568254,-6.9360023,0.39384618,-0.7030744999999999,-0.34940675,0.32384038,51.96,6.18,0.66
1554117463924,-7.2065472999999995,-6.881533999999999,0.41120413,-0.49960902,-0.34301516,0.34834146,52.02,5.64,0.54
1554117463945,-7.165247,-6.84203,0.33877954,-0.26844665,-0.32597092,0.36325517,52.02,4.98,0.42
1554117463964,-7.1101804,-6.765415700000001,0.3238158,-0.1107875,-0.29294774,0.3568636,52.14,4.26,0.24
1554117463985,-7.041946,-6.6217630000000005,0.19033903,-0.012783173500000002,-0.26631612,0.32597092,52.2,3.48,0.0
1554117464004,-7.071274799999999,-6.4326215,0.26336220000000005,0.04580637,-0.2130529,0.28975195,52.26,2.64,-0.18
1554117464024,-7.0982094,-6.2464724,0.37349546,0.098004326,-0.17470337,0.25140239999999997,52.32,1.86,-0.42
1554117464045,-7.229890299999999,-6.132149,0.15861586,0.14061491,-0.14168017,0.24501082,52.32,0.66,-0.72
1554117464065,-7.253234,-6.0998273,0.1364695,0.08948222,-0.10759171,0.22370553,52.26,0.12,-0.84
1554117464084,-7.252635499999999,-6.023811299999999,0.15203181,0.024501082,-0.101200126,0.17470337,52.26,0.0,-0.96
1554117464104,-7.203554,-5.963358,0.29568392,-0.07563378,-0.07989483,0.13102753,52.26,-0.42,-1.2
1554117464124,-7.2502413,-6.0285997,0.49919105,-0.07669904,-0.05006743,0.12250541,52.26,-0.66,-1.32
1554117464144,-7.3178773,-6.05733,0.45370123,-0.034088463,-0.040480047000000005,0.096939065,52.26,-0.9,-1.44
1554117464164,-7.328651400000001,-6.039374,0.42377370000000003,-0.010652645,-0.023435817999999997,0.07776430000000001,52.32,-1.02,-1.56
1554117464185,-7.3310455999999995,-6.0280013,0.45609543,0.022370555,-0.00958738,0.05006743,52.38,-1.14,-1.74
1554117464204,-7.352593400000001,-6.0399723,0.31663316,0.07030745599999999,-0.0010652645,0.03089267,52.44,-1.2,-1.92
1554117464224,-7.368754400000001,-6.0124393,0.3609259,0.08841695,0.017044231,0.012783173500000002,52.56,-1.32,-2.1
1554117464245,-7.4274119999999995,-5.955577,0.21667525,0.09161274,0.024501082,-0.027696876000000002,52.62,-1.44,-2.22
1554117464264,-7.562086,-5.93343,0.14604631,0.05539375,0.041545313,-0.046871635999999994,52.68,-1.5,-2.34
1554117464284,-7.659051400000001,-5.9238534000000005,0.20171149,0.03195793,0.03834952,-0.05539375,52.68,-1.5,-2.46
1554117464304,-7.671621000000001,-5.919664,0.1945289,0.035153727999999995,0.037284255,-0.05006743,52.68,-1.5,-2.46
1554117464324,-7.6668324000000005,-5.98311,0.17477672,0.041545313,0.04261058,-0.017044231,52.68,-1.44,-2.52
1554117464344,-7.6219410000000005,-5.969942,0.093972415,0.049002163,0.04261058,-0.013848438000000001,52.56,-1.5,-2.52
1554117464364,-7.6907744000000005,-5.981913,0.05207389,0.034088463,0.047936900000000005,-0.0010652645,52.5,-1.5,-2.52
1554117464384,-7.681796,-6.069301,0.14724341,0.012783173500000002,0.03195793,0.004261058,52.44,-1.56,-2.46
1554117464405,-7.590816499999999,-6.0800753,0.20709845,-0.0063915867,0.029827405,0.00958738,52.38,-1.68,-2.46
1554117464424,-7.577648,-6.047753299999999,0.29688102,0.0010652645,0.02876214,0.002130529,52.26,-1.74,-2.46
1554117464445,-7.543531,-5.996278299999999,0.29807812,0.04580637,0.0031957934000000003,-0.012783173500000002,52.2,-1.86,-2.4
1554117464464,-7.5950065,-6.087258,0.26276365,0.06178534,0.002130529,-0.022370555,52.14,-1.98,-2.4
1554117464484,-7.6351094,-6.054936,0.19991584,0.051132694000000006,-0.004261058,-0.06178534,52.14,-2.04,-2.4
1554117464504,-7.677606,-6.1040173,0.20889410000000003,0.011717908999999999,-0.010652645,-0.05965481,52.14,-2.16,-2.34
1554117464525,-7.5794440000000005,-6.114192500000001,0.26994625,-0.008522116,-0.012783173500000002,-0.039414786,52.14,-2.22,-2.34
1554117464544,-7.577648,-6.126762,0.3537433,0.002130529,-0.0010652645,-0.04261058,52.2,-2.16,-2.34
1554117464565,-7.635708,-6.096236,0.3657143,0.017044231,0.0063915867,-0.058589544,52.26,-2.1,-2.34
1554117464585,-7.7709804,-6.054936,0.24181437,0.012783173500000002,0.00958738,-0.07243799,52.32,-2.04,-2.34
1554117464605,-7.7350674,-5.9687448,0.29568392,-0.0063915867,0.002130529,-0.054328485999999995,52.38,-1.92,-2.34
1554117464624,-7.6518690000000005,-5.98311,0.31184477,-0.0063915867,-0.0063915867,-0.026631612000000002,52.44,-1.8,-2.34
1554117464645,-7.5968018,-6.0118403,0.28550854,0.010652645,-0.004261058,-0.020240024,52.56,-1.74,-2.34
1554117464665,-7.620744,-5.9507885,0.23822308,0.039414786,0.0031957934000000003,-0.043675844000000005,52.62,-1.68,-2.4
1554117464685,-7.7093296,-5.920861,0.13826515,0.04261058,0.015978966,-0.051132694000000006,52.68,-1.62,-2.4
1554117464704,-7.7590094,-5.952584,0.06943185,0.010652645,0.02130529,-0.03834952,52.74,-1.62,-2.4
1554117464724,-7.7727756999999995,-6.0938419999999995,0.06883330000000001,-0.024501082,0.027696876000000002,-0.023435817999999997,52.8,-1.62,-2.4
1554117464745,-7.723694999999999,-6.1501055000000004,0.04249708,-0.037284255,0.020240024,-0.0063915867,52.86,-1.62,-2.4
1554117464765,-7.6949644,-6.193201,0.044292733,-0.026631612000000002,0.011717908999999999,0.0053263223,52.92,-1.62,-2.34
1554117464785,-7.693767,-6.180033,0.17776948,-0.0053263223,0.0063915867,0.013848438000000001,52.98,-1.62,-2.28
1554117464805,-7.636306299999999,-6.117185,0.19093758,0.013848438000000001,-0.010652645,0.026631612000000002,52.98,-1.62,-2.22
1554117464824,-7.711125,-6.155493,0.19273324,0.024501082,-0.0053263223,0.037284255,52.98,-1.62,-2.16
1554117464844,-7.781753999999999,-6.0998273,0.23403321,-0.0031957934000000003,-0.011717908999999999,0.024501082,53.1,-1.56,-2.16
1554117464864,-7.750629400000001,-6.035782299999999,0.25378537,-0.00958738,-0.024501082,0.037284255,53.16,-1.5,-2.04
1554117464885,-7.691373,-6.0465565,0.28311434,0.018109497,-0.02876214,0.068176925,53.22,-1.5,-1.98
1554117464905,-7.6009917,-6.0399723,0.28191724,0.03195793,-0.027696876000000002,0.06178534,53.28,-1.44,-1.92
1554117464925,-7.5549035,-5.9226565,0.23104046,0.025566347000000003,-0.018109497,0.046871635999999994,53.34,-1.44,-1.86
1554117464945,-7.5519110000000005,-5.8747725,0.2657564,0.022370555,-0.0063915867,0.041545313,53.4,-1.44,-1.86
1554117464964,-7.561487700000001,-5.9130797,0.18255788,0.033023197000000004,0.008522116,0.037284255,53.4,-1.44,-1.8
1554117464984,-7.6171527,-5.8622026,0.15083471,0.03834952,0.014913702,0.020240024,53.46,-1.5,-1.8
1554117465005,-7.654861500000001,-5.7400985,0.09516951400000001,0.010652645,-0.008522116,-0.008522116,53.4,-1.62,-1.8
1554117465025,-7.767987299999999,-5.771223,0.10235212,-0.04580637,-0.018109497,-0.002130529,53.34,-1.68,-1.8
1554117465045,-7.787141,-5.812523400000001,0.23223756,-0.07243799,-0.036218993,-0.0010652645,53.34,-1.74,-1.8
1554117465065,-7.7943234,-5.823297,0.22565351,-0.068176925,-0.05006743,0.0010652645,53.28,-1.8,-1.8
1554117465085,-7.8787193,-5.799355,0.14664486,-0.07137272,-0.056459017,0.004261058,53.28,-1.86,-1.86
1554117465104,-7.988852499999999,-5.844844999999999,0.13407529999999998,-0.111852765,-0.07456851,0.010652645,53.22,-1.86,-1.86
1554117465124,-7.965509,-5.947197,0.13108255,-0.14913702,-0.08841695,0.03089267,53.22,-1.86,-1.86
1554117465144,-7.832032000000001,-6.008249299999999,0.031124622,-0.18642128,-0.10546118,0.06391586,53.22,-1.86,-1.92
1554117465165,-7.727286,-6.0184245,0.0664391,-0.20559604,-0.10333065,0.07669904,53.28,-1.86,-1.92
1554117465185,-7.777564,-6.1088057000000004,0.110731825,-0.20453078,-0.10439592,0.083090626,53.28,-1.92,-1.92
1554117465205,-7.8062944000000005,-6.1117983,0.3172317,-0.18429075,-0.084155895,0.10013486,53.28,-1.98,-1.92
1554117465225,-7.785944000000001,-6.0010667,0.41718966,-0.10439592,-0.084155895,0.09587380000000001,53.34,-2.04,-1.92
1554117465246,-7.8493905,-5.9064955999999995,0.37289690000000003,-0.0053263223,-0.08522116,0.094808534,53.4,-2.16,-1.98
1554117465265,-7.9325886,-5.94181,0.22565351,0.024501082,-0.08522116,0.10439592,53.4,-2.28,-2.04
1554117465285,-7.914034,-5.880758,0.23642741,0.007456851,-0.07563378,0.112918034,53.4,-2.34,-2.16
1554117465305,-7.8493905,-5.819107,0.31543607,-0.0053263223,-0.06924219,0.096939065,53.4,-2.46,-2.28
1554117465325,-7.813477000000001,-5.659893,0.34356794,-0.007456851,-0.05752428,0.07350325,53.4,-2.58,-2.34
1554117465344,-7.8793178,-5.5659204,0.30945057,0.0063915867,-0.05539375,0.054328485999999995,53.4,-2.7,-2.46
1554117465364,-7.898471400000001,-5.5419784000000005,0.272939,0.020240024,-0.04474111,0.05219796,53.34,-2.76,-2.58
1554117465385,-7.8308353,-5.5270147000000005,0.24779987,0.011717908999999999,-0.040480047000000005,0.058589544,53.22,-2.88,-2.7
1554117465405,-7.782352400000001,-5.6102133,0.19692309,-0.018109497,-0.013848438000000001,0.04474111,53.16,-3.0,-2.82
1554117465425,-7.803302,-5.5701103,0.16879122,-0.05752428,-0.014913702,0.002130529,53.04,-3.06,-2.88
1554117465445,-7.917625,-5.5940523,0.15322891,-0.06391586,-0.012783173500000002,-0.0063915867,52.98,-3.18,-2.88
1554117465465,-7.991845,-5.60722,0.338181,-0.025566347000000003,-0.015978966,-0.002130529,52.92,-3.3,-2.88
1554117465485,-7.9954367,-5.5641245999999995,0.23104046,0.018109497,-0.04580637,-0.022370555,52.86,-3.42,-2.88
1554117465505,-8.049905,-5.518635,0.16759412,-0.012783173500000002,-0.049002163,-0.014913702,52.8,-3.48,-2.88
1554117465525,-8.061875,-5.501277,0.29508537,-0.051132694000000006,-0.05539375,-0.010652645,52.74,-3.6,-2.94
1554117465545,-8.059482000000001,-5.5377884,0.30406362,-0.054328485999999995,-0.07563378,-0.007456851,52.8,-3.72,-2.94
1554117465565,-8.005612,-5.631162000000001,0.32561144,-0.046871635999999994,-0.068176925,0.012783173500000002,52.8,-3.78,-2.94
1554117465585,-8.007407,-5.6670755999999995,0.40641573,-0.01917476,-0.06498113,0.004261058,52.8,-3.84,-3.0
1554117465605,-7.966706299999999,-5.7005944,0.3357868,0.007456851,-0.06178534,0.004261058,52.8,-3.9,-3.0
1554117465625,-7.875128,-5.6545057,0.28012159999999997,0.027696876000000002,-0.054328485999999995,0.012783173500000002,52.8,-3.96,-3.06
1554117465645,-7.939771,-5.677251,0.26755205,0.029827405,-0.036218993,0.010652645,52.8,-4.02,-3.06
1554117465665,-8.002021000000001,-5.620987,0.2813187,0.029827405,-0.035153727999999995,0.0031957934000000003,52.86,-4.08,-3.06
1554117465686,-7.990648299999999,-5.543175700000001,0.32621,0.040480047000000005,-0.03834952,0.004261058,52.86,-4.14,-3.12
1554117465705,-8.012196000000001,-5.5527525,0.3597288,0.040480047000000005,-0.033023197000000004,0.012783173500000002,52.98,-4.14,-3.12
1554117465725,-7.996035000000001,-5.5820813,0.36152446,0.03089267,-0.035153727999999995,0.015978966,53.04,-4.2,-3.12
1554117465745,-7.987056699999999,-5.597045,0.41180268,0.043675844000000005,-0.027696876000000002,0.017044231,53.16,-4.2,-3.12
1554117465765,-7.9912467000000005,-5.577293,0.35553896,0.058589544,-0.025566347000000003,0.027696876000000002,53.22,-4.2,-3.12
1554117465785,-8.024766,-5.556941999999999,0.3357868,0.04474111,-0.025566347000000003,0.027696876000000002,53.34,-4.32,-3.12
1554117465804,-8.0684595,-5.506664,0.29987377,0.018109497,-0.027696876000000002,0.022370555,53.34,-4.44,-3.12
1554117465824,-7.93618,-5.5509567,0.5374983,0.027696876000000002,-0.013848438000000001,0.027696876000000002,53.34,-4.56,-3.12
1554117465845,-7.865550999999999,-5.401917500000001,0.545878,0.09267801,-0.0053263223,-0.0010652645,53.28,-4.62,-3.12
1554117465864,-7.9846625,-5.313332,0.37529109999999993,0.11717909,0.010652645,-0.037284255,53.16,-4.74,-3.18
1554117465884,-8.016983999999999,-5.3103394999999995,0.16101007,0.08841695,0.0053263223,-0.037284255,53.04,-4.86,-3.24
1554117465905,-8.05589,-5.41748,0.20530279,0.025566347000000003,0.02130529,-0.041545313,52.86,-5.04,-3.36
1554117465925,-8.003217999999999,-5.379173000000001,0.40821138,-0.03089267,0.018109497,-0.049002163,52.74,-5.1,-3.42
1554117465944,-7.946953999999999,-5.446210400000001,0.32501290000000005,-0.029827405,-0.008522116,-0.04261058,52.68,-5.1,-3.48
1554117465965,-7.9541364,-5.4396260000000005,0.3597288,-0.043675844000000005,-0.0053263223,-0.06391586,52.68,-5.16,-3.54
1554117465985,-8.015189,-5.456983999999999,0.44711718,-0.07669904,-0.00958738,-0.06711166,52.68,-5.16,-3.6
1554117466006,-7.9930425000000005,-5.5802855000000005,0.45070848,-0.07669904,-0.008522116,-0.04474111,52.74,-5.16,-3.66
1554117466024,-7.9577279999999995,-5.5868697,0.43873745,0.007456851,-0.0031957934000000003,-0.08522116,52.8,-5.1,-3.66
1554117466046,-8.034941,-5.363012,0.19812019,0.0053263223,-0.018109497,-0.10226539,52.8,-5.1,-3.72
1554117466066,-8.115746000000001,-5.3300915,0.10534488,-0.054328485999999995,-0.029827405,-0.07776430000000001,52.8,-5.1,-3.72
1554117466085,-7.931989999999999,-5.4360349999999995,0.28790274,-0.13528858,-0.040480047000000005,-0.041545313,52.8,-5.1,-3.66
1554117466105,-7.9547353,-5.627571,0.16579847,-0.17257284,-0.03089267,-0.06604639400000001,52.8,-5.04,-3.66
1554117466125,-7.863157000000001,-5.6138043,0.5835866999999999,-0.13954964,-0.004261058,-0.12037488,52.8,-5.04,-3.66
1554117466145,-7.967903,-5.418677,0.18255788,-0.14913702,0.004261058,-0.12676647,52.8,-4.98,-3.66
1554117466165,-7.9768815,-5.5042696,0.37469256,-0.2066613,0.013848438000000001,-0.09374327,52.8,-4.98,-3.66
1554117466184,-7.8673470000000005,-5.556941999999999,0.43873745,-0.17470337,0.010652645,-0.094808534,52.86,-4.92,-3.66
1554117466204,-7.7769656000000005,-5.559935,0.29628247,-0.14913702,0.020240024,-0.12996227,52.92,-4.86,-3.66
1554117466226,-7.7907324000000004,-5.559336,0.32680854,-0.165116,0.054328485999999995,-0.17363810000000002,52.98,-4.86,-3.66
1554117466245,-7.755418,-5.601235,0.3309984,-0.15552860000000002,0.07137272,-0.22264028,52.98,-4.8,-3.72
1554117466265,-7.698555499999999,-5.606621700000001,0.3453636,-0.10546118,0.082025364,-0.257794,53.04,-4.74,-3.72
1554117466284,-7.768586,-5.7299232,0.08678981,-0.07669904,0.09587380000000001,-0.26418558,53.04,-4.62,-3.78
1554117466304,-7.863157000000001,-5.801749,0.08259996,-0.10546118,0.11930962,-0.24074976,53.1,-4.5,-3.78
1554117466325,-7.963114699999999,-5.963956400000001,0.044292733,-0.13741912,0.112918034,-0.22050974,53.1,-4.26,-3.78
1554117466345,-7.8733325,-6.013636,0.035913024,-0.12570119999999999,0.10546118,-0.20240025,53.1,-4.02,-3.78
1554117466364,-7.7847466,-5.905897,0.20530279,-0.06498113,0.11611383,-0.23861924,53.1,-3.78,-3.78
1554117466384,-7.7949224,-5.801151,0.088585466,-0.007456851,0.094808534,-0.29188246,53.16,-3.6,-3.72
1554117466405,-7.897873,-5.959168,-0.074818805,-0.002130529,0.07882957,-0.25672874,53.16,-3.42,-3.66
1554117466425,-7.8146744,-6.1094040000000005,-0.15023616,-0.037284255,0.06604639400000001,-0.18429075,53.16,-3.3,-3.6
1554117466445,-7.769783,-6.226719999999999,-0.22685061,-0.05752428,0.06285059999999999,-0.1587244,53.16,-3.18,-3.54
1554117466465,-7.774571400000001,-6.2219315,-0.17836803,-0.068176925,0.060720075,-0.15233281,53.16,-3.12,-3.48
1554117466487,-7.798513400000001,-6.18542,-0.06344634,-0.06391586,0.06285059999999999,-0.12357068,53.16,-3.12,-3.36
1554117466504,-7.736264,-6.1177839999999994,-0.034117375,-0.007456851,0.046871635999999994,-0.12144015,53.16,-3.18,-3.24
1554117466526,-7.620744,-6.0327897,-0.07003039999999999,0.022370555,0.05006743,-0.111852765,53.16,-3.18,-3.18
1554117466546,-7.5788455,-6.0333879999999995,-0.16579847,0.037284255,0.046871635999999994,-0.11611383,53.16,-3.06,-3.12
1554117466565,-7.562086,-6.0327897,-0.21966799999999997,0.012783173500000002,0.05752428,-0.098004326,53.16,-2.94,-3.06
1554117466585,-7.6482773,-6.1698580000000005,-0.21068975,-0.012783173500000002,0.060720075,-0.08735169,53.1,-2.82,-3.0
1554117466605,-7.6351094,-6.131551,-0.19213470000000002,-0.011717908999999999,0.04580637,-0.09267801,53.1,-2.64,-3.0
1554117466625,-7.659051400000001,-6.1662664000000005,-0.207697,-0.004261058,0.046871635999999994,-0.082025364,53.1,-2.52,-2.94
1554117466645,-7.666233999999999,-6.169258999999999,-0.13227965,0.002130529,0.041545313,-0.07350325,53.1,-2.4,-2.94
1554117466665,-7.6225395,-6.1094040000000005,-0.16819267,0.012783173500000002,0.034088463,-0.068176925,53.1,-2.22,-2.82
1554117466684,-7.641692999999999,-6.0639142999999995,-0.19273324,0.022370555,0.02130529,-0.083090626,53.1,-2.16,-2.7
1554117466704,-7.8152729999999995,-6.1405287,-0.30825347,-0.007456851,0.017044231,-0.068176925,53.1,-2.1,-2.64
1554117466725,-7.7949224,-6.1902084,-0.22086509999999998,-0.058589544,-0.0010652645,-0.027696876000000002,53.1,-2.04,-2.52
1554117466745,-7.6578539999999995,-6.172251999999999,-0.22266077,-0.07989483,-0.024501082,-0.0010652645,53.16,-1.98,-2.46
1554117466765,-7.610568499999999,-6.120178,-0.25139117,-0.10972224,-0.023435817999999997,0.022370555,53.16,-1.92,-2.4
1554117466785,-7.6650367,-6.0764837,-0.42078096,-0.14807177,-0.029827405,0.03089267,53.16,-1.8,-2.34
1554117466805,-7.7183075,-6.0046577,-0.5069722,-0.19600865,-0.04261058,0.043675844000000005,53.16,-1.68,-2.4
1554117466825,-7.706935400000001,-6.005855,-0.4985925,-0.24820662,-0.05219796,0.05752428,53.16,-1.56,-2.4
1554117466844,-7.653664,-5.976526,-0.3357868,-0.30040458,-0.06498113,0.051132694000000006,53.1,-1.44,-2.46
1554117466864,-7.6255326,-5.9825115,-0.25617957,-0.3153183,-0.083090626,0.03834952,53.04,-1.38,-2.46
1554117466884,-7.555502000000001,-5.951985400000001,-0.13347675,-0.294013,-0.08735169,0.03089267,53.04,-1.32,-2.46
1554117466907,-7.5429325,-6.002263500000001,-0.15203181,-0.22477080000000002,-0.07989483,0.025566347000000003,52.98,-1.32,-2.52
1554117466926,-7.490858599999999,-6.085462000000001,-0.15741876,-0.13102753,-0.068176925,-0.0010652645,52.92,-1.38,-2.52
1554117466946,-7.5207863,-6.0208187,-0.18016368,-0.01917476,-0.041545313,-0.058589544,52.92,-1.5,-2.52
1554117466965,-7.5525093,-5.916671,-0.25797522,0.053263225,-0.015978966,-0.10865697,52.86,-1.62,-2.58
1554117466985,-7.6267295,-5.8412538,-0.39564183,0.033023197000000004,0.002130529,-0.12676647,52.86,-1.8,-2.64
1554117467005,-7.639898,-5.9651537,-0.43394905,-0.029827405,0.023435817999999997,-0.11930962,52.86,-1.92,-2.76
1554117467025,-7.677606,-6.120178,-0.39504328,-0.06498113,0.03089267,-0.11717909,52.86,-2.04,-2.82
1554117467045,-7.677606,-6.1884127,-0.31364042,-0.043675844000000005,0.035153727999999995,-0.101200126,52.92,-2.1,-2.88
1554117467064,-7.6518690000000005,-6.267421700000001,-0.30705637,-0.002130529,0.05006743,-0.06391586,52.92,-2.22,-2.94
1554117467084,-7.630919500000001,-6.187216,-0.30406362,0.033023197000000004,0.047936900000000005,-0.054328485999999995,52.92,-2.28,-2.94
1554117467105,-7.754819400000001,-6.147113,-0.36870706,0.054328485999999995,0.054328485999999995,-0.054328485999999995,52.98,-2.28,-3.0
1554117467125,-7.792528,-6.0758852999999995,-0.4381389,0.05965481,0.020240024,-0.06391586,52.98,-2.28,-3.06
1554117467145,-7.7183075,-6.042965000000001,-0.49260699999999996,0.039414786,0.011717908999999999,-0.040480047000000005,52.98,-2.28,-3.06
1554117467165,-7.6578539999999995,-6.072892700000001,-0.47824179999999994,0.024501082,0.002130529,-0.036218993,52.98,-2.34,-3.06
1554117467185,-7.6045833,-5.9986725,-0.5081693,0.01917476,-0.0010652645,-0.036218993,52.98,-2.34,-3.0
1554117467205,-7.6488757,-6.0327897,-0.48961425,0.007456851,-0.0010652645,-0.047936900000000005,52.98,-2.4,-3.0
1554117467224,-7.633912,-5.977723,-0.43873745,-0.013848438000000001,-0.01917476,-0.05539375,52.98,-2.4,-3.0
1554117467244,-7.592013400000001,-6.0513449999999995,-0.48482585,-0.027696876000000002,-0.023435817999999997,-0.06391586,52.92,-2.4,-2.88
1554117467264,-7.529764,-6.0938419999999995,-0.51714754,-0.039414786,-0.029827405,-0.06711166,52.92,-2.4,-2.76
1554117467284,-7.53575,-6.178836,-0.42377370000000003,-0.036218993,-0.017044231,-0.06391586,52.86,-2.34,-2.7
1554117467304,-7.5950065,-6.1973910000000005,-0.374094,-0.037284255,-0.024501082,-0.068176925,52.86,-2.28,-2.58
1554117467326,-7.6093717000000005,-6.192004,-0.34715924,-0.039414786,-0.023435817999999997,-0.060720075,52.8,-2.16,-2.52
1554117467346,-7.6009917,-6.18542,-0.29149407,-0.036218993,-0.025566347000000003,-0.05752428,52.8,-2.1,-2.52
1554117467366,-7.6003933,-6.170456400000001,-0.2669535,-0.03089267,-0.018109497,-0.05219796,52.8,-2.04,-2.46
1554117467386,-7.5866265,-6.1985884,-0.29508537,-0.023435817999999997,-0.020240024,-0.04474111,52.74,-1.98,-2.46
1554117467405,-7.563283,-6.2129536,-0.30107087,-0.0063915867,-0.011717908999999999,-0.034088463,52.74,-1.98,-2.52
1554117467426,-7.507019500000001,-6.247669,-0.33877954,0.017044231,0.0053263223,-0.035153727999999995,52.74,-1.92,-2.58
1554117467446,-7.4974427,-6.203975,-0.42676646,0.035153727999999995,0.011717908999999999,-0.040480047000000005,52.8,-1.92,-2.58
1554117467465,-7.5471225,-6.1524997,-0.45429978,0.034088463,0.024501082,-0.039414786,52.86,-1.86,-2.64
1554117467485,-7.615956,-6.1225724,-0.4878186,0.02876214,0.023435817999999997,-0.03834952,52.92,-1.86,-2.7
1554117467505,-7.5890207,-6.139332,-0.39264908,0.022370555,0.025566347000000003,-0.047936900000000005,52.98,-1.8,-2.76
1554117467524,-7.587225,-6.0956373,-0.40462008,0.013848438000000001,0.013848438000000001,-0.06178534,53.04,-1.74,-2.76
1554117467545,-7.599196000000001,-6.085462000000001,-0.42796355,0.0031957934000000003,0.012783173500000002,-0.05965481,53.1,-1.68,-2.64
1554117467564,-7.5968018,-6.066907,-0.44711718,0.004261058,0.0063915867,-0.06391586,53.16,-1.62,-2.46
1554117467584,-7.650073,-6.0920463,-0.40342298,-0.00958738,0.0,-0.07456851,53.22,-1.62,-2.28
1554117467605,-7.6219410000000005,-6.091448000000001,-0.30406362,-0.014913702,-0.012783173500000002,-0.09374327,53.16,-1.56,-2.16
1554117467624,-7.5944076,-6.057929,-0.26994625,-0.0010652645,-0.014913702,-0.12250541,53.16,-1.5,-1.98
1554117467644,-7.632714999999999,-6.172850599999999,-0.39145198,0.0,-0.015978966,-0.14807177,53.16,-1.44,-1.86
1554117467665,-7.5525093,-6.213552,-0.29388827,-0.0010652645,-0.026631612000000002,-0.15765914,53.1,-1.38,-1.74
1554117467684,-7.378331,-6.2153480000000005,-0.22206220000000004,0.0063915867,-0.015978966,-0.12676647,53.04,-1.38,-1.74
1554117467704,-7.355586,-6.267421700000001,-0.29029694,0.02876214,0.004261058,-0.11504856,53.04,-1.32,-1.92
1554117467725,-7.405266,-6.2093620000000005,-0.3357868,0.043675844000000005,0.033023197000000004,-0.13848437,52.98,-1.32,-2.04
1554117467746,-7.484873299999999,-6.1578870000000006,-0.3321955,0.049002163,0.05752428,-0.15339808,52.98,-1.32,-2.16
1554117467765,-7.5213847000000005,-6.1866174,-0.25079262,0.039414786,0.07030745599999999,-0.15446335,53.04,-1.32,-2.28
1554117467785,-7.4363904000000005,-6.268618599999999,-0.25917232,0.018109497,0.05752428,-0.13741912,53.04,-1.38,-2.4
1554117467805,-7.3418193,-6.415862000000001,-0.31004912,0.014913702,0.07243799,-0.10972224,53.1,-1.38,-2.46
1554117467825,-7.341221000000001,-6.451775,-0.29508537,0.041545313,0.099069595,-0.10865697,53.1,-1.38,-2.4
1554117467845,-7.381922200000001,-6.357802400000001,-0.17298107,0.07882957,0.12676647,-0.094808534,53.16,-1.38,-2.4
1554117467865,-7.381922200000001,-6.318897,-0.13108255,0.11504856,0.14807177,-0.060720075,53.16,-1.38,-2.4
1554117467884,-7.307702000000001,-6.2662244000000005,-0.13227965,0.12676647,0.16085494,-0.051132694000000006,53.22,-1.32,-2.34
1554117467904,-7.261614,-6.373365,-0.20949265,0.10013486,0.16937704,-0.07776430000000001,53.22,-1.26,-2.34
1554117467925,-7.265205,-6.3584013,-0.23822308,0.06391586,0.18322548,-0.101200126,53.22,-1.2,-2.28
1554117467945,-7.255029700000001,-6.4541693,-0.31902736,0.060720075,0.19387813,-0.10759171,53.22,-1.08,-2.28
1554117467965,-7.2723875,-6.513426,-0.47644615,0.07350325,0.2034655,-0.10972224,53.16,-0.9,-2.22
1554117467985,-7.322665700000001,-6.556521400000001,-0.56563014,0.06391586,0.20772657,-0.099069595,53.16,-0.78,-2.16
1554117468004,-7.3274539999999995,-6.627749000000001,-0.5907693,0.05006743,0.19707392,-0.08522116,53.16,-0.6,-2.04
1554117468025,-7.222707700000001,-6.617573299999999,-0.6835446,0.07669904,0.165116,-0.06498113,53.16,-0.42,-1.98
1554117468045,-7.125144500000001,-6.577471000000001,-0.81761986,0.10333065,0.14487597,-0.05539375,53.16,-0.3,-1.86
1554117468065,-7.0808516,-6.4026937,-0.84096336,0.10226539,0.12783173,-0.06498113,53.1,-0.18,-1.74
1554117468085,-7.098808,-6.249465,-0.88525605,0.08735169,0.10972224,-0.09054748,53.1,-0.06,-1.62
1554117468105,-7.235875999999999,-6.2368955999999995,-0.88046765,0.043675844000000005,0.09374327,-0.12463594,53.04,0.0,-1.44
1554117468125,-7.2969284,-6.3087215,-0.9151836,-0.025566347000000003,0.06498113,-0.15339808,53.04,0.06,-1.26
1554117468145,-7.2885485,-6.4044894999999995,-0.7858967,-0.083090626,0.041545313,-0.17044231,53.04,0.06,-1.08
1554117468165,-7.304111,-6.536769400000001,-0.6691794,-0.09587380000000001,0.029827405,-0.19813919,52.98,0.12,-0.96
1554117468184,-7.3124905,-6.583456,-0.60693014,-0.060720075,0.020240024,-0.23009712,52.92,0.12,-0.84
1554117468204,-7.3897038,-6.6217630000000005,-0.5638345,-0.02130529,0.00958738,-0.23861924,52.86,0.18,-0.72
1554117468224,-7.487267500000001,-6.678625599999999,-0.5410896,0.0031957934000000003,-0.029827405,-0.24501082,52.8,0.24,-0.66
1554117468245,-7.6003933,-6.9012866,-0.5578489999999999,0.010652645,-0.06391586,-0.23435818,52.74,0.3,-0.6
1554117468265,-7.5770497,-7.0305734,-0.5081693,0.033023197000000004,-0.10865697,-0.20559604,52.68,0.36,-0.6
1554117468285,-7.429806,-6.9880759999999995,-0.5141548,0.07989483,-0.13315806,-0.15339808,52.62,0.48,-0.54
1554117468305,-7.363367599999999,-6.938994999999999,-0.5231331,0.13102753,-0.13954964,-0.11717909,52.62,0.66,-0.54
1554117468324,-7.3065050000000005,-6.929417999999999,-0.59376204,0.17150758,-0.13848437,-0.08735169,52.56,0.9,-0.54
1554117468344,-7.159860000000001,-6.902483500000001,-0.61171854,0.21092236,-0.13209279,-0.051132694000000006,52.56,1.14,-0.48
1554117468364,-6.9096660000000005,-6.892308,-0.56982,0.22583607,-0.12357068,-0.018109497,52.56,1.38,-0.36
1554117468385,-6.701969,-6.854000999999999,-0.57281274,0.22370553,-0.096939065,0.026631612000000002,52.5,1.62,-0.3
1554117468405,-6.684611299999999,-6.733692,-0.49081135,0.20985709,-0.054328485999999995,0.024501082,52.5,1.8,-0.24
1554117468425,-6.7989345000000005,-6.633734,-0.36870706,0.20133498,-0.022370555,-0.011717908999999999,52.5,2.04,-0.12
1554117468445,-6.884527,-6.631939,-0.29029694,0.21411815,-0.007456851,-0.015978966,52.5,2.16,-0.06
1554117468464,-6.821679,-6.837839999999999,-0.24779987,0.22370553,0.010652645,0.00958738,52.44,2.28,0.0
1554117468484,-6.6504936,-6.965331,-0.30406362,0.23329292,0.027696876000000002,0.022370555,52.44,2.34,0.0
1554117468505,-6.4763155,-6.970119500000001,-0.29328972,0.21837921,0.08841695,0.013848438000000001,52.5,2.4,-0.06
1554117468524,-6.609792,-6.911461999999999,-0.18435353,0.2130529,0.14168017,-0.02876214,52.5,2.46,-0.12
1554117468544,-6.7719994,-6.8671690000000005,-0.11492168,0.22050974,0.1768339,-0.07350325,52.5,2.46,-0.18
1554117468565,-6.949769,-6.770802499999999,-0.06703765,0.21837921,0.18855181,-0.08628642,52.56,2.52,-0.3
1554117468585,-7.044339999999999,-6.703166,-0.08140286,0.20453078,0.19813919,-0.07243799,52.56,2.58,-0.36
1554117468605,-7.1341224,-6.7743936,-0.21188685,0.1768339,0.20879184,-0.056459017,52.62,2.58,-0.42
1554117468626,-7.119757000000001,-6.778583500000001,-0.26036942,0.1438107,0.22796659,-0.041545313,52.62,2.58,-0.42
1554117468646,-7.186196300000001,-6.8671690000000005,-0.34476504,0.14487597,0.26844665,-0.027696876000000002,52.62,2.58,-0.42
1554117468666,-7.2059484,-6.923433,-0.38965634,0.17044231,0.2972088,-0.013848438000000001,52.62,2.52,-0.3
1554117468685,-7.2191167,-6.856395200000001,-0.4441244000000001,0.2066613,0.32170987,0.0,52.62,2.58,-0.18
1554117468705,-7.229890299999999,-6.693589,-0.45489833,0.221575,0.32170987,0.007456851,52.62,2.64,-0.06
1554117468725,-7.1706343,-6.4421983,-0.5057751,0.2428803,0.32170987,0.03195793,52.62,2.76,0.06
1554117468745,-7.156269,-6.237494,-0.66618663,0.26631612,0.3334278,0.06924219,52.56,2.82,0.24
1554117468764,-7.1927805,-6.0764837,-0.83497787,0.24074976,0.34088463,0.098004326,52.56,2.88,0.42
1554117468784,-7.339425,-6.0645127,-0.95468795,0.17896444,0.33875409999999995,0.08628642,52.5,3.0,0.54
1554117468804,-7.461529700000001,-6.184223,-0.90859956,0.09587380000000001,0.31105720000000003,0.037284255,52.5,3.06,0.6
1554117468825,-7.424419400000001,-6.350021400000001,-0.7553706,0.05539375,0.2428803,-0.004261058,52.44,3.18,0.66
1554117468845,-7.2430587,-6.640318400000001,-0.6769605,0.09374327,0.18429075,-0.015978966,52.44,3.18,0.78
1554117468865,-7.1466923,-6.772598299999999,-0.6374562,0.1587244,0.15765914,-0.022370555,52.44,3.12,1.02
1554117468884,-7.1425023,-6.703765,-0.6697779,0.257794,0.15659387,-0.041545313,52.38,3.06,1.2
1554117468904,-7.213131,-6.543353,-0.7320272,0.3174488,0.17789917,-0.04580637,52.38,3.06,1.44
1554117468925,-7.289147,-6.341642,-0.79966336,0.330232,0.22477080000000002,-0.05539375,52.32,3.06,1.74
1554117468945,-7.438784599999999,-6.229712999999999,-0.81522566,0.25885928,0.24927188,-0.09054748,52.26,3.06,2.04
1554117468965,-7.490858599999999,-6.153697,-0.5967548,0.15126756,0.24607609,-0.12357068,52.14,3.12,2.4
1554117468985,-7.574057000000001,-6.1519012,-0.51595044,0.094808534,0.23861924,-0.15339808,51.96,3.18,2.7
1554117469005,-7.719505000000001,-6.2817870000000005,-0.5303157,0.08735169,0.20453078,-0.16405073,51.78,3.24,3.0
1554117469025,-7.677007700000001,-6.381745,-0.50278234,0.1107875,0.15233281,-0.13422333,51.66,3.36,3.24
1554117469044,-7.553107700000001,-6.5379663,-0.6302736,0.13209279,0.10759171,-0.083090626,51.48,3.42,3.48
1554117469064,-7.405864200000001,-6.6630635,-0.80205756,0.12357068,0.07456851,-0.051132694000000006,51.36,3.54,3.66
1554117469084,-7.262212299999999,-6.7211227,-0.96426475,0.101200126,0.06711166,-0.0031957934000000003,51.24,3.66,3.84
1554117469107,-7.156867500000001,-6.8384385,-1.0301052,0.09587380000000001,0.08841695,0.02876214,51.12,3.78,3.96
1554117469126,-7.149685000000001,-6.9491705999999995,-1.0390834999999998,0.094808534,0.13528858,0.029827405,51.06,3.84,4.14
1554117469145,-7.057508,-6.8683662,-0.99179804,0.10013486,0.15339808,-0.0010652645,51.06,3.96,4.26
1554117469165,-6.938994999999999,-6.701370699999999,-0.8086416000000001,0.08841695,0.15659387,-0.03089267,51.0,4.02,4.38
1554117469185,-6.91625,-6.6056023,-0.6194997,0.06924219,0.15765914,-0.047936900000000005,51.0,4.02,4.44
1554117469205,-6.920439999999999,-6.512827400000001,-0.44831428,0.07776430000000001,0.13635385,-0.07350325,50.94,4.08,4.5
1554117469225,-6.998251400000001,-6.4398040000000005,-0.38606504,0.10759171,0.13209279,-0.08735169,50.94,4.08,4.56
1554117469244,-7.044339999999999,-6.42903,-0.46746787,0.12996227,0.13741912,-0.096939065,50.94,4.08,4.62
1554117469265,-7.042544400000001,-6.444592500000001,-0.5530606,0.11930962,0.1438107,-0.09054748,50.94,4.08,4.68
1554117469285,-6.9820905,-6.4936733,-0.46986207,0.08841695,0.16937704,-0.07989483,50.94,4.14,4.74
1554117469304,-6.931812299999999,-6.63972,-0.45130703,0.06285059999999999,0.18429075,-0.09161274,50.94,4.14,4.8
1554117469324,-6.9820905,-6.6965823,-0.45130703,0.06711166,0.20879184,-0.12463594,50.94,4.2,4.86
1554117469345,-7.231686,-6.7486562999999995,-0.48662150000000004,0.094808534,0.221575,-0.1470065,50.94,4.32,5.04
1554117469364,-7.345411,-6.870760400000001,-0.5446809,0.12783173,0.20772657,-0.1438107,50.88,4.38,5.16
1554117469385,-7.278373200000001,-6.925827000000001,-0.55485624,0.14168017,0.17576863,-0.12676647,50.82,4.44,5.28
1554117469405,-7.127538700000001,-6.900687700000001,-0.55605334,0.128897,0.13209279,-0.096939065,50.76,4.5,5.4
1554117469424,-7.124545599999999,-6.769605,-0.55006784,0.13528858,0.113983296,-0.082025364,50.7,4.5,5.46
1554117469444,-7.2388687,-6.681617999999999,-0.62249243,0.15339808,0.09267801,-0.082025364,50.58,4.56,5.58
1554117469466,-7.343615,-6.5164184999999994,-0.7332243,0.16724652,0.06178534,-0.09161274,50.52,4.56,5.64
1554117469486,-7.354389,-6.444592500000001,-0.8714894,0.14594123,0.033023197000000004,-0.07456851,50.4,4.56,5.64
1554117469506,-7.235875999999999,-6.4230447,-0.96546185,0.082025364,-0.004261058,-0.026631612000000002,50.34,4.68,5.7
1554117469525,-7.0784574000000005,-6.4763155,-1.1007341999999998,0.014913702,-0.022370555,0.002130529,50.28,4.8,5.7
1554117469545,-6.999449,-6.5218053,-1.1109096,-0.043675844000000005,-0.034088463,0.0,50.28,4.92,5.7
1554117469565,-7.095814999999999,-6.561310000000001,-1.1522094999999999,-0.083090626,-0.03834952,-0.03834952,50.22,5.04,5.7
1554117469585,-7.21373,-6.6151789999999995,-1.1965023000000001,-0.11930962,-0.07456851,-0.06391586,50.22,5.22,5.7
1554117469604,-7.1873937,-6.739678,-1.1563994,-0.15978967,-0.111852765,-0.05006743,50.22,5.34,5.7
1554117469625,-7.0766615999999996,-6.930615400000001,-1.1408371000000002,-0.18855181,-0.15659387,-0.040480047000000005,50.22,5.46,5.76
1554117469645,-7.012616599999999,-7.105392,-1.1043254999999998,-0.21092236,-0.18322548,-0.046871635999999994,50.22,5.64,5.76
1554117469664,-7.03596,-7.215525,-1.0342950999999998,-0.221575,-0.21198763,-0.05965481,50.22,5.7,5.76
1554117469685,-7.070676299999999,-7.269394999999999,-0.8182184,-0.22583607,-0.22264028,-0.03195793,50.22,5.64,5.76
1554117469705,-7.071274799999999,-7.281964299999999,-0.65301853,-0.19920446,-0.23222765,0.0031957934000000003,50.22,5.58,5.76
1554117469725,-6.953360000000001,-7.1963716,-0.5919664000000001,-0.15020229,-0.21198763,0.040480047000000005,50.22,5.52,5.76
1554117469745,-6.9096660000000005,-7.089231,-0.533907,-0.08841695,-0.17896444,0.056459017,50.22,5.46,5.7
1554117469765,-6.930016999999999,-6.9360023,-0.5081693,-0.033023197000000004,-0.13422333,0.06391586,50.28,5.4,5.58
1554117469785,-6.885125599999999,-6.769605,-0.51834464,-0.004261058,-0.09161274,0.07989483,50.34,5.28,5.52
1554117469804,-6.860584700000001,-6.6265516,-0.5410896,0.0053263223,-0.05219796,0.07243799,50.46,5.16,5.46
1554117469824,-6.84203,-6.5307837,-0.5793968,0.002130529,-0.03089267,0.04580637,50.52,5.1,5.34
1554117469845,-6.8611835999999995,-6.4643445,-0.5189431999999999,0.011717908999999999,-0.0031957934000000003,0.018109497,50.64,4.98,5.28
1554117469865,-6.956353,-6.4416,-0.6099229,0.04261058,0.017044231,-0.013848438000000001,50.7,4.92,5.16
1554117469885,-7.0515227,-6.4242415,-0.64823014,0.06711166,0.034088463,-0.041545313,50.76,4.8,5.04
1554117469904,-7.148487599999999,-6.4757169999999995,-0.6913256999999999,0.060720075,0.03834952,-0.06498113,50.82,4.62,4.98
1554117469924,-7.129933,-6.4828997,-0.7422025,0.034088463,0.037284255,-0.07456851,50.88,4.5,4.92
1554117469945,-7.153875,-6.5301849999999995,-0.78888947,0.007456851,0.04474111,-0.07243799,50.88,4.38,4.86
1554117469965,-7.184999499999999,-6.5002575,-0.7224503999999999,-0.02876214,0.043675844000000005,-0.07456851,50.82,4.26,4.74
1554117469985,-7.2125325,-6.522404,-0.6925228,-0.058589544,0.020240024,-0.07669904,50.76,4.14,4.74
1554117470005,-7.2101383000000006,-6.5511346,-0.6015432,-0.07669904,-0.007456851,-0.06924219,50.7,4.08,4.74
1554117470025,-7.20954,-6.575675,-0.6679823,-0.08628642,-0.043675844000000005,-0.07563378,50.7,4.08,4.74
1554117470045,-7.282563000000001,-6.691195,-0.66379243,-0.10439592,-0.07350325,-0.07669904,50.64,4.08,4.8
1554117470066,-7.0808516,-6.826467500000001,-0.7236475,-0.10652645,-0.10439592,-0.03834952,50.58,4.2,4.98
1554117470085,-6.9437833,-6.927024,-0.75956047,-0.101200126,-0.10652645,-0.02876214,50.52,4.26,4.98
1554117470105,-6.9228344,-7.036558599999999,-0.717662,-0.101200126,-0.12250541,-0.07350325,50.46,4.32,5.1
1554117470125,-6.9126587,-7.0180039999999995,-0.59615624,-0.08628642,-0.13422333,-0.10759171,50.46,4.32,5.16
1554117470144,-7.023391,-7.015011,-0.54887074,-0.049002163,-0.128897,-0.1107875,50.46,4.38,5.28
1554117470164,-7.108384599999999,-6.955754300000001,-0.55485624,0.007456851,-0.12357068,-0.10652645,50.4,4.44,5.28
1554117470184,-7.153275999999999,-6.847417,-0.61112,0.029827405,-0.10226539,-0.082025364,50.4,4.44,5.22
1554117470205,-7.2568254,-6.847417,-0.6290765,0.011717908999999999,-0.043675844000000005,-0.020240024,50.4,4.5,5.16
1554117470224,-7.263409599999999,-6.801927,-0.59136784,0.004261058,-0.002130529,0.024501082,50.4,4.5,5.1
1554117470244,-7.203554,-6.782175,-0.54887074,0.02130529,0.026631612000000002,0.06711166,50.46,4.62,5.1
1554117470265,-7.023989,-6.755839,-0.6254852,0.026631612000000002,0.035153727999999995,0.11930962,50.58,4.68,5.04
1554117470285,-6.8581905,-6.627749000000001,-0.6194997,0.0031957934000000003,0.043675844000000005,0.16405073,50.64,4.68,4.92
1554117470305,-6.8091097000000005,-6.631939,-0.51595044,-0.024501082,0.05752428,0.17044231,50.76,4.74,4.86
1554117470324,-6.868964699999999,-6.6295447,-0.42796355,-0.027696876000000002,0.082025364,0.13954964,50.82,4.74,4.8
1554117470346,-6.9521630000000005,-6.7301009999999994,-0.39983168,0.017044231,0.10865697,0.07456851,50.88,4.68,4.74
1554117470366,-6.9066734,-6.6989765,-0.39205053,0.084155895,0.12250541,0.0010652645,50.94,4.62,4.68
1554117470386,-6.878541499999999,-6.6247563,-0.4950012,0.13635385,0.14594123,-0.043675844000000005,51.0,4.56,4.62
1554117470406,-7.015011,-6.6229606,-0.6721720999999999,0.1587244,0.17044231,-0.082025364,51.0,4.38,4.56
1554117470425,-7.1125746,-6.6056023,-0.7625531999999999,0.16618125,0.18748654,-0.099069595,51.0,4.2,4.5
1554117470444,-7.2484455,-6.6085954,-0.7930793,0.18855181,0.21092236,-0.098004326,50.94,4.08,4.56
1554117470465,-7.361572,-6.4858923,-0.93972415,0.20453078,0.22264028,-0.084155895,50.94,3.96,4.62
1554117470485,-7.4866686,-6.4487824,-1.0923545000000001,0.1949434,0.21944448,-0.05006743,50.88,3.9,4.68
1554117470505,-7.5962033,-6.460753400000001,-1.1504139,0.12996227,0.165116,-0.034088463,50.82,3.9,4.8
1554117470524,-7.487267500000001,-6.541558,-1.134253,0.060720075,0.082025364,-0.014913702,50.7,3.84,4.86
1554117470544,-7.232883500000001,-6.618172,-1.0755951000000001,0.033023197000000004,0.011717908999999999,0.008522116,50.64,3.9,4.98
1554117470565,-7.20535,-6.716933,-1.0779893,0.026631612000000002,-0.04580637,0.0010652645,50.52,3.96,5.04
1554117470584,-7.1939774000000005,-6.6091940000000005,-1.0923545000000001,0.0053263223,-0.101200126,-0.037284255,50.4,4.08,5.16
1554117470604,-7.2370734,-6.4625487,-0.98461545,-0.015978966,-0.128897,-0.046871635999999994,50.28,4.2,5.22
1554117470625,-7.3567834,-6.318897,-0.9223662,-0.07456851,-0.15339808,-0.017044231,50.16,4.32,5.28
1554117470644,-7.420828299999999,-6.3584013,-0.81043726,-0.14913702,-0.17257284,0.0,50.04,4.44,5.34
1554117470665,-7.354389,-6.4601545,-0.6679823,-0.21624869,-0.18322548,0.02130529,49.98,4.5,5.4
1554117470685,-7.255029700000001,-6.593631299999999,-0.5674258000000001,-0.22477080000000002,-0.17789917,0.04580637,49.98,4.56,5.4
1554117470704,-7.1431007,-6.6510925,-0.48841715,-0.19387813,-0.16298546,0.047936900000000005,49.98,4.56,5.46
1554117470725,-7.144297999999999,-6.6486982999999995,-0.50517654,-0.15659387,-0.14594123,0.040480047000000005,49.98,4.38,5.46
1554117470745,-7.259817999999999,-6.6361284,-0.4878186,-0.12783173,-0.13102753,0.02130529,50.1,4.26,5.4
1554117470767,-7.358579,-6.534375,-0.51475334,-0.10439592,-0.13422333,0.007456851,50.22,4.14,5.4
1554117470787,-7.3178773,-6.495469,-0.5859809,-0.082025364,-0.14061491,0.020240024,50.34,3.96,5.4
1554117470804,-7.2699933,-6.4882865,-0.6027403,-0.060720075,-0.13741912,0.014913702,50.46,3.78,5.34
1554117470826,-7.229292,-6.366182299999999,-0.64942724,-0.051132694000000006,-0.13528858,-0.0063915867,50.52,3.6,5.34
1554117470845,-7.3603745,-6.3446345,-0.6931214,-0.051132694000000006,-0.128897,-0.03834952,50.58,3.48,5.34
1554117470865,-7.566275999999999,-6.397307,-0.6584055,-0.049002163,-0.14807177,-0.054328485999999995,50.7,3.36,5.28
1554117470885,-7.668628,-6.479907,-0.57520694,-0.027696876000000002,-0.15765914,-0.018109497,50.76,3.36,5.28
1554117470906,-7.6847887,-6.671442999999999,-0.7457938000000001,0.011717908999999999,-0.17150758,0.020240024,50.82,3.24,5.22
1554117470925,-7.6518690000000005,-6.688801,-0.8182184,0.0053263223,-0.18855181,0.026631612000000002,50.76,3.24,5.22
1554117470945,-7.6865845,-6.771400999999999,-0.79966336,-0.026631612000000002,-0.22370553,0.04474111,50.76,3.18,5.16
1554117470964,-7.6608467000000005,-6.816890700000001,-0.59017074,-0.046871635999999994,-0.2609898,0.09161274,50.82,3.18,5.04
1554117470985,-7.747038400000001,-6.8683662,-0.3705027,-0.03089267,-0.30253512,0.13315806,50.88,3.12,4.92
1554117471005,-7.759608,-6.724714,-0.29688102,0.017044231,-0.33875409999999995,0.17896444,50.94,3.06,4.8
1554117471024,-7.7889365999999995,-6.576872,-0.39085343,0.07776430000000001,-0.34514567,0.24607609,51.0,3.06,4.62
1554117471045,-7.7578119999999995,-6.4667387000000005,-0.33758244,0.09161274,-0.34194988,0.314253,51.06,3.06,4.44
1554117471064,-7.723096400000001,-6.4619503,-0.20171149,0.06711166,-0.33768883,0.37923414,51.12,3.0,4.26
1554117471084,-7.568071400000001,-6.4188547,-0.05566519,0.047936900000000005,-0.3057309,0.43462790000000007,51.12,2.88,4.08
1554117471104,-7.444770299999999,-6.2105594,0.047884032,0.05539375,-0.2695119,0.4282363,51.18,2.7,3.84
1554117471124,-7.305308,-5.875371,0.08619126,0.04580637,-0.24927188,0.41864893,51.18,2.4,3.54
1554117471145,-7.055114,-5.368997,-0.16938977,0.00958738,-0.25033715,0.45699844,51.18,1.98,3.3
1554117471165,-7.5243773,-5.331887200000001,-0.38367084,-0.025566347000000003,-0.12570119999999999,0.41758367,51.18,1.56,3.06
1554117471185,-8.004415,-5.3366755999999995,-0.47345337,-0.12250541,-0.113983296,0.28868666,51.24,1.14,2.7
1554117471205,-8.012196000000001,-5.397728,-0.41958386,-0.25992453,-0.14913702,0.24714136,51.24,0.66,2.4
1554117471224,-7.966107400000001,-5.685032,-0.32202014,-0.33129725,-0.1768339,0.2609898,51.24,0.18,2.04
1554117471244,-7.8224554,-6.1602809999999995,-0.14425065,-0.33129725,-0.23329292,0.25885928,51.3,-0.3,1.8
1554117471266,-7.6847887,-6.3985043,-0.051475335,-0.28122982,-0.25992453,0.28549087,51.36,-0.72,1.62
1554117471284,-7.471705,-6.5966244000000005,0.16938977,-0.21837921,-0.26312032,0.31105720000000003,51.42,-1.08,1.44
1554117471304,-7.365163000000001,-6.536769400000001,0.17836803,-0.13422333,-0.22583607,0.29827404,51.6,-1.44,1.32
1554117471324,-7.4016747,-6.089652,0.16519992,-0.027696876000000002,-0.16937704,0.23861924,51.72,-1.74,1.2
1554117471345,-7.60997,-5.597045,-0.008978256,0.024501082,-0.112918034,0.19707392,51.84,-2.1,1.2
1554117471364,-7.839813,-5.3288946,-0.007781155400000001,0.0010652645,-0.06604639400000001,0.17789917,52.02,-2.4,1.14
1554117471384,-7.8787193,-5.1678843,-0.013766658999999999,-0.040480047000000005,-0.07456851,0.15446335,52.14,-2.7,1.02
1554117471404,-7.858368400000001,-5.180454,0.05925649,-0.082025364,-0.09374327,0.15659387,52.26,-2.94,0.96
1554117471425,-7.74225,-5.272032299999999,0.016759411999999998,-0.08522116,-0.13848437,0.1470065,52.38,-3.18,0.84
1554117471445,-7.6746134999999995,-5.239112,-0.053869538,-0.054328485999999995,-0.15552860000000002,0.11504856,52.44,-3.54,0.78
1554117471465,-7.77517,-5.230732,-0.12030864,-0.011717908999999999,-0.14594123,0.07989483,52.5,-3.78,0.66
1554117471485,-7.876325,-5.2301335,-0.08140286,0.026631612000000002,-0.12037488,0.07776430000000001,52.56,-4.08,0.6
1554117471504,-8.001422,-5.2528787,-0.08439561,0.07030745599999999,-0.08948222,0.07243799,52.56,-4.32,0.42
1554117471524,-8.152855,-5.317522,-0.12449849,0.08735169,-0.07776430000000001,0.05539375,52.56,-4.62,0.3
1554117471545,-8.185177000000001,-5.3737855,-0.12928689,0.07243799,-0.084155895,0.05539375,52.56,-4.86,0.12
1554117471565,-8.101977999999999,-5.365406,0.038905777,0.04474111,-0.10013486,0.039414786,52.5,-5.1,0.0
1554117471585,-8.096592,-5.361216000000001,0.12569559,-0.02876214,-0.11930962,0.012783173500000002,52.5,-5.28,-0.12
1554117471605,-8.161833999999999,-5.346252400000001,0.28790274,-0.10226539,-0.12250541,-0.0053263223,52.5,-5.4,-0.24
1554117471625,-8.213308999999999,-5.351041,0.27712885,-0.12570119999999999,-0.13954964,-0.0031957934000000003,52.5,-5.46,-0.36
1554117471644,-8.300098,-5.383961,0.35494040000000004,-0.10652645,-0.1438107,0.004261058,52.5,-5.52,-0.48
1554117471664,-8.381501,-5.4210709999999995,0.32621,-0.06498113,-0.15765914,0.027696876000000002,52.56,-5.58,-0.54
1554117471685,-8.392874,-5.4402246,0.38486794,-0.013848438000000001,-0.14274544,0.06924219,52.68,-5.64,-0.66
1554117471705,-8.267178999999999,-5.403115000000001,0.48303019999999997,0.053263225,-0.14487597,0.08735169,52.74,-5.64,-0.78
1554117471724,-8.197746,-5.318719000000001,0.5590460999999999,0.13954964,-0.11504856,0.094808534,52.86,-5.64,-0.96
1554117471744,-8.354567,-5.3211129999999995,0.48003745,0.22903186,-0.068176925,0.11504856,52.92,-5.7,-1.14
1554117471764,-8.458116,-5.236717700000001,0.39683893,0.25246766,-0.03195793,0.13528858,53.04,-5.7,-1.32
1554117471784,-8.507197,-5.060744000000001,0.3465607,0.23542345,-0.025566347000000003,0.13102753,53.1,-5.76,-1.5
1554117471805,-8.503007,-4.9667715999999995,0.3800795,0.19068234,-0.033023197000000004,0.14487597,53.16,-5.94,-1.68
1554117471825,-8.422203,-4.9506106,0.48063599999999995,0.14168017,-0.040480047000000005,0.17044231,53.16,-6.12,-1.86
1554117471845,-8.370728,-4.9512089999999995,0.46926352,0.07776430000000001,-0.051132694000000006,0.1768339,53.16,-6.24,-1.92
1554117471865,-8.2593975,-4.8680105000000005,0.5554548,0.06178534,-0.06924219,0.15020229,53.1,-6.36,-1.92
1554117471884,-8.261791,-4.812944,0.6326678000000001,0.07989483,-0.07030745599999999,0.14168017,53.1,-6.42,-1.92
1554117471904,-8.337209,-4.8506527,0.64942724,0.11504856,-0.06498113,0.13422333,53.04,-6.6,-1.92
1554117471926,-8.254609,-4.818331,0.61890113,0.14061491,-0.07563378,0.11717909,52.98,-6.9,-1.92
1554117471945,-8.152855,-4.766257,0.60214174,0.15659387,-0.06178534,0.11504856,52.86,-7.08,-2.04
1554117471965,-8.193557,-4.699219,0.6039374,0.13954964,-0.046871635999999994,0.09161274,52.8,-7.2,-2.1
1554117471984,-8.348581,-4.6752769999999995,0.52073884,0.07030745599999999,-0.036218993,0.06285059999999999,52.68,-7.32,-2.22
1554117472004,-8.406641,-4.703409,0.5734113000000001,-0.011717908999999999,-0.010652645,0.05965481,52.62,-7.5,-2.28
1554117472025,-8.347982,-4.710592,0.670975,-0.03834952,-0.0031957934000000003,0.047936900000000005,52.56,-7.68,-2.34
1554117472044,-8.351574000000001,-4.642357,0.7457938000000001,0.0063915867,0.013848438000000001,0.033023197000000004,52.5,-7.8,-2.4
1554117472064,-8.3390045,-4.540005000000001,0.6823475,0.07137272,0.03195793,0.017044231,52.44,-7.98,-2.46
1554117472085,-8.393473,-4.6375684999999995,0.49081135,0.080960095,0.041545313,0.023435817999999997,52.38,-8.04,-2.52
1554117472104,-8.328828999999999,-4.711789,0.46926352,0.03089267,0.05752428,0.025566347000000003,52.44,-8.1,-2.46
1554117472125,-8.338405999999999,-4.675876000000001,0.49200845,0.013848438000000001,0.06391586,0.0010652645,52.44,-8.16,-2.4
1554117472144,-8.391677,-4.59567,0.57520694,0.013848438000000001,0.06924219,-0.03195793,52.5,-8.16,-2.4
1554117472164,-8.405443,-4.51726,0.62249243,0.03195793,0.060720075,-0.046871635999999994,52.5,-8.16,-2.4
1554117472185,-8.446145,-4.537611,0.61530983,0.022370555,0.068176925,-0.041545313,52.5,-8.22,-2.4
1554117472205,-8.602965,-4.6297874000000006,0.5177461,-0.010652645,0.07030745599999999,-0.06285059999999999,52.5,-8.22,-2.34
1554117472225,-8.674791,-4.644751,0.60932434,-0.03089267,0.082025364,-0.05752428,52.44,-8.22,-2.34
1554117472244,-8.693346,-4.675876000000001,0.61411273,-0.007456851,0.068176925,-0.03834952,52.44,-8.22,-2.28
1554117472264,-8.607754,-4.629189,0.5967548,0.025566347000000003,0.06178534,-0.012783173500000002,52.38,-8.28,-2.22
1554117472285,-8.534730999999999,-4.6244005999999995,0.51116204,0.022370555,0.05539375,0.0,52.32,-8.28,-2.16
1554117472305,-8.507795,-4.610035400000001,0.5422866999999999,-0.0053263223,0.056459017,-0.010652645,52.26,-8.34,-2.1
1554117472325,-8.519767,-4.51307,0.5542577,-0.002130529,0.040480047000000005,-0.041545313,52.26,-8.34,-2.04
1554117472344,-8.541913000000001,-4.5819035,0.47105917,-0.040480047000000005,0.040480047000000005,-0.056459017,52.26,-8.34,-1.92
1554117472364,-8.498816999999999,-4.661511,0.55006784,-0.046871635999999994,0.033023197000000004,-0.07776430000000001,52.26,-8.34,-1.86
1554117472385,-8.475474,-4.6692919999999996,0.42078096,-0.03195793,0.033023197000000004,-0.08522116,52.26,-8.34,-1.86
1554117472405,-8.521563,-4.6938324,0.34715924,-0.029827405,0.03089267,-0.09587380000000001,52.26,-8.34,-1.8
1554117472425,-8.641273,-4.7165775000000005,0.33039984,-0.05219796,0.015978966,-0.10333065,52.26,-8.28,-1.8
1554117472445,-8.730456,-4.729147,0.40162733,-0.07243799,-0.0010652645,-0.094808534,52.26,-8.28,-1.74
1554117472465,-8.677783999999999,-4.723161,0.5057751,-0.07882957,-0.008522116,-0.06924219,52.26,-8.28,-1.74
1554117472485,-8.550891,-4.7985787,0.54887074,-0.06711166,-0.020240024,-0.04261058,52.2,-8.22,-1.74
1554117472505,-8.438364,-4.8704047,0.52732295,-0.040480047000000005,-0.015978966,-0.03834952,52.2,-8.22,-1.68
1554117472526,-8.409634,-4.8261123,0.42317516,-0.008522116,-0.018109497,-0.054328485999999995,52.2,-8.22,-1.68
1554117472544,-8.44016,-4.818331,0.38067806,-0.002130529,-0.0063915867,-0.05219796,52.2,-8.22,-1.68
1554117472564,-8.423999,-4.7979803,0.43155485,0.004261058,-0.011717908999999999,-0.06711166,52.2,-8.22,-1.68
1554117472584,-8.474277,-4.8081555,0.35494040000000004,-0.017044231,-0.0053263223,-0.06711166,52.2,-8.22,-1.74
1554117472605,-8.5538845,-4.911106,0.3645172,-0.010652645,0.007456851,-0.06285059999999999,52.2,-8.22,-1.74
1554117472625,-8.414422,-4.854842700000001,0.4309563,-0.008522116,-0.007456851,-0.053263225,52.2,-8.22,-1.74
1554117472645,-8.436568,-4.8979383,0.43754035,0.022370555,0.036218993,-0.053263225,52.2,-8.22,-1.74
1554117472664,-8.57184,-4.807557,0.50038815,0.033023197000000004,0.033023197000000004,-0.068176925,52.26,-8.22,-1.74
1554117472684,-8.547898,-4.841674299999999,0.46208093,0.023435817999999997,0.024501082,-0.024501082,52.26,-8.16,-1.74
1554117472704,-8.414422,-4.8817773,0.44891283,0.053263225,0.01917476,-0.023435817999999997,52.32,-8.16,-1.68
1554117472725,-8.425196000000001,-4.9667715999999995,0.48063599999999995,0.068176925,0.033023197000000004,-0.037284255,52.32,-8.1,-1.62
1554117472744,-8.350377,-4.9039235,0.61770403,0.1107875,0.05006743,-0.04474111,52.32,-8.1,-1.56
1554117472765,-8.407239,-4.7417164000000005,0.31543607,0.13954964,0.054328485999999995,-0.06498113,52.38,-8.04,-1.44
1554117472785,-8.429385,-4.8386817,0.30645782,0.13741912,0.06924219,-0.06285059999999999,52.44,-7.98,-1.32
1554117472805,-8.412626,-4.84347,0.21966799999999997,0.101200126,0.06711166,-0.083090626,52.44,-7.98,-1.32
1554117472825,-8.325836,-4.8614264,0.29927522,0.046871635999999994,0.06711166,-0.083090626,52.5,-7.92,-1.26
1554117472845,-8.318653999999999,-4.7614684,0.40402153,0.06285059999999999,0.083090626,-0.10865697,52.56,-7.98,-1.26
1554117472865,-8.341399000000001,-4.610035400000001,0.5907693,0.096939065,0.11504856,-0.14274544,52.56,-7.98,-1.26
1554117472884,-8.438364,-4.593276,0.44831428,0.13528858,0.10972224,-0.18216023,52.62,-8.04,-1.26
1554117472904,-8.453926,-4.6818614,0.32800564,0.12783173,0.12144015,-0.16937704,52.68,-8.04,-1.2
1554117472925,-8.285135,-4.650737,0.35314476,0.101200126,0.12570119999999999,-0.17257284,52.68,-7.98,-1.14
1554117472945,-8.222886,-4.647744,0.33039984,0.08522116,0.12144015,-0.20772657,52.68,-7.98,-1.02
1554117472967,-8.18398,-4.6680946,0.43155485,0.07137272,0.14061491,-0.23116238,52.62,-7.86,-0.84
1554117472984,-8.200739,-4.8584337,0.40641573,0.07776430000000001,0.14913702,-0.23968449999999997,52.56,-7.74,-0.72
1554117473004,-8.199542,-4.9823337,0.20231004,0.06285059999999999,0.17789917,-0.23435818,52.5,-7.62,-0.54
1554117473025,-8.223484,-5.1092260000000005,0.108936176,0.024501082,0.18748654,-0.24927188,52.5,-7.5,-0.36
1554117473045,-8.297106,-5.222951,-0.08259996,-0.010652645,0.19920446,-0.24820662,52.44,-7.32,-0.24
1554117473064,-8.407838,-5.2049947,-0.12868834,-0.023435817999999997,0.20453078,-0.23542345,52.38,-7.08,-0.06
1554117473085,-8.594585,-5.221754,-0.15741876,-0.04474111,0.16618125,-0.19707392,52.32,-6.84,0.0
1554117473104,-8.581417,-5.1810527,-0.076614454,-0.054328485999999995,0.13528858,-0.16724652,52.26,-6.54,0.06
1554117473125,-8.553286,-5.1624975,-0.01436521,-0.058589544,0.06498113,-0.16831179,52.26,-6.3,0.12
1554117473145,-8.541314,-5.240309,0.012569559,-0.053263225,0.015978966,-0.17470337,52.2,-6.06,0.18
1554117473165,-8.494628,-5.1786585,0.030526072,-0.05539375,-0.024501082,-0.17257284,52.14,-5.76,0.24
1554117473185,-8.487445,-5.2564697,-0.10295067,-0.068176925,-0.05752428,-0.14061491,52.08,-5.46,0.3
1554117473205,-8.32404,-5.253476999999999,-0.031124622,-0.07669904,-0.07456851,-0.12144015,52.08,-5.22,0.36
1554117473225,-8.061875,-5.163096,0.054468088,-0.06924219,-0.07563378,-0.128897,52.02,-5.04,0.48
1554117473245,-7.9194207,-5.017648,0.10414778,-0.07030745599999999,-0.053263225,-0.165116,51.96,-4.92,0.54
1554117473264,-7.7643960000000005,-4.8225207,0.19752164,-0.05965481,-0.036218993,-0.23755397,51.96,-4.86,0.6
1554117473284,-7.797316599999999,-4.950012,0.12988544,-0.06391586,0.0031957934000000003,-0.2908172,51.96,-4.74,0.6
1554117473305,-7.700949700000001,-4.848857,0.14963761,-0.068176925,0.043675844000000005,-0.37923414,51.9,-4.68,0.66
1554117473325,-7.6428905,-4.578911,0.23523031,-0.058589544,0.09054748,-0.5230448000000001,51.9,-4.68,0.66
1554117473344,-7.776367,-4.635773,0.16160862,-0.056459017,0.111852765,-0.6359629,51.9,-4.62,0.66
1554117473364,-7.6333137,-4.76087,0.26755205,-0.10652645,0.15978967,-0.6743124,51.84,-4.5,0.66
1554117473385,-7.4489600000000005,-4.830900700000001,0.11671733,-0.13102753,0.18002969,-0.7701861999999999,51.84,-4.32,0.66
1554117473405,-7.4723034,-5.048174400000001,0.039504327,-0.19387813,0.21518342,-0.88203895,51.84,-4.14,0.66
1554117473425,-7.6009917,-5.5282116,-0.12868834,-0.2972088,0.24501082,-0.93849796,51.84,-3.78,0.66
1554117473445,-7.627327999999999,-6.1489085999999995,-0.47644615,-0.42077947,0.24927188,-0.9139969000000001,51.78,-3.24,0.66
1554117473464,-7.4705076,-6.5259953,-0.61052144,-0.5091964,0.26525086,-0.8628642,51.78,-2.64,0.66
1554117473486,-7.4471645,-7.026982,-0.7020996,-0.55074173,0.27377295,-0.80533993,51.78,-1.98,0.84
1554117473505,-7.4184339999999995,-7.368754400000001,-0.6781576,-0.52411014,0.26631612,-0.7254451,51.78,-1.26,1.08
1554117473524,-7.3699512,-7.6249337,-0.59256494,-0.38882150000000004,0.26525086,-0.6263755,51.84,-0.48,1.32
1554117473544,-7.352593400000001,-7.7949224,-0.6596026,-0.18748654,0.24074976,-0.5230448000000001,51.84,0.36,1.56
1554117473565,-7.2484455,-7.803302,-0.75716627,0.025566347000000003,0.21944448,-0.42717105,51.9,1.44,1.92
1554117473585,-7.268198,-7.7649946,-1.0043676,0.24181503,0.16298546,-0.3153183,51.96,2.04,2.16
1554117473604,-7.2023573,-7.502231,-1.1653777,0.2609898,0.1107875,-0.22903186,51.9,2.46,2.4
1554117473624,-7.180211,-7.438186,-1.1941081,0.17257284,0.05752428,-0.17257284,51.84,2.88,2.58
1554117473644,-7.1191587,-7.301717,-1.0151415000000001,0.084155895,0.00958738,-0.13635385,51.78,3.24,2.64
1554117473664,-7.065888,-7.156867500000001,-0.88166475,0.05965481,-0.01917476,-0.10013486,51.66,3.54,2.76
1554117473684,-6.9671270000000005,-7.0467343,-0.81283146,0.06498113,-0.04261058,-0.058589544,51.6,3.78,2.88
1554117473706,-6.8384385,-7.020397999999999,-0.7846996,0.07350325,-0.051132694000000006,-0.029827405,51.48,3.9,3.0
1554117473726,-6.758233000000001,-7.0347633,-0.84455466,0.06711166,-0.053263225,-0.024501082,51.36,4.08,3.12
1554117473744,-6.769006699999999,-7.029375999999999,-0.89064306,0.04261058,-0.051132694000000006,-0.035153727999999995,51.24,4.2,3.24
1554117473767,-6.8288617,-6.9515649999999996,-0.90261406,0.017044231,-0.04261058,-0.033023197000000004,51.24,4.38,3.3
1554117473786,-6.921637,-6.892906699999999,-0.9008184000000001,0.02130529,-0.02876214,-0.017044231,51.18,4.5,3.42
1554117473805,-6.900089299999999,-6.7791820000000005,-0.8170213000000001,0.012783173500000002,-0.037284255,-0.00958738,51.18,4.62,3.48
1554117473825,-6.847417,-6.726509599999999,-0.7625531999999999,-0.0053263223,-0.047936900000000005,-0.0031957934000000003,51.12,4.68,3.42
1554117473845,-6.917447,-6.815694000000001,-0.7835025,-0.024501082,-0.037284255,0.0053263223,51.12,4.8,3.36
1554117473865,-7.020397999999999,-6.928221000000001,-0.8595184000000001,-0.046871635999999994,-0.027696876000000002,0.013848438000000001,51.12,4.92,3.3
1554117473885,-7.114370299999999,-7.080253,-0.8762778,-0.06498113,-0.025566347000000003,0.03089267,51.12,5.04,3.24
1554117473904,-7.1826053,-7.2221093,-0.87208796,-0.080960095,-0.03834952,0.06924219,51.18,5.1,3.18
1554117473924,-7.276577499999999,-7.405266,-0.9732430000000001,-0.10226539,-0.06604639400000001,0.13209279,51.18,5.22,3.12
1554117473945,-7.453747999999999,-7.619547,-0.9020155000000001,-0.11930962,-0.10439592,0.18322548,51.24,5.28,3.06
1554117473968,-7.7590094,-7.7320743,-0.89662856,-0.10013486,-0.17044231,0.24181503,51.24,5.16,3.0
1554117473984,-7.844601600000001,-7.6333137,-0.8936358,-0.03834952,-0.26418558,0.34408042,51.3,5.1,2.94
1554117474005,-7.917625,-7.379528,-0.9127894,0.06604639400000001,-0.3749731,0.46871635,51.36,4.86,2.94
1554117474025,-7.872135000000001,-7.033566,-0.7038953,0.12570119999999999,-0.47404268,0.5400891,51.36,4.56,2.94
1554117474044,-7.7410526,-6.602011,-0.47165772,0.19068234,-0.5571333,0.5901565,51.42,4.2,2.94
1554117474065,-7.393294999999999,-6.101623,-0.15502456,0.24607609,-0.6061354999999999,0.60080916,51.42,3.84,2.88
1554117474085,-7.0275807,-5.544372599999999,0.019153614,0.29294774,-0.6242449999999999,0.5539375,51.42,3.42,2.82
1554117474105,-6.7630215,-5.0583496,0.15622166,0.32810146,-0.5933523,0.44954160000000004,51.48,3.0,2.7
1554117474124,-6.6307415999999995,-4.7381253,0.20590134,0.33449304,-0.5422196,0.30679616,51.6,2.64,2.58
1554117474144,-6.5188127,-4.629189,0.2172738,0.28016454,-0.45593318,0.16405073,51.66,2.28,2.34
1554117474164,-6.379350700000001,-4.701015,0.17597382,0.17896444,-0.36645097,0.014913702,51.78,1.8,1.92
1554117474184,-6.3889275,-4.936245400000001,-0.06584055,0.010652645,-0.27377295,-0.14061491,51.96,1.44,1.44
1554117474205,-6.51582,-5.285799,-0.10175357,-0.21198763,-0.16618125,-0.29188246,52.08,1.14,0.96
1554117474224,-6.775591,-5.7299232,0.037110128,-0.40586576,-0.06285059999999999,-0.386691,52.26,0.84,0.42
1554117474244,-6.9383965,-6.155493,0.08080431,-0.47830373,0.00958738,-0.39095205,52.38,0.54,-0.12
1554117474264,-6.9545574000000006,-6.562506699999999,0.10055647,-0.47936899999999993,0.09054748,-0.33981937,52.5,0.3,-0.6
1554117474285,-7.0946183000000005,-6.922235499999999,0.05327099,-0.45593318,0.15978967,-0.3291667,52.56,0.12,-1.08
1554117474305,-7.263409599999999,-7.031172,0.15801731,-0.42077947,0.20772657,-0.33981937,52.68,0.06,-1.38
1554117474325,-7.5333557,-6.977900999999999,0.3357868,-0.33981937,0.23648871,-0.32277513,52.68,0.12,-1.44
1554117474345,-7.726687400000001,-6.897695,0.25917232,-0.23116238,0.22796659,-0.26205507,52.68,0.3,-1.44
1554117474365,-7.7919292,-6.773196700000001,0.21068975,-0.12570119999999999,0.221575,-0.20879184,52.62,0.48,-1.26
1554117474385,-7.807492,-6.724714,0.006584055,-0.06391586,0.18961707,-0.16192019,52.62,0.78,-1.08
1554117474404,-7.627927000000001,-6.669049,-0.12629414,-0.056459017,0.15552860000000002,-0.1107875,52.56,1.02,-0.9
1554117474424,-7.5082164,-6.712144400000001,-0.22685061,-0.068176925,0.128897,-0.07243799,52.56,1.32,-0.72
1554117474444,-7.359775999999999,-6.654683599999999,-0.23283611,-0.058589544,0.096939065,-0.06498113,52.5,1.68,-0.42
1554117474465,-7.3220673,-6.6211649999999995,-0.36990416,-0.017044231,0.07989483,-0.06711166,52.44,1.8,-0.24
1554117474485,-7.2981253,-6.6367273,-0.39863458,0.007456851,0.06391586,-0.083090626,52.44,1.92,-0.12
1554117474505,-7.2370734,-6.587646,-0.51355624,0.008522116,0.06391586,-0.082025364,52.44,1.98,-0.06
1554117474525,-7.2406645,-6.579865,-0.56922144,-0.008522116,0.06498113,-0.10013486,52.44,2.04,0.0
1554117474545,-7.252037,-6.655881,-0.60094464,-0.04474111,0.056459017,-0.09267801,52.44,2.04,0.06
1554117474565,-7.217321000000001,-6.7301009999999994,-0.6123171,-0.06178534,0.05006743,-0.07350325,52.44,2.04,0.12
1554117474585,-7.203554,-6.8342485,-0.6332663000000001,-0.05965481,0.04261058,-0.05006743,52.5,2.04,0.18
1554117474604,-7.165846000000001,-6.911461999999999,-0.5883751,-0.041545313,0.03195793,-0.05539375,52.5,2.04,0.18
1554117474625,-7.114969,-6.893505,-0.545878,-0.034088463,0.015978966,-0.05965481,52.5,2.04,0.18
1554117474645,-7.140108000000001,-6.953360000000001,-0.51834464,-0.022370555,0.012783173500000002,-0.053263225,52.56,2.04,0.18
1554117474665,-7.0587053,-6.9485717000000005,-0.5117606,-0.027696876000000002,-0.008522116,-0.02130529,52.56,1.98,0.24
1554117474685,-7.015609700000001,-6.9970546,-0.55605334,-0.015978966,-0.007456851,-0.0063915867,52.5,1.98,0.24
1554117474705,-7.013814,-6.9437833,-0.44951138,0.0063915867,-0.007456851,-0.011717908999999999,52.5,1.98,0.3
1554117474725,-6.9880759999999995,-6.801927,-0.39504328,0.03195793,-0.002130529,-0.004261058,52.5,1.98,0.36
1554117474745,-6.9743094,-6.643910000000001,-0.34476504,0.04474111,0.014913702,0.011717908999999999,52.44,1.98,0.42
1554117474765,-6.9880759999999995,-6.5792660000000005,-0.37110126,0.056459017,0.034088463,0.01917476,52.44,1.98,0.42
1554117474784,-7.019201,-6.5241995,-0.3298013,0.04474111,0.054328485999999995,0.020240024,52.38,1.98,0.48
1554117474804,-7.0102224,-6.527791000000001,-0.29568392,0.029827405,0.06178534,0.0,52.38,1.92,0.54
1554117474825,-7.137714,-6.4667387000000005,-0.24959552,0.018109497,0.07776430000000001,-0.049002163,52.38,1.92,0.54
1554117474845,-7.2484455,-6.3302693,-0.22325931,0.0063915867,0.084155895,-0.07137272,52.32,1.86,0.54
1554117474865,-7.322665700000001,-6.241683999999999,-0.20171149,0.0031957934000000003,0.084155895,-0.058589544,52.26,1.86,0.54
1554117474884,-7.3460092999999995,-6.2380924,-0.31184477,-0.004261058,0.08628642,-0.041545313,52.26,1.92,0.48
1554117474905,-7.3807254,-6.203975,-0.44532153,-0.0063915867,0.08948222,-0.054328485999999995,52.26,1.92,0.42
1554117474925,-7.5626845000000005,-6.256647599999999,-0.60932434,-0.018109497,0.099069595,-0.080960095,52.26,1.98,0.42
1554117474945,-7.6488757,-6.333860400000001,-0.61411273,-0.043675844000000005,0.09267801,-0.07989483,52.26,2.04,0.48
1554117474965,-7.4986396,-6.4583592,-0.7009025,-0.056459017,0.07456851,-0.05006743,52.26,2.1,0.54
1554117474985,-7.368156,-6.603807000000001,-0.7152678000000001,-0.058589544,0.05752428,-0.041545313,52.26,2.16,0.54
1554117475005,-7.338228,-6.793547,-0.80325466,-0.053263225,0.037284255,-0.05539375,52.32,2.16,0.6
1554117475025,-7.2909426999999996,-6.8522053,-0.7858967,-0.049002163,0.022370555,-0.05219796,52.32,2.22,0.66
1554117475045,-7.3100963000000005,-6.8587894,-0.7691373,-0.027696876000000002,0.004261058,-0.04474111,52.38,2.22,0.78
1554117475066,-7.344812400000001,-6.889914,-0.8960299999999999,-0.011717908999999999,-0.01917476,-0.017044231,52.38,2.16,0.84
1554117475086,-7.2167225,-6.913856,-0.90141696,0.0063915867,-0.056459017,-0.002130529,52.38,2.16,0.96
1554117475106,-7.0263834,-6.8647747,-0.8002619000000001,0.017044231,-0.08841695,0.002130529,52.32,2.16,1.02
1554117475125,-6.913856,-6.747458999999999,-0.6266823,0.034088463,-0.10439592,0.0031957934000000003,52.32,2.16,1.14
1554117475145,-6.9144545,-6.593631299999999,-0.5991489999999999,0.06285059999999999,-0.10226539,-0.0031957934000000003,52.32,2.22,1.2
1554117475165,-7.03177,-6.457162,-0.57041854,0.07243799,-0.09161274,-0.029827405,52.32,2.22,1.26
1554117475184,-7.1448965,-6.4002995,-0.55605334,0.043675844000000005,-0.068176925,-0.04261058,52.32,2.28,1.38
1554117475204,-7.313089,-6.4912790000000005,-0.58298814,-0.004261058,-0.04580637,-0.051132694000000006,52.32,2.28,1.38
1554117475224,-7.4028716,-6.6079965,-0.5165489999999999,-0.05965481,-0.039414786,-0.04474111,52.32,2.34,1.44
1554117475244,-7.3430165999999994,-6.751050500000001,-0.533907,-0.07243799,-0.040480047000000005,-0.018109497,52.32,2.34,1.38
1554117475265,-7.293336999999999,-6.7989345000000005,-0.42018240000000007,-0.036218993,-0.03834952,-0.0010652645,52.38,2.28,1.38
1554117475285,-7.2640080000000005,-6.7516490000000005,-0.49081135,0.020240024,-0.06178534,0.014913702,52.44,2.28,1.32
1554117475304,-7.2807674,-6.6265516,-0.55844754,0.05219796,-0.06604639400000001,0.01917476,52.44,2.22,1.26
1554117475325,-7.3507977,-6.508039,-0.6135142,0.07456851,-0.08841695,0.018109497,52.5,2.16,1.26
1554117475345,-7.3609734,-6.408081,-0.66139823,0.040480047000000005,-0.10972224,0.02876214,52.56,2.16,1.2
1554117475365,-7.430405,-6.4020953,-0.7009025,-0.020240024,-0.13315806,0.03834952,52.56,2.04,1.2
1554117475385,-7.595605,-6.543353,-0.6775591,-0.068176925,-0.14487597,0.04474111,52.62,1.98,1.2
1554117475404,-7.905653999999999,-6.6600703999999995,-0.61112,-0.08841695,-0.16085494,0.04580637,52.62,1.86,1.14
1554117475424,-8.374918,-6.7743936,-0.54168814,-0.06924219,-0.21092236,0.06924219,52.56,1.8,1.08
1554117475444,-8.959103,-6.8360443,-0.37229836,-0.026631612000000002,-0.2972088,0.11824436,52.5,1.68,0.96
1554117475464,-9.154829,-6.749853,-0.28311434,0.014913702,-0.41545314,0.25566345,52.5,1.5,0.84
1554117475486,-8.867524000000001,-6.669647,-0.36212300000000003,0.05539375,-0.5219796,0.47510794,52.5,1.38,0.72
1554117475506,-8.375516000000001,-6.7636199999999995,-0.45370123,0.06391586,-0.588026,0.608266,52.5,1.26,0.54
1554117475525,-7.9876556,-6.7468604999999995,-0.39145198,0.03089267,-0.6530071,0.69135666,52.5,1.08,0.18
1554117475545,-7.641692999999999,-6.452972,0.0041898529999999995,-0.017044231,-0.680704,0.6945524000000001,52.56,0.96,-0.18
1554117475565,-7.511808,-6.0920463,0.29388827,0.0010652645,-0.664725,0.68176925,52.56,0.78,-0.48
1554117475585,-7.4082584,-5.6586957,0.3184288,0.06285059999999999,-0.6135923000000001,0.6870956,52.62,0.54,-0.84
1554117475604,-7.2628107,-5.2863975,0.29688102,0.10759171,-0.5422196,0.67005134,52.62,0.24,-1.2
1554117475624,-7.040748599999999,-5.053561,0.18076223,0.113983296,-0.47936899999999993,0.61572284,52.68,-0.18,-1.56
1554117475645,-6.8330517,-4.871601999999999,0.25558102,0.06391586,-0.39734364,0.5486112,52.68,-0.78,-1.98
1554117475665,-6.6486982999999995,-4.8907557,0.25498247,-0.02876214,-0.3323625,0.45806372,52.68,-1.44,-2.4
1554117475685,-6.662464599999999,-4.936844000000001,0.25258827,-0.12996227,-0.22477080000000002,0.28868666,52.68,-2.16,-2.7
1554117475704,-6.707954400000001,-4.903325,0.23343466,-0.16405073,-0.15978967,0.1438107,52.74,-2.82,-3.0
1554117475724,-6.7301009999999994,-4.9254713,0.28491,-0.16298546,-0.10759171,0.07030745599999999,52.8,-3.54,-3.36
1554117475745,-6.7570357,-5.121197,0.30825347,-0.17150758,-0.023435817999999997,-0.037284255,52.8,-4.14,-3.66
1554117475765,-6.807912299999999,-5.408501599999999,0.25438392,-0.22583607,0.040480047000000005,-0.14168017,52.86,-4.74,-3.96
1554117475785,-7.0449386,-5.5222263,0.30645782,-0.26525086,0.10972224,-0.26525086,52.92,-5.16,-4.26
1554117475805,-7.457339999999999,-5.5868697,0.47465047,-0.27377295,0.18322548,-0.35153726,52.98,-5.34,-4.5
1554117475829,-7.668628,-5.561132,0.56802434,-0.25672874,0.20453078,-0.37071204,53.04,-5.52,-4.68
1554117475844,-7.9852614,-5.849035,0.48303019999999997,-0.22583607,0.23116238,-0.31105720000000003,53.1,-5.7,-4.8
1554117475865,-8.1163435,-6.0280013,0.54049104,-0.20985709,0.23648871,-0.27803403,53.16,-5.76,-4.86
1554117475886,-8.298303,-6.0902505,0.48542440000000003,-0.15978967,0.21624869,-0.2695119,53.22,-5.88,-4.92
1554117475904,-8.556278,-6.114192500000001,0.47225627,-0.101200126,0.20240025,-0.2428803,53.28,-5.88,-4.92
1554117475926,-8.678981,-6.2099605,0.5093664000000001,-0.047936900000000005,0.15126756,-0.17470337,53.34,-5.7,-4.92
1554117475946,-8.562861999999999,-6.199784999999999,0.5177461,0.002130529,0.113983296,-0.07243799,53.34,-5.58,-4.86
1554117475966,-8.441357,-6.1519012,0.34476504,0.051132694000000006,0.084155895,0.004261058,53.4,-5.46,-4.86
1554117475985,-8.348581,-5.960963700000001,0.36032736,0.083090626,0.056459017,0.046871635999999994,53.4,-5.34,-4.86
1554117476005,-8.2593975,-5.7682304,0.2645593,0.10865697,0.041545313,0.084155895,53.4,-5.16,-4.8
1554117476025,-8.182783,-5.5641245999999995,0.25438392,0.13848437,0.02876214,0.099069595,53.4,-5.04,-4.74
1554117476045,-8.091205,-5.4330419999999995,0.11312603,0.14274544,0.017044231,0.10333065,53.4,-4.86,-4.68
1554117476065,-8.021174,-5.343858200000001,-0.05686229,0.12996227,0.0053263223,0.101200126,53.4,-4.8,-4.5
1554117476085,-8.046313,-5.3971290000000005,-0.060453594000000006,0.08841695,0.011717908999999999,0.084155895,53.34,-4.86,-4.32
1554117476105,-8.077438,-5.407903,-0.16579847,0.046871635999999994,0.017044231,0.05965481,53.34,-4.86,-4.14
1554117476124,-8.098986,-5.429451,-0.091578215,0.014913702,0.014913702,0.06178534,53.34,-4.86,-3.96
1554117476144,-8.024766,-5.527613,-0.12629414,-0.0063915867,0.00958738,0.098004326,53.28,-4.86,-3.78
1554117476164,-7.9301944,-5.7065797,-0.06584055,-0.02130529,0.0,0.10439592,53.28,-4.86,-3.66
1554117476185,-8.071452,-5.7682304,-0.076015905,-0.035153727999999995,-0.018109497,0.07776430000000001,53.28,-4.86,-3.42
1554117476204,-8.111555000000001,-5.755661,0.0017956513,-0.035153727999999995,-0.04474111,0.08522116,53.22,-4.8,-3.36
1554117476224,-8.164826,-5.78918,0.022744916,-0.01917476,-0.06604639400000001,0.11504856,53.22,-4.86,-3.36
1554117476244,-8.357559,-5.7442884,0.017357962,-0.004261058,-0.07030745599999999,0.13954964,53.22,-4.92,-3.3
1554117476264,-8.379706,-5.511451999999999,0.10354923,-0.004261058,-0.098004326,0.16724652,53.28,-5.04,-3.3
1554117476286,-8.364142999999999,-5.4767364999999995,0.15382746,-0.0031957934000000003,-0.101200126,0.23755397,53.28,-5.22,-3.36
1554117476306,-8.243236999999999,-5.5030727,0.25857377,0.033023197000000004,-0.11930962,0.2908172,53.28,-5.34,-3.42
1554117476326,-8.056489,-5.394735,0.31184477,0.09267801,-0.12144015,0.3206446,53.28,-5.52,-3.54
1554117476346,-7.9625163,-5.317522,0.3333926,0.12357068,-0.11930962,0.32490566,53.28,-5.76,-3.66
1554117476365,-8.040328,-5.1822495,0.40342298,0.15659387,-0.10333065,0.29188246,53.28,-6.0,-3.78
1554117476385,-8.126519,-5.029619,0.38845924,0.18855181,-0.096939065,0.28016454,53.22,-6.18,-3.9
1554117476405,-8.196549000000001,-4.936245400000001,0.4818331,0.23542345,-0.07776430000000001,0.28122982,53.22,-6.36,-4.02
1554117476425,-8.22947,-4.896142500000001,0.4758476,0.30360037,-0.049002163,0.27803403,53.16,-6.54,-4.08
1554117476444,-8.317456,-4.853047,0.38965634,0.35473305,-0.025566347000000003,0.26844665,53.16,-6.72,-4.14
1554117476465,-8.380903,-4.8135424,0.33638534,0.3568636,-0.007456851,0.25885928,53.1,-7.08,-4.2
1554117476485,-8.392275999999999,-4.7381253,0.40222588,0.34621096,-0.0063915867,0.24820662,53.1,-7.5,-4.26
1554117476505,-8.370728,-4.618415,0.41599256,0.33555830000000003,-0.004261058,0.24074976,53.1,-7.92,-4.26
1554117476525,-8.424597,-4.573524,0.39444473,0.2972088,-0.0010652645,0.21624869,53.1,-8.28,-4.26
1554117476545,-8.48984,-4.4759603,0.48123455,0.23435818,0.004261058,0.19174760000000002,53.04,-8.64,-4.26
1554117476564,-8.522758999999999,-4.344279,0.5189431999999999,0.18748654,0.011717908999999999,0.17576863,52.98,-9.0,-4.2
1554117476585,-8.575432000000001,-4.2700586,0.45549688,0.13954964,0.011717908999999999,0.16085494,52.98,-9.36,-4.2
1554117476605,-8.615535000000001,-4.305373,0.39683893,0.07243799,0.015978966,0.14487597,52.92,-9.6,-4.14
1554117476625,-8.614936,-4.228160400000001,0.37349546,0.0063915867,0.004261058,0.12144015,52.86,-9.72,-4.14
1554117476645,-8.57184,-4.2389339999999995,0.47524905,-0.043675844000000005,0.0,0.10865697,52.8,-9.84,-4.08
1554117476665,-8.5700445,-4.258686,0.6003460999999999,-0.05219796,-0.0031957934000000003,0.07776430000000001,52.68,-9.96,-4.02
1554117476685,-8.652645,-4.2760444,0.6218939,-0.036218993,0.012783173500000002,0.05752428,52.62,-10.14,-3.96
1554117476705,-8.713697,-4.283227,0.5554548,-0.012783173500000002,0.023435817999999997,0.035153727999999995,52.56,-10.32,-4.02
1554117476725,-8.674791,-4.152743,0.65780693,0.0,0.02876214,0.010652645,52.5,-10.5,-4.02
1554117476745,-8.642469,-4.1437645,0.6895300999999999,-0.014913702,0.03089267,0.004261058,52.38,-10.68,-4.02
1554117476766,-8.670003,-4.320337,0.5919664000000001,-0.034088463,0.029827405,0.0010652645,52.38,-10.92,-4.08
1554117476784,-8.677783999999999,-4.4244847,0.49200845,-0.051132694000000006,0.033023197000000004,0.008522116,52.32,-11.16,-4.08
1554117476806,-8.626907000000001,-4.4741645,0.56323594,-0.05219796,0.026631612000000002,0.004261058,52.26,-11.34,-4.14
1554117476826,-8.599973,-4.5058875,0.39444473,-0.039414786,0.004261058,0.013848438000000001,52.2,-11.4,-4.14
1554117476846,-8.377312,-4.525041000000001,0.81522566,-0.020240024,0.039414786,0.011717908999999999,52.2,-11.52,-4.14
1554117476865,-8.330625,-4.279635400000001,0.6919243,0.084155895,0.046871635999999994,-0.046871635999999994,52.14,-11.52,-4.14
1554117476884,-8.43178,-4.034828,0.59735334,0.11717909,0.06711166,-0.10546118,52.14,-11.58,-4.14
1554117476906,-8.591593,-3.9731777000000004,0.40102878,0.06178534,0.09161274,-0.11717909,52.14,-11.58,-4.08
1554117476925,-8.595782,-4.0994720000000004,0.3405752,-0.04261058,0.07563378,-0.09161274,52.14,-11.58,-4.08
1554117476944,-8.552686999999999,-4.43466,0.3824737,-0.10865697,0.07989483,-0.053263225,52.14,-11.52,-4.02
1554117476964,-8.532935,-4.661511,0.54527944,-0.09374327,0.08735169,-0.06711166,52.2,-11.52,-4.02
1554117476984,-8.6813755,-4.590283400000001,0.5518635000000001,-0.02876214,0.10865697,-0.10972224,52.2,-11.46,-4.02
1554117477005,-8.723872,-4.259285,0.7404069000000001,0.041545313,0.13848437,-0.13528858,52.2,-11.46,-4.02
1554117477025,-8.810661999999999,-4.301782,0.60094464,0.053263225,0.14594123,-0.11824436,52.2,-11.46,-3.96
1554117477044,-8.655039,-4.433463,0.46507367,0.00958738,0.13741912,-0.08735169,52.26,-11.46,-3.9
1554117477064,-8.734048,-4.619612,0.19512744,-0.0010652645,0.15978967,-0.101200126,52.26,-11.46,-3.84
1554117477087,-8.719683,-4.6800656,0.25558102,0.017044231,0.16085494,-0.12463594,52.32,-11.46,-3.72
1554117477105,-8.6813755,-4.663905000000001,0.22565351,0.03834952,0.15126756,-0.11611383,52.32,-11.46,-3.66
1554117477125,-8.642469,-4.684255599999999,0.29269117,0.05965481,0.1470065,-0.15020229,52.38,-11.46,-3.48
1554117477144,-8.620922,-4.5118732,0.24959552,0.10226539,0.12996227,-0.2130529,52.38,-11.4,-3.3
1554117477164,-8.437764999999999,-4.1958385,0.31184477,0.14061491,0.12996227,-0.26844665,52.38,-11.4,-3.12
1554117477187,-8.257602,-3.8989575,0.40342298,0.17150758,0.12357068,-0.33875409999999995,52.38,-11.34,-2.94
1554117477206,-8.211513499999999,-3.9749733999999997,0.36631286,0.17257284,0.11611383,-0.38562572,52.32,-11.16,-2.76
1554117477226,-7.9343843,-4.3119574,0.4285621,0.14061491,0.12037488,-0.39308259999999995,52.32,-10.92,-2.58
1554117477245,-7.745242599999999,-4.694431,0.30825347,0.15552860000000002,0.14274544,-0.45593318,52.26,-10.62,-2.4
1554117477265,-7.691373,-4.894945,0.18315643,0.165116,0.16724652,-0.5550028,52.26,-10.32,-2.16
1554117477285,-7.721300599999999,-5.0541596,0.21308395,0.1587244,0.18855181,-0.60293967,52.2,-10.02,-1.98
1554117477305,-7.635708,-5.179257,0.24001873,0.15978967,0.20453078,-0.61572284,52.2,-9.66,-1.86
1554117477325,-7.6764092,-5.443816,0.19752164,0.17470337,0.23009712,-0.6498113,52.2,-9.3,-1.74
1554117477344,-7.7518270000000005,-5.6365495,0.29807812,0.15765914,0.25353295,-0.69668293,52.26,-8.76,-1.62
1554117477364,-7.7218990000000005,-5.7879825,0.19931729,0.17576863,0.25353295,-0.7126619000000001,52.32,-8.28,-1.5
1554117477385,-7.706935400000001,-5.9118824,0.16639702,0.22903186,0.29188246,-0.716923,52.38,-7.62,-1.38
1554117477405,-7.7787614000000005,-6.030994000000001,-0.11372458,0.24714136,0.30146983,-0.74781567,52.5,-7.02,-1.32
1554117477424,-7.9786773,-6.1028199999999995,-0.3196259,0.24607609,0.33662358,-0.7552725,52.56,-6.36,-1.32
1554117477444,-8.200141,-6.089652,-0.42377370000000003,0.23755397,0.36432046,-0.7350325,52.62,-5.64,-1.26
1554117477465,-8.391078,-6.187814,-0.5614403,0.19920446,0.36964676,-0.660464,52.68,-4.98,-1.08
1554117477485,-8.502409,-6.2781954,-0.7015011,0.14061491,0.3685815,-0.57417756,52.62,-4.14,-0.72
1554117477504,-8.561067,-6.295553,-0.79726917,0.07350325,0.3536678,-0.4878911,52.62,-3.24,-0.42
1554117477525,-8.583812,-6.2225304,-0.8170213000000001,0.014913702,0.2908172,-0.39095205,52.5,-2.4,-0.12
1554117477545,-8.545505,-6.238691,-0.82480246,-0.039414786,0.22477080000000002,-0.25353295,52.44,-1.8,0.24
1554117477565,-8.400655,-6.3350577,-0.6859388000000001,-0.058589544,0.1107875,-0.15020229,52.38,-1.2,0.54
1554117477585,-8.133701,-6.345233,-0.6931214,-0.07563378,-0.01917476,-0.07989483,52.26,-0.66,0.9
1554117477605,-7.825448,-6.314707,-0.52073884,-0.083090626,-0.13209279,-0.04261058,52.2,-0.18,1.2
1554117477626,-7.6482773,-6.187216,-0.4878186,-0.05219796,-0.21624869,-0.046871635999999994,52.14,0.3,1.38
1554117477644,-7.589619,-6.045958000000001,-0.4818331,-0.03195793,-0.26205507,-0.06711166,52.08,0.6,1.44
1554117477666,-7.5932107,-5.9106855000000005,-0.47046062,-0.054328485999999995,-0.2908172,-0.07989483,52.08,0.66,1.44
1554117477685,-7.5333557,-5.9442043,-0.4429273,-0.11717909,-0.2876214,-0.07137272,52.02,0.72,1.44
1554117477705,-7.443573,-6.048950700000001,-0.4285621,-0.18216023,-0.2790993,-0.06285059999999999,52.02,0.78,1.5
1554117477725,-7.3190745999999995,-6.182427400000001,-0.3657143,-0.22903186,-0.25140239999999997,-0.043675844000000005,51.96,0.84,1.5
1554117477745,-7.284957400000001,-6.318897,-0.27174190000000004,-0.24820662,-0.21518342,-0.053263225,51.96,0.9,1.5
1554117477765,-7.301117999999999,-6.3488245,-0.12509704,-0.25992453,-0.17044231,-0.06604639400000001,51.96,0.9,1.44
1554117477785,-7.3166804,-6.3230867,-0.008978256,-0.24501082,-0.15233281,-0.07776430000000001,52.02,0.9,1.38
1554117477805,-7.330447,-6.311714,0.08020575,-0.21731395,-0.12783173,-0.06604639400000001,52.08,0.84,1.32
1554117477825,-7.3657618000000005,-6.3512187,0.0676362,-0.17576863,-0.101200126,-0.06391586,52.32,0.84,1.2
1554117477845,-7.338826700000001,-6.329671,0.02873042,-0.14274544,-0.07563378,-0.058589544,52.38,0.84,1.14
1554117477864,-7.338826700000001,-6.2632318,-0.0664391,-0.11611383,-0.04580637,-0.053263225,52.56,0.84,1.02
1554117477884,-7.4310035999999995,-6.2871737,-0.19393034,-0.10013486,-0.004261058,-0.047936900000000005,52.68,0.84,0.96
1554117477905,-7.4567413,-6.2763995999999995,-0.25498247,-0.099069595,0.024501082,-0.05219796,52.86,0.78,0.84
1554117477925,-7.489063000000001,-6.3464303,-0.21667525,-0.08948222,0.06178534,-0.051132694000000006,52.92,0.78,0.78
1554117477945,-7.500435400000001,-6.4224463,-0.2908955,-0.08735169,0.06604639400000001,-0.05539375,52.98,0.78,0.72
1554117477965,-7.4310035999999995,-6.4164605,-0.29149407,-0.096939065,0.07030745599999999,-0.04261058,53.04,0.78,0.72
1554117477985,-7.49026,-6.477513,-0.27952304,-0.08841695,0.06711166,-0.051132694000000006,52.98,0.78,0.72
1554117478004,-7.5231805,-6.4248405,-0.34237084,-0.082025364,0.05539375,-0.051132694000000006,52.92,0.72,0.72
1554117478024,-7.523778999999999,-6.349423000000001,-0.29628247,-0.054328485999999995,0.033023197000000004,-0.043675844000000005,52.92,0.72,0.72
1554117478045,-7.559692,-6.272808599999999,-0.33039984,-0.025566347000000003,0.024501082,-0.023435817999999997,52.86,0.72,0.72
1554117478065,-7.554305,-6.229114,-0.40821138,-0.02130529,0.0053263223,-0.022370555,52.86,0.72,0.72
1554117478084,-7.510012,-6.208165,-0.47345337,-0.04474111,0.004261058,-0.007456851,52.86,0.72,0.72
1554117478104,-7.4603324,-6.1716533,-0.47165772,-0.07776430000000001,0.0031957934000000003,0.00958738,52.8,0.72,0.72
1554117478126,-7.413047,-6.193201,-0.41000703,-0.101200126,0.011717908999999999,0.011717908999999999,52.8,0.72,0.66
1554117478145,-7.4405804,-6.2099605,-0.36152446,-0.111852765,0.014913702,-0.0031957934000000003,52.8,0.66,0.66
1554117478165,-7.423821,-6.1644707,-0.30705637,-0.1107875,0.012783173500000002,-0.011717908999999999,52.8,0.66,0.6
1554117478185,-7.4124484,-6.2249246,-0.24779987,-0.10759171,0.02130529,-0.0010652645,52.74,0.66,0.6
1554117478204,-7.399878999999999,-6.1818290000000005,-0.20410569,-0.10439592,0.025566347000000003,-0.0031957934000000003,52.68,0.6,0.6
1554117478224,-7.4333979999999995,-6.0860605,-0.2741361,-0.10439592,0.027696876000000002,-0.010652645,52.62,0.54,0.54
1554117478245,-7.513005000000001,-5.9202623,-0.30406362,-0.10333065,0.039414786,-0.025566347000000003,52.56,0.48,0.48
1554117478264,-7.65965,-5.840056400000001,-0.44352585,-0.12783173,0.056459017,-0.014913702,52.56,0.42,0.48
1554117478284,-7.763199,-5.8185085999999995,-0.5117606,-0.16192019,0.07882957,-0.0053263223,52.5,0.42,0.48
1554117478305,-7.844601600000001,-5.9807158,-0.61650693,-0.19068234,0.080960095,-0.002130529,52.44,0.36,0.48
1554117478325,-7.8050976,-6.173449,-0.6667852,-0.20559604,0.07882957,0.0063915867,52.38,0.3,0.54
1554117478344,-7.631517999999999,-6.353613,-0.66498953,-0.21624869,0.06391586,0.0053263223,52.38,0.24,0.6
1554117478364,-7.435792,-6.4619503,-0.6901286,-0.2130529,0.05006743,-0.004261058,52.38,0.18,0.72
1554117478384,-7.3214690000000004,-6.5816603,-0.700304,-0.18748654,0.03089267,-0.01917476,52.32,0.12,0.78
1554117478405,-7.298723700000001,-6.711546,-0.7589619000000001,-0.14594123,0.026631612000000002,-0.027696876000000002,52.32,0.0,0.9
1554117478425,-7.290344,-6.6989765,-0.7685388000000001,-0.11717909,0.014913702,-0.049002163,52.32,-0.12,0.96
1554117478445,-7.250839699999999,-6.607398,-0.7248446,-0.10226539,-0.002130529,-0.07030745599999999,52.32,-0.24,1.08
1554117478465,-7.278373200000001,-6.5619081999999995,-0.74519527,-0.08522116,-0.025566347000000003,-0.07243799,52.32,-0.36,1.14
1554117478484,-7.2340803,-6.5984197,-0.65780693,-0.06711166,-0.029827405,-0.05539375,52.32,-0.48,1.2
1554117478504,-7.1113777,-6.5379663,-0.65301853,-0.034088463,-0.025566347000000003,-0.053263225,52.38,-0.54,1.2
1554117478524,-7.1454949999999995,-6.500856400000001,-0.7062895,-0.0010652645,-0.007456851,-0.07563378,52.38,-0.66,1.14
1554117478544,-7.2322845000000004,-6.3967085,-0.7308300999999999,0.010652645,0.025566347000000003,-0.08735169,52.38,-0.72,1.14
1554117478564,-7.3083005000000005,-6.4709287,-0.7673416999999999,0.017044231,0.041545313,-0.09161274,52.38,-0.72,1.08
1554117478584,-7.2927384,-6.506243,-0.7505821999999999,0.026631612000000002,0.06178534,-0.10972224,52.38,-0.72,1.08
1554117478605,-7.363367599999999,-6.555324000000001,-0.78529817,0.054328485999999995,0.07669904,-0.13209279,52.38,-0.72,1.02
1554117478625,-7.457339999999999,-6.531382,-0.82480246,0.07989483,0.08948222,-0.13209279,52.38,-0.72,1.02
1554117478645,-7.522581599999999,-6.5655,-0.8846575000000001,0.08841695,0.08735169,-0.10759171,52.38,-0.72,1.02
1554117478665,-7.5255747,-6.605003999999999,-0.8882488000000002,0.08841695,0.07776430000000001,-0.07669904,52.38,-0.66,1.08
1554117478685,-7.524976,-6.6307415999999995,-0.87089086,0.08628642,0.05219796,-0.046871635999999994,52.44,-0.6,1.14
1554117478705,-7.5064210000000005,-6.5684924,-0.79487497,0.099069595,0.033023197000000004,-0.034088463,52.44,-0.6,1.14
1554117478724,-7.468712299999999,-6.517017,-0.7457938000000001,0.12250541,0.00958738,-0.015978966,52.5,-0.54,1.26
1554117478744,-7.386112,-6.4326215,-0.79008657,0.15659387,-0.002130529,-0.00958738,52.5,-0.42,1.32
1554117478765,-7.347805,-6.3631897,-0.82360536,0.165116,-0.0031957934000000003,-0.018109497,52.44,-0.36,1.38
1554117478785,-7.37055,-6.2991447,-0.8858546,0.1587244,0.0031957934000000003,-0.040480047000000005,52.38,-0.3,1.44
1554117478805,-7.386112,-6.2153480000000005,-0.8086416000000001,0.13741912,0.013848438000000001,-0.04261058,52.32,-0.18,1.5
1554117478825,-7.420229400000001,-6.1902084,-0.8146270999999999,0.12463594,0.012783173500000002,-0.054328485999999995,52.26,-0.18,1.5
1554117478845,-7.4723034,-6.218939,-0.8726865,0.1107875,0.010652645,-0.06391586,52.2,-0.12,1.56
1554117478865,-7.457938,-6.2668230000000005,-0.7954735,0.10333065,0.0031957934000000003,-0.06924219,52.08,-0.12,1.56
1554117478885,-7.4758949999999995,-6.3350577,-0.8702923,0.094808534,-0.011717908999999999,-0.068176925,52.02,-0.06,1.56
1554117478904,-7.540538300000001,-6.3584013,-0.83856916,0.07350325,-0.034088463,-0.07137272,51.96,-0.06,1.56
1554117478924,-7.575253999999999,-6.3446345,-0.7445967,0.04580637,-0.058589544,-0.068176925,51.9,0.0,1.56
1554117478945,-7.531560000000001,-6.3943143,-0.6607997,0.03834952,-0.08522116,-0.039414786,51.9,0.06,1.56
1554117478964,-7.495647,-6.4380083,-0.5883751,0.05006743,-0.094808534,-0.033023197000000004,51.84,0.06,1.56
1554117478985,-7.483077499999999,-6.458957700000001,-0.57640404,0.060720075,-0.10865697,-0.02876214,51.84,0.12,1.56
1554117479005,-7.438784599999999,-6.391321700000001,-0.46986207,0.06924219,-0.12144015,-0.02876214,51.84,0.18,1.56
1554117479025,-7.4112515,-6.323685,-0.4758476,0.07882957,-0.11930962,-0.022370555,51.9,0.18,1.56
1554117479045,-7.401076,-6.3350577,-0.4938041,0.07989483,-0.12037488,-0.01917476,51.96,0.18,1.56
1554117479065,-7.345411,-6.2638300000000005,-0.49440265,0.06604639400000001,-0.10759171,-0.02130529,52.08,0.24,1.56
1554117479084,-7.3777327999999995,-6.225523,-0.44472298,0.060720075,-0.09587380000000001,-0.041545313,52.14,0.3,1.56
1554117479104,-7.3609734,-6.190807,-0.36631286,0.05752428,-0.08948222,-0.05219796,52.26,0.36,1.56
1554117479125,-7.351995,-6.175244999999999,-0.30705637,0.06711166,-0.08522116,-0.06711166,52.38,0.42,1.5
1554117479144,-7.4124484,-6.1973910000000005,-0.39264908,0.07669904,-0.07243799,-0.06924219,52.44,0.48,1.44
1554117479164,-7.415441,-6.2351,-0.45190558,0.080960095,-0.054328485999999995,-0.07456851,52.5,0.54,1.38
1554117479185,-7.453747999999999,-6.226121400000001,-0.4818331,0.07137272,-0.036218993,-0.07350325,52.5,0.6,1.32
1554117479205,-7.459734,-6.2093620000000005,-0.4842273,0.056459017,-0.027696876000000002,-0.07456851,52.5,0.6,1.26
1554117479225,-7.507617999999999,-6.242881,-0.5578489999999999,0.040480047000000005,-0.03195793,-0.06285059999999999,52.5,0.66,1.2
1554117479244,-7.4609309999999995,-6.296151999999999,-0.49619830000000004,0.029827405,-0.029827405,-0.041545313,52.5,0.72,1.08
1554117479264,-7.4483614000000005,-6.344036,-0.5805939,0.022370555,-0.03834952,-0.03089267,52.44,0.72,0.96
1554117479284,-7.466317999999999,-6.271013,-0.53450555,0.011717908999999999,-0.04474111,-0.027696876000000002,52.44,0.78,0.84
1554117479305,-7.436989,-6.211158,-0.5602431999999999,-0.0053263223,-0.053263225,-0.027696876000000002,52.44,0.78,0.78
1554117479325,-7.413645699999999,-6.1866174,-0.56682724,-0.029827405,-0.06711166,-0.02130529,52.38,0.84,0.72
1554117479345,-7.3627687,-6.1926026,-0.5255273,-0.05006743,-0.07030745599999999,-0.018109497,52.38,0.9,0.66
1554117479365,-7.379528,-6.214748999999999,-0.4794389,-0.06604639400000001,-0.06924219,-0.026631612000000002,52.38,0.96,0.6
1554117479385,-7.36636,-6.241683999999999,-0.43933599999999995,-0.09161274,-0.06604639400000001,-0.041545313,52.38,1.02,0.6
1554117479405,-7.414842599999999,-6.275801,-0.338181,-0.09374327,-0.058589544,-0.06498113,52.32,1.08,0.6
1554117479425,-7.4842744,-6.3218894,-0.3585317,-0.083090626,-0.05219796,-0.06285059999999999,52.32,1.14,0.66
1554117479446,-7.441178999999999,-6.381146,-0.36272156,-0.084155895,-0.05219796,-0.04474111,52.26,1.2,0.72
1554117479465,-7.3753386,-6.451775,-0.41240123,-0.084155895,-0.04580637,-0.027696876000000002,52.26,1.2,0.78
1554117479485,-7.341221000000001,-6.508039,-0.40462008,-0.082025364,-0.041545313,-0.01917476,52.26,1.2,0.84
1554117479505,-7.330447,-6.489484,-0.42197806,-0.07030745599999999,-0.04261058,-0.00958738,52.26,1.14,0.84
1554117479524,-7.2981253,-6.515221599999999,-0.46327803,-0.068176925,-0.040480047000000005,0.0031957934000000003,52.26,1.14,0.78
1554117479545,-7.281964299999999,-6.4924764999999995,-0.39025488,-0.07137272,-0.036218993,-0.013848438000000001,52.32,1.08,0.78
1554117479564,-7.281964299999999,-6.425439,-0.33758244,-0.07243799,-0.037284255,-0.029827405,52.32,1.08,0.72
1554117479584,-7.298723700000001,-6.4002995,-0.31663316,-0.05752428,-0.03834952,-0.027696876000000002,52.38,1.02,0.6
1554117479605,-7.314286,-6.460753400000001,-0.3453636,-0.041545313,-0.036218993,-0.037284255,52.38,1.02,0.54
1554117479625,-7.325659,-6.443994,-0.29987377,-0.035153727999999995,-0.02876214,-0.04261058,52.38,0.96,0.48
1554117479645,-7.347805,-6.4266357,-0.28072014,-0.02130529,-0.013848438000000001,-0.040480047000000005,52.38,0.96,0.36
1554117479665,-7.3831196,-6.4625487,-0.36152446,-0.007456851,0.0010652645,-0.026631612000000002,52.44,0.96,0.36
1554117479685,-7.355586,-6.425439,-0.37948096,0.00958738,0.014913702,-0.020240024,52.5,0.9,0.3
1554117479705,-7.358579,-6.4140663,-0.4165911,0.023435817999999997,0.03089267,-0.012783173500000002,52.56,0.9,0.3
1554117479725,-7.3460092999999995,-6.312312599999999,-0.49619830000000004,0.025566347000000003,0.043675844000000005,-0.0063915867,52.62,0.9,0.3
1554117479745,-7.3220673,-6.3129115,-0.46447513,0.013848438000000001,0.051132694000000006,-0.0053263223,52.62,0.9,0.3
1554117479765,-7.299921,-6.2889695,-0.5093664000000001,0.008522116,0.049002163,-0.018109497,52.68,0.9,0.3
1554117479785,-7.314286,-6.353014,-0.5374983,0.008522116,0.047936900000000005,-0.04261058,52.74,0.9,0.3
1554117479804,-7.27957,-6.3141084,-0.48362875,0.012783173500000002,0.034088463,-0.07137272,52.74,0.84,0.36
1554117479825,-7.341221000000001,-6.3404446,-0.5201403,0.015978966,0.022370555,-0.07989483,52.8,0.84,0.36
1554117479845,-7.3974850000000005,-6.4242415,-0.4914099,-0.018109497,-0.002130529,-0.08841695,52.8,0.78,0.36
1554117479864,-7.45315,-6.500856400000001,-0.5267244000000001,-0.037284255,-0.013848438000000001,-0.08948222,52.8,0.78,0.36
1554117479885,-7.492056,-6.5840545,-0.3309984,-0.037284255,-0.008522116,-0.07776430000000001,52.74,0.78,0.36
1554117479905,-7.5136037,-6.591836,-0.3298013,-0.014913702,-0.01917476,-0.06391586,52.62,0.72,0.36
1554117479924,-7.49445,-6.508039,-0.31483752,0.013848438000000001,-0.02130529,-0.03195793,52.5,0.72,0.36
1554117479944,-7.483675999999999,-6.4505777,-0.32022446,0.027696876000000002,-0.027696876000000002,-0.017044231,52.38,0.66,0.36
1554117479965,-7.468113400000001,-6.4128695,-0.41599256,0.026631612000000002,-0.03089267,-0.008522116,52.26,0.66,0.36
1554117479984,-7.420828299999999,-6.403292700000001,-0.3788824,0.018109497,-0.023435817999999997,0.0063915867,52.14,0.66,0.36
1554117480004,-7.374141000000001,-6.3871317,-0.41359833,0.03089267,-0.012783173500000002,0.0063915867,52.02,0.6,0.36
1554117480024,-7.381922200000001,-6.3566055,-0.40162733,0.03089267,-0.0053263223,-0.007456851,51.96,0.6,0.36
1554117480044,-7.3992805,-6.364985,-0.41778820000000005,0.027696876000000002,-0.004261058,-0.014913702,51.96,0.6,0.36
1554117480065,-7.325060000000001,-6.329671,-0.41718966,0.027696876000000002,-0.00958738,-0.012783173500000002,52.02,0.54,0.36
1554117480084,-7.265205,-6.293758,-0.4770447,0.020240024,-0.017044231,-0.017044231,52.08,0.54,0.36
1554117480105,-7.3112936,-6.302736,-0.44951138,0.010652645,-0.017044231,-0.03089267,52.2,0.48,0.36
1554117480124,-7.414842599999999,-6.335656,-0.39085343,-0.0010652645,-0.017044231,-0.051132694000000006,52.26,0.36,0.36
1554117480146,-7.467515,-6.3177,-0.36990416,0.015978966,-0.018109497,-0.051132694000000006,52.38,0.06,0.42
1554117480164,-7.4268136,-6.337452,-0.43035775,0.024501082,-0.01917476,-0.039414786,52.38,-0.06,0.48
1554117480184,-7.366958599999999,-6.417059,-0.42676646,0.008522116,-0.008522116,-0.027696876000000002,52.38,-0.3,0.48
1554117480205,-7.323264599999999,-6.4332199999999995,-0.33698390000000006,-0.0063915867,-0.002130529,-0.040480047000000005,52.38,-0.66,0.54
1554117480224,-7.377134,-6.39192,-0.35075054,0.018109497,0.0,-0.05006743,52.32,-1.08,0.6
1554117480244,-7.353790299999999,-6.350021400000001,-0.45609543,0.041545313,-0.0010652645,-0.041545313,52.2,-1.5,0.6
1554117480265,-7.271190600000001,-6.381745,-0.48063599999999995,0.03195793,-0.0063915867,-0.034088463,52.08,-1.92,0.54
1554117480284,-7.225102000000001,-6.3757589999999995,-0.47285482,0.013848438000000001,0.004261058,-0.043675844000000005,52.02,-2.28,0.48
1554117480305,-7.2939353,-6.403891000000001,-0.45609543,-0.0053263223,0.008522116,-0.07456851,51.9,-2.4,0.42
1554117480324,-7.371148599999999,-6.342839,-0.35254622,-0.004261058,0.007456851,-0.096939065,51.9,-2.22,0.36
1554117480344,-7.443573,-6.308123,-0.30585927,0.010652645,0.004261058,-0.10226539,51.96,-1.98,0.18
1554117480364,-7.505822,-6.360196599999999,-0.338181,0.011717908999999999,0.002130529,-0.08735169,52.08,-1.68,0.06
1554117480384,-7.4842744,-6.391321700000001,-0.34237084,0.010652645,-0.0053263223,-0.07243799,52.2,-1.32,-0.06
1554117480405,-7.4896617,-6.417658,-0.40102878,0.017044231,0.0053263223,-0.04580637,52.44,-0.72,-0.18
1554117480424,-7.4112515,-6.441001,-0.4842273,0.014913702,0.0053263223,-0.024501082,52.62,-0.3,-0.12
1554117480445,-7.3352356,-6.4505777,-0.4890157,0.014913702,0.012783173500000002,-0.01917476,52.8,0.12,-0.06
1554117480465,-7.3352356,-6.467936,-0.50757074,0.014913702,0.00958738,-0.03195793,52.98,0.3,0.06
1554117480486,-7.378331,-6.4164605,-0.49619830000000004,0.010652645,0.007456851,-0.039414786,52.98,0.3,0.06
1554117480504,-7.419631,-6.357204,-0.41359833,0.0,-0.004261058,-0.036218993,52.98,0.48,0.3
1554117480524,-7.3627687,-6.317101,-0.44711718,-0.004261058,-0.01917476,-0.037284255,52.98,0.54,0.42
1554117480544,-7.36636,-6.3548098,-0.4405331,-0.0063915867,-0.026631612000000002,-0.043675844000000005,52.98,0.6,0.54
1554117480564,-7.319673,-6.3907228,-0.3681085,-0.01917476,-0.034088463,-0.05006743,52.92,0.6,0.66
1554117480584,-7.283760000000001,-6.423643,-0.38965634,-0.017044231,-0.03089267,-0.053263225,52.92,0.66,0.72
1554117480605,-7.282563000000001,-6.479907,-0.38127659999999997,-0.00958738,-0.015978966,-0.046871635999999994,52.86,0.6,0.66
1554117480624,-7.28795,-6.4840965,-0.374094,0.0063915867,-0.007456851,-0.05006743,52.8,0.6,0.66
1554117480645,-7.3328414,-6.351817,-0.42197806,0.015978966,0.0063915867,-0.04580637,52.74,0.6,0.6
1554117480665,-7.341221000000001,-6.3284736,-0.39983168,0.0010652645,0.0063915867,-0.036218993,52.74,0.6,0.54
1554117480685,-7.284957400000001,-6.3464303,-0.41000703,-0.00958738,0.008522116,-0.036218993,52.68,0.6,0.48
1554117480705,-7.2699933,-6.3757589999999995,-0.45190558,-0.004261058,0.024501082,-0.043675844000000005,52.68,0.66,0.48
1554117480724,-7.3178773,-6.3883285999999995,-0.44173019999999996,-0.004261058,0.026631612000000002,-0.05965481,52.62,0.72,0.42
1554117480744,-7.2951326000000005,-6.300341599999999,-0.39683893,0.008522116,0.034088463,-0.06178534,52.62,0.78,0.36
1554117480765,-7.319673,-6.302736,-0.46866497,0.0010652645,0.027696876000000002,-0.07137272,52.56,0.84,0.36
1554117480785,-7.3603745,-6.341642,-0.50757074,-0.03089267,0.018109497,-0.09267801,52.5,0.9,0.36
1554117480804,-7.4082584,-6.3985043,-0.41718966,-0.051132694000000006,0.00958738,-0.112918034,52.44,0.96,0.3
1554117480825,-7.404069,-6.445191,-0.39803603,-0.049002163,0.0,-0.113983296,52.38,1.08,0.3
1554117480844,-7.378331,-6.427833000000001,-0.40940848,-0.039414786,-0.010652645,-0.10546118,52.32,1.14,0.3
1554117480864,-7.4112515,-6.547543,-0.4878186,-0.035153727999999995,-0.024501082,-0.08628642,52.32,1.2,0.36
1554117480884,-7.353790299999999,-6.661866000000001,-0.51116204,-0.05539375,-0.034088463,-0.06924219,52.26,1.26,0.36
