TimeStamp,Ax,Ay,Az,Gx,Gy,Gz,Mx,My,Mz
1554108428064,-4.003105000000001,-8.643666,2.7048495,-1.1323761,-0.24501082,0.13848437,-27.42,24.48,-36.9
1554108428083,-3.8786068,-8.902241,2.7287915000000003,-1.0226538,-0.25246766,0.15978967,-27.42,25.92,-36.12
1554108428103,-4.0222587999999995,-9.021951,2.8006175,-0.737163,-0.25885928,0.14168017,-27.42,27.18,-35.22
1554108428124,-4.0318356,-9.069835000000001,2.6761188999999996,-0.5432849000000001,-0.25885928,0.15978967,-27.36,28.44,-34.26
1554108428144,-4.0174704,-8.907029,2.498948,-0.330232,-0.25992453,0.17044231,-27.36,29.58,-33.36
1554108428164,-4.0892963,-8.667608,2.4893713,-0.2066613,-0.24181503,0.17044231,-27.36,30.48,-32.64
1554108428183,-4.1706996,-8.734647,2.379238,-0.17150758,-0.23222765,0.18109496,-27.36,31.38,-32.1
1554108428204,-4.1371803,-8.787319,2.4893713,-0.12357068,-0.21624869,0.18322548,-27.36,32.16,-31.68
1554108428224,-4.19943,-8.715492999999999,2.1829132999999996,0.007456851,-0.21731395,0.17896444,-27.36,32.7,-31.26
1554108428243,-4.1611223,-8.614936,2.1398177000000005,0.09054748,-0.20879184,0.1949434,-27.42,33.18,-30.96
1554108428263,-4.146757,-8.485649,2.082357,0.04261058,-0.1949434,0.20133498,-27.42,33.48,-30.72
1554108428283,-4.2425256,-8.528744999999999,2.1972785,-0.02130529,-0.18855181,0.1768339,-27.48,33.6,-30.66
1554108428303,-4.2999864,-8.5862055,2.1637597,-0.0063915867,-0.17896444,0.18535602,-27.54,33.66,-30.6
1554108428323,-4.4005427,-8.485649,1.7902644,0.058589544,-0.19387813,0.21198763,-27.54,33.72,-30.54
1554108428343,-4.4101195,-8.322844,1.9243397,-0.022370555,-0.18429075,0.23861924,-27.54,33.72,-30.48
1554108428364,-4.4580035,-8.399458000000001,1.7854759999999998,-0.11504856,-0.17576863,0.23009712,-27.54,33.72,-30.42
1554108428383,-4.4484267,-8.500014,1.9818004,-0.1438107,-0.18002969,0.24181503,-27.54,33.72,-30.36
1554108428404,-4.596867,-8.533533,1.8860323,-0.08841695,-0.1949434,0.25992453,-27.48,33.78,-30.3
1554108428424,-4.582502,-8.456919000000001,1.8285716,-0.08735169,-0.19920446,0.28016454,-27.48,33.84,-30.24
1554108428444,-4.611232299999999,-8.356361999999999,1.929128,-0.13528858,-0.20559604,0.29294774,-27.42,33.9,-30.18
1554108428464,-4.606444000000001,-8.4664955,1.8381484000000001,-0.16831179,-0.21518342,0.30786142,-27.42,33.96,-30.12
1554108428484,-4.783615,-8.399458000000001,1.7184383,-0.20772657,-0.23116238,0.3323625,-27.36,34.02,-30.0
1554108428504,-4.9081135,-8.409035000000001,1.7471686999999998,-0.27377295,-0.25246766,0.350472,-27.3,34.14,-29.88
1554108428524,-4.841076,-8.461707,1.8668787,-0.3153183,-0.26525086,0.36751625,-27.24,34.32,-29.76
1554108428544,-4.8362875,-8.5383215,1.9434932,-0.27696875,-0.28336033,0.36964676,-27.18,34.5,-29.64
1554108428564,-4.9799394999999995,-8.413822999999999,2.0153193,-0.19813919,-0.30466563,0.38775626,-27.06,34.74,-29.46
1554108428584,-5.0996494000000006,-8.351574000000001,1.9865887999999998,-0.17896444,-0.31638354,0.4133226,-27.0,34.92,-29.34
1554108428603,-5.2385135,-8.385093,1.9387047999999998,-0.19600865,-0.3291667,0.42930159999999995,-26.88,35.16,-29.16
1554108428624,-5.1666875,-8.270171000000001,1.9818004,-0.17044231,-0.34301516,0.45699844,-26.76,35.4,-28.92
1554108428644,-5.142745,-8.107366,2.0919337,-0.16937704,-0.330232,0.47510794,-26.64,35.64,-28.74
1554108428664,-5.12838,-8.131308,2.0632033,-0.17789917,-0.32597092,0.47297743,-26.58,36.06,-28.56
1554108428683,-5.1523223,-8.126519,2.1015105,-0.17470337,-0.32597092,0.48682585,-26.46,36.36,-28.38
1554108428703,-5.2049947,-7.839214999999999,2.40318,-0.054328485999999995,-0.3334278,0.46125950000000004,-26.16,36.9,-28.02
1554108428724,-5.2624555,-7.887099,2.2068555,0.06711166,-0.34940675,0.44741106,-26.1,37.08,-27.9
1554108428744,-5.334281400000001,-7.6524673,2.2643162999999995,0.11504856,-0.35899413,0.43569317,-25.86,37.62,-27.54
1554108428763,-5.420472599999999,-7.6668324000000005,2.331354,0.06604639400000001,-0.35473305,0.41971418,-25.68,37.92,-27.36
1554108428785,-5.396530599999999,-7.772177,2.6234465,0.04580637,-0.34834146,0.40586576,-25.5,38.22,-27.18
1554108428803,-5.559336,-7.9876556,2.747945,0.17044231,-0.34088463,0.37284255,-25.32,38.46,-27.0
1554108428823,-5.5162406,-7.934983,3.0160956000000003,0.3153183,-0.33129725,0.3685815,-25.2,38.52,-26.88
1554108428844,-5.7029886,-7.542333999999999,2.9538465,0.5336975,-0.30253512,0.37710363,-25.02,38.7,-26.7
1554108428864,-5.774814599999999,-7.685986,3.0400376000000002,0.5539375,-0.27057716,0.386691,-24.84,38.76,-26.64
1554108428883,-5.8945246,-7.599794999999999,2.7814639,0.44847634,-0.24927188,0.3898868,-24.6,38.82,-26.58
1554108428904,-6.081272,-7.527969000000001,2.795829,0.27164245,-0.22690132,0.40373522,-24.3,38.82,-26.58
1554108428924,-6.2871737,-7.6572556,2.9442697,0.06498113,-0.22050974,0.43888897,-24.06,38.88,-26.58
1554108428943,-6.2871737,-7.685986,3.0735563999999997,-0.08948222,-0.21837921,0.5123922000000001,-23.88,38.88,-26.64
1554108428964,-6.2009826,-7.968502,2.9586349,-0.13954964,-0.21624869,0.6146576,-23.64,38.88,-26.76
1554108428983,-6.5601125,-7.820061,2.9059622000000003,-0.1470065,-0.21518342,0.69135666,-23.46,38.88,-27.06
1554108429003,-7.0102224,-7.614160000000001,2.8532897999999998,-0.18642128,-0.21198763,0.7574029999999999,-23.28,38.88,-27.24
1554108429024,-6.885724000000001,-7.3699512,3.1549592,-0.22583607,-0.20772657,0.8298409999999999,-23.1,38.88,-27.42
1554108429044,-6.469133,-7.3843164,3.1693244,-0.17150758,-0.19174760000000002,0.9416938,-23.04,38.94,-27.6
1554108429064,-6.517017,-7.0251865,3.2124202,0.06604639400000001,-0.14594123,1.0120013,-22.86,39.06,-27.6
1554108429083,-6.4404025,-6.6852098,3.1741127999999996,0.24714136,-0.12570119999999999,1.0322412,-22.68,39.12,-27.54
1554108429104,-6.105214,-6.2925606,2.949058,0.34834146,-0.10439592,1.0396981,-22.32,39.3,-27.54
1554108429123,-6.0046577,-6.0291986,2.9921536,0.4165184,-0.07669904,1.0226538,-21.9,39.48,-27.42
1554108429143,-6.325481,-5.828085400000001,3.1118636000000004,0.47191215,-0.051132694000000006,0.95660746,-21.48,39.66,-27.24
1554108429164,-6.2392898,-5.3300915,3.2555158,0.5496765,-0.024501082,0.8426242,-20.94,39.9,-27.12
1554108429183,-6.220136,-5.2582655,3.0591912,0.58696073,-0.010652645,0.7765778,-20.34,40.02,-27.0
1554108429204,-6.315904,-5.0092683,3.2124202,0.5539375,0.012783173500000002,0.660464,-19.68,40.2,-27.0
1554108429224,-6.3589997,-4.7937902999999995,3.4805707999999997,0.5475459,0.017044231,0.55074173,-18.9,40.26,-27.12
1554108429244,-6.301539,-4.540005000000001,3.6721067,0.60507023,0.04261058,0.46871635,-18.18,40.38,-27.36
1554108429263,-6.3925184999999995,-4.377199,3.3895910000000002,0.6860303000000001,0.09054748,0.37603834,-17.52,40.38,-27.6
1554108429283,-6.7229185,-4.439448400000001,3.447052,0.7350325,0.12570119999999999,0.26418558,-16.98,40.2,-27.78
1554108429304,-6.924031299999999,-4.3197384,3.341707,0.78083885,0.14061491,0.15126756,-16.5,39.96,-28.02
1554108429324,-6.885724000000001,-4.061165,3.3608606,0.7850999,0.14274544,0.05539375,-16.08,39.66,-28.32
1554108429344,-6.919242999999999,-3.8265328000000003,3.3512837999999996,0.6689861,0.17044231,-0.007456851,-15.72,39.24,-28.56
1554108429364,-7.062895,-3.9653966,3.5859156000000003,0.52837116,0.19281286,-0.068176925,-15.42,38.76,-28.86
1554108429384,-7.268796400000001,-4.061165,3.743933,0.47723848,0.2066613,-0.11717909,-15.3,38.22,-29.16
1554108429403,-7.393294999999999,-4.401141,3.566762,0.45167214,0.19600865,-0.15020229,-15.12,37.68,-29.52
1554108429423,-7.493850999999999,-4.267066000000001,3.4662056000000003,0.38029942,0.1949434,-0.19068234,-15.0,37.14,-29.88
1554108429444,-7.632714999999999,-4.482544,3.2507273999999997,0.27483824,0.2130529,-0.20772657,-14.88,36.72,-30.3
1554108429464,-7.7907324000000004,-4.717176,3.3991678,0.19600865,0.21198763,-0.21624869,-14.76,36.36,-30.72
1554108429483,-7.642291999999999,-4.6980224,3.4566288,0.18322548,0.2130529,-0.19920446,-14.64,36.12,-31.14
1554108429504,-7.565677,-4.4442368,3.245939,0.23435818,0.22050974,-0.20772657,-14.52,35.88,-31.56
1554108429523,-7.738060000000001,-4.707599,3.3608606,0.25566345,0.21198763,-0.19600865,-14.46,35.7,-31.86
1554108429544,-7.896077,-4.860828,3.4087446000000003,0.37603834,0.18961707,-0.18109496,-14.4,35.52,-32.16
1554108429564,-7.666233999999999,-4.4059295999999994,3.5523968,0.531567,0.16085494,-0.19387813,-14.4,35.28,-32.4
1554108429584,-7.5034279999999995,-3.5392287000000002,3.1501707999999997,0.44528055,0.15446335,-0.24927188,-14.4,34.98,-32.58
1554108429603,-7.5082164,-3.6349967000000003,3.1693244,0.14274544,0.17896444,-0.25885928,-14.4,34.56,-32.7
1554108429624,-7.872135000000001,-4.7506948,3.5476084,-0.024501082,0.1949434,-0.24607609,-14.4,34.14,-32.82
1554108429643,-7.7667904000000005,-5.0906715,3.696049,0.020240024,0.16831179,-0.23116238,-14.4,33.9,-32.88
1554108429664,-7.943961,-4.6501384,3.7343562000000006,0.28975195,0.16192019,-0.20772657,-14.4,33.3,-33.06
1554108429684,-7.632714999999999,-4.377199,4.0120835,0.36005938,0.17257284,-0.16298546,-14.46,32.94,-33.24
1554108429704,-7.431602000000001,-4.0707417,4.0216603,0.41225734,0.18322548,-0.16405073,-14.52,32.58,-33.36
1554108429724,-7.493850999999999,-4.109049,3.8827964999999995,0.45380265,0.17470337,-0.20133498,-14.58,32.28,-33.66
1554108429743,-7.785944000000001,-4.635773,3.9833531000000004,0.47723848,0.18535602,-0.20026971,-14.64,31.92,-33.96
1554108429763,-8.020576,-4.745906400000001,3.6864722000000003,0.5305017,0.18429075,-0.20772657,-14.7,31.74,-34.2
1554108429784,-7.6853875999999985,-4.6980224,3.6768951000000003,0.49108690000000005,0.16192019,-0.20026971,-14.7,31.56,-34.5
1554108429803,-7.0581064,-4.401141,4.007295,0.41864893,0.11930962,-0.19387813,-14.76,31.38,-34.74
1554108429823,-7.177817,-3.3620577000000003,3.6290112,0.46232477,0.12357068,-0.30466563,-14.76,31.08,-34.92
1554108429844,-7.8865004,-4.1760864,3.3560722000000003,0.26738137,0.09374327,-0.39095205,-14.76,30.78,-35.22
1554108429864,-7.9248075,-4.76506,3.9881415000000002,0.06924219,0.10546118,-0.27803403,-14.76,30.42,-35.52
1554108429884,-7.383717999999999,-4.5160627,3.9163153,0.20772657,0.099069595,-0.32384038,-14.76,30.12,-35.64
1554108429903,-7.254431200000001,-3.9510313999999997,3.8684312999999997,0.40373522,0.11611383,-0.37923414,-14.76,29.82,-35.82
1554108429924,-7.101202000000001,-3.7259765,3.6673183,0.41545314,0.128897,-0.38456047,-14.76,29.58,-35.94
1554108429943,-6.794744500000001,-3.5583823,3.4757824,0.18216023,0.14594123,-0.45593318,-14.76,29.4,-36.06
1554108429963,-6.435614,-3.5488055,3.614646,-0.07882957,0.15339808,-0.567786,-14.76,29.22,-36.24
1554108429984,-6.828263300000001,-3.8313212,3.3369186,-0.34940675,0.17044231,-0.6711166000000001,-14.76,29.16,-36.36
1554108430003,-7.038953,-4.4538136,3.3704373999999997,-0.6199839,0.20240025,-0.7680557,-14.82,29.1,-36.42
1554108430023,-6.9862804,-5.0667295,3.4422636,-0.65726817,0.22264028,-0.8277104999999999,-14.82,29.04,-36.42
1554108430044,-6.8091097000000005,-5.3923407,3.6433763999999997,-0.49534798,0.23861924,-0.850081,-14.88,28.92,-36.36
1554108430064,-6.9671270000000005,-5.497685400000001,3.1501707999999997,-0.3898868,0.24394555,-0.87032104,-14.88,28.92,-36.36
1554108430085,-6.991069,-5.3683987,3.0735563999999997,-0.46232477,0.24181503,-0.9150621999999999,-15.0,28.92,-36.36
1554108430104,-6.885724000000001,-5.6030307,3.221997,-0.5613944000000001,0.23329292,-0.9321064,-15.06,29.1,-36.3
1554108430123,-6.5457472999999995,-5.9621606,3.1453824,-0.5901565,0.21731395,-0.92464954,-15.18,29.34,-36.24
1554108430144,-6.7612257,-6.4266357,2.7670987,-0.5763081,0.19707392,-0.9267801,-15.36,29.64,-36.06
1554108430164,-6.9767036,-6.8863225,2.9538465,-0.52837116,0.16937704,-0.90654004,-15.6,30.06,-35.88
1554108430185,-7.053317999999999,-6.9102645,3.198055,-0.42930159999999995,0.17470337,-0.8564726,-15.96,30.42,-35.7
1554108430203,-6.828263300000001,-7.015609700000001,3.1884782000000005,-0.24074976,0.16724652,-0.7680557,-16.38,30.9,-35.46
1554108430224,-6.5505357,-7.211933999999999,2.9730000000000003,-0.05539375,0.16298546,-0.6785734,-16.8,31.38,-35.22
1554108430243,-6.7277070000000005,-7.16405,2.5037365,0.013848438000000001,0.20026971,-0.6306366,-17.16,31.86,-34.98
1554108430264,-6.947973299999999,-7.0826473,2.307412,-0.12570119999999999,0.19387813,-0.5837649,-17.58,32.22,-34.74
1554108430284,-7.053317999999999,-7.374739599999999,2.5372553,-0.20133498,0.14061491,-0.531567,-18.0,32.7,-34.44
1554108430304,-6.9767036,-7.2885485,2.5803509,-0.16831179,0.11717909,-0.44741106,-18.18,32.82,-34.32
1554108430324,-6.885724000000001,-7.317278999999999,2.5995044999999997,-0.06924219,0.10439592,-0.36325517,-18.36,33.06,-34.14
1554108430344,-6.828263300000001,-7.1927805,2.7814639,0.017044231,0.09161274,-0.36112466,-18.42,33.24,-33.96
1554108430363,-6.7133417,-7.029975,2.5372553,-0.02876214,0.082025364,-0.31105720000000003,-18.48,33.42,-33.78
1554108430383,-6.794744500000001,-7.020397999999999,2.2643162999999995,-0.11611383,0.05219796,-0.2428803,-18.48,33.54,-33.48
1554108430403,-6.4787097000000005,-7.178415299999999,2.40318,-0.19920446,0.051132694000000006,-0.16192019,-18.54,33.54,-33.36
1554108430424,-6.4212489999999995,-7.2981253,2.508525,-0.26418558,0.07350325,-0.12144015,-18.6,33.54,-33.3
1554108430443,-6.3925184999999995,-7.178415299999999,2.5468319999999998,-0.30786142,0.07882957,-0.13848437,-18.78,33.54,-33.18
1554108430463,-6.2584434,-7.1688385,2.331354,-0.30466563,0.096939065,-0.10333065,-18.96,33.54,-33.12
1554108430483,-6.2871737,-7.413047,2.168548,-0.16298546,0.07882957,-0.11930962,-19.2,33.6,-33.06
1554108430504,-6.2009826,-7.527969000000001,2.0775685,-0.041545313,0.04580637,-0.14594123,-19.32,33.6,-33.0
1554108430524,-6.019023000000001,-7.398681599999999,2.0775685,0.004261058,0.035153727999999995,-0.10439592,-19.5,33.66,-33.06
1554108430543,-5.90889,-7.341221000000001,2.4079683,0.00958738,0.041545313,-0.11504856,-19.62,33.78,-33.06
1554108430563,-5.750872599999999,-7.269394999999999,2.5133132999999996,0.047936900000000005,0.029827405,-0.13741912,-19.68,33.84,-33.06
1554108430583,-5.7987566,-7.178415299999999,2.4941597,0.10759171,0.023435817999999997,-0.14168017,-19.74,33.96,-33.06
1554108430604,-5.6886234,-7.178415299999999,2.2307975,0.16937704,-0.0063915867,-0.15552860000000002,-19.74,34.08,-33.06
1554108430624,-5.942408599999999,-7.1209545,2.2212207000000004,0.20133498,-0.029827405,-0.18429075,-19.74,34.2,-33.0
1554108430643,-5.913678,-7.307702000000001,2.3936029999999997,0.18961707,-0.047936900000000005,-0.20453078,-19.74,34.32,-32.94
1554108430663,-5.726930599999999,-7.307702000000001,2.508525,0.20559604,-0.054328485999999995,-0.19920446,-19.8,34.44,-32.94
1554108430683,-5.674258,-7.259817999999999,2.5420437000000002,0.25992453,-0.034088463,-0.20772657,-19.8,34.5,-32.94
1554108430704,-5.693412,-7.283760000000001,2.7431567,0.3057309,-0.026631612000000002,-0.22370553,-19.86,34.5,-32.88
1554108430723,-5.746084,-7.2406645,2.5276785,0.33875409999999995,-0.03089267,-0.23968449999999997,-19.86,34.5,-32.94
1554108430743,-5.760449400000001,-7.2215110000000005,2.297835,0.33129725,-0.037284255,-0.24607609,-19.92,34.44,-33.0
1554108430765,-5.7125654,-7.1353197,2.4079683,0.17044231,-0.025566347000000003,-0.24074976,-19.92,34.2,-33.12
1554108430784,-5.717354,-7.3843164,2.3696610000000002,0.024501082,-0.022370555,-0.23009712,-19.98,33.96,-33.24
1554108430803,-5.7029886,-7.374739599999999,2.6665419999999997,0.002130529,-0.02130529,-0.23222765,-20.1,33.66,-33.42
1554108430824,-5.612008599999999,-7.1209545,2.5899277,0.05006743,-0.020240024,-0.22690132,-20.22,33.36,-33.6
1554108430844,-5.650316,-7.16405,2.2307975,-0.017044231,-0.012783173500000002,-0.23542345,-20.28,33.06,-33.78
1554108430863,-5.8801594,-7.1113777,2.0871453,-0.25566345,-0.0031957934000000003,-0.23435818,-20.4,32.76,-33.9
1554108430884,-5.8083334,-7.1975690000000005,2.2882583,-0.47936899999999993,-0.0031957934000000003,-0.20453078,-20.52,32.52,-34.02
1554108430904,-5.521029,-7.4896617,2.2691047,-0.5901565,0.010652645,-0.17470337,-20.58,32.28,-34.08
1554108430924,-5.4396260000000005,-7.5758529999999995,2.3505075,-0.63702816,0.02876214,-0.1768339,-20.64,32.16,-34.14
1554108430943,-5.415684,-7.772177,2.3888147,-0.63383234,0.041545313,-0.15552860000000002,-20.76,32.16,-34.2
1554108430963,-5.4779334,-7.6093717000000005,2.1733365,-0.5944176,0.046871635999999994,-0.15446335,-20.82,32.16,-34.02
1554108430984,-5.391742,-7.839214999999999,1.9243397,-0.5997439,0.043675844000000005,-0.16405073,-20.82,32.28,-33.9
1554108431004,-5.401319,-7.685986,1.8285716,-0.6988135,0.049002163,-0.1768339,-20.88,32.52,-33.78
1554108431023,-5.291186,-7.925406,1.7663223000000001,-0.773382,0.054328485999999995,-0.18961707,-20.94,32.82,-33.6
1554108431044,-5.3103394999999995,-8.198345,2.0153193,-0.6295713000000001,0.06285059999999999,-0.19387813,-21.0,33.24,-33.42
1554108431064,-5.449203,-8.140884,1.7806876,-0.35260254,0.05006743,-0.2034655,-21.0,33.66,-33.18
1554108431084,-5.377377,-8.021174,1.6083049999999999,-0.21837921,0.036218993,-0.1949434,-21.12,34.14,-32.82
1554108431103,-5.425261,-8.203134,1.4024036,-0.23329292,0.022370555,-0.20026971,-21.18,34.74,-32.34
1554108431123,-5.4922986,-8.131308,1.4119805,-0.34088463,0.00958738,-0.17363810000000002,-21.24,35.28,-31.98
1554108431143,-5.4779334,-8.255806,1.7040731,-0.30466563,-0.0063915867,-0.18109496,-21.3,35.76,-31.68
1554108431164,-5.425261,-8.078635,1.7136499,-0.11930962,-0.033023197000000004,-0.18109496,-21.42,36.12,-31.32
1554108431184,-5.506664,-7.9062524000000005,1.5125369,0.00958738,-0.049002163,-0.16298546,-21.48,36.42,-31.02
1554108431204,-5.5401826,-7.901464,1.335366,-0.02876214,-0.05965481,-0.14487597,-21.6,36.66,-30.72
1554108431224,-5.401319,-8.136096,1.2587515,-0.20559604,-0.06285059999999999,-0.11824436,-21.72,36.84,-30.54
1554108431244,-5.353435,-8.179192,1.2731166999999999,-0.33875409999999995,-0.06604639400000001,-0.10865697,-21.84,37.02,-30.42
1554108431264,-5.3582234,-8.054692999999999,1.2060791000000002,-0.36005938,-0.07563378,-0.099069595,-21.96,37.14,-30.42
1554108431283,-5.3678,-8.040328,1.2300211,-0.28016454,-0.082025364,-0.08522116,-22.08,37.26,-30.36
1554108431304,-5.3103394999999995,-8.313267,1.335366,-0.23542345,-0.08841695,-0.084155895,-22.14,37.32,-30.3
1554108431324,-5.3390699999999995,-8.136096,1.0815806000000001,-0.24394555,-0.08841695,-0.06604639400000001,-22.26,37.44,-30.24
1554108431343,-5.2002063,-8.107366,1.0959458,-0.28122982,-0.08948222,-0.046871635999999994,-22.38,37.62,-30.12
1554108431363,-5.3486465999999995,-8.116942,1.0672153999999998,-0.30466563,-0.08628642,-0.027696876000000002,-22.5,37.8,-30.0
1554108431384,-5.272032299999999,-8.198345,1.0911574,-0.350472,-0.080960095,-0.0053263223,-22.62,38.1,-29.76
1554108431404,-5.2385135,-8.298902,0.99538934,-0.3653857,-0.07563378,-0.0031957934000000003,-22.68,38.34,-29.52
1554108431424,-5.114014599999999,-8.078635,0.8948328999999999,-0.3717773,-0.07669904,-0.004261058,-22.74,38.4,-29.4
1554108431444,-5.2002063,-8.380303999999999,1.0001777,-0.37923414,-0.05965481,0.008522116,-22.8,38.7,-29.04
1554108431463,-5.272032299999999,-8.327632000000001,1.1198878,-0.36112466,-0.040480047000000005,0.015978966,-22.86,38.88,-28.74
1554108431484,-5.1092260000000005,-8.227076,0.96187055,-0.28975195,-0.026631612000000002,0.01917476,-22.92,38.94,-28.5
1554108431503,-5.056554,-8.241441,0.75596917,-0.29188246,-0.020240024,0.025566347000000003,-22.98,39.06,-28.2
1554108431523,-5.243302,-8.30369,0.85173726,-0.36964676,-0.015978966,0.03089267,-22.98,39.18,-27.96
1554108431544,-5.1762643,-8.18398,0.3441665,-0.3323625,-0.010652645,0.01917476,-22.92,39.3,-27.72
1554108431564,-5.267244,-8.246229,0.42078096,-0.34194988,-0.004261058,0.026631612000000002,-22.92,39.54,-27.48
1554108431583,-5.185841,-8.337209,0.5117606,-0.3717773,0.0031957934000000003,0.015978966,-22.92,39.78,-27.24
1554108431604,-5.185841,-8.495225999999999,0.86131406,-0.22690132,-0.010652645,0.010652645,-22.92,40.02,-27.0
1554108431623,-5.2528787,-8.126519,0.3537433,-0.07669904,-0.025566347000000003,0.013848438000000001,-22.92,40.26,-26.76
1554108431644,-5.171476,-7.882310400000001,0.27712885,-0.16405073,-0.013848438000000001,0.008522116,-22.92,40.5,-26.52
1554108431663,-5.1762643,-8.15525,0.109534726,-0.38136467,-0.0053263223,-0.002130529,-22.92,40.74,-26.28
1554108431684,-5.171476,-8.217499,0.14305355,-0.55606806,0.002130529,-0.007456851,-22.92,40.92,-26.1
1554108431704,-5.171476,-7.925406,0.04249708,-0.65726817,0.007456851,-0.04261058,-22.92,41.1,-25.8
1554108431723,-5.1379566,-7.911041,-0.077213004,-0.7797736,0.018109497,-0.06285059999999999,-22.92,41.16,-25.5
1554108431743,-5.1571107000000005,-8.255806,-0.0676362,-0.80747044,0.026631612000000002,-0.084155895,-22.92,41.28,-25.26
1554108431763,-5.118803,-8.380303999999999,0.16220717,-0.6423545,0.023435817999999997,-0.10759171,-22.86,41.34,-25.02
1554108431783,-5.21936,-8.112153999999999,-0.32621,-0.46765109999999993,0.02130529,-0.12144015,-22.86,41.52,-24.72
1554108431803,-5.2385135,-7.963713,-0.9008184000000001,-0.58696073,0.029827405,-0.10759171,-22.8,41.64,-24.42
1554108431824,-5.315128,-8.203134,-0.6853402,-0.8298409999999999,0.040480047000000005,-0.12037488,-22.74,41.94,-24.06
1554108431844,-5.334281400000001,-8.739435,-0.623091,-0.809601,0.05219796,-0.12996227,-22.68,42.24,-23.7
1554108431865,-5.2241483,-8.758589,-0.26396075,-0.53263223,0.041545313,-0.14487597,-22.62,42.6,-23.16
1554108431884,-5.410896,-8.332419999999999,-0.5177461,-0.23755397,0.034088463,-0.112918034,-22.56,43.02,-22.62
1554108431904,-5.243302,-8.399458000000001,-0.41718966,-0.051132694000000006,0.022370555,-0.08841695,-22.56,43.5,-21.96
1554108431924,-5.2768207,-8.614936,-0.24480712,0.17576863,0.015978966,-0.07776430000000001,-22.56,43.98,-21.36
1554108431944,-5.1666875,-8.590994,-0.30705637,0.3898868,0.011717908999999999,-0.06711166,-22.56,44.46,-20.82
1554108431964,-5.0038815,-8.5383215,-0.43155485,0.51452273,0.02130529,-0.05965481,-22.62,44.88,-20.34
1554108431983,-5.0421886,-8.5383215,-0.0676362,0.6263755,0.03089267,-0.06711166,-22.68,45.18,-19.98
1554108432003,-5.023035,-8.437764999999999,-0.17298107,0.7765778,0.023435817999999997,-0.07350325,-22.74,45.42,-19.8
1554108432024,-5.133168,-8.160038,-0.36930559999999996,0.81918836,0.012783173500000002,-0.07776430000000001,-22.8,45.6,-20.04
1554108432044,-5.1762643,-8.131308,-0.17298107,0.7126619000000001,-0.0031957934000000003,-0.08628642,-22.86,45.48,-20.52
1554108432063,-5.2145715,-8.279748,-0.02932897,0.6679208000000001,-0.023435817999999997,-0.09587380000000001,-22.86,45.42,-20.76
1554108432083,-5.209783,-8.351574000000001,0.15741876,0.6508765999999999,-0.054328485999999995,-0.10439592,-22.92,44.88,-21.54
1554108432104,-5.272032299999999,-8.169615,0.3345897,0.65194184,-0.08735169,-0.10759171,-22.92,44.52,-22.08
1554108432124,-5.291186,-8.380303999999999,0.29628247,0.664725,-0.113983296,-0.083090626,-22.98,44.1,-22.56
1554108432144,-5.2768207,-8.4664955,0.34895490000000007,0.6562029,-0.12676647,-0.05752428,-22.98,43.62,-23.04
1554108432164,-5.363012,-8.370728,0.25318682,0.5954828000000001,-0.1438107,-0.037284255,-22.98,43.14,-23.46
1554108432183,-5.45878,-8.251018,0.53091425,0.5006742999999999,-0.16085494,-0.013848438000000001,-23.04,42.72,-24.0
1554108432203,-5.248090299999999,-8.30369,0.5069722,0.46125950000000004,-0.165116,0.0063915867,-23.04,42.3,-24.36
1554108432224,-5.257667,-8.289325,0.6889314999999999,0.46232477,-0.16298546,0.024501082,-23.04,42.0,-24.78
1554108432244,-5.267244,-8.126519,0.86610246,0.45273739999999996,-0.15765914,0.027696876000000002,-23.04,41.76,-25.2
1554108432264,-5.2049947,-8.083424,0.74639237,0.38136467,-0.14487597,0.034088463,-23.1,41.58,-25.62
1554108432284,-5.1571107000000005,-7.958925,0.75118077,0.24501082,-0.12996227,0.04474111,-23.1,41.34,-26.1
1554108432304,-5.1666875,-8.045116,0.65541273,0.10865697,-0.11824436,0.043675844000000005,-23.1,41.1,-26.52
1554108432323,-5.023035,-8.174403,1.1486181999999998,0.10439592,-0.10013486,0.03834952,-23.16,40.86,-26.88
1554108432343,-4.9320555,-8.227076,1.4215573000000001,0.26525086,-0.09374327,0.03089267,-23.16,40.56,-27.12
1554108432364,-4.984728,-7.9876556,1.0576386,0.38775626,-0.084155895,0.023435817999999997,-23.16,40.32,-27.3
1554108432384,-5.027823400000001,-7.844003,0.95708215,0.25672874,-0.068176925,0.00958738,-23.22,40.14,-27.48
1554108432403,-4.965574299999999,-7.949348,1.0145429,0.034088463,-0.060720075,0.0,-23.22,39.96,-27.6
1554108432424,-5.0086699999999995,-8.131308,1.3066356000000001,-0.09161274,-0.034088463,0.0,-23.22,39.78,-27.72
1554108432444,-4.960786,-8.231864,1.7088615000000003,-0.05006743,-0.011717908999999999,-0.027696876000000002,-23.16,39.66,-27.78
1554108432464,-4.9081135,-8.140884,1.6035166,0.094808534,-0.007456851,-0.047936900000000005,-23.16,39.54,-27.78
1554108432483,-5.118803,-7.973290400000001,1.4407108999999998,0.20559604,-0.008522116,-0.06604639400000001,-23.1,39.42,-27.84
1554108432504,-5.1235914000000005,-7.9301944,1.0480618,0.20453078,-0.015978966,-0.07456851,-23.04,39.24,-27.84
1554108432524,-5.1571107000000005,-7.973290400000001,1.3305776000000002,0.10652645,-0.010652645,-0.080960095,-23.04,39.12,-27.84
1554108432544,-5.1762643,-8.040328,1.6083049999999999,0.06924219,-0.007456851,-0.09374327,-23.04,38.94,-27.84
1554108432563,-5.2049947,-8.203134,1.5364790000000002,0.12357068,-0.012783173500000002,-0.09267801,-22.98,38.82,-27.9
1554108432583,-5.185841,-8.131308,1.5699978,0.18748654,-0.020240024,-0.09374327,-22.98,38.7,-27.9
1554108432604,-5.233725,-8.121731,1.2826935,0.19068234,-0.027696876000000002,-0.09054748,-22.98,38.58,-28.02
1554108432624,-5.315128,-8.298902,1.7136499,0.15552860000000002,-0.023435817999999997,-0.068176925,-22.98,38.52,-28.08
1554108432644,-5.185841,-8.332419999999999,1.632247,0.2034655,-0.024501082,-0.05006743,-23.1,38.52,-28.26
1554108432664,-5.1810527,-8.06427,1.6897078999999997,0.2545982,-0.024501082,-0.03834952,-23.1,38.52,-28.38
1554108432684,-5.1906295,-8.006809,1.5699978,0.221575,-0.025566347000000003,-0.020240024,-23.16,38.52,-28.5
1554108432705,-5.272032299999999,-8.059482000000001,1.38325,0.12463594,-0.018109497,-0.004261058,-23.16,38.52,-28.68
1554108432725,-5.2049947,-8.145673,1.9434932,0.128897,-0.010652645,-0.007456851,-23.16,38.52,-28.8
1554108432745,-5.118803,-8.140884,1.881244,0.22370553,-0.002130529,0.013848438000000001,-23.22,38.34,-28.92
1554108432765,-5.1762643,-7.820061,1.7040731,0.23009712,0.0031957934000000003,0.023435817999999997,-23.22,38.16,-29.04
1554108432784,-5.2145715,-7.753023599999999,1.4263457,0.11930962,0.014913702,0.033023197000000004,-23.22,37.86,-29.16
1554108432804,-5.3007627,-7.85358,1.5699978,0.01917476,0.017044231,0.037284255,-23.22,37.62,-29.22
1554108432824,-5.209783,-7.901464,1.8620903000000002,0.01917476,0.015978966,0.043675844000000005,-23.22,37.32,-29.28
1554108432844,-5.2241483,-7.882310400000001,1.5364790000000002,0.053263225,0.00958738,0.036218993,-23.28,37.08,-29.4
1554108432863,-5.1235914000000005,-7.772177,1.6944963,0.05752428,0.022370555,0.02876214,-23.4,36.84,-29.46
1554108432883,-5.2049947,-8.016386,1.7758990000000001,0.041545313,0.02130529,0.022370555,-23.4,36.66,-29.64
1554108432904,-5.243302,-8.140884,1.6753427,-0.029827405,0.014913702,0.056459017,-23.46,36.54,-29.82
1554108432924,-5.3821654,-8.107366,1.7663223000000001,-0.04474111,0.012783173500000002,0.06178534,-23.46,36.48,-30.0
1554108432943,-5.3390699999999995,-8.131308,1.8620903000000002,-0.004261058,0.0053263223,0.06391586,-23.52,36.54,-30.18
1554108432964,-5.3390699999999995,-7.8152729999999995,1.7423803,0.07137272,0.007456851,0.07882957,-23.52,36.66,-30.36
1554108432983,-5.482722,-7.719505000000001,1.8333599999999999,0.10759171,0.023435817999999997,0.07563378,-23.52,36.72,-30.48
1554108433004,-5.401319,-7.901464,1.8860323,0.036218993,0.035153727999999995,0.09587380000000001,-23.46,36.78,-30.54
1554108433023,-5.3821654,-8.198345,1.9339164,0.03834952,0.03195793,0.10546118,-23.46,36.84,-30.54
1554108433043,-5.377377,-8.136096,1.9339164,0.1107875,0.035153727999999995,0.10652645,-23.4,36.9,-30.48
1554108433065,-5.4970870000000005,-7.939771,1.8860323,0.18961707,0.041545313,0.10439592,-23.28,36.96,-30.36
1554108433084,-5.645528,-7.867945,1.9578583999999999,0.19707392,0.041545313,0.1107875,-23.22,37.02,-30.24
1554108433104,-5.5641245999999995,-7.896675599999999,2.1493945,0.2066613,0.036218993,0.12676647,-23.16,37.08,-30.18
1554108433124,-5.4539914000000005,-7.85358,2.0727801,0.22264028,0.02876214,0.14807177,-23.1,37.14,-30.06
1554108433143,-5.5401826,-7.7865424,2.273893,0.25140239999999997,0.033023197000000004,0.1587244,-22.98,37.2,-30.06
1554108433163,-5.6407394,-7.7147164,2.0727801,0.31851408,0.026631612000000002,0.15552860000000002,-22.92,37.2,-30.12
1554108433184,-5.664681400000001,-7.6668324000000005,2.0727801,0.37816888,0.015978966,0.1587244,-22.8,37.2,-30.24
1554108433204,-5.7365074,-7.6093717000000005,2.1015105,0.39308259999999995,0.012783173500000002,0.1587244,-22.56,37.14,-30.42
1554108433224,-5.6551046,-7.590217999999999,2.1493945,0.4079963,0.010652645,0.15126756,-22.38,36.96,-30.66
1554108433244,-5.602432,-7.4322004,2.3696610000000002,0.42717105,0.02130529,0.14061491,-22.08,36.78,-30.9
1554108433263,-5.5976434,-7.379528,2.5372553,0.44847634,0.018109497,0.12996227,-21.84,36.54,-31.2
1554108433284,-5.8322754,-7.379528,2.3696610000000002,0.44741106,0.018109497,0.12357068,-21.54,36.3,-31.5
1554108433304,-5.8179099999999995,-7.331644,2.475006,0.41758367,0.0031957934000000003,0.12463594,-21.3,36.0,-31.8
1554108433323,-5.6982,-7.3268557,2.6378117000000003,0.4101268,0.0053263223,0.111852765,-21.12,35.76,-32.1
1554108433344,-5.6790465999999995,-7.211933999999999,2.6234465,0.39840892,0.0010652645,0.09374327,-20.94,35.46,-32.34
1554108433364,-5.774814599999999,-7.1113777,2.6378117000000003,0.36218992,0.007456851,0.07350325,-20.88,35.22,-32.52
1554108433384,-5.760449400000001,-7.0251865,2.4893713,0.32490566,0.010652645,0.049002163,-20.82,35.04,-32.64
1554108433403,-5.9184665999999995,-7.0587053,2.4271219,0.27377295,0.00958738,0.04261058,-20.88,34.86,-32.76
1554108433423,-5.8466406,-7.1688385,2.747945,0.23222765,0.010652645,0.040480047000000005,-20.88,34.62,-32.88
1554108433444,-5.837064,-7.044339999999999,2.7623102999999998,0.24394555,0.004261058,0.035153727999999995,-20.94,34.38,-33.06
1554108433464,-5.8274870000000005,-7.0730705,2.747945,0.23542345,0.00958738,0.026631612000000002,-20.88,34.14,-33.18
1554108433484,-5.803545,-7.053917,2.5899277,0.20240025,0.015978966,0.010652645,-20.82,33.96,-33.36
1554108433504,-5.875371,-6.9677253,2.6761188999999996,0.1949434,0.020240024,0.0063915867,-20.82,33.72,-33.48
1554108433526,-5.971139,-7.006033,2.5516205000000003,0.17363810000000002,0.01917476,-0.0053263223,-20.76,33.54,-33.66
1554108433544,-5.913678,-6.7761892999999995,2.7000610000000003,0.026631612000000002,0.022370555,-0.0031957934000000003,-20.7,33.36,-33.84
1554108433563,-6.009446,-6.9342065,2.9059622000000003,-0.09374327,0.03089267,-0.0063915867,-20.7,33.12,-33.96
1554108433584,-5.8705826,-7.0730705,2.891597,-0.06498113,0.01917476,-0.015978966,-20.64,33.0,-34.08
1554108433604,-5.8274870000000005,-7.077858999999999,2.843713,-0.002130529,0.015978966,-0.026631612000000002,-20.58,32.94,-34.14
1554108433624,-5.9567738,-6.905475999999999,2.7144263,0.0063915867,0.014913702,-0.049002163,-20.58,32.88,-34.14
1554108433643,-5.9041014,-6.8528037,2.7575218999999995,-0.03195793,0.015978966,-0.05752428,-20.58,32.76,-34.2
1554108433663,-5.865794,-6.938994999999999,2.7383683,-0.09587380000000001,0.011717908999999999,-0.06178534,-20.58,32.7,-34.2
1554108433684,-5.8801594,-6.9150529999999995,2.7096379,-0.18216023,0.012783173500000002,-0.07243799,-20.58,32.64,-34.2
1554108433704,-5.8849480000000005,-7.1113777,2.8532897999999998,-0.18855181,0.00958738,-0.084155895,-20.58,32.58,-34.2
1554108433723,-5.990292500000001,-7.1592617,2.891597,-0.10226539,0.002130529,-0.082025364,-20.58,32.58,-34.2
1554108433743,-5.8705826,-7.0491285,2.8485014,-0.023435817999999997,-0.0031957934000000003,-0.08628642,-20.58,32.58,-34.2
1554108433764,-5.8945246,-7.149685000000001,2.7766755,-0.024501082,0.0,-0.080960095,-20.58,32.52,-34.2
1554108433783,-5.923255,-7.178415299999999,2.8963853999999998,-0.026631612000000002,0.010652645,-0.07350325,-20.58,32.52,-34.2
1554108433803,-6.0285997,-7.0491285,2.9203273999999997,-0.025566347000000003,0.017044231,-0.07456851,-20.58,32.46,-34.2
1554108433824,-6.047753299999999,-7.1448965,2.7144263,-0.060720075,0.015978966,-0.07563378,-20.64,32.4,-34.14
1554108433844,-5.9184665999999995,-7.16405,2.6856956000000003,-0.10333065,0.018109497,-0.06924219,-20.64,32.4,-34.14
1554108433864,-6.0142345,-7.2215110000000005,2.8772318,-0.07456851,0.01917476,-0.07137272,-20.64,32.4,-34.14
1554108433884,-5.971139,-7.3220673,2.7766755,-0.004261058,0.014913702,-0.056459017,-20.64,32.4,-34.14
1554108433903,-5.9807158,-7.015609700000001,2.8772318,0.03195793,0.011717908999999999,-0.05965481,-20.64,32.46,-34.14
1554108433923,-5.990292500000001,-7.0730705,2.5755625,0.00958738,0.004261058,-0.06178534,-20.64,32.52,-34.14
1554108433944,-5.966350599999999,-7.2215110000000005,2.7383683,-0.036218993,-0.002130529,-0.054328485999999995,-20.64,32.64,-34.14
1554108433964,-5.841851999999999,-7.1353197,2.819771,-0.043675844000000005,-0.0063915867,-0.053263225,-20.64,32.7,-34.2
1554108433984,-5.837064,-7.2262993,2.6521769,-0.01917476,-0.008522116,-0.053263225,-20.64,32.82,-34.26
1554108434003,-5.8179099999999995,-7.211933999999999,2.8341362,0.012783173500000002,-0.004261058,-0.05219796,-20.7,32.88,-34.32
1554108434023,-5.865794,-7.1209545,2.7431567,0.043675844000000005,-0.0053263223,-0.05752428,-20.7,32.94,-34.38
1554108434044,-5.774814599999999,-7.092224000000001,2.6378117000000003,0.029827405,-0.010652645,-0.060720075,-20.7,32.94,-34.44
1554108434064,-5.8226986,-7.077858999999999,2.594716,-0.014913702,-0.002130529,-0.056459017,-20.7,32.94,-34.44
1554108434084,-5.837064,-7.2741833,2.8580782000000005,-0.010652645,0.004261058,-0.068176925,-20.7,32.94,-34.5
1554108434104,-5.865794,-7.379528,2.5611973,0.03089267,-0.002130529,-0.080960095,-20.64,32.94,-34.5
1554108434124,-5.8945246,-7.154473299999999,2.5851393,0.039414786,-0.0053263223,-0.083090626,-20.58,32.88,-34.5
1554108434143,-5.861006,-7.0826473,2.508525,-0.035153727999999995,-0.007456851,-0.07989483,-20.58,32.88,-34.5
1554108434163,-5.9041014,-7.16405,2.7814639,-0.083090626,0.002130529,-0.07776430000000001,-20.52,32.82,-34.44
1554108434184,-5.8466406,-7.355586,2.843713,-0.04580637,-0.0010652645,-0.068176925,-20.46,32.76,-34.44
1554108434204,-5.8945246,-7.2502413,2.747945,0.00958738,-0.0031957934000000003,-0.06178534,-20.4,32.76,-34.38
1554108434223,-5.951985400000001,-7.211933999999999,2.7862522999999997,0.012783173500000002,0.002130529,-0.05965481,-20.34,32.76,-34.38
1554108434244,-5.985504,-7.331644,2.6809072,0.015978966,0.002130529,-0.053263225,-20.34,32.7,-34.32
1554108434263,-5.995081,-7.269394999999999,2.7048495,0.020240024,0.0053263223,-0.04580637,-20.4,32.7,-34.32
1554108434283,-5.899312999999999,-7.1209545,2.6426,0.0063915867,-0.004261058,-0.046871635999999994,-20.34,32.7,-34.32
1554108434304,-5.951985400000001,-7.16405,2.5228900000000003,-0.024501082,-0.004261058,-0.04474111,-20.34,32.7,-34.26
1554108434324,-5.8945246,-7.2981253,2.7527334999999997,-0.022370555,-0.011717908999999999,-0.036218993,-20.34,32.7,-34.26
1554108434345,-5.8849480000000005,-7.1879919999999995,2.747945,0.015978966,-0.017044231,-0.03195793,-20.34,32.76,-34.26
1554108434364,-5.875371,-7.149685000000001,2.7383683,0.036218993,-0.013848438000000001,-0.03089267,-20.34,32.76,-34.26
1554108434384,-5.78918,-7.2167225,2.7575218999999995,0.04474111,-0.008522116,-0.03195793,-20.34,32.76,-34.26
1554108434403,-5.8849480000000005,-7.1448965,2.747945,0.049002163,-0.0063915867,-0.039414786,-20.34,32.76,-34.26
1554108434423,-5.8705826,-7.0826473,2.690484,0.041545313,-0.0063915867,-0.041545313,-20.34,32.76,-34.26
1554108434443,-5.8849480000000005,-7.1305312999999995,2.6234465,0.01917476,-0.0063915867,-0.039414786,-20.4,32.76,-34.2
1554108434464,-5.8466406,-7.116166000000001,2.7335799,-0.004261058,-0.0031957934000000003,-0.04261058,-20.4,32.7,-34.14
1554108434484,-5.7700260000000005,-7.1879919999999995,2.7670987,0.0053263223,-0.002130529,-0.05219796,-20.4,32.7,-34.08
1554108434503,-5.803545,-7.2646065,2.8293478,0.05752428,-0.0063915867,-0.056459017,-20.4,32.7,-34.02
1554108434523,-5.8274870000000005,-7.140108000000001,2.819771,0.10439592,-0.013848438000000001,-0.06604639400000001,-20.46,32.7,-34.02
1554108434544,-5.8562174,-7.1113777,2.6521769,0.094808534,-0.02130529,-0.07243799,-20.4,32.7,-33.96
1554108434564,-5.861006,-7.116166000000001,2.8006175,0.035153727999999995,-0.02130529,-0.068176925,-20.46,32.64,-33.96
1554108434584,-5.8226986,-7.283760000000001,2.9394810000000002,0.0053263223,-0.02876214,-0.05965481,-20.46,32.64,-34.02
1554108434603,-5.841851999999999,-7.3124905,2.891597,0.03089267,-0.03195793,-0.058589544,-20.46,32.64,-34.08
1554108434623,-5.9184665999999995,-7.2789717000000005,2.949058,0.08735169,-0.026631612000000002,-0.058589544,-20.46,32.58,-34.14
1554108434644,-5.8945246,-7.2789717000000005,3.020884,0.20240025,-0.033023197000000004,-0.053263225,-20.52,32.4,-34.2
1554108434664,-5.837064,-7.092224000000001,2.5851393,0.1949434,-0.046871635999999994,-0.04474111,-20.58,32.34,-34.26
1554108434684,-5.803545,-6.996455999999999,2.8293478,0.084155895,-0.04580637,-0.041545313,-20.64,32.22,-34.26
1554108434704,-5.8945246,-7.1209545,2.9394810000000002,0.012783173500000002,-0.041545313,-0.02876214,-20.7,32.1,-34.32
1554108434723,-5.8945246,-7.1879919999999995,2.9825767999999995,0.06498113,-0.04474111,-0.026631612000000002,-20.7,31.98,-34.32
1554108434743,-5.9567738,-7.269394999999999,2.9299042,0.12783173,-0.05219796,-0.027696876000000002,-20.76,31.92,-34.32
1554108434764,-5.923255,-7.1305312999999995,2.9730000000000003,0.10546118,-0.058589544,-0.02130529,-20.82,31.8,-34.32
1554108434783,-5.923255,-7.2262993,3.2124202,0.07243799,-0.051132694000000006,-0.0053263223,-20.82,31.74,-34.38
1554108434804,-5.8322754,-7.2789717000000005,3.0304607999999997,0.09161274,-0.05219796,0.014913702,-20.82,31.74,-34.38
1554108434824,-5.8945246,-7.1353197,2.9538465,0.08948222,-0.05006743,0.025566347000000003,-20.82,31.74,-34.44
1554108434843,-5.990292500000001,-7.1353197,3.1214404,0.084155895,-0.04261058,0.033023197000000004,-20.82,31.68,-34.5
1554108434863,-5.899312999999999,-7.2789717000000005,3.0352492,0.11930962,-0.04474111,0.053263225,-20.82,31.62,-34.62
1554108434884,-5.971139,-7.0874357,3.0160956000000003,0.14594123,-0.04261058,0.06391586,-20.88,31.56,-34.68
1554108434904,-5.990292500000001,-6.986878999999999,3.0065188,0.14061491,-0.04580637,0.068176925,-20.88,31.56,-34.74
1554108434924,-6.1243677000000005,-7.16405,3.1453824,0.14807177,-0.05006743,0.07669904,-20.94,31.5,-34.8
1554108434943,-6.100425700000001,-7.2262993,3.1741127999999996,0.17896444,-0.06391586,0.10759171,-21.0,31.44,-34.86
1554108434964,-6.1100025,-7.077858999999999,3.1501707999999997,0.18855181,-0.07669904,0.13315806,-21.06,31.38,-34.92
1554108434984,-6.1866174,-7.2215110000000005,3.1693244,0.19813919,-0.07882957,0.15978967,-21.12,31.32,-34.92
1554108435003,-6.133945,-7.1113777,3.3369186,0.2695119,-0.08628642,0.17363810000000002,-21.12,31.26,-34.98
1554108435023,-6.1387334000000005,-7.006033,3.4183214,0.31957933,-0.09054748,0.19174760000000002,-21.18,31.14,-34.98
1554108435044,-6.1578870000000006,-6.9102645,3.365649,0.33981937,-0.08735169,0.20772657,-21.12,31.02,-35.1
1554108435064,-6.0381765,-6.9150529999999995,3.470994,0.4079963,-0.07456851,0.22264028,-21.12,30.78,-35.28
1554108435084,-5.985504,-6.8049197,3.5859156000000003,0.5091964,-0.06285059999999999,0.23116238,-21.12,30.54,-35.52
1554108435103,-5.975927400000001,-6.5942300000000005,3.6673183,0.58696073,-0.05965481,0.22370553,-21.06,30.36,-35.76
1554108435123,-5.889736,-6.4745197,3.6098576,0.6487460999999999,-0.04580637,0.22050974,-21.06,30.12,-35.94
1554108435144,-5.8801594,-6.282984,3.6098576,0.68389976,-0.02876214,0.21411815,-21.0,29.88,-36.24
1554108435163,-5.726930599999999,-6.1153900000000005,3.6194344,0.73609775,-0.01917476,0.18642128,-20.94,29.58,-36.48
1554108435184,-5.664681400000001,-5.9717374,3.5954924,0.7776430000000001,-0.0063915867,0.14487597,-20.82,29.16,-36.78
1554108435204,-5.434838,-5.6700683,3.54282,0.7499462,0.0,0.11824436,-20.58,28.68,-37.02
1554108435224,-5.4970870000000005,-5.579088700000001,3.3895910000000002,0.63383234,0.004261058,0.07669904,-20.34,28.2,-37.38
1554108435246,-5.635950599999999,-5.655703,3.4183214,0.45699844,0.008522116,0.025566347000000003,-20.1,27.66,-37.8
1554108435265,-5.612008599999999,-5.6509147,3.6768951000000003,0.30786142,0.015978966,-0.026631612000000002,-19.86,27.06,-38.16
1554108435285,-5.93762,-5.828085400000001,3.6864722000000003,0.19600865,0.017044231,-0.05219796,-19.62,26.46,-38.52
1554108435305,-5.971139,-5.7945666,3.9402574999999995,-0.00958738,0.024501082,-0.08735169,-19.38,25.86,-38.82
1554108435324,-6.325481,-5.957372,4.3568487000000005,-0.16831179,0.046871635999999994,-0.12357068,-19.26,25.26,-39.12
1554108435343,-6.517017,-6.282984,4.5914803,-0.2066613,0.053263225,-0.11930962,-19.08,24.9,-39.36
1554108435364,-6.708553299999999,-6.632537400000001,4.5962687,-0.18429075,0.06178534,-0.080960095,-19.08,24.6,-39.48
1554108435384,-7.0102224,-6.7283053,4.931457,-0.111852765,0.07030745599999999,-0.06178534,-19.08,24.3,-39.48
1554108435403,-6.9623384,-6.469731299999999,4.955399,-0.002130529,0.08522116,-0.004261058,-19.14,24.18,-39.42
1554108435423,-7.062895,-6.7091517000000005,4.7830167,0.083090626,0.098004326,0.10546118,-19.14,24.06,-39.36
1554108435443,-7.1634517,-6.8528037,4.68246,0.10226539,0.113983296,0.20240025,-19.2,24.06,-39.36
1554108435464,-7.273585000000001,-6.6469026,4.68246,0.18109496,0.10652645,0.28229508,-19.26,24.06,-39.3
1554108435484,-7.062895,-6.5942300000000005,4.821324,0.27164245,0.09267801,0.35579833,-19.32,24.06,-39.36
1554108435503,-6.8665705,-6.335656,4.7878050000000005,0.37603834,0.08948222,0.42397526,-19.38,24.12,-39.36
1554108435523,-6.947973299999999,-6.225523,4.6537294000000005,0.58696073,0.080960095,0.44954160000000004,-19.38,24.18,-39.42
1554108435544,-6.991069,-6.187216,4.7494974,0.8213189000000001,0.07243799,0.49215218,-19.32,24.18,-39.42
1554108435564,-6.627150500000001,-5.6365495,4.6058455,1.0503508,0.05219796,0.49854377,-19.2,24.18,-39.48
1554108435583,-6.6415157,-5.248688700000001,4.4765587,1.1483551,0.05006743,0.49108690000000005,-19.08,23.94,-39.54
1554108435605,-6.646304,-5.143344,4.524442700000001,1.1377025,0.06391586,0.49641323,-18.84,23.46,-39.66
1554108435623,-6.5505357,-4.860828,4.601057,1.1899004,0.06391586,0.5028047999999999,-18.66,22.8,-39.84
1554108435645,-6.435614,-4.6980224,4.500500700000001,1.284709,0.07137272,0.4857606,-18.42,22.02,-40.02
1554108435664,-6.497863300000001,-4.329315,4.6441526,1.320928,0.08628642,0.42717105,-18.18,21.06,-40.32
1554108435684,-6.4068837,-4.2957964,4.6920366,1.325189,0.10013486,0.36112466,-17.88,19.92,-40.68
1554108435704,-6.373365,-3.8600516000000002,4.7734394,1.2964269,0.11504856,0.31851408,-17.64,18.66,-41.04
1554108435724,-6.430825700000001,-3.5057099999999997,4.68246,1.2069446000000001,0.12144015,0.26844665,-17.4,17.28,-41.46
1554108435743,-6.588842999999999,-3.1657330000000004,4.577115,1.0503508,0.128897,0.22690132,-17.16,15.84,-41.88
1554108435763,-6.684611299999999,-3.1082723,4.830900700000001,0.88949585,0.13528858,0.19387813,-16.92,14.58,-42.3
1554108435784,-6.593631299999999,-2.9741971,5.0846860000000005,0.7914915,0.12357068,0.13741912,-16.74,13.32,-42.66
1554108435804,-6.679823,-2.7491422,5.137358,0.73290193,0.11611383,0.07243799,-16.56,12.12,-43.02
1554108435824,-6.823475,-2.581548,4.907515,0.6221144000000001,0.10652645,0.026631612000000002,-16.38,11.1,-43.32
1554108435844,-7.062895,-2.6007016,5.027225,0.46765109999999993,0.11717909,0.00958738,-16.26,10.08,-43.62
1554108435863,-7.077260000000001,-2.6533740000000003,5.3863554,0.43249738,0.10972224,-0.018109497,-16.14,9.18,-43.98
1554108435884,-7.0724716,-2.8401217,5.37199,0.52411014,0.096939065,-0.027696876000000002,-16.02,8.28,-44.28
1554108435904,-7.153875,-2.7587189999999997,5.204396,0.5613944000000001,0.07669904,-0.05965481,-15.9,7.68,-44.58
1554108435924,-7.302314999999999,-2.5576060000000003,5.0463786,0.47830373,0.06391586,-0.10652645,-15.78,7.02,-44.76
1554108435944,-7.4746976,-2.4187422,5.266645,0.34408042,0.068176925,-0.13954964,-15.66,6.42,-45.0
1554108435963,-7.254431200000001,-2.3373394,5.233126,0.2790993,0.06285059999999999,-0.15659387,-15.54,5.88,-45.18
1554108435984,-7.2592196,-2.1505916000000003,5.458181400000001,0.22690132,0.07137272,-0.15659387,-15.42,5.4,-45.36
1554108436004,-7.268796400000001,-2.236783,5.142146599999999,0.101200126,0.07882957,-0.15339808,-15.3,4.92,-45.54
1554108436024,-7.4268136,-2.4714148,5.0798974,-0.05006743,0.08948222,-0.14061491,-15.18,4.56,-45.66
1554108436043,-7.369353,-2.8496985,5.266645,-0.12570119999999999,0.08948222,-0.13102753,-15.12,4.2,-45.72
1554108436063,-7.3549875999999985,-2.8927941,5.175665400000001,-0.14274544,0.07456851,-0.13315806,-15.18,3.84,-45.78
1554108436084,-7.369353,-2.9981391,5.266645,-0.12463594,0.058589544,-0.15126756,-15.18,3.6,-45.9
1554108436104,-7.541735000000001,-3.031658,5.2618566,-0.07563378,0.05752428,-0.14168017,-15.18,3.42,-45.96
1554108436123,-7.5800424,-3.1226375,5.348048,-0.046871635999999994,0.05219796,-0.113983296,-15.18,3.3,-46.08
1554108436143,-7.5273699999999995,-2.9694088,5.620987,-0.01917476,0.039414786,-0.096939065,-15.18,3.18,-46.14
1554108436164,-7.5608889999999995,-2.9358897,5.563526,-0.017044231,0.025566347000000003,-0.07669904,-15.18,3.12,-46.2
1554108436184,-7.2831616,-2.902371,5.506065400000001,-0.0031957934000000003,0.020240024,-0.051132694000000006,-15.18,3.12,-46.2
1554108436204,-7.383717999999999,-2.9789855,5.482123400000001,0.033023197000000004,0.025566347000000003,-0.043675844000000005,-15.12,3.06,-46.2
1554108436224,-7.3549875999999985,-2.6964695,5.429451,0.06178534,0.024501082,-0.060720075,-15.12,3.06,-46.14
1554108436244,-7.383717999999999,-2.8880057,5.099051,0.06391586,0.00958738,-0.05219796,-15.12,3.06,-46.08
1554108436263,-7.192182000000001,-3.0364463,5.319318,0.10865697,0.002130529,-0.025566347000000003,-15.06,3.06,-45.96
1554108436284,-7.383717999999999,-3.0412347,5.290587400000001,0.17044231,-0.02130529,-0.01917476,-15.06,3.0,-45.84
1554108436304,-7.575253999999999,-3.0125043,5.1900306,0.12144015,-0.033023197000000004,-0.023435817999999997,-15.06,3.0,-45.78
1554108436324,-7.546523599999999,-2.926313,5.3145294000000005,0.0010652645,-0.027696876000000002,-0.008522116,-15.06,3.0,-45.66
1554108436343,-7.240066000000001,-2.6390088,5.568314599999999,-0.049002163,0.0,-0.0063915867,-15.06,2.94,-45.6
1554108436363,-7.3645644,-2.8113914,5.587468,0.02876214,0.008522116,-0.002130529,-15.0,2.94,-45.6
1554108436383,-7.5561004,-3.0268695,5.4055089999999995,0.07776430000000001,0.0010652645,0.012783173500000002,-15.0,2.94,-45.66
1554108436404,-7.407660000000001,-2.8209682000000003,5.4007206,0.09054748,-0.012783173500000002,0.00958738,-14.94,3.0,-45.66
1554108436424,-7.335833999999999,-2.710835,5.295376,0.05006743,-0.010652645,0.0,-14.94,3.06,-45.72
1554108436444,-7.445967,-2.7539306,5.3863554,-0.03089267,-0.007456851,0.0031957934000000003,-14.94,3.06,-45.72
1554108436464,-7.4124484,-3.0172927000000005,5.391144000000001,-0.07563378,-0.0053263223,0.010652645,-14.94,3.12,-45.72
1554108436483,-7.723694999999999,-3.1753099999999996,5.6161985,-0.07456851,-0.004261058,0.012783173500000002,-14.94,3.12,-45.72
1554108436503,-7.398083,-2.60549,5.7790045999999995,-0.09054748,0.024501082,-0.017044231,-14.88,3.12,-45.72
1554108436524,-7.345411,-2.9550436,5.295376,-0.07669904,0.033023197000000004,-0.017044231,-14.88,3.06,-45.66
1554108436544,-7.110779300000001,-2.9885623,5.5539494000000005,0.0053263223,0.043675844000000005,0.011717908999999999,-14.88,3.06,-45.6
1554108436564,-7.2592196,-3.1657330000000004,5.290587400000001,0.09587380000000001,0.012783173500000002,-0.007456851,-14.88,2.94,-45.6
1554108436583,-7.2831616,-2.9311013,5.2810106,0.084155895,-0.0031957934000000003,0.0,-14.88,2.88,-45.6
1554108436603,-7.326257000000001,-2.9358897,5.34326,0.05219796,-0.004261058,-0.020240024,-14.88,2.82,-45.66
1554108436624,-7.273585000000001,-2.9741971,5.486912,0.026631612000000002,-0.013848438000000001,-0.027696876000000002,-14.88,2.76,-45.66
1554108436644,-7.350199000000001,-2.9311013,5.5826797,-0.004261058,-0.017044231,-0.03089267,-14.82,2.7,-45.72
1554108436664,-7.268796400000001,-2.8449101000000003,5.357625,0.015978966,-0.015978966,-0.054328485999999995,-14.88,2.64,-45.72
1554108436684,-7.4268136,-2.8257565,5.510854,0.010652645,-0.012783173500000002,-0.068176925,-14.88,2.64,-45.72
1554108436703,-7.493850999999999,-2.8592752999999997,5.4102974,-0.041545313,-0.014913702,-0.08628642,-14.88,2.58,-45.78
1554108436723,-7.723694999999999,-3.2040405,5.37199,-0.14061491,-0.0063915867,-0.033023197000000004,-14.88,2.58,-45.72
1554108436744,-7.5608889999999995,-3.256713,5.6784476999999995,-0.15126756,0.013848438000000001,0.013848438000000001,-14.88,2.64,-45.72
1554108436763,-7.302314999999999,-2.8401217,5.7598505,0.0053263223,0.02130529,-0.002130529,-14.88,2.7,-45.72
1554108436783,-7.0006455999999995,-2.4762032000000005,5.635351999999999,0.2130529,0.014913702,-0.0063915867,-14.88,2.76,-45.78
1554108436806,-6.8665705,-2.212841,5.391144000000001,0.42184472,-0.0010652645,-0.051132694000000006,-14.88,2.88,-45.78
1554108436824,-6.947973299999999,-2.0979192,5.233126,0.44315,-0.008522116,-0.06285059999999999,-14.82,2.94,-45.78
1554108436843,-6.933608,-2.2415714,5.333683000000001,0.32384038,-0.015978966,-0.023435817999999997,-14.82,3.0,-45.84
1554108436864,-7.0485296,-2.4139538,5.2810106,0.17470337,-0.0031957934000000003,-0.027696876000000002,-14.76,3.0,-45.84
1554108436883,-7.043741000000001,-2.710835,5.443816,0.010652645,0.002130529,-0.08628642,-14.76,2.82,-45.9
1554108436903,-7.015011,-2.7060466,5.429451,-0.04261058,0.022370555,-0.10333065,-14.76,2.52,-45.96
1554108436923,-7.067683000000001,-2.6342204,5.9130797,0.040480047000000005,0.041545313,-0.11824436,-14.7,2.22,-45.96
1554108436943,-7.3214690000000004,-3.1705215,5.367202,0.15446335,0.04474111,-0.14061491,-14.7,1.86,-45.96
1554108436964,-7.666233999999999,-3.1609447,5.458181400000001,0.1949434,0.04261058,-0.17363810000000002,-14.7,1.5,-45.96
1554108436983,-8.006210000000001,-2.7491422,5.213972599999999,0.13954964,0.022370555,-0.17150758,-14.7,1.14,-45.96
1554108437004,-8.049306,-2.6437972000000003,4.8404775,0.017044231,-0.00958738,-0.15020229,-14.7,0.84,-45.96
1554108437024,-8.154651,-2.9215245,5.233126,-0.13422333,-0.017044231,-0.07776430000000001,-14.7,0.66,-45.96
1554108437043,-7.9248075,-2.9885623,5.462969999999999,-0.14061491,-0.03195793,-0.029827405,-14.76,0.6,-45.96
1554108437063,-8.034941,-3.0412347,5.4342394,-0.040480047000000005,-0.06391586,-0.011717908999999999,-14.76,0.6,-45.96
1554108437084,-8.073248,-2.8688521000000002,5.113416,-0.020240024,-0.068176925,0.023435817999999997,-14.76,0.54,-46.02
1554108437104,-7.7572136,-2.7491422,5.3288946,-0.084155895,-0.07243799,0.046871635999999994,-14.7,0.54,-46.02
1554108437124,-7.1586633,-2.0260932,5.965751999999999,-0.101200126,-0.058589544,0.047936900000000005,-14.7,0.6,-46.02
1554108437144,-6.871359,-2.179322,5.61141,0.0010652645,-0.036218993,0.051132694000000006,-14.7,0.6,-46.02
1554108437163,-7.225700999999999,-2.4762032000000005,5.2810106,0.018109497,-0.033023197000000004,0.011717908999999999,-14.64,0.6,-46.02
1554108437183,-7.2448545,-2.4905684,5.290587400000001,-0.04580637,-0.047936900000000005,-0.040480047000000005,-14.64,0.66,-46.02
1554108437204,-6.8809357,-2.60549,5.807735,-0.13209279,-0.054328485999999995,-0.035153727999999995,-14.58,0.72,-46.02
1554108437223,-7.0006455999999995,-2.9933507,5.4342394,-0.1438107,-0.018109497,-0.02876214,-14.58,0.84,-46.02
1554108437244,-7.2113357,-3.2998084999999997,5.5539494000000005,-0.14807177,-0.020240024,-0.05752428,-14.52,0.9,-46.02
1554108437263,-7.4028716,-2.9789855,5.7454852999999995,-0.165116,-0.023435817999999997,-0.06178534,-14.46,1.02,-46.02
1554108437284,-7.642291999999999,-3.0125043,5.568314599999999,-0.080960095,-0.037284255,-0.07350325,-14.46,1.08,-46.02
1554108437303,-7.4699089999999995,-2.8927941,5.7119665,0.036218993,-0.06924219,-0.07882957,-14.46,1.2,-46.02
1554108437323,-7.431602000000001,-2.9933507,5.7502737,0.06604639400000001,-0.06604639400000001,-0.037284255,-14.46,1.32,-46.02
1554108437344,-7.6710224,-2.6485856,5.6976013,0.011717908999999999,-0.026631612000000002,-0.007456851,-14.46,1.38,-45.96
1554108437365,-7.350199000000001,-2.4283189999999997,5.6018333,0.07350325,-0.0010652645,-0.008522116,-14.46,1.44,-45.96
1554108437384,-7.240066000000001,-2.6150667999999997,5.6880245,0.19707392,0.00958738,-0.0031957934000000003,-14.46,1.5,-45.96
1554108437404,-7.3310455999999995,-2.677316,5.563526,0.25033715,0.041545313,0.0010652645,-14.52,1.5,-45.96
1554108437424,-7.168239999999999,-2.4091654,5.146935,0.25140239999999997,0.03089267,-0.022370555,-14.58,1.5,-45.96
1554108437444,-7.129933,-2.3756466,5.1996074,0.23329292,0.00958738,-0.058589544,-14.64,1.44,-45.96
1554108437464,-7.0102224,-2.4666264,5.482123400000001,0.15552860000000002,-0.024501082,-0.083090626,-14.7,1.38,-45.96
1554108437483,-6.8186865,-2.4187422,5.242703,0.04580637,-0.043675844000000005,-0.098004326,-14.76,1.2,-45.96
1554108437504,-6.8761472999999995,-2.380435,5.228338,-0.02876214,-0.051132694000000006,-0.13528858,-14.82,1.02,-45.96
1554108437523,-7.1826053,-2.6007016,5.204396,-0.080960095,-0.06391586,-0.18642128,-14.94,0.84,-46.02
1554108437543,-7.019799000000001,-2.5528176,5.391144000000001,-0.113983296,-0.08735169,-0.24074976,-14.94,0.72,-46.02
1554108437563,-7.101202000000001,-2.5528176,5.213972599999999,-0.19387813,-0.10652645,-0.28975195,-15.0,0.54,-46.02
1554108437583,-7.153875,-2.6007016,5.209184,-0.330232,-0.10439592,-0.3057309,-15.0,0.42,-46.02
1554108437603,-7.105990400000001,-2.3229742,5.4390279999999995,-0.45380265,-0.10226539,-0.32490566,-15.0,0.36,-46.02
1554108437624,-6.766014,-2.6485856,5.4007206,-0.47191215,-0.098004326,-0.3568636,-15.06,0.36,-46.02
1554108437643,-6.670246000000001,-2.6150667999999997,5.228338,-0.43462790000000007,-0.10759171,-0.39734364,-15.06,0.54,-46.08
1554108437663,-6.612785000000001,-2.3852234,5.0320134,-0.386691,-0.14913702,-0.51026165,-15.12,0.72,-46.08
1554108437684,-6.517017,-2.1745335999999997,4.6537294000000005,-0.50173956,-0.18535602,-0.6061354999999999,-15.12,1.08,-46.08
1554108437703,-6.373365,-2.0500352,4.4382515,-0.8042746999999999,-0.2130529,-0.69774824,-15.24,1.38,-46.08
1554108437723,-6.291962,-2.5528176,4.2658687,-1.1771171999999999,-0.22690132,-0.8000136,-15.3,1.86,-46.08
1554108437744,-6.445191,-3.1753099999999996,4.577115,-1.5169365,-0.21731395,-0.9076053,-15.48,2.4,-46.02
1554108437763,-6.469133,-3.7834373,4.907515,-1.6948358000000001,-0.21624869,-1.0386329,-15.78,3.06,-45.96
1554108437783,-6.469133,-4.487332299999999,5.2474914,-1.7257284,-0.20133498,-1.160073,-16.08,4.08,-45.84
1554108437804,-6.4643445,-5.0906715,5.075108999999999,-1.6777915,-0.15126756,-1.1813782,-16.38,5.16,-45.72
1554108437823,-6.3589997,-5.919065,5.2618566,-1.5371766000000002,-0.06604639400000001,-1.1366372,-16.68,6.48,-45.54
1554108437845,-6.2488665999999995,-6.297349,5.544372599999999,-1.3507552999999999,-0.012783173500000002,-1.1217233999999998,-16.98,7.86,-45.36
1554108437864,-6.5122285,-7.020397999999999,5.472546599999999,-0.8330368,0.023435817999999997,-1.1377025,-17.22,9.24,-45.18
1554108437884,-6.6654577,-6.9581485,5.0798974,-0.5411543000000001,0.047936900000000005,-1.0769824,-17.52,10.5,-44.88
1554108437904,-6.445191,-7.1592617,4.830900700000001,-0.4889564,0.06604639400000001,-0.95234644,-17.82,11.88,-44.52
1554108437923,-6.2345014,-7.3268557,4.2850223,-0.50813115,0.06924219,-0.83729786,-18.0,13.2,-44.16
1554108437944,-6.220136,-7.475296000000001,4.553173,-0.55287224,0.07882957,-0.69774824,-18.18,14.34,-43.8
1554108437963,-5.995081,-7.3220673,4.529230999999999,-0.5134575,0.07243799,-0.58909124,-18.36,15.3,-43.5
1554108437983,-6.0142345,-7.269394999999999,4.361637,-0.44741106,0.05752428,-0.5123922000000001,-18.48,16.08,-43.14
1554108438004,-5.8322754,-7.365163000000001,4.313753,-0.3536678,0.05219796,-0.44421527,-18.66,16.68,-42.72
1554108438023,-5.7365074,-7.4322004,3.9689879999999995,-0.29188246,0.040480047000000005,-0.35899413,-18.84,17.34,-42.24
1554108438043,-5.4922986,-7.475296000000001,4.0599675,-0.30999196,0.04474111,-0.27590349999999997,-19.02,18.0,-41.88
1554108438064,-5.45878,-7.4609309999999995,4.4526167,-0.23435818,0.04261058,-0.24074976,-19.08,18.54,-41.58
1554108438083,-5.4970870000000005,-7.1688385,4.4717703,-0.04474111,0.037284255,-0.21411815,-19.2,19.02,-41.34
1554108438105,-5.195418,-6.996455999999999,4.0216603,0.06178534,0.03089267,-0.17257284,-19.38,19.5,-40.98
1554108438124,-5.104438,-6.9677253,4.1222167,0.05006743,0.05965481,-0.15552860000000002,-19.44,19.62,-40.92
1554108438144,-5.1475334,-7.044339999999999,4.222773,0.07989483,0.07243799,-0.17257284,-19.56,19.92,-40.74
1554108438163,-5.2289367,-7.140108000000001,4.280234,0.2066613,0.054328485999999995,-0.19174760000000002,-19.56,20.16,-40.68
1554108438183,-5.2289367,-6.986878999999999,4.3185415,0.23435818,0.047936900000000005,-0.19281286,-19.62,20.22,-40.74
1554108438204,-5.291186,-6.9102645,4.222773,0.25140239999999997,0.034088463,-0.2034655,-19.68,20.34,-40.8
1554108438224,-5.1666875,-6.9725137,4.433463,0.28336033,0.022370555,-0.21411815,-19.74,20.28,-40.92
1554108438245,-5.1571107000000005,-7.1975690000000005,4.4526167,0.3898868,0.026631612000000002,-0.22050974,-19.8,20.16,-41.04
1554108438263,-5.2385135,-7.092224000000001,4.529230999999999,0.48149952,0.029827405,-0.20879184,-19.86,20.04,-41.16
1554108438283,-5.295974299999999,-6.8671690000000005,4.481347,0.52624065,0.015978966,-0.20133498,-19.98,19.86,-41.34
1554108438303,-5.233725,-6.761824000000001,4.490924,0.572047,-0.00958738,-0.18429075,-20.04,19.62,-41.46
1554108438324,-5.272032299999999,-6.8719573,4.361637,0.58483016,-0.033023197000000004,-0.13635385,-20.16,19.32,-41.58
1554108438344,-5.363012,-6.9246297000000006,4.8021703,0.6498113,-0.04580637,-0.1470065,-20.22,18.96,-41.7
1554108438363,-5.0421886,-6.8528037,4.7399206,0.7882956999999999,-0.07456851,-0.14061491,-20.28,18.48,-41.88
1554108438384,-5.0038815,-6.6516910000000005,4.6154222,0.84581995,-0.068176925,-0.13954964,-20.28,17.94,-42.06
1554108438404,-5.046977,-6.4793080000000005,4.5819035,0.84688526,-0.083090626,-0.16724652,-20.28,17.16,-42.3
1554108438424,-5.094861,-6.469731299999999,4.5196543,0.87032104,-0.10652645,-0.17150758,-20.28,16.38,-42.48
1554108438444,-4.965574299999999,-6.431424,5.0798974,0.87351686,-0.11504856,-0.14487597,-20.28,15.6,-42.66
1554108438463,-4.8937483,-6.512827400000001,5.539584,0.9896306999999999,-0.1107875,-0.15552860000000002,-20.28,14.7,-42.84
1554108438483,-4.7357309999999995,-6.4505777,5.597045,1.1366372,-0.10972224,-0.17150758,-20.34,13.8,-43.08
1554108438503,-4.8267107000000005,-5.943007,5.194819,1.2229236,-0.098004326,-0.17576863,-20.34,12.78,-43.32
1554108438523,-4.984728,-5.6700683,5.194819,1.1121361,-0.07882957,-0.20026971,-20.4,11.7,-43.62
1554108438544,-5.023035,-5.8328739999999994,5.692813,0.98430437,-0.053263225,-0.17789917,-20.46,10.5,-43.92
1554108438563,-4.802768700000001,-6.019622,5.7933699999999995,1.0088054,-0.040480047000000005,-0.16085494,-20.52,9.36,-44.16
1554108438583,-4.606444000000001,-5.679645,5.6784476999999995,1.0833739,-0.022370555,-0.15978967,-20.52,8.22,-44.4
1554108438603,-4.8602295,-5.2726307,5.644929,1.0610034,0.0063915867,-0.17896444,-20.58,7.02,-44.7
1554108438624,-4.802768700000001,-5.119402,5.6401405,0.9651296,0.014913702,-0.19387813,-20.64,5.76,-44.94
1554108438643,-4.721366000000001,-5.172074299999999,5.9130797,0.8319715,0.025566347000000003,-0.16831179,-20.64,4.5,-45.3
1554108438663,-4.7261543,-5.119402,5.855619,0.66152924,0.037284255,-0.15978967,-20.7,3.36,-45.78
1554108438684,-4.7022123,-4.841674299999999,5.812523400000001,0.4282363,0.05219796,-0.18002969,-20.7,2.28,-46.08
1554108438704,-4.6686935,-4.741118,5.8604074,0.21624869,0.053263225,-0.20240025,-20.7,1.38,-46.38
1554108438724,-4.644751,-4.8081555,5.994482499999999,0.020240024,0.058589544,-0.19707392,-20.76,0.6,-46.68
1554108438744,-4.43885,-4.875193,6.0088477,-0.25566345,0.06391586,-0.19707392,-20.76,-0.18,-46.92
1554108438764,-4.4436383,-4.8560395,5.965751999999999,-0.567786,0.08841695,-0.23009712,-20.76,-0.78,-47.16
1554108438783,-4.807557,-5.248688700000001,6.3344593,-0.7840345999999999,0.10865697,-0.2790993,-20.82,-1.32,-47.4
1554108438803,-4.6878470000000005,-5.5407815000000005,6.320094,-0.850081,0.11717909,-0.28442562,-20.88,-1.68,-47.46
1554108438824,-4.6782703,-5.703587000000001,6.4781113,-0.85966843,0.12996227,-0.28016454,-20.88,-1.8,-47.4
1554108438844,-4.692635500000001,-5.6940102999999995,6.3344593,-0.8404937,0.1470065,-0.3057309,-20.94,-1.68,-47.34
1554108438864,-4.879383,-5.943007,6.5259953,-0.76912093,0.15765914,-0.31318775,-21.0,-1.2,-47.34
1554108438883,-4.7644614999999995,-6.0291986,6.564302400000001,-0.58909124,0.15552860000000002,-0.314253,-21.0,-0.96,-47.28
1554108438904,-4.673482,-6.1967926,6.205172,-0.3717773,0.15339808,-0.30466563,-21.0,-0.36,-47.22
1554108438924,-4.7261543,-6.1249666,6.238691,-0.20240025,0.15126756,-0.29933932,-20.94,0.36,-47.1
1554108438944,-4.654328,-6.177639,6.291363700000001,-0.07882957,0.15446335,-0.28549087,-20.94,1.14,-46.98
1554108438963,-4.707000700000001,-6.201581,5.960963700000001,0.12250541,0.14594123,-0.28549087,-20.82,2.22,-46.86
1554108438984,-4.6591167,-6.033987000000001,5.774216,0.18322548,0.13102753,-0.29827404,-20.76,2.7,-46.74
1554108439004,-4.7453080000000005,-5.9956794,5.7023897,0.17044231,0.13635385,-0.30999196,-20.76,2.94,-46.68
1554108439023,-4.6878470000000005,-6.120178,5.994482499999999,0.18535602,0.13635385,-0.30679616,-20.7,3.24,-46.56
1554108439044,-4.572925,-6.129755,5.798158,0.24714136,0.14061491,-0.2695119,-20.64,3.54,-46.44
1554108439064,-4.6208089999999995,-5.9956794,5.462969999999999,0.28442562,0.14168017,-0.27696875,-20.58,3.6,-46.38
1554108439084,-4.697424,-5.852027400000001,5.5922565,0.25140239999999997,0.14807177,-0.2908172,-20.58,3.6,-46.38
1554108439104,-4.7261543,-5.8663926,5.462969999999999,0.13315806,0.15233281,-0.29827404,-20.52,3.54,-46.38
1554108439124,-4.7309427,-6.0770826,5.3624134,-0.004261058,0.15659387,-0.29507825,-20.52,3.48,-46.38
1554108439143,-4.635174299999999,-6.120178,5.4102974,-0.20133498,0.18322548,-0.27696875,-20.46,3.42,-46.44
1554108439164,-4.606444000000001,-6.546346,5.6784476999999995,-0.37816888,0.21518342,-0.25566345,-20.34,3.3,-46.5
1554108439184,-4.271256,-6.8097080000000005,5.9226565,-0.31212249999999997,0.23755397,-0.23222765,-20.16,3.18,-46.56
1554108439204,-4.3861775000000005,-6.8288617,5.6497173,-0.06391586,0.24501082,-0.20772657,-20.04,3.06,-46.56
1554108439223,-4.4244847,-6.2781954,5.395932,0.08735169,0.23435818,-0.21624869,-19.86,3.0,-46.62
1554108439243,-4.548983,-6.206369400000001,5.443816,0.11717909,0.21944448,-0.22264028,-19.68,2.94,-46.56
1554108439263,-4.55856,-6.1249666,5.391144000000001,0.12037488,0.19281286,-0.22050974,-19.5,2.94,-46.56
1554108439284,-4.5058875,-5.8089319999999995,5.37199,0.08841695,0.14807177,-0.23968449999999997,-19.38,2.94,-46.56
1554108439304,-4.5154643,-5.823297,5.252279799999999,0.015978966,0.09587380000000001,-0.27377295,-19.2,3.0,-46.5
1554108439324,-4.6686935,-6.081871,5.4102974,-0.03195793,0.05006743,-0.26631612,-19.14,3.12,-46.44
1554108439343,-4.697424,-6.541558,5.3624134,0.02130529,-0.013848438000000001,-0.29614353,-19.14,3.24,-46.38
1554108439364,-4.6782703,-6.546346,5.3815669999999995,-0.002130529,-0.058589544,-0.33768883,-19.14,3.24,-46.38
1554108439384,-4.8985367,-6.83365,5.194819,-0.14061491,-0.07563378,-0.34514567,-19.08,3.3,-46.38
1554108439403,-4.8458643,-7.705139599999999,5.7359085,-0.43888897,-0.04474111,-0.23968449999999997,-19.02,3.36,-46.44
1554108439423,-4.802768700000001,-7.9828672,5.716755,-0.4250405,0.014913702,-0.11504856,-18.96,3.3,-46.44
1554108439444,-4.903325,-7.6524673,5.4390279999999995,-0.23222765,0.056459017,-0.051132694000000006,-18.96,3.36,-46.5
1554108439463,-4.975151,-6.9342065,5.257068,-0.046871635999999994,0.068176925,0.0031957934000000003,-18.96,3.42,-46.56
1554108439484,-5.018246700000001,-6.1058129999999995,5.01286,0.047936900000000005,0.06391586,0.041545313,-18.9,3.42,-46.56
1554108439503,-5.0517654,-5.7706246,4.8787847,0.054328485999999995,0.034088463,0.020240024,-18.9,3.48,-46.56
1554108439524,-5.0086699999999995,-5.617396,4.835689,-0.058589544,-0.01917476,-0.008522116,-18.9,3.54,-46.56
1554108439543,-4.8267107000000005,-5.6700683,4.6920366,-0.24181503,-0.101200126,-0.036218993,-18.96,3.66,-46.5
1554108439564,-4.673482,-6.2925606,4.7878050000000005,-0.43356264,-0.15446335,-0.007456851,-18.96,3.78,-46.44
1554108439584,-4.5154643,-7.2981253,5.2474914,-0.6317018,-0.15978967,0.07243799,-18.96,3.84,-46.38
1554108439604,-4.453215,-7.671621000000001,5.4055089999999995,-0.7520766999999999,-0.14274544,0.08735169,-18.96,4.02,-46.32
1554108439624,-4.606444000000001,-7.839214999999999,5.6880245,-0.7275756,-0.12783173,0.09054748,-18.96,4.32,-46.2
1554108439643,-4.6399627,-7.5183919999999995,5.510854,-0.6146576,-0.113983296,0.15339808,-18.96,4.68,-46.14
1554108439663,-4.4723687000000005,-7.255029700000001,5.2810106,-0.50813115,-0.11611383,0.2066613,-18.96,5.1,-46.08
1554108439683,-4.6208089999999995,-7.2215110000000005,5.266645,-0.45806372,-0.13209279,0.23329292,-18.96,5.64,-45.96
1554108439704,-4.6830587,-7.231087700000001,5.0080714,-0.4101268,-0.15020229,0.27164245,-18.96,6.24,-45.9
1554108439724,-4.6495394999999995,-6.8528037,5.180454,-0.36964676,-0.16618125,0.26844665,-18.96,6.96,-45.84
1554108439744,-4.692635500000001,-6.546346,4.7878050000000005,-0.39521313,-0.18002969,0.25033715,-19.02,7.68,-45.78
1554108439764,-4.5681367,-6.795342999999999,5.151723400000001,-0.3174488,-0.17789917,0.25140239999999997,-19.08,8.34,-45.78
1554108439784,-4.4101195,-7.1209545,4.969764,-0.039414786,-0.19281286,0.24927188,-19.2,8.82,-45.72
1554108439804,-4.338293599999999,-6.7666125,4.744708999999999,0.111852765,-0.17044231,0.25672874,-19.26,9.3,-45.66
1554108439823,-4.5777135,-6.4026937,4.5483847,0.056459017,-0.15339808,0.20772657,-19.32,9.66,-45.6
1554108439844,-4.6782703,-6.4122705,4.4861355000000005,-0.19281286,-0.11930962,0.21837921,-19.5,10.2,-45.48
1554108439863,-4.5872903,-6.747458999999999,4.5196543,-0.23968449999999997,-0.10759171,0.24607609,-19.56,10.26,-45.42
1554108439884,-4.4005427,-6.8863225,4.7255554,-0.13528858,-0.10333065,0.23435818,-19.62,10.32,-45.42
1554108439903,-4.4005427,-6.8097080000000005,4.6920366,0.037284255,-0.07776430000000001,0.19600865,-19.68,10.38,-45.36
1554108439924,-4.4005427,-6.522404,4.4238862999999995,0.047936900000000005,-0.035153727999999995,0.16724652,-19.74,10.5,-45.18
1554108439944,-4.232949,-6.4457892999999995,4.5819035,-0.05219796,-0.012783173500000002,0.15978967,-19.8,10.62,-45.0
1554108439963,-4.338293599999999,-6.536769400000001,4.6297874000000006,-0.084155895,0.0063915867,0.12996227,-19.8,10.74,-44.82
1554108439984,-4.223372,-6.618172,4.5100775,-0.051132694000000006,0.017044231,0.08841695,-19.8,10.86,-44.7
1554108440003,-4.3287168,-6.8528037,4.6680946,0.0053263223,0.026631612000000002,0.06498113,-19.86,11.04,-44.52
1554108440023,-4.4196963,-6.800131299999999,4.6441526,0.008522116,0.018109497,0.049002163,-19.92,11.16,-44.4
1554108440043,-4.4675803,-6.632537400000001,4.5819035,-0.10439592,0.014913702,0.068176925,-19.92,11.34,-44.22
1554108440064,-4.596867,-6.488885,4.4957123,-0.25353295,0.011717908999999999,0.07563378,-19.98,11.46,-44.1
1554108440083,-4.7453080000000005,-6.8575919999999995,4.500500700000001,-0.25140239999999997,-0.007456851,0.07350325,-19.98,11.52,-44.04
1554108440103,-4.7357309999999995,-7.379528,4.6920366,-0.11611383,-0.039414786,0.06391586,-20.04,11.58,-44.1
1554108440124,-4.76925,-7.053917,4.5483847,0.12783173,-0.07137272,0.043675844000000005,-20.04,11.58,-44.16
1554108440143,-4.8602295,-6.536769400000001,4.395156,0.113983296,-0.098004326,0.02876214,-20.04,11.52,-44.22
1554108440163,-4.7453080000000005,-6.469731299999999,4.447828299999999,-0.0010652645,-0.113983296,0.06285059999999999,-19.98,11.52,-44.28
1554108440183,-4.7548847,-6.8288617,4.529230999999999,-0.05965481,-0.1107875,0.09267801,-19.92,11.58,-44.34
1554108440204,-4.879383,-7.154473299999999,4.830900700000001,-0.07030745599999999,-0.08948222,0.07030745599999999,-19.86,11.58,-44.28
1554108440224,-4.9512089999999995,-7.2789717000000005,4.8165355000000005,-0.054328485999999995,-0.07243799,0.03834952,-19.8,11.58,-44.22
1554108440243,-5.0038815,-7.101800999999999,4.529230999999999,-0.025566347000000003,-0.06498113,0.02130529,-19.68,11.64,-44.1
1554108440263,-4.984728,-6.996455999999999,4.4382515,-0.09054748,-0.054328485999999995,0.029827405,-19.62,11.7,-43.98
1554108440284,-5.0613421999999995,-7.154473299999999,4.586692,-0.21837921,-0.047936900000000005,0.046871635999999994,-19.62,11.76,-43.86
1554108440304,-4.8985367,-7.307702000000001,4.797382,-0.22903186,-0.046871635999999994,0.04580637,-19.56,11.82,-43.86
1554108440324,-4.965574299999999,-7.2741833,4.9458222,-0.14274544,-0.04474111,0.027696876000000002,-19.56,11.88,-43.86
1554108440343,-5.1810527,-7.283760000000001,4.7734394,-0.07243799,-0.035153727999999995,0.008522116,-19.62,11.94,-43.86
1554108440363,-5.195418,-7.0874357,4.7878050000000005,0.010652645,-0.029827405,0.0010652645,-19.74,11.94,-43.92
1554108440384,-5.1235914000000005,-6.9581485,4.6297874000000006,0.034088463,-0.035153727999999995,0.0063915867,-19.8,12.0,-44.04
1554108440404,-5.0613421999999995,-6.9820905,4.4957123,-0.025566347000000003,-0.033023197000000004,0.014913702,-19.86,12.06,-44.16
1554108440424,-5.315128,-7.006033,4.6537294000000005,-0.07030745599999999,-0.037284255,0.0031957934000000003,-19.92,12.06,-44.22
1554108440444,-5.2528787,-6.996455999999999,4.5483847,-0.09587380000000001,-0.05219796,-0.007456851,-19.98,12.06,-44.28
1554108440463,-5.2002063,-7.0587053,4.3424835,-0.12463594,-0.05965481,0.0063915867,-20.04,12.06,-44.28
1554108440483,-5.21936,-7.044339999999999,4.2945995,-0.18322548,-0.06711166,0.018109497,-20.04,12.12,-44.16
1554108440503,-5.315128,-7.1065892999999996,4.256292,-0.27057716,-0.053263225,0.043675844000000005,-20.04,12.3,-44.1
1554108440523,-5.353435,-7.1209545,4.0743327,-0.36751625,-0.03089267,0.06178534,-19.98,12.42,-44.04
1554108440543,-5.353435,-7.1592617,4.280234,-0.41864893,-0.011717908999999999,0.083090626,-19.98,12.6,-43.98
1554108440563,-5.1235914000000005,-7.0970125,4.055179,-0.46339005,-0.008522116,0.08841695,-19.98,12.78,-43.92
1554108440584,-5.090072599999999,-6.795342999999999,3.3752258,-0.6743124,-0.002130529,0.12144015,-19.98,12.96,-43.8
1554108440605,-5.0086699999999995,-6.9198413,3.0065188,-1.031176,-0.002130529,0.14168017,-19.98,13.14,-43.74
1554108440624,-4.8123455,-7.1879919999999995,3.4518404,-1.2335763000000002,-0.02876214,0.12250541,-19.98,13.44,-43.68
1554108440644,-4.644751,-7.5327573,3.5093012000000003,-1.0471549,-0.12783173,0.06391586,-19.98,14.28,-43.56
1554108440664,-4.692635500000001,-7.3029137,3.1453824,-0.97045594,-0.165116,0.04261058,-19.98,14.64,-43.5
1554108440683,-4.7740383,-7.1592617,2.9203273999999997,-1.0695255,-0.17576863,0.012783173500000002,-19.98,15.36,-43.38
1554108440704,-4.8985367,-7.2885485,3.09271,-1.1568771999999998,-0.17150758,-0.0010652645,-19.92,16.2,-43.08
1554108440724,-4.7740383,-7.3029137,2.9969419999999998,-1.2069446000000001,-0.15765914,-0.002130529,-19.98,17.1,-42.72
1554108440744,-4.965574299999999,-7.255029700000001,2.594716,-1.4008228,-0.096939065,-0.02130529,-19.98,18.78,-42.06
1554108440763,-5.1475334,-7.4561424,2.417545,-1.5382419,-0.041545313,-0.014913702,-20.04,20.04,-41.52
1554108440784,-5.319916200000001,-7.867945,2.6090812999999997,-1.4998924,-0.0010652645,-0.02130529,-20.04,21.18,-40.98
1554108440804,-5.2241483,-7.949348,2.3505075,-1.3741912,0.0031957934000000003,-0.010652645,-20.1,22.26,-40.32
1554108440824,-5.267244,-7.934983,2.4223334999999997,-1.2080098,0.002130529,-0.004261058,-20.16,23.28,-39.6
1554108440844,-5.21936,-8.270171000000001,2.1829132999999996,-0.9619338,-0.017044231,0.0063915867,-20.22,24.54,-38.82
1554108440864,-5.046977,-8.294113000000001,2.2307975,-0.75101143,-0.034088463,0.040480047000000005,-20.28,25.86,-38.04
1554108440884,-5.080496,-8.241441,1.7711107,-0.6380934,-0.03089267,0.068176925,-20.28,27.12,-37.32
1554108440904,-5.195418,-8.389880999999999,2.0775685,-0.5752428,-0.018109497,0.068176925,-20.34,28.14,-36.6
1554108440923,-5.1523223,-8.4425535,2.0919337,-0.32597092,-0.013848438000000001,0.03834952,-20.34,29.16,-36.0
1554108440944,-5.161899,-8.116942,1.7040731,0.05752428,-0.0031957934000000003,0.049002163,-20.34,30.06,-35.46
1554108440963,-5.233725,-8.078635,1.6418238,0.15978967,0.0010652645,0.06178534,-20.28,30.84,-35.04
1554108440984,-5.2049947,-8.006809,1.6801311,0.18535602,0.0053263223,0.056459017,-20.16,31.5,-34.68
1554108441004,-5.3007627,-7.9301944,1.584363,0.17363810000000002,0.0031957934000000003,0.051132694000000006,-20.04,31.92,-34.44
1554108441023,-5.272032299999999,-7.887099,1.3210008,0.22264028,-0.011717908999999999,0.03834952,-19.98,32.22,-34.38
1554108441043,-5.2863975,-7.772177,1.6753427,0.29933932,-0.026631612000000002,0.020240024,-19.86,32.4,-34.38
1554108441064,-5.267244,-7.647678999999999,1.6130934,0.27590349999999997,-0.035153727999999995,0.00958738,-19.8,32.58,-34.38
1554108441083,-5.233725,-7.73387,1.7567455,0.2609898,-0.03834952,0.0010652645,-19.74,32.7,-34.38
1554108441103,-5.2863975,-8.006809,1.8716671000000003,0.3270362,-0.03195793,-0.008522116,-19.62,32.76,-34.38
1554108441124,-5.315128,-8.045116,1.9243397,0.44101948,-0.029827405,-0.012783173500000002,-19.62,32.7,-34.38
1554108441144,-5.334281400000001,-7.915829,2.0775685,0.47936899999999993,-0.020240024,-0.020240024,-19.68,32.58,-34.44
1554108441163,-5.2863975,-7.949348,2.178125,0.48149952,-0.014913702,-0.03834952,-19.68,32.46,-34.56
1554108441183,-5.305551,-7.781753999999999,2.0632033,0.48149952,-0.027696876000000002,-0.035153727999999995,-19.74,32.34,-34.68
1554108441204,-5.21936,-7.867945,2.2307975,0.48469532,-0.027696876000000002,-0.018109497,-19.8,32.16,-34.86
1554108441224,-5.2241483,-7.877522,2.570774,0.54435015,-0.020240024,-0.017044231,-19.8,31.98,-35.04
1554108441243,-5.257667,-8.016386,2.915539,0.7318366999999999,-0.011717908999999999,-0.00958738,-19.86,31.74,-35.22
1554108441264,-5.434838,-7.867945,2.7287915000000003,0.8863,0.0,0.0031957934000000003,-19.86,31.32,-35.52
1554108441284,-5.506664,-7.6572556,2.297835,0.8202536,0.027696876000000002,0.013848438000000001,-19.86,30.78,-35.82
1554108441304,-5.66947,-7.585429700000001,2.7000610000000003,0.67537767,0.05965481,0.017044231,-19.86,30.18,-36.12
1554108441324,-5.5545480000000005,-7.6572556,2.8868085999999997,0.69029135,0.054328485999999995,0.027696876000000002,-19.86,29.58,-36.36
1554108441344,-5.425261,-7.647678999999999,2.915539,0.83516735,0.03834952,0.02876214,-19.86,28.98,-36.66
1554108441364,-5.425261,-7.6572556,3.4805707999999997,1.0823087,0.035153727999999995,0.017044231,-19.86,28.32,-37.02
1554108441383,-5.272032299999999,-7.8009076,4.103063,1.4753913,0.040480047000000005,0.018109497,-19.86,27.54,-37.5
1554108441403,-5.3007627,-7.7865424,3.9737763,1.9004318,0.041545313,0.011717908999999999,-19.86,26.7,-38.16
1554108441424,-5.3486465999999995,-7.3460092999999995,3.8301241000000004,2.0687435,0.05219796,-0.008522116,-19.86,25.74,-38.76
1554108441444,-5.4061074,-6.977302000000001,3.863643,1.9558256,0.051132694000000006,-0.007456851,-19.8,24.6,-39.42
1554108441464,-5.3725886,-6.632537400000001,4.088698,1.6543556000000001,0.07350325,0.027696876000000002,-19.74,23.22,-40.02
1554108441484,-5.257667,-6.469731299999999,4.6058455,1.5009576,0.07030745599999999,0.023435817999999997,-19.62,21.66,-40.74
1554108441504,-5.1810527,-6.3165026,4.6058455,1.4615428,0.068176925,0.027696876000000002,-19.5,20.04,-41.4
1554108441524,-5.2241483,-6.0866594,4.6680946,1.4732608,0.06711166,-0.017044231,-19.38,18.24,-42.06
1554108441544,-5.3247046,-5.7179523,4.2850223,1.3070794,0.07350325,-0.054328485999999995,-19.2,15.42,-42.84
1554108441564,-5.209783,-5.4593782,4.481347,0.9651296,0.09587380000000001,-0.06498113,-19.08,13.56,-43.32
1554108441585,-5.334281400000001,-5.6030307,4.672883000000001,0.6125271,0.11504856,-0.05752428,-19.02,12.06,-43.74
1554108441604,-5.377377,-5.579088700000001,4.7542860000000005,0.32490566,0.12570119999999999,-0.06924219,-18.96,10.74,-44.16
1554108441623,-5.363012,-5.521628,4.941033999999999,0.12463594,0.12676647,-0.10546118,-18.96,9.6,-44.58
1554108441644,-5.343858200000001,-5.492897,4.797382,-0.011717908999999999,0.12996227,-0.13635385,-19.08,8.64,-44.88
1554108441663,-5.315128,-5.583876999999999,4.960187400000001,-0.080960095,0.13635385,-0.16724652,-19.08,7.68,-45.18
1554108441683,-5.248090299999999,-5.7323174,5.228338,-0.09587380000000001,0.14594123,-0.17257284,-19.14,7.26,-45.3
1554108441704,-5.4061074,-5.8903346,5.3863554,-0.07563378,0.15978967,-0.20559604,-19.2,6.42,-45.6
1554108441724,-5.506664,-5.727529,5.1613,-0.098004326,0.17044231,-0.23968449999999997,-19.2,6.12,-45.72
1554108441743,-5.463568,-5.852027400000001,5.242703,-0.10226539,0.17470337,-0.24394555,-19.2,5.88,-45.84
1554108441765,-5.57849,-6.067506,5.252279799999999,-0.04474111,0.165116,-0.24927188,-19.2,5.7,-45.9
1554108441783,-5.626374,-5.976526,5.132569999999999,-0.04261058,0.16085494,-0.25033715,-19.08,5.64,-45.9
1554108441803,-5.66947,-5.990891,5.1613,-0.07243799,0.16831179,-0.24394555,-19.02,5.58,-45.9
1554108441824,-5.659893,-6.2303114,5.1086279999999995,-0.04474111,0.16085494,-0.23435818,-18.9,5.64,-45.9
1554108441844,-5.5641245999999995,-6.225523,5.099051,-0.011717908999999999,0.14807177,-0.21518342,-18.78,5.76,-45.9
1554108441863,-5.659893,-6.057929,4.869208,-0.07882957,0.1438107,-0.20133498,-18.66,5.88,-45.9
1554108441884,-5.5641245999999995,-6.1632739999999995,4.869208,-0.15765914,0.15126756,-0.17896444,-18.54,6.0,-45.9
1554108441904,-5.6407394,-6.3404446,5.04159,-0.12783173,0.14807177,-0.17363810000000002,-18.42,6.12,-45.9
1554108441924,-5.650316,-6.330868,4.9218802,-0.058589544,0.13422333,-0.17470337,-18.36,6.18,-45.9
1554108441943,-5.6790465999999995,-6.2638300000000005,4.7734394,-0.05219796,0.13209279,-0.17363810000000002,-18.3,6.24,-45.9
1554108441964,-5.6982,-6.177639,4.687248,-0.06711166,0.12783173,-0.15765914,-18.24,6.36,-45.9
1554108441983,-5.616797,-6.273407,4.706402,-0.07776430000000001,0.12783173,-0.12570119999999999,-18.24,6.42,-45.9
1554108442003,-5.693412,-6.393117,4.7782279999999995,-0.10013486,0.13209279,-0.13209279,-18.18,6.48,-45.84
1554108442023,-5.5497594,-6.431424,4.5340195,-0.12783173,0.12144015,-0.12783173,-18.18,6.48,-45.78
1554108442043,-5.506664,-6.417059,4.395156,-0.17150758,0.12250541,-0.10865697,-18.12,6.54,-45.78
1554108442063,-5.535394,-6.350021400000001,4.529230999999999,-0.19281286,0.113983296,-0.12357068,-17.94,6.6,-45.66
1554108442085,-5.4061074,-6.469731299999999,4.586692,-0.14807177,0.10013486,-0.11717909,-17.82,6.6,-45.6
1554108442103,-5.3725886,-6.3979053,4.529230999999999,-0.10439592,0.08628642,-0.12676647,-17.64,6.66,-45.54
1554108442124,-5.396530599999999,-6.306926,4.538808,-0.14487597,0.07776430000000001,-0.1470065,-17.46,6.72,-45.48
1554108442144,-5.334281400000001,-6.431424,4.5914803,-0.18535602,0.07776430000000001,-0.14168017,-17.34,6.72,-45.48
1554108442164,-5.319916200000001,-6.4122705,4.5675383,-0.16192019,0.07350325,-0.15126756,-17.16,6.78,-45.36
1554108442183,-5.2241483,-6.6085954,4.5675383,-0.07776430000000001,0.07456851,-0.17044231,-16.98,6.84,-45.36
1554108442203,-5.161899,-6.503250599999999,4.409521,0.004261058,0.07563378,-0.18642128,-16.86,6.96,-45.3
1554108442224,-5.21936,-6.321291,4.3999443,0.0053263223,0.083090626,-0.21092236,-16.86,7.08,-45.3
1554108442243,-5.2385135,-6.579865,4.524442700000001,0.013848438000000001,0.09267801,-0.23116238,-16.86,7.26,-45.3
1554108442264,-5.233725,-6.603807000000001,4.524442700000001,0.11611383,0.09054748,-0.24607609,-16.8,7.5,-45.3
1554108442284,-5.046977,-6.5942300000000005,4.385579,0.20453078,0.08522116,-0.26418558,-16.8,7.74,-45.3
1554108442304,-5.267244,-6.531981,4.409521,0.19813919,0.08522116,-0.29294774,-16.74,8.04,-45.24
1554108442324,-5.21936,-6.503250599999999,4.395156,0.12037488,0.07882957,-0.29933932,-16.74,8.28,-45.24
1554108442343,-5.401319,-6.7522473,4.5962687,0.084155895,0.06711166,-0.3057309,-16.74,8.46,-45.3
1554108442364,-5.363012,-6.8097080000000005,4.6393642,0.15233281,0.05965481,-0.30892670000000005,-16.74,8.58,-45.3
1554108442384,-5.391742,-6.7283053,4.4861355000000005,0.30999196,0.041545313,-0.30360037,-16.68,8.7,-45.3
1554108442403,-5.353435,-6.7283053,4.648941000000001,0.35473305,0.03834952,-0.29294774,-16.62,8.7,-45.3
1554108442423,-5.343858200000001,-6.771400999999999,4.6441526,0.3749731,0.034088463,-0.27164245,-16.56,8.64,-45.3
1554108442444,-5.420472599999999,-6.6516910000000005,4.5483847,0.38562572,0.013848438000000001,-0.24820662,-16.44,8.46,-45.36
1554108442463,-5.2289367,-6.5990186,4.553173,0.37071204,-0.004261058,-0.24181503,-16.38,8.34,-45.36
1554108442483,-5.2768207,-6.469731299999999,4.6633059999999995,0.36218992,-0.020240024,-0.22690132,-16.32,8.1,-45.42
1554108442504,-5.4779334,-6.675633,4.8739963,0.406931,-0.037284255,-0.20879184,-16.26,7.68,-45.48
1554108442524,-5.3247046,-6.5942300000000005,4.577115,0.4133226,-0.049002163,-0.19813919,-16.26,7.32,-45.6
1554108442544,-5.3678,-6.306926,4.524442700000001,0.31318775,-0.051132694000000006,-0.1949434,-16.26,6.84,-45.66
1554108442564,-5.3007627,-6.306926,4.5435963,0.10865697,-0.06285059999999999,-0.17257284,-16.32,6.36,-45.78
1554108442586,-5.21936,-6.632537400000001,4.7159786,-0.06285059999999999,-0.058589544,-0.14807177,-16.38,5.88,-45.84
1554108442603,-5.3007627,-6.7570357,4.888361499999999,-0.047936900000000005,-0.05006743,-0.14487597,-16.44,5.46,-45.96
1554108442623,-5.195418,-6.7666125,4.859630999999999,0.04474111,-0.05219796,-0.15446335,-16.5,5.1,-46.02
1554108442644,-5.104438,-6.5846534,4.89315,0.11930962,-0.05965481,-0.165116,-16.56,4.8,-46.08
1554108442663,-4.8362875,-6.417059,4.8787847,0.099069595,-0.05539375,-0.15233281,-16.56,4.62,-46.14
1554108442683,-4.8458643,-6.373963400000001,4.89315,0.05006743,-0.03834952,-0.12463594,-16.56,4.5,-46.14
1554108442703,-4.879383,-6.3643866,4.9218802,0.054328485999999995,-0.043675844000000005,-0.11504856,-16.56,4.44,-46.14
1554108442725,-4.7884035,-6.373963400000001,4.9745526,0.05219796,-0.07030745599999999,-0.12463594,-16.56,4.44,-46.14
1554108442743,-4.6686935,-6.4122705,5.1900306,-0.007456851,-0.08522116,-0.12250541,-16.62,4.38,-46.14
1554108442764,-4.5441947,-6.4745197,5.309741000000001,-0.03089267,-0.08522116,-0.11824436,-16.62,4.32,-46.14
1554108442784,-4.4005427,-6.517616,5.458181400000001,-0.024501082,-0.07563378,-0.12357068,-16.68,4.26,-46.14
1554108442804,-4.31914,-6.517616,5.295376,-0.010652645,-0.05539375,-0.13848437,-16.68,4.2,-46.14
1554108442823,-4.390966000000001,-6.5655,5.458181400000001,-0.033023197000000004,-0.020240024,-0.14913702,-16.74,4.2,-46.14
1554108442843,-4.5058875,-6.7091517000000005,5.348048,-0.03089267,0.02876214,-0.17896444,-16.8,4.14,-46.14
1554108442864,-4.510676,-6.8528037,5.563526,0.018109497,0.058589544,-0.20772657,-16.8,4.08,-46.14
1554108442884,-4.3957543,-6.6612678,5.606621700000001,-0.00958738,0.09587380000000001,-0.22477080000000002,-16.86,4.08,-46.14
1554108442904,-4.644751,-6.699575,5.515642,-0.07563378,0.14487597,-0.23329292,-16.86,4.08,-46.14
1554108442923,-4.630386,-7.0012445,5.606621700000001,-0.12570119999999999,0.221575,-0.19281286,-16.92,4.08,-46.14
1554108442943,-4.6160207,-6.938994999999999,5.549161,-0.007456851,0.2727077,-0.17044231,-16.92,4.08,-46.14
1554108442963,-4.6495394999999995,-6.642114,5.3288946,0.16405073,0.31105720000000003,-0.18109496,-16.92,4.08,-46.14
1554108442984,-4.6495394999999995,-6.225523,5.0224366,0.25566345,0.3206446,-0.21411815,-16.92,4.14,-46.14
1554108443004,-4.6495394999999995,-6.0531406,4.926668599999999,0.27164245,0.32170987,-0.2545982,-16.92,4.14,-46.14
1554108443024,-4.3287168,-6.369175,4.8787847,0.2545982,0.29188246,-0.29614353,-16.92,4.2,-46.14
1554108443043,-4.232949,-6.962936999999999,4.8500543,0.16405073,0.31212249999999997,-0.26525086,-16.86,4.2,-46.14
1554108443063,-4.2185836,-7.561487700000001,5.0798974,-0.0031957934000000003,0.33768883,-0.24501082,-16.74,4.14,-46.14
1554108443083,-4.362235500000001,-7.992444,5.295376,-0.165116,0.37816888,-0.19707392,-16.56,3.9,-46.2
1554108443103,-4.256891,-7.9828672,5.0846860000000005,-0.18535602,0.41758367,-0.1107875,-16.26,3.72,-46.2
1554108443124,-4.1371803,-7.719505000000001,4.9937059999999995,-0.040480047000000005,0.4282363,-0.05539375,-16.02,3.54,-46.2
1554108443144,-4.0462008,-7.077858999999999,4.9937059999999995,0.24927188,0.406931,-0.06604639400000001,-15.78,3.36,-46.26
1554108443164,-4.156333999999999,-6.4505777,4.6154222,0.57098174,0.35260254,-0.14061491,-15.54,3.18,-46.26
1554108443183,-4.285621,-5.5743003,4.395156,0.8032094,0.26738137,-0.27803403,-15.3,3.06,-46.26
1554108443204,-4.644751,-4.8656163,3.6864722000000003,0.81705785,0.113983296,-0.46871635,-15.0,2.82,-46.26
1554108443224,-4.6686935,-4.827309,3.8205473,0.64768076,0.037284255,-0.54648066,-14.88,2.82,-46.26
1554108443244,-4.8985367,-5.6509147,4.3664255,0.17044231,-0.04474111,-0.5858955,-14.76,2.82,-46.26
1554108443264,-4.855441000000001,-6.182427400000001,4.672883000000001,-0.15765914,-0.060720075,-0.60080916,-14.7,2.76,-46.26
1554108443284,-5.0374002,-7.2406645,5.132569999999999,-0.50813115,-0.051132694000000006,-0.61572284,-14.52,2.7,-46.26
1554108443304,-4.88896,-8.600571,5.788581400000001,-0.5933523,0.0010652645,-0.56459016,-14.28,2.52,-46.26
1554108443323,-4.6878470000000005,-8.825626,6.013636,-0.47723848,0.043675844000000005,-0.49534798,-14.22,2.4,-46.26
1554108443343,-4.8219223,-8.365939,6.0567317,-0.07776430000000001,0.12144015,-0.41119209999999995,-14.04,2.34,-46.2
1554108443364,-4.917690299999999,-7.834426400000001,6.0327897,0.18855181,0.14807177,-0.35579833,-13.98,2.34,-46.2
1554108443383,-4.8602295,-7.0970125,5.462969999999999,0.51026165,0.165116,-0.28336033,-13.92,2.34,-46.14
1554108443403,-4.975151,-6.4266357,4.926668599999999,0.5763081,0.1438107,-0.28442562,-13.92,2.46,-46.14
1554108443424,-5.090072599999999,-5.880758,4.5819035,0.43675843,0.11504856,-0.28122982,-13.98,2.58,-46.08
1554108443444,-5.032612,-5.7466826,4.3568487000000005,0.18961707,0.08522116,-0.2790993,-14.04,2.7,-46.08
1554108443464,-5.0757074,-6.0770826,4.744708999999999,-0.06604639400000001,0.053263225,-0.2876214,-14.1,2.64,-46.08
1554108443483,-5.0613421999999995,-6.393117,4.912303400000001,-0.21198763,0.024501082,-0.30892670000000005,-14.1,2.46,-46.02
1554108443503,-4.941632299999999,-6.8863225,4.7542860000000005,-0.27803403,0.012783173500000002,-0.29188246,-14.04,2.22,-46.02
1554108443524,-4.855441000000001,-7.441777,4.907515,-0.3653857,0.04261058,-0.22477080000000002,-13.98,1.98,-46.02
1554108443544,-4.7357309999999995,-7.719505000000001,5.0511669999999995,-0.41758367,0.101200126,-0.12676647,-13.92,1.74,-46.02
1554108443563,-4.7884035,-7.839214999999999,5.2618566,-0.34514567,0.14061491,-0.04580637,-13.86,1.56,-46.02
1554108443583,-4.7357309999999995,-7.379528,5.290587400000001,-0.13741912,0.17044231,0.040480047000000005,-13.86,1.38,-46.02
1554108443604,-4.7405194999999996,-6.7330937,4.830900700000001,0.06178534,0.18642128,0.10013486,-13.8,1.44,-45.96
1554108443624,-4.802768700000001,-6.345233,4.2993879999999995,0.060720075,0.18322548,0.112918034,-13.74,1.62,-45.9
1554108443643,-4.9512089999999995,-6.14412,4.3664255,-0.128897,0.15233281,0.098004326,-13.74,1.86,-45.84
1554108443664,-4.9559975,-6.369175,4.687248,-0.2034655,0.12250541,0.08841695,-13.68,2.1,-45.84
1554108443683,-4.7884035,-6.656479400000001,5.0463786,-0.15978967,0.07776430000000001,0.111852765,-13.68,2.34,-45.78
1554108443703,-4.7979803,-6.761824000000001,4.8165355000000005,-0.08841695,0.053263225,0.12783173,-13.56,2.58,-45.72
1554108443724,-4.8985367,-6.6085954,4.7734394,-0.12144015,0.033023197000000004,0.13954964,-13.5,2.82,-45.66
1554108443745,-4.7644614999999995,-6.795342999999999,4.6680946,-0.17044231,0.0053263223,0.16831179,-13.32,3.12,-45.66
1554108443764,-4.6399627,-6.761824000000001,4.68246,-0.17470337,-0.033023197000000004,0.1768339,-13.26,3.3,-45.66
1554108443783,-4.5058875,-6.618172,4.6154222,-0.17363810000000002,-0.07030745599999999,0.17257284,-13.14,3.54,-45.66
1554108443803,-4.635174299999999,-6.417059,4.6058455,-0.17257284,-0.10439592,0.14913702,-13.08,3.72,-45.66
1554108443825,-4.7261543,-6.306926,4.6154222,-0.1949434,-0.14168017,0.13315806,-13.02,3.9,-45.66
1554108443844,-4.8841715,-6.469731299999999,4.768651,-0.25033715,-0.1768339,0.12463594,-12.9,4.14,-45.66
1554108443864,-4.8985367,-6.5846534,5.127781400000001,-0.27164245,-0.21624869,0.128897,-12.9,4.32,-45.66
1554108443883,-4.7644614999999995,-6.747458999999999,5.34326,-0.26205507,-0.24714136,0.15020229,-12.84,4.44,-45.66
1554108443904,-4.8602295,-6.8671690000000005,5.4390279999999995,-0.24607609,-0.26525086,0.1470065,-12.84,4.56,-45.72
1554108443923,-4.6591167,-6.9485717000000005,5.515642,-0.23435818,-0.28016454,0.16937704,-12.84,4.68,-45.66
1554108443943,-4.4436383,-7.1065892999999996,5.8651957999999995,-0.17257284,-0.2790993,0.19813919,-12.84,4.92,-45.66
1554108443963,-4.5394063,-7.2262993,5.8412538,-0.026631612000000002,-0.26525086,0.2034655,-12.9,5.16,-45.6
1554108443984,-4.429273,-7.231087700000001,5.7215432999999996,0.15446335,-0.257794,0.18322548,-12.96,5.34,-45.6
1554108444003,-4.362235500000001,-6.9102645,5.3624134,0.22583607,-0.24820662,0.16724652,-13.08,5.58,-45.6
1554108444023,-4.2521024,-6.8049197,5.252279799999999,0.21411815,-0.23861924,0.15126756,-13.2,5.76,-45.54
1554108444044,-4.132391999999999,-6.83365,4.907515,0.23329292,-0.22264028,0.10972224,-13.38,6.06,-45.54
1554108444064,-4.228160400000001,-6.6852098,5.036802,0.28975195,-0.20879184,0.080960095,-13.5,6.12,-45.48
1554108444083,-4.3957543,-6.4936733,4.5435963,0.39095205,-0.19174760000000002,0.06178534,-13.68,6.18,-45.48
1554108444104,-4.4244847,-6.201581,4.577115,0.41545314,-0.18002969,0.06924219,-13.86,6.12,-45.48
1554108444123,-4.6160207,-5.93343,4.194042700000001,0.3153183,-0.15765914,0.07882957,-13.98,5.94,-45.48
1554108444143,-4.936844000000001,-6.1249666,4.136582,0.1470065,-0.1438107,0.07776430000000001,-14.16,5.52,-45.48
1554108444163,-4.9703627,-6.4601545,4.553173,0.10333065,-0.15126756,0.068176925,-14.22,5.34,-45.48
1554108444183,-4.8458643,-6.6947865,4.44304,0.101200126,-0.17363810000000002,0.04474111,-14.34,4.92,-45.48
1554108444204,-4.8362875,-6.785766000000001,4.553173,0.082025364,-0.19600865,0.012783173500000002,-14.52,4.32,-45.6
1554108444224,-4.7548847,-6.7330937,4.481347,0.01917476,-0.21198763,0.015978966,-14.58,3.9,-45.66
1554108444244,-4.8123455,-6.881533999999999,4.687248,-0.07030745599999999,-0.21624869,0.033023197000000004,-14.64,3.48,-45.72
1554108444264,-4.7644614999999995,-6.848015299999999,4.8021703,-0.15020229,-0.2130529,0.047936900000000005,-14.76,3.06,-45.84
1554108444283,-4.7884035,-7.015609700000001,4.931457,-0.14807177,-0.20240025,0.06391586,-14.76,2.76,-45.9
1554108444303,-4.8985367,-6.8767457,4.9984946,-0.09161274,-0.19387813,0.05752428,-14.82,2.52,-45.96
1554108444323,-4.8602295,-6.8144965,4.883573,-0.047936900000000005,-0.18855181,0.05752428,-14.88,2.4,-45.96
1554108444344,-4.8745947,-6.7187285,4.859630999999999,-0.080960095,-0.17150758,0.09267801,-15.0,2.28,-46.02
1554108444363,-4.8219223,-6.7426705,4.830900700000001,-0.12144015,-0.15339808,0.1107875,-15.06,2.22,-46.02
1554108444383,-4.817133999999999,-6.795342999999999,4.8165355000000005,-0.15978967,-0.12783173,0.12037488,-15.18,2.16,-46.02
1554108444404,-4.7261543,-6.8575919999999995,4.7830167,-0.20026971,-0.1107875,0.11824436,-15.3,2.16,-46.02
1554108444423,-4.6878470000000005,-7.1975690000000005,5.0224366,-0.19813919,-0.080960095,0.12676647,-15.48,2.28,-46.02
1554108444445,-4.5058875,-7.2981253,5.0080714,-0.13741912,-0.04580637,0.15126756,-15.6,2.34,-46.02
1554108444463,-4.453215,-7.2741833,4.9218802,-0.11504856,-0.0063915867,0.17470337,-15.72,2.46,-46.02
1554108444483,-4.6016555,-7.2071457,4.8069587,-0.094808534,0.035153727999999995,0.17789917,-15.84,2.58,-46.02
1554108444504,-4.692635500000001,-6.9916677,4.941033999999999,-0.08735169,0.06285059999999999,0.17150758,-15.96,2.7,-46.02
1554108444523,-4.6686935,-6.800131299999999,4.883573,-0.08841695,0.07989483,0.17044231,-16.02,2.82,-46.08
1554108444544,-4.7309427,-6.8575919999999995,5.0846860000000005,-0.083090626,0.08522116,0.16937704,-16.08,3.0,-46.08
1554108444564,-4.630386,-6.656479400000001,5.0798974,-0.07030745599999999,0.10013486,0.17044231,-16.14,3.18,-46.08
1554108444583,-4.6495394999999995,-6.6469026,5.1038394,-0.05539375,0.1107875,0.15765914,-16.2,3.36,-46.08
1554108444604,-4.606444000000001,-6.508039,5.0511669999999995,-0.04474111,0.11717909,0.12996227,-16.26,3.48,-46.02
1554108444624,-4.5537715,-6.541558,5.089474,-0.020240024,0.128897,0.09587380000000001,-16.32,3.66,-46.02
1554108444643,-4.534618,-6.522404,5.194819,0.0010652645,0.16085494,0.06498113,-16.32,3.78,-46.02
1554108444664,-4.6208089999999995,-6.512827400000001,4.888361499999999,0.029827405,0.18429075,0.010652645,-16.32,3.96,-46.02
1554108444683,-4.5777135,-6.455366000000001,4.9937059999999995,0.036218993,0.19707392,-0.047936900000000005,-16.32,4.14,-45.96
1554108444704,-4.5537715,-6.4745197,5.099051,0.012783173500000002,0.2066613,-0.10546118,-16.32,4.32,-45.96
1554108444725,-4.606444000000001,-6.417059,4.9506106,-0.00958738,0.21944448,-0.15126756,-16.26,4.44,-45.9
1554108444743,-4.721366000000001,-6.508039,4.955399,0.036218993,0.22583607,-0.18855181,-16.2,4.56,-45.84
1554108444763,-4.783615,-6.359598,4.797382,0.08628642,0.22370553,-0.21624869,-16.14,4.56,-45.84
1554108444784,-4.984728,-6.407482,4.8021703,0.11504856,0.21092236,-0.24074976,-16.02,4.62,-45.78
1554108444803,-5.1762643,-6.3404446,4.768651,0.101200126,0.18535602,-0.2695119,-15.9,4.56,-45.78
1554108444824,-5.1092260000000005,-6.4122705,4.7734394,0.094808534,0.14487597,-0.2876214,-15.78,4.44,-45.72
1554108444843,-5.0374002,-6.417059,4.830900700000001,0.111852765,0.111852765,-0.30040458,-15.6,4.32,-45.72
1554108444863,-4.9703627,-6.4122705,4.744708999999999,0.13422333,0.08735169,-0.30146983,-15.48,4.14,-45.72
1554108444883,-4.8602295,-6.5655,4.7016134,0.14594123,0.05539375,-0.29188246,-15.3,4.02,-45.78
1554108444903,-4.7548847,-6.666056,4.601057,0.13315806,0.026631612000000002,-0.28549087,-15.06,3.9,-45.78
1554108444925,-4.817133999999999,-6.881533999999999,4.7303440000000005,0.113983296,-0.0053263223,-0.2790993,-14.82,3.66,-45.84
1554108444943,-4.6686935,-6.900687700000001,4.5962687,0.14061491,-0.029827405,-0.257794,-14.64,3.54,-45.9
1554108444963,-4.630386,-6.881533999999999,4.7303440000000005,0.15659387,-0.040480047000000005,-0.25140239999999997,-14.58,3.54,-45.9
1554108444984,-4.5872903,-6.7761892999999995,4.744708999999999,0.12037488,-0.05219796,-0.257794,-14.46,3.42,-45.9
1554108445004,-4.5681367,-6.848015299999999,4.706402,0.023435817999999997,-0.05752428,-0.24394555,-14.34,3.36,-45.96
1554108445024,-4.5872903,-6.9581485,4.7494974,-0.015978966,-0.05539375,-0.24501082,-14.22,3.24,-45.96
1554108445044,-4.548983,-6.977302000000001,4.68246,0.040480047000000005,-0.06178534,-0.24927188,-14.22,3.24,-45.96
1554108445064,-4.6878470000000005,-6.819285000000001,4.7782279999999995,0.12676647,-0.06604639400000001,-0.26525086,-14.22,3.18,-45.96
1554108445084,-4.635174299999999,-6.785766000000001,4.6393642,0.12570119999999999,-0.07350325,-0.29507825,-14.28,3.06,-45.96
1554108445104,-4.5154643,-6.8049197,4.687248,0.0010652645,-0.08948222,-0.27696875,-14.34,3.0,-45.96
1554108445124,-4.5681367,-6.881533999999999,4.7303440000000005,-0.14061491,-0.098004326,-0.2609898,-14.46,2.94,-45.96
1554108445143,-4.6495394999999995,-7.1879919999999995,4.759074,-0.18642128,-0.10652645,-0.25140239999999997,-14.52,2.82,-45.96
1554108445163,-4.477157,-7.2071457,4.8452660000000005,-0.08522116,-0.11611383,-0.24820662,-14.64,2.7,-46.02
1554108445183,-4.405330999999999,-7.1927805,4.8979383,0.06391586,-0.12357068,-0.24820662,-14.7,2.64,-46.02
1554108445204,-4.5298295,-7.2023573,4.601057,0.12357068,-0.12463594,-0.24927188,-14.76,2.64,-46.02
1554108445224,-4.5058875,-7.0970125,4.634576,0.060720075,-0.12996227,-0.23968449999999997,-14.88,2.58,-46.02
1554108445243,-4.434061499999999,-7.2023573,4.7734394,-0.041545313,-0.12144015,-0.22796659,-14.94,2.58,-46.02
1554108445263,-4.4580035,-7.1975690000000005,4.8069587,-0.098004326,-0.111852765,-0.21837921,-15.0,2.64,-46.02
1554108445284,-4.4675803,-7.178415299999999,4.8739963,-0.08628642,-0.10439592,-0.19281286,-15.06,2.7,-46.02
1554108445304,-4.4723687000000005,-7.1927805,4.869208,-0.041545313,-0.08735169,-0.17150758,-15.12,2.76,-46.02
1554108445323,-4.6016555,-7.1209545,4.8261123,-0.0010652645,-0.07989483,-0.1587244,-15.18,2.88,-46.02
1554108445344,-4.4915223,-7.2023573,4.830900700000001,0.0053263223,-0.06178534,-0.13315806,-15.24,2.94,-46.08
1554108445364,-4.510676,-7.0826473,4.854842700000001,-0.013848438000000001,-0.039414786,-0.113983296,-15.36,2.94,-46.08
1554108445384,-4.453215,-7.0970125,4.7878050000000005,-0.07243799,-0.008522116,-0.080960095,-15.42,3.0,-46.14
1554108445403,-4.4675803,-7.1879919999999995,4.8452660000000005,-0.11717909,0.011717908999999999,-0.06178534,-15.48,3.06,-46.2
1554108445424,-4.4675803,-7.16405,4.9458222,-0.1470065,0.037284255,-0.02876214,-15.54,3.06,-46.26
1554108445444,-4.405330999999999,-7.2023573,4.883573,-0.10013486,0.056459017,-0.007456851,-15.54,3.12,-46.32
1554108445463,-4.405330999999999,-7.2885485,4.8452660000000005,-0.04261058,0.06604639400000001,0.012783173500000002,-15.6,3.18,-46.32
1554108445483,-4.3526587,-7.0395517000000005,4.926668599999999,-0.039414786,0.07137272,0.026631612000000002,-15.6,3.18,-46.38
1554108445505,-4.343082,-7.0730705,4.687248,-0.10972224,0.07563378,0.04474111,-15.6,3.24,-46.44
1554108445524,-4.343082,-7.0347633,4.735132,-0.15552860000000002,0.06498113,0.05752428,-15.6,3.3,-46.5
1554108445544,-4.185065,-7.178415299999999,4.8500543,-0.12676647,0.047936900000000005,0.06178534,-15.6,3.42,-46.5
1554108445564,-4.223372,-7.0970125,4.821324,-0.07563378,0.03089267,0.053263225,-15.6,3.48,-46.5
1554108445584,-4.314351599999999,-7.1353197,4.7255554,-0.036218993,0.014913702,0.043675844000000005,-15.6,3.54,-46.44
1554108445604,-4.2760444,-7.015609700000001,4.553173,-0.051132694000000006,-0.00958738,0.035153727999999995,-15.6,3.66,-46.44
1554108445625,-4.3574470000000005,-7.044339999999999,4.6297874000000006,-0.14487597,-0.034088463,0.025566347000000003,-15.54,3.78,-46.38
1554108445644,-4.3478703,-7.1113777,4.6202106,-0.17896444,-0.049002163,0.033023197000000004,-15.54,3.78,-46.38
1554108445664,-4.3957543,-7.2023573,4.601057,-0.15659387,-0.07456851,0.041545313,-15.48,3.84,-46.32
1554108445684,-4.4149080000000005,-7.154473299999999,4.553173,-0.128897,-0.098004326,0.037284255,-15.42,3.9,-46.2
1554108445704,-4.4436383,-7.173627000000001,4.4286747,-0.12037488,-0.11611383,0.04261058,-15.42,3.9,-46.14
1554108445723,-4.5537715,-7.2502413,4.500500700000001,-0.12144015,-0.12144015,0.054328485999999995,-15.42,3.9,-46.14
1554108445743,-4.510676,-7.3364325,4.6441526,-0.13741912,-0.128897,0.056459017,-15.48,3.96,-46.14
1554108445764,-4.4484267,-7.211933999999999,4.6202106,-0.17363810000000002,-0.11930962,0.05965481,-15.48,3.96,-46.08
1554108445783,-4.525041000000001,-7.2262993,4.4861355000000005,-0.20879184,-0.10865697,0.06604639400000001,-15.54,3.96,-46.08
1554108445804,-4.534618,-7.211933999999999,4.5148660000000005,-0.23435818,-0.09374327,0.084155895,-15.66,4.2,-46.02
1554108445825,-4.55856,-7.3268557,4.5483847,-0.24607609,-0.084155895,0.10652645,-15.72,4.38,-46.02
1554108445844,-4.5202527,-7.2789717000000005,4.5148660000000005,-0.22690132,-0.07137272,0.13635385,-15.78,4.68,-46.02
1554108445863,-4.630386,-7.3220673,4.4143095,-0.19068234,-0.07030745599999999,0.15339808,-15.78,4.98,-45.96
1554108445883,-4.697424,-7.1879919999999995,4.385579,-0.21198763,-0.06924219,0.165116,-15.78,5.28,-45.9
1554108445904,-4.7740383,-7.259817999999999,4.270657,-0.28868666,-0.07563378,0.18109496,-15.78,5.58,-45.84
1554108445923,-4.7453080000000005,-7.484873299999999,4.361637,-0.30679616,-0.094808534,0.1949434,-15.84,5.88,-45.78
1554108445944,-4.6255975,-7.5327573,4.4621935,-0.26205507,-0.113983296,0.21198763,-15.84,6.18,-45.66
1554108445964,-4.673482,-7.3843164,4.433463,-0.2066613,-0.12676647,0.21411815,-15.9,6.3,-45.6
1554108445984,-4.6495394999999995,-7.3603745,4.4238862999999995,-0.18429075,-0.128897,0.221575,-15.96,6.48,-45.54
1554108446003,-4.6016555,-7.484873299999999,4.3568487000000005,-0.20453078,-0.13102753,0.24501082,-16.02,6.66,-45.54
1554108446024,-4.692635500000001,-7.4274119999999995,4.117428299999999,-0.25885928,-0.13209279,0.25672874,-16.08,6.84,-45.48
1554108446043,-4.630386,-7.389105000000001,4.385579,-0.30999196,-0.12570119999999999,0.28655612,-16.14,7.02,-45.48
1554108446064,-4.510676,-7.398681599999999,4.447828299999999,-0.27377295,-0.12037488,0.2972088,-16.14,7.26,-45.42
1554108446084,-4.5058875,-7.374739599999999,4.4526167,-0.1768339,-0.11930962,0.2876214,-16.2,7.5,-45.42
1554108446104,-4.4963107,-7.2885485,4.256292,-0.112918034,-0.113983296,0.2790993,-16.2,7.74,-45.42
1554108446123,-4.7500963,-7.2406645,4.3281183,-0.11824436,-0.098004326,0.2695119,-16.2,7.98,-45.36
1554108446144,-4.6878470000000005,-7.389105000000001,4.32333,-0.18535602,-0.07776430000000001,0.2790993,-16.26,8.16,-45.36
1554108446164,-4.6208089999999995,-7.317278999999999,4.500500700000001,-0.20559604,-0.06391586,0.294013,-16.26,8.34,-45.3
1554108446183,-4.6255975,-7.211933999999999,4.6441526,-0.16618125,-0.046871635999999994,0.27377295,-16.26,8.52,-45.24
1554108446203,-4.55856,-7.0826473,4.419098,-0.10759171,-0.041545313,0.25672874,-16.26,8.64,-45.12
1554108446224,-4.8506527,-7.1065892999999996,4.4382515,-0.07563378,-0.02876214,0.23648871,-16.26,8.76,-45.06
1554108446244,-4.8985367,-7.1448965,4.32333,-0.08522116,-0.011717908999999999,0.2130529,-16.26,9.06,-45.0
1554108446264,-4.802768700000001,-7.0634937,4.3999443,-0.09374327,-0.012783173500000002,0.19920446,-16.26,9.3,-44.88
1554108446284,-4.7453080000000005,-7.0730705,4.6202106,-0.08628642,0.0063915867,0.19281286,-16.26,9.48,-44.82
1554108446303,-4.7979803,-7.0634937,4.4286747,-0.07563378,0.025566347000000003,0.17576863,-16.2,9.72,-44.76
1554108446323,-4.7884035,-6.9820905,4.3807906999999995,-0.06711166,0.036218993,0.16724652,-16.2,9.9,-44.7
1554108446344,-4.9559975,-6.9102645,4.529230999999999,-0.068176925,0.051132694000000006,0.16192019,-16.14,10.14,-44.64
1554108446363,-4.903325,-6.9581485,4.5196543,-0.04580637,0.05965481,0.1438107,-16.14,10.32,-44.58
1554108446384,-4.8602295,-6.9102645,4.3568487000000005,0.01917476,0.07350325,0.12144015,-16.08,10.44,-44.52
1554108446403,-4.9512089999999995,-6.7905545,4.23235,0.054328485999999995,0.080960095,0.08948222,-16.02,10.44,-44.46
1554108446423,-5.090072599999999,-6.771400999999999,4.2371383,0.026631612000000002,0.08948222,0.049002163,-15.96,10.5,-44.4
1554108446444,-5.1571107000000005,-6.881533999999999,4.2754455,-0.024501082,0.098004326,0.015978966,-15.9,10.62,-44.28
1554108446464,-5.1235914000000005,-6.9581485,4.2754455,-0.033023197000000004,0.099069595,0.002130529,-15.84,10.68,-44.22
1554108446484,-5.0613421999999995,-6.8863225,4.2275615,-0.022370555,0.112918034,-0.0031957934000000003,-15.78,10.8,-44.16
1554108446508,-5.085284,-6.8049197,4.117428299999999,-0.037284255,0.12783173,-0.01917476,-15.72,10.86,-44.16
1554108446524,-5.2289367,-6.9916677,4.3424835,-0.033023197000000004,0.14168017,-0.04261058,-15.66,10.98,-44.22
1554108446544,-5.2145715,-7.1448965,4.1078515,0.046871635999999994,0.1470065,-0.06285059999999999,-15.6,11.04,-44.22
1554108446563,-5.2002063,-6.9198413,4.1557355000000005,0.13315806,0.15126756,-0.07776430000000001,-15.48,11.04,-44.22
1554108446583,-5.233725,-6.7905545,3.9833531000000004,0.15978967,0.15765914,-0.08522116,-15.48,11.04,-44.22
1554108446604,-5.272032299999999,-6.785766000000001,3.9163153,0.13848437,0.15978967,-0.084155895,-15.42,10.98,-44.22
1554108446624,-5.243302,-6.996455999999999,4.079121,0.165116,0.15552860000000002,-0.10013486,-15.3,10.74,-44.28
1554108446644,-5.305551,-6.929417999999999,3.8588544999999996,0.19387813,0.15552860000000002,-0.1107875,-15.24,10.68,-44.22
1554108446663,-5.329493,-6.8575919999999995,3.8732197,0.19068234,0.1587244,-0.12144015,-15.18,10.56,-44.28
1554108446684,-5.3725886,-6.843227000000001,3.7822402000000004,0.15446335,0.16085494,-0.12570119999999999,-15.12,10.38,-44.28
1554108446703,-5.2002063,-6.785766000000001,3.9498343,0.12996227,0.15659387,-0.12250541,-15.06,10.32,-44.28
1554108446723,-5.305551,-6.7570357,3.9929300000000003,0.12676647,0.15659387,-0.13422333,-15.0,10.14,-44.28
1554108446743,-5.353435,-6.795342999999999,3.8780080999999997,0.12783173,0.15339808,-0.14061491,-14.94,10.08,-44.34
1554108446764,-5.248090299999999,-6.8719573,3.7966053,0.12570119999999999,0.15020229,-0.14913702,-14.76,10.02,-44.34
1554108446784,-5.319916200000001,-6.881533999999999,3.9067385000000003,0.15978967,0.15552860000000002,-0.15552860000000002,-14.64,10.02,-44.34
1554108446804,-5.410896,-6.737882000000001,4.0025067000000005,0.17363810000000002,0.16085494,-0.15552860000000002,-14.52,9.96,-44.4
1554108446824,-5.506664,-6.761824000000001,3.8349125,0.15233281,0.16298546,-0.14913702,-14.4,9.84,-44.34
1554108446844,-5.386954,-6.7666125,4.0503907,0.111852765,0.15765914,-0.13528858,-14.22,9.66,-44.34
1554108446864,-5.4061074,-6.8288617,4.064756,0.098004326,0.15126756,-0.12783173,-14.04,9.54,-44.34
1554108446883,-5.444414599999999,-6.8575919999999995,3.9163153,0.113983296,0.14168017,-0.12463594,-13.8,9.42,-44.34
1554108446904,-5.425261,-6.891111,3.887585,0.101200126,0.13528858,-0.11717909,-13.68,9.24,-44.34
1554108446924,-5.420472599999999,-6.962936999999999,3.8397010000000003,0.05006743,0.128897,-0.094808534,-13.56,9.12,-44.34
1554108446944,-5.4683566,-6.9485717000000005,3.9211037,0.039414786,0.12463594,-0.080960095,-13.5,9.0,-44.4
1554108446964,-5.559336,-6.905475999999999,4.016872,0.07669904,0.113983296,-0.07137272,-13.38,8.88,-44.46
1554108446984,-5.511451999999999,-6.699575,3.863643,0.11930962,0.10226539,-0.07137272,-13.2,8.88,-44.46
1554108447003,-5.583278,-6.546346,3.8061821000000005,0.111852765,0.08522116,-0.068176925,-13.08,8.82,-44.52
1554108447024,-5.511451999999999,-6.675633,3.9115269999999995,0.04580637,0.07669904,-0.058589544,-13.02,8.82,-44.58
1554108447044,-5.60722,-6.7522473,3.9211037,0.004261058,0.068176925,-0.056459017,-13.02,8.82,-44.64
1554108447063,-5.602432,-6.7426705,3.9594111000000005,0.0,0.05965481,-0.06604639400000001,-12.9,8.76,-44.64
1554108447084,-5.5976434,-6.7330937,3.743933,-0.022370555,0.041545313,-0.06391586,-12.84,8.64,-44.7
1554108447103,-5.57849,-6.9437833,3.7774517999999997,-0.068176925,0.03089267,-0.05006743,-12.72,8.58,-44.7
1554108447124,-5.5641245999999995,-7.015609700000001,3.9306807999999998,-0.10439592,0.025566347000000003,-0.033023197000000004,-12.66,8.52,-44.7
1554108447143,-5.635950599999999,-6.9437833,4.031237,-0.068176925,0.022370555,-0.033023197000000004,-12.66,8.46,-44.7
1554108447164,-5.659893,-7.0874357,3.9306807999999998,-0.007456851,0.017044231,-0.022370555,-12.6,8.4,-44.64
1554108447183,-5.645528,-6.800131299999999,3.6337996,-0.0053263223,0.007456851,-0.011717908999999999,-12.6,8.28,-44.64
1554108447203,-5.664681400000001,-6.8863225,4.007295,-0.07243799,-0.008522116,0.0031957934000000003,-12.54,8.22,-44.64
1554108447224,-5.626374,-6.9342065,3.8061821000000005,-0.09054748,-0.023435817999999997,0.024501082,-12.54,8.16,-44.64
1554108447243,-5.650316,-6.938994999999999,3.8157589999999995,-0.046871635999999994,-0.04261058,0.02876214,-12.48,8.22,-44.64
1554108447263,-5.626374,-6.8144965,3.7487214,-0.008522116,-0.060720075,0.015978966,-12.42,8.16,-44.64
1554108447284,-5.626374,-6.680421400000001,3.9067385000000003,-0.012783173500000002,-0.07137272,0.02130529,-12.36,8.16,-44.64
1554108447304,-5.5641245999999995,-6.7666125,3.9498343,-0.04261058,-0.07776430000000001,0.034088463,-12.36,8.16,-44.58
1554108447324,-5.4970870000000005,-6.8097080000000005,3.9594111000000005,-0.049002163,-0.083090626,0.049002163,-12.36,8.22,-44.58
1554108447344,-5.583278,-6.7426705,3.9641995000000003,-0.05965481,-0.07776430000000001,0.049002163,-12.42,8.34,-44.46
1554108447363,-5.506664,-6.800131299999999,3.9594111000000005,-0.06498113,-0.07669904,0.058589544,-12.42,8.4,-44.4
1554108447384,-5.506664,-6.7666125,4.079121,-0.053263225,-0.080960095,0.054328485999999995,-12.48,8.52,-44.34
1554108447403,-5.506664,-6.7522473,4.0839095,-0.037284255,-0.07350325,0.047936900000000005,-12.54,8.58,-44.28
1554108447424,-5.612008599999999,-6.7666125,4.0503907,-0.03089267,-0.06924219,0.02876214,-12.66,8.7,-44.28
1554108447444,-5.6551046,-6.7043633,3.9546227,-0.043675844000000005,-0.07137272,0.023435817999999997,-12.72,8.82,-44.28
1554108447463,-5.57849,-6.8097080000000005,3.9546227,-0.068176925,-0.07882957,0.027696876000000002,-12.78,8.88,-44.34
1554108447485,-5.5545480000000005,-6.8528037,4.0839095,-0.07137272,-0.082025364,0.035153727999999995,-12.78,9.0,-44.46
1554108447504,-5.588066599999999,-6.900687700000001,4.031237,-0.047936900000000005,-0.07989483,0.041545313,-12.78,9.06,-44.58
1554108447523,-5.6551046,-6.7666125,3.9354692000000004,-0.027696876000000002,-0.06711166,0.046871635999999994,-12.78,9.06,-44.76
1554108447544,-5.612008599999999,-6.7522473,4.1078515,-0.025566347000000003,-0.06285059999999999,0.056459017,-12.78,9.06,-44.82
1554108447563,-5.626374,-6.8049197,3.9211037,-0.025566347000000003,-0.051132694000000006,0.06391586,-12.78,9.12,-44.94
1554108447583,-5.635950599999999,-6.8097080000000005,3.9737763,-0.013848438000000001,-0.046871635999999994,0.05539375,-12.78,9.12,-44.94
1554108447603,-5.60722,-6.7522473,3.8780080999999997,-0.007456851,-0.05219796,0.053263225,-12.78,9.12,-44.94
1554108447624,-5.5737014,-6.603807000000001,3.9067385000000003,-0.036218993,-0.046871635999999994,0.053263225,-12.84,9.12,-44.7
1554108447644,-5.631162000000001,-6.6852098,3.8732197,-0.034088463,-0.053263225,0.049002163,-12.9,9.12,-44.58
1554108447663,-5.635950599999999,-6.7905545,3.9354692000000004,-0.020240024,-0.054328485999999995,0.05006743,-12.96,9.12,-44.52
1554108447683,-5.612008599999999,-6.6516910000000005,3.8588544999999996,-0.03195793,-0.054328485999999995,0.04474111,-12.96,9.12,-44.4
1554108447703,-5.659893,-6.5846534,3.7870286,-0.05965481,-0.058589544,0.046871635999999994,-13.02,9.12,-44.4
1554108447725,-5.726930599999999,-6.689997999999999,3.8827964999999995,-0.10333065,-0.056459017,0.043675844000000005,-13.02,9.12,-44.34
1554108447743,-5.645528,-6.6612678,3.7295678,-0.1107875,-0.06285059999999999,0.033023197000000004,-13.02,9.12,-44.34
1554108447764,-5.645528,-6.627749000000001,4.0120835,-0.10972224,-0.06604639400000001,0.026631612000000002,-13.02,9.18,-44.34
1554108447784,-5.6551046,-6.666056,3.8540661,-0.11930962,-0.06285059999999999,0.022370555,-12.96,9.18,-44.4
1554108447803,-5.6407394,-6.5942300000000005,3.8732197,-0.13954964,-0.06178534,0.025566347000000003,-12.96,9.24,-44.46
1554108447823,-5.674258,-6.5942300000000005,3.8827964999999995,-0.18216023,-0.060720075,0.025566347000000003,-12.9,9.24,-44.46
1554108447844,-5.602432,-6.713939999999999,3.8301241000000004,-0.20133498,-0.05965481,0.025566347000000003,-12.9,9.3,-44.52
1554108447863,-5.602432,-6.848015299999999,3.8109705000000003,-0.19174760000000002,-0.05752428,0.025566347000000003,-12.9,9.3,-44.52
1554108447884,-5.635950599999999,-6.824073299999999,3.8349125,-0.14594123,-0.05539375,0.025566347000000003,-12.84,9.3,-44.52
1554108447904,-5.707777,-6.8671690000000005,3.8397010000000003,-0.10439592,-0.05752428,0.023435817999999997,-12.84,9.36,-44.46
1554108447923,-5.659893,-6.713939999999999,3.8253357000000006,-0.08948222,-0.06178534,0.022370555,-12.9,9.48,-44.4
1554108447944,-5.722142,-6.6947865,3.6816837999999996,-0.10013486,-0.068176925,0.020240024,-12.96,9.6,-44.4
1554108447964,-5.746084,-6.6852098,3.6625300000000003,-0.12357068,-0.07669904,0.015978966,-13.08,9.72,-44.34
1554108447984,-5.707777,-6.7570357,3.8492777,-0.13209279,-0.09587380000000001,0.017044231,-13.14,9.9,-44.34
1554108448004,-5.683835,-6.7666125,3.7199910000000003,-0.13102753,-0.10759171,0.022370555,-13.26,10.02,-44.28
1554108448024,-5.750872599999999,-6.771400999999999,3.6673183,-0.14274544,-0.11504856,0.017044231,-13.32,10.14,-44.28
1554108448044,-5.8322754,-6.7666125,3.7199910000000003,-0.1470065,-0.12144015,0.024501082,-13.44,10.32,-44.22
1554108448063,-5.6886234,-6.9150529999999995,3.8827964999999995,-0.12463594,-0.12570119999999999,0.03089267,-13.5,10.5,-44.22
1554108448083,-5.66947,-6.8049197,3.8492777,-0.068176925,-0.12996227,0.03195793,-13.56,10.68,-44.22
1554108448105,-5.765238,-6.7570357,3.6864722000000003,-0.05219796,-0.12570119999999999,0.020240024,-13.56,10.86,-44.16
1554108448124,-5.8226986,-6.7570357,3.5811272000000005,-0.09374327,-0.12783173,0.023435817999999997,-13.56,10.98,-44.16
1554108448143,-5.6886234,-6.785766000000001,3.8253357000000006,-0.11504856,-0.12144015,0.034088463,-13.62,11.1,-44.1
1554108448164,-5.66947,-6.800131299999999,3.7630866000000003,-0.112918034,-0.11611383,0.03834952,-13.62,11.22,-44.1
1554108448184,-5.674258,-6.785766000000001,3.6625300000000003,-0.11504856,-0.11504856,0.033023197000000004,-13.68,11.34,-44.04
1554108448204,-5.7029886,-6.7091517000000005,3.7295678,-0.12463594,-0.12144015,0.039414786,-13.74,11.46,-43.98
1554108448223,-5.7125654,-6.7522473,3.8205473,-0.11504856,-0.12250541,0.037284255,-13.8,11.58,-43.86
1554108448245,-5.750872599999999,-6.795342999999999,3.8013937000000007,-0.09374327,-0.12463594,0.025566347000000003,-13.92,11.7,-43.74
1554108448264,-5.683835,-6.737882000000001,3.7726634,-0.09587380000000001,-0.13422333,0.029827405,-13.98,11.88,-43.62
1554108448284,-5.6982,-6.737882000000001,3.6290112,-0.12463594,-0.13635385,0.026631612000000002,-14.1,12.06,-43.5
1554108448303,-5.6982,-6.6852098,3.7630866000000003,-0.15126756,-0.13741912,0.034088463,-14.16,12.3,-43.44
1554108448324,-5.602432,-6.83365,3.8971617,-0.14061491,-0.13528858,0.04261058,-14.22,12.48,-43.38
1554108448343,-5.645528,-6.7666125,3.7630866000000003,-0.10546118,-0.13102753,0.041545313,-14.28,12.66,-43.32
1554108448366,-5.645528,-6.6947865,3.8157589999999995,-0.07776430000000001,-0.12996227,0.033023197000000004,-14.34,12.96,-43.32
1554108448384,-5.7125654,-6.771400999999999,3.7104141999999998,-0.11504856,-0.12463594,0.024501082,-14.4,13.08,-43.38
1554108448403,-5.635950599999999,-6.689997999999999,3.8013937000000007,-0.14274544,-0.11930962,0.024501082,-14.46,13.08,-43.38
1554108448424,-5.707777,-6.8144965,3.8013937000000007,-0.16724652,-0.1107875,0.020240024,-14.52,13.14,-43.44
1554108448444,-5.741296,-6.8575919999999995,3.6673183,-0.15659387,-0.10865697,0.02130529,-14.52,13.2,-43.5
1554108448463,-5.707777,-6.771400999999999,3.7582982000000005,-0.13209279,-0.10226539,0.015978966,-14.64,13.2,-43.5
1554108448483,-5.674258,-6.8049197,3.8253357000000006,-0.112918034,-0.09587380000000001,0.010652645,-14.7,13.26,-43.5
1554108448505,-5.6790465999999995,-6.881533999999999,3.8301241000000004,-0.113983296,-0.09161274,0.010652645,-14.76,13.38,-43.5
1554108448524,-5.7700260000000005,-6.7187285,3.8780080999999997,-0.13315806,-0.09161274,0.014913702,-14.82,13.62,-43.44
1554108448543,-5.741296,-6.771400999999999,3.7295678,-0.13954964,-0.09054748,0.020240024,-14.82,13.8,-43.44
1554108448563,-5.755661,-6.680421400000001,3.7774517999999997,-0.15233281,-0.08628642,0.024501082,-14.88,13.98,-43.38
1554108448584,-5.7700260000000005,-6.8288617,3.7008373999999997,-0.20240025,-0.07137272,0.022370555,-14.94,14.16,-43.32
1554108448603,-5.78918,-6.843227000000001,3.9067385000000003,-0.27483824,-0.05219796,0.015978966,-14.94,14.34,-43.2
1554108448623,-5.755661,-7.015609700000001,3.887585,-0.26418558,-0.040480047000000005,0.01917476,-15.0,14.46,-43.2
1554108448644,-5.813122,-7.0587053,3.8301241000000004,-0.17150758,-0.03195793,0.020240024,-15.0,14.52,-43.14
1554108448664,-5.726930599999999,-6.9437833,3.6673183,-0.07669904,-0.034088463,0.020240024,-15.0,14.52,-43.14
1554108448683,-5.7987566,-6.699575,3.494936,-0.06924219,-0.03195793,0.03089267,-15.06,14.52,-43.08
1554108448703,-5.755661,-6.9150529999999995,3.5284547999999996,-0.094808534,-0.035153727999999995,0.041545313,-15.06,14.46,-43.08
1554108448723,-5.7700260000000005,-6.9150529999999995,3.6098576,-0.08735169,-0.043675844000000005,0.046871635999999994,-15.06,14.52,-43.02
1554108448743,-5.746084,-6.800131299999999,3.3464954,-0.07669904,-0.053263225,0.05219796,-15.06,14.76,-42.96
1554108448764,-5.865794,-6.843227000000001,3.4518404,-0.07563378,-0.06924219,0.047936900000000005,-15.06,15.06,-42.9
1554108448784,-5.861006,-6.819285000000001,3.54282,-0.10439592,-0.07669904,0.046871635999999994,-15.0,15.36,-42.84
1554108448803,-5.8466406,-6.824073299999999,3.5093012000000003,-0.12463594,-0.08628642,0.04261058,-15.0,15.66,-42.78
1554108448824,-5.8322754,-6.7522473,3.4662056000000003,-0.15446335,-0.09587380000000001,0.047936900000000005,-15.0,15.96,-42.72
1554108448844,-5.865794,-6.747458999999999,3.4422636,-0.2034655,-0.101200126,0.05539375,-15.0,16.26,-42.66
1554108448864,-5.8466406,-6.83365,3.6290112,-0.22796659,-0.10333065,0.06711166,-15.0,16.5,-42.6
1554108448884,-5.7939680000000005,-6.881533999999999,3.3512837999999996,-0.21731395,-0.101200126,0.06924219,-14.94,16.68,-42.6
1554108448903,-5.861006,-6.7666125,3.221997,-0.26525086,-0.099069595,0.060720075,-15.0,16.68,-42.6
1554108448924,-5.741296,-6.8049197,3.4087446000000003,-0.31957933,-0.10439592,0.049002163,-15.0,16.62,-42.6
1554108448943,-5.645528,-6.938994999999999,3.4326867999999995,-0.30892670000000005,-0.10546118,0.04261058,-15.0,16.62,-42.6
1554108448964,-5.659893,-6.9342065,3.4805707999999997,-0.22370553,-0.11504856,0.01917476,-15.0,16.68,-42.6
1554108448984,-5.66947,-6.8575919999999995,3.4278982000000005,-0.14807177,-0.10972224,0.0031957934000000003,-15.06,16.74,-42.54
1554108449003,-5.650316,-6.9677253,3.4183214,-0.113983296,-0.10865697,-0.002130529,-15.12,16.86,-42.54
1554108449023,-5.635950599999999,-6.9725137,3.3081882000000005,-0.013848438000000001,-0.11824436,-0.010652645,-15.12,16.98,-42.48
1554108449043,-5.588066599999999,-6.905475999999999,3.5093012000000003,0.051132694000000006,-0.111852765,-0.013848438000000001,-15.18,17.22,-42.42
1554108449063,-5.612008599999999,-6.747458999999999,3.2603042,0.05006743,-0.10546118,-0.039414786,-15.24,17.46,-42.36
1554108449083,-5.602432,-6.7043633,3.317765,-0.02876214,-0.09161274,-0.046871635999999994,-15.3,17.7,-42.36
1554108449103,-5.6886234,-6.6852098,3.447052,-0.10652645,-0.10226539,-0.049002163,-15.36,17.94,-42.3
1554108449123,-5.889736,-6.905475999999999,3.2507273999999997,-0.13102753,-0.10865697,-0.05006743,-15.36,18.12,-42.24
1554108449144,-5.8849480000000005,-6.8528037,3.3560722000000003,-0.13315806,-0.10972224,-0.04474111,-15.42,18.3,-42.18
1554108449164,-5.971139,-6.8719573,3.293823,-0.12570119999999999,-0.10013486,-0.035153727999999995,-15.48,18.48,-42.18
1554108449184,-5.9998693,-6.9485717000000005,3.4231097999999998,-0.13635385,-0.08735169,-0.03089267,-15.54,18.54,-42.12
1554108449203,-5.8945246,-7.006033,3.5332432000000003,-0.12676647,-0.083090626,-0.02130529,-15.54,18.54,-42.12
1554108449223,-5.9184665999999995,-7.0730705,3.2603042,-0.11611383,-0.07456851,-0.002130529,-15.6,18.6,-42.06
1554108449244,-5.8705826,-6.929417999999999,3.317765,-0.13635385,-0.06711166,0.015978966,-15.66,18.6,-42.06
1554108449263,-5.9280434,-6.9677253,3.3752258,-0.17896444,-0.04580637,0.039414786,-15.72,18.6,-42.06
1554108449283,-5.923255,-6.986878999999999,3.2363622000000003,-0.18429075,-0.03195793,0.056459017,-15.9,18.6,-42.06
1554108449304,-5.7029886,-7.0395517000000005,3.2746694,-0.13954964,-0.020240024,0.08841695,-16.14,18.66,-42.06
1554108449323,-5.7700260000000005,-6.962936999999999,3.2603042,-0.10439592,-0.007456851,0.07989483,-16.26,18.78,-42.06
1554108449344,-5.7700260000000005,-7.0491285,3.0400376000000002,-0.096939065,-0.0053263223,0.07456851,-16.38,18.9,-41.94
1554108449363,-5.760449400000001,-6.9677253,3.1118636000000004,-0.12250541,-0.0010652645,0.07669904,-16.44,19.02,-41.82
1554108449383,-5.722142,-6.9581485,3.1358056,-0.13635385,0.0063915867,0.07350325,-16.5,19.14,-41.7
1554108449404,-5.6790465999999995,-6.8719573,3.3704373999999997,-0.09267801,0.018109497,0.07350325,-16.56,19.32,-41.52
