TimeStamp,Ax,Ay,Az,Gx,Gy,Gz,Mx,My,Mz
1554879837483,-2.0685901999999996,-3.0029275,9.806051,-0.56672066,0.12144015,0.18642128,-8.04,-31.2,-53.16
1554879837504,-2.0973208,-3.1657330000000004,9.849147,-0.5550028,0.21518342,0.13528858,-8.04,-30.66,-53.28
1554879837524,-2.0829554,-3.031658,9.576208,-0.5784385999999999,0.2790993,0.101200126,-8.1,-30.12,-53.4
1554879837543,-2.27928,-3.1800982999999996,8.843582000000001,-0.68816084,0.38882150000000004,0.1107875,-8.1,-29.58,-53.58
1554879837565,-2.2984335,-3.5871127,8.661622999999999,-0.94488955,0.45593318,0.19920446,-8.1,-28.98,-53.7
1554879837583,-2.3415293999999998,-3.5679589999999997,9.130887,-1.0929613,0.5837649,0.23968449999999997,-8.1,-28.38,-53.88
1554879837603,-2.336741,-4.061165,9.351153,-1.0002834,0.70627034,0.1949434,-8.1,-27.78,-54.06
1554879837624,-2.7724855,-4.439448400000001,9.054273,-0.8788431999999999,0.8692558000000001,0.17044231,-8.1,-27.0,-54.18
1554879837644,-2.8299465,-4.5352163,8.575432000000001,-0.8607336999999999,1.0066749,0.221575,-8.04,-26.1,-54.3
1554879837664,-2.8682537,-4.7842135,8.565855,-0.809601,1.1206582,0.27590349999999997,-7.92,-25.14,-54.42
1554879837684,-3.2273839,-4.8320975,8.187572,-0.72011876,1.2026836,0.33662358,-7.74,-24.06,-54.54
1554879837703,-3.4811692,-4.678869000000001,8.168417999999999,-0.6018744,1.2367721,0.42290998,-7.56,-23.04,-54.72
1554879837724,-3.8786068,-4.659715,7.74225,-0.5411543000000001,1.220793,0.51665324,-7.2,-22.08,-54.9
1554879837744,-4.209007,-4.8320975,7.713519,-0.62744075,1.2037488,0.60080916,-6.6,-21.18,-55.02
1554879837764,-4.4149080000000005,-5.0284224,7.627327999999999,-0.7797736,1.1856394,0.69348717,-5.88,-20.28,-55.14
1554879837784,-4.4436383,-5.1529207,7.981669999999999,-0.85540736,1.1899004,0.80107886,-5.16,-19.56,-55.32
1554879837804,-4.941632299999999,-5.2199583,8.015189,-0.8117314999999999,1.2026836,0.9214538000000001,-4.5,-18.78,-55.38
1554879837824,-5.2241483,-5.445012999999999,7.354389,-0.773382,1.1835088,1.0663296999999998,-3.72,-18.0,-55.44
1554879837844,-5.2863975,-5.3300915,7.014412400000001,-0.7392935,1.1696603,1.1941614,-3.06,-17.16,-55.5
1554879837863,-5.583278,-5.172074299999999,7.138911,-0.6945524000000001,1.1472898999999999,1.2325108999999999,-2.34,-16.32,-55.56
1554879837884,-5.851429,-4.918288700000001,7.1915830000000005,-0.6466155,1.1163971000000001,1.3028183999999998,-1.62,-15.42,-55.5
1554879837904,-6.3446345,-4.7985787,7.119757000000001,-0.52411014,1.0812434,1.3997575,-1.08,-14.64,-55.44
1554879837924,-6.5840545,-4.707599,6.96174,-0.40266997,1.0333065000000001,1.4988271,-0.6,-13.8,-55.32
1554879837944,-6.7468604999999995,-4.487332299999999,6.3823433,-0.25885928,0.9683254000000001,1.562743,-0.18,-12.9,-55.2
1554879837964,-6.789956,-4.19524,6.377555,-0.07456851,0.9054747999999999,1.6085493999999998,0.3,-12.24,-55.08
1554879837984,-6.9767036,-3.6541502,6.39192,0.084155895,0.87032104,1.6799221000000002,0.78,-11.64,-54.96
1554879838004,-7.2352777,-3.3907879999999997,5.802946599999999,0.15339808,0.8245146999999999,1.7406421000000003,1.26,-11.28,-54.72
1554879838024,-7.359775999999999,-3.1465794999999996,5.544372599999999,0.11611383,0.77444726,1.7768611,1.68,-11.1,-54.42
1554879838044,-7.1969705,-2.9167361,5.218761,0.007456851,0.7275756,1.7608821,1.98,-10.98,-54.12
1554879838063,-7.4028716,-2.5576060000000003,5.127781400000001,0.047936900000000005,0.68389976,1.6959009999999999,2.34,-11.1,-53.76
1554879838084,-7.431602000000001,-2.3612813999999998,4.859630999999999,0.08948222,0.6444850000000001,1.6852484,2.52,-11.16,-53.64
1554879838104,-7.5704656,-1.8632874,4.6441526,0.09054748,0.6444850000000001,1.7172063999999998,2.76,-11.46,-53.46
1554879838123,-7.6135616,-1.5855601000000001,4.500500700000001,0.14913702,0.63915867,1.7033578,2.94,-11.82,-53.28
1554879838145,-7.6231384,-1.1881226,4.11264,0.23009712,0.6199839,1.6543556000000001,3.12,-12.66,-53.1
1554879838164,-7.819463000000001,-0.9056068000000002,3.6768951000000003,0.3153183,0.5965481,1.6010925,3.18,-13.32,-53.04
1554879838184,-7.6231384,-0.66139823,3.494936,0.3334278,0.572047,1.5286545,3.24,-13.92,-53.04
1554879838204,-7.445967,-0.26396075,3.6673183,0.34301516,0.5933523,1.4295848999999998,3.24,-14.7,-53.04
1554879838223,-7.608772999999999,0.08080431,3.6577415,0.45060685,0.608266,1.2900352,3.24,-15.54,-53.04
1554879838243,-7.575253999999999,0.3537433,3.3273417999999997,0.5187838,0.588026,1.1867046,3.3,-16.32,-53.04
1554879838264,-7.61835,0.741604,2.9299042,0.52411014,0.5539375,1.0769824,3.3,-17.04,-53.04
1554879838284,-7.603985000000001,0.9187749,2.7240029999999997,0.46552056,0.51452273,0.92997587,3.42,-17.64,-52.98
1554879838304,-7.723694999999999,1.1677719,2.6473885,0.36218992,0.5006742999999999,0.77444726,3.48,-18.18,-52.92
1554879838323,-7.9822683,1.1486181999999998,2.508525,0.28655612,0.47191215,0.6593986999999999,3.54,-18.9,-52.86
1554879838344,-7.9583262999999995,1.3640964,2.5899277,0.14594123,0.43782368,0.51665324,3.66,-19.68,-52.74
1554879838363,-8.125919999999999,1.1390414,2.6952724,-0.060720075,0.38882150000000004,0.38242993,3.66,-20.34,-52.68
1554879838384,-8.336611,1.0528502,2.843713,-0.17896444,0.35579833,0.3334278,3.66,-20.94,-52.56
1554879838404,-8.327033,1.1677719,2.8485014,-0.27164245,0.29827404,0.2695119,3.6,-21.54,-52.38
1554879838424,-8.485051,1.311424,3.198055,-0.23116238,0.28655612,0.17576863,3.54,-22.08,-52.26
1554879838444,-8.791509,1.3401544,3.2028434,-0.17150758,0.29614353,0.10652645,3.42,-22.62,-52.14
1554879838463,-8.920795,1.2156559,3.3512837999999996,-0.19281286,0.33129725,0.07989483,3.36,-23.04,-52.08
1554879838484,-8.939949,1.1150993999999999,3.1070752,-0.20453078,0.3323625,0.046871635999999994,3.24,-23.16,-51.96
1554879838504,-9.040505,1.0959458,2.7670987,-0.15978967,0.32810146,0.05006743,3.18,-23.1,-51.96
1554879838524,-8.844180999999999,1.3210008,3.3512837999999996,0.0053263223,0.30679616,0.04474111,3.24,-22.98,-51.9
1554879838545,-8.767567,1.2012907,3.4662056000000003,0.21731395,0.26418558,0.03195793,3.36,-22.86,-51.84
1554879838563,-8.90643,1.2539631000000002,3.1741127999999996,0.2876214,0.23861924,0.008522116,3.54,-22.68,-51.84
1554879838583,-9.136273,1.2826935,2.915539,0.19600865,0.21518342,-0.024501082,3.72,-22.56,-51.84
1554879838603,-9.246407000000001,1.4407108999999998,2.6378117000000003,0.08522116,0.1587244,-0.047936900000000005,3.9,-22.38,-51.78
1554879838624,-9.193734,1.6418238,2.7240029999999997,0.049002163,0.09161274,-0.051132694000000006,4.14,-22.32,-51.78
1554879838645,-9.102755,1.3880384,2.9394810000000002,0.06391586,0.06391586,-0.047936900000000005,4.38,-22.26,-51.66
1554879838664,-9.270349000000001,1.2108675,3.0879216,0.101200126,0.04580637,-0.06285059999999999,4.56,-22.26,-51.54
1554879838685,-8.887277000000001,1.1294646000000002,3.3752258,0.12037488,0.06178534,-0.05539375,4.74,-22.26,-51.42
1554879838703,-8.868122999999999,1.3688848,2.9873652,0.20026971,0.025566347000000003,-0.07563378,4.86,-22.26,-51.3
1554879838723,-9.045294,1.4359225,2.4271219,0.26418558,-0.046871635999999994,-0.11611383,4.98,-22.26,-51.18
1554879838744,-8.465898,1.3449427999999999,2.6473885,0.13102753,-0.111852765,-0.13954964,5.04,-22.32,-51.12
1554879838764,-8.978256,1.5747862,2.5995044999999997,0.037284255,-0.13102753,-0.22796659,5.1,-22.44,-51.0
1554879838784,-8.858546,1.3880384,2.4558525,-0.11930962,-0.14168017,-0.3174488,5.16,-22.56,-50.94
1554879838803,-9.083601,1.1150993999999999,2.7814639,-0.36218992,-0.07030745599999999,-0.29933932,5.22,-22.68,-50.94
1554879838823,-9.217675999999999,0.6123171,2.4319102999999997,-0.43888897,-0.07350325,-0.24501082,5.22,-22.8,-50.94
1554879838844,-9.045294,0.29628247,2.7527334999999997,-0.47297743,-0.07563378,-0.24181503,5.22,-22.92,-50.94
1554879838864,-9.3182335,0.30585927,3.1118636000000004,-0.42077947,-0.025566347000000003,-0.33129725,5.28,-22.86,-50.94
1554879838884,-9.356541,0.44472298,3.0639796,-0.41119209999999995,0.02130529,-0.30146983,5.28,-22.74,-50.94
1554879838904,-9.457097000000001,0.42078096,3.09271,-0.32597092,0.07882957,-0.19068234,5.28,-22.56,-50.88
1554879838923,-9.519346,0.6075286999999999,3.3608606,-0.12250541,0.096939065,-0.13954964,5.28,-22.2,-50.88
1554879838943,-9.452309,0.49739540000000004,2.819771,0.09587380000000001,0.053263225,-0.15765914,5.28,-21.84,-50.88
1554879838964,-9.294291000000001,0.76075757,2.6521769,0.084155895,0.018109497,-0.13954964,5.34,-21.24,-50.88
1554879838984,-9.399636,0.8182184,2.7000610000000003,0.008522116,0.017044231,-0.11824436,5.34,-21.06,-50.88
1554879839004,-9.557653,0.7751228,3.198055,-0.11504856,0.035153727999999995,-0.099069595,5.4,-20.46,-50.94
1554879839023,-9.399636,0.6362591,3.0735563999999997,-0.11611383,0.03834952,-0.07989483,5.4,-20.16,-50.94
1554879839044,-9.457097000000001,0.6745663000000001,3.0496144,-0.022370555,0.03195793,-0.06285059999999999,5.46,-19.8,-51.0
1554879839064,-9.313444,0.4878186,2.7623102999999998,0.080960095,0.004261058,-0.06498113,5.52,-19.62,-51.0
1554879839084,-9.188946000000001,0.49739540000000004,2.7096379,0.10226539,-0.02876214,-0.05219796,5.58,-19.38,-51.0
1554879839104,-9.279925,0.6027403,2.747945,0.068176925,-0.034088463,-0.03834952,5.7,-19.2,-51.0
1554879839124,-9.184157,0.4878186,2.7383683,0.07456851,-0.035153727999999995,-0.034088463,5.76,-19.08,-51.0
1554879839143,-9.299078999999999,0.53091425,2.819771,0.083090626,-0.03089267,-0.01917476,5.82,-18.9,-50.94
1554879839164,-9.241617999999999,0.5165489999999999,2.7287915000000003,0.083090626,-0.03089267,-0.002130529,5.94,-18.84,-50.88
1554879839183,-9.279925,0.55006784,2.7862522999999997,0.08628642,-0.018109497,-0.002130529,6.0,-18.84,-50.88
1554879839205,-9.217675999999999,0.6985083000000001,2.7000610000000003,0.15446335,-0.029827405,-0.011717908999999999,6.06,-18.9,-50.82
1554879839223,-9.121908,0.6745663000000001,2.6426,0.18855181,-0.037284255,-0.024501082,6.06,-18.96,-50.82
1554879839244,-9.121908,0.55485624,2.8006175,0.19281286,-0.034088463,-0.024501082,6.12,-19.02,-50.88
1554879839264,-9.227253,0.7128736,2.6952724,0.11930962,-0.017044231,-0.011717908999999999,6.06,-19.08,-50.88
1554879839284,-9.11712,0.5979519,2.6569653,0.06178534,-0.014913702,-0.014913702,6.06,-19.14,-50.94
1554879839304,-9.088389,0.8038531999999999,2.8341362,0.034088463,-0.011717908999999999,-0.022370555,6.12,-19.26,-51.0
1554879839324,-9.121908,0.7032967,2.8628666000000003,0.02876214,0.002130529,-0.04261058,6.12,-19.32,-51.06
1554879839344,-9.14585,0.7272388000000001,2.8532897999999998,0.046871635999999994,0.012783173500000002,-0.060720075,6.12,-19.38,-51.12
1554879839364,-9.208099,0.6410475,2.7000610000000003,0.022370555,0.007456851,-0.06498113,6.18,-19.44,-51.18
1554879839384,-9.188946000000001,0.6745663000000001,2.7766755,-0.05965481,0.013848438000000001,-0.056459017,6.24,-19.5,-51.18
1554879839403,-9.227253,0.7703344,3.3369186,-0.04474111,0.023435817999999997,-0.05752428,6.3,-19.56,-51.18
1554879839423,-8.8777,0.7128736,4.8739963,0.40053943,0.25566345,-0.13741912,6.3,-19.62,-51.18
1554879839443,-8.834603999999999,0.7224503999999999,3.3943794,1.1494204,0.18642128,-0.27696875,6.36,-19.68,-51.12
1554879839464,-9.188946000000001,1.6226702,2.154183,1.3784522,0.06391586,-0.42717105,6.36,-19.8,-51.12
1554879839484,-8.829816000000001,1.1773487,1.9243397,0.9896306999999999,0.080960095,-0.46552056,6.36,-20.04,-51.12
1554879839504,-9.030928999999999,0.57400984,1.8860323,0.2790993,0.094808534,-0.37390783,6.36,-20.28,-51.06
1554879839524,-9.23683,0.17657238,2.2403743,-0.29294774,0.06285059999999999,-0.27057716,6.42,-20.58,-51.06
1554879839544,-9.313444,-0.05805939,2.6521769,-0.57098174,0.054328485999999995,-0.23435818,6.48,-20.94,-50.94
1554879839564,-9.514558000000001,-0.14903906,2.6042929,-0.49960902,0.036218993,-0.19920446,6.54,-21.24,-50.88
1554879839584,-9.528922999999999,-0.24959552,2.3840263,-0.18748654,-0.025566347000000003,-0.14594123,6.66,-21.6,-50.76
1554879839603,-9.562441999999999,0.15741876,2.556409,0.098004326,-0.05965481,-0.11717909,6.72,-21.84,-50.52
1554879839624,-9.437942999999999,0.52612585,2.7575218999999995,0.21944448,-0.060720075,-0.11824436,6.84,-21.84,-50.28
1554879839643,-9.390058999999999,0.6266823,2.5516205000000003,0.15126756,-0.029827405,-0.113983296,6.9,-21.9,-50.1
1554879839663,-9.423578,0.56922144,2.570774,0.0063915867,-0.002130529,-0.10226539,6.96,-21.84,-49.92
1554879839684,-9.404425,0.49260699999999996,2.6761188999999996,-0.10546118,-0.010652645,-0.08948222,7.02,-21.72,-49.74
1554879839704,-9.414000999999999,0.24361002,2.6856956000000003,-0.15020229,-0.01917476,-0.07350325,7.08,-21.54,-49.62
1554879839723,-9.423578,-0.05805939,2.8868085999999997,-0.14487597,-0.011717908999999999,-0.043675844000000005,7.14,-21.3,-49.56
1554879839743,-9.303867,-0.024540568,2.9011737999999996,-0.11504856,0.0010652645,-0.02876214,7.14,-21.24,-49.56
1554879839764,-9.275136999999999,0.13826515,2.8868085999999997,0.022370555,0.0031957934000000003,-0.008522116,7.2,-21.12,-49.62
1554879839783,-9.279925,0.21487960000000003,2.5755625,0.07989483,-0.012783173500000002,0.0031957934000000003,7.2,-21.12,-49.62
1554879839804,-9.088389,0.42556936,2.3888147,0.043675844000000005,-0.04580637,0.0053263223,7.32,-21.12,-49.68
1554879839824,-9.198523,0.47345337,2.6234465,-0.06604639400000001,-0.040480047000000005,-0.015978966,7.32,-21.06,-49.68
1554879839845,-9.303867,0.30585927,2.7527334999999997,-0.10226539,-0.036218993,-0.022370555,7.38,-21.06,-49.74
1554879839864,-9.198523,0.22924481,2.8820202,-0.12357068,-0.03089267,-0.029827405,7.38,-21.0,-49.74
1554879839884,-9.246407000000001,0.09516951400000001,2.6090812999999997,-0.10546118,-0.035153727999999995,-0.04261058,7.44,-21.0,-49.8
1554879839904,-9.184157,0.21009120000000003,2.7240029999999997,-0.05539375,-0.060720075,-0.05965481,7.5,-20.94,-49.8
1554879839924,-9.212888000000001,0.20051439,2.8389246,-0.0063915867,-0.06604639400000001,-0.06391586,7.5,-20.76,-49.86
1554879839945,-9.26556,0.28670564,2.9059622000000003,0.0053263223,-0.05219796,-0.06391586,7.5,-20.58,-49.86
1554879839964,-9.26556,0.21487960000000003,2.7240029999999997,-0.05006743,-0.04261058,-0.058589544,7.5,-20.4,-49.86
1554879839983,-9.260772,0.20051439,2.6569653,-0.11611383,-0.026631612000000002,-0.05752428,7.5,-20.22,-49.86
1554879840003,-9.299078999999999,0.08559271,2.7096379,-0.09161274,-0.033023197000000004,-0.054328485999999995,7.5,-19.98,-49.86
1554879840023,-9.179369,0.10474633,2.8006175,-0.015978966,-0.047936900000000005,-0.05219796,7.5,-19.8,-49.86
1554879840044,-9.217675999999999,0.24839842,2.6809072,0.049002163,-0.041545313,-0.05006743,7.5,-19.62,-49.8
1554879840065,-9.323022,0.11432313,2.7096379,0.03089267,-0.03089267,-0.039414786,7.38,-19.5,-49.8
1554879840083,-9.323022,0.20530279,2.7335799,-0.026631612000000002,-0.033023197000000004,-0.039414786,7.32,-19.44,-49.8
1554879840103,-9.289502,0.14305355,2.690484,-0.10013486,-0.039414786,-0.040480047000000005,7.26,-19.5,-49.8
1554879840124,-9.337387,0.23882163,2.915539,-0.12250541,-0.040480047000000005,-0.027696876000000002,7.2,-19.62,-49.8
1554879840143,-9.332599,0.11432313,2.8389246,-0.07563378,-0.053263225,-0.024501082,7.08,-19.74,-49.8
1554879840163,-9.289502,0.29628247,2.9203273999999997,-0.023435817999999997,-0.05965481,-0.023435817999999997,7.02,-19.92,-49.8
1554879840184,-9.227253,0.23403321,2.8054059,-0.0053263223,-0.06924219,-0.014913702,6.96,-20.1,-49.86
1554879840204,-9.212888000000001,0.16220717,2.7623102999999998,-0.014913702,-0.094808534,-0.011717908999999999,6.9,-20.28,-49.86
1554879840223,-9.097966,0.45908818,2.7527334999999997,-0.046871635999999994,-0.112918034,-0.036218993,6.84,-20.46,-49.92
1554879840244,-9.040505,0.43035775,2.8485014,-0.018109497,-0.13209279,-0.049002163,6.78,-20.58,-49.98
1554879840263,-8.939949,0.66498953,2.6761188999999996,-0.0053263223,-0.17576863,-0.07776430000000001,6.72,-20.64,-50.04
1554879840283,-9.074024,0.38726214,2.690484,-0.026631612000000002,-0.20453078,-0.13635385,6.66,-20.7,-50.1
1554879840304,-8.949525999999999,0.20530279,2.6330232999999996,-0.08735169,-0.25140239999999997,-0.16937704,6.66,-20.7,-50.22
1554879840323,-8.7532015,0.30585927,3.068768,-0.096939065,-0.2876214,-0.20026971,6.66,-20.64,-50.28
1554879840343,-8.7532015,0.15741876,2.9346926,-0.018109497,-0.34301516,-0.25885928,6.6,-20.58,-50.4
1554879840364,-8.686164,0.090381116,2.9634232999999996,0.033023197000000004,-0.38882150000000004,-0.29507825,6.6,-20.46,-50.52
1554879840384,-8.441956,0.0712275,3.2363622000000003,0.060720075,-0.45806372,-0.34621096,6.6,-20.34,-50.7
1554879840404,-8.556877,0.20530279,3.1405939999999997,0.07456851,-0.51452273,-0.4133226,6.6,-20.22,-50.82
1554879840424,-8.513782,0.32501290000000005,3.1118636000000004,0.07776430000000001,-0.5965481,-0.48682585,6.66,-20.1,-50.88
1554879840443,-8.2169,0.13826515,3.1358056,0.05539375,-0.67218184,-0.5581986,6.66,-19.98,-50.94
1554879840464,-8.202535000000001,-0.13946225,3.4614172,-0.0010652645,-0.7254451,-0.64341974,6.66,-19.86,-51.06
1554879840484,-7.97748,-0.3597288,3.7295678,-0.034088463,-0.7978831000000001,-0.721184,6.66,-19.74,-51.24
1554879840504,-7.905653999999999,-0.4890157,3.6816837999999996,-0.041545313,-0.87351686,-0.76912093,6.48,-19.62,-51.42
1554879840524,-7.848192999999999,-0.55126494,3.8492777,-0.004261058,-0.94595486,-0.8277104999999999,6.24,-19.56,-51.54
1554879840544,-7.61835,-0.7380127,4.0695443,0.03195793,-1.0301107,-0.89375687,5.88,-19.44,-51.72
1554879840564,-7.546523599999999,-0.8912416,4.1078515,0.049002163,-1.1004181999999998,-0.9491506,5.52,-19.32,-51.96
1554879840584,-7.5321584,-1.0205284,4.1413703,0.06711166,-1.1888351000000001,-1.0130665,5.1,-19.2,-52.14
1554879840603,-7.043741000000001,-1.264737,4.5483847,0.04474111,-1.2602079,-1.0695255,4.68,-19.02,-52.38
1554879840623,-6.8761472999999995,-1.4514848,4.6920366,-0.025566347000000003,-1.3017531999999998,-1.1163971000000001,4.2,-18.84,-52.56
1554879840645,-7.0724716,-1.6430208999999998,5.0463786,-0.058589544,-1.3422332000000001,-1.1707256000000001,3.78,-18.6,-52.68
1554879840664,-6.564901,-1.8489223000000001,5.4964886,-0.04474111,-1.4008228,-1.2452941000000002,3.24,-18.24,-52.86
1554879840684,-6.4882865,-2.3277626000000002,5.558737799999999,-0.046871635999999994,-1.4104101999999998,-1.2783173,2.88,-18.0,-52.92
1554879840704,-6.315904,-2.629432,5.7646394,-0.09587380000000001,-1.4082796999999998,-1.2676646999999999,2.64,-17.88,-52.92
1554879840724,-5.995081,-2.8736405,6.2865753,-0.12037488,-1.3848438,-1.2900352,1.8,-17.64,-53.1
1554879840745,-6.0333879999999995,-2.8592752999999997,6.1955953,-0.04474111,-1.3805827,-1.365669,1.26,-17.46,-53.34
1554879840764,-5.851429,-3.0460230999999998,6.4637459999999995,-0.058589544,-1.361408,-1.3624732,0.72,-17.34,-53.52
1554879840784,-5.4922986,-3.3237504999999996,6.7893577,-0.10546118,-1.3124058,-1.3432984,0.12,-17.28,-53.76
1554879840804,-5.2385135,-3.5871127,7.0527196,-0.13954964,-1.2602079,-1.3486248,-0.36,-17.22,-54.0
1554879840824,-5.1379566,-3.8121676,7.3974850000000005,-0.2034655,-1.1994878,-1.3518206,-0.9,-17.1,-54.3
1554879840845,-4.936844000000001,-3.8361096,6.995259,-0.33449304,-1.1558118999999998,-1.3454291,-1.5,-16.92,-54.6
1554879840863,-4.692635500000001,-4.204817,7.354389,-0.45167214,-1.0972224,-1.3241237,-1.98,-16.62,-54.84
1554879840884,-4.5394063,-4.6501384,7.866748299999999,-0.5432849000000001,-1.0088054,-1.2697952,-2.34,-16.26,-55.08
1554879840904,-4.1371803,-5.406706,7.866748299999999,-0.5784385999999999,-0.8926915999999999,-1.1856394,-2.7,-15.96,-55.2
1554879840924,-3.9552212,-5.7466826,8.134899,-0.41225734,-0.75633776,-1.1153319,-3.12,-15.54,-55.26
1554879840943,-3.9983168,-5.478532,8.048708,-0.21092236,-0.6860303000000001,-1.0769824,-3.72,-15.12,-55.32
1554879840963,-3.9121256,-5.559935,7.9912467000000005,-0.07989483,-0.6412892,-1.0205233,-4.26,-14.64,-55.44
1554879840984,-3.7301662,-5.497685400000001,8.077438,-0.06711166,-0.5518069999999999,-0.8564726,-4.74,-14.22,-55.5
1554879841005,-3.5673605999999998,-5.535993,8.053496,-0.13528858,-0.48682585,-0.809601,-5.04,-13.86,-55.56
1554879841023,-3.4811692,-5.3205147,7.967304700000001,-0.22690132,-0.41438788,-0.8117314999999999,-5.34,-13.68,-55.62
1554879841044,-3.4859576,-5.2726307,8.07265,-0.24181503,-0.36005938,-0.7680557,-5.58,-13.5,-55.74
1554879841064,-3.3423057000000003,-5.3636102999999995,7.7374616,-0.25246766,-0.30892670000000005,-0.6988135,-5.82,-13.32,-55.8
1554879841084,-3.1268275,-5.579088700000001,7.9194207,-0.2609898,-0.25566345,-0.67324716,-6.0,-13.2,-55.86
1554879841104,-2.9735985,-5.5407815000000005,7.9146323,-0.28016454,-0.21092236,-0.64768076,-6.12,-13.08,-55.92
1554879841123,-3.1316159,-5.5982423,7.9002669999999995,-0.30892670000000005,-0.14487597,-0.6125271,-6.18,-12.84,-56.04
1554879841145,-3.1603463,-5.583876999999999,7.7183075,-0.2972088,-0.099069595,-0.57417756,-6.24,-12.6,-56.04
1554879841165,-2.9640217,-5.761048000000001,7.780557000000001,-0.27057716,-0.08522116,-0.53795856,-6.36,-12.36,-56.04
1554879841184,-2.873042,-5.6461263,7.7183075,-0.27696875,-0.06178534,-0.515588,-6.42,-12.12,-56.04
1554879841204,-2.72939,-5.6221843,8.077438,-0.26205507,-0.041545313,-0.4825648,-6.48,-11.82,-56.1
1554879841224,-2.7629087,-5.6940102999999995,7.7039423,-0.24501082,-0.022370555,-0.46019423,-6.54,-11.46,-56.1
1554879841245,-2.6431987,-5.7323174,7.5985975,-0.24394555,-0.00958738,-0.44634579999999996,-6.54,-11.1,-56.1
1554879841264,-2.6001031,-5.7418942,7.330447,-0.24501082,-0.012783173500000002,-0.4261058,-6.54,-10.8,-56.1
1554879841284,-2.6240451,-5.990891,7.1963716,-0.24181503,-0.0053263223,-0.39734364,-6.54,-10.62,-56.16
1554879841305,-2.6048915,-6.033987000000001,7.1724296,-0.18322548,-0.007456851,-0.37816888,-6.54,-10.44,-56.16
1554879841324,-2.4420857000000002,-6.158485400000001,7.234678999999999,-0.16405073,-0.011717908999999999,-0.35473305,-6.54,-10.26,-56.22
1554879841344,-2.3127987,-6.239888,7.229890299999999,-0.18535602,-0.0053263223,-0.3291667,-6.54,-10.02,-56.22
1554879841364,-2.3223755,-6.297349,7.08145,-0.18855181,-0.0031957934000000003,-0.29933932,-6.54,-9.78,-56.28
1554879841384,-2.2601264,-6.330868,6.870760400000001,-0.17044231,-0.015978966,-0.28016454,-6.54,-9.6,-56.28
1554879841404,-2.1930888,-6.2351,7.071872999999999,-0.165116,-0.017044231,-0.26312032,-6.6,-9.36,-56.34
1554879841423,-2.1212628,-6.282984,6.889914,-0.13635385,-0.012783173500000002,-0.24820662,-6.66,-9.0,-56.34
1554879841443,-2.0638018,-6.297349,6.875549,-0.12783173,-0.0053263223,-0.22903186,-6.72,-8.64,-56.34
1554879841464,-2.0111293999999997,-6.192004,6.918644400000001,-0.15978967,0.007456851,-0.20985709,-6.78,-8.1,-56.34
1554879841484,-2.135628,-6.2351,6.755839,-0.16085494,0.015978966,-0.21092236,-6.84,-7.74,-56.34
1554879841505,-2.0733786,-6.335656,6.6983776,-0.1438107,0.014913702,-0.20453078,-6.9,-7.5,-56.34
1554879841524,-2.0398598000000003,-6.3883285999999995,6.6792240000000005,-0.14168017,0.011717908999999999,-0.19600865,-6.9,-7.2,-56.28
1554879841545,-1.958457,-6.4793080000000005,6.8516070000000004,-0.16085494,0.015978966,-0.2034655,-6.96,-7.02,-56.22
1554879841563,-2.1164744,-6.488885,6.870760400000001,-0.18961707,0.025566347000000003,-0.21731395,-6.96,-6.84,-56.22
1554879841584,-2.0494366000000004,-6.589442,6.9665284,-0.20985709,0.020240024,-0.22264028,-6.9,-6.66,-56.16
1554879841604,-2.0350714,-6.5750766,6.885125599999999,-0.19600865,0.012783173500000002,-0.22264028,-6.84,-6.6,-56.1
1554879841624,-2.0111293999999997,-6.5511346,6.870760400000001,-0.18748654,0.002130529,-0.21837921,-6.78,-6.48,-56.04
1554879841643,-2.0685901999999996,-6.618172,6.899491,-0.23222765,0.004261058,-0.19920446,-6.66,-6.36,-55.98
1554879841665,-2.0446482,-6.785766000000001,6.937798,-0.26312032,0.011717908999999999,-0.1768339,-6.54,-6.12,-55.98
1554879841684,-2.0829554,-6.713939999999999,6.894702400000001,-0.22264028,0.013848438000000001,-0.16298546,-6.48,-5.82,-55.98
1554879841704,-1.9632453999999997,-6.6852098,6.7845693,-0.14274544,0.011717908999999999,-0.12250541,-6.42,-5.46,-55.98
1554879841724,-1.9297266,-6.747458999999999,6.84203,-0.112918034,0.020240024,-0.10546118,-6.36,-5.1,-56.04
1554879841744,-1.8626889,-6.5655,6.717531,-0.07882957,0.022370555,-0.09054748,-6.3,-4.8,-56.04
1554879841764,-1.9201498,-6.618172,6.602609599999999,-0.06178534,0.022370555,-0.056459017,-6.24,-4.44,-56.1
1554879841784,-1.8243817,-6.7091517000000005,6.4781113,-0.060720075,0.017044231,-0.037284255,-6.24,-4.14,-56.1
1554879841804,-1.6519991000000003,-6.7091517000000005,6.473323000000001,-0.05219796,0.008522116,-0.040480047000000005,-6.18,-3.84,-56.1
1554879841824,-1.685518,-6.785766000000001,6.4541693,-0.034088463,0.00958738,-0.047936900000000005,-6.18,-3.66,-56.16
1554879841844,-1.6663644,-6.819285000000001,6.4828997,-0.020240024,0.0053263223,-0.04261058,-6.18,-3.54,-56.1
1554879841864,-1.6807296000000003,-6.675633,6.4110737,0.0,0.008522116,-0.056459017,-6.12,-3.48,-56.1
1554879841884,-1.6472107,-6.747458999999999,6.4828997,-0.0063915867,-0.004261058,-0.05539375,-6.12,-3.42,-56.1
1554879841904,-1.7525556,-6.6947865,6.324882499999999,-0.04261058,-0.013848438000000001,-0.04474111,-6.12,-3.42,-56.04
1554879841925,-1.7094599999999998,-6.8288617,6.616975,-0.08735169,-0.014913702,-0.04261058,-6.12,-3.42,-56.04
1554879841944,-1.6376339,-6.9342065,6.6792240000000005,-0.09587380000000001,-0.02130529,-0.041545313,-6.12,-3.42,-56.04
1554879841964,-1.6472107,-6.8575919999999995,6.6217630000000005,-0.04261058,-0.02130529,-0.046871635999999994,-6.12,-3.42,-56.04
1554879841984,-1.6711528000000002,-6.675633,6.607398,0.08522116,-0.013848438000000001,-0.096939065,-6.12,-3.36,-55.98
1554879842004,-1.7477672,-6.311714,6.4876879999999995,0.19387813,-0.020240024,-0.11504856,-6.12,-3.36,-56.04
1554879842024,-1.8148049,-6.287772,6.2339025,0.27057716,-0.040480047000000005,-0.06604639400000001,-6.12,-3.3,-56.04
1554879842044,-1.6184803,-6.455366000000001,6.353613,0.19600865,-0.051132694000000006,-0.02876214,-6.12,-3.3,-55.98
1554879842064,-1.5801731,-6.546346,6.186018499999999,0.04580637,-0.04580637,-0.05965481,-6.12,-3.3,-55.98
1554879842084,-1.7238252,-6.546346,6.51163,-0.05006743,-0.05219796,-0.096939065,-6.12,-3.24,-55.98
1554879842105,-1.5466543,-6.7330937,6.4781113,-0.07882957,-0.05965481,-0.08628642,-6.18,-3.24,-55.92
1554879842124,-1.5179238000000002,-6.9198413,6.554725599999999,-0.08628642,-0.046871635999999994,-0.054328485999999995,-6.18,-3.3,-55.92
1554879842144,-1.5610195,-6.824073299999999,6.727108,-0.06498113,-0.03089267,-0.07030745599999999,-6.18,-3.3,-55.86
1554879842163,-1.6089035,-6.9437833,6.741472999999999,-0.017044231,-0.020240024,-0.084155895,-6.24,-3.36,-55.86
1554879842183,-1.5179238000000002,-6.795342999999999,6.4637459999999995,-0.010652645,-0.015978966,-0.06924219,-6.24,-3.36,-55.86
1554879842203,-1.5753847,-6.7426705,6.4924764999999995,-0.035153727999999995,-0.007456851,-0.06924219,-6.3,-3.42,-55.86
1554879842224,-1.5514427,-6.7187285,6.564302400000001,-0.06924219,-0.004261058,-0.07350325,-6.36,-3.42,-55.86
1554879842243,-1.6424223000000002,-6.7761892999999995,6.6744356,-0.096939065,0.004261058,-0.060720075,-6.42,-3.42,-55.86
1554879842264,-1.7190368000000003,-6.7905545,6.7845693,-0.083090626,0.0053263223,-0.06604639400000001,-6.42,-3.42,-55.86
1554879842283,-1.6519991000000003,-6.632537400000001,6.51163,-0.082025364,-0.007456851,-0.07350325,-6.48,-3.42,-55.86
1554879842304,-1.7764976000000003,-6.7283053,6.5403605,-0.053263225,-0.014913702,-0.07030745599999999,-6.48,-3.42,-55.86
1554879842325,-1.7142484,-6.795342999999999,6.554725599999999,-0.054328485999999995,-0.01917476,-0.068176925,-6.48,-3.36,-55.86
1554879842346,-1.7429788,-6.7761892999999995,6.449381,-0.06924219,-0.012783173500000002,-0.049002163,-6.42,-3.3,-55.92
1554879842363,-1.7573439999999998,-6.843227000000001,6.559514,-0.054328485999999995,-0.010652645,-0.047936900000000005,-6.42,-3.3,-55.86
1554879842384,-1.6759412,-6.8144965,6.5164184999999994,-0.008522116,-0.0031957934000000003,-0.054328485999999995,-6.36,-3.12,-55.86
1554879842404,-1.4604629999999998,-6.7761892999999995,6.27221,-0.01917476,-0.0063915867,-0.06285059999999999,-6.36,-3.0,-55.86
1554879842425,-1.4796166000000002,-6.962936999999999,6.3584013,-0.03089267,0.011717908999999999,-0.06178534,-6.36,-2.88,-55.86
1554879842444,-1.5562311000000002,-7.0012445,6.6744356,-0.037284255,0.03089267,-0.04580637,-6.36,-2.76,-55.86
1554879842464,-1.4652513999999999,-7.0634937,6.39192,-0.039414786,0.026631612000000002,-0.043675844000000005,-6.36,-2.64,-55.86
1554879842483,-1.6376339,-6.848015299999999,6.367978,-0.022370555,0.05006743,-0.040480047000000005,-6.36,-2.58,-55.86
1554879842504,-1.6711528000000002,-6.891111,6.425439,0.0010652645,0.046871635999999994,-0.04474111,-6.36,-2.46,-55.8
1554879842524,-1.5562311000000002,-6.8767457,6.3105173,-0.004261058,0.046871635999999994,-0.046871635999999994,-6.36,-2.46,-55.8
1554879842544,-1.5705963,-6.9102645,6.401497,-0.041545313,0.060720075,-0.036218993,-6.36,-2.46,-55.8
1554879842564,-1.6136919,-6.8719573,6.588244400000001,-0.043675844000000005,0.056459017,-0.03834952,-6.36,-2.46,-55.8
1554879842583,-1.6184803,-6.891111,6.5738792,-0.046871635999999994,0.05539375,-0.04261058,-6.42,-2.4,-55.8
1554879842603,-1.6950948000000001,-6.9485717000000005,6.3823433,-0.022370555,0.047936900000000005,-0.040480047000000005,-6.42,-2.34,-55.8
1554879842625,-1.7046716,-6.900687700000001,6.3871317,0.0010652645,0.037284255,-0.05006743,-6.42,-2.28,-55.74
1554879842644,-1.733402,-6.8144965,6.425439,0.004261058,0.029827405,-0.054328485999999995,-6.42,-2.22,-55.68
1554879842664,-1.5897499,-6.905475999999999,6.4350157,0.0031957934000000003,0.023435817999999997,-0.043675844000000005,-6.36,-2.16,-55.62
1554879842684,-1.6472107,-6.8767457,6.5259953,-0.002130529,0.026631612000000002,-0.053263225,-6.36,-2.16,-55.56
1554879842704,-1.5466543,-6.9437833,6.564302400000001,0.0031957934000000003,0.029827405,-0.054328485999999995,-6.36,-2.1,-55.56
1554879842724,-1.5897499,-6.8671690000000005,6.2626333,0.013848438000000001,0.046871635999999994,-0.06285059999999999,-6.3,-2.04,-55.56
1554879842743,-1.5849615,-6.938994999999999,6.5212069999999995,0.0063915867,0.049002163,-0.05752428,-6.18,-1.98,-55.62
1554879842764,-1.5514427,-6.83365,6.5307837,0.0053263223,0.060720075,-0.06711166,-6.0,-1.98,-55.68
1554879842784,-1.6567876,-6.986878999999999,6.473323000000001,0.0063915867,0.06604639400000001,-0.084155895,-5.88,-1.92,-55.74
1554879842803,-1.5849615,-6.891111,6.3871317,0.04261058,0.06391586,-0.08948222,-5.76,-1.86,-55.86
1554879842823,-1.5897499,-6.9102645,6.4685345000000005,0.058589544,0.07137272,-0.10226539,-5.64,-1.86,-55.92
1554879842843,-1.6424223000000002,-6.9150529999999995,6.39192,0.051132694000000006,0.07137272,-0.094808534,-5.52,-1.8,-55.98
1554879842863,-1.6136919,-6.8288617,6.3823433,0.058589544,0.07350325,-0.09374327,-5.4,-1.74,-55.98
1554879842884,-1.5993267,-6.9581485,6.401497,0.05752428,0.07563378,-0.094808534,-5.28,-1.68,-55.98
1554879842903,-1.6519991000000003,-6.824073299999999,6.1620764999999995,0.046871635999999994,0.07243799,-0.09267801,-5.28,-1.62,-55.8
1554879842924,-1.5466543,-6.8288617,6.2865753,0.023435817999999997,0.07350325,-0.08628642,-5.28,-1.62,-55.68
1554879842944,-1.6376339,-6.8767457,6.3488245,0.008522116,0.07350325,-0.07989483,-5.28,-1.62,-55.56
1554879842964,-1.6184803,-6.8144965,6.2769985,0.027696876000000002,0.07030745599999999,-0.09267801,-5.28,-1.68,-55.44
1554879842984,-1.6328455,-6.7570357,6.186018499999999,0.041545313,0.06285059999999999,-0.101200126,-5.28,-1.68,-55.32
1554879843005,-1.6567876,-6.761824000000001,6.2865753,0.04261058,0.051132694000000006,-0.111852765,-5.22,-1.68,-55.26
1554879843024,-1.6950948000000001,-6.8097080000000005,6.2530565000000005,0.017044231,0.036218993,-0.11824436,-5.22,-1.74,-55.26
1554879843044,-1.661576,-6.9150529999999995,6.4302273,0.0053263223,0.022370555,-0.12463594,-5.16,-1.74,-55.2
1554879843065,-1.541866,-6.986878999999999,6.458957700000001,0.023435817999999997,0.010652645,-0.11611383,-5.1,-1.8,-55.26
1554879843084,-1.5945383,-6.9581485,6.2817870000000005,0.03834952,0.004261058,-0.113983296,-5.1,-1.8,-55.32
1554879843104,-1.5945383,-7.006033,6.4781113,0.035153727999999995,0.0,-0.11717909,-5.04,-1.86,-55.38
1554879843124,-1.5562311000000002,-6.962936999999999,6.4541693,0.027696876000000002,-0.004261058,-0.11824436,-5.04,-1.92,-55.44
1554879843143,-1.6041151000000002,-6.986878999999999,6.425439,0.01917476,0.0,-0.111852765,-4.98,-1.92,-55.44
1554879843164,-1.5849615,-7.006033,6.257845,0.0053263223,-0.004261058,-0.09054748,-4.92,-1.92,-55.38
1554879843184,-1.5993267,-6.9437833,6.4302273,0.007456851,0.004261058,-0.07776430000000001,-4.92,-1.98,-55.38
1554879843204,-1.5562311000000002,-6.938994999999999,6.329671,0.024501082,0.010652645,-0.07243799,-4.86,-1.98,-55.32
1554879843223,-1.541866,-6.9102645,6.18123,0.034088463,0.015978966,-0.068176925,-4.86,-1.98,-55.26
1554879843245,-1.541866,-6.8528037,6.238691,0.015978966,0.020240024,-0.07030745599999999,-4.86,-2.04,-55.14
1554879843263,-1.4891934,-6.843227000000001,6.2099605,-0.007456851,0.020240024,-0.07350325,-4.86,-2.1,-55.14
1554879843284,-1.5753847,-6.9342065,6.3488245,-0.04261058,0.02130529,-0.07243799,-4.86,-2.1,-55.08
1554879843304,-1.541866,-6.9485717000000005,6.4206505,-0.046871635999999994,0.017044231,-0.06604639400000001,-4.92,-2.1,-55.08
1554879843324,-1.4317327,-6.996455999999999,6.3153057,-0.012783173500000002,0.017044231,-0.068176925,-4.92,-2.1,-55.14
1554879843344,-1.5370774999999999,-6.824073299999999,6.4302273,0.011717908999999999,0.013848438000000001,-0.07137272,-4.92,-2.1,-55.14
1554879843364,-1.5275006000000002,-6.8671690000000005,6.329671,0.0010652645,0.008522116,-0.06604639400000001,-4.86,-2.1,-55.26
1554879843383,-1.541866,-6.9820905,6.4398040000000005,-0.020240024,0.015978966,-0.056459017,-4.86,-2.04,-55.32
1554879843404,-1.5562311000000002,-6.9485717000000005,6.5403605,-0.02876214,0.012783173500000002,-0.053263225,-4.86,-1.98,-55.38
1554879843423,-1.5753847,-6.9820905,6.4062852999999995,-0.017044231,0.015978966,-0.047936900000000005,-4.8,-1.92,-55.44
1554879843443,-1.5705963,-6.9677253,6.2817870000000005,0.008522116,0.015978966,-0.041545313,-4.8,-1.92,-55.5
1554879843463,-1.5993267,-6.900687700000001,6.3727665,0.011717908999999999,0.007456851,-0.043675844000000005,-4.74,-1.92,-55.5
1554879843483,-1.6136919,-6.977302000000001,6.238691,-0.007456851,0.00958738,-0.041545313,-4.68,-1.86,-55.5
1554879843504,-1.4987701999999998,-6.9581485,6.4206505,-0.06285059999999999,0.013848438000000001,-0.03195793,-4.68,-1.86,-55.5
1554879843524,-1.5227122,-7.101800999999999,6.324882499999999,-0.07456851,0.020240024,-0.036218993,-4.68,-1.8,-55.44
1554879843544,-1.4508862,-7.101800999999999,6.377555,-0.047936900000000005,0.017044231,-0.029827405,-4.68,-1.74,-55.44
1554879843563,-1.484405,-7.0874357,6.291363700000001,0.011717908999999999,0.018109497,-0.014913702,-4.68,-1.68,-55.38
1554879843583,-1.484405,-6.9342065,6.3631897,0.024501082,0.004261058,-0.02130529,-4.68,-1.62,-55.38
1554879843603,-1.541866,-6.986878999999999,6.2195373,0.0053263223,0.0010652645,-0.02876214,-4.68,-1.56,-55.32
1554879843624,-1.6089035,-7.0395517000000005,6.401497,-0.036218993,0.0,-0.011717908999999999,-4.62,-1.5,-55.32
1554879843644,-1.4269443000000002,-7.0730705,6.3488245,-0.035153727999999995,-0.0031957934000000003,0.022370555,-4.62,-1.5,-55.32
1554879843663,-1.4221559,-7.1209545,6.377555,0.020240024,0.014913702,0.037284255,-4.62,-1.44,-55.32
1554879843683,-1.4173675,-6.9246297000000006,6.39192,0.07030745599999999,0.033023197000000004,0.011717908999999999,-4.62,-1.44,-55.32
1554879843704,-1.4508862,-6.7426705,6.1524997,0.06285059999999999,0.054328485999999995,-0.010652645,-4.62,-1.38,-55.32
1554879843723,-1.4700398000000001,-6.800131299999999,6.1955953,0.017044231,0.07137272,-0.02130529,-4.62,-1.38,-55.38
1554879843743,-1.4221559,-6.891111,6.2339025,-0.047936900000000005,0.07563378,-0.026631612000000002,-4.62,-1.38,-55.38
1554879843763,-1.4652513999999999,-6.848015299999999,6.214748999999999,-0.07669904,0.07882957,-0.04474111,-4.62,-1.38,-55.38
1554879843784,-1.5227122,-6.848015299999999,6.1524997,-0.04580637,0.06178534,-0.06604639400000001,-4.62,-1.38,-55.38
1554879843804,-1.6376339,-6.8049197,5.9849057,-0.033023197000000004,0.049002163,-0.07669904,-4.62,-1.32,-55.44
1554879843824,-1.6711528000000002,-6.8623804999999996,6.353613,-0.03834952,0.033023197000000004,-0.07882957,-4.62,-1.32,-55.44
1554879843844,-1.6089035,-6.996455999999999,6.305729,-0.05006743,0.014913702,-0.07243799,-4.5,-1.32,-55.44
1554879843864,-1.4796166000000002,-7.1305312999999995,6.2195373,-0.054328485999999995,0.0063915867,-0.05219796,-4.44,-1.32,-55.44
1554879843884,-1.5035586,-7.0874357,6.238691,-0.018109497,0.0,-0.058589544,-4.38,-1.26,-55.44
1554879843904,-1.412579,-7.0347633,6.128557700000001,0.015978966,0.004261058,-0.07563378,-4.32,-1.26,-55.44
1554879843924,-1.4604629999999998,-6.9916677,6.2003837,0.015978966,0.014913702,-0.07456851,-4.26,-1.2,-55.44
1554879843944,-1.4413095,-6.938994999999999,6.214748999999999,-0.008522116,0.03089267,-0.07669904,-4.26,-1.14,-55.44
1554879843964,-1.5801731,-6.8863225,6.3488245,-0.03195793,0.037284255,-0.080960095,-4.26,-1.14,-55.38
1554879843984,-1.5466543,-7.0395517000000005,6.27221,-0.060720075,0.04261058,-0.08948222,-4.38,-1.08,-55.38
1554879844003,-1.484405,-6.962936999999999,6.2195373,-0.07137272,0.047936900000000005,-0.09587380000000001,-4.44,-1.08,-55.38
1554879844024,-1.5610195,-7.0347633,6.2099605,-0.06285059999999999,0.053263225,-0.099069595,-4.56,-1.02,-55.38
1554879844043,-1.6041151000000002,-7.1209545,6.2769985,-0.060720075,0.056459017,-0.10013486,-4.56,-0.96,-55.38
1554879844064,-1.5801731,-7.0251865,6.2003837,-0.037284255,0.06391586,-0.10865697,-4.44,-0.9,-55.38
1554879844084,-1.6232687,-6.9485717000000005,6.186018499999999,-0.020240024,0.06391586,-0.12037488,-4.26,-0.84,-55.32
1554879844104,-1.5705963,-7.029975,6.205172,-0.037284255,0.056459017,-0.113983296,-4.08,-0.84,-55.32
1554879844124,-1.5131354,-7.020397999999999,6.1955953,-0.07776430000000001,0.05539375,-0.10439592,-3.84,-0.78,-55.26
1554879844143,-1.4748282,-7.116166000000001,6.1477113,-0.09374327,0.05752428,-0.10439592,-3.72,-0.78,-55.2
1554879844164,-1.4221559,-7.154473299999999,5.917868,-0.05006743,0.047936900000000005,-0.08841695,-3.42,-0.72,-55.08
1554879844184,-1.412579,-7.1305312999999995,6.047155,-0.013848438000000001,0.051132694000000006,-0.09054748,-3.24,-0.72,-54.96
1554879844204,-1.4508862,-7.116166000000001,6.0423665,-0.00958738,0.05752428,-0.096939065,-3.24,-0.6,-54.9
1554879844224,-1.5466543,-7.101800999999999,6.305729,-0.022370555,0.06604639400000001,-0.10439592,-3.3,-0.48,-54.84
1554879844244,-1.5035586,-7.2454529999999995,6.1046157,-0.018109497,0.060720075,-0.10652645,-3.42,-0.36,-54.78
1554879844263,-1.4508862,-7.2023573,6.095039,0.008522116,0.06391586,-0.11824436,-3.54,-0.24,-54.72
1554879844284,-1.5849615,-7.101800999999999,6.229114,0.047936900000000005,0.054328485999999995,-0.128897,-3.66,-0.06,-54.66
1554879844303,-1.5801731,-7.1065892999999996,6.1094040000000005,0.053263225,0.05006743,-0.10439592,-3.66,0.06,-54.72
1554879844324,-1.5945383,-7.0491285,6.071097,-0.0053263223,0.036218993,-0.08841695,-3.66,0.18,-54.72
1554879844344,-1.5466543,-7.259817999999999,6.27221,-0.029827405,0.02876214,-0.083090626,-3.6,0.3,-54.72
1554879844364,-1.4891934,-7.2885485,6.1955953,0.015978966,0.03195793,-0.07243799,-3.54,0.36,-54.78
1554879844384,-1.5035586,-7.1975690000000005,6.0758852999999995,0.08948222,0.03089267,-0.07137272,-3.48,0.42,-54.84
1554879844404,-1.5562311000000002,-7.1592617,6.0519433,0.099069595,0.03195793,-0.068176925,-3.42,0.42,-54.84
1554879844424,-1.541866,-7.1113777,6.085462000000001,0.027696876000000002,0.04580637,-0.06711166,-3.36,0.42,-54.9
1554879844444,-1.5993267,-7.173627000000001,6.157287999999999,-0.011717908999999999,0.058589544,-0.06604639400000001,-3.3,0.42,-54.9
1554879844463,-1.4556746,-7.2741833,6.0280013,-0.014913702,0.046871635999999994,-0.07243799,-3.3,0.42,-54.96
1554879844484,-1.5705963,-7.2071457,6.0280013,-0.018109497,0.04261058,-0.07137272,-3.3,0.42,-55.02
1554879844504,-1.5083469999999999,-7.255029700000001,6.0327897,-0.0063915867,0.029827405,-0.058589544,-3.3,0.42,-55.02
1554879844524,-1.5705963,-7.154473299999999,5.9705405,-0.0063915867,0.01917476,-0.05752428,-3.3,0.42,-55.08
1554879844544,-1.5466543,-7.1113777,6.013636,-0.04474111,0.017044231,-0.05006743,-3.24,0.42,-55.08
1554879844564,-1.5897499,-7.2454529999999995,5.9801173,-0.094808534,0.010652645,-0.039414786,-3.24,0.42,-55.08
1554879844585,-1.5179238000000002,-7.365163000000001,6.2099605,-0.10546118,0.004261058,-0.039414786,-3.24,0.42,-55.14
1554879844604,-1.532289,-7.269394999999999,6.1333459999999995,-0.041545313,-0.0053263223,-0.03089267,-3.18,0.48,-55.14
1554879844624,-1.5466543,-7.3364325,5.9322333,0.03089267,-0.018109497,-0.03089267,-3.12,0.48,-55.2
1554879844643,-1.4987701999999998,-7.2167225,5.831677,0.046871635999999994,-0.03195793,-0.025566347000000003,-3.12,0.48,-55.14
1554879844663,-1.436521,-7.2406645,5.927445,0.037284255,-0.033023197000000004,-0.014913702,-3.18,0.54,-55.14
1554879844685,-1.4939818,-7.1879919999999995,5.9465985,0.013848438000000001,-0.04261058,-0.02130529,-3.24,0.54,-55.14
1554879844704,-1.4317327,-7.2215110000000005,5.9801173,-0.027696876000000002,-0.046871635999999994,-0.011717908999999999,-3.24,0.54,-55.14
1554879844723,-1.3838485,-7.2646065,6.0519433,-0.041545313,-0.05006743,0.0010652645,-3.24,0.6,-55.14
1554879844744,-1.4700398000000001,-7.178415299999999,6.0806737,0.008522116,-0.05539375,-0.004261058,-3.24,0.6,-55.08
1554879844763,-1.4891934,-7.0874357,5.9465985,0.010652645,-0.06604639400000001,0.004261058,-3.24,0.66,-55.08
1554879844784,-1.3838485,-7.0491285,5.8987145,-0.04261058,-0.06711166,0.008522116,-3.24,0.66,-55.08
1554879844804,-1.4796166000000002,-7.1688385,6.186018499999999,-0.10652645,-0.049002163,-0.0031957934000000003,-3.18,0.66,-55.02
1554879844824,-1.3263878,-7.3029137,6.1333459999999995,-0.11824436,-0.05539375,0.0063915867,-3.18,0.72,-55.02
1554879844843,-1.3982137,-7.3364325,6.1237693,-0.084155895,-0.053263225,0.013848438000000001,-3.18,0.72,-55.02
1554879844864,-1.3886370000000001,-7.355586,6.0663085,-0.01917476,-0.05539375,0.010652645,-3.18,0.72,-55.02
1554879844884,-1.2018893,-7.475296000000001,5.999271,-0.0031957934000000003,-0.05965481,-0.011717908999999999,-3.24,0.78,-55.02
1554879844904,-1.2976573999999998,-7.341221000000001,6.0758852999999995,-0.039414786,-0.058589544,-0.024501082,-3.3,0.84,-55.02
1554879844924,-1.3934253,-7.140108000000001,6.0184245,-0.094808534,-0.040480047000000005,-0.037284255,-3.3,1.02,-55.02
1554879844943,-1.3503298000000001,-7.0970125,6.39192,-0.07030745599999999,-0.012783173500000002,-0.04261058,-3.36,1.26,-55.02
1554879844964,-1.3742718,-7.116166000000001,5.817312,0.037284255,-0.0063915867,-0.06498113,-3.42,1.56,-55.08
1554879844984,-1.4317327,-7.1448965,5.807735,0.06924219,-0.0053263223,-0.043675844000000005,-3.42,1.8,-55.14
1554879845004,-1.3982137,-7.259817999999999,5.9226565,-0.004261058,-0.0063915867,-0.024501082,-3.42,1.92,-55.2
1554879845024,-1.3455413999999999,-7.283760000000001,5.9322333,-0.07030745599999999,0.010652645,-0.04261058,-3.36,1.98,-55.2
1554879845044,-1.3215994,-7.269394999999999,6.1046157,-0.094808534,0.020240024,-0.053263225,-3.36,2.1,-55.26
1554879845064,-1.2976573999999998,-7.3268557,6.1381345000000005,-0.10226539,0.029827405,-0.049002163,-3.3,2.1,-55.26
1554879845083,-1.4221559,-7.2262993,6.085462000000001,-0.06391586,0.053263225,-0.058589544,-3.3,1.98,-55.26
1554879845103,-1.5801731,-7.355586,5.903503,-0.014913702,0.047936900000000005,-0.06604639400000001,-3.3,1.92,-55.26
1554879845124,-1.3551182,-7.307702000000001,5.755062000000001,-0.02130529,0.040480047000000005,-0.046871635999999994,-3.36,1.86,-55.26
1554879845144,-1.4317327,-7.2071457,5.879561,-0.034088463,0.025566347000000003,-0.060720075,-3.36,1.8,-55.26
1554879845163,-1.484405,-7.3843164,5.707178,-0.049002163,0.007456851,-0.05965481,-3.36,1.8,-55.2
1554879845185,-1.5275006000000002,-7.4561424,6.0806737,-0.06178534,0.020240024,-0.035153727999999995,-3.42,1.8,-55.08
1554879845204,-1.4604629999999998,-7.599794999999999,6.1333459999999995,-0.02876214,0.015978966,-0.033023197000000004,-3.48,1.92,-55.02
1554879845223,-1.5227122,-7.374739599999999,5.9561753,0.036218993,0.0031957934000000003,-0.029827405,-3.48,1.98,-54.96
1554879845243,-1.4173675,-7.49445,5.846042,0.046871635999999994,0.0,-0.010652645,-3.54,2.1,-54.9
1554879845264,-1.5179238000000002,-7.504027000000001,5.6161985,0.0053263223,-0.026631612000000002,0.018109497,-3.54,2.16,-54.84
1554879845284,-1.4173675,-7.3843164,5.8987145,-0.022370555,-0.027696876000000002,-0.002130529,-3.54,2.22,-54.78
1554879845303,-1.5179238000000002,-7.317278999999999,5.9849057,-0.007456851,-0.029827405,-0.018109497,-3.54,2.28,-54.72
1554879845323,-1.4508862,-7.211933999999999,5.8412538,0.043675844000000005,-0.03089267,0.0010652645,-3.54,2.34,-54.66
1554879845343,-1.316811,-7.3029137,5.802946599999999,0.043675844000000005,-0.027696876000000002,-0.015978966,-3.54,2.4,-54.66
1554879845364,-1.4317327,-7.2502413,5.7023897,0.026631612000000002,-0.039414786,-0.03089267,-3.54,2.4,-54.66
1554879845384,-1.292869,-7.2167225,5.8412538,0.013848438000000001,-0.053263225,-0.024501082,-3.6,2.4,-54.66
1554879845403,-1.292869,-7.2454529999999995,5.951387,-0.040480047000000005,-0.04474111,-0.043675844000000005,-3.72,2.4,-54.66
1554879845424,-1.4700398000000001,-7.3220673,5.879561,-0.08628642,-0.047936900000000005,-0.05006743,-3.78,2.4,-54.66
1554879845443,-1.3742718,-7.389105000000001,6.0040593,-0.082025364,-0.047936900000000005,-0.043675844000000005,-3.84,2.34,-54.66
1554879845464,-1.3455413999999999,-7.3603745,5.9322333,-0.043675844000000005,-0.054328485999999995,-0.05752428,-3.9,2.22,-54.66
1554879845486,-1.436521,-7.3029137,5.8508306,-0.010652645,-0.06711166,-0.06391586,-4.02,2.16,-54.72
1554879845503,-1.4030021000000001,-7.3364325,5.7119665,-0.011717908999999999,-0.07350325,-0.05006743,-4.08,2.1,-54.72
1554879845523,-1.2976573999999998,-7.374739599999999,5.6784476999999995,-0.047936900000000005,-0.07776430000000001,-0.053263225,-4.08,2.1,-54.72
1554879845543,-1.2976573999999998,-7.4465656000000005,5.94181,-0.08841695,-0.06924219,-0.051132694000000006,-4.08,2.04,-54.72
1554879845563,-1.3455413999999999,-7.4992385,6.0327897,-0.08735169,-0.056459017,-0.035153727999999995,-4.02,2.1,-54.72
1554879845584,-1.3120226000000001,-7.451353999999999,5.817312,-0.06285059999999999,-0.054328485999999995,-0.02876214,-3.96,2.16,-54.78
1554879845604,-1.3359646,-7.4465656000000005,5.8891377,-0.056459017,-0.04474111,-0.023435817999999997,-3.9,2.28,-54.78
1554879845624,-1.3599066,-7.3843164,5.855619,-0.051132694000000006,-0.04580637,-0.034088463,-3.84,2.4,-54.72
1554879845643,-1.340753,-7.341221000000001,5.8508306,-0.05006743,-0.04474111,-0.037284255,-3.84,2.52,-54.72
1554879845663,-1.2593501,-7.379528,5.879561,-0.05752428,-0.026631612000000002,-0.034088463,-3.78,2.64,-54.72
1554879845684,-1.2785037000000001,-7.3364325,5.855619,-0.06391586,-0.018109497,-0.025566347000000003,-3.78,2.76,-54.72
1554879845704,-1.2354081000000001,-7.374739599999999,5.817312,-0.07563378,-0.012783173500000002,-0.018109497,-3.78,2.82,-54.72
1554879845723,-1.2066777,-7.527969000000001,5.817312,-0.07989483,-0.0031957934000000003,-0.02876214,-3.78,2.88,-54.72
1554879845743,-1.2545617,-7.599794999999999,5.755062000000001,-0.080960095,-0.012783173500000002,-0.029827405,-3.84,2.88,-54.66
1554879845763,-1.2210428999999998,-7.5327573,5.817312,-0.06178534,-0.023435817999999997,-0.033023197000000004,-3.9,2.88,-54.66
1554879845784,-1.3503298000000001,-7.5519110000000005,5.8987145,-0.04261058,-0.014913702,-0.046871635999999994,-3.96,2.88,-54.66
1554879845804,-1.3311761999999998,-7.5519110000000005,5.7598505,-0.039414786,-0.018109497,-0.049002163,-3.96,2.88,-54.66
1554879845823,-1.3024458,-7.5710645,5.798158,-0.033023197000000004,-0.014913702,-0.05006743,-4.02,2.88,-54.66
1554879845844,-1.2976573999999998,-7.585429700000001,5.788581400000001,-0.024501082,-0.033023197000000004,-0.046871635999999994,-4.08,2.94,-54.66
1554879845864,-1.3694833999999998,-7.662044,5.659294,0.007456851,-0.043675844000000005,-0.04261058,-4.08,2.94,-54.66
1554879845884,-1.3503298000000001,-7.5375457,5.7263317,0.025566347000000003,-0.054328485999999995,-0.040480047000000005,-4.08,2.94,-54.66
1554879845904,-1.364695,-7.5566993,5.568314599999999,0.013848438000000001,-0.060720075,-0.034088463,-4.08,2.94,-54.66
1554879845924,-1.3599066,-7.681197599999999,5.7454852999999995,-0.03195793,-0.053263225,-0.017044231,-4.08,2.94,-54.66
1554879845943,-1.4077905000000002,-7.599794999999999,5.7023897,-0.03834952,-0.05539375,-0.015978966,-4.08,3.0,-54.6
1554879845963,-1.3263878,-7.7147164,5.6497173,-0.020240024,-0.056459017,-0.013848438000000001,-4.14,3.06,-54.6
1554879845984,-1.2880806,-7.767389,5.7023897,0.03195793,-0.068176925,-0.002130529,-4.14,3.12,-54.6
1554879846004,-1.2258313,-7.623736999999999,5.788581400000001,0.05219796,-0.060720075,0.0053263223,-4.14,3.12,-54.66
1554879846024,-1.2354081000000001,-7.5327573,5.6880245,0.047936900000000005,-0.06604639400000001,0.010652645,-4.14,3.18,-54.66
1554879846044,-1.1683705,-7.590217999999999,5.61141,0.017044231,-0.06285059999999999,0.024501082,-4.14,3.3,-54.66
1554879846064,-1.1204863999999999,-7.5758529999999995,5.7598505,-0.015978966,-0.060720075,0.02876214,-4.2,3.36,-54.66
1554879846084,-1.2114661,-7.5327573,5.9082913,-0.0063915867,-0.06178534,0.025566347000000003,-4.2,3.42,-54.72
1554879846104,-1.2354081000000001,-7.441777,5.7598505,0.002130529,-0.06285059999999999,0.02876214,-4.2,3.48,-54.72
1554879846124,-1.2641385,-7.4034699999999996,5.740697,0.013848438000000001,-0.05965481,0.011717908999999999,-4.2,3.54,-54.72
1554879846144,-1.2114661,-7.4274119999999995,5.788581400000001,0.027696876000000002,-0.05539375,0.0,-4.2,3.54,-54.72
1554879846163,-1.1779473,-7.5471225,5.8651957999999995,0.01917476,-0.049002163,-0.007456851,-4.26,3.6,-54.72
1554879846184,-1.2976573999999998,-7.417835,5.7263317,0.00958738,-0.039414786,-0.02130529,-4.26,3.6,-54.72
1554879846203,-1.1683705,-7.4705076,5.7790045999999995,0.011717908999999999,-0.041545313,-0.015978966,-4.26,3.66,-54.72
1554879846224,-1.163582,-7.5375457,5.7454852999999995,0.033023197000000004,-0.033023197000000004,-0.008522116,-4.32,3.66,-54.72
1554879846244,-1.2210428999999998,-7.5710645,5.692813,0.02876214,-0.027696876000000002,-0.008522116,-4.38,3.66,-54.78
1554879846268,-1.2162545,-7.542333999999999,5.6497173,0.002130529,-0.024501082,-0.0031957934000000003,-4.56,3.66,-54.9
1554879846284,-1.1587936,-7.484873299999999,5.7263317,-0.008522116,-0.02876214,0.0010652645,-4.56,3.66,-54.9
1554879846303,-1.2210428999999998,-7.4896617,5.6401405,0.0063915867,-0.027696876000000002,0.0063915867,-4.62,3.66,-54.96
1554879846324,-1.13964,-7.389105000000001,5.6401405,0.03195793,-0.023435817999999997,-0.0010652645,-4.68,3.66,-55.02
1554879846344,-1.1875241,-7.4896617,5.7646394,0.025566347000000003,-0.01917476,-0.002130529,-4.68,3.66,-55.02
1554879846364,-1.2210428999999998,-7.355586,5.7502737,-0.01917476,-0.024501082,0.0031957934000000003,-4.68,3.66,-55.08
1554879846384,-1.2210428999999998,-7.4561424,5.7790045999999995,-0.04474111,-0.03195793,-0.002130529,-4.68,3.66,-55.14
1554879846404,-1.3359646,-7.614160000000001,5.6401405,-0.026631612000000002,-0.041545313,-0.00958738,-4.68,3.66,-55.14
1554879846424,-1.1348516000000002,-7.5136037,5.6545057,-0.0031957934000000003,-0.056459017,-0.002130529,-4.62,3.66,-55.08
1554879846443,-1.1587936,-7.542333999999999,5.755062000000001,0.02130529,-0.06924219,0.004261058,-4.56,3.6,-55.08
1554879846464,-1.1923125,-7.5136037,5.7023897,0.024501082,-0.07243799,0.010652645,-4.56,3.48,-55.08
1554879846485,-1.364695,-7.504027000000001,5.6736593,-0.023435817999999997,-0.07882957,0.027696876000000002,-4.56,3.3,-55.08
1554879846504,-1.2210428999999998,-7.5183919999999995,5.6018333,-0.03195793,-0.084155895,0.041545313,-4.62,3.24,-55.08
1554879846526,-1.3838485,-7.662044,5.692813,-0.0031957934000000003,-0.084155895,0.05006743,-4.8,3.0,-55.08
1554879846544,-1.2354081000000001,-7.5183919999999995,5.7646394,0.008522116,-0.08522116,0.060720075,-4.86,2.94,-55.08
1554879846564,-1.3024458,-7.6428905,5.6545057,0.012783173500000002,-0.080960095,0.07350325,-4.98,2.82,-55.08
1554879846584,-1.3551182,-7.5183919999999995,5.716755,-0.01917476,-0.07030745599999999,0.09374327,-5.16,2.82,-55.02
1554879846605,-1.2785037000000001,-7.614160000000001,5.788581400000001,-0.01917476,-0.06924219,0.111852765,-5.22,2.82,-55.02
1554879846624,-1.2066777,-7.7003509999999995,5.831677,-0.007456851,-0.07456851,0.12250541,-5.28,2.82,-55.02
1554879846643,-1.2354081000000001,-7.709928,5.6640825,-0.0053263223,-0.07669904,0.12676647,-5.34,2.94,-55.02
1554879846665,-1.4173675,-7.6668324000000005,5.831677,0.0031957934000000003,-0.09587380000000001,0.13741912,-5.34,3.12,-55.02
1554879846683,-1.4748282,-7.7003509999999995,5.7119665,-0.0053263223,-0.111852765,0.15552860000000002,-5.28,3.24,-55.02
1554879846704,-1.3982137,-7.7578119999999995,6.0519433,-0.012783173500000002,-0.11611383,0.17576863,-5.28,3.36,-55.02
1554879846724,-1.4508862,-7.7865424,5.927445,0.013848438000000001,-0.1107875,0.20240025,-5.28,3.42,-55.02
1554879846744,-1.4508862,-7.623736999999999,5.788581400000001,0.056459017,-0.10439592,0.24927188,-5.28,3.42,-55.02
1554879846764,-1.4652513999999999,-7.647678999999999,5.903503,0.06391586,-0.08522116,0.27590349999999997,-5.28,3.48,-55.08
1554879846784,-1.5753847,-7.4896617,5.903503,0.05539375,-0.05965481,0.28975195,-5.34,3.48,-55.08
1554879846803,-1.5753847,-7.4034699999999996,5.8604074,0.06178534,-0.04261058,0.29507825,-5.4,3.48,-55.08
1554879846823,-1.6089035,-7.3220673,5.8987145,0.037284255,-0.012783173500000002,0.30040458,-5.46,3.48,-55.08
1554879846844,-1.6472107,-7.317278999999999,5.8651957999999995,0.0053263223,-0.0031957934000000003,0.29827404,-5.52,3.48,-55.08
1554879846864,-1.6807296000000003,-7.317278999999999,5.8412538,0.010652645,0.015978966,0.28549087,-5.58,3.42,-55.14
1554879846884,-1.6232687,-7.355586,5.8268886,0.043675844000000005,0.02876214,0.27164245,-5.7,3.42,-55.14
1554879846904,-1.7525556,-7.2646065,5.8508306,0.041545313,0.034088463,0.26312032,-5.7,3.42,-55.14
1554879846924,-1.8866308999999997,-7.2023573,5.798158,0.027696876000000002,0.03089267,0.24820662,-5.76,3.42,-55.14
1554879846944,-1.9919758,-7.283760000000001,6.0040593,0.018109497,0.014913702,0.24394555,-5.82,3.36,-55.14
1554879846964,-1.9967641999999999,-7.480085000000001,5.999271,0.03089267,0.015978966,0.25885928,-5.82,3.3,-55.2
1554879846986,-1.9776106,-7.436989,6.0184245,0.101200126,0.034088463,0.25140239999999997,-5.88,3.18,-55.2
1554879847003,-2.0302830000000003,-7.3603745,5.8508306,0.12676647,0.047936900000000005,0.25033715,-5.88,3.18,-55.2
1554879847024,-1.9776106,-7.3268557,6.186018499999999,0.12144015,0.05752428,0.26418558,-5.88,3.12,-55.2
1554879847044,-2.006341,-7.3268557,5.798158,0.094808534,0.06604639400000001,0.27483824,-5.88,3.0,-55.14
1554879847063,-2.1260512,-7.269394999999999,5.8508306,0.06285059999999999,0.07563378,0.27377295,-5.88,2.82,-55.14
1554879847084,-2.111686,-7.331644,5.8268886,0.053263225,0.082025364,0.29507825,-5.88,2.76,-55.14
1554879847104,-2.2170308,-7.307702000000001,5.7598505,0.053263225,0.08735169,0.28336033,-5.88,2.64,-55.08
1554879847124,-2.255338,-7.231087700000001,5.7502737,0.03195793,0.09161274,0.2695119,-5.82,2.52,-55.02
1554879847144,-2.2888567,-7.2741833,5.8891377,0.012783173500000002,0.09587380000000001,0.2790993,-5.82,2.4,-55.02
1554879847164,-2.3654714,-7.3029137,5.798158,-0.0053263223,0.096939065,0.28442562,-5.76,2.34,-54.96
1554879847184,-2.480393,-7.173627000000001,5.6880245,-0.002130529,0.094808534,0.28442562,-5.7,2.22,-54.96
1554879847204,-2.4995465,-7.2502413,5.707178,-0.033023197000000004,0.096939065,0.2876214,-5.64,2.16,-54.96
1554879847224,-2.6192567,-7.1592617,5.7933699999999995,-0.06604639400000001,0.101200126,0.2908172,-5.52,2.16,-55.02
1554879847244,-2.7868507,-7.1688385,5.7215432999999996,-0.12570119999999999,0.09267801,0.30786142,-5.34,2.16,-55.02
1554879847265,-2.834735,-7.1113777,5.951387,-0.21944448,0.10652645,0.32277513,-5.16,2.1,-55.08
1554879847284,-2.9640217,-7.2167225,5.951387,-0.2545982,0.10546118,0.3323625,-5.04,2.16,-55.08
1554879847304,-3.0119057000000002,-7.1975690000000005,5.6018333,-0.29827404,0.099069595,0.3653857,-4.92,2.16,-55.08
1554879847324,-3.040636,-7.2262993,5.7215432999999996,-0.32490566,0.10652645,0.39308259999999995,-4.92,2.16,-55.02
1554879847344,-3.265691,-7.3843164,5.501277,-0.33449304,0.096939065,0.40373522,-4.92,2.22,-54.96
1554879847364,-3.2609026,-7.389105000000001,5.597045,-0.34514567,0.10546118,0.4261058,-4.98,2.34,-54.96
1554879847383,-3.2321722999999998,-7.4561424,5.486912,-0.29294774,0.113983296,0.44634579999999996,-5.04,2.58,-54.9
1554879847404,-3.241749,-7.365163000000001,5.472546599999999,-0.20026971,0.11930962,0.46552056,-5.16,2.94,-54.84
1554879847425,-3.2465374,-7.374739599999999,5.395932,-0.08948222,0.113983296,0.49002165,-5.16,3.48,-54.78
1554879847444,-3.3423057000000003,-7.3460092999999995,5.510854,0.012783173500000002,0.12144015,0.5091964,-5.16,3.66,-54.78
1554879847463,-3.3039982000000006,-7.173627000000001,5.204396,0.096939065,0.11717909,0.515588,-5.16,4.02,-54.72
1554879847483,-3.371036,-7.092224000000001,5.127781400000001,0.10546118,0.09374327,0.50813115,-4.92,4.5,-54.72
1554879847504,-3.4763808,-6.9725137,5.1086279999999995,0.068176925,0.083090626,0.5123922000000001,-4.8,4.68,-54.66
1554879847524,-3.5194763999999994,-6.9677253,5.1900306,0.017044231,0.06924219,0.50813115,-4.62,4.92,-54.66
1554879847543,-3.5338415999999997,-6.8575919999999995,4.9937059999999995,-0.018109497,0.03834952,0.4857606,-4.32,4.98,-54.6
1554879847564,-3.5338415999999997,-6.795342999999999,5.1613,-0.024501082,0.025566347000000003,0.46552056,-3.96,4.98,-54.54
1554879847584,-3.5960910000000004,-6.6947865,5.3049526,-0.04474111,0.017044231,0.46019423,-3.78,4.98,-54.54
1554879847604,-3.7158010000000004,-6.7091517000000005,5.075108999999999,-0.05965481,0.0053263223,0.44421527,-3.6,4.98,-54.54
1554879847624,-3.7253778,-6.546346,5.242703,-0.047936900000000005,0.0063915867,0.4165184,-3.54,4.8,-54.48
1554879847645,-3.7828386,-6.5607114,5.0942625999999995,-0.014913702,0.008522116,0.37816888,-3.54,4.68,-54.54
1554879847664,-3.7110126000000005,-6.350021400000001,5.0942625999999995,-0.029827405,0.0010652645,0.33555830000000003,-3.48,4.56,-54.54
1554879847684,-3.6631286,-6.359598,4.9984946,-0.039414786,-0.0053263223,0.27057716,-3.54,4.5,-54.48
1554879847703,-3.5817258,-6.3548098,4.8261123,-0.07989483,0.0053263223,0.21411815,-3.6,4.38,-54.48
1554879847723,-3.5290532,-6.335656,4.912303400000001,-0.12037488,0.015978966,0.13741912,-3.72,4.38,-54.48
1554879847744,-3.5003227999999997,-6.373963400000001,4.7782279999999995,-0.12463594,0.01917476,0.06178534,-3.78,4.32,-54.48
1554879847764,-3.5434184,-6.4840965,5.0224366,-0.112918034,0.037284255,-0.04261058,-3.9,4.32,-54.48
1554879847783,-3.6056678,-6.431424,5.0942625999999995,-0.12037488,0.049002163,-0.13209279,-3.9,4.44,-54.42
1554879847804,-3.7493198,-6.369175,5.099051,-0.1587244,0.047936900000000005,-0.20133498,-3.96,4.5,-54.42
1554879847824,-3.8929720000000003,-6.3883285999999995,5.137358,-0.20985709,0.058589544,-0.23009712,-3.96,4.68,-54.36
1554879847844,-4.0557775000000005,-6.632537400000001,5.156512,-0.25033715,0.07030745599999999,-0.25353295,-4.02,4.92,-54.36
1554879847864,-4.1515455,-6.7761892999999995,5.194819,-0.27164245,0.08628642,-0.28122982,-4.02,5.22,-54.36
1554879847884,-4.213794999999999,-6.996455999999999,5.4007206,-0.27590349999999997,0.113983296,-0.30040458,-4.02,5.46,-54.3
1554879847904,-4.232949,-7.1065892999999996,5.515642,-0.2790993,0.15233281,-0.30040458,-4.02,5.76,-54.18
1554879847924,-4.3813889999999995,-7.3220673,5.395932,-0.25140239999999997,0.19068234,-0.28549087,-3.96,6.0,-54.12
1554879847945,-4.5537715,-7.3460092999999995,5.295376,-0.2066613,0.2066613,-0.26312032,-3.96,6.24,-54.0
1554879847964,-4.6782703,-7.4322004,5.501277,-0.15978967,0.21944448,-0.22690132,-3.96,6.48,-53.94
1554879847983,-4.6399627,-7.5183919999999995,5.37199,-0.05539375,0.21198763,-0.1470065,-3.9,6.9,-54.0
1554879848005,-4.6495394999999995,-7.4896617,5.357625,0.026631612000000002,0.19600865,-0.07776430000000001,-3.9,7.2,-54.06
1554879848024,-4.721366000000001,-7.5519110000000005,5.295376,0.11611383,0.19281286,0.0010652645,-3.84,7.44,-54.06
1554879848044,-4.7644614999999995,-7.6764092,5.1086279999999995,0.19174760000000002,0.165116,0.06924219,-3.78,7.74,-54.12
1554879848064,-4.6495394999999995,-7.3699512,5.1900306,0.24927188,0.15020229,0.13954964,-3.78,7.98,-54.18
1554879848084,-4.510676,-7.317278999999999,5.0559554,0.314253,0.14594123,0.2066613,-3.72,8.22,-54.3
1554879848104,-4.6160207,-7.1927805,4.9745526,0.32277513,0.1470065,0.24927188,-3.6,8.46,-54.36
1554879848124,-4.6686935,-7.0970125,4.830900700000001,0.3153183,0.12357068,0.28122982,-3.42,8.64,-54.3
1554879848144,-4.663905000000001,-7.092224000000001,4.8261123,0.29188246,0.08628642,0.30146983,-3.3,8.64,-54.18
1554879848164,-4.572925,-6.9198413,4.883573,0.26738137,0.07137272,0.32597092,-3.12,8.52,-54.06
1554879848184,-4.5633483,-6.713939999999999,4.7494974,0.27590349999999997,0.06178534,0.3334278,-2.94,8.34,-54.06
1554879848204,-4.6830587,-6.8144965,4.6154222,0.2428803,0.041545313,0.33555830000000003,-2.76,8.1,-54.0
1554879848224,-4.692635500000001,-6.680421400000001,4.672883000000001,0.1587244,0.013848438000000001,0.35260254,-2.58,7.8,-53.94
1554879848244,-4.7405194999999996,-6.503250599999999,4.7399206,0.098004326,0.007456851,0.34940675,-2.46,7.5,-53.94
1554879848264,-4.8506527,-6.5846534,4.926668599999999,0.068176925,0.010652645,0.350472,-2.28,7.08,-53.94
1554879848284,-4.8937483,-6.541558,5.185242,0.029827405,0.018109497,0.38775626,-2.1,6.54,-53.94
1554879848304,-5.023035,-6.4457892999999995,5.122993,0.039414786,0.020240024,0.39308259999999995,-2.04,6.24,-53.88
1554879848323,-5.0757074,-6.373963400000001,5.185242,0.05006743,0.026631612000000002,0.39947417,-1.98,6.12,-53.82
1554879848345,-5.1235914000000005,-6.3787518,5.3863554,0.04580637,0.037284255,0.4101268,-1.86,5.76,-53.7
1554879848364,-5.2289367,-6.282984,5.525219,0.047936900000000005,0.054328485999999995,0.39308259999999995,-1.86,5.7,-53.64
1554879848384,-5.257667,-6.2925606,5.2618566,0.08522116,0.07456851,0.39201729999999996,-1.8,5.52,-53.58
1554879848404,-5.080496,-6.067506,5.319318,0.10972224,0.09374327,0.40373522,-1.74,5.46,-53.58
1554879848424,-5.243302,-5.981314,5.295376,0.14594123,0.10013486,0.39201729999999996,-1.62,5.28,-53.58
1554879848444,-5.3582234,-5.847239,5.137358,0.1438107,0.101200126,0.4048005,-1.56,5.04,-53.58
1554879848464,-5.4970870000000005,-5.842450599999999,5.1613,0.10972224,0.111852765,0.39521313,-1.44,4.86,-53.7
1554879848483,-5.631162000000001,-5.856816,5.2474914,0.051132694000000006,0.12996227,0.3898868,-1.38,4.68,-53.76
1554879848503,-5.9807158,-5.852027400000001,5.472546599999999,0.0053263223,0.15659387,0.3898868,-1.26,4.44,-53.82
1554879848523,-6.0956373,-5.7466826,5.367202,-0.007456851,0.16724652,0.39308259999999995,-1.14,4.26,-53.88
1554879848544,-6.2057709999999995,-5.952584,5.597045,0.023435817999999997,0.18961707,0.41119209999999995,-1.02,4.02,-53.88
1554879848563,-6.3589997,-5.7418942,5.587468,0.080960095,0.21198763,0.44528055,-0.96,3.9,-53.88
1554879848583,-6.4787097000000005,-5.5647235,5.443816,0.16192019,0.23329292,0.4644553,-0.9,3.84,-53.88
1554879848603,-6.3829417,-5.5695120000000005,5.3624134,0.15233281,0.24501082,0.4878911,-0.84,3.84,-53.82
1554879848624,-6.3829417,-5.445012999999999,5.4102974,0.10439592,0.26738137,0.51665324,-0.84,3.84,-53.88
1554879848644,-6.363788,-5.5743003,5.027225,0.08841695,0.25992453,0.531567,-0.78,3.78,-53.88
1554879848663,-6.3446345,-5.4114943,4.8021703,0.09054748,0.23542345,0.53795856,-0.72,3.72,-53.94
1554879848684,-6.349423000000001,-5.5264163,4.931457,0.10439592,0.19920446,0.567786,-0.66,3.66,-53.94
1554879848704,-6.2967505,-5.612607499999999,4.830900700000001,0.11504856,0.16085494,0.58696073,-0.54,3.6,-54.0
1554879848724,-6.291962,-5.401917500000001,4.5962687,0.16831179,0.12676647,0.58269966,-0.36,3.54,-54.0
1554879848743,-6.397307,-5.2917843,4.4143095,0.18855181,0.08948222,0.5944176,-0.18,3.42,-54.06
1554879848763,-6.2392898,-5.085883,4.409521,0.19600865,0.060720075,0.6018744,0.0,3.24,-54.06
1554879848784,-6.253655,-4.9518075,4.2419267,0.22370553,0.03195793,0.588026,0.12,3.0,-54.06
1554879848804,-6.244078,-4.8560395,4.088698,0.23329292,0.012783173500000002,0.56459016,0.3,2.64,-54.06
1554879848824,-6.569689299999999,-4.621408,3.9594111000000005,0.21411815,-0.0010652645,0.55287224,0.42,2.22,-54.06
1554879848844,-6.9719152,-4.7123876,3.365649,0.15233281,-0.017044231,0.5134575,0.48,1.8,-54.06
1554879848864,-7.589619,-4.7602715,3.2890346,0.010652645,0.0010652645,0.43036684,0.54,1.32,-54.12
1554879848884,-7.4363904000000005,-4.7698483,3.6433763999999997,-0.15446335,0.014913702,0.43036684,0.54,0.84,-54.12
1554879848903,-7.125144500000001,-4.827309,4.016872,-0.26418558,0.027696876000000002,0.5901565,0.54,0.36,-54.12
1554879848924,-7.101202000000001,-4.8320975,4.577115,-0.3334278,0.080960095,0.71798825,0.54,0.0,-54.24
1554879848944,-7.192182000000001,-4.530428,5.027225,-0.3685815,0.128897,0.77125144,0.6,-0.3,-54.24
1554879848964,-7.1490865,-4.410718,5.137358,-0.36645097,0.16618125,0.8426242,0.66,-0.48,-54.3
1554879848983,-7.1873937,-4.267066000000001,5.185242,-0.36325517,0.2066613,0.8831041999999999,0.72,-0.48,-54.36
1554879849004,-7.1490865,-4.200028400000001,5.573103,-0.34940675,0.24501082,0.86392945,0.72,-0.48,-54.42
1554879849024,-7.1490865,-3.970185,5.620987,-0.27057716,0.26738137,0.8309063,0.78,-0.42,-54.42
1554879849044,-7.383717999999999,-3.697246,5.1996074,-0.19281286,0.27164245,0.8117314999999999,0.84,-0.24,-54.36
1554879849067,-7.335833999999999,-3.4913447,5.2810106,-0.18535602,0.257794,0.793622,0.84,-0.12,-54.3
1554879849083,-7.4746976,-3.4578260000000003,5.04159,-0.18002969,0.25353295,0.77444726,0.9,-0.06,-54.24
1554879849103,-7.6853875999999985,-3.2615013,4.9218802,-0.16298546,0.23968449999999997,0.72011876,0.9,0.12,-54.06
1554879849124,-7.833828,-3.1800982999999996,4.89315,-0.15552860000000002,0.23222765,0.6562029,0.9,0.3,-53.88
1554879849143,-7.991845,-3.0699651,4.6058455,-0.12570119999999999,0.23009712,0.6146576,0.96,0.54,-53.7
1554879849164,-8.034941,-2.9694088,4.2898107,-0.10865697,0.2034655,0.6146576,0.96,0.66,-53.58
1554879849184,-8.054094000000001,-2.7922377999999997,4.0264487,-0.080960095,0.19174760000000002,0.5816344,1.02,0.78,-53.52
1554879849204,-7.991845,-2.830545,4.0743327,-0.056459017,0.18748654,0.51665324,1.08,0.9,-53.46
1554879849224,-7.9583262999999995,-2.6533740000000003,3.8301241000000004,-0.022370555,0.16831179,0.47830373,1.2,0.96,-53.4
1554879849244,-7.987056699999999,-2.5623944,3.7008373999999997,0.027696876000000002,0.13954964,0.46658584,1.38,1.02,-53.4
1554879849264,-8.078036,-2.6342204,3.6433763999999997,0.07137272,0.09587380000000001,0.43249738,1.62,1.02,-53.4
1554879849283,-8.054094000000001,-2.4809916000000003,3.6242227999999996,0.083090626,0.084155895,0.38775626,1.8,1.02,-53.4
1554879849303,-7.881711999999999,-2.4762032000000005,3.7343562000000006,0.09587380000000001,0.07882957,0.36005938,1.98,1.02,-53.34
1554879849323,-7.8050976,-2.4426842,3.6577415,0.10439592,0.08841695,0.35473305,2.16,0.96,-53.28
1554879849343,-7.97748,-2.308609,3.3464954,0.096939065,0.09054748,0.33449304,2.22,0.84,-53.16
1554879849363,-7.9822683,-2.4762032000000005,3.1741127999999996,0.0063915867,0.05752428,0.29933932,2.34,0.72,-53.04
1554879849384,-7.8003089999999995,-2.2894554,3.4326867999999995,-0.07989483,0.05539375,0.26418558,2.34,0.6,-52.92
1554879849403,-7.9822683,-2.0260932,3.5715504,-0.14913702,0.05539375,0.22050974,2.28,0.48,-52.86
1554879849423,-7.929596000000001,-1.9303252,3.6242227999999996,-0.17896444,0.04580637,0.16724652,2.28,0.36,-52.86
1554879849443,-8.073248,-1.9925743000000002,3.447052,-0.2066613,0.022370555,0.1107875,2.28,0.24,-52.92
1554879849464,-7.896077,-1.9303252,3.413533,-0.31851408,-0.014913702,0.041545313,2.34,0.12,-52.92
1554879849484,-7.752425,-1.9829974999999997,3.3081882000000005,-0.39947417,-0.060720075,-0.047936900000000005,2.34,0.0,-52.98
1554879849504,-7.752425,-1.6669630000000002,3.4901476000000002,-0.46765109999999993,-0.10759171,-0.18109496,2.4,0.06,-53.1
1554879849524,-7.881711999999999,-1.4610616,3.6816837999999996,-0.47297743,-0.14274544,-0.33875409999999995,2.52,0.12,-53.22
1554879849543,-7.8386164,-1.7483658,3.6625300000000003,-0.51665324,-0.16298546,-0.45167214,2.58,0.24,-53.28
1554879849563,-7.7332716,-2.260725,3.6098576,-0.6764429,-0.17576863,-0.5028047999999999,2.58,0.48,-53.34
1554879849584,-7.776367,-2.5480292,3.8109705000000003,-0.8127968000000001,-0.17896444,-0.5656554,2.58,0.84,-53.4
1554879849604,-7.872135000000001,-2.4953567999999997,3.9737763,-0.7520766999999999,-0.22690132,-0.68176925,2.52,1.26,-53.4
1554879849624,-7.833828,-3.0364463,4.0695443,-0.68816084,-0.24820662,-0.74035877,2.46,1.92,-53.34
1554879849644,-7.967903,-3.5440169999999998,4.4238862999999995,-0.6870956,-0.23009712,-0.7073356,2.34,2.76,-53.34
1554879849663,-8.025364,-4.0084919999999995,4.5340195,-0.5997439,-0.20133498,-0.6498113,2.22,3.54,-53.34
1554879849684,-8.0684595,-4.544793599999999,4.6154222,-0.44421527,-0.1587244,-0.59867865,2.04,4.38,-53.28
1554879849704,-8.130709,-4.6980224,4.3329067000000006,-0.24607609,-0.15659387,-0.5390238,1.92,5.22,-53.22
1554879849724,-8.231264999999999,-4.7363295999999995,4.2371383,-0.12570119999999999,-0.12250541,-0.43356264,1.8,6.06,-53.16
1554879849744,-8.236053,-4.894346700000001,4.2945995,-0.022370555,-0.09587380000000001,-0.32810146,1.62,6.9,-53.1
1554879849764,-8.183380999999999,-5.0140567,4.1892543,0.08841695,-0.05539375,-0.22903186,1.5,7.8,-53.04
1554879849784,-8.125919999999999,-5.0140567,4.337695,0.19920446,-0.010652645,-0.11611383,1.32,8.46,-52.98
1554879849804,-8.034941,-4.7842135,4.0216603,0.25672874,0.017044231,-0.004261058,1.14,8.88,-52.92
1554879849824,-8.039729,-4.7506948,4.1461587,0.22477080000000002,0.05006743,0.12037488,1.02,9.3,-52.86
1554879849844,-8.087613000000001,-4.611831,4.0934862999999995,0.18216023,0.07030745599999999,0.22370553,0.84,9.6,-52.86
1554879849863,-8.1163435,-4.4777555,4.1222167,0.20133498,0.07563378,0.28655612,0.72,9.78,-52.8
1554879849883,-8.130709,-4.1282024,4.222773,0.30892670000000005,0.08522116,0.34088463,0.6,9.9,-52.8
1554879849904,-8.1402855,-3.9749733999999997,3.9594111000000005,0.49321744,0.07776430000000001,0.3898868,0.48,9.66,-52.74
1554879849924,-8.087613000000001,-3.8313212,4.007295,0.66579026,0.13422333,0.46552056,0.48,9.36,-52.68
1554879849944,-8.250419,-3.520075,3.9546227,0.737163,0.1587244,0.50387007,0.48,9.0,-52.68
1554879849964,-8.24563,-3.3907879999999997,3.5571851999999997,0.69987875,0.1470065,0.51026165,0.48,8.58,-52.68
1554879849983,-8.327033,-3.0891187,3.4757824,0.5944176,0.15339808,0.5230448000000001,0.54,8.04,-52.68
1554879850003,-8.312667999999999,-2.9406781000000004,3.8780080999999997,0.4825648,0.14807177,0.54435015,0.6,7.44,-52.74
1554879850023,-8.288725999999999,-2.6916811000000003,4.1557355000000005,0.3653857,0.17257284,0.5613944000000001,0.66,6.78,-52.8
1554879850044,-8.183380999999999,-2.4762032000000005,4.1222167,0.3323625,0.18748654,0.55606806,0.84,5.94,-52.92
1554879850064,-8.221688,-2.4474726,3.8588544999999996,0.33768883,0.19813919,0.54648066,1.08,5.16,-53.04
1554879850083,-8.269572,-2.2798786,3.7726634,0.37816888,0.21092236,0.52411014,1.32,4.5,-53.16
1554879850103,-8.346188,-2.1601684,3.9594111000000005,0.43036684,0.20879184,0.49108690000000005,1.5,3.9,-53.22
1554879850123,-8.341399000000001,-1.9255368000000002,4.1078515,0.45912898,0.19920446,0.45699844,1.74,3.3,-53.34
1554879850143,-8.255207,-1.7196354,3.8349125,0.43356264,0.18855181,0.4282363,1.98,2.7,-53.52
1554879850163,-8.317456,-1.3892354999999998,3.6625300000000003,0.36432046,0.17576863,0.39308259999999995,2.16,2.1,-53.64
1554879850183,-8.432379,-1.3892354999999998,3.8109705000000003,0.29294774,0.16192019,0.34194988,2.46,1.56,-53.7
1554879850204,-8.422802,-1.489792,3.8540661,0.20772657,0.13635385,0.29827404,2.58,1.08,-53.76
1554879850224,-8.279149,-1.5089456,3.9019501000000005,0.10652645,0.13102753,0.25353295,2.64,0.6,-53.82
1554879850244,-8.446744,-1.4036007,4.031237,0.07350325,0.15233281,0.20772657,2.7,0.12,-53.88
1554879850264,-8.456321,-1.489792,3.9402574999999995,0.084155895,0.17257284,0.18642128,2.76,-0.3,-53.88
1554879850283,-8.556877,-1.3988123,3.8684312999999997,0.12463594,0.16618125,0.1768339,2.82,-0.72,-53.88
1554879850303,-8.576031,-1.3509283,3.7535098,0.17789917,0.13635385,0.1587244,2.88,-1.02,-53.76
1554879850324,-8.585608,-1.2982559,3.696049,0.18322548,0.113983296,0.14594123,2.88,-1.26,-53.7
1554879850344,-8.6813755,-1.3126211,3.8061821000000005,0.19281286,0.10546118,0.12357068,2.94,-1.38,-53.58
1554879850364,-8.825027,-1.3748703000000002,3.8492777,0.18002969,0.10013486,0.10652645,2.94,-1.56,-53.52
1554879850383,-8.767567,-1.3844471,3.7582982000000005,0.20559604,0.08841695,0.10439592,3.0,-1.8,-53.46
1554879850404,-8.959103,-1.2791021999999999,3.8109705000000003,0.36751625,0.046871635999999994,0.09374327,3.06,-2.04,-53.4
1554879850424,-8.978256,-1.1019313,3.7295678,0.53476274,0.00958738,0.096939065,3.18,-2.34,-53.34
1554879850444,-8.844180999999999,-0.9199719999999999,3.7199910000000003,0.5954828000000001,-0.012783173500000002,0.096939065,3.3,-2.7,-53.34
1554879850463,-8.939949,-0.9008184000000001,3.6337996,0.44208476,-0.007456851,0.068176925,3.36,-3.06,-53.34
1554879850484,-8.983044999999999,-0.83378077,3.6577415,0.17789917,0.01917476,0.058589544,3.42,-3.54,-53.28
1554879850504,-8.963891,-0.98700964,3.7822402000000004,0.07456851,0.02130529,0.08735169,3.48,-3.96,-53.28
1554879850523,-8.844180999999999,-1.1881226,3.8684312999999997,0.1768339,0.0031957934000000003,0.10439592,3.48,-4.38,-53.22
1554879850544,-8.810661999999999,-0.9487024,3.8013937000000007,0.32490566,0.0031957934000000003,0.09161274,3.54,-4.68,-53.22
1554879850564,-8.767567,-0.75716627,3.7247794,0.38136467,-0.004261058,0.06604639400000001,3.54,-4.98,-53.16
1554879850583,-8.863335000000001,-0.53211135,3.4997244,0.28549087,0.0053263223,0.051132694000000006,3.48,-5.4,-53.16
1554879850604,-9.035717,-0.66618663,3.4231097999999998,0.14913702,-0.00958738,0.046871635999999994,3.48,-5.76,-53.16
1554879850624,-8.930372,-0.6278794,3.518878,0.035153727999999995,-0.024501082,0.06391586,3.48,-6.12,-53.16
1554879850644,-8.7292595,-0.9295488000000001,3.6625300000000003,-0.02876214,-0.039414786,0.07137272,3.48,-6.42,-53.22
1554879850665,-8.667010000000001,-0.8242039000000001,3.7056258,-0.10439592,-0.03089267,0.06391586,3.48,-6.66,-53.22
1554879850684,-8.671799,-0.64703304,3.6433763999999997,-0.15339808,-0.02876214,0.05752428,3.48,-6.96,-53.28
1554879850704,-8.710106,-0.84814596,3.9019501000000005,-0.12996227,-0.029827405,0.05219796,3.42,-7.2,-53.28
1554879850724,-8.667010000000001,-0.87687635,3.7056258,-0.05539375,-0.033023197000000004,0.05965481,3.36,-7.44,-53.28
1554879850744,-8.75799,-0.84814596,3.7104141999999998,0.033023197000000004,-0.054328485999999995,0.05006743,3.36,-7.62,-53.34
1554879850764,-8.63828,-0.7140707,3.7008373999999997,0.014913702,-0.05219796,0.036218993,3.36,-7.68,-53.28
1554879850784,-8.710106,-0.4842273,3.7152026,-0.05539375,-0.04474111,0.008522116,3.3,-7.74,-53.28
1554879850803,-8.695741,-0.53211135,3.5763388,-0.15978967,-0.049002163,-0.00958738,3.3,-7.8,-53.28
1554879850823,-8.786719999999999,-0.6997054,3.8253357000000006,-0.22477080000000002,-0.06391586,-0.03089267,3.3,-7.8,-53.28
1554879850844,-8.75799,-0.7092823,3.9785647000000006,-0.22050974,-0.07030745599999999,-0.051132694000000006,3.3,-7.74,-53.22
1554879850864,-8.6334915,-0.84814596,3.7774517999999997,-0.17896444,-0.068176925,-0.051132694000000006,3.3,-7.62,-53.22
1554879850884,-8.911219000000001,-0.8960299999999999,3.9402574999999995,-0.17257284,-0.06391586,-0.027696876000000002,3.3,-7.56,-53.28
1554879850904,-8.834603999999999,-1.1976993999999999,3.6577415,-0.30253512,-0.07030745599999999,0.00958738,3.24,-7.38,-53.28
1554879850924,-8.628703,-0.9343372,4.1222167,-0.41971418,-0.03834952,0.023435817999999997,3.24,-7.26,-53.28
1554879850944,-8.580819,-1.1354501000000001,4.0934862999999995,-0.36645097,-0.02876214,0.0010652645,3.18,-7.08,-53.22
1554879850964,-8.772355000000001,-0.7044938000000001,4.2131963,-0.06285059999999999,-0.022370555,-0.08735169,3.06,-6.66,-53.22
1554879850984,-8.810661999999999,-1.0923545000000001,3.8061821000000005,0.10865697,-0.036218993,-0.06604639400000001,3.0,-6.36,-53.28
1554879851004,-8.63828,-1.1067197,3.887585,0.08948222,-0.018109497,0.015978966,2.94,-6.12,-53.28
1554879851024,-8.552089,-1.0779893,3.887585,0.027696876000000002,-0.013848438000000001,-0.011717908999999999,2.94,-5.82,-53.34
1554879851044,-8.580819,-0.96785605,3.887585,-0.023435817999999997,0.0053263223,-0.060720075,2.88,-5.58,-53.4
1554879851064,-8.623915,-0.8242039000000001,3.8157589999999995,-0.036218993,0.002130529,-0.047936900000000005,2.88,-5.34,-53.4
1554879851083,-8.762777999999999,-0.86729956,3.743933,-0.04580637,0.0031957934000000003,-0.029827405,2.94,-5.22,-53.46
1554879851104,-8.748413000000001,-0.97743285,3.7152026,-0.01917476,-0.012783173500000002,-0.039414786,2.94,-5.1,-53.46
1554879851124,-8.75799,-0.96785605,3.7774517999999997,-0.020240024,-0.00958738,-0.047936900000000005,2.94,-4.98,-53.46
1554879851144,-8.791509,-1.0348936,3.8780080999999997,-0.026631612000000002,-0.002130529,-0.049002163,3.0,-4.98,-53.46
1554879851165,-8.647857,-1.0205284,3.9211037,-0.04580637,0.0,-0.037284255,3.0,-4.92,-53.46
1554879851184,-8.599973,-1.039682,4.007295,-0.049002163,0.0010652645,-0.034088463,3.06,-4.86,-53.4
1554879851204,-9.232041,-1.3509283,3.3464954,-0.07243799,-0.014913702,-0.020240024,3.12,-4.8,-53.34
1554879851224,-9.097966,-0.52253455,4.5819035,-0.165116,0.05539375,0.0,3.12,-4.74,-53.28
1554879851244,-8.389283,-0.7906850999999999,3.8492777,-0.046871635999999994,-0.0010652645,-0.07882957,3.12,-4.68,-53.28
1554879851264,-8.494628,-0.86251116,4.0839095,0.06924219,0.056459017,-0.053263225,3.12,-4.62,-53.34
1554879851284,-8.461109,-1.1546037,3.6433763999999997,0.14594123,0.03089267,-0.037284255,3.06,-4.56,-53.4
1554879851304,-8.341399000000001,-1.2551602,3.3560722000000003,0.09161274,-0.03195793,-0.033023197000000004,3.0,-4.56,-53.4
1554879851324,-8.336611,-1.1067197,3.6433763999999997,-0.06498113,-0.08522116,-0.035153727999999995,2.94,-4.56,-53.46
1554879851344,-8.250419,-0.57999533,3.9067385000000003,-0.07137272,-0.12037488,-0.128897,2.88,-4.56,-53.46
1554879851364,-8.480263,-0.3788824,3.9498343,0.12250541,-0.15020229,-0.28229508,2.82,-4.56,-53.46
1554879851384,-8.556877,-0.694917,3.5523968,0.22796659,-0.16724652,-0.30253512,2.7,-4.62,-53.52
1554879851404,-8.322245,-1.0588357,3.7295678,0.15339808,-0.19387813,-0.25992453,2.64,-4.68,-53.52
1554879851424,-8.010999,-1.2791021999999999,3.7535098,-0.0053263223,-0.21837921,-0.33768883,2.58,-4.74,-53.46
1554879851444,-7.8146744,-1.3126211,4.040814,-0.17150758,-0.24927188,-0.45380265,2.64,-4.8,-53.46
1554879851464,-7.9583262999999995,-1.240795,4.4526167,-0.37284255,-0.26205507,-0.49534798,2.64,-4.92,-53.4
1554879851484,-8.106767,-0.7811083000000001,4.395156,-0.51665324,-0.30253512,-0.56885123,2.64,-4.92,-53.4
1554879851504,-7.953538000000001,-0.5895722,4.170100700000001,-0.46978164,-0.33768883,-0.74248934,2.64,-4.8,-53.4
1554879851523,-8.106767,-0.55126494,4.217984700000001,-0.21837921,-0.39840892,-0.94488955,2.64,-4.62,-53.46
1554879851544,-8.164227499999999,-1.1498153,4.040814,-0.012783173500000002,-0.47830373,-1.0450244,2.52,-4.44,-53.52
1554879851564,-7.9343843,-1.6909049999999999,4.11264,0.002130529,-0.5294364,-1.0365024,2.4,-4.2,-53.58
1554879851584,-7.632714999999999,-1.8010383,4.586692,-0.084155895,-0.5571333,-1.1185277,2.16,-3.66,-53.64
1554879851603,-7.603985000000001,-1.7196354,4.337695,-0.12357068,-0.55287224,-1.2559468,2.1,-3.48,-53.64
1554879851623,-7.675811,-2.1410147999999998,4.3329067000000006,-0.18002969,-0.50600064,-1.3997575,1.92,-3.12,-53.7
1554879851643,-7.929596000000001,-2.7922377999999997,4.270657,-0.26312032,-0.44847634,-1.3933659,1.74,-2.7,-53.76
1554879851664,-7.848192999999999,-3.256713,4.3185415,-0.2972088,-0.42930159999999995,-1.3124058,1.56,-2.46,-53.76
1554879851684,-7.5704656,-3.7786489000000003,4.624999,-0.15446335,-0.42717105,-1.3134711000000001,1.38,-1.86,-53.7
1554879851704,-7.2592196,-4.487332299999999,4.7925935,-0.013848438000000001,-0.38242993,-1.3102753,1.26,-1.32,-53.7
1554879851724,-7.3549875999999985,-4.7267528,5.003283000000001,0.02130529,-0.3206446,-1.2602079,1.2,-1.08,-53.7
1554879851744,-7.134721300000001,-5.0763063,5.309741000000001,0.12463594,-0.24607609,-1.1685951,1.08,-0.6,-53.76
1554879851763,-6.8569937,-4.745906400000001,5.429451,0.29294774,-0.20772657,-1.1270498,0.96,-0.06,-53.82
1554879851783,-6.8761472999999995,-4.472967,4.7207669999999995,0.5230448000000001,-0.18748654,-1.1206582,0.66,0.6,-53.94
1554879851804,-6.780379300000001,-4.8320975,4.835689,0.5028047999999999,-0.15659387,-0.96406436,0.42,0.9,-54.0
1554879851824,-6.684611299999999,-4.956596,5.142146599999999,0.38882150000000004,-0.09267801,-0.7850999,0.12,1.08,-54.06
1554879851844,-6.8665705,-5.0810947,5.065532,0.30360037,-0.06711166,-0.7637946,-0.18,1.02,-54.18
1554879851864,-7.0006455999999995,-4.678869000000001,5.213972599999999,0.128897,-0.054328485999999995,-0.7776430000000001,-0.42,0.9,-54.3
1554879851884,-6.775591,-4.8895583,5.4486045999999995,-0.056459017,-0.053263225,-0.737163,-0.6,0.72,-54.36
1554879851903,-6.708553299999999,-5.1146135,5.501277,-0.13209279,-0.051132694000000006,-0.65194184,-0.84,0.48,-54.36
1554879851923,-6.617573299999999,-5.689222,5.501277,-0.12783173,-0.05965481,-0.572047,-0.96,0.24,-54.42
1554879851944,-6.38773,-5.7802014,5.6545057,-0.16085494,-0.07456851,-0.49534798,-1.08,0.06,-54.42
1554879851964,-6.047753299999999,-5.875969400000001,5.9561753,-0.14061491,-0.07456851,-0.47297743,-1.14,0.0,-54.42
1554879851984,-5.8179099999999995,-5.7466826,5.879561,0.036218993,-0.07350325,-0.44208476,-1.2,0.0,-54.48
1554879852004,-5.473145,-5.555146700000001,5.9130797,0.20026971,-0.068176925,-0.3898868,-1.2,0.06,-54.48
1554879852024,-5.2145715,-5.09546,5.769428,0.42077947,-0.06604639400000001,-0.34088463,-1.2,0.12,-54.48
1554879852043,-4.88896,-4.654927,5.558737799999999,0.5613944000000001,-0.07882957,-0.35260254,-1.2,0.18,-54.48
1554879852064,-4.501099,-4.3963529999999995,5.467758,0.59867865,-0.10546118,-0.39521313,-1.14,0.24,-54.48
1554879852084,-4.285621,-4.3676224,5.558737799999999,0.6593986999999999,-0.13954964,-0.46978164,-1.14,0.24,-54.48
1554879852104,-4.10845,-4.089895200000001,5.300164,0.79255676,-0.22477080000000002,-0.6018744,-1.14,0.24,-54.48
1554879852124,-3.8786068,-4.089895200000001,5.0846860000000005,0.8245146999999999,-0.32277513,-0.74675035,-1.14,0.12,-54.54
1554879852144,-3.9983168,-4.247912400000001,5.0942625999999995,0.7595335999999999,-0.39201729999999996,-0.8511463,-1.08,-0.24,-54.54
1554879852164,-4.0318356,-4.267066000000001,5.4102974,0.6178534000000001,-0.47404268,-0.9821738000000001,-1.08,-0.72,-54.54
1554879852183,-4.1515455,-4.530428,5.6161985,0.5539375,-0.55074173,-1.1206582,-1.08,-1.2,-54.6
1554879852203,-4.290409599999999,-4.717176,5.8604074,0.51452273,-0.60293967,-1.2538162,-1.02,-1.8,-54.6
1554879852224,-4.189853,-4.9757495,6.0806737,0.41971418,-0.62744075,-1.3017531999999998,-1.08,-2.4,-54.6
1554879852244,-4.175488,-5.6509147,6.707954400000001,0.33129725,-0.608266,-1.2857742,-1.14,-3.12,-54.6
1554879852264,-4.247314,-6.168062,6.554725599999999,0.3568636,-0.6380934,-1.3092101,-1.32,-3.84,-54.66
1554879852283,-3.9408559999999997,-6.297349,6.6983776,0.45806372,-0.6540724,-1.3411678999999999,-1.56,-4.5,-54.66
1554879852304,-3.8546648,-5.8663926,7.000047,0.56459016,-0.6317018,-1.3432984,-1.74,-4.98,-54.72
1554879852324,-4.1946416,-5.7945666,7.095814999999999,0.56459016,-0.5965481,-1.3358417,-1.98,-5.28,-54.72
1554879852344,-3.9312792,-6.0387754000000005,7.258621000000001,0.47723848,-0.5773733,-1.2793826000000001,-2.28,-5.64,-54.72
1554879852364,-3.4763808,-6.1153900000000005,6.827665,0.34834146,-0.56885123,-1.1856394,-2.52,-5.94,-54.78
1554879852384,-3.1651347000000003,-5.8089319999999995,6.593033,0.18002969,-0.55606806,-1.1707256000000001,-2.76,-6.42,-54.84
1554879852404,-3.083732,-5.713164,6.6792240000000005,0.082025364,-0.52411014,-1.2133361999999999,-3.06,-6.84,-54.84
1554879852424,-2.9352913,-5.8903346,6.96174,-0.03834952,-0.48149952,-1.1653993,-3.24,-7.26,-54.9
1554879852444,-2.4708161,-6.000468,7.138911,-0.16405073,-0.42930159999999995,-1.1185277,-3.42,-7.68,-54.96
1554879852464,-2.2074540000000002,-6.345233,7.3065050000000005,-0.17896444,-0.34834146,-1.1771171999999999,-3.6,-8.04,-55.02
1554879852483,-1.9871874,-6.3404446,7.0287776,-0.15339808,-0.29188246,-1.2090752,-3.84,-8.46,-55.08
1554879852505,-1.9201498,-6.2446766,6.84203,-0.051132694000000006,-0.25246766,-1.2271847,-4.02,-8.82,-55.14
1554879852524,-1.7621324,-6.369175,6.8372416,0.03089267,-0.23861924,-1.2335763000000002,-4.2,-9.06,-55.2
1554879852544,-1.5753847,-6.282984,7.000047,-0.033023197000000004,-0.23861924,-1.2058792999999999,-4.32,-9.06,-55.26
1554879852564,-1.3742718,-6.2303114,6.96174,-0.17150758,-0.24501082,-1.2239889,-4.44,-8.94,-55.26
1554879852585,-1.3455413999999999,-6.225523,6.933009599999999,-0.3174488,-0.2545982,-1.2836437,-4.44,-8.82,-55.32
1554879852605,-0.9528923,-6.4793080000000005,6.9521630000000005,-0.44741106,-0.28442562,-1.3038836999999999,-4.5,-8.52,-55.38
1554879852623,-0.641646,-6.938994999999999,6.7366850000000005,-0.48469532,-0.29614353,-1.2708606000000002,-4.5,-8.34,-55.44
1554879852644,-0.47884035,-7.173627000000001,6.8228765,-0.4708469,-0.2972088,-1.2122709999999999,-4.5,-7.92,-55.5
1554879852665,-0.61770403,-7.374739599999999,6.894702400000001,-0.4250405,-0.30040458,-1.1952267,-4.5,-7.2,-55.56
1554879852684,-0.5554548,-7.355586,6.971317,-0.42717105,-0.30999196,-1.1515508999999997,-4.5,-7.02,-55.62
1554879852704,-0.38307226,-7.877522,7.124545599999999,-0.36964676,-0.3270362,-1.0333065000000001,-4.62,-6.3,-55.62
1554879852724,-0.16280572,-7.877522,7.229890299999999,-0.26205507,-0.30040458,-0.9768475000000001,-4.68,-5.88,-55.56
1554879852744,-0.19153613,-7.681197599999999,6.937798,-0.13102753,-0.28016454,-0.98110855,-4.8,-5.52,-55.56
1554879852764,-0.25857377,-7.5183919999999995,6.889914,-0.13954964,-0.2428803,-0.91825795,-4.86,-5.16,-55.44
1554879852784,-0.05746084,-7.5758529999999995,7.0766615999999996,-0.25140239999999997,-0.20453078,-0.773382,-4.98,-4.8,-55.32
1554879852804,0.22505496,-7.791331,7.114969,-0.31212249999999997,-0.14168017,-0.67324716,-5.1,-4.44,-55.2
1554879852824,0.29209262,-7.7578119999999995,7.0048356,-0.28549087,-0.07882957,-0.6380934,-5.16,-4.08,-55.14
1554879852843,0.20590134,-7.662044,6.9425864,-0.2034655,-0.012783173500000002,-0.58269966,-5.22,-3.72,-55.14
1554879852864,0.25857377,-7.5471225,6.564302400000001,-0.18109496,0.049002163,-0.48363006,-5.28,-3.36,-55.26
1554879852884,0.5410896,-7.5375457,6.3488245,-0.22583607,0.10333065,-0.40906155,-5.34,-3.0,-55.38
1554879852904,0.61291564,-7.614160000000001,6.502053299999999,-0.30360037,0.1587244,-0.34194988,-5.4,-2.64,-55.5
1554879852924,0.6655880999999999,-7.5758529999999995,6.51163,-0.34408042,0.18216023,-0.30679616,-5.46,-2.28,-55.62
1554879852944,0.7038953,-7.5183919999999995,6.5307837,-0.36432046,0.20240025,-0.28122982,-5.46,-1.86,-55.68
1554879852964,0.7278373,-7.623736999999999,6.229114,-0.36964676,0.2034655,-0.21837921,-5.52,-1.44,-55.74
1554879852984,0.7422025,-7.4896617,6.458957700000001,-0.32384038,0.18961707,-0.16831179,-5.46,-1.2,-55.74
1554879853004,0.6607997,-7.422623599999999,6.1046157,-0.24927188,0.165116,-0.13848437,-5.46,-0.9,-55.62
1554879853024,0.7086836999999999,-7.2215110000000005,6.205172,-0.21624869,0.12996227,-0.12570119999999999,-5.4,-0.54,-55.44
1554879853043,0.6368576,-7.173627000000001,6.3631897,-0.21411815,0.10226539,-0.10972224,-5.34,-0.18,-55.26
1554879853064,0.79487497,-7.015609700000001,6.3823433,-0.22903186,0.06604639400000001,-0.08628642,-5.22,0.3,-55.14
1554879853084,0.82360536,-7.2023573,6.8085113,-0.20879184,0.029827405,-0.08735169,-5.16,0.72,-54.96
1554879853104,0.9864110999999999,-7.355586,6.746262,-0.20026971,0.012783173500000002,-0.082025364,-5.1,1.08,-54.84
1554879853124,0.94331545,-7.480085000000001,6.7893577,-0.15020229,0.017044231,-0.06924219,-5.04,1.26,-54.78
1554879853144,1.0534488000000002,-7.451353999999999,6.731896400000001,-0.058589544,0.023435817999999997,-0.06498113,-4.98,1.56,-54.72
1554879853164,1.1300632,-7.3364325,6.401497,0.03834952,0.03089267,-0.056459017,-4.98,1.8,-54.72
1554879853184,1.1300632,-7.317278999999999,6.238691,0.084155895,0.035153727999999995,-0.036218993,-4.92,2.04,-54.66
1554879853204,1.1971009,-7.4322004,6.1716533,0.101200126,0.03834952,-0.022370555,-4.92,2.34,-54.72
1554879853224,1.3263878,-7.2885485,5.9705405,0.09161274,0.04474111,-0.03089267,-4.86,2.46,-54.72
1554879853244,1.2641385,-7.211933999999999,5.9801173,0.046871635999999994,0.06285059999999999,-0.04261058,-4.8,2.58,-54.66
1554879853264,1.1587936,-7.1448965,5.7119665,0.008522116,0.07882957,-0.07030745599999999,-4.74,2.64,-54.66
1554879853284,1.091756,-7.1688385,5.7790045999999995,-0.007456851,0.08948222,-0.101200126,-4.68,2.76,-54.66
1554879853304,0.94331545,-7.154473299999999,5.8508306,-0.004261058,0.08628642,-0.12570119999999999,-4.62,2.82,-54.6
1554879853323,0.9959879,-7.1209545,5.8268886,-0.033023197000000004,0.068176925,-0.15446335,-4.56,2.88,-54.6
1554879853343,0.78529817,-7.101800999999999,5.7598505,-0.08735169,0.060720075,-0.17576863,-4.5,2.88,-54.6
1554879853363,1.0007763,-7.317278999999999,5.8412538,-0.10652645,0.04474111,-0.17363810000000002,-4.44,2.82,-54.54
1554879853384,0.9864110999999999,-7.3268557,5.798158,-0.113983296,0.029827405,-0.1768339,-4.44,2.82,-54.54
1554879853404,1.0821792,-7.6189485,5.8891377,-0.11930962,0.02130529,-0.165116,-4.38,2.88,-54.54
1554879853423,0.9624690999999999,-7.671621000000001,5.8891377,-0.113983296,0.014913702,-0.13741912,-4.32,2.88,-54.54
1554879853444,1.0199299000000002,-7.753023599999999,6.0280013,-0.101200126,0.0031957934000000003,-0.112918034,-4.26,2.94,-54.54
1554879853464,1.0247183000000002,-7.6907744000000005,5.807735,-0.05219796,-0.0010652645,-0.099069595,-4.2,3.12,-54.48
1554879853483,0.91458505,-7.5950065,5.8891377,-0.01917476,-0.018109497,-0.07243799,-4.2,3.3,-54.48
1554879853504,1.0151415000000001,-7.6285253,5.831677,-0.051132694000000006,-0.033023197000000004,-0.039414786,-4.2,3.42,-54.48
1554879853524,0.8379706,-7.5566993,5.812523400000001,-0.07882957,-0.05006743,-0.034088463,-4.2,3.48,-54.48
1554879853544,0.91937345,-7.5566993,5.8268886,-0.10226539,-0.080960095,-0.027696876000000002,-4.14,3.6,-54.54
1554879853564,1.0007763,-7.724292999999999,5.999271,-0.094808534,-0.07669904,-0.023435817999999997,-4.2,3.66,-54.54
1554879853584,0.9768343,-7.5950065,5.893926,-0.06498113,-0.07350325,-0.018109497,-4.2,3.66,-54.48
1554879853603,1.043872,-7.7003509999999995,5.9801173,0.040480047000000005,-0.046871635999999994,-0.007456851,-4.26,3.78,-54.48
1554879853623,1.0965444,-7.6045833,5.94181,0.060720075,-0.025566347000000003,0.015978966,-4.32,3.84,-54.48
1554879853643,1.3503298000000001,-7.671621000000001,5.8987145,-0.018109497,-0.011717908999999999,0.041545313,-4.32,3.9,-54.48
1554879853664,1.3742718,-7.705139599999999,5.8747725,-0.094808534,0.013848438000000001,0.07882957,-4.32,3.96,-54.48
1554879853684,1.436521,-7.6524673,5.9322333,-0.10226539,0.0063915867,0.07669904,-4.32,4.02,-54.42
1554879853703,1.4030021000000001,-7.527969000000001,5.994482499999999,-0.056459017,0.004261058,0.05219796,-4.32,4.08,-54.36
1554879853724,1.4030021000000001,-7.417835,5.740697,0.012783173500000002,-0.013848438000000001,0.039414786,-4.32,4.14,-54.36
1554879853743,1.3694833999999998,-7.398681599999999,5.769428,0.07243799,-0.03089267,0.022370555,-4.32,4.2,-54.42
1554879853763,1.2258313,-7.2215110000000005,5.812523400000001,0.12357068,-0.047936900000000005,0.007456851,-4.26,4.26,-54.42
1554879853783,1.067814,-7.0587053,5.807735,0.15126756,-0.08841695,-0.008522116,-4.26,4.26,-54.42
1554879853804,0.9959879,-7.16405,5.7023897,0.12783173,-0.13102753,0.007456851,-4.2,4.32,-54.54
1554879853824,0.94810385,-7.3364325,5.6640825,0.054328485999999995,-0.1470065,0.010652645,-4.2,4.32,-54.6
1554879853844,1.0103531,-7.504027000000001,5.9561753,-0.0031957934000000003,-0.13315806,0.007456851,-4.14,4.32,-54.66
1554879853864,1.0773908,-7.614160000000001,5.9705405,-0.012783173500000002,-0.11504856,0.014913702,-4.14,4.32,-54.72
1554879853884,1.2306197,-7.73387,5.8412538,0.06285059999999999,-0.07776430000000001,0.033023197000000004,-4.08,4.32,-54.72
1554879853903,1.2737153,-7.662044,5.6736593,0.11717909,-0.05539375,0.035153727999999995,-4.08,4.32,-54.78
1554879853923,1.3024458,-7.4465656000000005,5.635351999999999,0.09267801,-0.015978966,0.03089267,-4.02,4.26,-54.78
1554879853943,1.283292,-7.4609309999999995,5.7263317,0.017044231,0.004261058,0.04261058,-4.02,4.2,-54.78
1554879853963,1.3263878,-7.3699512,5.5826797,-0.051132694000000006,0.0063915867,0.040480047000000005,-4.14,4.14,-54.72
1554879853983,1.2497733,-7.389105000000001,5.659294,-0.12783173,0.008522116,0.037284255,-4.26,4.08,-54.66
1554879854004,1.1348516000000002,-7.4034699999999996,5.668871,-0.15552860000000002,-0.0010652645,0.051132694000000006,-4.38,4.02,-54.6
1554879854024,1.1875241,-7.5183919999999995,5.7646394,-0.13315806,-0.01917476,0.056459017,-4.56,3.96,-54.6
1554879854044,1.091756,-7.49445,5.807735,-0.10865697,-0.036218993,0.05539375,-4.68,3.9,-54.66
1554879854064,1.2449848999999997,-7.5950065,5.917868,-0.08628642,-0.037284255,0.04474111,-4.74,3.9,-54.66
1554879854084,1.2354081000000001,-7.5471225,6.023213,-0.054328485999999995,-0.013848438000000001,0.043675844000000005,-4.8,3.96,-54.66
1554879854104,1.3120226000000001,-7.561487700000001,6.085462000000001,-0.03089267,0.017044231,0.049002163,-4.86,4.14,-54.66
1554879854124,1.3359646,-7.6572556,5.9322333,-0.013848438000000001,0.05752428,0.053263225,-4.86,4.26,-54.66
1554879854144,1.2306197,-7.504027000000001,5.999271,-0.02876214,0.10013486,0.05006743,-4.8,4.44,-54.66
1554879854163,1.2066777,-7.5950065,6.0519433,-0.084155895,0.13528858,0.037284255,-4.8,4.62,-54.66
1554879854184,1.2401965,-7.599794999999999,5.769428,-0.13954964,0.17257284,0.026631612000000002,-4.8,4.74,-54.72
1554879854204,1.1540052,-7.623736999999999,5.903503,-0.13528858,0.19813919,0.010652645,-4.8,4.86,-54.66
1554879854224,1.1492168,-7.436989,5.774216,-0.09054748,0.20772657,-0.020240024,-4.8,4.92,-54.66
1554879854244,1.1492168,-7.4034699999999996,5.8268886,-0.043675844000000005,0.19920446,-0.054328485999999995,-4.86,4.92,-54.66
1554879854263,1.0534488000000002,-7.4034699999999996,5.587468,-0.022370555,0.17576863,-0.08735169,-4.92,4.8,-54.66
1554879854283,0.93852705,-7.480085000000001,5.61141,-0.035153727999999995,0.14807177,-0.10013486,-4.92,4.74,-54.66
1554879854307,0.9624690999999999,-7.5758529999999995,5.7119665,-0.040480047000000005,0.094808534,-0.12676647,-4.86,4.68,-54.66
1554879854324,0.8571242,-7.5327573,5.606621700000001,-0.024501082,0.06391586,-0.14168017,-4.8,4.68,-54.66
1554879854344,0.92416185,-7.5183919999999995,5.659294,0.012783173500000002,0.027696876000000002,-0.1470065,-4.62,4.68,-54.6
1554879854364,0.81402856,-7.527969000000001,5.4964886,0.04474111,0.0031957934000000003,-0.14168017,-4.38,4.74,-54.48
1554879854384,0.8523358,-7.480085000000001,5.486912,0.013848438000000001,-0.0053263223,-0.14487597,-4.32,4.8,-54.42
1554879854404,0.842759,-7.599794999999999,5.716755,-0.037284255,-0.00958738,-0.1587244,-4.08,4.92,-54.3
1554879854424,0.770933,-7.7578119999999995,5.7933699999999995,-0.03195793,-0.02130529,-0.1438107,-3.96,4.98,-54.18
1554879854444,0.7469909,-7.9062524000000005,5.8651957999999995,0.010652645,-0.034088463,-0.12144015,-3.84,5.04,-54.06
1554879854464,0.7565677,-8.040328,5.9322333,0.080960095,-0.039414786,-0.09374327,-3.78,5.04,-54.0
1554879854484,0.7182605,-8.011598,5.9226565,0.13954964,-0.04580637,-0.04261058,-3.78,5.1,-53.94
1554879854504,0.7422025,-7.719505000000001,5.549161,0.15233281,-0.05539375,-0.010652645,-3.78,5.1,-54.0
1554879854523,0.7517793,-7.585429700000001,5.668871,0.08522116,-0.07776430000000001,0.011717908999999999,-3.84,5.1,-54.0
1554879854544,0.78529817,-7.681197599999999,5.869984,0.037284255,-0.096939065,0.047936900000000005,-3.84,5.16,-54.06
1554879854564,0.9528923,-7.781753999999999,5.817312,0.068176925,-0.1107875,0.07030745599999999,-3.84,5.16,-54.06
1554879854584,0.94331545,-7.7147164,5.4964886,0.16618125,-0.11930962,0.06604639400000001,-3.84,5.16,-54.12
1554879854603,0.9720459000000001,-7.5136037,5.6161985,0.2066613,-0.11611383,0.06498113,-3.84,5.16,-54.18
1554879854624,0.9959879,-7.436989,5.515642,0.19920446,-0.11717909,0.06498113,-3.84,5.1,-54.24
1554879854644,0.9624690999999999,-7.389105000000001,5.549161,0.13528858,-0.12357068,0.05752428,-3.84,5.1,-54.3
1554879854664,0.9864110999999999,-7.2885485,5.6401405,0.05965481,-0.128897,0.05965481,-3.9,4.92,-54.3
1554879854684,1.0582372,-7.647678999999999,5.8268886,0.054328485999999995,-0.15020229,0.07243799,-3.96,4.74,-54.36
1554879854703,1.0582372,-7.753023599999999,5.9465985,0.07563378,-0.16618125,0.05965481,-4.08,4.56,-54.36
1554879854724,1.0630256,-7.839214999999999,6.27221,0.08841695,-0.18535602,0.035153727999999995,-4.2,4.38,-54.36
1554879854744,0.90500826,-8.016386,6.367978,0.128897,-0.21624869,0.043675844000000005,-4.32,4.26,-54.36
1554879854764,0.9576806999999999,-7.896675599999999,6.229114,0.22050974,-0.2130529,0.09161274,-4.44,4.02,-54.36
1554879854784,0.8283938,-7.7626004,5.999271,0.32384038,-0.18002969,0.14594123,-4.56,3.9,-54.36
1554879854804,0.80924016,-7.2741833,5.8747725,0.350472,-0.14168017,0.19920446,-4.62,3.78,-54.36
1554879854824,0.7038953,-7.077858999999999,5.807735,0.3057309,-0.09267801,0.21092236,-4.74,3.72,-54.36
1554879854844,0.63206923,-6.9437833,6.023213,0.2066613,-0.06924219,0.22050974,-4.8,3.66,-54.36
1554879854864,0.80924016,-6.8528037,5.7598505,0.128897,-0.056459017,0.22370553,-4.86,3.6,-54.36
1554879854884,0.91937345,-7.053917,5.846042,0.053263225,-0.02876214,0.20985709,-4.86,3.42,-54.42
1554879854904,1.0390834999999998,-7.1688385,5.8508306,0.043675844000000005,-0.018109497,0.17576863,-4.92,3.18,-54.42
1554879854925,1.1875241,-7.154473299999999,5.869984,0.046871635999999994,-0.013848438000000001,0.13315806,-4.98,2.88,-54.48
1554879854944,1.2785037000000001,-7.0970125,5.975329,-0.014913702,-0.0031957934000000003,0.09161274,-4.98,2.52,-54.48
1554879854965,1.4413095,-7.389105000000001,6.1668650000000005,-0.09054748,0.007456851,0.07882957,-5.04,2.16,-54.54
1554879854983,1.4987701999999998,-7.4561424,6.2339025,-0.09161274,0.017044231,0.07350325,-5.16,1.86,-54.6
1554879855004,1.5753847,-7.441777,6.2530565000000005,-0.011717908999999999,0.020240024,0.035153727999999995,-5.22,1.62,-54.6
1554879855024,1.4796166000000002,-7.1305312999999995,5.994482499999999,0.036218993,0.014913702,-0.0053263223,-5.28,1.38,-54.6
1554879855043,1.283292,-6.900687700000001,6.023213,0.039414786,0.014913702,-0.039414786,-5.34,1.32,-54.6
1554879855064,1.2114661,-6.785766000000001,6.157287999999999,-0.0053263223,0.002130529,-0.07350325,-5.34,1.32,-54.66
1554879855084,1.1061212,-6.795342999999999,6.0423665,-0.06498113,-0.008522116,-0.112918034,-5.28,1.32,-54.66
1554879855104,0.92416185,-6.9150529999999995,6.071097,-0.06498113,-0.018109497,-0.13422333,-5.28,1.44,-54.72
1554879855123,0.8523358,-6.900687700000001,6.2003837,-0.01917476,-0.026631612000000002,-0.14274544,-5.22,1.5,-54.72
1554879855143,0.7565677,-7.0251865,5.999271,0.05219796,-0.027696876000000002,-0.165116,-5.22,1.56,-54.72
1554879855164,0.91458505,-7.1353197,6.1094040000000005,0.036218993,-0.017044231,-0.17576863,-5.16,1.62,-54.78
1554879855184,0.90021986,-7.374739599999999,5.927445,-0.04261058,0.0053263223,-0.17257284,-5.16,1.62,-54.84
1554879855203,0.90500826,-7.49445,6.071097,-0.098004326,0.022370555,-0.14274544,-5.22,1.62,-54.84
1554879855223,0.8762778,-7.6524673,6.06152,-0.09161274,0.05752428,-0.11717909,-5.28,1.68,-54.9
1554879855245,0.89543146,-7.5758529999999995,6.1046157,-0.08522116,0.07243799,-0.101200126,-5.34,1.74,-54.9
1554879855263,0.7613561,-7.566275999999999,6.1237693,-0.09054748,0.098004326,-0.07350325,-5.4,1.8,-54.9
1554879855283,0.8714894,-7.6189485,6.2099605,-0.10546118,0.10972224,-0.049002163,-5.46,1.92,-54.9
1554879855303,0.89543146,-7.5758529999999995,5.9322333,-0.10546118,0.10972224,-0.051132694000000006,-5.46,2.04,-54.96
1554879855324,0.8475474000000001,-7.5471225,6.0758852999999995,-0.07137272,0.10759171,-0.058589544,-5.46,2.1,-54.96
1554879855343,0.866701,-7.3460092999999995,6.0280013,-0.024501082,0.08522116,-0.05006743,-5.46,2.28,-54.96
1554879855364,0.7469909,-7.3029137,5.831677,0.014913702,0.05006743,-0.07350325,-5.4,2.46,-54.96
1554879855383,0.7469909,-7.2023573,5.8508306,0.017044231,0.024501082,-0.082025364,-5.34,2.58,-54.96
1554879855404,0.79966336,-7.211933999999999,5.8604074,0.026631612000000002,0.0010652645,-0.083090626,-5.34,2.64,-54.96
1554879855423,0.9911995000000001,-7.417835,5.846042,0.00958738,-0.047936900000000005,-0.06391586,-5.22,2.82,-54.96
1554879855443,1.0630256,-7.5327573,5.975329,-0.034088463,-0.053263225,-0.056459017,-5.16,2.88,-54.96
1554879855464,0.9768343,-7.709928,6.085462000000001,-0.029827405,-0.051132694000000006,-0.040480047000000005,-5.1,2.94,-55.02
1554879855483,1.1827357,-7.6428905,6.128557700000001,-0.004261058,-0.054328485999999995,-0.020240024,-5.1,3.0,-55.14
1554879855504,1.0199299000000002,-7.441777,6.0758852999999995,0.03195793,-0.05219796,-0.010652645,-5.1,3.0,-55.2
1554879855524,0.90500826,-7.4034699999999996,5.893926,0.09161274,-0.05219796,0.0063915867,-5.1,3.0,-55.26
1554879855545,1.0007763,-7.341221000000001,5.9322333,0.13954964,-0.06604639400000001,0.017044231,-5.1,3.0,-55.32
1554879855564,0.9720459000000001,-7.044339999999999,5.855619,0.10972224,-0.07776430000000001,-0.008522116,-5.1,3.0,-55.38
1554879855583,0.9624690999999999,-7.0874357,5.6976013,0.04474111,-0.08522116,-0.02876214,-5.16,2.94,-55.38
1554879855604,0.9720459000000001,-7.1592617,5.927445,0.004261058,-0.098004326,-0.014913702,-5.22,2.94,-55.38
1554879855623,1.0295067,-7.2406645,6.0423665,-0.023435817999999997,-0.113983296,-0.026631612000000002,-5.22,2.94,-55.26
1554879855643,1.0295067,-7.436989,5.994482499999999,-0.04261058,-0.12037488,-0.039414786,-5.28,2.82,-55.14
1554879855664,1.0342950999999998,-7.4561424,6.0423665,-0.033023197000000004,-0.12996227,-0.024501082,-5.28,2.76,-55.02
1554879855683,1.1492168,-7.5375457,6.0280013,0.002130529,-0.1438107,-0.023435817999999997,-5.28,2.58,-54.84
1554879855704,1.1156979999999999,-7.542333999999999,6.0423665,0.03089267,-0.15233281,-0.018109497,-5.4,2.4,-54.72
1554879855723,1.1013328000000002,-7.4992385,6.18123,0.05006743,-0.14807177,0.0031957934000000003,-5.52,2.22,-54.66
1554879855743,1.2306197,-7.436989,6.1381345000000005,0.068176925,-0.13422333,0.026631612000000002,-5.64,2.1,-54.6
1554879855764,1.1348516000000002,-7.413047,6.1046157,0.07030745599999999,-0.12250541,0.026631612000000002,-5.76,1.92,-54.6
1554879855784,1.2641385,-7.365163000000001,6.0758852999999995,0.024501082,-0.10759171,0.037284255,-5.88,1.8,-54.72
1554879855803,1.2401965,-7.4034699999999996,6.0998273,0.0031957934000000003,-0.082025364,0.033023197000000004,-5.94,1.8,-54.84
1554879855824,1.3359646,-7.379528,6.229114,0.012783173500000002,-0.05965481,0.012783173500000002,-6.06,1.8,-54.96
1554879855844,1.2689268999999999,-7.269394999999999,6.0758852999999995,0.041545313,-0.035153727999999995,0.0,-6.18,1.8,-55.08
1554879855864,1.3120226000000001,-7.149685000000001,6.229114,0.06604639400000001,-0.0010652645,-0.017044231,-6.18,1.86,-55.2
1554879855884,1.283292,-7.1113777,6.0088477,0.03834952,0.02130529,-0.043675844000000005,-6.24,1.92,-55.32
1554879855904,1.2306197,-7.1353197,6.0088477,-0.018109497,0.036218993,-0.05539375,-6.24,1.98,-55.38
1554879855923,1.2449848999999997,-7.092224000000001,6.0280013,-0.05965481,0.03195793,-0.06711166,-6.24,2.04,-55.38
1554879855944,1.2689268999999999,-7.3268557,6.085462000000001,-0.05539375,0.023435817999999997,-0.084155895,-6.24,2.1,-55.32
1554879855964,1.316811,-7.341221000000001,5.9801173,-0.008522116,0.00958738,-0.08735169,-6.24,2.1,-55.32
1554879855984,1.2737153,-7.4609309999999995,6.085462000000001,0.023435817999999997,-0.0063915867,-0.08841695,-6.3,2.1,-55.26
1554879856003,1.2593501,-7.4034699999999996,6.1764417,0.039414786,-0.008522116,-0.08948222,-6.36,2.16,-55.14
1554879856023,1.1300632,-7.413047,6.1620764999999995,0.03834952,-0.017044231,-0.083090626,-6.36,2.16,-55.14
1554879856044,1.0630256,-7.441777,6.1237693,0.04580637,-0.017044231,-0.06391586,-6.36,2.16,-55.08
1554879856064,1.0055646999999999,-7.317278999999999,5.879561,0.06178534,-0.004261058,-0.053263225,-6.42,2.16,-55.02
1554879856084,1.043872,-7.1927805,5.9465985,0.03834952,0.002130529,-0.035153727999999995,-6.42,2.16,-54.96
1554879856103,1.0199299000000002,-7.211933999999999,6.0184245,-0.03195793,0.004261058,-0.049002163,-6.48,2.1,-54.96
1554879856124,0.94331545,-7.374739599999999,6.0088477,-0.05006743,-0.0031957934000000003,-0.07137272,-6.48,2.04,-54.96
1554879856144,1.0151415000000001,-7.6189485,6.013636,0.0,-0.018109497,-0.080960095,-6.48,1.98,-55.02
1554879856163,1.0342950999999998,-7.441777,6.023213,0.07669904,-0.034088463,-0.07989483,-6.42,1.98,-55.08
1554879856184,1.0007763,-7.3843164,5.8747725,0.09161274,-0.05752428,-0.07669904,-6.42,1.92,-55.14
1554879856204,1.0295067,-7.365163000000001,5.9849057,0.040480047000000005,-0.084155895,-0.06178534,-6.36,1.92,-55.2
1554879856224,1.0534488000000002,-7.6189485,5.9849057,0.004261058,-0.10546118,-0.024501082,-6.36,1.86,-55.26
1554879856244,1.1348516000000002,-7.6572556,6.1094040000000005,0.03834952,-0.13209279,0.002130529,-6.3,1.8,-55.26
1554879856264,1.1827357,-7.5327573,6.3009405,0.101200126,-0.13102753,0.039414786,-6.24,1.8,-55.26
1554879856284,1.1540052,-7.5327573,6.0040593,0.15339808,-0.1107875,0.08948222,-6.18,1.86,-55.26
1554879856304,1.2545617,-7.16405,5.9849057,0.14913702,-0.07243799,0.13528858,-6.12,1.8,-55.2
1554879856324,1.2018893,-7.015609700000001,5.8891377,0.10652645,-0.051132694000000006,0.14487597,-6.12,1.8,-55.14
1554879856343,1.2066777,-6.929417999999999,5.975329,0.008522116,-0.020240024,0.14487597,-6.12,1.74,-55.08
1554879856363,1.2018893,-7.0634937,6.0423665,-0.035153727999999995,-0.0031957934000000003,0.13209279,-6.06,1.74,-55.08
1554879856384,1.283292,-7.1113777,6.0998273,-0.04474111,-0.004261058,0.096939065,-6.06,1.68,-55.14
1554879856404,1.2449848999999997,-7.3699512,6.0998273,-0.05219796,-0.010652645,0.084155895,-6.12,1.68,-55.2
1554879856424,1.2593501,-7.508815299999999,6.367978,-0.033023197000000004,-0.020240024,0.080960095,-6.12,1.68,-55.26
1554879856444,1.1827357,-7.681197599999999,6.39192,0.0031957934000000003,-0.02130529,0.08522116,-6.18,1.62,-55.32
1554879856464,1.0582372,-7.5758529999999995,6.4828997,0.035153727999999995,-0.025566347000000003,0.080960095,-6.3,1.62,-55.44
1554879856484,0.8810662,-7.527969000000001,6.4398040000000005,0.07563378,-0.023435817999999997,0.10013486,-6.42,1.62,-55.5
1554879856504,0.89064306,-7.355586,6.3584013,0.11930962,-0.024501082,0.16618125,-6.54,1.62,-55.56
1554879856524,0.80924016,-7.255029700000001,6.257845,0.165116,-0.011717908999999999,0.20985709,-6.72,1.62,-55.62
1554879856544,0.6655880999999999,-7.16405,5.994482499999999,0.15446335,-0.017044231,0.23116238,-6.84,1.5,-55.56
1554879856564,0.60333884,-7.1879919999999995,6.013636,0.10013486,-0.020240024,0.25033715,-7.02,1.44,-55.5
1554879856584,0.7134720999999999,-7.3603745,6.1333459999999995,0.060720075,-0.024501082,0.25885928,-7.14,1.32,-55.44
1554879856603,0.7134720999999999,-7.3603745,6.0280013,0.08841695,-0.02876214,0.26312032,-7.26,1.2,-55.44
1554879856624,0.90979666,-7.365163000000001,6.157287999999999,0.15552860000000002,-0.024501082,0.26525086,-7.32,1.08,-55.38
1554879856644,0.94331545,-7.2981253,5.9465985,0.19387813,-0.002130529,0.257794,-7.32,0.96,-55.32
1554879856664,0.8714894,-7.317278999999999,6.047155,0.15339808,0.015978966,0.24927188,-7.32,0.84,-55.32
1554879856686,0.8762778,-7.1927805,6.2769985,0.101200126,0.026631612000000002,0.24394555,-7.26,0.78,-55.32
1554879856704,0.81402856,-7.4034699999999996,6.1333459999999995,0.04580637,0.033023197000000004,0.23329292,-7.2,0.72,-55.32
1554879856724,0.6991069000000001,-7.441777,6.2482677,0.015978966,0.034088463,0.23968449999999997,-7.08,0.54,-55.32
1554879856743,0.5506664000000001,-7.5327573,6.415862000000001,0.014913702,0.037284255,0.28655612,-7.02,0.42,-55.38
1554879856764,0.38307226,-7.527969000000001,6.588244400000001,0.035153727999999995,0.024501082,0.31105720000000003,-6.96,0.18,-55.38
1554879856783,0.25378537,-7.451353999999999,6.559514,0.082025364,0.020240024,0.34514567,-6.9,-0.06,-55.38
1554879856804,0.08140286,-7.585429700000001,6.63134,0.10333065,0.020240024,0.41971418,-6.78,-0.3,-55.44
1554879856823,-0.12928689,-7.5566993,6.712743,0.1107875,0.020240024,0.47404268,-6.78,-0.54,-55.44
1554879856843,-0.33518824,-7.6572556,6.688801,0.1107875,0.0063915867,0.5070659000000001,-6.72,-0.72,-55.44
1554879856864,-0.25857377,-7.6764092,6.96174,0.12037488,0.008522116,0.588026,-6.72,-0.96,-55.44
1554879856884,-0.38307226,-7.753023599999999,7.038354400000001,0.17470337,0.026631612000000002,0.6785734,-6.78,-1.14,-55.44
1554879856904,-0.60812724,-7.7865424,7.105392,0.18429075,0.07137272,0.753142,-6.78,-1.26,-55.44
1554879856924,-0.8523358,-7.858368400000001,7.095814999999999,0.18855181,0.11611383,0.83729786,-6.84,-1.32,-55.44
1554879856943,-0.90021986,-7.973290400000001,7.1006035999999995,0.20240025,0.15020229,0.92784536,-6.9,-1.38,-55.5
1554879856964,-1.1348516000000002,-8.021174,7.033566,0.2130529,0.19281286,1.0237192,-6.96,-1.44,-55.56
1554879856984,-1.316811,-7.9828672,7.1963716,0.221575,0.22796659,1.1302456,-7.02,-1.5,-55.56
1554879857004,-1.5562311000000002,-7.872733599999999,7.148487599999999,0.21944448,0.2545982,1.2261194,-7.02,-1.56,-55.62
1554879857024,-1.7142484,-7.5758529999999995,7.215525,0.21624869,0.28868666,1.3198626,-7.02,-1.62,-55.62
1554879857044,-1.8483237000000001,-7.719505000000001,6.933009599999999,0.21731395,0.330232,1.4050837999999999,-6.96,-1.62,-55.68
1554879857066,-1.9153613999999999,-7.599794999999999,7.143699000000001,0.2066613,0.38029942,1.4647386,-6.96,-1.68,-55.68
1554879857084,-1.9105729999999999,-7.2885485,7.043143,0.21944448,0.40586576,1.4881744,-6.84,-1.74,-55.68
1554879857104,-2.2218192,-7.379528,6.7893577,0.2876214,0.44315,1.5488945,-6.78,-1.86,-55.68
1554879857123,-2.3654714,-7.2071457,6.712743,0.30360037,0.45486793,1.582983,-6.66,-2.1,-55.62
1554879857143,-2.5234885,-6.977302000000001,6.707954400000001,0.31318775,0.48469532,1.5904398000000002,-6.48,-2.28,-55.62
1554879857163,-2.7868507,-6.579865,6.655282000000001,0.28549087,0.5006742999999999,1.603223,-6.3,-2.52,-55.56
1554879857184,-3.0502129,-6.3548098,6.545148999999999,0.23116238,0.50600064,1.627724,-6.12,-2.82,-55.56
1554879857203,-3.064578,-6.0531406,6.741472999999999,0.23968449999999997,0.531567,1.6170714,-5.94,-3.12,-55.5
1554879857224,-3.2561142000000003,-5.9238534000000005,6.3727665,0.27164245,0.5581986,1.6010925,-5.82,-3.54,-55.5
1554879857244,-3.5146879999999996,-5.976526,6.4110737,0.23009712,0.5858955,1.6010925,-5.64,-4.08,-55.56
1554879857264,-3.7253778,-5.583876999999999,6.324882499999999,0.13209279,0.6061354999999999,1.5542208,-5.52,-4.5,-55.68
1554879857284,-4.0462008,-5.2103815,6.3392477,0.040480047000000005,0.60507023,1.478587,-5.4,-4.86,-55.74
1554879857304,-4.6255975,-5.0332108,6.425439,-0.06391586,0.5837649,1.4732608,-5.28,-5.22,-55.8
1554879857324,-4.6208089999999995,-5.105036699999999,6.305729,-0.16618125,0.5305017,1.510545,-5.16,-5.58,-55.74
1554879857344,-4.721366000000001,-4.8656163,6.324882499999999,-0.19281286,0.49002165,1.4945661,-4.98,-5.94,-55.68
1554879857364,-4.8985367,-4.8799815,5.9226565,-0.17150758,0.45060685,1.4327807,-4.74,-6.18,-55.56
1554879857384,-5.094861,-4.410718,5.707178,-0.2695119,0.39627838,1.3667343,-4.5,-6.3,-55.5
1554879857403,-5.295974299999999,-4.185663,5.415086,-0.49321744,0.3206446,1.3070794,-4.26,-6.24,-55.38
1554879857425,-5.487509999999999,-4.051588,5.295376,-0.76059884,0.23009712,1.2495551999999999,-3.96,-6.3,-55.26
1554879857444,-5.6982,-3.840898,5.237914599999999,-1.0173275,0.113983296,1.180313,-3.72,-6.24,-55.14
1554879857464,-5.621585400000001,-3.8456864,5.099051,-1.2676646999999999,-0.007456851,1.0950918,-3.48,-6.18,-55.02
1554879857484,-5.60722,-4.061165,5.1086279999999995,-1.5425029,-0.096939065,1.0034790999999998,-3.3,-5.94,-55.02
1554879857504,-5.803545,-4.3580456,5.1613,-1.7534252000000001,-0.14913702,0.9086706,-3.18,-5.4,-55.08
1554879857524,-5.8945246,-4.8225207,5.228338,-1.73212,-0.21411815,0.8447546999999999,-3.12,-4.56,-55.14
1554879857544,-5.975927400000001,-5.253476999999999,5.4342394,-1.401888,-0.2609898,0.8319715,-3.12,-3.48,-55.14
1554879857564,-5.9567738,-5.253476999999999,5.462969999999999,-0.8831041999999999,-0.28975195,0.8309063,-3.12,-2.22,-55.14
1554879857584,-6.009446,-5.1146135,5.37199,-0.42717105,-0.29294774,0.8404937,-3.24,-0.96,-55.08
1554879857603,-6.229712999999999,-5.133767,5.515642,-0.05219796,-0.21092236,0.9044095,-3.48,0.48,-54.96
1554879857624,-6.3111157,-5.0284224,5.563526,0.21092236,-0.19174760000000002,0.9139969000000001,-3.72,1.92,-54.84
1554879857644,-6.220136,-4.6022544000000005,5.453393,0.6348976,-0.101200126,0.9108011,-4.08,3.78,-54.66
1554879857664,-6.483498,-4.1665095999999995,5.309741000000001,0.84688526,-0.046871635999999994,0.9310411,-4.2,4.26,-54.6
1554879857684,-6.6079965,-3.888782,5.285799,1.0812434,0.033023197000000004,0.9651296,-4.56,5.16,-54.48
1554879857704,-6.564901,-3.4913447,5.3145294000000005,1.0950918,0.10333065,0.9853696,-4.74,5.22,-54.42
1554879857724,-6.7133417,-3.1753099999999996,5.333683000000001,1.0258497,0.18642128,0.9938916999999999,-4.98,4.8,-54.48
1554879857744,-6.799533,-2.8353333,5.3624134,0.94808537,0.24820662,0.9938916999999999,-5.04,4.14,-54.48
1554879857764,-6.8522053,-2.6916811000000003,5.3863554,0.83729786,0.3174488,1.0120013,-4.98,3.3,-54.6
1554879857784,-6.9383965,-2.4235306,5.142146599999999,0.71585774,0.3685815,1.0247844000000002,-4.92,2.22,-54.72
1554879857804,-7.0964136,-2.1027076,5.242703,0.6306366,0.42184472,0.99282646,-4.8,1.14,-54.84
1554879857824,-7.2065472999999995,-1.9015948,5.3145294000000005,0.61891866,0.46658584,0.93636745,-4.68,-0.12,-54.96
1554879857844,-7.3071036,-1.5472529,5.185242,0.6412892,0.49960902,0.902279,-4.56,-1.44,-55.08
1554879857865,-7.2927384,-1.4754268,5.113416,0.7126619000000001,0.52624065,0.87564737,-4.38,-2.52,-55.14
1554879857884,-7.2592196,-1.1881226,4.9745526,0.8042746999999999,0.53795856,0.8447546999999999,-4.14,-3.42,-55.2
1554879857904,-7.489063000000001,-1.0444705,4.8021703,0.8543421,0.51452273,0.79042625,-3.9,-4.14,-55.32
1554879857924,-7.4986396,-0.76195467,4.4286747,0.80533993,0.45912898,0.7254451,-3.54,-4.92,-55.38
1554879857945,-7.6853875999999985,-0.350152,4.8739963,0.6945524000000001,0.4282363,0.6593986999999999,-3.3,-5.88,-55.44
1554879857963,-7.809886,-0.08678981,4.481347,0.6498113,0.39308259999999995,0.63383234,-3.0,-6.66,-55.44
1554879857984,-7.7189064,-0.08678981,4.395156,0.58696073,0.3536678,0.59122175,-2.76,-7.38,-55.44
1554879858003,-7.795521000000001,-0.18255788,4.4286747,0.51771855,0.35473305,0.5635249,-2.52,-8.1,-55.44
1554879858023,-7.7189064,-0.04369418,4.5196543,0.39627838,0.33875409999999995,0.49108690000000005,-2.28,-8.82,-55.44
1554879858044,-7.795521000000001,0.45908818,4.419098,0.34514567,0.31105720000000003,0.39627838,-2.04,-9.54,-55.44
1554879858063,-7.8865004,0.5165489999999999,4.361637,0.32277513,0.27696875,0.30146983,-1.86,-10.32,-55.44
1554879858084,-8.006210000000001,0.717662,4.5723267,0.24607609,0.28016454,0.25672874,-1.68,-11.04,-55.38
1554879858104,-8.001422,0.76554596,4.7159786,0.19920446,0.27696875,0.23116238,-1.56,-11.7,-55.32
1554879858123,-8.130709,0.7751228,4.4861355000000005,0.24714136,0.27377295,0.18322548,-1.38,-12.3,-55.26
1554879858143,-8.360553,0.789488,4.433463,0.27696875,0.23542345,0.12357068,-1.2,-12.9,-55.14
1554879858164,-8.37013,0.97144735,4.2610803,0.20559604,0.18109496,0.07669904,-1.08,-13.38,-55.02
1554879858184,-8.303091,0.95229375,4.419098,0.07030745599999999,0.16405073,0.025566347000000003,-0.96,-13.8,-54.9
1554879858204,-8.532935,0.7751228,4.6154222,-0.07989483,0.16724652,-0.025566347000000003,-0.84,-14.1,-54.72
1554879858224,-8.647857,0.6123171,4.553173,-0.24714136,0.17363810000000002,-0.043675844000000005,-0.72,-14.28,-54.66
1554879858244,-8.623915,0.5979519,4.409521,-0.32277513,0.14594123,-0.047936900000000005,-0.66,-14.4,-54.54
1554879858264,-8.561666,0.41599256,4.4526167,-0.28229508,0.101200126,-0.05752428,-0.54,-14.46,-54.48
1554879858284,-8.63828,0.3681085,4.6058455,-0.2428803,0.084155895,-0.036218993,-0.48,-14.46,-54.42
1554879858303,-8.389283,0.11911154,4.672883000000001,-0.15552860000000002,0.08735169,-0.0053263223,-0.3,-14.46,-54.42
1554879858326,-8.331821000000001,0.19572599,4.5340195,-0.051132694000000006,0.09587380000000001,0.015978966,-0.18,-14.4,-54.42
1554879858344,-8.331821000000001,0.18136078,4.32333,0.027696876000000002,0.096939065,0.035153727999999995,0.0,-14.34,-54.48
1554879858364,-8.264783999999999,0.40641573,4.3185415,0.080960095,0.08522116,0.041545313,0.06,-14.28,-54.48
1554879858384,-8.307879,0.39683893,4.308964700000001,0.11504856,0.06498113,0.014913702,0.12,-14.22,-54.54
1554879858404,-8.48984,0.55964464,4.280234,0.098004326,0.07563378,-0.034088463,0.18,-14.16,-54.54
1554879858424,-8.599973,0.49739540000000004,4.3903675,0.053263225,0.05965481,-0.09161274,0.18,-14.1,-54.6
1554879858444,-8.63828,0.75596917,4.2658687,-0.023435817999999997,0.054328485999999995,-0.12037488,0.18,-14.1,-54.6
1554879858463,-8.825027,0.7032967,4.2850223,-0.035153727999999995,0.039414786,-0.10972224,0.06,-14.1,-54.54
1554879858483,-8.820239,0.3633201,4.1557355000000005,-0.020240024,0.008522116,-0.05006743,0.06,-14.16,-54.48
1554879858503,-8.667010000000001,0.3681085,4.3999443,-0.024501082,0.008522116,-0.01917476,0.06,-14.22,-54.42
1554879858524,-8.39886,0.29149407,4.313753,-0.023435817999999997,0.017044231,-0.029827405,0.12,-14.22,-54.3
1554879858544,-8.556877,0.17657238,4.2898107,-0.06711166,0.041545313,-0.024501082,0.24,-14.1,-54.24
1554879858564,-8.6095495,0.19572599,4.0599675,-0.06924219,0.04261058,0.0010652645,0.36,-13.98,-54.18
1554879858584,-8.470686,0.26755205,4.4143095,-0.00958738,0.024501082,0.0053263223,0.48,-13.86,-54.12
1554879858604,-8.37013,0.31543607,4.256292,0.08948222,0.01917476,-0.004261058,0.6,-13.74,-54.06
1554879858624,-8.542512,0.40641573,4.3568487000000005,0.11717909,0.022370555,-0.014913702,0.72,-13.62,-54.06
1554879858644,-8.475474,0.45908818,4.174889,0.03834952,0.020240024,-0.02130529,0.84,-13.62,-54.06
1554879858664,-8.619126,0.55485624,4.170100700000001,-0.07456851,0.013848438000000001,-0.024501082,0.9,-13.5,-54.06
1554879858684,-8.7532015,0.43035775,4.2898107,-0.10865697,0.004261058,-0.02130529,0.9,-13.5,-54.06
1554879858704,-8.628703,0.3298013,4.1461587,-0.101200126,-0.0053263223,-0.004261058,0.96,-13.62,-54.06
1554879858724,-8.470686,0.27234045,4.280234,-0.10226539,0.0053263223,0.01917476,0.9,-13.68,-54.06
1554879858744,-8.456321,0.21966799999999997,4.1078515,-0.08522116,0.004261058,0.010652645,0.9,-13.68,-54.06
1554879858764,-8.470686,0.27712885,4.2850223,-0.068176925,0.007456851,-0.0053263223,0.9,-13.68,-54.06
1554879858784,-8.523358,0.32501290000000005,4.1796775,-0.025566347000000003,0.0031957934000000003,-0.012783173500000002,0.84,-13.62,-54.06
1554879858804,-8.528147,0.3681085,4.208408,-0.01917476,-0.004261058,-0.026631612000000002,0.84,-13.44,-54.06
1554879858824,-8.619126,0.3585317,4.1557355000000005,-0.07350325,-0.0053263223,-0.039414786,0.84,-13.26,-54.06
1554879858843,-8.561666,0.25797522,4.1222167,-0.12783173,-0.013848438000000001,-0.034088463,0.78,-13.14,-54.12
1554879858863,-8.590396,0.41599256,4.194042700000001,-0.19920446,-0.014913702,-0.040480047000000005,0.78,-13.02,-54.12
1554879858883,-8.695741,0.30585927,4.3329067000000006,-0.221575,-0.022370555,-0.05752428,0.78,-12.9,-54.12
1554879858903,-8.805874000000001,0.15741876,4.270657,-0.2609898,-0.027696876000000002,-0.037284255,0.84,-12.84,-54.18
1554879858924,-8.75799,-0.010175358,4.4238862999999995,-0.27377295,-0.02876214,0.0063915867,0.84,-12.72,-54.18
1554879858944,-8.542512,-0.024540568,4.4717703,-0.17896444,-0.029827405,0.012783173500000002,0.84,-12.72,-54.18
1554879858964,-8.465898,0.09516951400000001,4.3903675,-0.03089267,-0.033023197000000004,-0.00958738,0.84,-12.66,-54.18
