TimeStamp,Ax,Ay,Az,Gx,Gy,Gz,Mx,My,Mz
1554107739167,-7.6135616,4.4765587,3.7008373999999997,-0.0010652645,0.13315806,-0.07137272,-15.0,-16.74,-45.36
1554107739186,-7.8050976,4.347272,3.6098576,-0.05752428,0.11717909,-0.11504856,-14.94,-16.62,-45.36
1554107739206,-8.1163435,4.1892543,3.5523968,-0.080960095,0.10865697,-0.07350325,-14.82,-16.32,-45.36
1554107739227,-8.006210000000001,3.9881415000000002,3.5284547999999996,-0.10972224,0.083090626,-0.043675844000000005,-14.7,-16.08,-45.36
1554107739247,-7.915230800000001,4.103063,3.8588544999999996,-0.11611383,0.096939065,-0.06711166,-14.58,-15.9,-45.36
1554107739267,-7.881711999999999,4.1892543,3.518878,-0.10652645,0.06391586,-0.111852765,-14.46,-15.9,-45.36
1554107739287,-7.7667904000000005,4.447828299999999,3.4566288,-0.13635385,0.068176925,-0.09054748,-14.46,-15.96,-45.3
1554107739306,-7.771578999999999,4.0982747,3.7152026,-0.2545982,0.08735169,-0.05006743,-14.52,-16.02,-45.3
1554107739327,-7.824250999999999,3.8732197,3.6721067,-0.33129725,0.068176925,-0.07137272,-14.52,-16.08,-45.18
1554107739347,-7.8673470000000005,3.8540661,3.566762,-0.33875409999999995,0.022370555,-0.08841695,-14.52,-16.08,-45.12
1554107739366,-7.987056699999999,3.9306807999999998,3.6290112,-0.28442562,0.018109497,-0.07030745599999999,-14.46,-15.96,-45.0
1554107739387,-8.250419,4.136582,4.103063,-0.23116238,0.026631612000000002,-0.07989483,-14.46,-15.78,-44.94
1554107739406,-7.9008656,3.9163153,3.8061821000000005,-0.15339808,-0.004261058,-0.08628642,-14.4,-15.6,-44.88
1554107739427,-7.920019,3.9115269999999995,3.9929300000000003,-0.05752428,0.007456851,-0.07456851,-14.34,-15.42,-44.82
1554107739446,-7.8003089999999995,3.9354692000000004,3.7056258,0.004261058,-0.014913702,-0.053263225,-14.28,-15.18,-44.76
1554107739467,-7.809886,3.9977183,3.6433763999999997,-0.026631612000000002,0.010652645,-0.05539375,-14.22,-15.0,-44.76
1554107739487,-7.785944000000001,4.11264,3.6768951000000003,-0.15339808,0.018109497,-0.12250541,-14.16,-14.82,-44.88
1554107739507,-7.881711999999999,4.0264487,3.8827964999999995,-0.24820662,0.0053263223,-0.12144015,-14.1,-14.64,-44.94
1554107739526,-7.7811556,3.7487214,3.4997244,-0.165116,-0.07030745599999999,-0.06178534,-14.04,-14.46,-45.0
1554107739547,-7.8050976,3.6194344,3.9258924,-0.112918034,-0.027696876000000002,-0.05006743,-14.04,-14.34,-45.12
1554107739566,-7.987056699999999,3.6194344,4.064756,-0.09374327,-0.05752428,-0.09587380000000001,-14.16,-14.22,-45.18
1554107739590,-7.690175999999999,3.8444892999999998,3.8492777,-0.05006743,-0.06924219,-0.06711166,-14.34,-13.86,-45.3
1554107739606,-7.632714999999999,3.8205473,3.9354692000000004,-0.056459017,-0.06391586,-0.06285059999999999,-14.4,-13.74,-45.3
1554107739626,-7.6470804,3.7726634,3.7774517999999997,-0.099069595,-0.06178534,-0.10013486,-14.58,-13.5,-45.36
1554107739646,-7.608772999999999,3.7774517999999997,3.7487214,-0.07882957,-0.08735169,-0.17576863,-14.7,-13.26,-45.36
1554107739666,-7.5608889999999995,3.9211037,3.7295678,-0.029827405,-0.12676647,-0.23861924,-14.82,-13.02,-45.36
1554107739688,-7.5800424,4.0695443,3.7870286,-0.029827405,-0.1470065,-0.31105720000000003,-14.94,-12.84,-45.36
1554107739708,-7.627927000000001,3.8540661,3.8492777,-0.054328485999999995,-0.17150758,-0.36432046,-15.0,-12.66,-45.36
1554107739727,-7.666233999999999,3.6433763999999997,3.6577415,-0.10546118,-0.20240025,-0.38882150000000004,-14.94,-12.6,-45.36
1554107739747,-7.5800424,3.5284547999999996,3.7199910000000003,-0.16085494,-0.23542345,-0.45060685,-14.94,-12.54,-45.36
1554107739767,-7.4699089999999995,3.447052,3.7870286,-0.21624869,-0.2972088,-0.515588,-14.88,-12.54,-45.36
1554107739787,-7.5273699999999995,3.2315737999999996,3.8827964999999995,-0.2876214,-0.37284255,-0.55074173,-14.88,-12.54,-45.36
1554107739807,-7.465121000000001,2.9538465,3.9689879999999995,-0.37390783,-0.47297743,-0.56672066,-14.88,-12.42,-45.3
1554107739827,-7.2065472999999995,2.6809072,3.9067385000000003,-0.386691,-0.52624065,-0.5773733,-14.94,-12.3,-45.3
1554107739847,-7.0581064,2.3026235,4.1078515,-0.36218992,-0.4878911,-0.6135923000000001,-15.0,-12.12,-45.3
1554107739866,-7.177817,2.417545,4.347272,-0.31638354,-0.45060685,-0.7137272,-15.06,-11.76,-45.3
1554107739886,-7.407660000000001,2.4654293,4.5483847,-0.31638354,-0.45699844,-0.78296936,-15.18,-11.28,-45.3
1554107739907,-7.517792999999999,2.2882583,4.5148660000000005,-0.37071204,-0.5070659000000001,-0.80747044,-15.36,-10.62,-45.3
1554107739927,-7.4124484,2.1398177000000005,4.56275,-0.4101268,-0.5368933000000001,-0.8319715,-15.42,-10.38,-45.36
1554107739946,-7.374141000000001,2.0201077,4.634576,-0.4314321,-0.5411543000000001,-0.88203895,-15.54,-9.96,-45.36
1554107739966,-7.445967,1.9387047999999998,5.175665400000001,-0.44847634,-0.5539375,-0.9139969000000001,-15.72,-9.36,-45.48
1554107739987,-7.441178999999999,1.7663223000000001,5.122993,-0.5134575,-0.62104917,-0.92038846,-15.96,-8.94,-45.48
1554107740007,-7.4842744,1.7806876,5.0559554,-0.5699165,-0.69987875,-0.9416938,-16.2,-8.64,-45.54
1554107740027,-7.369353,1.9003976999999999,5.0463786,-0.5795039000000001,-0.7254451,-0.96406436,-16.5,-8.4,-45.6
1554107740049,-7.3885064,1.6897078999999997,5.290587400000001,-0.58056915,-0.7105314,-0.9225190000000001,-16.86,-8.04,-45.66
1554107740068,-7.268796400000001,1.1294646000000002,5.8747725,-0.66152924,-0.70200926,-0.9108011,-17.22,-7.62,-45.78
1554107740088,-7.1826053,0.52133745,6.0040593,-0.79681784,-0.6828345,-1.0482203,-17.64,-7.14,-45.84
1554107740107,-7.3406224,0.5117606,6.0758852999999995,-0.9267801,-0.6018744,-1.2122709999999999,-18.18,-6.54,-45.84
1554107740127,-7.5321584,0.57400984,6.291363700000001,-1.0024139,-0.48469532,-1.2399678,-18.72,-5.88,-45.9
1554107740147,-7.551311999999999,0.10474633,6.473323000000001,-1.0727214,-0.39414784,-1.1547466999999998,-19.14,-5.16,-45.9
1554107740167,-7.4842744,-0.6374562,6.612186400000001,-1.0865698000000001,-0.34621096,-1.1153319,-19.62,-4.38,-45.9
1554107740186,-7.422025,-0.9295488000000001,6.889914,-0.99069595,-0.30999196,-1.1547466999999998,-20.1,-3.54,-45.9
1554107740206,-7.589619,-1.049259,7.0287776,-0.74461985,-0.27590349999999997,-1.1749867,-20.7,-2.7,-45.84
1554107740227,-7.6518690000000005,-1.4562732,7.2729864,-0.46232477,-0.23755397,-1.1036139999999999,-21.24,-1.86,-45.78
1554107740247,-7.690175999999999,-1.8489223000000001,7.047931,-0.19387813,-0.1949434,-1.031176,-21.78,-1.08,-45.66
1554107740266,-7.7572136,-1.8249803,6.880337,-0.04580637,-0.16831179,-0.9981528000000001,-22.26,-0.36,-45.54
1554107740287,-7.690175999999999,-1.9446903000000002,6.3823433,-0.17150758,-0.113983296,-0.9044095,-22.68,0.24,-45.42
1554107740306,-7.642291999999999,-2.236783,6.071097,-0.42077947,-0.049002163,-0.8213189000000001,-23.1,0.78,-45.36
1554107740327,-7.5273699999999995,-2.4953567999999997,6.1094040000000005,-0.9470200999999999,0.14913702,-0.71159667,-23.46,1.14,-45.36
1554107740347,-7.4603324,-2.8257565,6.324882499999999,-1.2442288000000001,0.25140239999999997,-0.660464,-23.7,1.38,-45.3
1554107740367,-7.489063000000001,-3.1130607000000006,6.353613,-1.3805827,0.29827404,-0.56885123,-23.82,1.5,-45.24
1554107740387,-7.445967,-3.639785,6.5738792,-1.2836437,0.29188246,-0.48363006,-23.88,1.74,-45.12
1554107740406,-7.3406224,-3.8935703999999998,6.583456,-0.9779128,0.22477080000000002,-0.4165184,-23.88,2.1,-44.94
1554107740426,-7.2304892999999995,-3.8313212,6.3584013,-0.69029135,0.15978967,-0.36112466,-23.82,2.88,-44.82
1554107740447,-7.101202000000001,-3.7259765,5.999271,-0.3206446,0.080960095,-0.294013,-23.82,3.78,-44.64
1554107740467,-7.091625,-3.888782,5.7646394,-0.037284255,0.02876214,-0.23329292,-23.76,4.74,-44.46
1554107740487,-6.9958572,-3.6254199000000003,5.5826797,0.13954964,-0.02876214,-0.20240025,-23.7,5.7,-44.28
1554107740508,-6.95755,-3.5392287000000002,5.5539494000000005,0.21837921,-0.08841695,-0.18961707,-23.64,6.66,-44.04
1554107740526,-6.943185000000001,-3.4147300000000005,5.185242,0.24074976,-0.12250541,-0.16937704,-23.64,7.56,-43.86
1554107740547,-6.8330517,-3.256713,5.0559554,0.13741912,-0.13209279,-0.14913702,-23.58,8.34,-43.68
1554107740567,-6.7277070000000005,-3.2615013,4.8500543,-0.13422333,-0.10333065,-0.16298546,-23.58,8.94,-43.62
1554107740586,-6.780379300000001,-3.2423477000000003,4.9506106,-0.4708469,-0.049002163,-0.18429075,-23.58,9.06,-43.56
1554107740606,-6.794744500000001,-3.3764230000000004,5.242703,-0.74035877,0.011717908999999999,-0.1768339,-23.64,9.0,-43.5
1554107740627,-6.631939,-3.5488055,5.6976013,-0.8341021000000001,0.035153727999999995,-0.18002969,-23.7,8.88,-43.44
1554107740647,-6.6750345,-3.6733038000000002,5.7598505,-0.75101143,0.03195793,-0.18642128,-23.82,8.82,-43.44
1554107740667,-6.6415157,-3.8313212,5.846042,-0.5550028,0.024501082,-0.21198763,-23.88,8.82,-43.38
1554107740686,-6.7229185,-3.9175123999999997,5.7454852999999995,-0.3206446,0.017044231,-0.24501082,-24.0,9.06,-43.38
1554107740706,-6.837839999999999,-3.946243,5.7790045999999995,-0.12570119999999999,0.011717908999999999,-0.25140239999999997,-24.06,9.36,-43.38
1554107740727,-6.871359,-4.018069000000001,5.7023897,0.008522116,0.0063915867,-0.22903186,-24.18,9.9,-43.26
1554107740746,-6.847417,-3.9845502,5.7454852999999995,0.02876214,0.0,-0.23222765,-24.18,10.14,-43.2
1554107740767,-6.9958572,-3.9031472000000003,5.453393,-0.02876214,-0.004261058,-0.23861924,-24.18,10.86,-43.08
1554107740791,-6.823475,-4.022857,5.6497173,-0.15446335,0.024501082,-0.21731395,-24.18,11.28,-42.96
1554107740806,-6.837839999999999,-4.094683600000001,5.6736593,-0.19920446,0.05965481,-0.20879184,-24.18,11.7,-42.84
1554107740827,-6.9671270000000005,-4.0372224,5.644929,-0.23542345,0.083090626,-0.20559604,-24.18,12.0,-42.78
1554107740846,-7.043741000000001,-3.9031472000000003,5.668871,-0.25992453,0.08841695,-0.20879184,-24.24,12.12,-42.66
1554107740867,-7.0964136,-3.912724,5.740697,-0.29614353,0.06711166,-0.19281286,-24.3,12.18,-42.6
1554107740887,-6.900089299999999,-4.137779,5.8412538,-0.28336033,0.056459017,-0.19707392,-24.3,12.24,-42.6
1554107740907,-6.799533,-4.1665095999999995,5.812523400000001,-0.20879184,0.05752428,-0.221575,-24.36,12.3,-42.6
1554107740926,-6.703765,-4.2622776,5.7454852999999995,-0.08628642,0.07669904,-0.23222765,-24.36,12.54,-42.6
1554107740946,-6.775591,-4.2622776,5.7790045999999995,0.05219796,0.080960095,-0.21198763,-24.24,12.72,-42.54
1554107740967,-6.7468604999999995,-4.4442368,5.620987,0.1768339,0.07563378,-0.20240025,-24.18,12.96,-42.54
1554107740986,-6.775591,-4.324527,5.620987,0.24607609,0.047936900000000005,-0.20879184,-24.06,13.14,-42.48
1554107741006,-6.766014,-4.401141,5.472546599999999,0.26844665,0.035153727999999995,-0.20879184,-23.88,13.32,-42.42
1554107741027,-6.933608,-4.209605000000001,5.4055089999999995,0.20985709,0.051132694000000006,-0.19813919,-23.82,13.5,-42.3
1554107741047,-7.0102224,-4.1282024,5.587468,0.11717909,0.06924219,-0.18322548,-23.76,13.68,-42.24
1554107741067,-7.029375999999999,-4.300585,5.563526,-0.0063915867,0.07882957,-0.1470065,-23.76,13.8,-42.18
1554107741087,-7.278373200000001,-4.305373,5.300164,-0.17470337,0.07030745599999999,-0.11504856,-23.7,13.62,-42.12
1554107741106,-7.465121000000001,-4.137779,4.979341000000001,-0.45912898,0.101200126,-0.06604639400000001,-23.82,13.5,-42.0
1554107741126,-7.6949644,-4.3388919999999995,5.0942625999999995,-0.8202536,0.15020229,0.0063915867,-23.88,13.38,-41.94
1554107741146,-7.97748,-4.482544,5.027225,-1.1664646,0.18535602,0.09374327,-24.0,13.26,-42.0
1554107741167,-8.322245,-4.702811,4.7782279999999995,-1.6085493999999998,0.16298546,0.19600865,-24.06,13.26,-42.0
1554107741187,-8.51857,-5.037999,4.5196543,-2.0240026,0.10972224,0.2972088,-24.06,13.32,-41.94
1554107741207,-8.585608,-5.507262,4.634576,-2.2977755,0.06391586,0.42290998,-24.0,13.74,-41.76
1554107741226,-8.437167,-6.306926,4.6633059999999995,-2.299906,0.03195793,0.5581986,-24.0,14.82,-41.34
1554107741246,-8.441956,-7.044339999999999,4.9218802,-1.9760654999999998,0.017044231,0.69668293,-23.94,16.26,-40.92
1554107741267,-8.24563,-7.3843164,5.036802,-1.3582121999999999,-0.024501082,0.8330368,-23.88,18.0,-40.44
1554107741287,-8.063671000000001,-7.1592617,5.1996074,-0.6679208000000001,-0.101200126,0.9555421999999999,-23.7,19.74,-39.84
1554107741306,-7.7667904000000005,-6.603807000000001,4.3568487000000005,-0.033023197000000004,-0.17363810000000002,1.0471549,-23.52,21.54,-39.18
1554107741327,-7.398083,-6.139332,4.007295,0.38136467,-0.20772657,1.139833,-23.16,23.34,-38.46
1554107741347,-7.120356,-5.631761,3.3560722000000003,0.531567,-0.18216023,1.2282499,-22.74,25.02,-37.74
1554107741366,-6.8330517,-4.899135,3.0639796,0.45060685,-0.14487597,1.2442288000000001,-22.32,26.4,-37.2
1554107741386,-6.6079965,-4.180875,2.7048495,0.24501082,-0.14274544,1.1622036,-21.9,27.18,-36.9
1554107741407,-6.445191,-3.3955764999999998,2.8149827000000003,0.03089267,-0.19068234,1.0375676,-21.48,27.66,-36.6
1554107741426,-6.253655,-3.117849,2.9059622000000003,-0.09267801,-0.294013,0.91186637,-21.06,27.9,-36.36
1554107741446,-6.0333879999999995,-2.7347770000000002,2.7623102999999998,-0.1107875,-0.39414784,0.79681784,-20.58,28.08,-36.24
1554107741467,-5.765238,-2.8401217,2.6426,-0.09374327,-0.47404268,0.664725,-20.16,28.26,-36.18
1554107741487,-5.473145,-3.0364463,2.5851393,-0.11504856,-0.5209143,0.47191215,-19.86,28.38,-36.18
1554107741507,-5.3486465999999995,-3.0843303,2.9586349,-0.08948222,-0.5273059,0.19707392,-19.56,28.5,-36.24
1554107741526,-5.535394,-2.8401217,3.0496144,0.051132694000000006,-0.5305017,-0.07137272,-19.32,28.62,-36.24
1554107741546,-5.621585400000001,-2.6150667999999997,2.9203273999999997,0.11824436,-0.5422196,-0.22583607,-19.08,28.68,-36.24
1554107741567,-5.544971,-2.6390088,3.1358056,0.05965481,-0.56459016,-0.3323625,-18.84,28.74,-36.24
1554107741587,-5.583278,-2.9311013,3.3704373999999997,0.004261058,-0.5837649,-0.45806372,-18.72,28.74,-36.24
1554107741606,-5.621585400000001,-2.9885623,3.5476084,0.025566347000000003,-0.5944176,-0.58483016,-18.84,28.74,-36.18
1554107741626,-5.813122,-3.0699651,3.5571851999999997,0.035153727999999995,-0.5965481,-0.6668556,-19.02,28.74,-36.18
1554107741646,-6.042965000000001,-2.9406781000000004,3.5811272000000005,-0.04580637,-0.6018744,-0.7488809000000001,-19.5,28.68,-36.18
1554107741667,-6.009446,-2.9981391,3.767875,-0.2790993,-0.64768076,-0.9086706,-20.28,28.5,-36.12
1554107741686,-5.861006,-3.1322143,3.8684312999999997,-0.5273059,-0.70840085,-1.0652645,-20.82,28.38,-36.06
1554107741706,-5.5737014,-3.1800982999999996,3.5571851999999997,-0.7914915,-0.75420725,-1.2282499,-21.36,28.26,-36.06
1554107741727,-5.5258174,-3.6349967000000003,3.2363622000000003,-1.1036139999999999,-0.76592517,-1.3699301000000002,-22.02,28.14,-36.06
1554107741746,-5.5545480000000005,-4.578312400000001,3.5571851999999997,-1.4689997,-0.737163,-1.4924355,-22.68,28.08,-36.0
1554107741767,-5.3725886,-5.48332,4.0264487,-1.8109495999999998,-0.72437984,-1.5893745000000001,-23.58,28.08,-35.94
1554107741787,-5.104438,-6.455366000000001,4.337695,-1.9590213,-0.63915867,-1.6074841,-24.42,28.26,-35.82
1554107741807,-4.927267,-7.647678999999999,4.0216603,-2.0005667000000003,-0.48043427,-1.567004,-25.32,28.44,-35.52
1554107741826,-5.444414599999999,-8.437764999999999,4.1270050000000005,-1.9590213,-0.2908172,-1.5222628999999999,-26.28,28.86,-34.86
1554107741846,-5.7029886,-9.438541,4.529230999999999,-1.9547603,-0.16831179,-1.3720607,-27.36,29.34,-34.14
1554107741867,-5.4922986,-9.979631,4.8787847,-1.9025623,-0.10439592,-1.1813782,-28.5,29.88,-33.3
1554107741887,-5.4970870000000005,-10.300454,5.060744000000001,-1.7853831999999998,-0.06391586,-1.0844392,-29.58,30.54,-32.4
1554107741906,-5.7700260000000005,-10.209475,4.8500543,-1.4764565,0.00958738,-0.9800433000000001,-30.54,31.26,-31.32
1554107741926,-5.8945246,-10.175956,4.6920366,-0.9981528000000001,0.07882957,-0.8149273,-31.32,31.98,-30.18
1554107741947,-5.530606,-10.137649,4.586692,-0.49960902,0.15978967,-0.6125271,-31.98,32.7,-29.04
1554107741966,-5.487509999999999,-9.673173,4.4382515,-0.17044231,0.20240025,-0.46765109999999993,-32.58,33.3,-28.08
1554107741986,-5.401319,-8.950125,4.11264,-0.06285059999999999,0.23009712,-0.38349520000000004,-33.0,33.84,-27.36
1554107742007,-5.616797,-8.581417,4.031237,-0.096939065,0.25992453,-0.27057716,-33.36,34.26,-26.7
1554107742027,-5.396530599999999,-8.370728,3.9833531000000004,-0.12996227,0.26205507,-0.15552860000000002,-33.66,34.56,-26.16
1554107742046,-5.2816089999999996,-8.327632000000001,4.0025067000000005,-0.15339808,0.26525086,-0.04474111,-33.96,34.8,-25.8
1554107742067,-5.257667,-8.365939,4.1557355000000005,-0.15765914,0.25033715,0.015978966,-34.14,34.92,-25.5
1554107742087,-5.267244,-8.456919000000001,4.1078515,-0.05219796,0.21624869,0.02130529,-34.2,34.98,-25.38
1554107742107,-5.2002063,-8.39467,3.8827964999999995,0.12463594,0.19281286,0.049002163,-34.26,34.92,-25.32
1554107742126,-5.185841,-7.992444,3.5715504,0.2876214,0.2034655,0.094808534,-34.32,34.86,-25.26
1554107742146,-5.2002063,-7.8104844,3.3800142,0.3536678,0.21944448,0.13635385,-34.32,34.86,-25.32
1554107742167,-5.185841,-7.872733599999999,3.09271,0.33875409999999995,0.23329292,0.16405073,-34.32,34.8,-25.32
1554107742187,-5.0421886,-8.059482000000001,2.9203273999999997,0.2727077,0.24714136,0.17363810000000002,-34.26,34.74,-25.32
1554107742207,-5.0086699999999995,-8.102577,2.7000610000000003,0.17044231,0.2876214,0.17896444,-34.2,34.68,-25.32
1554107742227,-5.0613421999999995,-8.217499,2.5420437000000002,0.08522116,0.3334278,0.20453078,-34.08,34.62,-25.44
1554107742247,-5.161899,-8.136096,2.5899277,0.03195793,0.39201729999999996,0.26738137,-33.96,34.56,-25.62
1554107742266,-5.209783,-8.222287,2.498948,0.004261058,0.4314321,0.36432046,-33.9,34.5,-25.8
1554107742286,-5.1092260000000005,-8.533533,2.345719,-0.03834952,0.46658584,0.45486793,-33.78,34.44,-25.98
1554107742306,-5.023035,-8.672397,2.3505075,-0.06604639400000001,0.48682585,0.49215218,-33.66,34.38,-26.16
1554107742327,-5.171476,-8.39467,1.9674352,0.00958738,0.46765109999999993,0.49534798,-33.48,34.38,-26.4
1554107742348,-5.3247046,-7.9541364,2.0344729999999998,0.14487597,0.45593318,0.5390238,-33.3,34.5,-26.58
1554107742367,-5.612008599999999,-7.8248496,2.0248961,0.27164245,0.42077947,0.61572284,-33.06,34.62,-26.82
1554107742387,-5.612008599999999,-7.891887,1.8908207,0.33662358,0.34514567,0.67218184,-32.7,34.8,-27.0
1554107742407,-5.588066599999999,-7.729081599999999,2.3265655,0.3291667,0.2876214,0.6625945,-32.16,35.1,-27.0
1554107742427,-5.913678,-7.4274119999999995,2.345719,0.36432046,0.20453078,0.6018744,-31.56,35.34,-27.12
1554107742446,-6.272808599999999,-7.16405,2.6856956000000003,0.4314321,0.10333065,0.567786,-30.96,35.58,-27.18
1554107742466,-6.4739213,-7.1927805,2.4702177000000005,0.49428272,0.043675844000000005,0.5997439,-30.36,35.82,-27.3
1554107742487,-6.272808599999999,-8.231864,2.6378117000000003,0.60507023,0.19387813,0.680704,-29.52,36.12,-27.42
1554107742507,-6.05733,-8.011598,2.9921536,0.9054747999999999,0.31318775,0.58696073,-29.04,36.3,-27.6
1554107742527,-6.5265937,-7.374739599999999,3.3273417999999997,1.2367721,0.3717773,0.3536678,-28.5,36.36,-27.84
1554107742546,-7.015011,-6.8049197,4.11264,1.365669,0.37071204,0.2908172,-28.02,36.3,-28.14
1554107742567,-7.2592196,-6.168062,4.8261123,1.5808525,0.27803403,0.43888897,-27.66,36.18,-28.56
1554107742587,-7.053317999999999,-5.512050599999999,4.4765587,1.861017,0.08522116,0.66579026,-27.24,35.94,-29.16
1554107742606,-6.9383965,-5.2965727,3.8780080999999997,2.0378509,0.00958738,0.8362325999999999,-26.82,35.52,-29.88
1554107742627,-6.804321300000001,-4.956596,3.767875,2.0165455000000003,0.02876214,0.9353021999999999,-26.34,34.8,-30.72
1554107742646,-6.646304,-4.7602715,3.9258924,1.8706043999999997,0.08628642,0.9438243000000001,-26.16,34.38,-31.14
1554107742666,-6.766014,-4.353257,4.3807906999999995,1.4988271,0.14168017,0.8341021000000001,-25.5,32.88,-32.58
1554107742687,-6.804321300000001,-4.152144399999999,4.696825,1.2175972,0.14168017,0.72970617,-25.14,31.68,-33.6
1554107742707,-6.7133417,-3.7882257000000004,4.706402,1.1547466999999998,0.10439592,0.64768076,-24.84,30.42,-34.5
1554107742727,-6.5744777,-3.5488055,4.553173,1.1313108,0.08735169,0.6114618,-24.54,29.28,-35.4
1554107742746,-6.7133417,-3.127426,4.5340195,1.0588728,0.113983296,0.58909124,-24.24,28.08,-36.12
1554107742766,-6.7277070000000005,-2.9741971,4.706402,0.98430437,0.12037488,0.5432849000000001,-23.88,26.88,-36.72
1554107742786,-6.885724000000001,-2.9933507,4.907515,0.9054747999999999,0.094808534,0.4878911,-23.34,25.86,-37.2
1554107742807,-6.885724000000001,-3.7020345,4.9841294000000005,0.8564726,0.07350325,0.47830373,-22.92,24.84,-37.62
1554107742827,-6.780379300000001,-3.888782,4.735132,0.8511463,0.06285059999999999,0.48149952,-22.44,23.88,-37.98
1554107742846,-6.8426285,-3.6924577000000003,4.56275,0.76912093,0.07137272,0.38349520000000004,-22.02,22.98,-38.34
1554107742867,-7.177817,-3.3907879999999997,4.6776714,0.62744075,0.1438107,0.34194988,-21.6,22.08,-38.76
1554107742886,-7.522581599999999,-3.4099417,5.003283000000001,0.52411014,0.19707392,0.43036684,-21.18,21.12,-39.24
1554107742907,-7.704541000000001,-3.912724,4.7159786,0.52837116,0.21518342,0.56885123,-20.88,20.28,-39.6
1554107742927,-7.374141000000001,-4.204817,4.280234,0.5486112,0.26418558,0.6242449999999999,-20.64,19.56,-39.96
1554107742947,-7.393294999999999,-3.7403417,4.538808,0.5400891,0.34514567,0.50600064,-20.46,19.02,-40.32
1554107742967,-7.795521000000001,-3.2040405,5.099051,0.6348976,0.38882150000000004,0.40373522,-20.28,18.48,-40.62
1554107742986,-7.7907324000000004,-2.9837740000000004,5.257068,0.8319715,0.46552056,0.50173956,-19.98,18.0,-40.92
1554107743006,-7.6949644,-3.0172927000000005,5.0846860000000005,1.1142666,0.5123922000000001,0.62104917,-19.62,17.4,-41.1
1554107743027,-7.9248075,-2.4187422,4.5962687,1.3496901000000001,0.5613944000000001,0.63702816,-19.32,16.92,-41.16
1554107743047,-8.202535000000001,-1.6238673000000001,4.577115,1.442368,0.57311225,0.6221144000000001,-18.96,16.44,-41.28
1554107743067,-8.374918,-1.1354501000000001,4.601057,1.4210628,0.49960902,0.6540724,-18.6,15.78,-41.52
1554107743087,-8.537724,-0.8146270999999999,4.56275,1.381648,0.36751625,0.71585774,-18.24,14.88,-41.82
1554107743106,-8.350976,-0.42197806,3.9881415000000002,1.3166668,0.25140239999999997,0.773382,-17.88,13.98,-42.18
1554107743128,-8.231264999999999,-0.12988544,4.2850223,1.2282499,0.25672874,0.77125144,-17.52,12.9,-42.48
1554107743148,-8.298303,0.42556936,4.5962687,1.1270498,0.29614353,0.6924219,-17.1,11.7,-42.84
1554107743167,-8.532935,0.88046765,4.744708999999999,0.98750013,0.3057309,0.60720074,-16.68,10.5,-43.2
1554107743187,-8.690952000000001,1.1246762,5.0463786,0.8298409999999999,0.26738137,0.57098174,-16.26,9.0,-43.5
1554107743207,-8.360553,0.97144735,4.4382515,0.73822826,0.18855181,0.567786,-15.9,7.5,-43.74
1554107743227,-8.135497,1.2539631000000002,3.8684312999999997,0.6317018,0.17044231,0.5390238,-15.6,5.94,-43.92
1554107743246,-8.0684595,1.5269021,3.7343562000000006,0.5400891,0.23009712,0.4282363,-15.24,4.62,-44.04
1554107743268,-8.125919999999999,1.6753427,3.7774517999999997,0.44208476,0.30679616,0.350472,-14.76,2.76,-44.16
1554107743287,-8.231264999999999,1.6370354,4.0934862999999995,0.3536678,0.30786142,0.31105720000000003,-14.64,2.28,-44.16
1554107743307,-8.365341,1.5077485000000002,3.9785647000000006,0.24501082,0.24074976,0.23968449999999997,-14.52,1.32,-44.28
1554107743326,-8.456321,1.3305776000000002,3.7966053,0.12357068,0.111852765,0.13102753,-14.46,0.54,-44.34
1554107743346,-8.422802,1.0336965,3.7870286,0.06391586,0.06604639400000001,0.08522116,-14.34,-0.18,-44.34
1554107743367,-8.719683,1.2108675,3.7822402000000004,0.07563378,0.047936900000000005,0.06924219,-14.16,-0.9,-44.4
1554107743386,-8.767567,0.717662,4.0743327,0.060720075,0.026631612000000002,0.12463594,-14.04,-1.26,-44.4
1554107743406,-8.508992999999998,0.86131406,4.1270050000000005,0.054328485999999995,0.002130529,0.18216023,-13.92,-1.62,-44.4
1554107743427,-8.542512,1.110311,4.0360255,0.101200126,0.040480047000000005,0.14274544,-13.8,-1.92,-44.4
1554107743446,-8.48984,1.0576386,4.170100700000001,0.12676647,0.13102753,0.14168017,-13.68,-2.22,-44.34
1554107743467,-8.513782,1.1869254999999999,4.136582,0.12357068,0.18748654,0.128897,-13.56,-2.46,-44.34
1554107743487,-8.595184,1.3688848,4.0599675,0.10546118,0.16724652,0.060720075,-13.5,-2.52,-44.4
1554107743507,-8.686164,1.4502877,4.117428299999999,0.07989483,0.11717909,0.02130529,-13.44,-2.58,-44.4
1554107743527,-8.671799,1.3880384,3.8253357000000006,0.034088463,0.096939065,0.034088463,-13.44,-2.64,-44.46
1554107743546,-8.51857,1.0336965,4.0120835,0.004261058,0.11717909,0.06604639400000001,-13.38,-2.76,-44.46
1554107743566,-8.801085,0.97144735,3.9258924,0.11930962,0.096939065,0.06604639400000001,-13.26,-2.82,-44.52
1554107743587,-8.576031,1.2443863000000002,4.0503907,0.3334278,0.07456851,0.060720075,-13.2,-2.88,-44.52
1554107743608,-8.590396,1.632247,3.9306807999999998,0.46658584,0.053263225,0.06498113,-13.08,-3.0,-44.58
1554107743627,-8.485051,1.6753427,3.8780080999999997,0.4825648,0.04261058,0.084155895,-13.02,-3.06,-44.58
1554107743646,-8.446744,1.8237831999999998,3.8349125,0.4048005,0.01917476,0.09267801,-12.9,-3.18,-44.64
1554107743667,-8.480263,1.6849195,3.3033997999999998,0.23755397,-0.004261058,0.026631612000000002,-12.72,-3.24,-44.64
1554107743687,-8.499416,1.7232267,3.3512837999999996,0.13741912,-0.0031957934000000003,-0.004261058,-12.66,-3.36,-44.64
1554107743706,-8.7053175,1.8429368000000002,3.7726634,-0.10972224,-0.023435817999999997,-0.033023197000000004,-12.42,-3.72,-44.7
1554107743726,-8.734048,1.7998412,3.8349125,-0.13635385,-0.015978966,0.0063915867,-12.3,-4.08,-44.7
1554107743747,-8.695741,1.5364790000000002,3.887585,-0.094808534,-0.020240024,0.014913702,-12.18,-4.38,-44.7
1554107743766,-8.834603999999999,1.3928268,4.0503907,-0.018109497,-0.00958738,-0.002130529,-12.12,-4.62,-44.76
1554107743786,-8.90643,1.4215573000000001,4.088698,0.10226539,0.0010652645,-0.02130529,-12.06,-4.92,-44.76
1554107743807,-8.643068,1.632247,4.016872,0.18535602,0.012783173500000002,-0.012783173500000002,-12.06,-5.22,-44.76
1554107743827,-8.595184,1.6897078999999997,4.1222167,0.22370553,0.01917476,0.002130529,-12.18,-5.52,-44.76
1554107743846,-8.710106,1.7806876,3.9689879999999995,0.19920446,-0.020240024,0.014913702,-12.24,-5.64,-44.7
1554107743867,-8.499416,1.7423803,3.5811272000000005,0.14594123,-0.017044231,0.03834952,-12.3,-5.64,-44.7
1554107743887,-8.451532,1.881244,3.6673183,0.10546118,0.022370555,0.015978966,-12.42,-5.58,-44.7
1554107743907,-8.719683,1.7806876,3.494936,0.09587380000000001,0.0010652645,0.00958738,-12.48,-5.58,-44.64
1554107743927,-8.623915,1.6274586000000002,3.5954924,0.06711166,0.010652645,0.022370555,-12.54,-5.64,-44.52
1554107743947,-8.839393,2.0296845,3.7343562000000006,-0.026631612000000002,0.0053263223,-0.047936900000000005,-12.6,-5.64,-44.4
1554107743966,-8.734048,1.8333599999999999,3.7582982000000005,-0.10652645,0.034088463,-0.00958738,-12.6,-5.64,-44.34
1554107743987,-8.820239,1.9482816000000003,4.0934862999999995,-0.13528858,0.056459017,0.056459017,-12.6,-5.64,-44.28
1554107744007,-8.580819,1.5556326,3.7343562000000006,-0.18109496,0.023435817999999997,0.022370555,-12.6,-5.7,-44.22
1554107744027,-8.7532015,1.4024036,3.8253357000000006,-0.20453078,0.053263225,-0.0031957934000000003,-12.6,-5.7,-44.16
1554107744046,-8.192958,1.7854759999999998,4.2419267,-0.21198763,0.053263225,-0.05539375,-12.54,-5.76,-44.1
1554107744066,-8.422802,1.8381484000000001,3.3943794,-0.018109497,-0.07776430000000001,-0.09267801,-12.42,-5.76,-44.1
1554107744087,-8.446744,2.417545,3.3560722000000003,0.10546118,-0.06498113,-0.20559604,-12.3,-5.7,-44.16
1554107744107,-8.652645,1.8620903000000002,3.6673183,0.014913702,-0.029827405,-0.12676647,-12.18,-5.64,-44.16
1554107744127,-8.413225,1.3449427999999999,3.6242227999999996,-0.12463594,-0.06711166,0.011717908999999999,-12.12,-5.58,-44.22
1554107744146,-8.0924015,1.0576386,3.8684312999999997,-0.26738137,-0.09587380000000001,-0.12037488,-12.06,-5.58,-44.28
1554107744167,-8.307879,1.6083049999999999,3.8253357000000006,-0.36432046,-0.1107875,-0.26738137,-12.0,-5.46,-44.34
1554107744187,-8.374918,1.7758990000000001,3.8492777,-0.34194988,-0.12463594,-0.25885928,-12.0,-5.4,-44.4
1554107744207,-8.178593,1.4598645000000001,3.7870286,-0.30892670000000005,-0.12463594,-0.27377295,-12.12,-5.28,-44.4
1554107744227,-8.183380999999999,1.2252326999999998,3.7870286,-0.2876214,-0.11824436,-0.36432046,-12.24,-5.16,-44.46
1554107744246,-8.030152000000001,1.0815806000000001,3.9785647000000006,-0.2727077,-0.13635385,-0.4825648,-12.36,-5.04,-44.52
1554107744266,-8.058883,1.3928268,4.103063,-0.26738137,-0.18322548,-0.59122175,-12.42,-4.8,-44.58
1554107744287,-8.101977999999999,1.4502877,3.9115269999999995,-0.30360037,-0.24607609,-0.63702816,-12.48,-4.62,-44.58
1554107744306,-8.1402855,1.311424,3.887585,-0.3653857,-0.27590349999999997,-0.62104917,-12.6,-4.38,-44.64
1554107744327,-7.8673470000000005,1.110311,3.9689879999999995,-0.43675843,-0.3057309,-0.6540724,-12.66,-3.96,-44.64
1554107744346,-7.675811,0.7320272,4.007295,-0.5049353,-0.36645097,-0.75420725,-12.78,-3.54,-44.64
1554107744367,-7.603985000000001,0.6889314999999999,3.6721067,-0.55287224,-0.43782368,-0.85753787,-12.84,-3.12,-44.64
1554107744387,-7.6375036,0.52133745,3.7726634,-0.59122175,-0.47723848,-0.9310411,-12.96,-2.7,-44.64
1554107744406,-7.4699089999999995,0.3633201,3.9737763,-0.63702816,-0.54648066,-1.0034790999999998,-13.08,-2.22,-44.64
1554107744426,-7.4124484,-0.010175358,4.088698,-0.72437984,-0.62317973,-1.1142666,-13.26,-1.56,-44.64
1554107744447,-7.134721300000001,-0.18255788,4.174889,-0.8127968000000001,-0.7307714,-1.2548815,-13.56,-0.9,-44.64
1554107744467,-7.062895,-0.43634325,4.419098,-0.8511463,-0.8266452,-1.3571468999999998,-13.98,-0.24,-44.64
1554107744487,-6.837839999999999,-0.8194155000000001,4.481347,-0.84581995,-0.92784536,-1.4476944,-14.52,0.3,-44.64
1554107744511,-6.7851677,-1.3988123,4.4765587,-0.9054747999999999,-0.9267801,-1.526524,-15.06,0.84,-44.64
1554107744526,-6.588842999999999,-1.834557,4.4382515,-1.0247844000000002,-0.9012136999999999,-1.635181,-15.72,1.5,-44.58
1554107744546,-6.517017,-2.4762032000000005,4.586692,-1.2080098,-0.89375687,-1.7864485,-16.32,2.28,-44.52
1554107744567,-6.564901,-3.1657330000000004,4.696825,-1.4881744,-0.9129315999999998,-1.9366508000000002,-16.98,3.24,-44.46
1554107744586,-6.497863300000001,-3.7882257000000004,4.7159786,-1.7118799999999998,-0.9289106,-1.9441077000000002,-17.76,4.32,-44.4
1554107744607,-6.354211299999999,-4.64535,4.89315,-1.9025623,-0.9171927,-1.9046929,-18.6,5.22,-44.34
1554107744627,-6.05733,-5.4593782,5.003283000000001,-2.0570256999999996,-0.89588743,-1.8844528000000003,-19.5,6.24,-44.28
1554107744646,-5.942408599999999,-5.7706246,4.960187400000001,-2.130529,-0.85540736,-1.8908445,-20.34,7.32,-44.16
1554107744667,-5.731719,-5.966949,4.706402,-2.139051,-0.7392935,-1.8514296000000001,-21.24,8.52,-43.86
1554107744686,-5.334281400000001,-6.488885,4.7159786,-2.0847225,-0.53263223,-1.7385116000000003,-22.2,9.96,-43.38
1554107744707,-5.295974299999999,-7.015609700000001,5.257068,-2.001632,-0.3749731,-1.6777915,-23.22,11.4,-42.78
1554107744726,-5.1666875,-7.2646065,5.309741000000001,-1.861017,-0.22690132,-1.7044232,-24.3,12.78,-42.12
1554107744747,-5.21936,-7.1879919999999995,5.290587400000001,-1.6895093999999997,-0.18002969,-1.7960359000000001,-25.38,14.04,-41.4
1554107744766,-5.12838,-7.2071457,4.9745526,-1.474326,-0.18109496,-1.7821875,-26.28,15.36,-40.5
1554107744787,-4.8937483,-7.417835,4.5675383,-1.2367721,-0.21518342,-1.6607473000000001,-27.06,16.68,-39.6
1554107744807,-4.6495394999999995,-8.30369,3.8253357000000006,-1.0652645,-0.26205507,-1.5158713,-27.9,17.94,-38.76
1554107744826,-4.323928400000001,-8.825626,3.7104141999999998,-1.0354371,-0.3174488,-1.438107,-28.86,19.14,-38.04
1554107744846,-3.8450879999999996,-8.959702,3.6050692000000004,-1.0929613,-0.40586576,-1.5052186,-29.82,20.04,-37.5
1554107744867,-3.8307227999999998,-8.763377,3.7056258,-1.2218584,-0.45912898,-1.5414376,-30.72,20.64,-37.08
1554107744887,-3.7110126000000005,-8.983644,3.3512837999999996,-1.3219931999999999,-0.45060685,-1.4114753999999998,-31.44,21.12,-36.6
1554107744907,-3.3183637000000004,-9.510367,2.867655,-1.3752563999999998,-0.39201729999999996,-1.2058792999999999,-32.22,21.42,-36.12
1554107744927,-3.1603463,-9.644442999999999,2.9107506,-1.4679343999999999,-0.2972088,-1.1068097,-33.0,21.72,-35.64
1554107744947,-3.1124623,-9.812037,2.5803509,-1.5691346000000002,-0.24074976,-1.1579423999999998,-33.84,21.96,-35.04
1554107744967,-3.217807,-9.941324,2.508525,-1.6160061000000001,-0.20559604,-1.1685951,-34.56,22.2,-34.38
1554107744986,-3.2273839,-10.266935,2.5420437000000002,-1.591505,-0.2066613,-1.067395,-35.22,22.5,-33.72
1554107745007,-3.0454244999999998,-10.511144,2.321777,-1.4839133999999998,-0.23861924,-0.9438243000000001,-35.76,22.8,-33.0
1554107745028,-3.0166939999999998,-10.683527,2.2164322999999997,-1.2751216,-0.1949434,-0.8223841999999999,-36.36,23.04,-32.22
1554107745047,-3.1076740000000003,-10.750565,2.0536265,-0.96299905,-0.16937704,-0.69774824,-36.84,23.34,-31.56
1554107745066,-2.7868507,-10.5207205,2.154183,-0.6530071,-0.113983296,-0.59122175,-37.26,23.7,-30.9
1554107745088,-3.0310593,-10.5207205,2.0871453,-0.34834146,-0.098004326,-0.52624065,-37.68,24.0,-30.36
1554107745107,-2.7389667,-10.214263,2.0775685,-0.058589544,-0.12144015,-0.45060685,-38.1,24.3,-29.88
1554107745127,-2.6623523,-9.98442,1.7758990000000001,0.23435818,-0.16937704,-0.3153183,-38.7,24.66,-29.22
1554107745146,-2.5091232999999997,-9.941324,1.5604209999999998,0.3685815,-0.18109496,-0.16724652,-39.06,24.78,-28.8
1554107745166,-2.2888567,-9.725846,1.5077485000000002,0.36964676,-0.17150758,-0.05219796,-39.42,24.78,-28.5
1554107745187,-2.27928,-9.582193,1.7806876,0.2695119,-0.1587244,0.011717908999999999,-39.78,24.66,-28.26
1554107745207,-2.2984335,-9.725846,1.9578583999999999,0.13954964,-0.128897,0.05219796,-40.08,24.54,-28.02
1554107745227,-2.0829554,-9.639654,1.632247,0.018109497,-0.13422333,0.09587380000000001,-40.44,24.42,-27.84
1554107745246,-1.9871874,-9.759364999999999,1.7615339,-0.11504856,-0.07456851,0.14594123,-40.62,24.3,-27.72
1554107745267,-1.7956512999999998,-10.056246,1.8333599999999999,-0.165116,-0.047936900000000005,0.17896444,-40.8,24.18,-27.6
1554107745287,-1.8148049,-9.725846,1.6753427,-0.07137272,-0.02130529,0.19600865,-40.86,24.06,-27.66
1554107745307,-1.8674773,-9.663596,1.9339164,-0.03089267,0.027696876000000002,0.27057716,-40.86,23.94,-27.66
1554107745326,-1.8435352999999999,-9.639654,1.9818004,0.03195793,0.0063915867,0.35153726,-40.8,23.94,-27.72
1554107745346,-1.8100165000000001,-9.59177,1.881244,0.11717909,-0.002130529,0.36964676,-40.8,24.0,-27.72
1554107745367,-1.661576,-9.381081,1.8908207,0.15020229,0.0,0.3206446,-40.68,24.12,-27.72
1554107745387,-1.7669207999999998,-9.0794115,1.881244,0.15659387,0.025566347000000003,0.27696875,-40.5,24.3,-27.72
1554107745407,-1.9967641999999999,-9.199121,2.0440497,0.18109496,0.058589544,0.28655612,-40.38,24.42,-27.72
1554107745428,-2.1021092,-9.251794,2.0105310000000003,0.19174760000000002,0.084155895,0.3057309,-40.2,24.6,-27.66
1554107745447,-2.1212628,-9.405023,2.0775685,0.21837921,0.15339808,0.28016454,-40.02,24.78,-27.6
1554107745466,-2.2026656000000004,-9.390657000000001,2.0919337,0.26525086,0.18322548,0.24181503,-39.9,24.96,-27.6
1554107745486,-2.4037786,-9.179967999999999,2.2786815,0.28336033,0.20240025,0.20133498,-39.66,25.14,-27.54
1554107745507,-2.5378537,-9.156025999999999,2.1158757,0.28336033,0.18002969,0.23329292,-39.48,25.32,-27.54
1554107745527,-2.6862943,-9.069835000000001,2.0632033,0.19600865,0.16192019,0.27057716,-39.36,25.44,-27.6
1554107745546,-2.705448,-8.868722,2.0871453,0.09587380000000001,0.15339808,0.25992453,-39.3,25.56,-27.66
1554107745566,-2.72939,-8.907029,2.0632033,0.037284255,0.15765914,0.24714136,-39.18,25.68,-27.78
1554107745587,-2.7389667,-8.878299,2.3888147,-0.004261058,0.11717909,0.23755397,-39.06,25.8,-27.96
1554107745607,-2.7341783,-9.055469500000001,2.082357,-0.04580637,0.07456851,0.19707392,-38.88,25.92,-28.08
1554107745627,-2.7246015,-9.088988,2.2068555,-0.056459017,0.058589544,0.13315806,-38.7,26.04,-28.26
1554107745646,-2.6623523,-9.285313,2.0201077,-0.025566347000000003,0.07456851,0.08628642,-38.52,26.16,-28.44
1554107745666,-2.5330652999999996,-9.558251,1.929128,0.024501082,0.12463594,0.083090626,-38.34,26.28,-28.68
1554107745687,-2.327164,-9.788095,1.9434932,0.034088463,0.2034655,0.10652645,-38.16,26.4,-28.8
1554107745707,-2.2840683,-9.596559,1.9865887999999998,0.07882957,0.28229508,0.12144015,-38.04,26.52,-28.92
1554107745727,-2.5761611,-9.261371,1.7375918999999997,0.16192019,0.33662358,0.12250541,-37.8,26.64,-28.98
1554107745747,-2.8682537,-9.208698,1.8477252,0.22370553,0.39627838,0.12463594,-37.62,26.76,-29.04
1554107745766,-2.9257145,-9.270947,1.7711107,0.30146983,0.38029942,0.046871635999999994,-37.5,26.82,-29.1
1554107745786,-2.7389667,-9.266159,1.7328035,0.3057309,0.35260254,-0.07137272,-37.26,26.94,-29.16
1554107745806,-2.6240451,-9.136872,1.8429368000000002,0.31318775,0.31851408,-0.12037488,-37.14,27.0,-29.22
1554107745826,-2.7581203,-9.045893,1.5699978,0.34514567,0.28016454,-0.07882957,-36.96,27.06,-29.4
1554107745846,-3.040636,-8.993219999999999,1.5747862,0.34621096,0.26312032,-0.025566347000000003,-36.78,27.06,-29.52
1554107745866,-3.1411927000000004,-8.930971000000001,1.5029601000000001,0.2790993,0.22370553,-0.026631612000000002,-36.6,27.06,-29.76
1554107745887,-3.2034418999999996,-9.1512375,1.6944963,0.1438107,0.16937704,-0.09267801,-36.36,27.06,-29.94
1554107745906,-3.2513257999999996,-9.165602999999999,1.7567455,0.017044231,0.14274544,-0.20133498,-36.06,27.12,-30.18
1554107745926,-2.9975405,-9.036316000000001,1.5077485000000002,-0.024501082,0.07137272,-0.28975195,-35.7,27.06,-30.42
1554107745947,-3.0166939999999998,-8.820838,1.2683283,-0.10865697,0.08735169,-0.2545982,-35.46,27.0,-30.66
1554107745967,-3.2848446000000004,-8.4664955,1.5412674,-0.12037488,0.083090626,-0.1949434,-35.34,27.0,-30.78
1554107745986,-3.3470940000000002,-8.217499,1.4407108999999998,-0.084155895,0.029827405,-0.08628642,-35.1,26.88,-30.9
1554107746006,-3.3039982000000006,-8.112153999999999,1.6418238,-0.046871635999999994,-0.02876214,0.024501082,-34.98,26.76,-31.02
1554107746028,-3.3566709,-8.025963,1.4742297,-0.017044231,-0.07350325,0.09267801,-34.86,26.52,-31.14
1554107746046,-3.2513257999999996,-8.289325,1.4742297,0.112918034,-0.12144015,0.10972224,-34.92,26.22,-31.26
1554107746067,-3.169923,-8.557475,1.3784616000000003,0.1949434,-0.12250541,0.12357068,-34.98,26.04,-31.32
1554107746086,-2.8634652999999997,-8.926183,1.2731166999999999,0.18322548,-0.112918034,0.083090626,-35.1,25.86,-31.44
1554107746106,-2.801216,-9.294889,1.38325,0.08735169,-0.07989483,-0.004261058,-35.16,25.74,-31.5
1554107746127,-2.767697,-9.337985,1.4407108999999998,-0.0063915867,-0.027696876000000002,-0.05965481,-35.28,25.62,-31.5
1554107746147,-2.825158,-9.424176,1.5795746000000002,-0.024501082,0.007456851,-0.023435817999999997,-35.34,25.56,-31.5
1554107746167,-2.8921957000000003,-9.424176,1.809418,0.024501082,0.029827405,0.07882957,-35.4,25.56,-31.5
1554107746187,-2.8969840000000002,-9.524733,1.8381484000000001,0.06924219,0.022370555,0.14487597,-35.4,25.62,-31.5
1554107746206,-2.9017725,-9.122507,1.8046296000000002,0.12996227,0.00958738,0.16618125,-35.34,25.62,-31.44
1554107746227,-2.9209259999999997,-8.897452000000001,1.7806876,0.19813919,0.013848438000000001,0.13635385,-35.34,25.68,-31.44
1554107746247,-3.083732,-8.974067,1.7950528000000001,0.21944448,0.035153727999999995,0.10333065,-35.34,25.68,-31.44
1554107746267,-2.9640217,-8.729858,1.8189948,0.19813919,0.060720075,0.084155895,-35.28,25.74,-31.38
1554107746286,-3.0071173,-8.614936,1.7711107,0.14168017,0.10013486,0.034088463,-35.22,25.8,-31.38
1554107746306,-3.1268275,-8.658031,1.7471686999999998,0.058589544,0.13315806,-0.008522116,-35.04,25.86,-31.38
1554107746327,-3.2130187,-8.940548,1.8142063999999998,-0.05965481,0.14913702,-0.0063915867,-34.92,25.86,-31.44
1554107746346,-3.3470940000000002,-9.160814,2.0344729999999998,-0.099069595,0.128897,-0.0010652645,-34.74,25.92,-31.5
1554107746366,-3.0358477,-9.32362,1.7950528000000001,-0.07030745599999999,0.082025364,-0.039414786,-34.56,26.04,-31.5
1554107746387,-2.801216,-9.414599,1.8142063999999998,-0.03834952,0.051132694000000006,-0.10439592,-34.38,26.1,-31.56
1554107746406,-2.7006595,-9.179967999999999,1.7040731,0.0010652645,0.06285059999999999,-0.12570119999999999,-34.2,26.16,-31.62
1554107746427,-2.7102362999999996,-8.667608,1.5891514,-0.018109497,0.07137272,-0.07563378,-34.02,26.16,-31.68
1554107746447,-2.8491,-8.485649,1.7375918999999997,-0.049002163,0.05219796,0.0031957934000000003,-33.9,26.22,-31.74
1554107746467,-2.96881,-8.337209,1.8956091,-0.07669904,-0.002130529,0.05965481,-33.96,26.28,-31.8
1554107746486,-3.064578,-8.308478,1.929128,-0.10652645,-0.05752428,0.07350325,-33.96,26.34,-31.8
1554107746506,-3.0933087,-8.500014,2.0919337,-0.1107875,-0.1107875,0.041545313,-34.02,26.34,-31.8
1554107746528,-2.9783869,-8.763377,2.0296845,-0.12037488,-0.1768339,-0.018109497,-34.08,26.34,-31.8
1554107746547,-2.8155810000000003,-9.069835000000001,1.9339164,-0.16405073,-0.20879184,-0.080960095,-34.14,26.4,-31.8
1554107746567,-2.834735,-9.160814,2.0536265,-0.16724652,-0.21837921,-0.12357068,-34.2,26.46,-31.74
1554107746587,-2.7964275,-9.299678,2.2068555,-0.13954964,-0.19600865,-0.10759171,-34.2,26.46,-31.74
1554107746607,-2.9257145,-9.223063,2.2164322999999997,-0.083090626,-0.15339808,-0.05539375,-34.26,26.52,-31.68
1554107746627,-2.9352913,-9.098564999999999,2.3936029999999997,-0.004261058,-0.12996227,-0.03195793,-34.2,26.52,-31.62
1554107746647,-3.0119057000000002,-8.739435,2.178125,0.020240024,-0.10652645,-0.034088463,-34.14,26.64,-31.56
1554107746666,-3.1507695,-8.658031,2.2403743,0.02130529,-0.08948222,-0.05006743,-34.08,26.7,-31.56
1554107746686,-3.098097,-8.634089,2.321777,0.018109497,-0.07243799,-0.07350325,-34.08,26.76,-31.5
1554107746707,-3.2273839,-8.595782,2.3169887000000005,-0.012783173500000002,-0.03089267,-0.10972224,-34.14,26.82,-31.5
1554107746726,-3.2273839,-8.658031,2.1733365,-0.07137272,0.0,-0.16724652,-34.2,26.82,-31.44
1554107746747,-3.2034418999999996,-8.629301,2.2882583,-0.14913702,0.008522116,-0.2130529,-34.26,26.88,-31.38
1554107746766,-3.2465374,-8.739435,2.2403743,-0.17470337,0.024501082,-0.21731395,-34.32,26.94,-31.26
1554107746787,-3.3997664,-8.715492999999999,2.379238,-0.11824436,0.012783173500000002,-0.21624869,-34.38,27.0,-31.2
1554107746806,-3.3135752999999997,-8.81605,2.2643162999999995,-0.07563378,-0.022370555,-0.20985709,-34.44,27.0,-31.14
1554107746827,-3.2034418999999996,-8.959702,2.3169887000000005,-0.07243799,-0.043675844000000005,-0.18961707,-34.44,27.0,-31.08
1554107746847,-3.1028854999999997,-9.218275,2.0871453,-0.029827405,-0.07882957,-0.14168017,-34.44,27.0,-31.02
1554107746866,-2.9831752999999996,-9.500791,2.1206641,-0.0053263223,-0.07669904,-0.068176925,-34.44,27.0,-30.96
1554107746887,-2.906561,-9.539098,2.307412,0.01917476,-0.05965481,-0.01917476,-34.38,27.0,-30.9
1554107746907,-2.906561,-9.414599,2.2882583,0.07776430000000001,-0.046871635999999994,-0.0031957934000000003,-34.38,27.0,-30.84
1554107746927,-2.8538885,-9.237428999999999,2.1158757,0.13635385,-0.022370555,0.015978966,-34.38,27.0,-30.78
1554107746947,-2.873042,-8.954913000000001,2.1350293,0.16085494,0.039414786,0.039414786,-34.5,26.94,-30.72
1554107746966,-2.9017725,-8.763377,2.1350293,0.128897,0.07669904,0.039414786,-34.56,26.94,-30.66
1554107746986,-2.9640217,-8.672397,2.2164322999999997,0.101200126,0.084155895,0.033023197000000004,-34.62,26.88,-30.6
1554107747006,-2.992752,-8.69155,2.3744495,0.060720075,0.06711166,0.035153727999999995,-34.74,26.82,-30.54
1554107747026,-3.0454244999999998,-8.854357,2.2930467,0.07669904,0.02876214,0.024501082,-34.86,26.82,-30.54
1554107747048,-2.9831752999999996,-9.021951,2.441487,0.15446335,0.0063915867,-0.0031957934000000003,-34.92,26.76,-30.54
1554107747066,-2.8921957000000003,-8.940548,2.0679917000000003,0.16937704,-0.026631612000000002,-0.013848438000000001,-34.98,26.76,-30.54
1554107747086,-2.9400797,-9.122507,2.1877017000000003,0.10759171,0.008522116,-0.004261058,-35.04,26.7,-30.66
1554107747107,-2.8682537,-8.959702,2.0919337,0.09267801,0.022370555,0.008522116,-35.04,26.7,-30.84
1554107747127,-2.7724855,-8.983644,2.2882583,0.08522116,0.03089267,-0.004261058,-35.04,26.7,-30.96
1554107747146,-3.0310593,-8.921394,2.2547395,0.101200126,0.033023197000000004,-0.025566347000000003,-35.04,26.7,-31.14
1554107747166,-2.992752,-8.81605,2.5372553,0.128897,0.039414786,-0.025566347000000003,-35.1,26.7,-31.26
1554107747186,-3.0789435000000003,-8.744224,2.1350293,0.20453078,0.024501082,-0.023435817999999997,-35.1,26.64,-31.38
1554107747207,-3.0454244999999998,-8.763377,2.2882583,0.17044231,0.053263225,-0.020240024,-35.1,26.58,-31.5
1554107747227,-3.0933087,-8.772953999999999,2.3840263,0.1470065,0.06178534,-0.054328485999999995,-35.1,26.52,-31.62
1554107747246,-3.0693667000000002,-8.854357,2.460641,0.09267801,0.04261058,-0.10439592,-35.1,26.4,-31.68
1554107747267,-3.0933087,-8.998009,2.4079683,0.080960095,0.012783173500000002,-0.12357068,-35.1,26.22,-31.68
1554107747286,-3.0358477,-9.065046,2.235586,0.13209279,0.0053263223,-0.10333065,-35.1,26.04,-31.68
1554107747306,-3.145981,-8.969278,2.3600842999999996,0.15126756,0.022370555,-0.05539375,-35.04,25.92,-31.68
1554107747327,-3.1268275,-8.950125,2.1015105,0.12357068,0.007456851,-0.018109497,-34.98,25.74,-31.68
1554107747347,-3.0597897,-8.81605,2.3600842999999996,0.08522116,0.0,-0.0010652645,-34.92,25.68,-31.68
1554107747366,-3.0741549999999997,-8.763377,2.4893713,0.10013486,-0.012783173500000002,-0.0053263223,-34.86,25.56,-31.74
1554107747387,-3.1316159,-8.729858,2.2882583,0.14274544,-0.029827405,-0.0063915867,-34.8,25.44,-31.8
1554107747407,-3.2225955,-8.648455,2.1924900000000003,0.18216023,-0.047936900000000005,-0.002130529,-34.8,25.38,-31.86
1554107747427,-3.169923,-8.72507,2.297835,0.20240025,-0.027696876000000002,-0.012783173500000002,-34.8,25.32,-31.98
1554107747446,-3.169923,-8.581417,2.178125,0.20453078,-0.026631612000000002,-0.04474111,-34.8,25.14,-32.04
1554107747466,-3.217807,-8.495225999999999,2.441487,0.12676647,-0.015978966,-0.054328485999999995,-34.86,24.96,-32.16
1554107747486,-3.1603463,-8.600571,2.2451627,0.029827405,-0.020240024,-0.03195793,-34.92,24.84,-32.28
1554107747507,-3.169923,-8.715492999999999,2.2212207000000004,-0.012783173500000002,0.029827405,0.020240024,-34.98,24.66,-32.4
1554107747526,-3.2896330000000003,-8.892664,2.0153193,-0.04580637,0.06711166,0.06924219,-35.04,24.54,-32.52
1554107747546,-3.1507695,-8.825626,2.3409307,-0.07137272,0.1438107,0.06604639400000001,-35.04,24.36,-32.58
1554107747567,-3.122039,-8.734647,2.690484,-0.13209279,0.15020229,0.039414786,-35.04,24.36,-32.64
1554107747587,-3.265691,-8.734647,2.9586349,-0.128897,0.05219796,0.035153727999999995,-34.98,24.42,-32.7
1554107747606,-3.2752678,-8.854357,2.7048495,-0.08948222,-0.040480047000000005,0.06924219,-34.92,24.48,-32.82
1554107747626,-3.0358477,-8.739435,2.2499511,-0.023435817999999997,-0.112918034,0.096939065,-34.86,24.6,-32.88
1554107747647,-3.1268275,-8.839992,2.168548,0.040480047000000005,-0.08948222,0.08841695,-34.8,24.78,-32.88
1554107747667,-3.1028854999999997,-9.213486999999999,2.5803509,0.047936900000000005,0.014913702,0.096939065,-34.74,24.84,-32.88
1554107747687,-3.1124623,-9.1512375,2.4510639,-0.013848438000000001,0.02876214,0.034088463,-34.68,24.9,-32.88
1554107747707,-3.2034418999999996,-8.801684,2.7383683,-0.11930962,0.00958738,-0.06924219,-34.62,25.02,-32.88
1554107747726,-3.4093432,-8.7538,2.9011737999999996,-0.112918034,-0.04261058,-0.096939065,-34.62,25.08,-32.88
1554107747747,-3.1603463,-8.758589,2.5420437000000002,-0.06604639400000001,-0.11717909,-0.07030745599999999,-34.62,25.08,-32.7
1554107747767,-3.3327288999999998,-8.739435,2.475006,-0.02876214,-0.12463594,-0.082025364,-34.56,25.08,-32.58
1554107747787,-3.3135752999999997,-8.883087,2.5755625,-0.041545313,-0.10439592,-0.060720075,-34.56,25.14,-32.52
1554107747807,-3.2609026,-9.045893,3.1022868,-0.08628642,-0.1107875,-0.03195793,-34.56,25.14,-32.4
1554107747827,-3.2321722999999998,-9.050680999999999,3.0304607999999997,-0.07776430000000001,-0.13209279,-0.02876214,-34.5,25.14,-32.34
1554107747847,-3.3039982000000006,-9.021951,2.6952724,-0.058589544,-0.1587244,-0.020240024,-34.5,25.14,-32.28
1554107747866,-3.2513257999999996,-8.854357,2.5133132999999996,0.03834952,-0.17896444,0.01917476,-34.5,25.14,-32.22
1554107747886,-3.265691,-8.787319,2.3744495,0.12250541,-0.14487597,0.06178534,-34.56,25.2,-32.16
1554107747906,-3.2513257999999996,-8.749011999999999,2.508525,0.10972224,-0.07030745599999999,0.101200126,-34.74,25.2,-32.22
1554107747927,-3.2848446000000004,-8.749011999999999,2.690484,0.046871635999999994,-0.024501082,0.07882957,-34.86,25.26,-32.22
1554107747947,-3.3470940000000002,-8.749011999999999,2.8389246,0.035153727999999995,-0.02876214,-0.02130529,-35.04,25.32,-32.22
1554107747967,-3.4189199999999995,-8.658031,2.7575218999999995,0.04580637,-0.053263225,-0.049002163,-35.16,25.38,-32.28
1554107747987,-3.2800562000000006,-8.677185,2.6426,0.10759171,-0.082025364,-0.025566347000000003,-35.28,25.44,-32.34
1554107748007,-3.2992098,-8.69155,2.9203273999999997,0.16831179,-0.06285059999999999,0.014913702,-35.34,25.5,-32.4
1554107748026,-3.2704793999999997,-8.868722,2.7335799,0.19920446,-0.06498113,0.012783173500000002,-35.4,25.56,-32.46
1554107748046,-3.2609026,-8.930971000000001,2.5803509,0.20985709,-0.039414786,0.010652645,-35.4,25.56,-32.52
1554107748067,-3.1507695,-8.897452000000001,2.6665419999999997,0.1949434,-0.012783173500000002,0.043675844000000005,-35.34,25.56,-32.58
1554107748086,-3.193865,-8.758589,2.6473885,0.165116,0.013848438000000001,0.06711166,-35.22,25.5,-32.64
1554107748106,-3.2609026,-8.696339,2.7431567,0.11824436,0.034088463,0.05539375,-35.16,25.44,-32.7
1554107748127,-3.193865,-8.72507,2.7048495,0.15126756,0.035153727999999995,0.018109497,-35.1,25.32,-32.7
1554107748147,-3.2752678,-8.509591,2.7240029999999997,0.21731395,0.06391586,0.0031957934000000003,-35.04,25.26,-32.7
1554107748167,-3.3135752999999997,-8.409035000000001,2.7431567,0.2876214,0.06711166,-0.007456851,-35.04,25.14,-32.7
1554107748187,-3.2321722999999998,-8.413822999999999,2.5611973,0.31638354,0.06178534,-0.02130529,-34.98,25.08,-32.7
1554107748206,-3.1603463,-8.485649,2.3888147,0.30999196,0.10759171,-0.029827405,-34.92,24.96,-32.7
1554107748227,-3.265691,-8.45213,2.2786815,0.22264028,0.165116,-0.05006743,-34.86,24.84,-32.7
1554107748247,-3.2561142000000003,-8.461707,2.6617537000000002,0.15233281,0.20879184,-0.09587380000000001,-34.74,24.72,-32.7
1554107748266,-3.3806129,-8.131308,2.9299042,0.099069595,0.22690132,-0.111852765,-34.68,24.6,-32.76
1554107748286,-3.4189199999999995,-8.059482000000001,2.7575218999999995,0.07669904,0.18002969,-0.101200126,-34.56,24.42,-32.94
1554107748307,-3.3039982000000006,-8.27496,2.6138697,0.022370555,0.15126756,-0.07563378,-34.44,24.24,-33.12
1554107748327,-3.1268275,-8.27496,2.4797945,-0.037284255,0.13315806,-0.08735169,-34.32,24.06,-33.3
1554107748347,-3.1603463,-8.341997000000001,2.355296,-0.084155895,0.09587380000000001,-0.15978967,-34.26,23.94,-33.42
1554107748366,-3.241749,-8.18398,2.4797945,-0.12144015,0.07243799,-0.20240025,-34.2,23.76,-33.6
1554107748386,-3.3327288999999998,-8.140884,2.6426,-0.16192019,0.043675844000000005,-0.19707392,-34.14,23.64,-33.78
1554107748407,-3.2130187,-8.298902,2.7670987,-0.19174760000000002,0.0053263223,-0.20879184,-34.08,23.46,-33.96
1554107748427,-3.1986535,-8.399458000000001,2.7910407000000004,-0.18855181,-0.07137272,-0.26631612,-34.02,23.4,-34.08
1554107748447,-3.1555579,-8.5143795,2.7287915000000003,-0.19387813,-0.14807177,-0.29188246,-33.96,23.34,-34.08
1554107748466,-3.1747115000000004,-8.614936,2.40318,-0.15339808,-0.2066613,-0.26738137,-33.9,23.34,-34.02
1554107748487,-3.2273839,-8.796896,2.6761188999999996,-0.111852765,-0.22050974,-0.23755397,-33.9,23.34,-34.02
1554107748507,-3.2321722999999998,-8.701127,2.556409,-0.07243799,-0.23542345,-0.21518342,-33.9,23.34,-33.9
1554107748527,-3.2513257999999996,-8.681973,2.9873652,-0.049002163,-0.23861924,-0.17150758,-33.9,23.34,-33.84
1554107748546,-3.1076740000000003,-8.739435,2.8341362,-0.053263225,-0.22796659,-0.05539375,-33.9,23.4,-33.6
1554107748566,-3.145981,-8.658031,2.7527334999999997,-0.047936900000000005,-0.20026971,-0.008522116,-33.9,23.4,-33.54
1554107748587,-3.2130187,-8.399458000000001,2.7862522999999997,-0.02876214,-0.20453078,-0.004261058,-34.08,23.46,-33.36
1554107748607,-3.3327288999999998,-8.356361999999999,2.6569653,-0.034088463,-0.18002969,0.008522116,-34.2,23.52,-33.18
1554107748627,-3.3279405,-8.370728,2.7575218999999995,-0.058589544,-0.14807177,0.058589544,-34.38,23.58,-33.12
1554107748647,-3.2130187,-8.461707,2.7240029999999997,-0.056459017,-0.12570119999999999,0.165116,-34.5,23.58,-33.0
1554107748667,-3.3566709,-8.57184,2.9394810000000002,-0.039414786,-0.11504856,0.29188246,-34.62,23.64,-33.0
1554107748687,-3.3183637000000004,-8.911817999999998,3.1214404,0.0010652645,-0.13848437,0.35153726,-34.74,23.64,-33.0
1554107748707,-3.5817258,-8.950125,3.1501707999999997,0.056459017,-0.14168017,0.31105720000000003,-34.86,23.7,-33.0
1554107748726,-3.5577837999999997,-9.381081,2.9969419999999998,0.06285059999999999,-0.16405073,0.22583607,-34.98,23.82,-32.94
1554107748746,-3.5913025999999997,-9.903017,3.1262288,0.03089267,-0.054328485999999995,0.17470337,-35.04,23.88,-32.88
1554107748767,-4.0222587999999995,-10.3770685,3.4422636,-0.03195793,0.058589544,0.16192019,-35.1,23.94,-32.82
1554107748787,-3.9408559999999997,-10.487202,3.7630866000000003,-0.049002163,0.19387813,0.17470337,-35.16,24.06,-32.7
1554107748807,-4.5872903,-10.338761,4.270657,0.036218993,0.30146983,0.2545982,-35.16,24.12,-32.64
1554107748826,-4.941632299999999,-9.816825999999999,4.577115,0.18748654,0.34408042,0.43356264,-35.1,24.24,-32.52
1554107748847,-5.142745,-9.390657000000001,4.7782279999999995,0.3717773,0.34621096,0.74248934,-34.92,24.36,-32.46
1554107748867,-5.3390699999999995,-9.304466,4.4717703,0.48043427,0.3270362,0.8681905000000001,-34.74,24.48,-32.52
1554107748886,-5.487509999999999,-9.108141999999999,4.3424835,0.59867865,0.26738137,0.98856544,-34.5,24.54,-32.58
1554107748907,-5.391742,-8.653243,4.031237,0.66365975,0.29294774,1.1749867,-34.2,24.6,-32.7
1554107748926,-5.568912999999999,-8.705916,3.6481647000000006,0.74675035,0.32170987,1.3187973,-33.9,24.66,-32.82
1554107748946,-5.4922986,-8.873510000000001,3.6242227999999996,0.7350325,0.3749731,1.438107,-33.54,24.78,-33.0
1554107748967,-5.248090299999999,-8.873510000000001,3.2986114,0.63915867,0.42930159999999995,1.6213325,-33.06,24.84,-33.24
1554107748986,-5.1762643,-8.619724,3.3512837999999996,0.55074173,0.47723848,1.6660736,-32.4,24.96,-33.6
1554107749006,-5.248090299999999,-7.9876556,3.198055,0.49747851,0.5336975,1.6128103999999999,-31.74,25.2,-33.96
1554107749027,-5.2816089999999996,-7.259817999999999,2.9586349,0.5656554,0.52837116,1.5297197,-31.08,25.5,-34.2
1554107749046,-5.396530599999999,-6.7761892999999995,2.9299042,0.68176925,0.5475459,1.5584818999999999,-30.36,25.8,-34.5
1554107749066,-5.5401826,-6.5511346,3.221997,0.84368944,0.58056915,1.6490293999999999,-29.46,26.1,-34.74
1554107749086,-5.602432,-6.172850599999999,3.2986114,1.0823087,0.50173956,1.6202673,-28.5,26.46,-35.04
1554107749107,-5.975927400000001,-6.0244102,3.0974984,1.2836437,0.39414784,1.5275892,-27.36,26.76,-35.28
1554107749127,-6.0381765,-5.7658362,2.5372553,1.3741912,0.33555830000000003,1.4658038999999998,-26.4,26.94,-35.52
1554107749147,-6.363788,-5.4641665999999995,2.7383683,1.3795174,0.37923414,1.4136058999999999,-25.56,27.0,-35.64
1554107749167,-6.4787097000000005,-5.3396683,3.2411506,1.3592775,0.37923414,1.3539511,-24.6,26.76,-35.82
1554107749187,-6.7468604999999995,-4.894346700000001,3.8109705000000003,1.3443637,0.35899413,1.3102753,-23.58,26.22,-36.36
1554107749207,-7.201759,-4.439448400000001,3.2794578000000003,1.3880396000000002,0.27483824,1.3219931999999999,-22.56,25.44,-36.96
1554107749227,-7.302314999999999,-4.109049,3.2890346,1.3518206,0.22264028,1.4295848999999998,-21.54,24.6,-37.5
1554107749246,-7.168239999999999,-3.8983587999999996,3.3943794,1.2964269,0.18642128,1.5446335,-20.58,23.58,-38.1
1554107749267,-7.249642999999999,-3.4530375,3.5476084,1.252751,0.20133498,1.598962,-19.86,22.44,-38.7
1554107749287,-7.3885064,-2.9550436,3.6768951000000003,1.2548815,0.24820662,1.5456988,-19.14,21.24,-39.3
1554107749306,-7.4363904000000005,-2.533664,3.8109705000000003,1.2644688999999998,0.23435818,1.4327807,-18.48,19.8,-39.84
1554107749326,-7.747636999999999,-2.0260932,3.8971617,1.3006879,0.20879184,1.3390374,-17.82,18.36,-40.38
1554107749347,-7.417236999999999,-1.3269863000000002,4.117428299999999,1.2602079,0.19600865,1.2037488,-16.92,16.38,-40.74
1554107749367,-7.5273699999999995,-0.82899237,3.7535098,1.1739215,0.18535602,1.1100056,-16.68,15.72,-40.86
1554107749386,-7.824250999999999,-0.3405752,3.7726634,0.9821738000000001,0.28655612,0.99282646,-16.26,14.46,-41.22
1554107749406,-8.078036,-0.110731825,3.887585,0.7392935,0.41119209999999995,0.91186637,-15.84,13.08,-41.52
1554107749428,-7.996633500000001,-0.13467385,3.6529531000000004,0.35579833,0.42930159999999995,0.87138635,-15.18,11.22,-42.0
1554107749447,-8.1402855,0.04249708,3.8492777,0.07776430000000001,0.4133226,0.8362325999999999,-14.76,10.14,-42.3
1554107749467,-8.485051,-0.13946225,3.4039562000000005,-0.23755397,0.33129725,0.7456851,-14.34,9.36,-42.48
1554107749487,-8.331821000000001,-0.39803603,4.136582,-0.7041398,0.33768883,0.72437984,-14.1,8.64,-42.66
1554107749506,-8.298303,-0.47465047,3.7104141999999998,-0.94488955,0.21624869,0.572047,-13.92,8.1,-42.78
1554107749527,-8.073248,-0.11552023,3.743933,-1.1430287000000001,0.13315806,0.44421527,-13.68,7.68,-42.78
1554107749546,-8.456321,-0.24480712,3.9211037,-1.1462245,0.14913702,0.39521313,-13.62,7.5,-42.78
1554107749567,-7.987056699999999,-0.19692309,4.89315,-0.91612744,0.07137272,0.3536678,-13.32,7.38,-42.78
1554107749587,-8.288725999999999,-0.40761283,4.538808,-0.6242449999999999,-0.10226539,0.330232,-13.14,7.74,-42.78
1554107749607,-7.881711999999999,-0.31663316,3.5571851999999997,-0.386691,-0.18855181,0.19813919,-12.96,8.22,-42.72
1554107749627,-7.4268136,0.17178397,4.32333,-0.2876214,-0.10972224,0.002130529,-12.66,8.82,-42.72
1554107749648,-7.4986396,1.7280151000000001,3.7295678,-0.08841695,-0.15978967,-0.34727620000000003,-12.42,9.42,-42.72
1554107749667,-7.4028716,2.0679917000000003,3.7966053,-0.015978966,-0.1107875,-0.50387007,-12.24,10.08,-42.6
1554107749686,-7.2640080000000005,1.977012,3.1549592,0.09374327,-0.1949434,-0.75101143,-12.0,10.74,-42.42
1554107749706,-7.0964136,1.3305776000000002,2.9011737999999996,-0.060720075,-0.28122982,-1.0833739,-11.82,11.46,-42.3
1554107749727,-7.0006455999999995,0.65062433,3.1022868,-0.51452273,-0.36112466,-1.4647386,-11.76,12.0,-42.18
1554107749746,-7.489063000000001,-0.13467385,3.2507273999999997,-1.1004181999999998,-0.38029942,-1.6692694,-11.76,12.36,-42.06
1554107749766,-7.8290396,-1.5568296999999998,3.6337996,-1.530785,-0.24607609,-1.6170714,-12.0,12.72,-41.94
1554107749787,-8.379706,-2.8018146,3.1741127999999996,-2.0516994,-0.17789917,-1.397627,-12.3,13.26,-41.76
1554107749806,-8.853758000000001,-3.8073792,2.5803509,-2.5683527,-0.06285059999999999,-1.1984226,-12.6,13.98,-41.52
1554107749826,-9.217675999999999,-4.6501384,2.8054059,-3.0232205000000003,0.15446335,-0.98750013,-12.9,15.0,-41.28
1554107749847,-9.5385,-5.1529207,2.8389246,-3.0594394,0.28229508,-0.7414241,-13.2,16.26,-40.8
1554107749866,-10.1226845,-6.1058129999999995,3.2172085999999998,-2.8623654999999997,0.33981937,-0.30999196,-13.56,17.7,-40.08
1554107749886,-10.022128,-6.531981,3.8827964999999995,-2.4554346000000002,0.31638354,-0.040480047000000005,-14.04,19.5,-39.3
1554107749907,-9.303867,-6.3643866,3.2890346,-1.4093448999999998,0.04261058,0.10546118,-14.4,21.54,-38.4
1554107749927,-9.251195,-6.091448000000001,3.8061821000000005,-0.5006742999999999,-0.0010652645,0.20879184,-14.7,23.88,-37.5
1554107749947,-9.332599,-5.593454,4.7399206,0.46978164,-0.09054748,0.37284255,-14.88,26.1,-36.54
1554107749966,-9.279925,-5.119402,4.4143095,1.3166668,-0.33129725,0.53476274,-15.0,28.02,-35.58
1554107749987,-8.868122999999999,-4.4442368,3.4231097999999998,1.7960359000000001,-0.43569317,0.6689861,-15.12,29.64,-34.74
1554107750007,-8.437167,-4.0707417,3.7343562000000006,1.9132148999999998,-0.38349520000000004,0.7456851,-15.18,31.08,-34.2
1554107750027,-8.288725999999999,-3.0699651,4.4238862999999995,1.9771308999999997,-0.35579833,0.64768076,-15.24,32.1,-33.9
1554107750047,-8.437167,-2.4953567999999997,3.8253357000000006,1.8429075000000001,-0.40906155,0.5550028,-15.12,32.58,-33.84
1554107750067,-8.48984,-1.7818846999999998,3.6481647000000006,1.5425029,-0.39840892,0.6135923000000001,-15.0,32.28,-34.14
1554107750086,-8.327033,-1.5855601000000001,3.4039562000000005,1.1345067,-0.257794,0.71159667,-14.82,31.38,-34.56
1554107750107,-8.379706,-2.1027076,3.7199910000000003,0.6423545,-0.10013486,0.7882956999999999,-14.58,30.06,-35.04
1554107750128,-8.259995,-1.7770962,4.6154222,0.23222765,-0.05006743,0.69774824,-14.34,28.02,-36.06
1554107750147,-8.130709,-1.4083891000000002,3.9067385000000003,-0.0053263223,-0.10652645,0.43995422,-14.16,26.58,-36.72
1554107750167,-8.0924015,-0.6805518,3.1501707999999997,-0.049002163,0.004261058,0.406931,-13.98,25.2,-37.44
1554107750186,-8.619126,-1.7435773999999997,4.5148660000000005,0.034088463,0.16405073,0.5954828000000001,-13.8,23.88,-38.04
1554107750207,-8.341399000000001,-1.6956933999999997,5.027225,0.1587244,0.07669904,0.700944,-13.68,22.86,-38.4
1554107750227,-8.461109,-1.4706384,4.7494974,0.28655612,-0.096939065,0.5422196,-13.62,22.5,-38.52
1554107750246,-8.192958,-0.7236475,2.5899277,0.45912898,-0.31638354,0.42290998,-13.56,21.72,-38.76
1554107750266,-7.97748,-0.9008184000000001,3.068768,0.5539375,-0.13422333,0.56245965,-13.56,21.54,-38.88
1554107750287,-8.259995,-1.4706384,5.0224366,0.7978831000000001,0.06285059999999999,0.6849651,-13.56,21.18,-39.06
1554107750307,-8.652645,-0.99658644,4.854842700000001,1.0407634,-0.06285059999999999,0.4644553,-13.56,21.0,-39.18
1554107750326,-8.901641999999999,-0.83378077,4.481347,1.2378373,-0.14913702,0.39414784,-13.56,20.88,-39.3
1554107750346,-8.748413000000001,-1.1881226,4.3568487000000005,1.5616777,-0.10865697,0.69987875,-13.56,20.52,-39.54
1554107750367,-8.719683,-1.0636241000000002,5.3049526,1.7747306,-0.10013486,0.813862,-13.44,19.98,-39.78
1554107750386,-9.035717,-0.30705637,3.8061821000000005,1.9473034,-0.23222765,0.6870956,-13.26,19.14,-40.02
1554107750406,-8.513782,0.9235633,4.256292,1.8919096999999998,-0.1949434,0.64768076,-13.08,18.0,-40.32
1554107750426,-8.772355000000001,1.2156559,4.23235,1.7672738000000001,-0.11824436,0.716923,-12.9,16.5,-40.8
1554107750447,-8.255207,1.2539631000000002,4.4957123,1.6085493999999998,-0.04580637,0.87351686,-12.72,14.76,-41.28
1554107750467,-8.2169,1.1150993999999999,3.4422636,1.4881744,0.0031957934000000003,0.83942837,-12.54,12.78,-41.76
1554107750487,-7.943961,1.3880384,3.8588544999999996,1.2335763000000002,0.101200126,0.5965481,-12.36,10.62,-42.18
1554107750506,-7.762002000000001,2.4510639,3.887585,0.9821738000000001,0.14913702,0.27696875,-12.24,8.46,-42.6
1554107750526,-7.833828,3.1884782000000005,3.1022868,0.700944,0.18642128,0.07137272,-12.18,6.48,-43.02
1554107750546,-7.881711999999999,3.4326867999999995,2.8868085999999997,0.22264028,0.24927188,0.06711166,-12.18,4.8,-43.38
1554107750566,-7.9343843,2.9059622000000003,3.317765,-0.07776430000000001,0.25246766,0.11717909,-12.18,3.42,-43.74
1554107750587,-8.274361,2.7048495,3.317765,-0.5550028,0.21092236,0.060720075,-12.24,2.4,-43.86
1554107750607,-8.571242,2.8868085999999997,3.5476084,-0.95447695,0.101200126,-0.020240024,-12.24,1.62,-44.04
1554107750626,-8.312667999999999,2.8724434,3.4087446000000003,-1.3731258999999998,0.025566347000000003,-0.07776430000000001,-12.24,1.08,-44.1
1554107750646,-8.508992999999998,3.1022868,3.221997,-1.7076189999999998,0.05006743,-0.18109496,-12.24,1.08,-44.16
1554107750667,-8.700529,2.4893713,2.891597,-1.9600866000000001,0.22477080000000002,-0.07350325,-12.24,1.32,-44.22
1554107750687,-8.815451,1.2060791000000002,4.208408,-2.139051,0.43888897,0.15978967,-12.12,2.04,-44.16
1554107750707,-8.829816000000001,0.40162733,4.8165355000000005,-2.086853,0.40053943,0.082025364,-12.06,3.06,-44.1
1554107750727,-8.844180999999999,0.5021838,4.5962687,-1.7598169,0.29827404,-0.16192019,-11.76,4.32,-43.86
1554107750746,-9.251195,1.0432734000000001,4.9506106,-1.0982877,0.29933932,-0.15126756,-11.52,5.82,-43.62
1554107750769,-9.14585,0.29149407,5.515642,-0.5251754,0.18855181,0.24394555,-11.34,7.38,-43.26
1554107750788,-8.7053175,-0.65182143,4.9027267,0.24394555,0.053263225,0.3568636,-11.1,8.88,-42.84
1554107750808,-8.738836000000001,-0.19213470000000002,4.361637,0.7190535,-0.017044231,0.18429075,-10.92,10.2,-42.48
1554107750828,-9.064447,0.98102415,4.0695443,0.87777793,-0.08522116,0.07243799,-10.68,11.34,-42.06
1554107750847,-8.8777,1.6130934,3.3033997999999998,0.87777793,-0.10546118,0.165116,-10.5,12.24,-41.7
1554107750867,-8.896853,1.4694413,3.1741127999999996,0.74035877,-0.00958738,0.2908172,-10.32,12.78,-41.4
1554107750886,-8.848969,1.2922704,3.518878,0.44634579999999996,0.11717909,0.3206446,-10.32,13.08,-41.16
1554107750906,-8.7292595,1.4646529,3.4757824,0.007456851,0.12783173,0.221575,-10.26,13.14,-41.1
1554107750927,-8.614338,2.0919337,3.1405939999999997,-0.28122982,0.18642128,0.11504856,-10.14,12.96,-41.04
1554107750946,-8.848969,2.0727801,3.8780080999999997,-0.34301516,0.29827404,0.18429075,-10.08,12.78,-41.1
1554107750966,-8.6813755,1.3545196000000002,4.1796775,-0.28549087,0.28868666,0.27483824,-10.02,12.6,-41.16
1554107750987,-8.504205,1.2156559,3.8157589999999995,-0.15552860000000002,0.24820662,0.101200126,-9.9,12.3,-41.28
1554107751007,-8.949525999999999,1.4790181,3.5140896,-0.046871635999999994,0.28655612,0.03834952,-9.78,12.06,-41.34
1554107751026,-8.820239,1.5173253,4.3185415,-0.007456851,0.3291667,0.1107875,-9.72,12.0,-41.4
1554107751047,-9.02614,1.3928268,4.912303400000001,0.03834952,0.1587244,0.18642128,-9.48,11.82,-41.46
1554107751066,-8.690952000000001,1.4359225,3.9402574999999995,0.18748654,-0.043675844000000005,0.19600865,-9.24,11.76,-41.52
1554107751086,-8.51857,1.7758990000000001,3.5332432000000003,0.36112466,-0.058589544,0.15552860000000002,-9.06,11.82,-41.52
1554107751107,-8.432379,1.7663223000000001,3.4901476000000002,0.49108690000000005,0.03089267,0.15020229,-8.88,11.82,-41.52
1554107751127,-8.1163435,2.0536265,3.7199910000000003,0.45060685,0.12783173,0.096939065,-8.64,11.76,-41.46
1554107751147,-8.734048,2.168548,3.7152026,0.19920446,0.17044231,0.08628642,-8.46,11.7,-41.46
1554107751167,-8.374918,1.9387047999999998,3.6002807999999997,-0.096939065,0.14168017,0.018109497,-8.34,11.52,-41.4
1554107751186,-8.394072,1.8620903000000002,3.6721067,-0.08735169,0.08948222,-0.07882957,-8.22,11.34,-41.4
1554107751206,-8.465898,2.0775685,3.341707,0.034088463,0.060720075,-0.19174760000000002,-8.22,11.16,-41.34
1554107751227,-8.523358,2.379238,3.044826,0.128897,0.07456851,-0.1949434,-8.16,10.98,-41.34
1554107751247,-9.121908,2.0344729999999998,3.4039562000000005,0.13422333,0.039414786,-0.12037488,-8.16,10.8,-41.34
1554107751267,-8.748413000000001,1.4454993,2.9299042,0.007456851,-0.024501082,-0.09161274,-8.04,10.62,-41.34
1554107751287,-8.825027,1.6705543,3.1262288,-0.05539375,-0.0010652645,-0.1768339,-7.92,10.5,-41.34
1554107751306,-8.7532015,1.6944963,3.5140896,-0.007456851,0.068176925,-0.21837921,-7.86,10.5,-41.28
1554107751326,-9.193734,1.8046296000000002,4.3281183,0.13102753,0.037284255,-0.294013,-7.74,10.5,-41.34
1554107751347,-8.872911,1.9003976999999999,3.3033997999999998,0.39095205,-0.21624869,-0.21837921,-7.62,10.44,-41.34
1554107751366,-8.590396,1.6849195,3.2076318,0.49747851,-0.22477080000000002,-0.1470065,-7.62,10.38,-41.34
1554107751386,-8.896853,1.5652093999999999,3.1884782000000005,0.50387007,-0.19920446,-0.16937704,-7.62,10.38,-41.34
1554107751406,-8.90643,1.9722236000000002,3.0113072,0.34088463,-0.13209279,-0.24181503,-7.56,10.26,-41.34
1554107751426,-8.968679,2.0057424999999998,3.341707,0.2034655,-0.06391586,-0.2428803,-7.68,10.14,-41.4
1554107751446,-9.107543,1.6897078999999997,2.7623102999999998,-0.083090626,-0.05752428,-0.07456851,-7.8,9.96,-41.4
1554107751466,-8.566454,1.6609775000000002,2.9921536,-0.2545982,-0.014913702,0.049002163,-7.92,9.78,-41.4
1554107751487,-9.208099,1.7950528000000001,3.2650926,-0.36218992,-0.004261058,0.029827405,-8.04,9.6,-41.4
1554107751507,-8.5473,1.9818004,3.1453824,-0.22264028,0.07882957,-0.04580637,-8.16,9.42,-41.4
1554107751526,-8.825027,1.8620903000000002,3.447052,-0.05752428,0.21944448,-0.082025364,-8.22,9.3,-41.46
1554107751546,-8.882488,1.881244,3.7104141999999998,-0.03834952,0.18535602,-0.029827405,-8.28,9.18,-41.46
1554107751566,-9.26556,1.4933833,3.2890346,-0.05539375,0.03195793,0.040480047000000005,-8.34,9.06,-41.52
1554107751587,-9.002198,1.0336965,3.0400376000000002,-0.12676647,-0.06604639400000001,0.19387813,-8.34,9.06,-41.52
1554107751607,-8.561666,1.9674352,3.317765,-0.03089267,0.004261058,0.080960095,-8.34,9.12,-41.52
1554107751627,-8.839393,2.6330232999999996,3.3129766000000003,0.05539375,0.094808534,-0.05006743,-8.4,9.24,-41.58
1554107751646,-9.390058999999999,1.9818004,3.0544027999999996,0.047936900000000005,0.09374327,0.23116238,-8.4,9.3,-41.64
1554107751668,-8.202535000000001,1.2348095,3.470994,0.04580637,0.07776430000000001,0.47510794,-8.4,9.42,-41.7
1554107751687,-8.75799,1.6897078999999997,3.2746694,0.082025364,0.096939065,0.004261058,-8.4,9.48,-41.7
1554107751707,-9.208099,2.417545,3.2794578000000003,-0.25246766,0.08948222,-0.16937704,-8.34,9.6,-41.7
1554107751729,-8.6334915,2.3169887000000005,3.7582982000000005,-0.47404268,0.07669904,0.13209279,-8.22,9.72,-41.7
1554107751746,-8.671799,1.4311341,4.4765587,-0.42930159999999995,0.13102753,0.12463594,-8.22,9.72,-41.7
1554107751766,-8.7532015,1.38325,3.7295678,-0.24394555,0.04474111,-0.046871635999999994,-8.1,9.72,-41.64
1554107751787,-9.006986999999999,1.9626468000000001,3.8492777,-0.19600865,0.011717908999999999,-0.09267801,-8.04,9.78,-41.58
1554107751807,-8.968679,1.9243397,4.0120835,-0.10652645,-0.047936900000000005,0.0053263223,-7.92,9.78,-41.52
1554107751827,-8.6095495,1.8620903000000002,3.2124202,-0.004261058,-0.15659387,0.10546118,-7.86,9.84,-41.46
1554107751847,-8.628703,2.4079683,3.09271,0.046871635999999994,-0.13954964,0.07243799,-7.74,9.9,-41.4
1554107751866,-8.834603999999999,2.130241,3.116652,0.10013486,-0.10013486,0.113983296,-7.68,9.96,-41.34
1554107751886,-8.686164,1.6801311,3.3512837999999996,0.16724652,-0.023435817999999997,0.21092236,-7.62,10.08,-41.28
1554107751907,-8.801085,2.3600842999999996,3.1597476,0.21944448,-0.040480047000000005,0.043675844000000005,-7.62,10.2,-41.22
1554107751926,-8.75799,2.4127567,3.0304607999999997,0.24394555,-0.041545313,-0.023435817999999997,-7.62,10.26,-41.22
1554107751947,-8.7532015,2.1924900000000003,3.2363622000000003,0.20985709,0.0,0.084155895,-7.62,10.38,-41.22
1554107751967,-8.8777,2.1158757,3.7966053,0.16405073,0.039414786,0.017044231,-7.68,10.38,-41.28
1554107751987,-8.738836000000001,2.1733365,3.0974984,0.08841695,-0.049002163,-0.07776430000000001,-7.68,10.38,-41.28
1554107752007,-8.532935,2.40318,2.9011737999999996,0.013848438000000001,-0.035153727999999995,-0.080960095,-7.68,10.38,-41.28
1554107752026,-8.796297000000001,2.345719,2.9011737999999996,-0.014913702,0.054328485999999995,-0.06924219,-7.68,10.32,-41.28
1554107752046,-8.858546,1.9339164,3.1358056,-0.058589544,0.12783173,-0.024501082,-7.68,10.26,-41.34
1554107752067,-8.844180999999999,1.857302,3.7295678,-0.165116,0.15020229,-0.03089267,-7.62,10.14,-41.34
1554107752087,-8.90643,1.8620903000000002,3.2603042,-0.22264028,0.047936900000000005,-0.09587380000000001,-7.62,10.08,-41.34
1554107752106,-8.863335000000001,2.4510639,2.7096379,-0.24714136,0.014913702,-0.07882957,-7.62,9.96,-41.28
1554107752126,-8.63828,2.2691047,3.2746694,-0.21092236,0.17576863,-0.013848438000000001,-7.62,9.9,-41.28
1554107752147,-9.050082000000002,1.6657659,4.0120835,-0.09587380000000001,0.20985709,0.04474111,-7.62,9.84,-41.22
1554107752167,-8.810661999999999,1.8956091,3.1836896,-0.05539375,0.07350325,-0.017044231,-7.56,9.84,-41.22
1554107752187,-8.791509,2.3409307,2.9299042,-0.19387813,0.080960095,-0.11824436,-7.56,9.9,-41.16
1554107752207,-8.810661999999999,2.307412,3.4614172,-0.24607609,0.1438107,-0.09161274,-7.56,9.96,-41.16
1554107752226,-8.939949,2.0392613,3.6337996,-0.15020229,0.12144015,-0.049002163,-7.56,10.02,-41.1
1554107752247,-8.8777,1.905186,3.2555158,-0.082025364,0.022370555,-0.06924219,-7.5,10.14,-41.04
1554107752267,-8.662222,1.7902644,2.9682117000000003,-0.2428803,0.029827405,-0.10865697,-7.44,10.26,-40.98
1554107752287,-8.848969,1.9339164,3.1597476,-0.2727077,0.07137272,-0.11930962,-7.38,10.38,-40.98
1554107752307,-9.141062,1.7567455,3.3800142,-0.10013486,0.06391586,-0.022370555,-7.32,10.62,-40.92
1554107752326,-8.90643,1.632247,3.1262288,0.03834952,0.05539375,0.05539375,-7.26,10.86,-40.86
1554107752347,-8.839393,1.4550761,3.198055,0.111852765,0.112918034,0.018109497,-7.2,10.98,-40.86
1554107752367,-9.016563,1.9434932,3.1741127999999996,0.14594123,0.12463594,-0.08522116,-7.14,11.22,-40.86
1554107752387,-9.41879,2.1350293,3.4039562000000005,0.007456851,0.080960095,-0.07989483,-7.08,11.34,-40.74
1554107752406,-8.911219000000001,1.8285716,2.9538465,-0.23222765,0.06711166,0.020240024,-7.02,11.52,-40.68
1554107752426,-8.839393,1.7567455,3.2555158,-0.33555830000000003,0.11824436,0.05539375,-7.02,11.64,-40.62
1554107752447,-8.868122999999999,1.7184383,3.3608606,-0.1438107,0.11611383,0.080960095,-7.02,11.7,-40.5
1554107752469,-9.332599,1.9722236000000002,3.4183214,0.1438107,0.049002163,0.084155895,-6.96,11.7,-40.38
1554107752486,-9.121908,2.0057424999999998,2.7000610000000003,0.11611383,-0.0053263223,0.13315806,-6.96,11.7,-40.32
1554107752506,-8.7292595,1.6944963,2.915539,-0.08948222,-0.011717908999999999,0.17150758,-6.96,11.7,-40.2
1554107752528,-8.791509,1.905186,2.795829,0.02876214,-0.034088463,0.06391586,-6.96,11.7,-40.14
1554107752547,-8.7532015,2.355296,3.020884,0.16192019,0.002130529,0.027696876000000002,-6.9,11.76,-40.14
1554107752567,-8.844180999999999,2.2116439999999997,2.9921536,0.07776430000000001,0.012783173500000002,0.013848438000000001,-6.78,11.76,-40.14
1554107752587,-8.480263,2.1829132999999996,3.2028434,-0.07456851,0.033023197000000004,-0.00958738,-6.72,11.76,-40.2
1554107752606,-8.614338,2.3696610000000002,3.2267854,-0.12570119999999999,0.04261058,-0.09374327,-6.66,11.76,-40.32
1554107752626,-8.844180999999999,2.0871453,2.8006175,-0.058589544,0.036218993,-0.10865697,-6.6,11.76,-40.38
1554107752647,-8.719683,2.0201077,3.341707,0.05752428,0.05006743,-0.06924219,-6.54,11.82,-40.44
1554107752667,-8.858546,2.154183,2.7383683,-0.010652645,-0.022370555,-0.094808534,-6.48,11.94,-40.5
1554107752687,-9.198523,2.154183,3.1741127999999996,-0.25033715,0.036218993,-0.082025364,-6.42,12.0,-40.56
1554107752707,-9.107543,1.8285716,2.9730000000000003,-0.2695119,0.023435817999999997,-0.082025364,-6.36,12.06,-40.62
1554107752726,-9.002198,1.7280151000000001,4.1078515,-0.19813919,0.08735169,-0.07989483,-6.36,12.12,-40.68
1554107752746,-8.983044999999999,1.8716671000000003,2.8868085999999997,0.013848438000000001,-0.06711166,-0.13848437,-6.36,12.18,-40.62
1554107752767,-9.41879,2.4127567,3.1741127999999996,0.34621096,-0.15126756,-0.19387813,-6.36,12.3,-40.44
1554107752787,-9.006986999999999,1.6801311,2.3888147,0.18109496,-0.22370553,-0.10546118,-6.36,12.36,-40.32
1554107752807,-8.456321,1.1246762,1.9674352,-0.08522116,-0.14913702,-0.012783173500000002,-6.36,12.36,-40.26
1554107752826,-8.853758000000001,1.3736732,3.4901476000000002,-0.2727077,-0.022370555,-0.12996227,-6.36,12.36,-40.14
1554107752846,-8.738836000000001,1.4981716999999999,3.4805707999999997,-0.35153726,-0.07030745599999999,-0.15339808,-6.36,12.36,-40.08
1554107752867,-8.422802,1.6753427,3.4039562000000005,-0.38136467,-0.10972224,-0.18748654,-6.3,12.36,-40.02
1554107752887,-8.341399000000001,1.8142063999999998,3.2124202,-0.40266997,-0.1470065,-0.3174488,-6.3,12.42,-39.96
1554107752907,-8.145074000000001,2.0679917000000003,3.0639796,-0.30892670000000005,-0.10652645,-0.47404268,-6.3,12.48,-39.96
1554107752927,-8.475474,2.1398177000000005,4.0264487,-0.11930962,-0.056459017,-0.5475459,-6.3,12.66,-39.96
1554107752947,-8.566454,1.584363,3.7056258,0.058589544,-0.15126756,-0.47191215,-6.3,12.9,-39.96
1554107752966,-8.010999,1.0336965,3.1932666000000003,0.060720075,-0.21092236,-0.48149952,-6.36,13.14,-39.96
1554107752987,-7.8146744,0.98581254,2.5372553,-0.046871635999999994,-0.221575,-0.74035877,-6.42,13.44,-39.96
1554107753007,-7.785944000000001,1.1677719,2.6952724,-0.26205507,-0.16298546,-1.0258497,-6.54,13.74,-39.96
1554107753026,-7.848192999999999,1.2922704,3.6529531000000004,-0.43249738,-0.10013486,-1.2591426000000001,-6.66,14.04,-39.96
1554107753046,-8.494628,1.2970588,3.6242227999999996,-0.4708469,-0.30999196,-1.3454291,-6.78,14.46,-39.96
1554107753066,-7.8003089999999995,1.2443863000000002,2.9011737999999996,-0.5475459,-0.47510794,-1.2857742,-6.96,14.94,-39.9
1554107753086,-7.723694999999999,0.6697779,2.8101943,-0.588026,-0.37923414,-1.2879047,-7.2,15.48,-39.84
1554107753107,-7.8050976,-0.43155485,3.4422636,-0.7435546,-0.2876214,-1.381648,-7.62,16.02,-39.84
1554107753127,-7.929596000000001,-0.7380127,3.9498343,-0.8543421,-0.29188246,-1.5350461000000002,-8.1,16.62,-39.78
1554107753147,-8.365341,-1.1162965,3.5715504,-0.8788431999999999,-0.23222765,-1.6767261999999998,-8.7,17.28,-39.78
1554107753170,-8.255207,-1.7770962,3.8492777,-0.9193232,-0.060720075,-1.7150756999999999,-9.36,18.06,-39.78
1554107753186,-8.264783999999999,-2.1601684,4.4526167,-0.8309063,0.06498113,-1.7789917000000002,-9.96,19.02,-39.72
1554107753207,-8.686164,-2.48578,4.395156,-0.6689861,0.06924219,-1.8098843,-10.56,19.98,-39.6
1554107753227,-8.8777,-2.7060466,4.1461587,-0.43356264,0.037284255,-1.7044232,-11.1,20.94,-39.36
1554107753247,-8.796297000000001,-2.9167361,3.9498343,-0.27803403,0.01917476,-1.5116103,-11.64,21.84,-39.12
1554107753267,-8.556877,-3.4578260000000003,4.2850223,-0.1107875,0.033023197000000004,-1.4231933,-12.06,22.74,-38.88
1554107753287,-8.504205,-3.7020345,4.194042700000001,0.112918034,0.04261058,-1.3986923,-12.6,23.58,-38.64
1554107753307,-8.671799,-3.6589386,4.4238862999999995,0.35260254,0.026631612000000002,-1.3805827,-13.02,24.36,-38.4
1554107753326,-8.700529,-3.697246,4.7830167,0.51771855,-0.025566347000000003,-1.3038836999999999,-13.44,25.08,-38.16
1554107753346,-8.561666,-3.8073792,4.2131963,0.5752428,-0.13635385,-1.1387677,-13.86,25.44,-37.98
1554107753368,-8.384495,-3.946243,3.3464954,0.47297743,-0.16192019,-0.9864349,-14.34,25.56,-37.92
1554107753388,-8.121132000000001,-4.401141,3.0639796,0.20772657,0.0063915867,-0.9470200999999999,-14.82,25.56,-38.04
1554107753408,-8.135497,-4.425083,3.9546227,-0.03834952,0.21092236,-1.0226538,-15.36,25.5,-38.22
1554107753428,-8.336611,-4.4442368,3.7726634,-0.13209279,0.24927188,-1.0588728,-15.78,25.26,-38.28
1554107753447,-8.159439,-4.573524,3.7008373999999997,-0.12783173,0.26631612,-0.93423694,-16.14,25.02,-38.4
1554107753467,-8.183380999999999,-5.1529207,3.5954924,-0.053263225,0.27057716,-0.7765778,-16.56,24.78,-38.58
1554107753487,-7.848192999999999,-5.2582655,3.5332432000000003,0.080960095,0.26525086,-0.7318366999999999,-17.04,24.54,-38.7
1554107753507,-7.795521000000001,-5.0427876,3.2267854,0.23009712,0.23755397,-0.76272935,-17.46,24.36,-38.76
1554107753527,-7.8673470000000005,-4.9135003,3.4326867999999995,0.257794,0.20772657,-0.7052050999999999,-17.82,24.24,-38.82
1554107753546,-7.714117999999999,-5.0140567,3.3512837999999996,0.21411815,0.12783173,-0.58483016,-18.18,24.12,-38.82
1554107753567,-7.7907324000000004,-5.119402,3.4566288,0.15765914,0.007456851,-0.5496765,-18.54,23.88,-38.88
1554107753587,-7.666233999999999,-4.817732299999999,3.3129766000000003,0.08522116,-0.06711166,-0.5933523,-18.72,23.76,-38.88
1554107753607,-7.608772999999999,-4.717176,3.0544027999999996,0.011717908999999999,-0.06285059999999999,-0.6221144000000001,-18.84,23.58,-38.88
1554107753626,-7.642291999999999,-5.0667295,3.3225534,-0.07350325,0.0010652645,-0.5400891,-18.84,23.4,-38.88
1554107753646,-7.517792999999999,-5.229535,3.4901476000000002,-0.13528858,0.002130529,-0.46125950000000004,-18.78,23.34,-38.94
1554107753667,-7.4268136,-5.535993,3.6816837999999996,-0.22583607,-0.024501082,-0.42077947,-18.84,23.1,-39.0
1554107753686,-7.326257000000001,-5.512050599999999,3.8397010000000003,-0.18535602,-0.046871635999999994,-0.45699844,-18.84,22.98,-39.06
1554107753706,-7.345411,-5.3540335,3.6242227999999996,-0.07989483,-0.08841695,-0.46125950000000004,-19.02,22.92,-39.06
1554107753727,-7.455544000000001,-5.2726307,3.4901476000000002,-0.0031957934000000003,-0.10333065,-0.38775626,-19.26,22.92,-39.12
1554107753747,-7.3789296,-5.593454,3.3033997999999998,0.00958738,-0.13315806,-0.30253512,-19.5,22.86,-39.12
1554107753767,-7.067683000000001,-5.7083755,3.5811272000000005,-0.17576863,-0.11824436,-0.26205507,-19.74,22.86,-39.18
1554107753790,-7.1395097000000005,-5.899911400000001,3.3800142,-0.30466563,-0.07350325,-0.25566345,-20.04,22.86,-39.18
1554107753806,-7.0581064,-5.93343,3.2698810000000003,-0.3323625,-0.049002163,-0.23648871,-20.34,22.86,-39.18
1554107753826,-6.9719152,-5.856816,3.4757824,-0.2695119,-0.014913702,-0.21837921,-20.64,22.98,-39.18
1554107753847,-7.1730285,-5.8185085999999995,3.7343562000000006,-0.14274544,-0.05752428,-0.19920446,-20.88,23.04,-39.18
1554107753866,-7.1490865,-5.751471,3.8205473,-0.096939065,-0.12996227,-0.15446335,-21.0,23.16,-39.18
1554107753886,-7.077260000000001,-5.492897,3.6290112,-0.13315806,-0.14594123,-0.10759171,-21.06,23.28,-39.18
1554107753906,-7.1155677,-5.6030307,3.413533,-0.19707392,-0.13102753,-0.036218993,-21.12,23.4,-39.18
1554107753927,-7.1730285,-5.9142766,3.4518404,-0.37710363,-0.12996227,0.11824436,-21.18,23.52,-39.18
1554107753947,-7.1873937,-6.2207346,3.6721067,-0.41758367,-0.094808534,0.1768339,-21.18,23.7,-39.06
1554107753967,-7.1634517,-6.522404,3.4901476000000002,-0.37603834,-0.13954964,0.12996227,-21.24,23.94,-39.0
1554107753986,-6.9144545,-6.206369400000001,3.6577415,-0.33875409999999995,-0.112918034,0.07882957,-21.3,24.18,-38.82
1554107754007,-7.0964136,-5.6269727,4.0695443,-0.2876214,-0.10865697,0.04261058,-21.3,24.42,-38.64
1554107754027,-7.1873937,-5.4354362,4.0264487,-0.20453078,-0.165116,0.07669904,-21.36,24.72,-38.52
1554107754047,-7.201759,-5.737106,2.9059622000000003,-0.12676647,-0.19600865,0.16085494,-21.42,24.96,-38.34
1554107754066,-6.9144545,-5.856816,3.494936,-0.13528858,-0.041545313,0.20453078,-21.48,25.26,-38.16
1554107754086,-6.981492,-5.8185085999999995,3.6242227999999996,-0.1587244,0.012783173500000002,0.11930962,-21.54,25.44,-37.86
1554107754107,-6.9958572,-5.6748567,3.6098576,-0.19281286,0.025566347000000003,0.08948222,-21.6,25.68,-37.56
1554107754127,-7.278373200000001,-5.6221843,3.5763388,-0.22583607,0.039414786,0.17470337,-21.66,25.8,-37.32
1554107754146,-6.95755,-6.0770826,3.164536,-0.28229508,0.056459017,0.24607609,-21.66,25.98,-37.14
1554107754166,-6.981492,-5.957372,3.2411506,-0.31105720000000003,0.07989483,0.1470065,-21.66,26.16,-37.02
1554107754187,-7.0581064,-5.617396,3.0496144,-0.32277513,0.09054748,0.023435817999999997,-21.66,26.34,-36.9
1554107754207,-7.1826053,-5.497685400000001,3.4805707999999997,-0.28229508,0.098004326,0.040480047000000005,-21.66,26.64,-36.78
1554107754227,-7.153875,-5.6700683,3.6481647000000006,-0.18748654,0.084155895,0.10759171,-21.66,26.94,-36.66
1554107754247,-6.991069,-5.8663926,3.1932666000000003,-0.101200126,-0.03089267,0.07456851,-21.6,27.24,-36.66
1554107754267,-7.005433999999999,-5.6461263,2.594716,-0.05965481,-0.10226539,0.02130529,-21.6,27.54,-36.72
1554107754287,-6.837839999999999,-5.6365495,2.867655,-0.06285059999999999,-0.02130529,-0.004261058,-21.54,27.78,-36.78
1554107754306,-6.947973299999999,-5.7179523,3.6433763999999997,0.02876214,0.05752428,-0.056459017,-21.42,28.02,-36.84
1554107754326,-7.273585000000001,-5.880758,3.696049,0.05965481,-0.0053263223,-0.049002163,-21.36,28.2,-36.78
1554107754347,-7.0485296,-5.612607499999999,2.7814639,0.053263225,-0.13315806,-0.040480047000000005,-21.3,28.38,-36.72
1554107754367,-7.077260000000001,-5.583876999999999,2.7335799,0.04580637,-0.083090626,-0.060720075,-21.24,28.38,-36.66
1554107754386,-7.1826053,-5.4498014,3.1214404,0.037284255,-0.039414786,-0.07350325,-21.18,28.44,-36.6
1554107754406,-7.101202000000001,-5.5168395,3.2363622000000003,-0.01917476,-0.02130529,-0.04261058,-21.06,28.44,-36.54
1554107754427,-7.144297999999999,-5.837662,2.7048495,-0.17363810000000002,-0.07563378,0.004261058,-21.06,28.5,-36.48
1554107754446,-6.770802499999999,-5.861604,2.7240029999999997,-0.34621096,-0.00958738,-0.10972224,-20.94,28.5,-36.36
1554107754466,-6.9767036,-5.54557,3.0974984,-0.46019423,0.040480047000000005,-0.17470337,-20.94,28.56,-36.3
1554107754487,-7.2592196,-5.7466826,3.4997244,-0.5251754,0.03834952,-0.09587380000000001,-20.88,28.62,-36.18
1554107754507,-7.374141000000001,-6.3548098,2.8293478,-0.44315,-0.03834952,0.060720075,-20.88,28.8,-36.12
1554107754527,-6.775591,-6.373963400000001,2.4223334999999997,-0.35473305,-0.007456851,0.022370555,-20.82,29.1,-36.0
1554107754547,-6.9144545,-5.7179523,2.5372553,-0.35473305,0.068176925,-0.1470065,-20.82,29.4,-35.82
1554107754566,-7.302314999999999,-5.6269727,2.8772318,-0.40586576,0.051132694000000006,-0.17576863,-20.82,29.7,-35.64
1554107754586,-7.2592196,-5.7945666,2.9059622000000003,-0.39308259999999995,-0.007456851,-0.09374327,-20.82,30.06,-35.46
1554107754608,-7.0102224,-6.000468,2.795829,-0.28122982,-0.08522116,0.014913702,-20.88,30.42,-35.28
1554107754628,-6.770802499999999,-5.895123,2.3936029999999997,-0.08841695,-0.08735169,0.03195793,-20.88,30.72,-35.04
1554107754647,-7.0102224,-5.909488,2.8485014,0.06391586,0.011717908999999999,0.004261058,-20.94,31.02,-34.92
1554107754667,-7.3071036,-6.120178,3.2411506,0.17363810000000002,0.025566347000000003,-0.00958738,-21.0,31.2,-34.8
1554107754687,-7.053317999999999,-5.8903346,2.7814639,0.21198763,-0.07776430000000001,-0.046871635999999994,-21.06,31.26,-34.68
1554107754707,-7.038953,-5.555146700000001,2.5372553,0.13209279,-0.15446335,-0.099069595,-21.12,31.32,-34.62
1554107754726,-6.9144545,-5.5168395,2.235586,-0.039414786,-0.12570119999999999,-0.10652645,-21.18,31.38,-34.56
1554107754747,-7.120356,-6.1345434,3.2076318,-0.19707392,0.008522116,-0.03834952,-21.24,31.38,-34.5
1554107754766,-6.9048777,-6.287772,3.1214404,-0.24714136,-0.056459017,-0.010652645,-21.3,31.38,-34.44
1554107754786,-6.900089299999999,-6.2781954,2.7575218999999995,-0.18216023,-0.112918034,-0.053263225,-21.3,31.44,-34.44
1554107754806,-7.015011,-5.966949,2.5899277,-0.034088463,-0.06285059999999999,-0.07563378,-21.36,31.5,-34.5
1554107754826,-7.101202000000001,-6.081871,2.8149827000000003,0.05539375,0.04474111,-0.004261058,-21.42,31.56,-34.5
1554107754847,-7.168239999999999,-6.3548098,3.494936,0.083090626,0.05219796,0.06285059999999999,-21.42,31.68,-34.5
1554107754867,-7.091625,-6.215946,3.1501707999999997,0.08841695,-0.046871635999999994,-0.004261058,-21.42,31.8,-34.5
1554107754886,-7.038953,-5.852027400000001,2.5276785,0.0053263223,-0.13848437,-0.06178534,-21.42,31.92,-34.5
1554107754906,-6.919242999999999,-5.579088700000001,1.9434932,-0.06924219,-0.13635385,-0.05006743,-21.42,32.04,-34.5
1554107754926,-7.105990400000001,-5.703587000000001,2.6282349,-0.16085494,-0.041545313,0.06391586,-21.42,32.16,-34.5
1554107754947,-6.861782000000001,-5.9477954,2.7383683,-0.22690132,-0.10546118,0.13848437,-21.42,32.16,-34.5
1554107754966,-6.6415157,-5.7706246,2.235586,-0.32597092,-0.12144015,0.15552860000000002,-21.42,32.16,-34.44
1554107754987,-6.8186865,-5.7802014,2.28347,-0.535828,-0.03195793,0.20453078,-21.42,32.22,-34.44
1554107755007,-6.895301,-5.631761,2.6521769,-0.8266452,0.00958738,0.24074976,-21.48,32.22,-34.38
1554107755026,-7.0102224,-5.6748567,2.2260091,-1.1249193000000002,0.04580637,0.23542345,-21.48,32.22,-34.32
1554107755046,-7.029375999999999,-5.899911400000001,1.6370354,-1.2879047,0.053263225,0.1470065,-21.48,32.28,-34.2
1554107755066,-7.0245875999999985,-6.215946,1.7040731,-1.3102753,0.12144015,0.05219796,-21.48,32.58,-33.84
1554107755087,-7.493850999999999,-6.3021374,2.9011737999999996,-1.128115,0.24181503,-0.015978966,-21.42,33.0,-33.48
1554107755106,-7.134721300000001,-6.3979053,2.843713,-0.8841694999999999,0.10013486,-0.12144015,-21.36,33.72,-33.06
1554107755126,-7.105990400000001,-6.7330937,2.2499511,-0.52624065,0.0063915867,-0.19813919,-21.3,34.5,-32.52
1554107755147,-7.043741000000001,-6.4840965,1.9913772,-0.12996227,-0.03834952,-0.23009712,-21.18,35.4,-31.98
1554107755167,-7.1634517,-6.005256,1.8620903000000002,0.15446335,-0.06604639400000001,-0.23116238,-21.12,36.3,-31.38
1554107755187,-7.4507556,-6.225523,1.38325,0.21731395,-0.07243799,-0.13954964,-20.94,37.2,-30.9
1554107755206,-7.168239999999999,-6.6469026,1.881244,0.054328485999999995,-0.04580637,0.025566347000000003,-20.82,38.04,-30.42
1554107755226,-7.019799000000001,-6.546346,1.857302,-0.082025364,-0.036218993,0.060720075,-20.76,38.64,-30.18
1554107755247,-7.2592196,-6.666056,1.8860323,-0.18642128,-0.018109497,-0.004261058,-20.7,39.12,-29.94
1554107755267,-7.350199000000001,-6.215946,2.1254525,-0.24820662,-0.012783173500000002,-0.05219796,-20.7,39.36,-29.76
1554107755286,-7.2640080000000005,-5.966949,1.6944963,-0.23542345,-0.05965481,-0.05965481,-20.76,39.6,-29.7
1554107755306,-7.2209125,-6.2207346,1.6370354,-0.19920446,-0.04580637,-0.037284255,-20.76,39.6,-29.64
1554107755327,-7.0820484,-6.182427400000001,1.6849195,-0.165116,-0.06498113,-0.06285059999999999,-20.82,39.6,-29.58
1554107755346,-7.134721300000001,-6.2446766,1.977012,0.0010652645,-0.03834952,-0.16085494,-20.88,39.54,-29.58
1554107755367,-7.062895,-6.0866594,1.8716671000000003,0.12783173,-0.054328485999999995,-0.23755397,-21.0,39.48,-29.52
1554107755388,-7.216124000000001,-6.3787518,2.1158757,0.21411815,0.008522116,-0.24820662,-21.06,39.36,-29.52
1554107755406,-6.813898,-6.603807000000001,2.0392613,0.1949434,0.051132694000000006,-0.27590349999999997,-21.12,39.18,-29.46
1554107755426,-6.895301,-6.656479400000001,1.2970588,0.11504856,-0.034088463,-0.3568636,-21.24,39.0,-29.46
1554107755447,-7.0341644,-6.488885,1.5508442,0.012783173500000002,-0.011717908999999999,-0.33449304,-21.3,38.88,-29.4
1554107755467,-7.105990400000001,-6.5655,1.6561891,-0.06604639400000001,-0.013848438000000001,-0.17896444,-21.48,38.58,-29.34
1554107755486,-7.216124000000001,-7.0251865,1.881244,-0.1438107,-0.03195793,-0.007456851,-21.72,38.28,-29.34
1554107755506,-6.847417,-7.0491285,1.9578583999999999,-0.099069595,-0.05006743,0.012783173500000002,-21.9,37.98,-29.34
1554107755526,-6.799533,-6.7666125,1.7615339,0.053263225,-0.060720075,-0.08735169,-22.08,37.74,-29.28
1554107755547,-6.9048777,-6.4745197,1.6130934,0.12996227,-0.034088463,-0.13741912,-22.26,37.62,-29.28
1554107755566,-6.9288197,-6.282984,1.9818004,0.14061491,-0.010652645,-0.07669904,-22.38,37.68,-29.28
1554107755586,-7.1490865,-6.2638300000000005,2.1206641,0.14168017,-0.017044231,-0.013848438000000001,-22.5,37.74,-29.28
1554107755607,-7.029375999999999,-6.330868,1.809418,0.24820662,-0.07243799,-0.010652645,-22.56,37.8,-29.28
1554107755626,-6.9862804,-6.373963400000001,1.4167688999999999,0.26631612,-0.053263225,-0.046871635999999994,-22.62,37.92,-29.34
1554107755646,-6.8186865,-6.345233,1.5029601000000001,0.082025364,0.012783173500000002,-0.047936900000000005,-22.62,38.16,-29.34
1554107755667,-6.9288197,-6.503250599999999,2.1110873,-0.09374327,0.05006743,0.007456851,-22.62,38.34,-29.4
1554107755687,-6.7468604999999995,-6.6469026,2.168548,-0.02130529,0.06285059999999999,-0.002130529,-22.56,38.46,-29.4
1554107755706,-6.9383965,-6.689997999999999,1.7423803,0.017044231,0.020240024,-0.02130529,-22.56,38.58,-29.46
1554107755727,-6.837839999999999,-6.517616,1.5029601000000001,0.022370555,0.056459017,-0.040480047000000005,-22.5,38.52,-29.46
1554107755747,-7.1634517,-6.632537400000001,1.881244,0.06924219,0.11717909,-0.025566347000000003,-22.5,38.46,-29.52
1554107755767,-7.3406224,-6.517616,2.0488381,0.10439592,0.11504856,0.049002163,-22.44,38.46,-29.58
1554107755786,-7.2113357,-6.5750766,1.8237831999999998,0.10652645,0.07669904,0.06178534,-22.38,38.4,-29.58
1554107755806,-7.2592196,-6.512827400000001,1.809418,0.07669904,0.06604639400000001,0.0010652645,-22.32,38.34,-29.58
1554107755827,-7.5704656,-6.5607114,1.632247,0.049002163,0.053263225,0.0063915867,-22.2,38.28,-29.58
1554107755847,-7.680599000000001,-6.570288000000001,2.2451627,0.0,0.051132694000000006,0.082025364,-22.14,38.22,-29.58
1554107755867,-7.915230800000001,-6.5511346,2.7383683,0.03195793,-0.056459017,0.1949434,-22.08,38.22,-29.58
1554107755886,-7.8865004,-6.570288000000001,1.584363,0.07243799,-0.24181503,0.3536678,-21.96,38.16,-29.58
1554107755906,-7.8290396,-6.5750766,1.4742297,0.07243799,-0.20772657,0.46871635,-21.78,38.16,-29.58
1554107755928,-8.221688,-6.5990186,2.9586349,0.111852765,-0.12996227,0.56672066,-21.66,38.1,-29.58
1554107755948,-8.231264999999999,-6.4745197,2.8532897999999998,0.12570119999999999,-0.21518342,0.7190535,-21.54,38.1,-29.64
1554107755968,-8.259995,-6.603807000000001,2.2260091,0.11717909,-0.33449304,0.79255676,-21.42,38.1,-29.7
1554107755987,-7.915230800000001,-6.091448000000001,2.1924900000000003,0.1107875,-0.35153726,0.76059884,-21.3,38.1,-29.82
1554107756007,-8.240842,-5.713164,2.5037365,0.1470065,-0.2908172,0.64768076,-21.18,38.22,-29.94
1554107756027,-8.082825,-5.3683987,2.4558525,0.24181503,-0.27164245,0.74781567,-21.12,38.28,-30.06
1554107756047,-7.963114699999999,-5.5695120000000005,2.3888147,0.27803403,-0.25885928,0.9491506,-21.0,38.46,-30.12
1554107756067,-8.178593,-5.703587000000001,2.3840263,0.22903186,-0.24074976,1.0322412,-20.82,38.58,-30.24
1554107756086,-8.087613000000001,-5.5503583,2.235586,0.12463594,-0.22264028,1.0460896000000002,-20.7,38.7,-30.3
1554107756107,-8.556877,-5.4210709999999995,1.9818004,0.015978966,-0.1949434,1.099353,-20.46,38.82,-30.42
1554107756127,-8.667010000000001,-5.2199583,1.8860323,-0.14274544,-0.13954964,1.2058792999999999,-20.04,38.94,-30.42
1554107756148,-8.892064999999999,-5.0810947,2.0488381,-0.28549087,-0.111852765,1.2719258,-19.44,38.94,-30.42
1554107756166,-9.136273,-5.1002483,2.1015105,-0.36325517,-0.099069595,1.4072143999999998,-18.9,38.88,-30.48
1554107756187,-9.208099,-5.1146135,2.3983915000000002,-0.35579833,-0.08522116,1.5403723999999999,-18.24,38.82,-30.48
1554107756207,-8.834603999999999,-4.803367,2.4223334999999997,-0.23861924,-0.18216023,1.5520903,-17.64,38.7,-30.48
1554107756227,-8.63828,-4.209605000000001,2.297835,0.0,-0.29827404,1.5446335,-16.98,38.64,-30.48
1554107756248,-8.662222,-3.4386723,2.4558525,0.28336033,-0.32384038,1.6223978000000001,-16.26,38.64,-30.48
1554107756267,-8.499416,-3.0699651,2.6378117000000003,0.5294364,-0.30146983,1.7651432,-15.54,38.58,-30.48
1554107756287,-8.015787,-2.9981391,2.7000610000000003,0.7073356,-0.32810146,1.8173412,-14.7,38.58,-30.48
1554107756306,-7.852981599999999,-2.4283189999999997,2.5516205000000003,0.7914915,-0.36645097,1.7097494999999998,-13.98,38.58,-30.42
1554107756326,-7.627927000000001,-1.6669630000000002,2.9346926,0.80107886,-0.33875409999999995,1.5297197,-13.2,38.34,-30.36
1554107756346,-7.747636999999999,-0.9008184000000001,2.417545,0.76592517,-0.31957933,1.3709954,-12.48,37.98,-30.42
1554107756366,-7.8386164,-0.29269117,2.7000610000000003,0.69774824,-0.17044231,1.3177321000000002,-11.76,37.62,-30.54
1554107756387,-7.795521000000001,-0.17298107,3.2028434,0.56672066,-0.08735169,1.2836437,-11.04,37.14,-30.72
1554107756407,-7.5704656,-0.0724246,2.8868085999999997,0.3568636,-0.10972224,1.176052,-10.38,36.6,-31.02
1554107756427,-7.489063000000001,0.12389994,2.8628666000000003,0.11824436,-0.11611383,0.9800433000000001,-9.66,36.0,-31.38
1554107756447,-7.776367,0.74639237,2.0344729999999998,-0.08628642,-0.07456851,0.8000136,-9.12,35.22,-31.8
1554107756467,-8.159439,0.42556936,2.7000610000000003,-0.23861924,0.015978966,0.7520766999999999,-8.64,34.44,-32.22
1554107756488,-8.470686,0.25318682,3.0304607999999997,-0.28975195,0.06498113,0.72651035,-8.4,34.08,-32.4
1554107756506,-8.202535000000001,-0.0676362,3.0017304,-0.32170987,0.07989483,0.43249738,-7.74,33.3,-32.88
1554107756526,-8.690952000000001,1.1629834,4.0934862999999995,-0.14487597,0.17363810000000002,0.03195793,-7.26,32.82,-33.0
1554107756547,-9.514558000000001,1.3688848,2.6138697,-0.06391586,0.15126756,-0.022370555,-6.9,32.4,-33.12
1554107756567,-9.083601,-0.32621,2.9011737999999996,-0.29188246,0.2790993,0.3153183,-6.54,32.04,-33.06
1554107756587,-9.232041,-0.65660983,3.1214404,-0.48469532,0.27590349999999997,0.17576863,-6.3,31.86,-32.94
1554107756606,-9.375694000000001,-0.28311434,2.949058,-0.6508765999999999,0.19920446,0.06498113,-6.12,31.8,-32.82
1554107756626,-8.968679,0.02813187,2.7670987,-0.6487460999999999,0.18642128,0.14274544,-6.0,31.92,-32.64
1554107756647,-9.040505,-0.12988544,3.0591912,-0.5475459,0.18855181,0.25140239999999997,-5.88,32.1,-32.46
1554107756667,-9.097966,-0.38845924,3.8157589999999995,-0.32490566,0.10013486,0.27590349999999997,-5.7,32.46,-32.16
1554107756686,-8.853758000000001,-0.13467385,3.1549592,-0.011717908999999999,-0.099069595,0.23116238,-5.52,32.82,-31.92
1554107756706,-8.628703,0.0041898529999999995,2.7814639,0.23755397,-0.15659387,0.1470065,-5.34,33.18,-31.62
1554107756726,-8.767567,0.08559271,2.9825767999999995,0.32490566,-0.12783173,0.03195793,-5.04,33.54,-31.38
1554107756747,-8.628703,0.3824737,2.7575218999999995,0.31105720000000003,-0.07243799,-0.11824436,-4.8,33.84,-31.14
1554107756769,-9.260772,0.8230068000000001,3.0735563999999997,0.18748654,-0.010652645,-0.19068234,-4.56,34.08,-30.96
1554107756786,-9.184157,0.6171055000000001,3.0400376000000002,0.0,0.04261058,-0.06924219,-4.38,34.26,-30.72
1554107756806,-9.006986999999999,0.0712275,3.1118636000000004,-0.080960095,0.12676647,-0.033023197000000004,-4.2,34.26,-30.6
1554107756828,-8.767567,0.023343466,3.2603042,-0.049002163,0.19387813,-0.13422333,-4.14,34.14,-30.6
1554107756847,-9.021352,0.15263036,3.1453824,-0.015978966,0.17576863,-0.26525086,-4.02,34.02,-30.6
1554107756868,-9.260772,0.6314706999999999,2.8101943,-0.013848438000000001,0.083090626,-0.3568636,-4.02,33.96,-30.66
1554107756887,-9.452309,0.43993455,2.2547395,-0.04580637,0.056459017,-0.33768883,-4.02,33.84,-30.6
1554107756907,-9.428367,0.30107087,2.40318,-0.14913702,0.08735169,-0.23009712,-4.02,33.72,-30.6
1554107756927,-9.787497,-0.27353755,2.2499511,-0.27164245,0.13315806,-0.13528858,-4.08,33.66,-30.54
1554107756947,-9.351752000000001,-0.38367084,2.3696610000000002,-0.37710363,0.09161274,-0.11504856,-4.02,33.66,-30.48
1554107756966,-9.615114,-0.11552023,2.498948,-0.43995422,0.11611383,-0.19600865,-4.02,33.72,-30.42
1554107756987,-9.562441999999999,-0.6422445999999999,2.8868085999999997,-0.35792887,0.10226539,-0.10865697,-4.02,33.9,-30.36
1554107757007,-9.524135000000001,-0.4794389,2.7910407000000004,-0.31105720000000003,0.07669904,0.0053263223,-4.02,34.08,-30.3
1554107757026,-9.006986999999999,-0.20171149,2.6282349,-0.38562572,0.10972224,-0.12570119999999999,-4.02,34.14,-30.24
1554107757047,-9.504980999999999,0.12868834,2.2212207000000004,-0.4314321,0.12463594,-0.36751625,-4.02,34.44,-30.24
1554107757067,-9.543288,0.24839842,3.1405939999999997,-0.34727620000000003,0.15126756,-0.11504856,-4.08,34.68,-30.12
1554107757086,-8.734048,-0.7954735,2.8628666000000003,-0.16724652,0.11611383,0.04261058,-4.08,34.98,-29.94
1554107757106,-8.810661999999999,-1.1498153,2.6569653,-0.053263225,0.14807177,-0.18322548,-4.14,35.46,-29.76
1554107757126,-9.097966,-0.6278794,2.5899277,0.03834952,0.16298546,-0.47191215,-4.2,35.88,-29.52
1554107757148,-9.294291000000001,-0.0724246,2.355296,0.09587380000000001,0.15446335,-0.48043427,-4.2,36.24,-29.28
1554107757166,-9.390058999999999,-0.26874915,2.5516205000000003,0.16085494,0.17150758,-0.31957933,-4.2,36.6,-29.04
1554107757186,-9.667786999999999,-0.670975,2.6330232999999996,0.12037488,0.06391586,-0.2695119,-4.26,36.9,-28.74
1554107757206,-9.768343,-0.623091,2.4941597,-0.060720075,-0.10333065,-0.1949434,-4.32,37.14,-28.56
1554107757227,-9.370906,-0.5943606,2.0296845,-0.18429075,-0.22370553,-0.07030745599999999,-4.44,37.38,-28.38
1554107757247,-9.696517,-0.65182143,2.6282349,-0.18109496,-0.18322548,0.083090626,-4.56,37.56,-28.26
1554107757266,-9.68694,-1.3940238999999999,2.4223334999999997,-0.12037488,-0.101200126,0.21411815,-4.68,37.56,-28.2
1554107757287,-9.169792,-1.4466964,2.7575218999999995,-0.18535602,-0.053263225,0.101200126,-4.74,37.56,-28.2
1554107757307,-9.404425,-0.623091,2.891597,-0.221575,-0.098004326,-0.10865697,-4.92,37.5,-28.14
1554107757327,-9.485827,-0.46507367,2.168548,-0.1587244,-0.10546118,-0.03195793,-5.04,37.56,-28.08
1554107757347,-9.289502,-0.6087258000000001,2.6330232999999996,-0.022370555,-0.023435817999999997,0.098004326,-5.1,37.56,-28.08
1554107757366,-9.299078999999999,-0.5129577000000001,3.2172085999999998,0.06178534,-0.0063915867,0.13848437,-5.22,37.62,-28.08
1554107757387,-9.184157,-0.47465047,2.5755625,0.14487597,-0.13635385,0.15020229,-5.16,37.62,-28.02
1554107757406,-9.050082000000002,-0.22086509999999998,2.2307975,0.128897,-0.24181503,0.221575,-5.1,37.68,-28.02
1554107757426,-9.136273,-0.44113165,2.3409307,0.056459017,-0.2130529,0.28016454,-5.1,37.68,-28.02
1554107757446,-9.246407000000001,-0.4985925,2.6569653,0.008522116,-0.14594123,0.22264028,-5.04,37.68,-28.02
1554107757467,-9.179369,-0.12988544,2.7240029999999997,-0.06711166,-0.07030745599999999,0.022370555,-4.98,37.68,-28.08
1554107757489,-9.351752000000001,0.24361002,2.2882583,-0.10652645,-0.07776430000000001,-0.0053263223,-4.98,37.62,-28.14
1554107757507,-9.279925,-0.18255788,2.4893713,-0.18109496,0.0031957934000000003,0.15659387,-4.98,37.56,-28.14
1554107757527,-8.887277000000001,-0.7284359,2.556409,-0.21518342,0.0,0.2034655,-4.92,37.5,-28.2
1554107757546,-9.040505,-0.40761283,2.7766755,-0.22583607,0.0053263223,0.06391586,-4.92,37.44,-28.2
1554107757567,-9.404425,-0.16340427,2.795829,-0.21198763,0.0,0.002130529,-4.86,37.38,-28.26
1554107757587,-9.308656,-0.31184477,2.9969419999999998,-0.14913702,-0.013848438000000001,0.13422333,-4.8,37.32,-28.26
1554107757607,-9.121908,-0.54168814,2.8293478,-0.053263225,-0.06498113,0.1438107,-4.74,37.32,-28.26
1554107757626,-8.968679,0.0712275,2.532467,-0.06711166,-0.035153727999999995,0.018109497,-4.68,37.38,-28.26
1554107757646,-9.375694000000001,0.47824179999999994,2.7575218999999995,-0.08522116,0.04580637,-0.015978966,-4.62,37.44,-28.26
1554107757667,-9.390058999999999,0.23403321,2.6282349,-0.111852765,0.07243799,0.14487597,-4.5,37.5,-28.2
1554107757686,-9.514558000000001,-0.3788824,3.6242227999999996,-0.314253,0.14487597,0.22477080000000002,-4.44,37.62,-28.14
1554107757707,-8.944737,-0.95827925,2.475006,-0.46552056,0.035153727999999995,0.13102753,-4.38,37.68,-28.14
1554107757727,-8.978256,-0.091578215,2.3505075,-0.5368933000000001,0.002130529,-0.11824436,-4.32,37.8,-28.08
1554107757746,-9.040505,0.76554596,2.6521769,-0.33875409999999995,0.034088463,-0.23648871,-4.26,37.86,-27.96
1554107757766,-9.504980999999999,0.008978256,3.09271,-0.027696876000000002,0.07456851,-0.017044231,-4.26,37.92,-27.9
1554107757786,-9.054871,-0.98222125,2.8389246,-0.07882957,0.022370555,0.10013486,-4.26,37.92,-27.78
1554107757807,-8.882488,-0.82899237,2.2260091,-0.21518342,0.06498113,-0.16405073,-4.2,37.98,-27.6
1554107757826,-9.361329,-0.21607670000000004,2.2164322999999997,-0.35899413,0.12783173,-0.257794,-4.2,38.04,-27.42
1554107757846,-9.730036,-0.26874915,2.6569653,-0.37071204,0.11824436,-0.10546118,-4.14,38.16,-27.18
1554107757867,-9.504980999999999,-0.40761283,3.0639796,-0.37710363,0.08628642,0.04580637,-4.08,38.28,-26.88
1554107757887,-9.504980999999999,-0.53211135,2.8389246,-0.33768883,0.05006743,0.049002163,-4.08,38.46,-26.58
1554107757907,-9.313444,-0.8194155000000001,3.0017304,-0.15659387,0.08841695,0.05965481,-4.02,38.76,-26.34
1554107757926,-8.935161,-0.6757634,3.0496144,0.1107875,0.165116,-0.083090626,-3.96,39.0,-26.16
1554107757947,-9.275136999999999,-0.04369418,2.460641,0.4644553,0.15978967,-0.25033715,-3.96,39.42,-25.86
1554107757966,-9.533711,-0.44113165,2.273893,0.7105314,0.26844665,-0.16831179,-3.9,39.72,-25.68
1554107757986,-9.232041,-0.86251116,3.2124202,0.680704,0.32170987,-0.28975195,-3.9,39.84,-25.62
1554107758007,-9.481038999999999,-0.54647654,2.3026235,0.6061354999999999,0.18429075,-0.406931,-3.9,40.14,-25.62
1554107758027,-9.002198,-0.0724246,1.4263457,0.32597092,0.14061491,-0.32490566,-3.96,40.26,-25.62
1554107758047,-8.954314,-0.048482585999999994,1.7567455,0.08522116,0.22796659,-0.35579833,-4.02,40.2,-25.62
1554107758067,-9.3182335,-0.08200141,2.2068555,-0.06711166,0.20879184,-0.46125950000000004,-4.08,40.08,-25.74
1554107758087,-9.710882000000002,-0.83378077,2.0632033,-0.11930962,0.094808534,-0.39521313,-4.08,39.96,-25.74
1554107758107,-9.002198,-0.76195467,2.8963853999999998,-0.2428803,0.02876214,-0.3291667,-4.14,39.9,-25.74
1554107758127,-9.351752000000001,-0.41240123,2.0201077,-0.13209279,0.0031957934000000003,-0.43356264,-4.2,39.84,-25.8
1554107758147,-9.639056,-0.41240123,1.977012,-0.01917476,0.027696876000000002,-0.26738137,-4.26,39.9,-25.92
1554107758167,-9.509769,-1.1210848999999998,1.9099745,0.10226539,-0.0031957934000000003,-0.043675844000000005,-4.26,39.96,-25.98
1554107758188,-9.323022,-1.4036007,1.7950528000000001,0.11824436,-0.13635385,0.06391586,-4.32,40.08,-26.04
1554107758207,-9.639056,-1.2743138,1.8477252,0.037284255,-0.2428803,0.06391586,-4.32,40.32,-25.98
1554107758226,-9.3421755,-1.4802152,2.3888147,-0.128897,-0.2727077,0.14487597,-4.38,40.44,-25.98
1554107758246,-9.188946000000001,-0.9008184000000001,2.6234465,-0.18961707,-0.23968449999999997,0.10226539,-4.68,40.56,-26.04
1554107758266,-9.251195,-0.46986207,2.9969419999999998,-0.16831179,-0.16831179,-0.07882957,-4.92,40.5,-26.04
1554107758286,-9.414000999999999,-0.31663316,2.7527334999999997,-0.13422333,-0.14061491,-0.15659387,-5.22,40.38,-26.1
1554107758307,-9.284714,-0.08678981,2.8149827000000003,-0.094808534,-0.13102753,-0.10226539,-5.46,40.2,-26.16
1554107758326,-9.3421755,-0.02932897,2.5228900000000003,-0.01917476,-0.11611383,-0.07669904,-5.64,39.96,-26.22
1554107758346,-9.160214999999999,-0.21128829999999998,2.6042929,0.07669904,-0.05752428,-0.10865697,-5.76,39.78,-26.22
1554107758367,-8.743625,-0.55605334,2.9203273999999997,0.14061491,0.015978966,-0.20133498,-5.94,39.54,-26.28
1554107758386,-9.816227,-0.670975,2.3409307,0.14594123,-0.004261058,-0.2972088,-6.06,39.36,-26.28
1554107758406,-8.805874000000001,-0.7811083000000001,2.3265655,-0.058589544,-0.0063915867,-0.20559604,-5.94,39.24,-26.28
1554107758426,-9.653421,-1.049259,2.0536265,-0.098004326,-0.06391586,-0.23648871,-5.82,39.24,-26.28
1554107758446,-8.801085,-1.5041572,2.40318,-0.21518342,-0.037284255,-0.15020229,-5.76,39.24,-26.22
1554107758466,-8.949525999999999,-1.2791021999999999,2.5037365,-0.094808534,-0.018109497,-0.25246766,-5.64,39.24,-26.16
1554107758487,-8.614338,-0.84335756,2.5851393,0.04580637,0.036218993,-0.44528055,-5.64,39.36,-26.16
1554107758507,-9.040505,-0.7380127,2.7335799,0.19600865,0.040480047000000005,-0.50813115,-5.64,39.54,-26.16
1554107758527,-8.791509,-0.7667431,2.867655,0.31851408,0.026631612000000002,-0.43356264,-5.64,39.78,-26.16
1554107758546,-8.552089,-0.7763199000000001,2.8868085999999997,0.39308259999999995,0.012783173500000002,-0.46658584,-5.7,40.02,-26.1
1554107758567,-8.805874000000001,-0.88166475,2.6426,0.42290998,-0.00958738,-0.61572284,-5.82,40.32,-26.1
1554107758587,-8.614338,-0.9247603999999999,2.6952724,0.39201729999999996,-0.036218993,-0.7637946,-6.0,40.56,-26.16
1554107758607,-8.700529,-0.9343372,2.9107506,0.3749731,-0.004261058,-0.9076053,-6.3,40.92,-26.22
1554107758627,-8.8777,-1.1737574,2.7575218999999995,0.36005938,0.02876214,-1.0141318000000001,-6.42,41.04,-26.22
1554107758646,-8.90643,-1.5233108,2.5995044999999997,0.30360037,0.060720075,-1.0333065000000001,-6.72,41.22,-26.28
1554107758667,-8.556877,-2.1984756,2.235586,0.21837921,0.084155895,-1.0322412,-7.02,41.28,-26.4
1554107758686,-8.743625,-2.5959132,2.1637597,0.056459017,0.12783173,-1.0599382,-7.32,41.28,-26.58
1554107758706,-8.815451,-2.8592752999999997,2.0967221,-0.051132694000000006,0.16085494,-1.1153319,-7.62,41.22,-26.7
1554107758727,-8.868122999999999,-2.902371,2.1877017000000003,-0.113983296,0.21944448,-1.1195928999999998,-7.92,41.22,-26.82
1554107758747,-8.848969,-3.2615013,1.809418,-0.18535602,0.24927188,-1.0961571,-8.16,41.16,-27.0
1554107758766,-8.6813755,-3.2854433,1.7806876,-0.3270362,0.2972088,-1.0588728,-8.46,41.16,-27.12
1554107758786,-8.911219000000001,-3.5248635000000004,1.8285716,-0.4250405,0.3153183,-1.0141318000000001,-8.94,41.1,-27.18
1554107758807,-8.647857,-3.840898,1.9626468000000001,-0.45060685,0.28336033,-0.9534117,-9.42,41.1,-27.24
1554107758827,-8.738836000000001,-4.214393599999999,1.8668787,-0.4250405,0.26205507,-0.8905610999999999,-9.96,41.1,-27.18
1554107758847,-8.767567,-4.353257,1.809418,-0.39308259999999995,0.24714136,-0.8831041999999999,-10.5,41.16,-27.18
1554107758867,-8.7771435,-4.429871599999999,1.8381484000000001,-0.3536678,0.26418558,-0.87032104,-11.4,41.46,-27.06
1554107758887,-8.772355000000001,-4.563947,1.9243397,-0.28868666,0.29507825,-0.80107886,-12.0,41.76,-27.0
1554107758907,-8.872911,-4.659715,2.1015105,-0.19920446,0.2790993,-0.69987875,-12.54,42.06,-26.94
1554107758928,-8.853758000000001,-4.76506,2.0009542000000002,-0.083090626,0.25353295,-0.5954828000000001,-12.96,42.42,-26.88
1554107758946,-8.896853,-4.7842135,1.8285716,-0.025566347000000003,0.22370553,-0.5187838,-13.14,42.6,-26.82
1554107758966,-8.676587,-4.9422307,1.5316905,-0.002130529,0.22477080000000002,-0.4250405,-13.56,43.26,-26.64
1554107758987,-8.571242,-4.9661726999999996,1.3640964,-0.013848438000000001,0.22903186,-0.40586576,-13.74,43.68,-26.52
1554107759007,-8.374918,-4.8799815,1.5029601000000001,0.012783173500000002,0.221575,-0.44101948,-13.92,44.04,-26.34
1554107759026,-8.394072,-4.812944,1.4981716999999999,0.082025364,0.19920446,-0.45699844,-14.1,44.28,-26.16
1554107759048,-8.025364,-4.5926776,1.4598645000000001,0.17576863,0.16192019,-0.40906155,-14.16,44.52,-26.04
1554107759066,-7.848192999999999,-4.5352163,1.3257892,0.22477080000000002,0.13954964,-0.38775626,-14.28,44.7,-25.86
1554107759086,-7.5800424,-4.530428,1.407192,0.23542345,0.10439592,-0.39947417,-14.46,44.88,-25.74
1554107759107,-7.129933,-4.530428,1.0001777,0.22796659,0.06178534,-0.4857606,-14.58,44.94,-25.74
1554107759126,-6.9623384,-4.4442368,0.9379284999999999,0.14168017,0.01917476,-0.6306366,-14.7,45.0,-25.74
1554107759147,-6.775591,-4.544793599999999,1.1534066,-0.04474111,-0.068176925,-0.773382,-14.88,44.94,-25.8
1554107759167,-6.670246000000001,-4.6261964,1.3736732,-0.21411815,-0.18961707,-0.8948221,-15.06,44.88,-25.92
1554107759187,-6.493075,-4.8799815,1.1821371,-0.3749731,-0.29188246,-1.0365024,-15.36,44.82,-26.1
1554107759206,-6.497863300000001,-5.2582655,1.4598645000000001,-0.5219796,-0.32597092,-1.1899004,-15.66,44.76,-26.22
1554107759226,-6.593631299999999,-5.612607499999999,1.3162124,-0.6593986999999999,-0.3323625,-1.3443637,-15.96,44.64,-26.34
1554107759247,-6.3589997,-6.139332,1.3736732,-0.7797736,-0.24607609,-1.438107,-16.32,44.58,-26.34
1554107759267,-6.143522,-6.541558,1.3736732,-0.8127968000000001,-0.18216023,-1.4935007,-16.8,44.58,-26.22
1554107759287,-6.196194,-6.7330937,1.4838065,-0.84688526,-0.10333065,-1.5393071000000003,-17.52,44.58,-26.04
1554107759307,-6.229712999999999,-6.8575919999999995,1.2156559,-0.8202536,-0.05965481,-1.567004,-18.48,44.64,-25.8
1554107759326,-6.191406,-7.2167225,1.0672153999999998,-0.69987875,-0.008522116,-1.5382419,-19.5,44.7,-25.56
1554107759346,-5.8801594,-7.915829,0.6314706999999999,-0.5933523,0.054328485999999995,-1.4295848999999998,-20.52,44.82,-25.32
1554107759367,-5.8466406,-8.485649,0.86610246,-0.5305017,0.13102753,-1.3891048000000001,-21.54,44.88,-25.02
1554107759387,-5.765238,-8.413822999999999,0.82779527,-0.51984906,0.1587244,-1.4892397,-22.56,44.94,-24.66
1554107759406,-5.837064,-8.18398,0.7846996,-0.51771855,0.16831179,-1.5574166999999999,-23.52,45.0,-24.18
1554107759426,-5.8322754,-8.30369,0.49260699999999996,-0.44634579999999996,0.18216023,-1.4572818,-24.66,45.06,-23.82
1554107759447,-5.635950599999999,-8.595782,0.28191724,-0.36325517,0.21944448,-1.2793826000000001,-25.56,45.06,-23.46
1554107759467,-5.410896,-8.883087,0.15741876,-0.32810146,0.23861924,-1.1824435,-26.4,44.94,-23.16
1554107759487,-5.1666875,-9.007586,-0.17776948,-0.3717773,0.25992453,-1.1930962,-27.12,44.64,-22.74
1554107759507,-5.046977,-8.998009,0.09516951400000001,-0.42184472,0.30786142,-1.2634037,-27.84,44.4,-22.32
1554107759526,-5.0421886,-8.930971000000001,0.54527944,-0.40266997,0.34940675,-1.2825783000000002,-28.62,44.16,-21.84
1554107759547,-5.023035,-8.839992,0.5883751,-0.294013,0.35579833,-1.2048141,-29.46,43.86,-21.48
1554107759566,-4.8267107000000005,-8.897452000000001,0.55006784,-0.18961707,0.35260254,-1.0908308,-30.36,43.5,-21.24
1554107759587,-4.6208089999999995,-9.141661000000001,0.19093758,-0.16618125,0.35260254,-1.0258497,-31.08,42.96,-21.06
1554107759607,-4.189853,-9.261371,-0.20649989,-0.2609898,0.33981937,-1.0056095999999999,-31.68,42.36,-20.88
1554107759627,-4.0701427,-8.998009,-0.46028528,-0.37390783,0.37816888,-0.99282646,-32.28,41.82,-20.76
1554107759647,-3.9935283999999998,-9.496002,-0.7044938000000001,-0.44101948,0.43569317,-0.96619487,-32.88,41.28,-20.7
1554107759667,-3.7110126000000005,-9.634866,-1.0636241000000002,-0.43782368,0.37390783,-1.0045444,-33.72,40.32,-20.76
1554107759687,-3.7158010000000004,-9.735422999999999,-0.96306765,-0.38562572,0.34408042,-1.0173275,-34.02,40.02,-20.88
1554107759706,-3.6966474000000002,-9.788095,-0.7140707,-0.27803403,0.28975195,-0.9651296,-34.56,39.42,-21.0
1554107759726,-3.4332852,-10.137649,-0.7906850999999999,-0.14807177,0.14168017,-0.87351686,-34.98,38.88,-21.12
1554107759747,-3.2082303,-10.137649,-0.98700964,-0.036218993,0.036218993,-0.74035877,-35.58,38.4,-21.24
1554107759766,-3.3087866000000004,-10.180744,-0.8146270999999999,0.034088463,0.039414786,-0.5816344,-35.88,38.1,-21.36
1554107759787,-3.2848446000000004,-10.137649,-0.55605334,0.02130529,-0.0010652645,-0.5422196,-36.12,37.8,-21.36
1554107759806,-3.2752678,-10.065823,-0.7044938000000001,0.007456851,-0.096939065,-0.52837116,-36.36,37.5,-21.42
1554107759826,-3.1411927000000004,-9.898228999999999,-0.7188591,0.037284255,-0.16405073,-0.45699844,-36.6,37.26,-21.48
1554107759847,-3.1124623,-9.812037,-0.87208796,0.060720075,-0.16085494,-0.30892670000000005,-36.84,36.9,-21.42
1554107759866,-2.96881,-9.874286999999999,-0.5177461,0.00958738,-0.13102753,-0.16192019,-37.08,36.54,-21.42
1554107759886,-2.72939,-9.922171,-0.4794389,-0.054328485999999995,-0.12996227,-0.101200126,-37.38,36.12,-21.42
1554107759907,-2.4995465,-10.003573,-0.56563014,-0.10972224,-0.15020229,-0.10652645,-37.74,35.64,-21.42
1554107759927,-2.4277205000000004,-9.673173,-0.53689975,-0.16298546,-0.12783173,-0.07456851,-38.04,35.22,-21.36
1554107759946,-2.480393,-9.625289,-0.66139823,-0.15552860000000002,-0.098004326,-0.012783173500000002,-38.4,34.86,-21.36
1554107759967,-2.4229321,-9.577405,-0.7332243,-0.10546118,-0.09161274,0.05219796,-38.64,34.68,-21.3
1554107759987,-2.2505496,-9.596559,-0.7332243,-0.033023197000000004,-0.08628642,0.07989483,-38.88,34.56,-21.24
1554107760006,-2.1164744,-9.433753,-0.8146270999999999,0.010652645,-0.05219796,0.06178534,-39.0,34.44,-21.18
1554107760026,-2.0829554,-9.294889,-0.96785605,0.004261058,-0.025566347000000003,0.025566347000000003,-39.12,34.44,-21.06
1554107760046,-2.1308396000000003,-9.199121,-0.9103952,0.008522116,-0.008522116,-0.024501082,-39.12,34.56,-21.0
1554107760066,-2.1643584,-9.309255,-1.0253168,-0.023435817999999997,-0.013848438000000001,-0.049002163,-39.18,34.68,-20.94
1554107760086,-2.1691467999999996,-9.424176,-1.0253168,-0.083090626,-0.04261058,-0.060720075,-39.18,34.8,-20.88
1554107760107,-2.1643584,-9.620500999999999,-0.97264445,-0.15446335,-0.053263225,-0.07776430000000001,-39.24,34.92,-20.82
1554107760126,-2.1452047999999997,-9.716269500000001,-0.96306765,-0.23009712,-0.10013486,-0.101200126,-39.36,35.04,-20.82
1554107760146,-2.0829554,-9.759364999999999,-0.82899237,-0.25885928,-0.15020229,-0.10546118,-39.42,35.04,-20.76
1554107760166,-2.0638018,-9.668385,-0.88645315,-0.22796659,-0.20026971,-0.09161274,-39.54,34.92,-20.76
1554107760186,-2.054225,-9.668385,-0.7811083000000001,-0.17576863,-0.22583607,-0.08841695,-39.6,34.68,-20.7
1554107760207,-2.1021092,-9.586982,-0.7954735,-0.13954964,-0.22477080000000002,-0.080960095,-39.72,34.44,-20.58
1554107760226,-2.1212628,-9.467272,-0.57041854,-0.09161274,-0.21731395,-0.09587380000000001,-39.78,34.2,-20.52
1554107760246,-2.1452047999999997,-9.486425,-0.53689975,-0.037284255,-0.21837921,-0.128897,-39.84,33.96,-20.4
1554107760267,-2.1021092,-9.424176,-0.5943606,0.0031957934000000003,-0.221575,-0.15233281,-39.9,33.72,-20.22
1554107760286,-2.1404164,-9.428965,-0.76195467,0.011717908999999999,-0.18429075,-0.14913702,-39.96,33.54,-20.04
1554107760306,-2.3127987,-9.548675,-0.7284359,-0.034088463,-0.11504856,-0.112918034,-40.02,33.36,-19.8
1554107760327,-2.2505496,-9.510367,-0.7428011,-0.084155895,-0.06391586,-0.07776430000000001,-40.08,33.3,-19.62
1554107760347,-2.1739352000000003,-9.610924,-0.7858967,-0.111852765,-0.022370555,-0.051132694000000006,-40.14,33.24,-19.5
1554107760366,-2.1739352000000003,-9.888652,-0.670975,-0.08735169,0.010652645,-0.026631612000000002,-40.2,33.18,-19.38
1554107760386,-2.2122424,-9.903017,-0.7906850999999999,0.002130529,0.033023197000000004,-0.00958738,-40.26,33.18,-19.2
1554107760407,-2.183512,-9.926959,-0.7428011,0.099069595,0.06391586,0.02130529,-40.26,33.18,-19.14
1554107760427,-2.1883004,-9.835979,-0.9008184000000001,0.17789917,0.10013486,0.036218993,-40.26,33.18,-19.08
1554107760450,-2.336741,-9.998785,-1.2503718000000001,0.22477080000000002,0.1107875,0.012783173500000002,-40.26,33.24,-19.14
1554107760467,-2.2744915,-10.061034,-0.7906850999999999,0.25885928,0.12037488,0.0031957934000000003,-40.26,33.3,-19.14
1554107760487,-2.3175871,-10.152014,-0.7140707,0.18961707,0.083090626,0.07989483,-40.2,33.42,-19.14
1554107760508,-2.801216,-10.214263,-0.7906850999999999,0.16618125,0.11930962,0.22370553,-40.2,33.78,-19.2
1554107760526,-3.3183637000000004,-10.190321,-0.6326678000000001,0.15552860000000002,0.16831179,0.34194988,-40.2,34.14,-19.2
1554107760546,-3.8786068,-10.544661999999999,-0.5033809,0.09161274,0.22477080000000002,0.5209143,-40.2,34.44,-19.2
1554107760566,-4.3957543,-10.9899845,-0.28311434,0.05219796,0.23329292,0.7350325,-40.08,34.74,-19.26
1554107760586,-4.534618,-11.148002,0.14784196,0.06285059999999999,0.23329292,0.96086854,-40.02,35.04,-19.32
1554107760606,-4.7309427,-11.334749,-0.0053869537,0.12463594,0.21518342,1.1675298,-39.78,35.28,-19.44
1554107760627,-5.114014599999999,-11.329961,0.032920275,0.19174760000000002,0.16298546,1.3859091000000001,-39.42,35.52,-19.56
1554107760647,-5.45878,-11.071387,0.018555064,0.31638354,0.09161274,1.6298546,-39.06,35.7,-19.62
1554107760667,-5.635950599999999,-10.793660000000001,0.13826515,0.46658584,0.024501082,1.8801918000000002,-38.52,35.88,-19.74
1554107760686,-5.616797,-10.468048,0.05686229,0.6306366,-0.06498113,2.1038973,-37.8,36.3,-19.86
1554107760706,-5.645528,-10.128072,0.08080431,0.7680557,-0.13102753,2.3180156000000003,-36.78,36.84,-19.98
1554107760726,-5.664681400000001,-9.907805,-0.16819267,0.9289106,-0.13422333,2.4937842,-35.76,37.62,-20.1
1554107760747,-5.683835,-9.376292,-0.10594343,1.0396981,-0.13635385,2.5992452999999998,-34.5,38.46,-20.28
1554107760767,-5.707777,-8.227076,0.02813187,1.1366372,-0.14913702,2.6130936,-33.24,39.36,-20.46
1554107760787,-5.674258,-7.662044,0.16220717,1.1899004,-0.13635385,2.6141589,-31.98,40.32,-20.82
1554107760806,-5.645528,-6.9342065,0.46866497,1.3092101,-0.1470065,2.5726137000000002,-30.6,41.34,-21.24
