TimeStamp,Ax,Ay,Az,Gx,Gy,Gz,Mx,My,Mz
1554103584452,7.1395097000000005,-11.186309,-2.60549,3.3140377999999995,-1.3912354,2.1497037,-10.62,32.82,43.68
1554103584471,6.871359,-10.932524,-3.1800982999999996,3.7934067000000002,-1.5137408,2.5353293,-9.84,31.92,44.22
1554103584491,6.789956,-10.477625,-3.256713,3.6400087,-1.6053536,2.8250813,-9.0,32.04,44.46
1554103584511,6.732495299999999,-10.13286,-3.7786489000000003,2.8538435,-1.7385116000000003,3.0839404999999998,-7.86,33.42,44.52
1554103584531,6.8091097000000005,-11.416152,-2.9646204,1.8748653999999998,-1.8876486000000001,3.2724924,-6.54,35.64,44.28
1554103584551,6.4739213,-12.158355,-2.380435,1.4008228,-2.014415,3.4951327000000005,-4.86,38.34,43.86
1554103584570,6.0860605,-12.369044,-2.0548236,1.3113406,-2.13479,3.7167077000000006,-3.06,41.46,43.38
1554103584591,5.4683566,-12.402563,-2.1601684,1.510545,-2.267948,3.914847,-0.06,46.26,42.6
1554103584610,5.066130599999999,-12.766482,-2.1170728,1.7566210999999998,-2.3552997,4.0746364999999996,2.16,49.38,42.06
1554103584630,4.486733999999999,-12.661138000000001,-1.9973627,1.9121496999999998,-2.392584,4.20886,3.42,50.76,41.7
1554103584650,3.9217023999999996,-12.455235499999999,-1.6095021,1.9686086999999999,-2.4543692999999998,4.4304347,7.38,53.76,40.5
1554103584670,3.3470940000000002,-12.105682,-1.5089456,1.9014970000000002,-2.4596956000000003,4.581702,10.14,54.78,39.42
1554103584690,2.6288335,-12.32116,-1.3461398999999998,1.808819,-2.4351945,4.721252,13.02,55.44,38.28
1554103584710,2.0159178,-11.708245,-1.0923545000000001,1.6745956999999998,-2.4064324,4.900216599999999,15.84,55.74,36.9
1554103584731,1.2593501,-11.248558000000001,-0.6326678000000001,1.5361114,-2.3787355,5.005677700000001,18.78,55.38,35.28
1554103584750,0.48841715,-10.688315,0.12868834,1.4519554,-2.3563650000000003,5.0131345000000005,21.66,54.18,33.3
1554103584770,0.13407529999999998,-9.821614,0.54527944,1.4530207,-2.336125,5.0003514000000004,24.36,52.26,31.14
1554103584790,-0.17717093,-8.796896,0.5979519,1.5254587,-2.223207,4.942826999999999,26.7,49.68,28.86
1554103584810,-0.5315128,-8.136096,0.5117606,1.5531555000000001,-2.0570256999999996,4.906608,28.74,46.62,26.64
1554103584831,-1.0821792,-7.211933999999999,0.6697779,1.5574166999999999,-1.8450380000000002,4.8522796999999995,30.54,42.84,24.54
1554103584850,-1.2737153,-6.5607114,1.2252326999999998,1.5243934,-1.6532904,4.7809067,31.92,38.46,22.44
1554103584870,-1.0295067,-5.5695120000000005,2.3696610000000002,1.3390374,-1.4668691,4.6786413,33.12,33.48,20.4
1554103584890,-0.7278373,-4.458602,2.7383683,1.2921658,-1.2144015,4.485828400000001,33.96,28.2,18.36
1554103584911,-1.1013328000000002,-3.2136172999999997,2.9921536,1.3177321000000002,-0.86179894,4.24934,34.44,22.98,16.56
1554103584930,-1.6711528000000002,-2.461838,3.0304607999999997,1.2048141,-0.52624065,3.9787626000000005,34.68,17.82,14.94
1554103584950,-2.27928,-1.738789,3.2890346,0.89162636,-0.24820662,3.6858150000000003,34.74,12.66,13.62
1554103584970,-2.6767175,-0.9008184000000001,3.5859156000000003,0.57098174,-0.039414786,3.3161682999999997,34.32,7.5,12.42
1554103584990,-3.1268275,-0.05327099,4.064756,0.330232,0.111852765,2.8399951,33.72,2.76,11.4
1554103585011,-3.3662476999999997,0.10474633,4.8979383,0.06924219,0.24394555,2.1603562999999997,32.94,-1.68,10.56
1554103585030,-4.4005427,-0.27353755,5.415086,-0.10759171,0.32384038,1.7086842,31.98,-5.76,9.9
1554103585050,-5.913678,-0.24480712,6.712743,-0.30892670000000005,0.35899413,1.2314457,30.96,-9.36,9.48
1554103585070,-6.7851677,-0.96785605,7.1963716,-0.26525086,0.38029942,1.0024139,29.88,-12.36,9.12
1554103585091,-7.6710224,-0.27353755,7.6464815,0.011717908999999999,0.36325517,0.6870956,28.68,-14.88,8.82
1554103585110,-8.087613000000001,-0.3597288,7.603386,0.39734364,0.39414784,0.28229508,27.54,-16.8,8.58
1554103585131,-8.015787,-0.05805939,6.5068417,0.60720074,0.34301516,0.26205507,26.82,-18.3,8.4
1554103585150,-8.063671000000001,-0.0724246,6.1620764999999995,0.47936899999999993,0.3153183,0.36005938,26.16,-19.5,8.28
1554103585170,-8.39886,-0.13946225,5.472546599999999,0.30466563,0.2609898,0.28016454,25.68,-20.4,8.28
1554103585191,-8.1402855,-0.024540568,5.0798974,0.08948222,0.19813919,0.26525086,25.26,-21.06,8.34
1554103585210,-7.6949644,0.18136078,4.8165355000000005,-0.05539375,0.11611383,0.20453078,24.84,-21.42,8.4
1554103585231,-7.273585000000001,0.02813187,4.32333,-0.19387813,0.034088463,0.096939065,24.54,-21.78,8.58
1554103585250,-7.5608889999999995,-0.05327099,4.419098,-0.27164245,-0.04580637,-0.06711166,24.36,-22.08,8.82
1554103585271,-7.584830800000001,-0.26396075,4.687248,-0.44741106,-0.10013486,-0.11611383,24.18,-22.32,9.06
1554103585292,-7.920019,-0.84814596,5.558737799999999,-0.62744075,-0.054328485999999995,-0.10972224,24.06,-22.5,9.24
1554103585311,-7.5034279999999995,-1.4562732,5.6497173,-0.54435015,-0.053263225,-0.10546118,23.88,-22.68,9.48
1554103585330,-7.8625584,-0.46507367,5.6880245,-0.14913702,-0.017044231,-0.28122982,23.76,-22.86,9.54
1554103585350,-7.690175999999999,-0.7140707,5.213972599999999,-0.12144015,0.01917476,-0.30146983,23.64,-22.98,9.6
1554103585371,-7.891288799999999,-0.83856916,5.209184,-0.1438107,0.07776430000000001,-0.29614353,23.52,-23.1,9.54
1554103585390,-7.6949644,-0.45070848,5.2618566,-0.20453078,0.094808534,-0.34194988,23.46,-23.04,9.36
1554103585410,-7.2065472999999995,-0.19213470000000002,5.252279799999999,-0.28975195,0.14274544,-0.4079963,23.46,-22.92,9.18
1554103585431,-7.015011,-0.5847838000000001,5.089474,-0.2908172,0.19281286,-0.5613944000000001,23.4,-22.8,8.94
1554103585450,-7.077260000000001,-0.85293436,4.988918,-0.24074976,0.19920446,-0.74248934,23.4,-22.62,8.7
1554103585471,-7.1873937,-0.8194155000000001,4.9506106,-0.11611383,0.17470337,-0.9108011,23.46,-22.44,8.46
1554103585491,-6.8809357,-0.7428011,4.6393642,-0.06285059999999999,0.12037488,-1.0855045,23.46,-22.2,8.28
1554103585510,-6.3111157,-0.7236475,4.6393642,-0.112918034,0.04474111,-1.2719258,23.52,-21.9,8.16
1554103585531,-5.985504,-1.2120646000000002,4.7782279999999995,-0.18642128,-0.02876214,-1.4775218,23.58,-21.36,8.1
1554103585550,-5.841851999999999,-1.7914615000000003,4.8069587,-0.25566345,-0.098004326,-1.6927053,23.88,-20.7,8.1
1554103585570,-5.626374,-2.3469162,4.869208,-0.30892670000000005,-0.15552860000000002,-1.9228023,24.24,-19.92,8.16
1554103585590,-5.430049400000001,-2.2942438,5.0846860000000005,-0.330232,-0.19600865,-2.139051,24.72,-18.9,8.16
1554103585611,-5.363012,-2.1888987999999996,4.8165355000000005,-0.37284255,-0.24607609,-2.396845,25.5,-16.92,8.28
1554103585631,-5.961562000000001,-2.3469162,4.4861355000000005,-0.386691,-0.23968449999999997,-2.5545042000000002,25.8,-16.08,8.28
1554103585651,-6.0716953,-2.7443538,4.8261123,-0.41438788,-0.20133498,-2.7622306,26.46,-14.16,8.34
1554103585671,-4.817133999999999,-4.6261964,4.56275,-0.350472,-0.19174760000000002,-3.0104373,27.78,-10.92,8.4
1554103585692,-4.0940847,-5.3540335,4.7255554,-0.39308259999999995,-0.14274544,-3.064766,28.8,-8.52,8.52
1554103585711,-4.5681367,-5.143344,4.6680946,-0.25672874,-0.06498113,-3.1148333999999998,29.7,-6.0,8.58
1554103585731,-5.066130599999999,-4.573524,3.9929300000000003,-0.02130529,-0.07137272,-3.2565134,30.6,-3.24,8.7
1554103585751,-4.7022123,-4.7267528,3.8397010000000003,0.06604639400000001,-0.10652645,-3.3736925,31.02,-1.8,8.76
1554103585772,-3.5865142,-5.535993,3.4422636,-0.21944448,-0.23435818,-3.6591834999999997,32.22,2.88,8.94
1554103585791,-2.255338,-6.546346,3.7056258,-0.6785734,-0.25672874,-3.7028592000000002,33.0,6.42,9.12
1554103585810,-2.1787236,-6.9677253,3.9881415000000002,-1.2218584,-0.18642128,-3.6783580000000002,33.66,10.02,9.3
1554103585830,-2.327164,-7.0826473,4.0934862999999995,-1.1877699,-0.08948222,-3.709251,34.08,13.68,9.54
1554103585850,-2.0733786,-6.986878999999999,3.7487214,-0.6103965,-0.08735169,-3.8349519999999995,34.38,17.52,9.78
1554103585871,-1.2880806,-7.5566993,3.0496144,-0.05752428,-0.12250541,-3.995807,34.56,21.54,10.14
1554103585890,0.23463176,-8.102577,2.4702177000000005,-0.30466563,-0.21837921,-4.0703754,34.62,25.68,10.38
1554103585910,1.8148049,-8.653243,2.273893,-0.98750013,-0.27590349999999997,-4.0618534,34.68,29.94,10.68
1554103585931,2.0015526,-8.567052,2.5611973,-1.3720607,-0.22903186,-3.9798281,34.56,34.14,11.1
1554103585950,1.5897499,-8.313267,2.7910407000000004,-1.320928,-0.19707392,-3.9446742999999995,34.26,37.98,11.52
1554103585971,2.6719291000000003,-9.093777000000001,2.0296845,-1.2367721,-0.29294774,-4.158792500000001,33.6,41.94,12.06
1554103585990,4.1276035,-9.017161999999999,1.6274586000000002,-1.5084145,-0.35579833,-4.2557316,32.64,45.9,12.54
1554103586010,6.0142345,-8.96449,2.5899277,-1.8066885,-0.31957933,-4.297276999999999,31.32,49.62,13.08
1554103586031,6.3829417,-9.44333,3.5045127999999997,-0.99069595,-0.13848437,-4.454936,29.82,53.16,13.56
1554103586050,6.6750345,-9.98442,3.1214404,0.014913702,-0.1107875,-4.5337653,27.96,56.46,14.22
1554103586071,8.37013,-9.395446000000002,2.1206641,0.26312032,-0.23755397,-4.584898,25.8,59.58,14.88
1554103586091,9.773131,-7.791331,1.7471686999999998,-0.20879184,-0.34621096,-4.5103297,23.52,62.46,15.48
1554103586110,10.716447,-7.1113777,1.9243397,-0.8628642,-0.32384038,-4.4645233,20.94,64.98,16.02
1554103586130,11.405977,-7.4992385,2.4797945,-1.1526161,-0.2066613,-4.3558664,18.24,67.08,16.44
1554103586153,12.181697999999999,-7.9876556,2.6617537000000002,-1.0950918,-0.099069595,-4.1460094,15.6,68.88,16.86
1554103586172,12.5025215,-8.045116,3.245939,-0.8948221,0.018109497,-3.9990027,12.96,70.26,17.16
1554103586191,12.028469,-7.0730705,3.2746694,-0.51026165,0.17363810000000002,-3.5547873999999995,10.14,71.34,17.4
1554103586211,11.453861,-7.015609700000001,3.245939,-0.3206446,0.21837921,-3.08181,7.26,72.12,17.64
1554103586231,10.850522,-6.536769400000001,3.0496144,-0.18642128,0.23009712,-2.5608957,4.56,72.54,17.76
1554103586251,10.189722,-5.856816,2.9442697,-0.21624869,0.2034655,-2.0048277,1.92,72.66,17.94
1554103586271,9.485827,-5.1624975,2.5276785,-0.40373522,0.15339808,-1.4892397,-0.48,72.54,18.06
1554103586291,9.255983,-5.248688700000001,2.5420437000000002,-0.7105314,0.094808534,-1.0695255,-2.7,72.0,18.24
1554103586311,9.074024,-5.253476999999999,2.4941597,-0.97045594,0.10865697,-0.7414241,-4.68,71.34,18.42
1554103586331,8.858546,-5.478532,2.508525,-0.9651296,0.14913702,-0.5603291,-6.36,70.56,18.6
1554103586351,8.7292595,-5.248688700000001,2.4510639,-0.7680557,0.2130529,-0.46125950000000004,-7.62,69.78,18.78
1554103586370,8.714894000000001,-5.224746700000001,2.1733365,-0.47936899999999993,0.2908172,-0.4101268,-8.52,69.06,19.02
1554103586390,8.5473,-5.2103815,2.0009542000000002,-0.14913702,0.3717773,-0.38242993,-9.3,68.28,19.32
1554103586411,8.552089,-4.875193,1.9099745,0.10865697,0.43356264,-0.36005938,-10.02,67.26,19.92
1554103586430,8.604761,-4.482544,1.809418,0.12144015,0.47936899999999993,-0.31212249999999997,-10.32,66.9,20.34
1554103586450,8.834603999999999,-4.152144399999999,1.5269021,0.015978966,0.49641323,-0.24181503,-10.38,66.78,20.52
1554103586471,8.892064999999999,-4.0420110000000005,1.5508442,-0.294013,0.51984906,-0.07030745599999999,-10.56,66.6,21.12
1554103586491,8.614338,-3.9797617999999995,1.3736732,-0.5816344,0.5049353,0.12783173,-10.74,66.54,21.42
1554103586510,8.51857,-4.085107,1.5556326,-0.8223841999999999,0.46019423,0.30466563,-10.92,66.42,21.72
1554103586530,8.499416,-4.3388919999999995,1.7615339,-0.93636745,0.40053943,0.45380265,-11.04,66.24,21.9
1554103586552,8.556877,-4.377199,2.0871453,-0.8032094,0.33555830000000003,0.5933523,-11.16,66.06,21.96
1554103586570,8.576031,-4.3580456,1.977012,-0.5837649,0.27696875,0.6530071,-11.28,65.94,21.9
1554103586591,8.8777,-4.147355999999999,1.977012,-0.28336033,0.20133498,0.6988135,-11.4,65.82,21.9
1554103586611,8.959103,-4.018069000000001,1.6897078999999997,-0.03195793,0.12463594,0.70200926,-11.46,65.7,21.96
1554103586631,9.006986999999999,-3.9318779000000004,1.929128,0.16298546,0.07030745599999999,0.67537767,-11.4,65.58,22.02
1554103586651,8.939949,-3.8361096,1.6705543,0.32810146,0.027696876000000002,0.62531024,-11.34,65.58,22.2
1554103586670,8.954314,-3.7499184999999997,1.8956091,0.41545314,-0.0063915867,0.58696073,-11.1,65.64,22.38
1554103586691,8.872911,-3.5727474999999997,1.9099745,0.4889564,-0.023435817999999997,0.5518069999999999,-10.86,65.82,22.56
1554103586711,8.791509,-3.4626143,1.9339164,0.49747851,-0.039414786,0.52411014,-10.56,66.06,22.68
1554103586730,8.700529,-3.3524809999999996,1.9195513,0.44847634,-0.07030745599999999,0.5113269,-10.26,66.24,22.8
1554103586751,8.805874000000001,-3.3764230000000004,1.9865887999999998,0.35579833,-0.13528858,0.47723848,-9.9,66.48,22.8
1554103586770,8.844180999999999,-3.4482489999999997,2.0679917000000003,0.26844665,-0.17150758,0.45486793,-9.54,66.72,22.62
1554103586790,8.791509,-3.4099417,2.3409307,0.26312032,-0.20985709,0.45060685,-9.12,66.9,22.32
1554103586811,8.734048,-3.3716345000000003,2.4079683,0.27696875,-0.24820662,0.43249738,-8.76,67.14,22.02
1554103586831,8.571242,-3.4099417,2.532467,0.26738137,-0.30679616,0.41864893,-8.46,67.38,21.72
1554103586850,8.504205,-3.5535938999999996,2.6426,0.28975195,-0.37390783,0.37923414,-8.1,67.74,21.36
1554103586870,8.532935,-3.6780925000000004,2.8580782000000005,0.40266997,-0.43462790000000007,0.30999196,-7.68,68.04,21.06
1554103586891,8.504205,-3.7403417,2.9011737999999996,0.60933125,-0.45699844,0.23542345,-7.26,68.4,20.76
1554103586911,8.499416,-3.5296519,3.1214404,0.8032094,-0.45699844,0.16831179,-6.9,68.76,20.58
1554103586931,8.571242,-3.4051532999999994,2.8628666000000003,0.90973586,-0.44315,0.10759171,-6.54,69.06,20.46
1554103586951,8.451532,-3.3907879999999997,3.0496144,0.95128113,-0.42184472,0.051132694000000006,-6.24,69.36,20.28
1554103586971,8.590396,-3.3716345000000003,2.9394810000000002,0.9406285,-0.40266997,0.00958738,-5.94,69.6,20.1
1554103586992,8.63828,-3.4386723,2.8868085999999997,0.88203895,-0.35473305,-0.024501082,-5.7,69.78,19.74
1554103587010,8.585608,-3.1848867000000003,2.6426,0.80747044,-0.28229508,-0.011717908999999999,-5.46,69.78,19.38
1554103587032,8.566454,-3.127426,2.7240029999999997,0.6711166000000001,-0.20026971,0.014913702,-5.4,69.84,18.96
1554103587052,8.422802,-3.1082723,2.7670987,0.46871635,-0.13315806,0.08735169,-5.28,69.9,18.48
1554103587071,8.317456,-3.1705215,2.6952724,0.25566345,-0.099069595,0.17363810000000002,-5.22,69.96,18.0
1554103587091,8.499416,-3.3859997,2.6856956000000003,0.035153727999999995,-0.06711166,0.28868666,-5.22,70.08,17.52
1554103587111,8.805874000000001,-3.6254199000000003,2.4893713,-0.22690132,-0.012783173500000002,0.43782368,-5.16,70.2,17.1
1554103587131,8.791509,-3.7882257000000004,2.3600842999999996,-0.4825648,0.051132694000000006,0.61678815,-5.16,70.26,16.74
1554103587151,8.7532015,-3.9653966,2.4893713,-0.6508765999999999,0.10546118,0.809601,-5.1,70.32,16.44
1554103587170,8.39886,-4.4442368,2.5276785,-0.6711166000000001,0.11930962,0.9651296,-5.04,70.44,16.26
1554103587191,8.39886,-4.482544,2.891597,-0.6125271,0.08628642,1.0418286,-4.98,70.38,16.14
1554103587211,8.350976,-4.496909,2.5468319999999998,-0.49002165,-0.004261058,1.0173275,-4.62,70.38,16.08
1554103587230,8.413225,-4.5687356,2.5899277,-0.39947417,-0.05219796,0.99282646,-4.38,70.44,16.2
1554103587250,8.346188,-4.5352163,2.6569653,-0.23542345,-0.11930962,0.9012136999999999,-3.48,70.62,16.62
1554103587271,8.360553,-4.415506400000001,2.843713,0.00958738,-0.2066613,0.69987875,-2.88,70.74,16.92
1554103587291,8.37013,-4.4442368,2.7623102999999998,0.16937704,-0.24927188,0.5422196,-2.16,70.92,17.34
1554103587310,8.336611,-4.156933,2.891597,0.31638354,-0.26631612,0.38349520000000004,-1.38,71.1,17.7
1554103587331,8.312667999999999,-3.9653966,3.0974984,0.44528055,-0.26525086,0.21837921,-0.66,71.28,18.12
1554103587350,8.341399000000001,-3.8935703999999998,3.1597476,0.48363006,-0.22690132,0.05539375,0.12,71.46,18.42
1554103587370,8.111555000000001,-3.6733038000000002,3.4757824,0.42397526,-0.15233281,-0.113983296,0.78,71.64,18.72
1554103587390,8.025364,-3.5296519,3.2890346,0.27483824,-0.060720075,-0.24714136,1.14,71.76,18.72
1554103587411,7.987056699999999,-3.3045970000000002,3.2507273999999997,-0.004261058,0.033023197000000004,-0.38456047,1.38,71.82,18.66
1554103587431,7.97748,-3.256713,3.2650926,-0.3568636,0.13635385,-0.50173956,1.62,71.82,18.6
1554103587451,7.9104424,-3.4147300000000005,3.2363622000000003,-0.66579026,0.23755397,-0.5997439,1.62,71.88,18.48
1554103587471,8.236053,-3.5057099999999997,3.1453824,-0.8149273,0.3057309,-0.68389976,1.56,71.88,18.36
1554103587491,8.269572,-3.8073792,3.1836896,-0.89375687,0.38029942,-0.82557994,1.44,71.88,18.24
1554103587510,8.446744,-3.8073792,3.1358056,-0.8607336999999999,0.4101268,-0.96939063,1.2,71.88,18.18
1554103587530,8.738836000000001,-3.8265328000000003,3.116652,-0.76912093,0.39521313,-1.1121361,0.96,71.88,18.18
1554103587551,8.920795,-3.9558197999999996,2.9346926,-0.6242449999999999,0.35792887,-1.2474246999999998,0.66,71.82,18.3
1554103587571,9.112331,-4.0037036,2.9346926,-0.43569317,0.3270362,-1.3337111000000001,0.3,71.76,18.42
1554103587590,9.284714,-3.8696284,2.8293478,-0.21624869,0.30040458,-1.3933659,-0.12,71.64,18.6
1554103587611,9.289502,-3.7355532999999994,2.8389246,0.010652645,0.28868666,-1.3901701000000002,-0.72,71.52,18.84
1554103587631,9.241617999999999,-3.6206315000000004,2.747945,0.101200126,0.29294774,-1.3411678999999999,-1.56,71.34,19.08
1554103587651,9.303867,-3.4147300000000005,2.5516205000000003,0.06924219,0.30679616,-1.2516857,-2.46,71.04,19.44
1554103587675,9.313444,-3.3572693,2.417545,0.0010652645,0.31851408,-1.196292,-2.88,70.8,19.56
1554103587691,9.227253,-3.4099417,2.475006,-0.17576863,0.34940675,-1.0620687,-3.78,70.38,19.8
1554103587710,9.203311,-3.2471360000000002,2.3888147,-0.52624065,0.38136467,-0.8447546999999999,-5.28,69.6,20.04
1554103587730,9.141062,-3.3476925000000004,2.321777,-0.7616641,0.406931,-0.7105314,-6.24,69.12,20.22
1554103587751,8.99741,-3.2998084999999997,2.3936029999999997,-0.9619338,0.4261058,-0.5901565,-7.2,68.52,20.28
1554103587770,8.916007,-3.4961330000000004,2.235586,-1.107875,0.4282363,-0.4878911,-7.86,67.8,20.4
1554103587791,8.671799,-3.342904,2.441487,-1.1419635000000001,0.44634579999999996,-0.4101268,-8.34,67.14,20.46
1554103587811,8.485051,-3.4961330000000004,2.2930467,-1.0950918,0.43356264,-0.34940675,-8.76,66.54,20.58
1554103587831,8.413225,-3.5631707,2.6569653,-1.0002834,0.39627838,-0.3270362,-9.24,66.06,20.76
1554103587852,8.475474,-3.4290953,2.441487,-0.85327685,0.33662358,-0.34301516,-9.72,65.58,21.12
1554103587871,8.461109,-3.4051532999999994,2.417545,-0.74248934,0.2790993,-0.38136467,-10.08,65.22,21.6
1554103587891,8.532935,-3.5823242999999994,2.6665419999999997,-0.6625945,0.23968449999999997,-0.4282363,-10.44,64.8,22.02
1554103587911,8.51857,-3.5057099999999997,2.6330232999999996,-0.5858955,0.21411815,-0.46978164,-10.86,64.38,22.5
1554103587931,8.595184,-3.4913447,2.4702177000000005,-0.53476274,0.19920446,-0.48682585,-11.28,64.02,22.98
1554103587951,8.647857,-3.4099417,2.5611973,-0.5219796,0.18642128,-0.46339005,-11.64,63.66,23.46
1554103587970,8.767567,-3.4099417,2.6761188999999996,-0.5539375,0.16618125,-0.41545314,-12.0,63.24,23.88
1554103587990,8.916007,-3.6206315000000004,2.915539,-0.59761333,0.14274544,-0.36005938,-12.3,62.64,24.24
1554103588011,8.858546,-3.6349967000000003,2.9299042,-0.57098174,0.12250541,-0.27057716,-12.78,61.74,24.66
1554103588030,8.872911,-3.4578260000000003,2.8532897999999998,-0.535828,0.12783173,-0.20772657,-12.96,61.5,24.84
1554103588050,8.63828,-3.481768,2.9682117000000003,-0.46871635,0.13635385,-0.07456851,-13.38,60.6,25.32
1554103588071,8.6813755,-3.4961330000000004,3.0496144,-0.43995422,0.15659387,0.025566347000000003,-13.68,60.06,25.74
1554103588090,8.667010000000001,-3.4099417,2.949058,-0.42397526,0.1768339,0.08522116,-13.8,59.82,25.98
1554103588110,8.652645,-3.3189620000000004,2.9586349,-0.42930159999999995,0.19813919,0.13102753,-14.1,59.34,26.46
1554103588131,8.51857,-3.151368,2.949058,-0.46552056,0.22903186,0.14061491,-14.46,58.92,27.0
1554103588150,8.470686,-3.2471360000000002,3.044826,-0.46552056,0.23968449999999997,0.12570119999999999,-14.58,58.8,27.18
1554103588171,8.580819,-3.0747535,2.891597,-0.48149952,0.23861924,0.082025364,-14.76,58.56,27.72
1554103588191,8.623915,-3.0891187,2.7335799,-0.48682585,0.24607609,0.06285059999999999,-14.82,58.44,28.08
1554103588210,8.619126,-3.0268695,2.9346926,-0.48149952,0.25033715,0.04261058,-14.82,58.38,28.26
1554103588230,8.7292595,-3.141791,2.6809072,-0.5006742999999999,0.2428803,0.03195793,-14.76,58.26,28.56
1554103588251,8.686164,-2.9502552000000004,2.8341362,-0.49747851,0.2428803,0.0,-14.7,58.14,28.86
1554103588271,8.643068,-3.0364463,2.7096379,-0.50173956,0.221575,-0.011717908999999999,-14.64,58.02,29.04
1554103588291,8.580819,-3.1561562999999997,2.6617537000000002,-0.49854377,0.18642128,-0.02876214,-14.64,57.9,29.16
1554103588311,8.504205,-3.103484,2.7240029999999997,-0.4282363,0.12037488,-0.101200126,-14.58,57.54,29.46
1554103588330,8.485051,-3.2136172999999997,2.9346926,-0.350472,0.07989483,-0.17576863,-14.52,57.24,29.7
1554103588350,8.542512,-3.3333273,2.9969419999999998,-0.28122982,0.04474111,-0.23116238,-14.52,56.94,29.82
1554103588371,8.643068,-3.3859997,2.9730000000000003,-0.18002969,0.015978966,-0.32490566,-14.52,56.7,30.0
1554103588391,8.556877,-3.3045970000000002,3.0017304,-0.10972224,0.034088463,-0.41864893,-14.52,56.34,30.12
1554103588410,8.643068,-3.4865562999999993,3.3800142,-0.07030745599999999,0.04580637,-0.47191215,-14.64,56.04,30.24
1554103588431,8.599973,-3.5631707,3.4422636,-0.07669904,0.03834952,-0.5091964,-14.7,55.74,30.36
1554103588451,8.619126,-3.520075,3.4422636,-0.07776430000000001,0.002130529,-0.55287224,-14.88,55.5,30.48
1554103588471,8.6813755,-3.5871127,3.4662056000000003,-0.07989483,-0.018109497,-0.55287224,-15.12,55.26,30.54
1554103588490,8.604761,-3.7116113,3.5284547999999996,-0.046871635999999994,-0.043675844000000005,-0.5123922000000001,-15.36,55.02,30.6
1554103588511,8.604761,-3.6685154000000004,3.3512837999999996,0.017044231,-0.05006743,-0.47617322,-15.6,54.78,30.6
1554103588531,8.48984,-3.6924577000000003,3.4326867999999995,0.10972224,-0.037284255,-0.43036684,-15.84,54.48,30.6
1554103588550,8.437167,-3.7786489000000003,3.5523968,0.2066613,-0.027696876000000002,-0.34514567,-16.08,54.24,30.6
1554103588571,8.389283,-3.9031472000000003,3.6673183,0.3334278,-0.039414786,-0.2695119,-16.32,53.88,30.6
1554103588590,8.374918,-3.8313212,3.3943794,0.4133226,-0.068176925,-0.23968449999999997,-16.5,53.64,30.6
1554103588611,8.652645,-3.793014,3.2794578000000003,0.46019423,-0.07563378,-0.19387813,-16.62,53.34,30.66
1554103588631,8.566454,-3.769072,3.1022868,0.50813115,-0.051132694000000006,-0.13102753,-16.74,53.04,30.66
1554103588651,8.561666,-3.4674027,3.0352492,0.5230448000000001,-0.025566347000000003,-0.046871635999999994,-16.86,52.8,30.66
1554103588671,8.585608,-3.4674027,2.7527334999999997,0.47510794,-0.017044231,0.05965481,-16.92,52.5,30.66
1554103588690,8.6574335,-3.5392287000000002,2.819771,0.4261058,-0.0053263223,0.1587244,-16.98,52.32,30.54
1554103588710,8.6334915,-3.4051532999999994,3.0065188,0.4165184,-0.018109497,0.23755397,-17.04,52.26,30.36
1554103588730,8.719683,-3.4051532999999994,2.7000610000000003,0.41119209999999995,-0.03089267,0.31638354,-17.1,52.32,30.12
1554103588750,8.7053175,-3.4099417,2.7814639,0.38775626,-0.056459017,0.37923414,-17.16,52.5,29.88
1554103588771,8.882488,-3.3524809999999996,2.891597,0.37923414,-0.08522116,0.43249738,-17.16,52.74,29.64
1554103588790,8.925583999999999,-3.4530375,3.1022868,0.41438788,-0.113983296,0.48043427,-17.22,53.1,29.4
1554103588811,8.892064999999999,-3.2902317,3.0974984,0.47617322,-0.12250541,0.52837116,-17.16,53.52,29.16
1554103588831,8.848969,-3.2854433,3.2507273999999997,0.5390238,-0.12996227,0.572047,-17.04,54.0,28.92
1554103588851,8.848969,-3.2806550000000003,3.245939,0.5901565,-0.13848437,0.6061354999999999,-16.86,54.72,28.74
1554103588871,8.848969,-3.1848867000000003,3.365649,0.6412892,-0.12783173,0.63702816,-16.68,55.38,28.62
1554103588891,8.968679,-3.103484,3.3033997999999998,0.70200926,-0.11611383,0.65513766,-16.26,56.28,28.44
1554103588911,8.887277000000001,-3.0364463,3.2698810000000003,0.74035877,-0.08522116,0.6679208000000001,-15.9,56.88,28.2
1554103588930,8.863335000000001,-2.9358897,3.2363622000000003,0.74035877,-0.07350325,0.67005134,-15.72,57.18,28.08
1554103588950,8.743625,-2.7587189999999997,3.2267854,0.7073356,-0.06924219,0.66365975,-15.3,57.72,27.66
1554103588971,8.7292595,-2.8496985,3.0544027999999996,0.64768076,-0.07669904,0.6348976,-14.7,58.68,26.94
1554103588990,8.748413000000001,-2.7347770000000002,3.3129766000000003,0.62531024,-0.07776430000000001,0.5997439,-14.46,59.04,26.7
1554103589011,8.7053175,-2.710835,3.164536,0.59228706,-0.09161274,0.5432849000000001,-13.86,60.12,26.04
1554103589031,8.604761,-2.7012582000000003,3.1070752,0.5699165,-0.084155895,0.50387007,-13.56,60.84,25.62
1554103589050,8.599973,-2.7443538,3.1884782000000005,0.55287224,-0.06711166,0.45380265,-13.2,61.5,25.2
1554103589071,8.499416,-2.6533740000000003,3.1358056,0.5273059,-0.053263225,0.39201729999999996,-12.96,62.16,24.84
1554103589091,8.418014,-2.7778726000000002,3.164536,0.48363006,-0.056459017,0.3291667,-12.66,62.76,24.48
1554103589111,8.37013,-2.7443538,3.293823,0.44528055,-0.06924219,0.26312032,-12.36,63.3,24.3
1554103589131,8.37013,-2.7778726000000002,3.1884782000000005,0.43036684,-0.08628642,0.1949434,-12.06,63.84,24.06
1554103589151,8.585608,-2.8257565,3.1693244,0.4250405,-0.099069595,0.12996227,-11.82,64.26,23.76
1554103589171,8.542512,-2.9933507,3.2507273999999997,0.42717105,-0.10439592,0.07456851,-11.52,64.56,23.46
1554103589190,8.571242,-2.8880057,3.221997,0.43995422,-0.08948222,0.020240024,-11.16,64.86,23.22
1554103589211,8.566454,-2.8449101000000003,3.2794578000000003,0.4101268,-0.06178534,-0.017044231,-10.86,65.16,22.92
1554103589231,8.470686,-2.7299886000000004,3.3369186,0.330232,-0.041545313,-0.02876214,-10.56,65.4,22.62
1554103589251,8.542512,-2.8353333,3.1070752,0.24394555,-0.033023197000000004,-0.034088463,-10.32,65.64,22.32
1554103589270,8.576031,-2.8401217,3.3081882000000005,0.12996227,-0.034088463,-0.049002163,-10.14,65.82,22.08
1554103589290,8.714894000000001,-2.9311013,3.341707,0.04474111,-0.03834952,-0.05965481,-10.02,65.82,21.84
1554103589311,8.652645,-3.007716,3.3800142,0.008522116,-0.03089267,-0.06711166,-9.96,65.82,21.66
1554103589331,8.619126,-3.1322143,3.1884782000000005,0.0053263223,-0.014913702,-0.058589544,-9.9,65.82,21.48
1554103589350,8.5473,-2.9694088,3.2076318,0.012783173500000002,0.002130529,-0.05539375,-9.84,65.88,21.3
1554103589370,8.566454,-2.9406781000000004,3.0974984,-0.007456851,0.0053263223,-0.049002163,-9.84,65.88,21.18
1554103589390,8.580819,-2.902371,3.2172085999999998,-0.040480047000000005,0.002130529,-0.04261058,-9.84,65.94,21.06
1554103589410,8.662222,-2.9789855,3.1022868,-0.09267801,-0.008522116,-0.056459017,-9.84,66.0,21.0
1554103589431,8.662222,-2.9358897,3.1453824,-0.12676647,-0.008522116,-0.06924219,-9.84,66.12,21.0
1554103589451,8.585608,-3.0029275,3.020884,-0.15020229,-0.00958738,-0.07989483,-9.84,66.24,21.0
1554103589470,8.528147,-3.0364463,3.245939,-0.17044231,-0.007456851,-0.096939065,-9.9,66.36,21.0
1554103589490,8.523358,-2.9502552000000004,3.3369186,-0.18322548,-0.0010652645,-0.113983296,-9.9,66.42,21.0
1554103589511,8.508992999999998,-3.0029275,3.1262288,-0.21198763,-0.0053263223,-0.13102753,-9.96,66.42,21.0
1554103589531,8.6334915,-3.0891187,3.221997,-0.25672874,-0.0053263223,-0.16298546,-9.96,66.48,21.0
1554103589550,8.643068,-3.0364463,3.3273417999999997,-0.2545982,0.0053263223,-0.1949434,-9.96,66.42,21.06
1554103589570,8.599973,-3.0699651,3.3225534,-0.2545982,0.0,-0.22477080000000002,-9.96,66.36,21.06
1554103589590,8.671799,-3.127426,3.2267854,-0.2695119,-0.012783173500000002,-0.24501082,-9.96,66.24,21.12
1554103589611,8.734048,-3.1800982999999996,3.2986114,-0.26418558,0.0031957934000000003,-0.26312032,-9.96,66.12,21.18
1554103589631,8.743625,-3.1130607000000006,3.3081882000000005,-0.27164245,0.002130529,-0.27057716,-9.9,65.94,21.24
1554103589650,8.825027,-3.141791,3.2794578000000003,-0.28016454,0.0031957934000000003,-0.27696875,-9.9,65.82,21.36
1554103589670,8.686164,-3.1705215,3.3129766000000003,-0.28549087,0.03089267,-0.2876214,-9.96,65.7,21.42
1554103589690,8.643068,-3.093907,3.3273417999999997,-0.3153183,0.05219796,-0.28122982,-9.96,65.58,21.6
1554103589710,8.614338,-3.117849,3.2650926,-0.38136467,0.06498113,-0.28549087,-10.08,65.4,21.84
1554103589731,8.662222,-3.256713,3.317765,-0.4261058,0.06604639400000001,-0.30040458,-10.14,65.28,21.96
1554103589750,8.532935,-3.3812113,3.2650926,-0.42930159999999995,0.07456851,-0.31851408,-10.26,65.1,22.2
1554103589770,8.6095495,-3.4003648999999996,3.494936,-0.39201729999999996,0.07456851,-0.33555830000000003,-10.32,64.92,22.44
1554103589790,8.604761,-3.3141737,3.3560722000000003,-0.35153726,0.07137272,-0.36432046,-10.44,64.74,22.8
1554103589810,8.614338,-3.2279825,3.4087446000000003,-0.3206446,0.07137272,-0.38029942,-10.44,64.62,22.92
1554103589831,8.552089,-3.3859997,3.1022868,-0.27590349999999997,0.05539375,-0.38882150000000004,-10.62,64.2,23.28
1554103589850,8.561666,-3.3476925000000004,3.2746694,-0.25033715,0.047936900000000005,-0.386691,-10.68,64.08,23.4
1554103589871,8.647857,-3.3812113,3.1836896,-0.22796659,0.037284255,-0.37816888,-10.98,63.72,23.58
1554103589890,8.595184,-3.3812113,3.1741127999999996,-0.21092236,0.027696876000000002,-0.35792887,-11.52,63.18,23.88
1554103589910,8.566454,-3.4051532999999994,3.2363622000000003,-0.19174760000000002,0.026631612000000002,-0.33555830000000003,-11.7,63.06,24.0
1554103589931,8.499416,-3.3572693,3.1022868,-0.16724652,0.010652645,-0.294013,-12.3,62.58,24.24
1554103589951,8.51857,-3.4195184999999997,3.1741127999999996,-0.14913702,-0.00958738,-0.2695119,-12.66,62.34,24.42
1554103589971,8.422802,-3.4195184999999997,3.1836896,-0.11930962,-0.039414786,-0.25033715,-13.02,62.16,24.6
1554103589991,8.432379,-3.3955764999999998,3.2172085999999998,-0.07776430000000001,-0.06178534,-0.22903186,-13.32,61.98,24.84
1554103590011,8.408437,-3.4051532999999994,3.2267854,-0.023435817999999997,-0.07243799,-0.21092236,-13.56,61.74,25.02
1554103590030,8.475474,-3.4051532999999994,3.2124202,0.04261058,-0.07030745599999999,-0.18855181,-13.62,61.68,25.2
1554103590050,8.51857,-3.4626143,3.2124202,0.082025364,-0.07456851,-0.1587244,-13.62,61.56,25.38
1554103590071,8.432379,-3.4003648999999996,3.2746694,0.08735169,-0.080960095,-0.13422333,-13.62,61.44,25.5
1554103590091,8.451532,-3.2902317,3.1453824,0.080960095,-0.08948222,-0.098004326,-13.62,61.32,25.62
1554103590110,8.51857,-3.3572693,3.1118636000000004,0.07350325,-0.09054748,-0.05006743,-13.62,61.14,25.62
1554103590130,8.676587,-3.4338839999999995,3.1597476,0.09267801,-0.08628642,0.002130529,-13.62,60.96,25.62
1554103590150,8.604761,-3.3333273,3.164536,0.14487597,-0.084155895,0.046871635999999994,-13.62,60.84,25.62
1554103590170,8.599973,-3.3237504999999996,3.1884782000000005,0.19920446,-0.09054748,0.08948222,-13.62,60.78,25.62
1554103590190,8.7053175,-3.1992521000000003,3.2172085999999998,0.2428803,-0.098004326,0.12676647,-13.62,60.72,25.62
1554103590211,8.75799,-3.2854433,3.0591912,0.27483824,-0.101200126,0.16192019,-13.68,60.72,25.62
1554103590230,8.6574335,-3.208829,3.1262288,0.2908172,-0.099069595,0.18748654,-13.68,60.78,25.5
1554103590250,8.556877,-3.208829,2.9682117000000003,0.30360037,-0.08948222,0.22796659,-13.62,60.84,25.32
1554103590271,8.6095495,-3.103484,2.9538465,0.30146983,-0.082025364,0.27057716,-13.62,60.9,25.2
1554103590291,8.781932000000001,-3.0460230999999998,2.7670987,0.28229508,-0.08628642,0.30146983,-13.56,61.02,25.02
1554103590311,8.700529,-3.0651767000000003,2.8772318,0.27057716,-0.098004326,0.31105720000000003,-13.5,61.2,24.84
1554103590331,8.724471000000001,-3.0364463,3.0017304,0.28122982,-0.112918034,0.31105720000000003,-13.44,61.5,24.66
1554103590350,8.748413000000001,-2.9837740000000004,2.8532897999999998,0.28655612,-0.11824436,0.314253,-13.32,61.8,24.54
1554103590371,8.762777999999999,-3.0172927000000005,2.7000610000000003,0.28122982,-0.11611383,0.29933932,-13.26,62.04,24.36
1554103590390,8.748413000000001,-2.9837740000000004,2.9059622000000003,0.27377295,-0.113983296,0.28442562,-13.08,62.28,24.3
1554103590411,8.686164,-2.9311013,2.7862522999999997,0.26205507,-0.12570119999999999,0.27057716,-12.84,62.58,24.18
1554103590432,8.767567,-2.8736405,2.8628666000000003,0.25353295,-0.14487597,0.25672874,-12.54,62.88,24.12
1554103590451,8.801085,-2.9502552000000004,2.8820202,0.26205507,-0.1587244,0.23542345,-12.24,63.18,24.0
1554103590471,8.882488,-2.9167361,2.8054059,0.26631612,-0.16192019,0.21944448,-11.94,63.48,23.94
1554103590491,8.848969,-2.7874494,2.8006175,0.25353295,-0.15765914,0.20453078,-11.7,63.66,23.88
1554103590511,8.815451,-2.8592752999999997,2.891597,0.21944448,-0.14807177,0.18216023,-11.4,63.78,23.7
1554103590531,8.901641999999999,-2.8401217,2.8772318,0.18748654,-0.13422333,0.15659387,-11.1,63.96,23.52
1554103590551,8.872911,-2.782661,2.7144263,0.16085494,-0.12463594,0.12144015,-10.8,64.14,23.4
1554103590570,8.868122999999999,-2.7778726000000002,2.891597,0.12783173,-0.10439592,0.07350325,-10.62,64.32,23.16
1554103590590,8.810661999999999,-2.8353333,2.7527334999999997,0.11504856,-0.09587380000000001,0.02876214,-10.5,64.44,23.04
1554103590610,8.949525999999999,-2.7682957999999998,3.0304607999999997,0.09161274,-0.068176925,-0.011717908999999999,-10.44,64.44,22.92
1554103590631,8.858546,-2.8353333,2.8772318,0.07030745599999999,-0.036218993,-0.04580637,-10.32,64.5,22.8
1554103590650,8.863335000000001,-2.7778726000000002,2.9634232999999996,0.037284255,-0.01917476,-0.07456851,-10.26,64.5,22.74
1554103590670,8.8777,-2.8257565,3.0831332000000002,-0.025566347000000003,-0.020240024,-0.10546118,-10.14,64.5,22.68
1554103590691,8.892064999999999,-2.9741971,2.949058,-0.06285059999999999,-0.020240024,-0.14061491,-10.08,64.5,22.62
1554103590710,8.954314,-3.127426,2.9586349,-0.07243799,0.0031957934000000003,-0.16298546,-10.02,64.56,22.62
1554103590731,8.781932000000001,-3.0699651,3.0735563999999997,-0.054328485999999995,0.022370555,-0.16831179,-10.02,64.62,22.62
1554103590750,8.844180999999999,-2.8353333,3.0496144,-0.05539375,0.051132694000000006,-0.17470337,-9.96,64.74,22.62
1554103590770,8.762777999999999,-3.0412347,2.867655,-0.1438107,0.07989483,-0.15020229,-9.96,64.92,22.56
1554103590791,8.796297000000001,-2.9406781000000004,3.0591912,-0.19920446,0.08841695,-0.13954964,-9.96,65.04,22.56
1554103590812,8.844180999999999,-3.093907,2.9107506,-0.24927188,0.08735169,-0.14913702,-10.02,65.1,22.56
1554103590832,8.848969,-3.141791,2.9442697,-0.23648871,0.09161274,-0.15233281,-10.08,65.22,22.56
1554103590851,8.858546,-3.0603882999999996,2.9299042,-0.1949434,0.11611383,-0.1587244,-10.2,65.22,22.56
1554103590871,8.738836000000001,-3.141791,2.9346926,-0.18429075,0.13315806,-0.15020229,-10.38,65.16,22.56
1554103590891,8.7771435,-3.141791,2.8628666000000003,-0.19600865,0.12570119999999999,-0.13635385,-10.5,65.04,22.56
1554103590911,8.667010000000001,-3.1082723,2.8963853999999998,-0.20240025,0.11611383,-0.12996227,-10.62,64.98,22.56
1554103590931,8.772355000000001,-3.1465794999999996,2.8580782000000005,-0.18855181,0.11824436,-0.11930962,-10.74,64.86,22.68
1554103590951,8.762777999999999,-3.2662897,3.0113072,-0.16831179,0.11930962,-0.098004326,-10.86,64.74,22.74
1554103590971,8.767567,-3.1848867000000003,2.9969419999999998,-0.15339808,0.12357068,-0.06178534,-10.92,64.62,22.8
1554103590991,8.767567,-3.103484,2.7862522999999997,-0.17044231,0.113983296,-0.035153727999999995,-10.98,64.5,22.86
1554103591010,8.738836000000001,-3.0172927000000005,2.6042929,-0.2034655,0.10226539,-0.012783173500000002,-11.04,64.38,22.92
1554103591031,8.743625,-3.0747535,2.6473885,-0.23861924,0.07669904,0.0031957934000000003,-10.98,64.26,23.04
1554103591051,8.671799,-2.9981391,2.7048495,-0.23968449999999997,0.037284255,-0.018109497,-10.92,64.08,23.1
1554103591070,8.580819,-3.141791,2.7910407000000004,-0.22264028,-0.002130529,-0.056459017,-10.92,63.96,23.16
1554103591090,8.566454,-3.1657330000000004,2.867655,-0.16085494,-0.053263225,-0.13741912,-10.92,63.78,23.22
1554103591111,8.6095495,-3.256713,2.9059622000000003,-0.053263225,-0.094808534,-0.26631612,-10.92,63.66,23.28
1554103591131,8.528147,-3.2854433,3.1118636000000004,-0.002130529,-0.101200126,-0.34834146,-10.92,63.54,23.46
1554103591150,8.7053175,-3.3333273,3.2172085999999998,0.0053263223,-0.10546118,-0.38456047,-11.04,63.54,23.64
1554103591170,8.820239,-3.4099417,3.0831332000000002,-0.014913702,-0.09161274,-0.39521313,-11.1,63.48,23.88
1554103591190,8.7771435,-3.5057099999999997,3.2698810000000003,-0.04474111,-0.06604639400000001,-0.36325517,-11.22,63.48,24.06
1554103591210,8.853758000000001,-3.5631707,3.3464954,-0.10546118,-0.033023197000000004,-0.27803403,-11.34,63.48,24.3
1554103591230,8.767567,-3.4626143,3.2507273999999997,-0.15765914,-0.00958738,-0.18535602,-11.4,63.48,24.48
1554103591251,8.7292595,-3.481768,3.2124202,-0.20985709,0.014913702,-0.098004326,-11.52,63.48,24.66
1554103591271,8.628703,-3.5966894999999997,3.1549592,-0.21731395,0.024501082,-0.02876214,-11.64,63.42,24.84
1554103591291,8.647857,-3.5104983,3.0352492,-0.165116,0.02876214,0.0063915867,-11.7,63.3,24.9
1554103591311,8.51857,-3.4721910000000005,3.0591912,-0.07989483,0.022370555,0.015978966,-11.76,63.12,24.9
1554103591330,8.532935,-3.3716345000000003,2.8628666000000003,0.026631612000000002,0.018109497,0.013848438000000001,-11.76,62.94,24.9
1554103591352,8.494628,-3.3141737,2.9394810000000002,0.10439592,0.02130529,0.007456851,-11.82,62.7,24.9
1554103591371,8.561666,-3.2423477000000003,2.7910407000000004,0.13954964,0.014913702,0.012783173500000002,-11.82,62.52,24.9
1554103591390,8.671799,-3.1609447,2.6282349,0.13315806,0.0063915867,0.026631612000000002,-11.88,62.34,24.9
1554103591412,8.667010000000001,-3.2184057,2.843713,0.11717909,0.0010652645,0.04580637,-11.94,62.16,24.9
1554103591430,8.762777999999999,-3.2231941,2.594716,0.10333065,0.004261058,0.07882957,-12.0,62.04,24.84
1554103591450,8.858546,-3.1896752999999998,2.8149827000000003,0.099069595,0.00958738,0.10759171,-12.06,61.98,24.84
1554103591471,8.7771435,-3.1753099999999996,2.7527334999999997,0.08522116,0.013848438000000001,0.13209279,-12.12,62.04,24.78
1554103591492,8.863335000000001,-3.0986955000000003,2.9538465,0.06924219,0.010652645,0.15659387,-12.18,62.22,24.72
1554103591510,8.686164,-3.0364463,2.7527334999999997,0.06711166,0.011717908999999999,0.17363810000000002,-12.24,62.34,24.72
1554103591530,8.710106,-2.9933507,2.6809072,0.041545313,0.008522116,0.18748654,-12.24,62.52,24.66
1554103591551,8.614338,-2.9550436,2.8341362,0.0063915867,0.0010652645,0.18748654,-12.24,62.7,24.66
1554103591570,8.590396,-2.926313,2.891597,-0.024501082,-0.01917476,0.16192019,-12.3,62.88,24.66
1554103591590,8.628703,-3.0029275,2.8341362,0.008522116,-0.040480047000000005,0.101200126,-12.24,63.12,24.66
1554103591611,8.623915,-2.9933507,2.949058,0.06498113,-0.06391586,0.029827405,-12.18,63.24,24.66
1554103591631,8.834603999999999,-3.0651767000000003,2.9203273999999997,0.09587380000000001,-0.07669904,-0.035153727999999995,-12.18,63.3,24.66
1554103591650,8.7053175,-3.0747535,3.0352492,0.14487597,-0.084155895,-0.10759171,-12.06,63.36,24.66
1554103591671,8.7053175,-2.9550436,3.09271,0.19600865,-0.083090626,-0.17470337,-11.82,63.48,24.66
1554103591691,8.810661999999999,-3.093907,3.1405939999999997,0.17896444,-0.08522116,-0.20026971,-11.7,63.54,24.66
1554103591711,8.796297000000001,-3.1226375,3.3033997999999998,0.17789917,-0.082025364,-0.22050974,-11.58,63.54,24.6
1554103591731,8.887277000000001,-3.2279825,3.2172085999999998,0.14807177,-0.07030745599999999,-0.21198763,-11.46,63.54,24.6
1554103591750,8.911219000000001,-3.2231941,3.164536,0.12037488,-0.054328485999999995,-0.19174760000000002,-11.34,63.54,24.6
1554103591771,8.805874000000001,-3.1753099999999996,3.3081882000000005,0.12463594,-0.027696876000000002,-0.17576863,-11.28,63.54,24.6
1554103591791,8.676587,-3.127426,3.0831332000000002,0.10652645,-0.013848438000000001,-0.15339808,-11.28,63.48,24.54
1554103591811,8.724471000000001,-3.2040405,3.0400376000000002,0.08522116,0.002130529,-0.12570119999999999,-11.34,63.42,24.48
1554103591830,8.734048,-3.256713,3.0065188,0.080960095,0.026631612000000002,-0.10546118,-11.34,63.36,24.36
1554103591851,8.676587,-3.1609447,3.0352492,0.07669904,0.049002163,-0.07882957,-11.4,63.36,24.3
1554103591870,8.671799,-3.2136172999999997,3.0160956000000003,0.05965481,0.05965481,-0.04580637,-11.4,63.3,24.24
1554103591891,8.710106,-3.0747535,2.747945,0.037284255,0.068176925,-0.02130529,-11.46,63.3,24.12
1554103591910,8.743625,-3.1609447,2.8341362,0.035153727999999995,0.06924219,0.017044231,-11.46,63.3,24.06
1554103591931,8.743625,-3.0460230999999998,2.6426,0.039414786,0.068176925,0.04261058,-11.52,63.36,23.94
1554103591951,8.829816000000001,-3.1896752999999998,2.7575218999999995,0.035153727999999995,0.06604639400000001,0.080960095,-11.52,63.42,23.94
1554103591970,8.839393,-3.151368,2.6473885,0.020240024,0.07030745599999999,0.11611383,-11.52,63.42,23.88
1554103591991,8.6095495,-3.0364463,2.8389246,0.012783173500000002,0.07243799,0.14168017,-11.52,63.48,23.88
1554103592010,8.7292595,-2.959832,2.7862522999999997,0.004261058,0.05752428,0.16937704,-11.58,63.54,23.82
1554103592030,8.710106,-2.9454667999999997,2.7383683,-0.018109497,0.037284255,0.19600865,-11.58,63.6,23.76
1554103592051,8.738836000000001,-2.9454667999999997,2.7383683,-0.033023197000000004,0.01917476,0.21518342,-11.64,63.66,23.7
1554103592071,8.786719999999999,-2.8113914,2.7527334999999997,-0.029827405,0.002130529,0.21624869,-11.64,63.72,23.64
1554103592091,8.662222,-2.9071592999999996,2.7862522999999997,-0.02130529,-0.011717908999999999,0.21198763,-11.64,63.72,23.58
1554103592111,8.719683,-2.8975825,2.7910407000000004,-0.010652645,-0.0053263223,0.19707392,-11.64,63.72,23.52
1554103592130,8.710106,-2.7635074,2.9107506,-0.0031957934000000003,-0.0031957934000000003,0.1768339,-11.52,63.78,23.52
1554103592150,8.686164,-2.7635074,3.0065188,-0.023435817999999997,-0.012783173500000002,0.14807177,-11.46,63.84,23.46
1554103592171,8.695741,-2.8401217,3.0017304,-0.049002163,-0.036218993,0.10759171,-11.34,63.9,23.46
1554103592191,8.700529,-2.926313,3.0400376000000002,-0.05006743,-0.05006743,0.049002163,-11.22,63.96,23.46
1554103592211,8.762777999999999,-2.878429,3.0831332000000002,-0.02130529,-0.05965481,-0.014913702,-11.16,64.02,23.46
1554103592231,8.791509,-2.9550436,3.1501707999999997,0.004261058,-0.05752428,-0.07989483,-11.04,64.14,23.46
1554103592250,8.796297000000001,-2.926313,3.0496144,0.0010652645,-0.05219796,-0.13954964,-10.98,64.2,23.46
1554103592270,8.868122999999999,-2.9837740000000004,3.1741127999999996,-0.025566347000000003,-0.047936900000000005,-0.18109496,-10.92,64.32,23.46
1554103592290,8.925583999999999,-3.0747535,3.1884782000000005,-0.05539375,-0.034088463,-0.2130529,-10.92,64.38,23.52
1554103592311,8.858546,-3.1992521000000003,3.4757824,-0.07030745599999999,-0.017044231,-0.23222765,-10.86,64.44,23.52
1554103592331,8.896853,-3.0364463,3.2411506,-0.06604639400000001,-0.0010652645,-0.25033715,-10.86,64.5,23.52
1554103592350,8.848969,-3.1753099999999996,3.2555158,-0.054328485999999995,0.017044231,-0.257794,-10.86,64.5,23.58
1554103592371,8.815451,-3.2662897,3.3800142,-0.027696876000000002,0.03195793,-0.2545982,-10.8,64.5,23.58
1554103592390,8.767567,-3.208829,3.198055,-0.004261058,0.04580637,-0.24181503,-10.74,64.38,23.58
1554103592410,8.7292595,-3.151368,3.2028434,0.010652645,0.05006743,-0.22583607,-10.74,64.26,23.64
1554103592431,8.700529,-3.127426,3.0496144,0.00958738,0.05219796,-0.2034655,-10.74,64.14,23.64
1554103592451,8.623915,-3.2806550000000003,2.915539,-0.0053263223,0.056459017,-0.18109496,-10.74,64.08,23.64
1554103592471,8.590396,-3.1465794999999996,2.8963853999999998,-0.014913702,0.06178534,-0.165116,-10.74,63.84,23.58
1554103592491,8.5473,-3.1800982999999996,2.7862522999999997,-0.043675844000000005,0.07137272,-0.1438107,-10.74,63.66,23.58
1554103592511,8.561666,-3.2471360000000002,2.8149827000000003,-0.058589544,0.07243799,-0.12996227,-10.8,63.48,23.58
1554103592531,8.566454,-3.0986955000000003,2.7766755,-0.06178534,0.06178534,-0.11930962,-10.92,63.42,23.52
1554103592550,8.585608,-3.2136172999999997,2.8101943,-0.054328485999999995,0.05006743,-0.10013486,-10.98,63.42,23.52
1554103592571,8.595184,-3.1753099999999996,2.6138697,-0.03834952,0.046871635999999994,-0.07563378,-11.04,63.42,23.52
1554103592591,8.643068,-3.093907,2.6952724,-0.03834952,0.03089267,-0.04261058,-11.16,63.42,23.52
1554103592611,8.6095495,-3.093907,2.6665419999999997,-0.039414786,0.0053263223,-0.00958738,-11.28,63.36,23.52
1554103592630,8.6095495,-3.0412347,2.6330232999999996,-0.03834952,-0.010652645,0.020240024,-11.34,63.36,23.52
1554103592650,8.690952000000001,-3.0125043,2.6042929,-0.05219796,-0.033023197000000004,0.04261058,-11.52,63.36,23.52
1554103592670,8.714894000000001,-2.9981391,2.556409,-0.07456851,-0.05006743,0.054328485999999995,-11.64,63.36,23.52
1554103592691,8.820239,-2.9885623,2.7431567,-0.09267801,-0.06498113,0.047936900000000005,-11.76,63.36,23.52
1554103592711,8.834603999999999,-3.0747535,2.7527334999999997,-0.10013486,-0.084155895,0.026631612000000002,-11.88,63.36,23.52
1554103592731,8.7053175,-3.0412347,2.9442697,-0.08522116,-0.096939065,-0.002130529,-12.0,63.3,23.58
1554103592751,8.662222,-3.093907,2.8868085999999997,-0.04474111,-0.11504856,-0.039414786,-12.06,63.3,23.64
1554103592770,8.667010000000001,-3.1753099999999996,3.0639796,-0.004261058,-0.13635385,-0.06711166,-12.12,63.3,23.88
1554103592790,8.7771435,-3.103484,3.198055,0.027696876000000002,-0.15233281,-0.09374327,-12.18,63.24,24.06
1554103592810,8.963891,-3.0891187,3.2555158,0.039414786,-0.15233281,-0.11824436,-12.12,63.24,24.24
1554103592831,8.968679,-3.093907,3.0879216,0.02876214,-0.13209279,-0.13209279,-12.12,63.18,24.42
1554103592851,8.848969,-3.0460230999999998,3.2650926,0.022370555,-0.11930962,-0.13209279,-12.12,63.18,24.54
1554103592870,8.887277000000001,-3.1465794999999996,3.3512837999999996,0.008522116,-0.10333065,-0.11930962,-12.06,63.12,24.72
1554103592890,8.863335000000001,-3.2279825,3.2746694,-0.0031957934000000003,-0.09054748,-0.12037488,-12.0,63.12,24.84
1554103592911,8.896853,-3.208829,3.3560722000000003,0.018109497,-0.07456851,-0.11611383,-11.94,63.06,24.9
1554103592931,8.738836000000001,-3.141791,3.4231097999999998,0.06711166,-0.04580637,-0.112918034,-11.88,63.06,24.9
1554103592950,8.791509,-3.0843303,3.2986114,0.11611383,-0.015978966,-0.101200126,-11.76,63.06,24.96
1554103592970,8.7053175,-3.0699651,3.1884782000000005,0.14913702,0.02130529,-0.09161274,-11.7,63.06,24.96
1554103592991,8.75799,-3.0172927000000005,3.068768,0.17470337,0.07563378,-0.07989483,-11.64,63.06,25.02
1554103593011,8.815451,-3.1322143,3.0974984,0.1768339,0.13315806,-0.060720075,-11.58,63.06,25.02
1554103593031,8.844180999999999,-2.9885623,2.9203273999999997,0.10439592,0.15339808,-0.023435817999999997,-11.52,63.06,24.96
1554103593051,9.011775,-2.8975825,2.8963853999999998,0.01917476,0.18216023,0.004261058,-11.52,63.06,24.9
1554103593071,8.801085,-3.0172927000000005,3.0304607999999997,-0.09267801,0.21198763,0.026631612000000002,-11.52,63.12,24.78
1554103593091,8.949525999999999,-3.141791,3.2507273999999997,-0.15659387,0.221575,0.083090626,-11.52,63.12,24.6
1554103593111,8.887277000000001,-3.1848867000000003,3.164536,-0.16618125,0.20453078,0.15978967,-11.52,63.06,24.42
1554103593130,8.863335000000001,-3.342904,2.6473885,-0.09374327,0.16831179,0.17576863,-11.52,63.06,24.3
1554103593150,9.016563,-3.5152867,2.8580782000000005,0.0010652645,0.2066613,0.22050974,-11.52,63.06,24.12
1554103593171,9.045294,-3.4290953,3.6481647000000006,0.08735169,0.31638354,0.30786142,-11.58,63.0,24.0
1554103593190,9.155427,-3.615843,3.7822402000000004,-0.008522116,0.43036684,0.44528055,-11.58,63.0,24.0
1554103593211,8.829816000000001,-3.888782,3.7582982000000005,-0.20133498,0.51984906,0.608266,-11.58,62.94,23.94
1554103593230,8.815451,-4.6692919999999996,3.9929300000000003,-0.49854377,0.6061354999999999,0.8692558000000001,-11.64,62.94,23.94
1554103593250,8.834603999999999,-4.923076999999999,4.2371383,-0.8341021000000001,0.6508765999999999,1.144094,-11.64,63.0,23.94
1554103593271,8.810661999999999,-5.593454,4.7734394,-1.2314457,0.7456851,1.3944311000000003,-11.64,63.24,23.88
1554103593291,8.75799,-6.033987000000001,4.735132,-1.438107,0.8213189000000001,1.6735305,-11.64,63.3,23.94
1554103593311,8.197746,-6.996455999999999,5.1660886,-1.1824435,0.9555421999999999,1.9281287,-11.4,63.66,24.0
1554103593331,7.785944000000001,-7.867945,5.391144000000001,-0.6306366,1.0727214,2.07407,-10.86,64.02,24.12
1554103593351,7.278373200000001,-8.193557,5.510854,0.049002163,1.1653993,2.1805964,-10.08,64.38,24.54
1554103593370,6.981492,-7.6093717000000005,5.0463786,0.47191215,1.1920309,2.1955101000000004,-9.6,64.56,24.78
1554103593390,6.631939,-7.006033,4.395156,0.7552725,1.1952267,2.171009,-8.64,64.92,25.32
1554103593411,6.2392898,-6.900687700000001,4.313753,0.6870956,1.1899004,2.21575,-7.62,65.28,25.92
1554103593431,5.8562174,-7.3029137,4.3424835,0.41225734,1.1334413,2.271144,-5.82,65.82,26.7
1554103593451,5.410896,-7.116166000000001,4.170100700000001,0.29614353,1.0961571,2.267948,-5.16,66.06,26.94
1554103593471,5.027823400000001,-7.3220673,4.160524,0.12037488,1.0183928,2.2391857999999996,-3.18,66.66,27.48
1554103593491,4.611232299999999,-7.269394999999999,4.347272,-0.040480047000000005,0.92784536,2.2168152,-1.98,67.14,27.66
1554103593511,3.9504328,-7.1113777,4.270657,-0.08522116,0.8223841999999999,2.1901836,-0.9,67.56,27.6
1554103593530,3.6822822,-7.2981253,4.055179,0.05006743,0.7233145999999999,2.1241374,0.18,68.04,27.42
1554103593550,3.3279405,-7.317278999999999,4.6154222,0.24074976,0.6444850000000001,2.049569,1.32,68.4,27.24
1554103593571,3.0789435000000003,-7.398681599999999,4.11264,0.37603834,0.5336975,1.9398465,2.46,68.82,27.06
1554103593591,2.801216,-7.413047,4.524442700000001,0.3898868,0.44101948,1.8450380000000002,3.72,69.06,26.94
1554103593610,2.255338,-7.0970125,4.529230999999999,0.43675843,0.30040458,1.7033578,4.98,69.24,26.94
1554103593631,1.9249381999999997,-6.469731299999999,4.0934862999999995,0.5400891,0.18855181,1.5446335,6.24,69.36,26.94
1554103593651,2.054225,-6.522404,4.5819035,0.47404268,0.15978967,1.4966966,7.44,69.42,27.06
1554103593671,1.8291701,-7.7626004,5.252279799999999,0.314253,0.047936900000000005,1.4295848999999998,8.58,69.36,27.06
1554103593691,1.5658079,-7.6333137,5.113416,0.45912898,-0.046871635999999994,1.3273195,9.72,69.3,27.06
1554103593710,1.0965444,-7.015609700000001,5.1613,0.6103965,-0.08628642,1.2538162,10.74,69.3,27.06
1554103593731,0.8331822,-6.642114,5.1660886,0.6380934,-0.15446335,1.2303803999999998,11.88,69.18,27.0
1554103593750,0.7517793,-6.9342065,5.510854,0.5837649,-0.21198763,1.1867046,12.9,69.12,26.82
1554103593770,0.61291564,-7.4465656000000005,5.8987145,0.58909124,-0.24394555,1.1334413,13.8,69.0,26.64
1554103593791,0.33039984,-6.8575919999999995,5.7119665,0.6498113,-0.26418558,1.0524813,14.58,68.88,26.34
1554103593810,0.06703765,-6.4026937,5.501277,0.5965481,-0.26844665,0.96406436,15.36,68.7,26.1
1554103593831,0.062249242999999996,-6.675633,5.7023897,0.4282363,-0.2609898,0.9576728000000001,16.14,68.4,25.74
1554103593851,-0.090979666,-7.0491285,6.1620764999999995,0.34408042,-0.23648871,0.96619487,16.92,68.04,25.38
1554103593871,-0.023942016,-6.9150529999999995,6.377555,0.4048005,-0.22264028,0.87990844,17.58,67.68,24.96
1554103593891,-0.320823,-6.3643866,6.0088477,0.45699844,-0.20240025,0.7307714,18.24,67.32,24.48
1554103593911,-0.34476504,-6.3404446,5.769428,0.43036684,-0.19707392,0.67537767,18.78,67.02,24.0
1554103593930,-0.59376204,-6.177639,5.9226565,0.3749731,-0.18748654,0.62317973,19.32,66.66,23.52
1554103593950,-0.5650316,-5.885546,6.425439,0.31957933,-0.17576863,0.5539375,19.86,66.3,23.1
1554103593970,-0.4357447,-6.172850599999999,6.0758852999999995,0.21518342,-0.17470337,0.50813115,20.46,65.88,22.68
1554103593990,-0.5650316,-6.3883285999999995,6.3344593,0.165116,-0.15552860000000002,0.4101268,21.06,65.58,22.32
1554103594010,-0.521936,-6.168062,5.9705405,0.16831179,-0.17576863,0.34940675,21.54,65.28,22.02
1554103594031,-0.6943185000000001,-6.3643866,6.0663085,0.17044231,-0.18109496,0.28336033,21.96,64.92,21.72
1554103594050,-0.60333884,-6.407482,6.3727665,0.18961707,-0.21198763,0.23755397,22.38,64.68,21.54
1554103594070,-0.59376204,-6.512827400000001,6.320094,0.15233281,-0.25033715,0.19600865,22.86,64.26,21.24
1554103594090,-0.50757074,-6.680421400000001,6.214748999999999,0.041545313,-0.28868666,0.22903186,23.04,64.14,21.18
1554103594111,-0.61291564,-6.7666125,6.27221,-0.007456851,-0.3057309,0.24181503,23.28,63.9,21.0
1554103594130,-0.6751649000000001,-6.7091517000000005,6.320094,0.004261058,-0.32384038,0.28016454,23.52,63.78,20.82
1554103594151,-0.7517793,-6.541558,6.3871317,-0.013848438000000001,-0.34408042,0.28122982,23.58,63.72,20.7
1554103594171,-0.770933,-6.680421400000001,6.449381,-0.05006743,-0.37710363,0.27590349999999997,23.7,63.72,20.58
1554103594190,-0.7086836999999999,-6.531981,6.3105173,-0.054328485999999995,-0.4079963,0.25672874,23.82,63.66,20.34
1554103594211,-0.6368576,-6.7666125,6.564302400000001,-0.027696876000000002,-0.43888897,0.24927188,23.88,63.42,20.04
1554103594230,-0.63206923,-6.986878999999999,6.3871317,-0.02876214,-0.46765109999999993,0.26418558,23.94,63.12,19.62
1554103594251,-0.6751649000000001,-7.006033,6.535572,-0.02130529,-0.47510794,0.28868666,24.06,62.88,19.32
1554103594271,-0.49799395,-7.0874357,6.645705,-0.07350325,-0.49534798,0.314253,24.18,62.58,19.02
1554103594291,-0.521936,-7.053917,6.554725599999999,-0.18002969,-0.48149952,0.28336033,24.36,62.34,18.78
1554103594311,-0.47405192,-7.0395517000000005,6.401497,-0.24181503,-0.47830373,0.31212249999999997,24.6,62.04,18.48
1554103594331,-0.4165911,-7.0826473,6.51163,-0.23542345,-0.49960902,0.3206446,24.84,61.74,18.3
1554103594350,-0.110133275,-7.231087700000001,7.062296400000001,-0.24607609,-0.5070659000000001,0.3536678,25.14,61.62,18.24
1554103594370,-0.07182605,-7.2406645,7.071872999999999,-0.22477080000000002,-0.49960902,0.37390783,25.44,61.44,18.12
1554103594391,-0.30166942,-6.9342065,6.746262,-0.07030745599999999,-0.47723848,0.32597092,25.68,61.26,17.94
1554103594411,-0.272939,-6.5846534,6.4828997,0.06285059999999999,-0.46658584,0.31851408,25.92,61.08,17.82
1554103594431,-0.20590134,-6.579865,6.5738792,0.058589544,-0.46765109999999993,0.33768883,26.16,60.84,17.64
1554103594450,-0.076614454,-6.5846534,6.765415700000001,-0.007456851,-0.44634579999999996,0.31851408,26.28,60.6,17.4
1554103594472,-0.01436521,-6.7330937,6.995259,-0.037284255,-0.41438788,0.27803403,26.4,60.36,17.16
1554103594490,-0.01436521,-6.5990186,6.7606273,0.0031957934000000003,-0.386691,0.22583607,26.52,60.12,16.92
1554103594510,-0.10534488,-6.249465,6.746262,0.043675844000000005,-0.36645097,0.15233281,26.64,59.76,16.68
1554103594530,0.08619126,-6.531981,6.928221000000001,0.014913702,-0.32810146,0.1470065,26.76,59.34,16.5
1554103594550,0.2825158,-6.7187285,6.933009599999999,-0.004261058,-0.2876214,0.15446335,26.88,58.98,16.26
1554103594570,0.33518824,-6.5990186,7.014412400000001,-0.0031957934000000003,-0.22050974,0.10972224,27.0,58.62,16.02
1554103594590,0.22984336,-6.4840965,7.0527196,0.03195793,-0.16298546,0.041545313,27.18,58.32,15.78
1554103594610,-0.11971009,-6.306926,6.827665,0.012783173500000002,-0.10333065,0.0010652645,27.3,58.08,15.54
1554103594631,-0.07182605,-6.3643866,7.0670850000000005,-0.05752428,-0.05219796,-0.027696876000000002,27.42,57.84,15.3
1554103594651,-0.15801731,-6.929417999999999,7.019201,-0.07776430000000001,-0.01917476,-0.04580637,27.54,57.66,15.06
1554103594670,-0.4213795,-6.713939999999999,7.0287776,-0.024501082,-0.0063915867,-0.06285059999999999,27.6,57.6,14.88
1554103594691,-0.37349546,-6.512827400000001,6.7366850000000005,0.018109497,0.0063915867,-0.10972224,27.72,57.6,14.7
1554103594710,-0.29688102,-6.8097080000000005,6.9425864,-0.054328485999999995,0.026631612000000002,-0.080960095,27.78,57.6,14.58
1554103594731,-0.40222588,-6.8575919999999995,7.0048356,-0.09054748,0.053263225,-0.03195793,27.84,57.6,14.52
1554103594750,-0.29209262,-6.891111,6.9904703999999995,-0.027696876000000002,0.068176925,-0.03195793,27.84,57.6,14.46
1554103594771,-0.08619126,-6.977302000000001,6.8228765,0.09161274,0.08522116,-0.04474111,27.84,57.6,14.46
1554103594792,-0.34476504,-6.4457892999999995,6.827665,0.19813919,0.08735169,-0.096939065,27.9,57.6,14.4
1554103594811,-0.4405331,-6.2446766,6.4206505,0.16085494,0.054328485999999995,-0.11611383,27.9,57.6,14.34
1554103594831,-0.29688102,-6.637326,6.612186400000001,-0.053263225,0.018109497,-0.09267801,27.9,57.6,14.28
1554103594850,-0.272939,-6.579865,6.779781,-0.18109496,0.026631612000000002,-0.10759171,27.96,57.6,14.22
1554103594871,-0.40701428,-6.7187285,7.0287776,-0.29614353,0.08735169,-0.11717909,27.96,57.6,14.16
1554103594891,-0.51235914,-7.1353197,6.770204,-0.26738137,0.11930962,-0.12250541,27.96,57.54,14.1
1554103594910,-0.37349546,-7.16405,6.502053299999999,-0.14274544,0.12037488,-0.11504856,27.96,57.54,14.04
1554103594931,-0.46447513,-7.154473299999999,6.3631897,-0.060720075,0.09054748,-0.10333065,27.9,57.42,13.98
1554103594950,-0.47405192,-7.2406645,6.2003837,-0.06711166,0.05965481,-0.05539375,27.9,57.36,13.98
1554103594970,-0.45010993,-7.2502413,6.0567317,-0.12570119999999999,-0.010652645,0.023435817999999997,27.84,57.3,13.98
1554103594991,-0.6560113000000001,-7.255029700000001,6.06152,-0.18109496,-0.07776430000000001,0.07456851,27.78,57.24,14.04
1554103595010,-0.46447513,-7.0491285,6.2339025,-0.16618125,-0.14594123,0.08522116,27.66,57.3,14.1
1554103595030,-0.39743748,-6.4505777,5.975329,-0.23116238,-0.18109496,0.07882957,27.54,57.3,14.28
1554103595050,-0.05267244,-6.618172,6.257845,-0.34088463,-0.18535602,0.068176925,27.48,57.36,14.34
1554103595070,-0.23942018,-6.800131299999999,6.401497,-0.38882150000000004,-0.16724652,0.041545313,27.48,57.42,14.4
1554103595091,-0.545878,-7.5519110000000005,6.071097,-0.5209143,-0.15339808,0.046871635999999994,27.42,57.72,14.7
1554103595112,-0.4357447,-7.685986,6.071097,-0.45593318,-0.13635385,0.06285059999999999,27.42,57.9,14.88
1554103595131,-0.29209262,-7.508815299999999,6.3009405,-0.33768883,-0.09587380000000001,0.082025364,27.42,58.02,15.12
1554103595151,-0.12928689,-7.767389,6.5164184999999994,-0.24714136,-0.07776430000000001,0.13315806,27.48,58.02,15.24
1554103595171,-0.033518825,-7.5327573,6.4828997,-0.14061491,-0.053263225,0.14274544,27.54,57.96,15.36
1554103595191,-0.16759412,-7.6093717000000005,6.401497,-0.10333065,-0.018109497,0.12783173,27.54,57.84,15.54
1554103595211,-0.35434186,-7.6333137,6.4062852999999995,-0.07563378,0.012783173500000002,0.112918034,27.54,57.72,15.66
1554103595231,-0.038307227,-7.2454529999999995,5.965751999999999,-0.068176925,0.008522116,0.07243799,27.54,57.54,15.78
1554103595250,-0.090979666,-7.1113777,6.2530565000000005,-0.094808534,0.051132694000000006,0.08948222,27.54,57.36,15.84
1554103595270,-0.30166942,-7.6093717000000005,6.3871317,-0.04580637,0.03195793,0.08948222,27.6,57.18,15.9
1554103595291,-0.08619126,-7.173627000000001,6.27221,0.06604639400000001,0.0063915867,0.04261058,27.66,57.06,15.9
1554103595310,-0.29688102,-7.101800999999999,6.229114,0.058589544,-0.0010652645,-0.007456851,27.72,56.94,15.96
1554103595330,-0.272939,-7.1065892999999996,6.291363700000001,0.09374327,-0.0063915867,-0.046871635999999994,27.72,56.88,16.02
1554103595351,-0.18195933,-6.9246297000000006,6.1764417,0.15978967,-0.002130529,-0.13315806,27.78,56.94,16.02
1554103595370,-0.19153613,-7.077858999999999,6.1668650000000005,0.13954964,0.002130529,-0.16298546,27.84,56.88,16.08
1554103595390,-0.13407529999999998,-7.623736999999999,6.2817870000000005,0.11504856,-0.004261058,-0.13422333,27.9,56.88,16.08
1554103595411,-0.22026655,-7.590217999999999,6.4781113,0.15978967,0.0053263223,-0.12996227,28.02,56.88,16.08
1554103595431,-0.33997664,-7.6093717000000005,6.6744356,0.20133498,0.018109497,-0.13315806,28.08,56.88,16.02
1554103595450,-0.4309563,-7.671621000000001,6.774992500000001,0.27590349999999997,0.04261058,-0.128897,28.08,56.88,16.02
1554103595471,-0.5506664000000001,-7.4034699999999996,6.6361284,0.36645097,0.06498113,-0.13315806,28.14,56.88,15.96
1554103595491,-0.6368576,-7.0251865,6.818088,0.41971418,0.10652645,-0.11717909,28.2,56.88,15.96
1554103595511,-0.6751649000000001,-6.9246297000000006,6.909067599999999,0.45060685,0.12570119999999999,-0.07776430000000001,28.26,56.88,15.9
1554103595530,-0.6799533,-6.6516910000000005,6.84203,0.4708469,0.15126756,-0.082025364,28.26,56.88,15.9
1554103595550,-0.29688102,-6.2925606,6.779781,0.37390783,0.17896444,-0.128897,28.26,56.88,15.78
1554103595571,-0.61291564,-6.522404,6.684012400000001,0.32384038,0.18642128,-0.19600865,28.2,56.88,15.72
1554103595591,-0.4357447,-6.7283053,6.3344593,0.30040458,0.14061491,-0.21092236,28.2,56.82,15.72
1554103595611,-0.51235914,-6.848015299999999,6.267421700000001,0.2876214,0.080960095,-0.21944448,28.14,56.82,15.66
1554103595632,-0.51714754,-7.1688385,5.8891377,0.26418558,-0.03195793,-0.20026971,28.14,56.88,15.54
1554103595651,-0.545878,-7.2071457,5.798158,0.27590349999999997,-0.11504856,-0.16405073,28.08,56.88,15.48
1554103595671,-0.4165911,-7.1448965,5.9226565,0.25033715,-0.2130529,-0.10865697,28.02,56.94,15.36
1554103595690,-0.40222588,-6.8863225,5.8891377,0.20453078,-0.30253512,-0.10546118,27.96,57.0,15.18
1554103595714,-0.39264908,-6.699575,6.085462000000001,0.13102753,-0.3749731,-0.10013486,27.96,57.06,14.94
1554103595730,-0.16759412,-6.7761892999999995,6.0088477,0.036218993,-0.4165184,-0.06924219,27.9,57.12,14.76
1554103595751,-0.1436521,-6.6947865,5.788581400000001,-0.07563378,-0.43569317,-0.05219796,27.84,57.24,14.46
1554103595770,0.0047884034,-6.321291,6.1668650000000005,-0.1470065,-0.44315,-0.09267801,27.78,57.3,14.22
1554103595790,0.37349546,-6.177639,6.4062852999999995,-0.23222765,-0.4016047,-0.14487597,27.72,57.36,13.92
1554103595811,0.35434186,-6.6516910000000005,6.746262,-0.6444850000000001,-0.26312032,-0.10226539,27.66,57.48,13.68
1554103595831,0.26815059999999996,-7.1113777,7.0670850000000005,-0.7850999,-0.18855181,-0.10652645,27.6,57.54,13.56
1554103595851,0.21547815,-7.484873299999999,7.177217999999999,-0.588026,-0.10333065,-0.1587244,27.54,57.66,13.32
1554103595870,0.23942018,-7.255029700000001,7.2873516,-0.27377295,-0.06285059999999999,-0.17896444,27.48,57.78,13.26
1554103595890,0.2873042,-6.8719573,6.8611835999999995,0.010652645,-0.051132694000000006,-0.21092236,27.42,57.84,13.2
1554103595911,0.2777274,-6.962936999999999,6.5738792,0.17789917,-0.08948222,-0.21944448,27.36,57.96,13.2
1554103595932,0.22984336,-6.9916677,6.923433,0.24714136,-0.10759171,-0.21518342,27.3,57.96,13.2
1554103595950,0.18195933,-6.996455999999999,7.0287776,0.28655612,-0.15552860000000002,-0.2428803,27.24,58.02,13.26
1554103595970,0.272939,-7.0874357,7.014412400000001,0.24394555,-0.20985709,-0.24074976,27.18,58.02,13.38
1554103595990,0.33518824,-7.527969000000001,7.095814999999999,0.27590349999999997,-0.25992453,-0.22903186,27.12,58.02,13.5
1554103596010,0.320823,-7.681197599999999,7.095814999999999,0.51771855,-0.31212249999999997,-0.21944448,27.12,58.02,13.56
1554103596032,0.5793968,-7.2646065,7.0048356,0.9534117,-0.36325517,-0.1768339,27.06,58.02,13.62
1554103596050,0.5506664000000001,-6.5655,7.421427,1.1068097,-0.33449304,-0.12357068,27.0,58.02,13.62
1554103596071,0.60812724,-6.287772,7.095814999999999,1.010936,-0.314253,-0.06924219,27.0,58.02,13.56
1554103596090,0.58418524,-6.192004,7.277775,0.7850999,-0.2876214,-0.049002163,26.88,58.02,13.26
1554103596110,0.5554548,-6.321291,7.249044400000001,0.5336975,-0.2609898,-0.015978966,26.76,57.9,12.78
1554103596133,0.7038953,-6.5942300000000005,7.612962700000001,0.38242993,-0.23648871,0.015978966,26.58,57.84,12.24
1554103596150,0.7469909,-6.5990186,7.828441000000001,0.44315,-0.2130529,0.023435817999999997,26.4,57.72,11.64
1554103596174,0.9624690999999999,-6.5750766,7.9625163,0.6317018,-0.14594123,0.04580637,26.22,57.6,11.04
1554103596190,0.7374141,-6.531981,7.474099000000001,0.850081,-0.10546118,0.08628642,26.1,57.54,10.38
1554103596210,0.5746084,-6.201581,7.086238400000001,1.019458,-0.11611383,0.08522116,25.98,57.42,9.72
1554103596231,0.60333884,-5.5647235,7.229890299999999,1.1313108,-0.111852765,0.06711166,25.92,57.18,9.06
1554103596250,0.63206923,-4.9422307,7.1724296,1.0365024,-0.13954964,0.07669904,25.86,56.94,8.46
1554103596270,0.7565677,-4.540005000000001,7.828441000000001,0.70627034,-0.08841695,0.1470065,25.86,56.7,7.92
1554103596290,0.770933,-4.8799815,8.106169,0.26525086,-0.06391586,0.16405073,25.92,56.46,7.38
1554103596310,0.47884035,-5.3396683,7.6369047000000005,0.05539375,-0.08735169,0.13315806,25.98,56.1,6.84
1554103596330,0.6560113000000001,-5.679645,8.000824,0.21518342,-0.10546118,0.14274544,26.04,55.8,6.36
1554103596350,0.89543146,-5.3444567,8.513183,0.39840892,-0.10013486,0.20133498,26.04,55.44,5.94
1554103596371,0.842759,-5.2008047,8.446145,0.46871635,-0.05752428,0.221575,26.1,55.08,5.58
1554103596390,0.8619126,-4.980538,8.297705,0.39201729999999996,-0.047936900000000005,0.26418558,26.1,54.72,5.22
1554103596411,0.89543146,-4.812944,8.149264,0.2908172,-0.043675844000000005,0.26312032,26.1,54.42,4.98
1554103596430,0.60333884,-4.7698483,7.828441000000001,0.12676647,-0.05539375,0.22583607,26.16,54.18,4.92
1554103596451,0.35913026,-5.2008047,7.665635000000001,0.112918034,-0.10439592,0.27377295,26.16,54.0,4.74
1554103596470,0.9528923,-4.607043,8.963293,0.11824436,-0.056459017,0.30786142,26.22,53.88,4.56
1554103596491,1.0965444,-4.472967,8.881889,0.06391586,-0.018109497,0.19281286,26.34,53.7,4.32
1554103596511,0.7613561,-5.0427876,8.666411,0.15339808,0.05006743,0.13741912,26.46,53.58,4.08
1554103596531,0.8571242,-5.0906715,8.374319,0.34727620000000003,0.06924219,0.2545982,26.76,53.46,3.78
1554103596550,0.842759,-4.7985787,8.632893,0.3174488,0.099069595,0.24927188,26.82,53.4,3.66
1554103596571,0.92895025,-4.7602715,8.647258,0.26205507,0.15020229,0.20985709,27.0,53.34,3.42
1554103596590,0.39743748,-5.229535,7.9337860000000004,0.3653857,0.21198763,0.21837921,27.18,52.98,3.18
1554103596610,0.01436521,-5.478532,7.474099000000001,0.6562029,0.18855181,0.2908172,27.36,52.62,3.18
1554103596630,0.110133275,-5.4545900000000005,7.593808999999999,0.76485986,0.17150758,0.4048005,27.42,52.5,3.18
1554103596650,0.82360536,-4.875193,8.19236,0.6263755,0.15233281,0.5091964,27.54,52.2,3.18
1554103596670,0.6560113000000001,-3.8696284,8.264186,0.34514567,0.20453078,0.40266997,27.78,51.84,3.18
1554103596690,0.30645782,-3.6206315000000004,8.187572,0.027696876000000002,0.29614353,0.3536678,28.02,51.48,3.18
1554103596710,-0.14844051,-3.9079356,8.173206,-0.07456851,0.34088463,0.3536678,28.2,51.12,3.18
1554103596730,0.01436521,-4.2383356,7.9146323,0.047936900000000005,0.2908172,0.35153726,28.5,50.46,3.18
1554103596751,-0.1436521,-4.2383356,7.814075999999999,0.21198763,0.22690132,0.3685815,28.74,50.16,3.18
1554103596771,-0.1436521,-3.8073792,7.8475947,0.16298546,0.17257284,0.36325517,28.92,49.86,3.18
1554103596791,-0.16759412,-3.6541502,8.216302,-0.058589544,0.13315806,0.3206446,29.16,49.5,3.24
1554103596811,-0.18195933,-4.0707417,8.656835000000001,-0.20879184,0.09054748,0.30146983,29.28,49.2,3.24
1554103596831,-0.4405331,-4.200028400000001,8.757391,-0.16831179,0.060720075,0.26738137,29.4,48.9,3.3
1554103596850,-0.25857377,-4.204817,8.675988,-0.07456851,0.058589544,0.24181503,29.52,48.6,3.36
1554103596871,-0.2873042,-4.3101616,9.073426,-0.00958738,0.094808534,0.25246766,29.64,48.3,3.36
1554103596890,-0.46447513,-4.123414,9.231442999999999,0.022370555,0.14807177,0.26844665,29.76,48.12,3.42
1554103596910,-0.5410896,-4.3388919999999995,9.346364999999999,-0.04261058,0.22050974,0.2876214,29.94,47.88,3.48
1554103596931,-0.92416185,-4.5926776,9.882666,-0.101200126,0.30999196,0.3206446,30.06,47.7,3.54
1554103596951,-1.2210428999999998,-4.827309,9.853935,-0.002130529,0.39308259999999995,0.350472,30.24,47.46,3.54
1554103596970,-1.2066777,-5.109825,9.973646,0.16831179,0.49960902,0.40053943,30.3,47.22,3.6
1554103596990,-1.4891934,-5.037999,9.513959,0.29827404,0.5933523,0.49854377,30.42,46.92,3.72
1554103597011,-1.661576,-4.827309,9.164406,0.39414784,0.6679208000000001,0.5795039000000001,30.48,46.62,3.9
1554103597031,-1.7956512999999998,-4.587889,8.977658,0.42717105,0.7222493000000001,0.67005134,30.54,46.32,4.08
1554103597050,-1.7956512999999998,-4.779425,9.183558999999999,0.4282363,0.7819041,0.7819041,30.66,45.9,4.32
1554103597071,-1.7429788,-4.209605000000001,8.738237,0.4825648,0.8085357,0.85327685,30.78,45.42,4.56
1554103597091,-1.8483237000000001,-4.0755300000000005,8.661622999999999,0.5070659000000001,0.8149273,0.89801794,30.96,44.88,4.8
1554103597111,-1.8291701,-3.7786489000000003,8.800487,0.4825648,0.8117314999999999,0.94275904,31.14,44.28,5.1
1554103597131,-1.9440918000000003,-3.6541502,9.106945,0.44954160000000004,0.7819041,0.96939063,31.38,43.68,5.46
1554103597150,-2.1404164,-3.3955764999999998,8.714295,0.42930159999999995,0.753142,0.9651296,31.74,42.96,5.82
1554103597171,-2.1883004,-3.6254199000000003,8.886678,0.45912898,0.7190535,1.0088054,32.04,42.0,6.18
1554103597191,-2.432509,-3.6733038000000002,9.140464,0.51665324,0.67537767,1.0396981,32.4,40.92,6.6
1554103597210,-2.5953147,-3.4482489999999997,9.020754,0.69774824,0.6125271,1.0322412,32.82,39.78,6.96
1554103597230,-2.5809495,-3.1705215,9.054273,0.9076053,0.5486112,1.031176,33.18,38.76,7.32
1554103597250,-2.6288335,-2.581548,8.532336,0.9502159,0.47723848,1.0418286,33.48,37.68,7.68
1554103597271,-2.8682537,-2.4235306,8.345589,0.9395633,0.42930159999999995,1.026915,33.78,36.54,7.92
1554103597291,-3.0502129,-2.2894554,8.546700999999999,0.89588743,0.39627838,1.0396981,34.08,35.34,8.16
1554103597311,-3.0310593,-2.1745335999999997,8.599374000000001,0.9129315999999998,0.36432046,1.0524813,34.32,33.96,8.4
1554103597332,-3.241749,-1.9925743000000002,8.55149,0.98750013,0.34301516,1.051416,34.5,32.52,8.58
1554103597350,-3.394978,-1.7435773999999997,8.455722,1.1163971000000001,0.3206446,1.0482203,34.74,31.2,8.7
1554103597370,-3.5434184,-1.1258733,8.07265,1.3369069,0.25885928,1.0120013,34.86,29.88,8.82
1554103597391,-3.466804,-0.42197806,7.7087307,1.4871092,0.221575,0.9864349,35.04,28.62,8.94
1554103597411,-3.5338415999999997,0.15741876,7.641692999999999,1.5563513999999998,0.1949434,0.9491506,35.16,27.24,9.12
1554103597431,-3.6918589999999996,0.6937199000000001,7.450157000000001,1.4998924,0.18642128,0.9150621999999999,35.28,25.98,9.24
1554103597451,-3.7876269999999996,1.0145429,7.325659,1.2836437,0.1768339,0.8873653,35.34,24.54,9.42
1554103597471,-3.7780502,1.2252326999999998,7.3352356,1.0599382,0.17150758,0.8085357,35.34,23.16,9.54
1554103597491,-3.7924154000000003,1.6178818000000001,7.301717,0.87990844,0.1587244,0.71585774,35.4,21.96,9.72
1554103597511,-3.9839516,1.7567455,7.0766615999999996,0.7797736,0.13315806,0.66579026,35.4,20.94,9.9
1554103597531,-4.0509889999999995,2.082357,7.3974850000000005,0.8032094,0.10759171,0.5837649,35.4,19.8,10.08
1554103597551,-4.0557775000000005,2.379238,7.244256,0.6508765999999999,0.13741912,0.48043427,35.34,18.06,10.38
1554103597570,-4.43885,2.4558525,7.239467599999999,0.33875409999999995,0.19068234,0.44528055,35.34,17.1,10.56
1554103597590,-4.5394063,2.28347,7.325659,0.13954964,0.21411815,0.41971418,35.34,16.56,10.62
1554103597611,-4.1515455,2.154183,7.689577000000001,0.099069595,0.24394555,0.30679616,35.28,15.48,10.8
1554103597631,-4.223372,2.345719,7.713519,0.17044231,0.2727077,0.27590349999999997,35.22,14.88,10.86
1554103597651,-4.4005427,2.1062990000000004,7.5794440000000005,0.113983296,0.30146983,0.2790993,35.16,14.34,10.86
1554103597671,-4.4484267,2.0488381,7.8188642999999995,0.034088463,0.30892670000000005,0.26205507,35.1,13.8,10.86
1554103597691,-4.4819455,2.307412,7.641692999999999,0.022370555,0.27483824,0.20133498,35.04,13.2,10.98
1554103597710,-4.477157,2.4319102999999997,7.7949224,0.025566347000000003,0.21624869,0.13848437,34.92,12.72,11.1
1554103597732,-4.510676,2.570774,7.6321163,0.049002163,0.13848437,0.113983296,34.86,12.24,11.28
1554103597750,-4.2760444,2.5516205000000003,7.713519,0.0031957934000000003,0.094808534,0.08948222,34.8,11.88,11.46
1554103597771,-4.429273,2.3505075,7.617750999999999,-0.06178534,0.047936900000000005,0.022370555,34.74,11.58,11.64
1554103597791,-4.5298295,2.3600842999999996,7.756614999999999,-0.12144015,0.008522116,-0.03834952,34.74,11.34,11.82
1554103597811,-4.477157,2.0967221,7.756614999999999,-0.25033715,-0.014913702,-0.06285059999999999,34.68,11.1,12.0
1554103597830,-4.582502,1.7328035,8.149264,-0.3568636,0.0031957934000000003,-0.040480047000000005,34.68,10.92,12.18
1554103597850,-4.707000700000001,1.6226702,8.494029,-0.28549087,0.043675844000000005,-0.06604639400000001,34.62,10.86,12.24
1554103597871,-4.582502,1.3497312,8.498816999999999,-0.16831179,0.07882957,-0.035153727999999995,34.62,10.74,12.24
1554103597892,-4.635174299999999,1.2779051000000001,8.522758999999999,-0.02130529,0.12357068,-0.012783173500000002,34.56,10.68,12.24
1554103597910,-4.582502,1.8333599999999999,8.762179,0.11824436,0.15020229,0.0,34.5,10.62,12.3
1554103597931,-4.692635500000001,1.9674352,8.494029,0.10226539,0.19387813,0.027696876000000002,34.44,10.62,12.3
1554103597951,-4.7500963,1.6609775000000002,8.31207,-0.10333065,0.2130529,0.10439592,34.44,10.56,12.3
1554103597971,-4.879383,1.5795746000000002,8.527548,-0.15446335,0.23009712,0.1438107,34.38,10.56,12.3
1554103597991,-4.8841715,1.809418,8.43178,-0.056459017,0.23648871,0.14807177,34.32,10.56,12.3
1554103598010,-4.8745947,2.0392613,8.197148,0.008522116,0.2130529,0.16405073,34.26,10.56,12.36
1554103598030,-4.817133999999999,1.9195513,8.106169,0.036218993,0.18216023,0.16831179,34.2,10.56,12.36
1554103598050,-4.817133999999999,2.0105310000000003,7.74225,0.096939065,0.13741912,0.13102753,34.2,10.56,12.42
1554103598070,-4.663905000000001,2.0296845,7.5746554999999995,0.094808534,0.09374327,0.099069595,34.14,10.44,12.48
1554103598091,-4.802768700000001,2.3026235,7.498041000000001,0.022370555,0.06604639400000001,0.035153727999999995,34.14,10.32,12.48
1554103598110,-4.8506527,2.0201077,7.804499000000001,-0.16192019,0.06285059999999999,0.04474111,34.08,10.2,12.54
1554103598131,-4.9081135,1.8285716,8.000824,-0.28122982,0.068176925,0.04474111,34.08,10.08,12.6
1554103598152,-4.8219223,1.6130934,8.077438,-0.25885928,0.06178534,0.041545313,34.08,9.9,12.6
1554103598171,-4.8937483,1.5508442,8.154053,-0.17257284,0.051132694000000006,0.07989483,34.02,9.72,12.54
1554103598190,-4.9559975,1.6992846999999998,8.393473,-0.08522116,0.05539375,0.07776430000000001,34.02,9.54,12.54
1554103598211,-4.76925,2.0536265,7.617750999999999,-0.0010652645,0.027696876000000002,0.07243799,34.02,9.36,12.54
1554103598231,-4.572925,2.6952724,7.5507135,-0.05752428,0.0031957934000000003,-0.011717908999999999,33.96,9.18,12.6
1554103598251,-4.8219223,2.130241,8.063073,-0.39414784,0.026631612000000002,-0.035153727999999995,33.9,9.0,12.6
1554103598270,-4.707000700000001,1.1246762,8.532336,-0.5113269,0.024501082,-0.029827405,33.9,8.82,12.6
1554103598291,-4.6878470000000005,1.1677719,8.470087,-0.33768883,0.013848438000000001,-0.034088463,33.84,8.64,12.66
1554103598311,-4.6495394999999995,1.584363,8.302493,-0.12783173,0.0,-0.047936900000000005,33.78,8.52,12.66
1554103598330,-4.5681367,1.6274586000000002,8.039131,-0.07350325,-0.013848438000000001,-0.054328485999999995,33.72,8.34,12.72
1554103598351,-4.582502,1.7998412,7.8954787,-0.18216023,-0.05219796,-0.07030745599999999,33.66,8.16,12.72
1554103598371,-4.6208089999999995,1.8046296000000002,7.8571715,-0.31105720000000003,-0.07350325,-0.10226539,33.66,8.1,12.72
1554103598391,-4.501099,1.6178818000000001,7.8475947,-0.45060685,-0.08948222,-0.15233281,33.66,8.04,12.78
1554103598411,-4.4436383,1.4550761,8.187572,-0.49002165,-0.08628642,-0.20879184,33.66,7.98,12.78
1554103598430,-4.534618,1.0384849,8.316858,-0.41758367,-0.09374327,-0.24181503,33.66,7.92,12.78
1554103598451,-4.6208089999999995,0.97144735,8.249821,-0.406931,-0.08628642,-0.2609898,33.66,7.92,12.72
1554103598471,-4.6830587,1.1534066,8.292916,-0.47830373,-0.06391586,-0.27377295,33.66,7.98,12.78
1554103598490,-4.611232299999999,1.2156559,8.096592,-0.5613944000000001,-0.037284255,-0.28975195,33.66,8.04,12.78
1554103598510,-4.707000700000001,0.86610246,8.379107000000001,-0.64768076,0.020240024,-0.3291667,33.72,8.28,12.72
1554103598531,-4.879383,0.49739540000000004,8.465299,-0.76592517,0.051132694000000006,-0.29188246,33.72,8.76,12.66
1554103598551,-4.7022123,0.24839842,8.517971000000001,-0.7414241,0.06498113,-0.28975195,33.72,9.12,12.48
1554103598571,-4.7405194999999996,0.24839842,8.465299,-0.5954828000000001,0.08948222,-0.32490566,33.72,9.42,12.36
1554103598590,-4.7453080000000005,0.20530279,8.326435,-0.34727620000000003,0.09587380000000001,-0.34408042,33.72,9.72,12.24
1554103598610,-4.7261543,0.41599256,8.292916,-0.16831179,0.09161274,-0.35473305,33.72,10.08,12.06
1554103598630,-4.6495394999999995,0.5165489999999999,8.254609,-0.08841695,0.053263225,-0.37284255,33.72,10.32,11.94
1554103598651,-4.759673,0.3585317,8.034343,-0.06711166,0.0053263223,-0.41971418,33.72,10.5,11.82
1554103598671,-4.582502,0.45429978,7.8332295,-0.099069595,-0.04474111,-0.4708469,33.72,10.62,11.7
1554103598690,-4.7165775000000005,0.7032967,7.8954787,-0.14594123,-0.07776430000000001,-0.5187838,33.78,10.86,11.7
1554103598710,-4.572925,0.3681085,7.8428062999999995,-0.18322548,-0.13635385,-0.5752428,33.84,11.16,11.7
1554103598730,-4.6591167,0.18614918,8.015189,-0.2066613,-0.19813919,-0.6199839,33.84,11.46,11.76
1554103598750,-4.548983,0.018555064,8.134899,-0.20772657,-0.2545982,-0.6540724,33.9,11.88,11.88
1554103598770,-4.362235500000001,-0.024540568,8.010401,-0.15978967,-0.2876214,-0.69987875,34.02,12.3,11.94
1554103598791,-4.19943,-0.048482585999999994,7.8475947,-0.10652645,-0.32384038,-0.7350325,34.14,12.84,12.0
1554103598811,-4.175488,0.17178397,7.6608467000000005,0.022370555,-0.39095205,-0.8213189000000001,34.26,13.5,12.06
1554103598830,-4.0845080000000005,0.27712885,7.651269999999999,0.17044231,-0.45806372,-0.92784536,34.32,14.34,12.06
1554103598851,-3.7205894,0.08080431,7.225102000000001,0.31318775,-0.5273059,-1.0610034,34.44,15.12,11.88
1554103598871,-3.6966474000000002,0.20530279,6.818088,0.28549087,-0.60293967,-1.1259845,34.5,15.84,11.7
1554103598890,-3.6583402,0.14305355,6.918644400000001,0.1438107,-0.6625945,-1.1696603,34.62,16.68,11.52
1554103598911,-3.6727053999999995,0.3393781,6.923433,-0.24714136,-0.79042625,-1.2942963,34.74,17.58,11.28
1554103598932,-3.4045547999999997,-0.40761283,7.1580644,-0.5496765,-0.8841694999999999,-1.3741912,34.8,18.66,11.04
1554103598950,-3.098097,-1.0205284,7.512406299999999,-0.628506,-0.96299905,-1.4519554,34.86,19.92,10.74
1554103598971,-2.7868507,-1.3317747,7.4884644,-0.6359629,-1.0365024,-1.4935007,34.92,21.24,10.44
1554103598990,-2.753332,-1.6525976999999998,7.4310035999999995,-0.7456851,-1.0769824,-1.5030881,34.98,22.56,10.2
1554103599011,-2.6431987,-1.9111716,7.7949224,-0.8724516,-1.1057445,-1.5158713,34.98,24.0,9.9
1554103599031,-2.2888567,-2.4139538,7.9098440000000005,-0.94275904,-1.1163971000000001,-1.5371766000000002,34.92,25.62,9.54
1554103599050,-1.9871874,-2.9454667999999997,8.3312235,-0.9225190000000001,-1.0908308,-1.5318503,34.8,27.24,8.94
1554103599070,-1.9680338,-3.3045970000000002,8.216302,-0.82344943,-1.0503508,-1.4956313,34.62,28.92,8.28
1554103599090,-1.7908629,-3.4913447,8.139688,-0.8330368,-0.9960223,-1.4359765,34.5,30.6,7.68
1554103599111,-1.4556746,-3.3045970000000002,7.996035000000001,-0.95234644,-0.94595486,-1.4114753999999998,34.32,32.22,7.02
1554103599131,-1.1061212,-3.6445735,8.154053,-1.0876350000000001,-0.91186637,-1.4072143999999998,34.14,33.78,6.36
1554103599151,-0.90021986,-4.4059295999999994,8.3408,-1.1334413,-0.8905610999999999,-1.3688648,33.9,35.28,5.76
1554103599170,-0.79966336,-4.578312400000001,8.383896,-1.0705907,-0.88203895,-1.2911005,33.48,36.78,5.28
1554103599191,-0.44532153,-4.587889,8.034343,-1.0354371,-0.86179894,-1.2484899999999999,33.18,38.28,4.92
1554103599211,-0.19632454,-4.6022544000000005,8.154053,-1.0897655000000002,-0.809601,-1.2186625,32.76,39.84,4.74
1554103599230,0.29688102,-5.148132299999999,8.077438,-1.1046791999999999,-0.71585774,-1.1813782,32.04,42.18,4.56
1554103599250,0.50757074,-5.4210709999999995,8.197148,-1.0737866000000003,-0.6178534000000001,-1.1377025,31.56,43.74,4.38
1554103599271,0.7182605,-5.512050599999999,7.943362700000001,-1.0524813,-0.5496765,-1.1377025,31.08,45.18,4.26
1554103599290,0.79966336,-5.6221843,7.9912467000000005,-1.1462245,-0.5006742999999999,-1.1270498,30.84,45.84,4.2
1554103599311,1.13964,-6.072294,8.005612,-1.2239889,-0.46019423,-1.1057445,30.18,48.06,4.02
1554103599331,1.3215994,-6.4218473,8.240244,-1.1142666,-0.46339005,-1.071656,29.76,49.5,3.9
1554103599350,1.6280571000000001,-6.350021400000001,8.16363,-0.92784536,-0.4644553,-0.9832390999999999,29.28,50.82,3.9
1554103599371,1.7429788,-6.005256,8.326435,-0.77444726,-0.45593318,-0.95234644,28.8,51.96,4.08
1554103599391,2.1978772,-6.1345434,8.096592,-0.6263755,-0.46871635,-0.99495703,28.32,52.92,4.26
1554103599411,2.4085669999999997,-5.7179523,8.096592,-0.49854377,-0.5070659000000001,-1.0823087,27.72,53.82,4.5
1554103599431,2.5234885,-5.593454,7.790133999999999,-0.49215218,-0.5496765,-1.0844392,27.06,54.66,4.74
1554103599451,2.7389667,-5.751471,7.814075999999999,-0.6679208000000001,-0.56672066,-1.0610034,26.46,55.56,5.04
1554103599470,2.9209259999999997,-5.9956794,7.6464815,-0.92784536,-0.55074173,-1.0386329,25.8,56.52,5.28
1554103599491,3.1028854999999997,-6.033987000000001,8.110957,-1.0226538,-0.535828,-1.0812434,25.26,57.36,5.52
1554103599511,3.0119057000000002,-5.7754129999999995,8.04392,-0.8543421,-0.48469532,-1.1952267,24.6,58.2,5.7
1554103599531,3.145981,-5.478532,7.727885000000001,-0.535828,-0.42184472,-1.2974921,23.88,59.1,5.76
1554103599551,3.4380736000000005,-4.520851,6.865972,-0.14061491,-0.3653857,-1.5425029,23.1,60.12,5.76
1554103599571,3.8594532,-3.9989154,6.229114,-0.034088463,-0.31638354,-1.8024273999999998,22.44,61.08,5.82
1554103599591,4.2664676,-4.180875,6.186018499999999,-0.16618125,-0.31212249999999997,-1.9196066000000003,21.66,61.98,5.88
1554103599610,4.6830587,-4.463390400000001,6.3105173,-0.4857606,-0.35260254,-2.0442424,20.88,62.82,5.94
1554103599630,5.257667,-4.827309,6.583456,-0.70200926,-0.39627838,-2.2008363999999996,19.86,63.48,6.06
1554103599651,5.7029886,-4.6884456,6.6265516,-0.54648066,-0.40586576,-2.4160197,18.84,64.26,6.12
1554103599671,6.3063273,-4.530428,6.27221,-0.33981937,-0.4133226,-2.51722,17.82,65.04,6.24
1554103599691,6.679823,-4.9518075,5.927445,-0.30360037,-0.43995422,-2.5704832000000004,16.8,66.06,6.36
1554103599711,7.0724716,-4.970961,5.903503,-0.40373522,-0.5049353,-2.6045716,15.66,66.96,6.54
1554103599731,7.513005000000001,-4.779425,5.429451,-0.7137272,-0.61678815,-2.6514432,14.28,67.86,6.78
1554103599751,7.9248075,-4.6980224,5.443816,-0.8841694999999999,-0.6860303000000001,-2.6951191000000003,12.78,68.76,6.96
1554103599770,8.106767,-4.573524,5.266645,-0.8245146999999999,-0.753142,-2.7292075000000002,11.22,69.48,7.14
1554103599792,8.532935,-3.9653966,5.01286,-0.6860303000000001,-0.77870834,-2.7877970000000003,9.66,70.2,7.44
1554103599810,8.767567,-4.4777555,5.525219,-0.50173956,-0.78723043,-2.7377295,7.92,70.68,7.68
1554103599831,8.992621,-4.3724110000000005,5.218761,-0.20985709,-0.82877576,-2.670618,6.0,71.04,7.92
1554103599851,9.255983,-3.7020345,5.036802,-0.039414786,-0.84155893,-2.6748790000000002,4.14,71.16,8.16
1554103599871,9.428367,-3.3716345000000003,4.7925935,-0.029827405,-0.793622,-2.621616,2.28,71.16,8.4
1554103599891,9.552864999999999,-2.8018146,4.2658687,-0.18855181,-0.7275756,-2.453304,0.48,71.04,8.58
1554103599910,9.696517,-2.7012582000000003,4.270657,-0.572047,-0.6221144000000001,-2.2615564,-1.32,70.74,8.88
1554103599931,9.452309,-2.782661,4.6393642,-1.0077401,-0.5187838,-2.026133,-3.0,70.26,9.12
1554103599950,9.323022,-3.2136172999999997,4.672883000000001,-1.2399678,-0.38136467,-1.7683389999999999,-4.62,69.72,9.36
1554103599970,9.232041,-3.4338839999999995,5.142146599999999,-1.2985574,-0.26631612,-1.5275892,-6.12,69.0,9.54
1554103599991,8.853758000000001,-3.4147300000000005,5.242703,-1.2175972,-0.18535602,-1.3411678999999999,-7.56,68.28,9.78
1554103600010,8.561666,-3.3333273,5.194819,-1.0588728,-0.12144015,-1.1483551,-8.88,67.44,10.02
1554103600031,8.350976,-3.2902317,5.204396,-0.9139969000000001,-0.084155895,-0.98856544,-10.08,66.6,10.62
1554103600050,8.221688,-3.3189620000000004,5.137358,-0.716923,-0.03195793,-0.80533993,-11.1,65.76,11.34
1554103600070,8.049306,-3.2806550000000003,5.04159,-0.5550028,0.012783173500000002,-0.58056915,-12.42,64.86,12.24
1554103600090,7.8625584,-3.0412347,5.036802,-0.48363006,0.039414786,-0.49321744,-12.84,64.56,12.54
1554103600110,7.747636999999999,-3.0172927000000005,5.0942625999999995,-0.42717105,0.07882957,-0.406931,-13.62,64.14,13.14
1554103600131,7.8050976,-3.1705215,5.228338,-0.33768883,0.14594123,-0.28655612,-14.64,63.66,14.04
1554103600150,8.010999,-3.2662897,4.9937059999999995,-0.28122982,0.17789917,-0.19813919,-15.12,63.36,14.64
1554103600170,7.9583262999999995,-3.1896752999999998,5.1660886,-0.23222765,0.21837921,-0.128897,-15.54,63.12,15.12
1554103600190,7.943961,-2.9885623,5.209184,-0.18642128,0.24927188,-0.023435817999999997,-15.9,62.88,15.36
1554103600211,8.145074000000001,-2.8975825,5.036802,-0.20240025,0.30786142,0.07350325,-16.14,62.64,15.6
1554103600230,7.953538000000001,-2.8640637000000004,5.156512,-0.24714136,0.35899413,0.16192019,-16.26,62.58,15.66
1554103600251,7.9008656,-2.9694088,5.065532,-0.32384038,0.37603834,0.31105720000000003,-16.5,62.4,15.84
1554103600271,7.97748,-3.0556,5.3049526,-0.34194988,0.33129725,0.45699844,-16.68,62.16,16.14
1554103600291,7.963114699999999,-3.0603882999999996,5.4007206,-0.2428803,0.27696875,0.5496765,-16.74,61.98,16.26
1554103600311,8.135497,-2.9406781000000004,5.3049526,-0.043675844000000005,0.24501082,0.62744075,-16.74,61.92,16.38
1554103600330,8.149861999999999,-2.6007016,5.1900306,0.11504856,0.2545982,0.70627034,-16.74,61.92,16.44
1554103600350,8.269572,-2.5767596,5.142146599999999,0.14274544,0.25992453,0.79255676,-16.62,61.98,16.44
1554103600371,7.967903,-2.5432408,5.1996074,0.12250541,0.23755397,0.850081,-16.32,62.16,16.44
1554103600391,7.723694999999999,-2.3469162,5.0942625999999995,0.12250541,0.22903186,0.86499476,-16.02,62.4,16.38
1554103600411,7.5608889999999995,-2.2080526000000003,4.7734394,0.10865697,0.21411815,0.9129315999999998,-15.72,62.76,16.38
1554103600431,7.771578999999999,-2.2319946,4.854842700000001,0.08735169,0.17257284,0.9374326999999999,-15.24,63.12,16.32
1554103600451,7.762002000000001,-2.1170728,4.6776714,0.07776430000000001,0.13102753,0.91186637,-14.76,63.48,16.26
1554103600471,7.852981599999999,-2.3229742,4.9841294000000005,0.096939065,0.020240024,0.8277104999999999,-14.22,63.96,16.2
1554103600490,8.006210000000001,-2.4714148,5.0320134,0.21198763,-0.094808534,0.7105314,-13.56,64.44,16.14
1554103600510,8.020576,-2.3900118,5.1660886,0.37071204,-0.14807177,0.58483016,-12.96,64.92,16.08
1554103600531,7.819463000000001,-2.2080526000000003,5.3863554,0.5944176,-0.20453078,0.41225734,-12.54,65.28,15.96
1554103600550,7.987056699999999,-2.1888987999999996,5.209184,0.61678815,-0.30146983,0.30892670000000005,-12.06,65.58,15.9
1554103600571,7.833828,-2.3277626000000002,5.5347957999999995,0.58909124,-0.3898868,0.18748654,-11.58,65.76,15.78
1554103600591,7.565677,-2.4809916000000003,6.06152,0.628506,-0.42930159999999995,0.13741912,-11.1,66.0,15.6
1554103600610,7.6470804,-2.5145104,5.927445,0.7488809000000001,-0.41971418,0.1107875,-10.62,66.24,15.42
1554103600631,7.656657000000001,-2.3708582000000002,5.7933699999999995,0.8969527,-0.34940675,0.07989483,-10.08,66.42,15.12
1554103600652,7.2448545,-2.5001452,6.0088477,0.8788431999999999,-0.30360037,0.12570119999999999,-9.72,66.54,14.7
1554103600671,6.8330517,-2.6725276,6.1237693,0.7435546,-0.330232,0.14594123,-9.42,66.66,14.22
1554103600691,6.742072,-2.8880057,6.085462000000001,0.6849651,-0.34834146,0.09267801,-9.12,66.84,13.74
1554103600711,6.780379300000001,-2.926313,5.9561753,0.78723043,-0.3749731,0.047936900000000005,-9.0,66.96,13.26
1554103600731,7.062895,-3.0125043,5.515642,0.95234644,-0.38562572,-0.015978966,-8.94,67.02,12.84
1554103600751,7.105990400000001,-2.9837740000000004,5.539584,1.0077401,-0.38136467,-0.06178534,-8.94,67.08,12.42
1554103600771,7.153875,-2.8401217,5.4102974,0.9715212,-0.36964676,-0.096939065,-9.06,67.14,11.94
1554103600791,7.192182000000001,-2.8592752999999997,5.194819,0.8745821,-0.350472,-0.10439592,-9.18,67.14,11.52
1554103600811,7.2640080000000005,-2.8161798,4.9458222,0.7190535,-0.32384038,-0.07456851,-9.3,67.08,11.04
1554103600831,7.249642999999999,-2.8018146,4.955399,0.5294364,-0.30999196,-0.01917476,-9.42,67.02,10.38
1554103600851,7.278373200000001,-2.8736405,5.3863554,0.4261058,-0.32170987,0.06498113,-9.42,66.96,9.78
1554103600870,7.374141000000001,-3.0556,5.319318,0.45380265,-0.3536678,0.11824436,-9.42,66.84,9.18
1554103600891,7.417236999999999,-2.8640637000000004,5.089474,0.57098174,-0.36751625,0.15978967,-9.36,66.78,8.58
1554103600911,7.4028716,-2.6629508,5.132569999999999,0.6562029,-0.38029942,0.20879184,-9.3,66.72,7.98
1554103600931,7.417236999999999,-2.3612813999999998,5.099051,0.7275756,-0.40586576,0.2790993,-9.36,66.6,7.5
1554103600951,7.465121000000001,-2.380435,5.146935,0.72437984,-0.43675843,0.34194988,-9.36,66.54,7.02
1554103600970,7.8290396,-2.1266496,5.2618566,0.6956177,-0.44741106,0.40906155,-9.42,66.42,6.48
1554103600990,7.833828,-2.1601684,5.185242,0.68816084,-0.406931,0.43036684,-9.42,66.36,6.3
1554103601010,8.2169,-2.0404584,5.209184,0.6444850000000001,-0.33449304,0.4708469,-9.42,66.18,5.94
1554103601031,9.576807,-2.3612813999999998,5.458181400000001,0.56245965,-0.30999196,0.42290998,-9.3,66.0,5.22
1554103601050,10.386047,-2.4666264,5.036802,0.567786,-0.3291667,0.30786142,-9.18,65.82,4.68
1554103601070,10.726024,-2.212841,4.5723267,0.5581986,-0.31212249999999997,0.21944448,-9.06,65.7,4.14
1554103601090,10.34774,-2.0213048,4.222773,0.47404268,-0.28442562,0.19174760000000002,-8.88,65.58,3.66
1554103601111,9.859323,-2.0931308,4.208408,0.37710363,-0.23755397,0.2428803,-8.7,65.46,3.24
1554103601131,9.308656,-2.107496,4.079121,0.35260254,-0.20879184,0.35579833,-8.52,65.34,2.88
1554103601150,8.8777,-2.1218612,3.6816837999999996,0.4048005,-0.22264028,0.48149952,-8.4,65.22,2.52
1554103601171,8.920795,-2.2511482000000003,3.2986114,0.6444850000000001,-0.23542345,0.6317018,-8.28,65.04,2.16
1554103601190,8.954314,-2.3612813999999998,2.8628666000000003,0.84155893,-0.24394555,0.6775081999999999,-8.28,64.92,1.8
1554103601211,8.599973,-2.0739772000000003,2.3744495,1.0396981,-0.26418558,0.69987875,-8.22,64.8,1.44
1554103601230,8.451532,-2.0260932,2.0153193,1.0929613,-0.28229508,0.68176925,-8.04,64.62,1.02
1554103601251,8.465898,-2.0739772000000003,1.7615339,1.0418286,-0.30892670000000005,0.6402239000000001,-7.74,64.5,0.6
1554103601270,8.623915,-2.1362264,1.8908207,1.0034790999999998,-0.32810146,0.54648066,-7.32,64.32,0.06
1554103601290,8.75799,-2.2655133999999997,1.9243397,1.0418286,-0.32490566,0.46552056,-6.96,64.26,-0.48
1554103601311,9.097966,-2.107496,1.8381484000000001,1.1132014,-0.30999196,0.34194988,-6.54,64.2,-1.08
1554103601330,9.303867,-2.0213048,1.6514006,1.0865698000000001,-0.28549087,0.23009712,-6.18,64.08,-1.68
1554103601351,9.500193,-1.9734207,1.4598645000000001,0.92464954,-0.2727077,0.15978967,-5.76,63.78,-2.28
1554103601371,9.591172,-1.9877859,1.5508442,0.7105314,-0.26525086,0.12463594,-5.4,63.3,-2.82
1554103601390,9.753978,-2.0260932,1.7280151000000001,0.5006742999999999,-0.28122982,0.11930962,-5.1,62.82,-3.48
1554103601410,9.763555,-2.3229742,1.9961656000000003,0.38775626,-0.29507825,0.11930962,-5.04,62.22,-4.08
1554103601433,9.662998,-2.2798786,1.9865887999999998,0.37816888,-0.3174488,0.10972224,-4.92,61.56,-4.74
1554103601451,9.581595,-2.380435,2.0871453,0.45699844,-0.33981937,0.11504856,-4.92,60.9,-5.28
1554103601470,9.811439,-2.3900118,1.9434932,0.5795039000000001,-0.3536678,0.11824436,-4.86,60.3,-5.88
1554103601492,9.753978,-2.4091654,2.1924900000000003,0.68389976,-0.35473305,0.13848437,-4.86,59.7,-6.36
1554103601511,9.763555,-2.5528176,2.4223334999999997,0.7946873000000001,-0.39201729999999996,0.16724652,-4.86,59.34,-6.72
1554103601532,9.701305,-2.4762032000000005,2.1972785,0.85327685,-0.43036684,0.15765914,-4.8,59.04,-7.14
1554103601550,9.634267999999999,-2.332551,2.2691047,0.87032104,-0.45380265,0.165116,-4.8,58.74,-7.5
1554103601570,9.639056,-2.3612813999999998,2.2451627,0.86606,-0.45806372,0.20026971,-4.8,58.44,-7.8
1554103601591,9.519346,-2.3181857999999997,2.3840263,0.88949585,-0.42397526,0.23435818,-4.86,58.02,-8.22
1554103601611,9.241617999999999,-2.3373394,2.3505075,0.9406285,-0.3653857,0.26205507,-4.86,57.42,-8.7
1554103601631,8.968679,-2.308609,2.2307975,0.99495703,-0.28868666,0.28442562,-4.92,56.82,-9.06
1554103601650,8.872911,-2.0739772000000003,1.8860323,0.95447695,-0.19707392,0.29827404,-4.92,56.16,-9.42
1554103601670,8.810661999999999,-1.8489223000000001,1.5508442,0.79255676,-0.10865697,0.294013,-4.98,55.38,-9.84
1554103601690,8.767567,-1.6956933999999997,1.5125369,0.5699165,-0.00958738,0.27590349999999997,-5.04,54.66,-10.26
1554103601711,8.623915,-1.9303252,1.3305776000000002,0.294013,0.14594123,0.21411815,-5.04,53.52,-11.1
1554103601730,8.456321,-1.9590555,1.6226702,0.15978967,0.23755397,0.15978967,-5.04,53.22,-11.34
1554103601751,8.394072,-1.9542671000000003,1.5077485000000002,0.0031957934000000003,0.31105720000000003,0.08841695,-5.04,52.62,-11.76
1554103601770,8.690952000000001,-2.0260932,1.8764555,-0.09267801,0.3717773,0.004261058,-4.92,52.14,-12.06
1554103601791,8.944737,-2.0979192,2.2068555,-0.17789917,0.46019423,-0.06178534,-4.68,51.66,-12.48
1554103601811,9.045294,-2.1027076,2.3600842999999996,-0.257794,0.5294364,-0.099069595,-4.62,51.54,-12.6
1554103601831,9.02614,-2.1745335999999997,2.484583,-0.37390783,0.59761333,-0.1470065,-4.5,51.36,-12.84
1554103601851,9.332599,-2.1505916000000003,2.9346926,-0.52411014,0.62744075,-0.17576863,-4.26,51.18,-13.08
1554103601870,9.65821,-2.2750902,2.8485014,-0.60080916,0.6242449999999999,-0.18855181,-4.2,51.18,-13.08
1554103601891,10.194510000000001,-2.3660697999999996,3.2986114,-0.6828345,0.60080916,-0.21944448,-4.02,51.48,-13.08
1554103601911,10.189722,-2.3133974,3.8013937000000007,-0.74035877,0.5858955,-0.29933932,-3.9,51.84,-13.02
1554103601931,9.883265,-2.0069396,3.7199910000000003,-0.7946873000000001,0.6061354999999999,-0.35260254,-3.84,52.2,-12.9
1554103601952,9.327810000000001,-1.7244238,3.8684312999999997,-0.9821738000000001,0.6689861,-0.3717773,-3.78,52.68,-12.66
1554103601970,9.121908,-1.7914615000000003,4.1317935,-1.1590078000000001,0.6956177,-0.3536678,-3.72,52.92,-12.54
1554103601990,8.743625,-1.8106151000000001,4.4526167,-1.4530207,0.69348717,-0.26205507,-3.36,53.76,-11.94
1554103602011,8.944737,-2.0165164,5.113416,-1.5339808000000001,0.6423545,-0.18642128,-3.18,54.48,-11.52
1554103602030,9.246407000000001,-2.0883423999999997,5.075108999999999,-1.4136058999999999,0.56459016,-0.15126756,-2.94,55.32,-11.04
1554103602050,8.643068,-1.5951369,5.4917,-1.2154667,0.46658584,-0.101200126,-2.7,56.28,-10.5
1554103602071,7.9583262999999995,-1.2503718000000001,5.5204306,-1.0652645,0.40053943,0.029827405,-2.52,57.18,-9.84
1554103602091,7.5608889999999995,-1.4466964,5.798158,-0.88203895,0.34727620000000003,0.25246766,-2.34,58.2,-9.06
1554103602111,7.632714999999999,-1.6909049999999999,5.9561753,-0.6945524000000001,0.35153726,0.35153726,-2.16,59.1,-8.34
1554103602131,7.8673470000000005,-1.6142905,5.965751999999999,-0.35899413,0.35792887,0.36432046,-2.1,60.0,-7.56
1554103602151,7.7093296,-1.3317747,5.6257753,-0.07989483,0.34514567,0.26738137,-2.1,60.84,-6.9
1554103602171,7.6518690000000005,-1.3988123,5.257068,0.04580637,0.32490566,0.15659387,-2.04,61.68,-6.18
1554103602190,7.599196000000001,-1.4562732,5.151723400000001,-0.012783173500000002,0.33129725,0.060720075,-1.92,62.22,-5.52
1554103602211,7.6135616,-1.4993688,4.960187400000001,-0.14807177,0.33875409999999995,0.03834952,-1.68,62.64,-4.98
1554103602230,7.5321584,-1.8106151000000001,5.276222,-0.40053943,0.32810146,-0.024501082,-1.5,63.0,-4.5
1554103602251,7.240066000000001,-2.059612,5.482123400000001,-0.46871635,0.2908172,-0.10439592,-1.2,63.24,-4.26
1554103602271,7.2304892999999995,-2.1745335999999997,5.4102974,-0.42930159999999995,0.24714136,-0.15020229,-0.96,63.48,-4.14
1554103602290,7.144297999999999,-2.203264,5.4964886,-0.36645097,0.19707392,-0.16085494,-0.66,63.6,-4.02
1554103602311,7.1490865,-2.15538,5.453393,-0.30999196,0.10546118,-0.17150758,-0.36,63.72,-3.9
1554103602331,7.4028716,-2.2798786,5.4055089999999995,-0.24820662,0.0031957934000000003,-0.19387813,-0.12,63.72,-3.6
1554103602351,7.4363904000000005,-2.380435,5.4055089999999995,-0.11504856,-0.082025364,-0.23222765,0.06,63.78,-3.24
1554103602370,7.369353,-2.3277626000000002,5.391144000000001,0.06498113,-0.14061491,-0.26312032,0.06,63.84,-2.88
1554103602390,7.422025,-2.1745335999999997,5.194819,0.20026971,-0.18216023,-0.2695119,0.18,63.96,-2.58
1554103602411,7.675811,-2.1505916000000003,5.1613,0.25885928,-0.20453078,-0.28016454,0.18,64.08,-2.28
1554103602431,8.063671000000001,-2.3277626000000002,5.122993,0.22264028,-0.23009712,-0.30040458,0.12,64.2,-2.04
1554103602451,8.288725999999999,-2.203264,4.8261123,0.13635385,-0.24714136,-0.386691,0.06,64.32,-1.86
1554103602471,8.676587,-2.4378957999999997,4.869208,-0.0031957934000000003,-0.23648871,-0.47830373,-0.12,64.44,-1.8
1554103602491,8.872911,-2.4378957999999997,5.185242,-0.14061491,-0.19813919,-0.6040049,-0.24,64.5,-1.86
1554103602510,8.90643,-2.5145104,5.180454,-0.2695119,-0.10865697,-0.7094661,-0.42,64.5,-1.98
1554103602530,8.724471000000001,-2.4426842,4.821324,-0.43782368,-0.011717908999999999,-0.74248934,-0.6,64.5,-2.1
1554103602551,8.331821000000001,-2.5192987999999996,4.8739963,-0.71798825,0.112918034,-0.721184,-0.96,64.5,-2.28
1554103602570,8.207322999999999,-2.6150667999999997,5.075108999999999,-0.86392945,0.15126756,-0.6583334,-1.08,64.44,-2.34
1554103602590,8.010999,-2.7252002,5.146935,-0.9235843,0.16937704,-0.55074173,-1.38,64.44,-2.34
1554103602610,8.039729,-2.8927941,5.127781400000001,-0.83942837,0.1587244,-0.44208476,-1.68,64.44,-2.34
1554103602632,8.030152000000001,-3.0172927000000005,5.1996074,-0.63702816,0.13954964,-0.34408042,-2.04,64.44,-2.22
1554103602650,8.226477000000001,-2.9550436,5.37199,-0.386691,0.101200126,-0.28549087,-2.46,64.5,-1.98
1554103602671,8.274361,-2.8975825,5.204396,-0.21837921,0.05539375,-0.28229508,-2.88,64.56,-1.68
1554103602691,8.0684595,-2.782661,4.8787847,-0.00958738,-0.002130529,-0.30253512,-3.48,64.74,-1.08
1554103602710,8.054094000000001,-2.7874494,4.7303440000000005,0.07030745599999999,-0.01917476,-0.2908172,-3.66,64.8,-0.9
1554103602731,7.9487495,-2.533664,4.524442700000001,0.10972224,-0.02876214,-0.28229508,-4.14,64.92,-0.36
1554103602750,7.896077,-2.5240872000000003,4.6680946,0.08841695,-0.029827405,-0.27696875,-4.26,64.98,-0.18
1554103602770,7.7811556,-2.7012582000000003,4.6202106,0.05539375,-0.017044231,-0.2545982,-4.5,65.1,0.18
1554103602791,7.8386164,-2.6390088,4.529230999999999,0.029827405,0.014913702,-0.23435818,-4.74,65.22,0.54
1554103602811,7.896077,-2.4187422,4.5100775,-0.00958738,0.03834952,-0.23648871,-4.86,65.28,0.66
1554103602831,7.9583262999999995,-2.48578,4.2945995,-0.06711166,0.058589544,-0.23648871,-4.98,65.28,0.66
1554103602851,7.915230800000001,-2.4714148,4.0360255,-0.13741912,0.06498113,-0.221575,-5.04,65.22,0.72
1554103602871,7.699753,-2.3517046,4.0839095,-0.21411815,0.07243799,-0.20240025,-5.16,65.16,0.72
1554103602891,7.546523599999999,-2.3995886000000004,4.040814,-0.26738137,0.06924219,-0.17576863,-5.16,65.16,0.72
1554103602911,7.6135616,-2.5384523999999997,4.1413703,-0.29188246,0.07350325,-0.12996227,-5.28,65.04,0.72
1554103602931,7.680599000000001,-2.5049335999999998,4.308964700000001,-0.22690132,0.07563378,-0.13315806,-5.34,64.98,0.72
1554103602950,7.943961,-2.4235306,4.3185415,-0.16298546,0.07137272,-0.15126756,-5.46,64.92,0.66
1554103602970,7.9487495,-2.4331074,4.2850223,-0.15020229,0.08735169,-0.17470337,-5.52,64.86,0.6
1554103602990,8.049306,-2.1984756,4.064756,-0.22903186,0.13209279,-0.18002969,-5.58,64.86,0.6
1554103603011,8.073248,-2.1745335999999997,4.174889,-0.406931,0.17044231,-0.17896444,-5.64,64.86,0.66
1554103603031,8.101977999999999,-2.3756466,4.337695,-0.6263755,0.19174760000000002,-0.18216023,-5.7,64.86,0.72
1554103603061,8.269572,-2.6198552000000004,4.735132,-0.77231675,0.14274544,-0.24927188,-5.82,64.92,1.02
1554103603074,8.350976,-2.710835,4.768651,-0.75633776,0.13209279,-0.25672874,-5.88,64.92,1.2
1554103603090,8.274361,-2.6868927000000005,4.9841294000000005,-0.6114618,0.07030745599999999,-0.27377295,-5.94,64.98,1.68
1554103603110,8.1881695,-2.710835,4.835689,-0.47617322,0.010652645,-0.23968449999999997,-6.06,64.98,2.1
1554103603131,8.149861999999999,-2.7060466,4.759074,-0.3153183,-0.039414786,-0.18429075,-6.24,64.92,2.58
1554103603152,8.1163435,-2.6964695,5.0224366,-0.13954964,-0.08628642,-0.13741912,-6.48,64.92,3.0
1554103603170,7.9343843,-2.7778726000000002,5.137358,0.029827405,-0.12570119999999999,-0.10439592,-6.66,64.92,3.42
1554103603191,8.101977999999999,-2.6964695,5.113416,0.16724652,-0.13954964,-0.101200126,-6.9,64.92,3.78
1554103603210,8.125919999999999,-2.404377,4.8452660000000005,0.23435818,-0.113983296,-0.113983296,-7.14,64.92,4.02
1554103603231,8.197746,-2.2463598,4.524442700000001,0.18002969,-0.06178534,-0.099069595,-7.32,64.92,4.14
1554103603250,8.121132000000001,-2.3277626000000002,4.5483847,0.022370555,-0.0031957934000000003,-0.07030745599999999,-7.44,64.92,4.14
1554103603270,8.125919999999999,-2.3756466,4.6633059999999995,-0.14061491,0.053263225,-0.02130529,-7.56,64.98,4.2
1554103603290,8.121132000000001,-2.4570496,4.6058455,-0.2545982,0.07989483,0.011717908999999999,-7.62,65.04,4.2
1554103603310,8.101977999999999,-2.4809916000000003,4.5675383,-0.32810146,0.101200126,0.035153727999999995,-7.62,65.1,4.2
1554103603331,8.0684595,-2.7060466,4.4238862999999995,-0.3568636,0.10652645,0.08735169,-7.62,65.22,4.2
1554103603351,8.063671000000001,-2.7539306,4.4717703,-0.34514567,0.08948222,0.12996227,-7.62,65.34,4.2
1554103603371,8.049306,-2.710835,4.577115,-0.30040458,0.04474111,0.16618125,-7.62,65.52,4.2
1554103603391,8.039729,-3.0268695,4.624999,-0.20026971,-0.018109497,0.18642128,-7.62,65.64,4.2
1554103603410,8.231264999999999,-2.9885623,4.6154222,-0.039414786,-0.09054748,0.16298546,-7.62,65.76,4.32
1554103603430,8.106767,-2.8880057,4.634576,0.16298546,-0.15446335,0.12144015,-7.62,65.88,4.56
1554103603450,7.9822683,-2.7252002,4.466982,0.35153726,-0.20133498,0.10759171,-7.62,66.0,4.8
1554103603470,7.9391727,-2.710835,4.56275,0.44741106,-0.23755397,0.08948222,-7.56,66.12,5.04
1554103603490,8.145074000000001,-2.60549,4.8165355000000005,0.47617322,-0.2727077,0.07030745599999999,-7.44,66.18,5.28
1554103603510,8.365341,-2.5576060000000003,4.7159786,0.49108690000000005,-0.28122982,0.04261058,-7.26,66.3,5.34
1554103603530,8.446744,-2.5623944,4.7878050000000005,0.49321744,-0.25140239999999997,0.033023197000000004,-7.14,66.36,5.4
1554103603552,8.451532,-2.3133974,4.7830167,0.44208476,-0.18216023,0.022370555,-6.96,66.42,5.34
1554103603570,8.374918,-2.4426842,4.9218802,0.36964676,-0.14487597,0.029827405,-6.9,66.48,5.28
1554103603591,8.346188,-2.4570496,4.883573,0.24927188,-0.10759171,0.06391586,-6.66,66.48,4.92
1554103603611,8.394072,-2.4187422,4.912303400000001,0.2130529,-0.083090626,0.08841695,-6.54,66.48,4.62
1554103603631,8.365341,-2.3612813999999998,4.768651,0.2428803,-0.07030745599999999,0.10652645,-6.54,66.42,4.32
1554103603650,8.389283,-2.3469162,4.5723267,0.2972088,-0.05006743,0.12037488,-6.48,66.24,4.08
1554103603671,8.307879,-2.1984756,4.634576,0.30892670000000005,-0.03195793,0.12570119999999999,-6.48,66.06,3.9
1554103603692,8.197746,-2.2990322,4.6393642,0.28655612,-0.022370555,0.12463594,-6.42,65.88,3.72
1554103603710,8.106767,-2.1266496,4.466982,0.25033715,-0.029827405,0.112918034,-6.36,65.7,3.6
1554103603730,8.255207,-2.2894554,4.4238862999999995,0.20453078,-0.041545313,0.082025364,-6.24,65.58,3.42
1554103603750,8.303091,-2.3995886000000004,4.5483847,0.18535602,-0.034088463,0.08841695,-6.06,65.4,3.24
1554103603770,8.331821000000001,-2.404377,4.385579,0.1768339,-0.023435817999999997,0.10439592,-5.88,65.34,3.12
1554103603790,8.384495,-2.4283189999999997,4.586692,0.15126756,0.0053263223,0.10865697,-5.7,65.28,3.0
1554103603811,8.413225,-2.48578,4.6680946,0.113983296,0.029827405,0.14487597,-5.52,65.28,2.94
1554103603831,8.513782,-2.6150667999999997,4.5148660000000005,0.06711166,0.06178534,0.18109496,-5.4,65.28,2.76
1554103603851,8.24563,-2.7682957999999998,4.936245400000001,0.015978966,0.08735169,0.22690132,-5.28,65.28,2.64
1554103603870,8.063671000000001,-2.7443538,4.8261123,-0.011717908999999999,0.1107875,0.30466563,-5.22,65.34,2.46
1554103603891,7.929596000000001,-2.8736405,4.7016134,-0.020240024,0.16618125,0.40586576,-5.16,65.34,2.34
1554103603910,7.7093296,-2.9167361,4.6441526,-0.03195793,0.17363810000000002,0.46552056,-5.04,65.34,2.22
1554103603931,7.785944000000001,-3.1657330000000004,4.835689,-0.05219796,0.1470065,0.48469532,-4.92,65.4,2.16
1554103603950,7.785944000000001,-3.520075,5.099051,-0.018109497,0.111852765,0.50600064,-4.8,65.4,2.1
1554103603971,7.843405000000001,-3.6206315000000004,4.869208,0.08735169,0.112918034,0.5400891,-4.68,65.52,2.04
1554103603990,7.8673470000000005,-3.697246,4.979341000000001,0.20772657,0.14168017,0.58696073,-4.5,65.58,2.04
1554103604010,7.752425,-3.7211879999999997,5.1038394,0.3057309,0.15765914,0.64555025,-4.32,65.76,2.04
1554103604031,7.6710224,-3.6924577000000003,4.9937059999999995,0.36218992,0.15552860000000002,0.69348717,-4.02,65.94,2.04
1554103604051,7.608772999999999,-3.7786489000000003,5.0511669999999995,0.37284255,0.12676647,0.72011876,-3.72,66.06,1.98
1554103604070,7.5608889999999995,-3.7211879999999997,4.9458222,0.39308259999999995,0.098004326,0.7275756,-3.36,66.18,1.98
1554103604090,7.5321584,-3.7259765,4.8979383,0.44741106,0.09054748,0.7286409,-2.94,66.36,1.92
1554103604111,7.493850999999999,-3.7116113,4.955399,0.50387007,0.09374327,0.7041398,-2.46,66.48,1.8
1554103604131,7.4699089999999995,-3.6876693,4.8404775,0.5816344,0.07776430000000001,0.6562029,-2.04,66.54,1.68
1554103604151,7.4268136,-3.5631707,4.8787847,0.6359629,0.06711166,0.5901565,-1.56,66.6,1.5
1554103604171,7.3789296,-3.3333273,4.744708999999999,0.6317018,0.04261058,0.5400891,-1.14,66.54,1.32
1554103604191,7.493850999999999,-3.3141737,4.5148660000000005,0.5795039000000001,0.022370555,0.50600064,-0.66,66.54,1.08
1554103604210,7.3885064,-3.2662897,4.5483847,0.5070659000000001,0.004261058,0.46019423,-0.18,66.48,0.84
1554103604230,7.407660000000001,-3.2902317,4.6202106,0.4644553,-0.008522116,0.41438788,0.3,66.36,0.54
1554103604250,7.4028716,-3.4147300000000005,4.7207669999999995,0.46232477,-0.02130529,0.38456047,0.66,66.24,0.18
1554103604271,7.4363904000000005,-3.4003648999999996,4.869208,0.4825648,-0.049002163,0.33662358,1.02,66.12,-0.12
1554103604290,7.4124484,-3.2758665000000002,4.835689,0.45699844,-0.07882957,0.3174488,1.38,66.0,-0.42
1554103604310,7.5800424,-3.3955764999999998,4.8787847,0.42077947,-0.10546118,0.31957933,1.74,65.88,-0.72
1554103604331,7.5082164,-3.4578260000000003,5.233126,0.43036684,-0.10972224,0.3206446,2.1,65.7,-1.02
1554103604351,7.5082164,-3.3859997,5.3049526,0.4644553,-0.096939065,0.31105720000000003,2.46,65.46,-1.32
1554103604370,7.445967,-3.5440169999999998,5.510854,0.47510794,-0.08628642,0.29294774,2.7,65.28,-1.62
1554103604391,7.5800424,-3.5583823,5.606621700000001,0.46232477,-0.07137272,0.29827404,2.94,65.04,-2.04
1554103604411,7.517792999999999,-3.5871127,5.558737799999999,0.4048005,-0.03195793,0.3323625,3.24,64.68,-2.46
1554103604430,7.422025,-3.5727474999999997,5.7790045999999995,0.32597092,0.015978966,0.37071204,3.3,64.5,-2.64
1554103604451,7.345411,-3.6206315000000004,5.903503,0.24501082,0.053263225,0.386691,3.48,64.14,-2.94
1554103604471,7.2975270000000005,-3.7116113,5.9801173,0.18322548,0.101200126,0.39414784,3.84,63.72,-3.36
1554103604491,7.1873937,-3.7355532999999994,6.023213,0.1587244,0.13848437,0.40053943,4.02,63.42,-3.6
1554103604511,7.134721300000001,-3.769072,5.965751999999999,0.12783173,0.16298546,0.4101268,4.2,63.24,-3.84
1554103604531,7.015011,-3.816956,5.917868,0.12250541,0.16937704,0.39734364,4.32,63.06,-4.02
1554103604551,7.038953,-3.7738605000000005,5.9082913,0.12570119999999999,0.15233281,0.36751625,4.56,62.94,-4.14
1554103604571,7.038953,-3.840898,6.0519433,0.12996227,0.13954964,0.3568636,4.8,62.82,-4.26
1554103604591,7.015011,-4.0084919999999995,6.085462000000001,0.19068234,0.15552860000000002,0.36751625,5.04,62.82,-4.32
1554103604610,6.8665705,-4.156933,6.1764417,0.3323625,0.18429075,0.36432046,5.4,62.76,-4.44
1554103604630,6.8091097000000005,-3.9318779000000004,6.118981,0.44528055,0.20559604,0.36005938,5.76,62.76,-4.56
1554103604650,6.655881,-3.8552632000000004,6.2339025,0.49428272,0.21092236,0.35899413,6.18,62.7,-4.68
1554103604672,6.684611299999999,-3.8839936,6.2003837,0.51771855,0.21944448,0.38242993,6.54,62.7,-4.74
1554103604690,6.603208,-3.8456864,5.960963700000001,0.5134575,0.23542345,0.39840892,6.96,62.64,-4.86
1554103604710,6.569689299999999,-3.8552632000000004,6.128557700000001,0.46871635,0.24607609,0.39947417,7.38,62.52,-4.98
1554103604730,6.5218053,-3.9989154,6.214748999999999,0.43675843,0.25992453,0.39414784,7.68,62.4,-5.16
1554103604751,6.339846,-3.9270894999999997,6.2482677,0.44528055,0.27696875,0.386691,8.1,62.22,-5.34
1554103604771,6.2009826,-3.9510313999999997,6.118981,0.44315,0.2876214,0.38242993,8.52,61.98,-5.58
1554103604791,6.1100025,-3.970185,6.2339025,0.43675843,0.314253,0.3717773,8.82,61.74,-5.76
1554103604810,5.9998693,-3.769072,6.071097,0.39734364,0.32810146,0.3323625,9.24,61.32,-6.06
1554103604831,5.865794,-3.7834373,6.0423665,0.31212249999999997,0.33449304,0.31638354,9.66,60.9,-6.24
1554103604850,5.60722,-3.74513,5.9705405,0.23329292,0.33768883,0.29933932,10.08,60.36,-6.42
1554103604870,5.4683566,-3.8935703999999998,6.0040593,0.13528858,0.33129725,0.28122982,10.44,59.88,-6.6
1554103604891,5.353435,-3.8504747999999998,5.9082913,0.06391586,0.28975195,0.2545982,10.8,59.46,-6.78
1554103604910,5.3247046,-3.8839936,5.9849057,0.036218993,0.2609898,0.221575,11.16,59.1,-6.9
1554103604931,5.3678,-4.013280399999999,6.1381345000000005,0.007456851,0.23542345,0.21198763,11.4,58.8,-7.02
1554103604950,5.386954,-4.032433999999999,5.903503,-0.002130529,0.20240025,0.20133498,11.64,58.5,-7.08
1554103604971,5.209783,-3.8696284,6.013636,0.0031957934000000003,0.1768339,0.18748654,11.76,58.38,-7.14
1554103604992,5.0996494000000006,-3.9845502,6.3153057,-0.011717908999999999,0.13741912,0.16405073,11.82,58.32,-7.2
1554103605010,5.0517654,-4.013280399999999,6.329671,-0.008522116,0.07030745599999999,0.14168017,11.94,58.32,-7.26
1554103605031,5.1235914000000005,-3.9270894999999997,6.4350157,0.0063915867,0.0,0.12144015,12.06,58.26,-7.32
1554103605051,5.1906295,-4.0084919999999995,6.401497,0.020240024,-0.051132694000000006,0.10439592,12.18,58.26,-7.32
1554103605070,5.1379566,-3.9510313999999997,6.5212069999999995,0.046871635999999994,-0.08628642,0.083090626,12.36,58.2,-7.26
1554103605091,5.295974299999999,-4.094683600000001,6.889914,0.06498113,-0.11504856,0.06604639400000001,12.48,58.08,-7.26
1554103605111,5.473145,-4.353257,6.9665284,0.10546118,-0.128897,0.068176925,12.72,57.9,-7.2
1554103605130,5.535394,-4.209605000000001,6.985682000000001,0.12676647,-0.10972224,0.06498113,12.84,57.78,-7.2
1554103605151,5.511451999999999,-4.013280399999999,6.875549,0.1107875,-0.05965481,0.06498113,13.08,57.54,-7.2
1554103605170,5.5737014,-4.1329910000000005,6.923433,0.051132694000000006,-0.029827405,0.07456851,13.08,57.48,-7.2
1554103605191,5.4539914000000005,-4.152144399999999,6.923433,-0.113983296,0.02876214,0.07563378,13.26,57.24,-7.2
1554103605211,5.410896,-4.223970400000001,6.9425864,-0.22050974,0.06924219,0.07350325,13.26,57.18,-7.2
1554103605231,5.329493,-4.4681787,6.8228765,-0.33662358,0.11930962,0.09374327,13.32,57.0,-7.2
1554103605250,5.1906295,-4.664503599999999,6.7989345000000005,-0.42077947,0.1587244,0.12996227,13.38,56.94,-7.26
1554103605270,5.2241483,-4.635773,6.684012400000001,-0.52624065,0.19174760000000002,0.16618125,13.44,56.88,-7.26
1554103605291,5.21936,-4.7602715,6.6217630000000005,-0.67005134,0.22370553,0.21092236,13.5,56.94,-7.26
1554103605311,5.094861,-4.860828,6.5403605,-0.7861651999999999,0.24501082,0.23648871,13.62,57.06,-7.26
1554103605331,5.1475334,-5.277419,6.51163,-0.93849796,0.27057716,0.2876214,13.86,57.36,-7.02
1554103605351,5.080496,-5.7418942,6.774992500000001,-0.95447695,0.30146983,0.3291667,14.04,57.54,-6.84
1554103605371,5.104438,-6.201581,7.043143,-0.78296936,0.34940675,0.38456047,14.46,58.2,-6.24
1554103605391,5.1523223,-6.656479400000001,7.138911,-0.49321744,0.37284255,0.42397526,14.7,58.56,-5.82
1554103605411,5.209783,-6.656479400000001,7.167641000000001,-0.25033715,0.39947417,0.46339005,14.88,58.8,-5.58
1554103605430,4.8602295,-6.1345434,6.746262,-0.011717908999999999,0.41971418,0.6040049,15.3,59.4,-4.74
1554103605450,4.4963107,-5.847239,6.947375,0.07350325,0.42290998,0.67218184,15.48,59.76,-4.14
1554103605470,4.4819455,-5.909488,7.062296400000001,0.12144015,0.406931,0.7275756,15.72,60.0,-3.6
1554103605490,4.3718123,-5.799355,7.1820064,0.19920446,0.37390783,0.72437984,16.02,60.12,-3.18
1554103605511,4.0701427,-5.583876999999999,7.2873516,0.30892670000000005,0.33875409999999995,0.68816084,16.32,60.06,-2.94
1554103605531,3.8115692,-5.310938,7.1963716,0.43995422,0.30786142,0.6562029,16.68,59.88,-2.76
1554103605550,3.6822822,-5.105036699999999,6.894702400000001,0.56672066,0.27377295,0.6061354999999999,17.04,59.58,-2.58
1554103605571,3.4811692,-4.908712,7.1820064,0.6178534000000001,0.24820662,0.54435015,17.52,59.28,-2.46
1554103605591,3.265691,-4.779425,6.96174,0.5539375,0.20772657,0.49002165,18.0,58.92,-2.4
1554103605610,3.1890767,-4.7698483,6.923433,0.46339005,0.18002969,0.43782368,18.54,58.56,-2.46
1554103605631,2.992752,-4.8225207,7.225102000000001,0.36005938,0.12996227,0.35473305,19.02,58.14,-2.58
1554103605650,3.0214825000000003,-4.9278655,7.282563000000001,0.36645097,0.10972224,0.29827404,19.32,57.72,-2.7
1554103605671,2.9496564999999997,-5.143344,7.478887599999999,0.42290998,0.099069595,0.26418558,19.56,57.3,-2.82
1554103605691,3.0502129,-5.3396683,7.545925,0.531567,0.12570119999999999,0.23329292,19.92,56.76,-3.0
1554103605711,3.0166939999999998,-5.105036699999999,7.727885000000001,0.59122175,0.15765914,0.19281286,20.16,56.4,-3.12
1554103605730,2.906561,-5.061941,7.74225,0.5486112,0.18322548,0.19174760000000002,20.34,55.92,-3.3
1554103605750,2.8874072999999996,-5.167286,7.747038400000001,0.48149952,0.19600865,0.20133498,20.58,55.44,-3.48
1554103605771,3.0071173,-5.1241902999999995,7.9098440000000005,0.43782368,0.22583607,0.2066613,20.76,54.84,-3.54
1554103605791,2.954445,-5.224746700000001,7.9529395,0.45593318,0.2428803,0.23542345,20.94,54.18,-3.66
1554103605810,2.930503,-4.9757495,7.9625163,0.48469532,0.24714136,0.24074976,21.18,53.52,-3.66
1554103605831,2.7246015,-4.956596,7.7518270000000005,0.5028047999999999,0.22050974,0.25033715,21.3,52.92,-3.72
1554103605851,2.7820622999999998,-4.851251,8.024766,0.5123922000000001,0.17150758,0.25246766,21.36,52.44,-3.9
1554103605871,2.7868507,-4.918288700000001,8.091804,0.53795856,0.13422333,0.27057716,21.48,52.08,-4.02
1554103605891,2.7868507,-4.970961,8.22109,0.5858955,0.12144015,0.28975195,21.54,51.72,-4.14
1554103605911,2.6479871,-4.8895583,8.211513499999999,0.60293967,0.12357068,0.3057309,21.54,51.42,-4.32
1554103605931,2.4708161,-4.755483,8.201937,0.59867865,0.13954964,0.31105720000000003,21.6,51.12,-4.5
1554103605950,2.4756044999999998,-4.7842135,8.3072815,0.59867865,0.17150758,0.330232,21.72,50.82,-4.68
1554103605970,2.3415293999999998,-4.573524,7.943362700000001,0.6061354999999999,0.20240025,0.33129725,21.9,50.46,-4.92
1554103605990,2.3702598,-4.3101616,7.924208999999999,0.48149952,0.23968449999999997,0.37071204,22.14,50.04,-5.16
1554103606011,2.2266076,-4.6980224,8.264186,0.18642128,0.31638354,0.43569317,22.44,49.5,-5.34
1554103606030,2.15957,-4.745906400000001,8.3551655,0.09374327,0.3749731,0.45380265,22.68,48.96,-5.52
1554103606051,2.1164744,-4.7506948,8.556278,0.12570119999999999,0.44634579999999996,0.4878911,23.04,48.36,-5.64
1554103606071,2.0590134,-4.64535,8.450933000000001,0.1438107,0.50600064,0.5028047999999999,23.34,47.76,-5.76
1554103606091,1.9536686,-4.745906400000001,8.604161999999999,0.16618125,0.5699165,0.5294364,23.7,47.16,-5.88
1554103606110,1.9632453999999997,-4.8320975,9.059061,0.27803403,0.6540724,0.5550028,24.12,46.74,-6.0
1554103606130,2.0638018,-4.6980224,9.322422999999999,0.5411543000000001,0.8383630999999999,0.5784385999999999,24.78,46.08,-6.06
1554103606151,1.8339584999999998,-4.5352163,9.317635000000001,0.64768076,0.9853696,0.5954828000000001,24.96,45.9,-6.06
1554103606170,1.4508862,-4.2814309999999995,9.57142,0.6828345,1.1622036,0.5933523,25.26,45.54,-6.06
1554103606190,1.2354081000000001,-4.0755300000000005,9.399037,0.6444850000000001,1.2676646999999999,0.59761333,25.56,45.18,-5.94
1554103606211,0.8523358,-3.840898,9.173983,0.5230448000000001,1.433846,0.6114618,26.1,44.52,-5.58
1554103606231,0.45010993,-4.065953299999999,9.264961999999999,0.406931,1.5201323999999998,0.67218184,26.58,43.92,-5.16
1554103606250,0.04309563,-4.4442368,9.09258,0.4048005,1.5318503,0.7190535,27.24,43.2,-4.68
1554103606271,-0.33997664,-4.185663,8.958505,0.535828,1.506284,0.7392935,27.78,42.48,-4.02
1554103606290,-0.63206923,-3.8313212,8.843582000000001,0.6828345,1.4466291999999998,0.7552725,28.32,41.76,-3.3
1554103606310,-0.9768343,-3.5823242999999994,8.632893,0.7350325,1.3443637,0.793622,28.86,41.04,-2.52
1554103606331,-1.3072342,-3.4530375,8.580219999999999,0.76592517,1.2122709999999999,0.8447546999999999,29.4,40.26,-1.68
1554103606351,-1.5083469999999999,-3.3237504999999996,8.403049000000001,0.83942837,1.0737866000000003,0.8831041999999999,30.06,39.36,-0.78
1554103606370,-1.8243817,-3.1609447,8.407838,0.90014845,0.91186637,0.89588743,30.66,38.34,-0.12
1554103606390,-1.9488802,-2.8688521000000002,8.3312235,0.9129315999999998,0.7797736,0.9257148000000001,31.2,37.32,0.6
1554103606410,-2.1691467999999996,-2.5623944,8.316858,0.91825795,0.6775081999999999,0.93423694,31.5,36.42,1.2
1554103606431,-2.3032220000000003,-2.3229742,8.403049000000001,0.86499476,0.57098174,0.9406285,31.8,35.4,1.74
1554103606451,-2.3654714,-2.2703017999999995,8.585009,0.8404937,0.51771855,0.9598033000000001,32.16,34.26,2.22
1554103606470,-2.4612392999999995,-2.1362264,8.570642999999999,0.87564737,0.44315,0.98750013,32.46,33.12,2.64
1554103606491,-2.5139117000000004,-1.5951369,8.55149,0.98110855,0.41225734,0.9587379999999999,32.82,31.86,2.94
1554103606510,-2.5617957000000002,-1.1881226,8.403049000000001,1.0354371,0.43462790000000007,0.93423694,33.06,30.6,3.18
1554103606531,-2.695871,-0.96785605,8.216302,0.81705785,0.45912898,0.98750013,33.24,29.28,3.42
1554103606551,-2.8443117,-0.9199719999999999,8.369531,0.7350325,0.47830373,1.0056095999999999,33.42,27.96,3.54
1554103606571,-2.944868,-0.7236475,8.565855,0.66152924,0.48682585,0.96406436,33.54,26.58,3.66
1554103606590,-2.9161377,-0.39803603,8.513183,0.7190535,0.49428272,0.9587379999999999,33.66,25.2,3.84
1554103606611,-3.0071173,0.0664391,8.177995,0.7584683000000001,0.5070659000000001,0.95234644,33.78,23.94,4.02
1554103606631,-3.1411927000000004,0.40162733,8.039131,0.737163,0.51665324,0.9406285,33.9,22.62,4.2
1554103606650,-3.371036,0.5979519,7.8811135,0.7052050999999999,0.5123922000000001,0.91612744,33.9,21.36,4.44
1554103606670,-3.3183637000000004,0.8182184,7.665635000000001,0.70840085,0.4889564,0.85966843,33.96,20.28,4.68
1554103606691,-3.3854012000000004,1.1055226,7.7614035999999995,0.71479243,0.45699844,0.79894835,34.02,19.08,4.98
1554103606712,-3.394978,1.5269021,7.967304700000001,0.6892261,0.42184472,0.7488809000000001,34.02,17.94,5.28
1554103606731,-3.4237084,1.905186,7.5794440000000005,0.6444850000000001,0.39734364,0.660464,34.02,16.92,5.52
