TimeStamp,Ax,Ay,Az,Gx,Gy,Gz,Mx,My,Mz
1554109726180,-6.4020953,-3.5152867,5.903503,-0.036218993,-0.28016454,1.2815131000000002,17.28,35.94,3.48
1554109726201,-6.0908489999999995,-3.5823242999999994,5.510854,-0.068176925,-0.30040458,1.2367721,17.58,34.38,3.3
1554109726221,-6.1530986,-3.2423477000000003,5.462969999999999,-0.037284255,-0.26205507,1.2048141,17.82,32.82,3.18
1554109726241,-5.9998693,-3.0556,5.458181400000001,0.049002163,-0.23435818,1.2623383999999997,18.06,31.2,2.94
1554109726261,-5.683835,-2.9215245,5.3384714,0.09267801,-0.20133498,1.2016183,18.24,29.46,2.76
1554109726281,-5.731719,-2.6150667999999997,5.252279799999999,0.054328485999999995,-0.1470065,1.1025486999999998,18.48,27.66,2.52
1554109726301,-5.837064,-2.5480292,5.1038394,-0.002130529,-0.09161274,1.0578076,18.72,26.04,2.22
1554109726321,-5.741296,-2.3995886000000004,5.185242,-0.08841695,-0.03089267,1.0024139,18.84,24.42,1.98
1554109726340,-5.93762,-2.3373394,5.3049526,-0.19707392,0.024501082,0.9108011,18.9,22.8,1.74
1554109726360,-6.0285997,-2.1984756,5.5347957999999995,-0.330232,0.08948222,0.8309063,19.02,21.3,1.5
1554109726381,-6.2345014,-2.2080526000000003,5.635351999999999,-0.43462790000000007,0.16298546,0.7669904000000001,19.08,19.74,1.26
1554109726400,-6.4739213,-2.1410147999999998,5.960963700000001,-0.46552056,0.23009712,0.70200926,19.08,17.58,1.02
1554109726421,-6.6367273,-2.0260932,5.9801173,-0.45273739999999996,0.27377295,0.6668556,19.08,17.04,0.96
1554109726440,-6.924031299999999,-2.0691888,6.047155,-0.49321744,0.2727077,0.59867865,19.08,15.66,0.84
1554109726460,-6.8091097000000005,-2.0260932,6.1237693,-0.57098174,0.25246766,0.5230448000000001,19.08,14.82,0.72
1554109726480,-6.708553299999999,-1.8154035,6.3584013,-0.5933523,0.22903186,0.46978164,19.08,13.92,0.72
1554109726503,-6.7468604999999995,-1.8920178,6.569091,-0.5336975,0.18322548,0.43782368,19.02,13.14,0.72
1554109726522,-6.679823,-1.963844,6.741472999999999,-0.42397526,0.11824436,0.38882150000000004,18.96,12.18,0.72
1554109726542,-6.847417,-1.963844,6.8372416,-0.29614353,0.046871635999999994,0.3174488,18.96,11.4,0.72
1554109726562,-7.153875,-1.8632874,6.554725599999999,-0.17470337,-0.0053263223,0.25992453,18.9,10.5,0.72
1554109726582,-7.120356,-1.8249803,6.5738792,-0.07989483,-0.034088463,0.21092236,18.84,9.72,0.72
1554109726601,-7.1634517,-1.8680758000000002,6.353613,-0.011717908999999999,-0.043675844000000005,0.1587244,18.84,8.94,0.72
1554109726621,-7.0102224,-1.7675193999999999,6.114192500000001,0.007456851,-0.034088463,0.11717909,18.78,8.28,0.72
1554109726641,-7.0102224,-1.7340006000000001,6.0663085,0.004261058,0.008522116,0.08628642,18.78,7.68,0.78
1554109726660,-7.153875,-1.8154035,5.6545057,-0.011717908999999999,0.046871635999999994,0.07563378,18.78,7.26,0.78
1554109726680,-7.1490865,-1.8249803,5.7933699999999995,-0.058589544,0.083090626,0.054328485999999995,18.72,6.96,0.78
1554109726700,-7.153875,-1.8441339,5.7933699999999995,-0.039414786,0.10652645,0.03834952,18.72,6.78,0.84
1554109726720,-7.153875,-1.9734207,5.817312,0.0031957934000000003,0.11717909,0.008522116,18.78,6.72,0.84
1554109726740,-7.1730285,-1.6430208999999998,5.515642,0.05219796,0.128897,-0.043675844000000005,18.78,6.66,0.84
1554109726760,-7.0006455999999995,-1.6382325,5.8651957999999995,0.05965481,0.13954964,-0.09267801,18.78,6.54,0.9
1554109726781,-7.268796400000001,-1.6430208999999998,5.137358,0.30679616,0.09374327,-0.22583607,18.78,6.42,0.9
1554109726800,-7.522581599999999,-1.1115081,4.8069587,0.38242993,0.07669904,-0.27164245,18.78,6.36,1.02
1554109726820,-7.1155677,-1.5280992,5.3624134,0.2428803,0.096939065,-0.24607609,18.78,6.3,1.14
1554109726840,-7.254431200000001,-1.8010383,5.7359085,-0.08841695,0.14594123,-0.23116238,18.72,6.3,1.26
1554109726861,-7.3549875999999985,-1.9303252,5.9801173,-0.30466563,0.18535602,-0.20985709,18.72,6.3,1.38
1554109726881,-7.465121000000001,-1.9207484000000001,6.095039,-0.29294774,0.19174760000000002,-0.20026971,18.66,6.3,1.5
1554109726901,-7.6135616,-1.8920178,6.06152,-0.19387813,0.18216023,-0.18748654,18.66,6.36,1.56
1554109726920,-7.6949644,-1.8872293999999998,6.095039,-0.12783173,0.15659387,-0.18855181,18.6,6.42,1.68
1554109726940,-7.762002000000001,-1.9590555,5.9561753,-0.07669904,0.12570119999999999,-0.19600865,18.6,6.6,1.86
1554109726961,-7.6231384,-2.0404584,5.6784476999999995,-0.053263225,0.09587380000000001,-0.1768339,18.54,6.78,1.98
1554109726981,-7.599196000000001,-2.1266496,5.2810106,-0.15978967,0.09267801,-0.16724652,18.54,6.96,2.04
1554109727001,-7.642291999999999,-1.9015948,5.3863554,-0.4016047,0.12357068,-0.17150758,18.54,7.08,2.16
1554109727021,-7.546523599999999,-2.0452468,5.5347957999999995,-0.6870956,0.18855181,-0.13102753,18.54,7.26,2.22
1554109727040,-7.4603324,-2.5145104,5.4055089999999995,-0.93423694,0.19813919,-0.06604639400000001,18.54,7.38,2.34
1554109727060,-7.422025,-2.9071592999999996,5.3145294000000005,-0.9960223,0.16937704,-0.05539375,18.54,7.56,2.46
1554109727080,-7.7667904000000005,-2.9981391,5.132569999999999,-0.7595335999999999,0.14487597,-0.060720075,18.54,7.62,2.64
1554109727101,-7.541735000000001,-2.6437972000000003,4.768651,-0.5113269,0.098004326,-0.046871635999999994,18.48,7.68,2.64
1554109727121,-7.943961,-2.806603,4.3424835,-0.44954160000000004,0.06711166,-0.08841695,18.48,7.68,2.7
1554109727140,-7.7811556,-2.3181857999999997,4.481347,-0.66365975,0.083090626,-0.07030745599999999,18.48,7.68,2.76
1554109727160,-7.599196000000001,-2.461838,4.797382,-0.93423694,0.10333065,-0.06178534,18.48,7.68,2.82
1554109727181,-7.915230800000001,-3.1992521000000003,5.065532,-0.9619338,0.09587380000000001,-0.04580637,18.48,7.68,2.88
1554109727201,-7.7572136,-3.4913447,5.3145294000000005,-0.75101143,0.07350325,-0.018109497,18.48,7.68,2.94
1554109727222,-7.7332716,-3.2662897,5.539584,-0.30253512,0.035153727999999995,-0.056459017,18.48,7.62,2.94
1554109727240,-7.6614455999999995,-3.2950199999999996,5.4055089999999995,-0.04580637,0.002130529,-0.068176925,18.48,7.56,2.94
1554109727260,-7.5608889999999995,-3.4482489999999997,5.5922565,0.27483824,-0.011717908999999999,-0.041545313,18.48,7.5,2.88
1554109727280,-7.752425,-3.5009214999999996,5.7454852999999995,0.60507023,-0.00958738,-0.056459017,18.42,7.38,2.88
1554109727301,-7.584830800000001,-3.1800982999999996,5.6497173,0.9086706,0.012783173500000002,-0.047936900000000005,18.42,7.32,2.82
1554109727320,-7.3071036,-3.0699651,5.4007206,1.1291803,0.014913702,-0.03834952,18.36,7.26,2.82
1554109727340,-7.5369470000000005,-2.7635074,4.9984946,1.3496901000000001,0.020240024,-0.05539375,18.3,7.14,2.76
1554109727360,-7.6518690000000005,-2.2559366,4.624999,1.1952267,0.025566347000000003,-0.06285059999999999,18.24,7.14,2.7
1554109727381,-7.819463000000001,-1.9782091,4.8979383,0.8330368,0.029827405,-0.08841695,18.18,7.14,2.64
1554109727401,-7.3549875999999985,-1.7340006000000001,4.8261123,0.67963874,0.0063915867,-0.17257284,18.12,7.26,2.64
1554109727421,-7.6614455999999995,-1.8632874,4.735132,0.49641323,-0.024501082,-0.22264028,18.06,7.44,2.76
1554109727440,-7.584830800000001,-2.404377,5.0798974,0.31212249999999997,-0.022370555,-0.165116,18.06,7.62,2.88
1554109727460,-7.627927000000001,-2.4809916000000003,5.3049526,0.23968449999999997,-0.04261058,-0.17044231,18.06,7.86,3.06
1554109727481,-7.441178999999999,-2.3038206000000003,5.213972599999999,0.19813919,-0.068176925,-0.19920446,18.0,8.1,3.24
1554109727501,-7.374141000000001,-2.0404584,5.2474914,0.12250541,-0.09054748,-0.24927188,18.0,8.4,3.42
1554109727521,-7.445967,-1.6861166,5.151723400000001,0.017044231,-0.098004326,-0.30892670000000005,18.0,8.82,3.66
1554109727540,-7.278373200000001,-1.5855601000000001,4.9506106,-0.16724652,-0.09374327,-0.34088463,18.0,9.12,3.9
1554109727560,-7.120356,-1.8393455,5.003283000000001,-0.38562572,-0.06604639400000001,-0.38242993,18.06,9.42,4.08
1554109727580,-6.9767036,-2.1745335999999997,5.252279799999999,-0.5134575,-0.029827405,-0.44847634,18.06,9.66,4.2
1554109727601,-6.7851677,-2.4187422,5.5539494000000005,-0.5635249,-0.014913702,-0.5028047999999999,18.06,9.96,4.14
1554109727621,-6.8091097000000005,-2.5288756,5.333683000000001,-0.58269966,-0.00958738,-0.5763081,18.06,10.2,4.14
1554109727640,-6.6606693,-2.9933507,5.3049526,-0.5390238,0.0010652645,-0.64768076,18.12,10.5,4.08
1554109727660,-6.6654577,-3.0125043,5.4917,-0.4079963,0.05539375,-0.6764429,18.18,10.8,4.08
1554109727681,-6.3589997,-3.3141737,5.5922565,-0.20026971,0.06924219,-0.7254451,18.3,11.1,3.96
1554109727700,-6.2871737,-3.4099417,5.501277,-0.04474111,0.07776430000000001,-0.773382,18.42,11.4,3.9
1554109727720,-6.3589997,-3.4099417,5.185242,0.06711166,0.07882957,-0.8159926,18.54,11.94,3.84
1554109727740,-6.6750345,-3.5392287000000002,5.1900306,0.18216023,0.09054748,-0.9214538000000001,18.66,12.66,3.78
1554109727761,-6.4882865,-3.5871127,5.252279799999999,0.1768339,0.098004326,-1.0056095999999999,18.78,13.38,3.78
1554109727781,-6.4212489999999995,-3.840898,5.0798974,0.13209279,0.10333065,-1.063134,18.9,14.28,3.78
1554109727801,-6.3685765,-4.065953299999999,5.0224366,0.07456851,0.113983296,-1.1036139999999999,18.96,15.36,3.84
1554109727820,-7.0820484,-4.544793599999999,4.9506106,0.011717908999999999,0.15339808,-1.1558118999999998,19.02,16.5,3.9
1554109727840,-7.0102224,-5.0092683,4.835689,-0.113983296,0.2034655,-1.180313,19.02,17.64,3.96
1554109727861,-6.943185000000001,-5.3061495,4.696825,-0.21837921,0.27696875,-1.1430287000000001,19.02,18.84,4.02
1554109727881,-6.8186865,-5.282207499999999,4.6154222,-0.30999196,0.32490566,-1.0748518999999999,18.96,19.98,4.26
1554109727900,-6.9767036,-5.406706,4.7542860000000005,-0.34088463,0.35473305,-1.0002834,18.78,21.06,4.56
1554109727920,-7.067683000000001,-5.6844335,4.624999,-0.28655612,0.36005938,-0.9438243000000001,18.66,22.26,4.8
1554109727940,-7.144297999999999,-5.7802014,4.6537294000000005,-0.20026971,0.3685815,-0.8948221,18.48,23.52,5.04
1554109727960,-7.0341644,-5.737106,4.3664255,-0.096939065,0.35792887,-0.85540736,18.3,24.54,5.28
1554109727981,-6.9671270000000005,-5.593454,4.371214,-0.0063915867,0.35473305,-0.78296936,18.06,25.68,5.52
1554109728001,-6.981492,-5.7323174,4.419098,0.027696876000000002,0.34194988,-0.7233145999999999,17.82,26.7,5.76
1554109728020,-6.9527617,-5.751471,4.2275615,-0.026631612000000002,0.30146983,-0.6668556,17.58,27.78,6.24
1554109728041,-6.919242999999999,-5.789778,4.5340195,-0.096939065,0.25353295,-0.60720074,17.34,28.8,6.66
1554109728061,-6.775591,-5.852027400000001,4.5675383,-0.10972224,0.20985709,-0.55287224,17.16,29.7,7.08
1554109728081,-6.7133417,-5.828085400000001,4.5675383,-0.05752428,0.165116,-0.51452273,16.98,30.54,7.44
1554109728101,-6.885724000000001,-6.2351,4.4526167,-0.01917476,0.13954964,-0.46978164,16.8,31.26,7.86
1554109728122,-6.770802499999999,-6.311714,4.6297874000000006,-0.026631612000000002,0.12996227,-0.4016047,16.68,31.92,8.22
1554109728140,-6.703765,-6.321291,4.601057,-0.02130529,0.12463594,-0.3057309,16.5,32.7,8.82
1554109728161,-6.459556,-6.249465,4.672883000000001,0.0010652645,0.10972224,-0.24607609,16.38,33.24,9.06
1554109728180,-6.411672,-6.2925606,4.6393642,0.07030745599999999,0.09054748,-0.19281286,16.38,33.6,9.12
1554109728200,-6.196194,-6.369175,4.4382515,0.14913702,0.07882957,-0.13848437,16.32,34.02,9.24
1554109728221,-6.0764837,-6.0148335,4.4238862999999995,0.22903186,0.06711166,-0.12676647,16.26,34.32,9.36
1554109728241,-5.975927400000001,-6.0148335,4.3664255,0.30146983,0.05219796,-0.13528858,16.2,34.62,9.42
1554109728260,-5.813122,-5.861604,4.337695,0.3653857,0.03834952,-0.15552860000000002,16.2,34.86,9.54
1554109728280,-5.9184665999999995,-5.8089319999999995,4.4717703,0.40906155,0.029827405,-0.1949434,16.14,35.1,9.66
1554109728301,-5.975927400000001,-5.8041434,4.466982,0.39627838,0.025566347000000003,-0.21198763,16.14,35.34,9.78
1554109728321,-5.889736,-5.7323174,4.624999,0.34834146,0.01917476,-0.23116238,16.08,35.52,9.84
1554109728340,-5.8705826,-5.789778,4.6776714,0.2908172,0.008522116,-0.25033715,16.08,35.7,9.9
1554109728360,-5.7125654,-5.7754129999999995,4.56275,0.2695119,-0.013848438000000001,-0.2727077,16.02,35.88,9.9
1554109728381,-5.57849,-5.8663926,4.529230999999999,0.27696875,-0.03089267,-0.28975195,16.02,36.12,9.9
1554109728400,-5.3390699999999995,-5.828085400000001,4.4717703,0.31957933,-0.051132694000000006,-0.3153183,15.96,36.42,9.84
1554109728420,-5.420472599999999,-5.7418942,4.5148660000000005,0.35473305,-0.07776430000000001,-0.36112466,15.9,36.84,9.72
1554109728440,-5.616797,-5.899911400000001,4.6537294000000005,0.37071204,-0.094808534,-0.42930159999999995,15.84,37.26,9.66
1554109728461,-5.78918,-6.0291986,4.553173,0.330232,-0.096939065,-0.48043427,15.78,37.62,9.54
1554109728480,-5.889736,-6.129755,4.3760023,0.257794,-0.07669904,-0.48469532,15.72,37.98,9.42
1554109728500,-5.942408599999999,-6.1489085999999995,4.56275,0.15552860000000002,-0.033023197000000004,-0.46019423,15.6,38.4,9.3
1554109728521,-5.932832,-6.225523,4.6776714,0.054328485999999995,0.0063915867,-0.4079963,15.54,38.76,9.18
1554109728541,-5.9998693,-6.2781954,4.6920366,-0.043675844000000005,0.03834952,-0.34621096,15.42,39.12,9.06
1554109728562,-5.995081,-6.182427400000001,4.7542860000000005,-0.080960095,0.06391586,-0.29294774,15.3,39.48,8.94
1554109728581,-6.100425700000001,-6.081871,4.648941000000001,-0.054328485999999995,0.08735169,-0.24501082,15.18,39.96,8.94
1554109728601,-6.1100025,-6.019622,4.768651,-0.0031957934000000003,0.08841695,-0.21944448,15.0,40.44,8.88
1554109728621,-6.019023000000001,-5.990891,4.8261123,0.026631612000000002,0.07030745599999999,-0.21944448,14.88,40.86,8.88
1554109728641,-6.0333879999999995,-5.8903346,4.6154222,0.0053263223,0.043675844000000005,-0.2034655,14.76,41.28,8.82
1554109728661,-5.951985400000001,-6.1249666,4.8452660000000005,-0.07456851,0.02130529,-0.16937704,14.58,41.7,8.82
1554109728681,-5.722142,-6.129755,4.8452660000000005,-0.15978967,-0.018109497,-0.15339808,14.4,42.06,8.82
1554109728700,-5.612008599999999,-6.168062,4.744708999999999,-0.2130529,-0.051132694000000006,-0.128897,14.22,42.36,8.82
1554109728722,-5.583278,-6.306926,4.9458222,-0.20133498,-0.08628642,-0.12144015,14.16,42.6,8.82
1554109728741,-5.4683566,-6.2638300000000005,5.0224366,-0.128897,-0.11824436,-0.12357068,14.04,42.66,8.82
1554109728761,-5.521029,-6.168062,5.0080714,-0.018109497,-0.13635385,-0.13954964,13.98,42.66,8.82
1554109728781,-5.592855,-6.3165026,4.9506106,0.07243799,-0.14913702,-0.165116,13.98,42.72,8.82
1554109728802,-5.616797,-6.297349,4.869208,0.101200126,-0.1470065,-0.16937704,13.92,42.78,8.88
1554109728822,-5.5497594,-6.4745197,5.0320134,0.07456851,-0.12783173,-0.14487597,13.92,42.78,8.88
1554109728841,-5.396530599999999,-6.771400999999999,5.233126,0.018109497,-0.10972224,-0.10759171,13.98,42.9,8.94
1554109728861,-5.272032299999999,-6.8288617,5.185242,-0.010652645,-0.07030745599999999,-0.04580637,13.98,42.96,8.94
1554109728881,-5.1475334,-6.800131299999999,5.127781400000001,0.0063915867,-0.024501082,0.02130529,14.04,43.02,8.94
1554109728900,-4.9512089999999995,-6.680421400000001,5.367202,0.099069595,0.017044231,0.07030745599999999,14.1,43.08,8.94
1554109728921,-4.7979803,-6.469731299999999,5.228338,0.26418558,0.056459017,0.08522116,14.1,43.14,8.94
1554109728940,-4.8362875,-6.407482,5.1900306,0.46125950000000004,0.08948222,0.05219796,14.1,43.14,8.94
1554109728960,-4.927267,-6.081871,5.0846860000000005,0.6125271,0.10865697,0.0010652645,14.1,43.2,8.94
1554109728980,-5.0517654,-5.9477954,4.9458222,0.66365975,0.12676647,-0.029827405,14.1,43.26,8.88
1554109729000,-5.094861,-5.880758,4.979341000000001,0.61891866,0.13315806,-0.056459017,14.04,43.26,8.88
1554109729021,-5.21936,-5.823297,5.075108999999999,0.5273059,0.12783173,-0.06604639400000001,13.98,43.2,8.88
1554109729041,-5.3247046,-5.8185085999999995,4.8979383,0.4016047,0.10333065,-0.07669904,13.92,43.32,8.82
1554109729060,-5.410896,-5.8663926,4.8165355000000005,0.33555830000000003,0.09054748,-0.07776430000000001,13.92,43.32,8.76
1554109729080,-5.506664,-5.7802014,4.830900700000001,0.23009712,0.068176925,-0.07882957,13.86,43.44,8.7
1554109729101,-5.4970870000000005,-5.8041434,4.821324,0.10013486,0.05539375,-0.06711166,13.86,43.56,8.64
1554109729122,-5.5641245999999995,-5.842450599999999,4.907515,-0.002130529,0.035153727999999995,-0.06178534,13.86,43.74,8.58
1554109729140,-5.635950599999999,-5.789778,4.9218802,-0.11504856,-0.0053263223,-0.06178534,13.86,43.92,8.58
1554109729161,-5.4779334,-5.751471,4.7925935,-0.19707392,-0.039414786,-0.040480047000000005,13.86,44.16,8.52
1554109729181,-5.530606,-5.919065,5.027225,-0.25672874,-0.07563378,-0.034088463,13.86,44.34,8.46
1554109729201,-5.674258,-5.943007,5.113416,-0.314253,-0.10972224,-0.029827405,13.92,44.46,8.4
1554109729220,-5.434838,-5.9477954,5.3288946,-0.35260254,-0.12463594,-0.011717908999999999,13.92,44.52,8.34
1554109729240,-5.482722,-5.9047,5.6018333,-0.34088463,-0.12570119999999999,-0.007456851,13.92,44.64,8.28
1554109729261,-5.363012,-5.852027400000001,5.319318,-0.30040458,-0.11611383,-0.007456851,13.92,44.7,8.28
1554109729281,-5.363012,-5.943007,5.3815669999999995,-0.22370553,-0.09267801,-0.008522116,13.92,44.76,8.22
1554109729300,-5.295974299999999,-6.019622,5.3863554,-0.14487597,-0.068176925,-0.024501082,13.92,44.76,8.16
1554109729320,-5.319916200000001,-6.0244102,5.194819,-0.07669904,-0.04261058,-0.047936900000000005,13.86,44.7,8.16
1554109729340,-5.353435,-6.0531406,5.1038394,-0.043675844000000005,-0.014913702,-0.07989483,13.8,44.7,8.1
1554109729361,-5.4779334,-6.129755,4.936245400000001,-0.06604639400000001,-0.0031957934000000003,-0.09587380000000001,13.8,44.7,8.1
1554109729380,-5.4539914000000005,-6.1106014,4.9841294000000005,-0.098004326,0.0010652645,-0.08628642,13.74,44.7,8.1
1554109729401,-5.449203,-6.359598,4.8739963,-0.14807177,0.0031957934000000003,-0.056459017,13.74,44.64,8.16
1554109729420,-5.3486465999999995,-6.335656,4.7542860000000005,-0.16618125,0.004261058,-0.027696876000000002,13.74,44.64,8.16
1554109729441,-5.535394,-6.4457892999999995,4.8787847,-0.18642128,0.0053263223,0.002130529,13.8,44.64,8.22
1554109729461,-5.4922986,-6.508039,4.9458222,-0.20026971,-0.011717908999999999,0.022370555,13.8,44.58,8.22
1554109729481,-5.3390699999999995,-6.393117,5.0224366,-0.20240025,-0.025566347000000003,0.04580637,13.86,44.52,8.28
1554109729501,-5.3247046,-6.3165026,4.8069587,-0.16618125,-0.036218993,0.06711166,13.86,44.46,8.34
1554109729521,-5.248090299999999,-6.1345434,5.0463786,-0.07882957,-0.05006743,0.06391586,13.92,44.34,8.4
1554109729540,-5.267244,-6.0627174,4.9218802,-0.013848438000000001,-0.06498113,0.029827405,13.92,44.22,8.4
1554109729560,-5.272032299999999,-5.751471,4.9984946,-0.004261058,-0.08522116,-0.02130529,13.98,44.16,8.46
1554109729582,-5.420472599999999,-5.8041434,4.768651,-0.04474111,-0.10439592,-0.07030745599999999,14.04,44.04,8.46
1554109729602,-5.3486465999999995,-6.0483522,4.8500543,-0.14807177,-0.11717909,-0.09587380000000001,14.1,43.92,8.46
1554109729620,-5.3821654,-6.2207346,4.9937059999999995,-0.19813919,-0.11611383,-0.099069595,14.16,43.8,8.52
1554109729640,-5.295974299999999,-6.2638300000000005,4.888361499999999,-0.21411815,-0.111852765,-0.08841695,14.16,43.74,8.52
1554109729660,-5.2768207,-6.369175,4.9745526,-0.23542345,-0.098004326,-0.07776430000000001,14.22,43.62,8.52
1554109729681,-5.363012,-6.5846534,5.218761,-0.221575,-0.08522116,-0.06285059999999999,14.22,43.5,8.52
1554109729701,-5.305551,-6.517616,5.151723400000001,-0.1470065,-0.07776430000000001,-0.06285059999999999,14.22,43.44,8.52
1554109729721,-5.3103394999999995,-6.3548098,4.8979383,-0.07350325,-0.058589544,-0.060720075,14.22,43.38,8.52
1554109729740,-5.248090299999999,-6.335656,4.8739963,-0.02876214,-0.037284255,-0.056459017,14.22,43.38,8.58
1554109729760,-5.272032299999999,-6.369175,4.8787847,-0.026631612000000002,-0.026631612000000002,-0.05219796,14.22,43.32,8.58
1554109729780,-5.0517654,-6.4122705,4.830900700000001,-0.025566347000000003,-0.018109497,-0.049002163,14.22,43.32,8.52
1554109729800,-5.1379566,-6.3787518,4.8069587,-0.013848438000000001,-0.013848438000000001,-0.05219796,14.28,43.32,8.52
1554109729821,-5.118803,-6.369175,4.8261123,-0.011717908999999999,-0.017044231,-0.06178534,14.28,43.32,8.52
1554109729841,-5.12838,-6.4457892999999995,4.7542860000000005,-0.024501082,-0.017044231,-0.053263225,14.34,43.32,8.52
1554109729860,-5.142745,-6.335656,4.9027267,-0.023435817999999997,-0.012783173500000002,-0.06391586,14.34,43.38,8.52
1554109729880,-5.0996494000000006,-6.4026937,4.8787847,-0.024501082,-0.014913702,-0.07882957,14.34,43.44,8.46
1554109729901,-5.114014599999999,-6.3021374,4.9984946,-0.020240024,-0.008522116,-0.096939065,14.34,43.5,8.4
1554109729921,-5.2241483,-6.3787518,5.3049526,-0.017044231,0.0010652645,-0.10013486,14.28,43.5,8.4
1554109729941,-5.133168,-6.417059,5.558737799999999,0.0053263223,0.013848438000000001,-0.099069595,14.22,43.56,8.4
1554109729960,-5.2385135,-6.488885,5.453393,0.07137272,0.04474111,-0.094808534,14.16,43.56,8.4
1554109729982,-5.1906295,-6.546346,5.7790045999999995,0.18109496,0.07563378,-0.08841695,14.16,43.62,8.4
1554109730001,-5.329493,-6.488885,5.994482499999999,0.32810146,0.10865697,-0.07669904,14.1,43.62,8.4
1554109730021,-5.343858200000001,-6.4601545,5.8651957999999995,0.51984906,0.128897,-0.041545313,14.1,43.56,8.46
1554109730041,-5.2145715,-6.455366000000001,5.817312,0.7222493000000001,0.12463594,-0.033023197000000004,14.04,43.56,8.52
1554109730061,-5.2816089999999996,-6.1967926,5.525219,0.91612744,0.12357068,-0.039414786,13.98,43.56,8.58
1554109730081,-5.1666875,-6.1489085999999995,5.194819,1.0610034,0.11824436,-0.03834952,13.98,43.62,8.58
1554109730100,-5.066130599999999,-5.93343,5.122993,1.1132014,0.099069595,-0.06711166,14.04,43.68,8.58
1554109730120,-5.1235914000000005,-5.799355,4.859630999999999,1.0929613,0.07989483,-0.10439592,14.1,43.8,8.58
1554109730141,-5.0038815,-5.751471,4.854842700000001,0.9736517,0.06498113,-0.11930962,14.1,43.98,8.52
1554109730160,-5.094861,-5.502473999999999,4.7830167,0.7616641,0.058589544,-0.13422333,14.16,44.22,8.34
1554109730180,-5.1810527,-5.5168395,4.797382,0.5028047999999999,0.06498113,-0.13635385,14.16,44.52,8.16
1554109730201,-5.2002063,-5.507262,5.027225,0.18109496,0.07989483,-0.13422333,14.16,44.82,7.92
1554109730221,-5.3007627,-5.7323174,5.151723400000001,0.043675844000000005,0.09587380000000001,-0.128897,14.1,45.06,7.68
1554109730241,-5.4539914000000005,-5.7466826,5.276222,-0.06285059999999999,0.12357068,-0.13102753,14.04,45.3,7.44
1554109730260,-5.4061074,-5.761048000000001,5.3815669999999995,-0.06924219,0.13209279,-0.12357068,13.98,45.48,7.26
1554109730280,-5.506664,-5.7466826,5.3815669999999995,-0.039414786,0.13102753,-0.113983296,13.92,45.72,7.02
1554109730301,-5.5258174,-5.7323174,5.266645,-0.020240024,0.11717909,-0.098004326,13.8,45.84,6.9
1554109730321,-5.444414599999999,-5.689222,5.3863554,-0.020240024,0.094808534,-0.07030745599999999,13.74,45.96,6.84
1554109730340,-5.3582234,-5.579088700000001,5.472546599999999,-0.04261058,0.06498113,-0.05219796,13.68,46.02,6.84
1554109730361,-5.3582234,-5.497685400000001,5.453393,-0.05965481,0.027696876000000002,-0.036218993,13.62,46.08,6.84
1554109730381,-5.3725886,-5.497685400000001,5.635351999999999,-0.07137272,-0.010652645,-0.03089267,13.62,46.14,6.84
1554109730401,-5.171476,-5.5407815000000005,5.644929,-0.07350325,-0.054328485999999995,-0.04580637,13.68,46.2,6.84
1554109730420,-5.1475334,-5.5647235,5.587468,-0.05965481,-0.08628642,-0.07563378,13.62,46.26,6.9
1554109730440,-5.023035,-5.478532,5.6161985,-0.04580637,-0.10439592,-0.10013486,13.62,46.26,6.9
1554109730461,-5.090072599999999,-5.555146700000001,5.7598505,-0.040480047000000005,-0.1107875,-0.12250541,13.62,46.26,6.9
1554109730481,-5.032612,-5.5647235,5.563526,-0.034088463,-0.10439592,-0.15659387,13.62,46.26,6.9
1554109730500,-5.032612,-5.579088700000001,5.788581400000001,-0.036218993,-0.10226539,-0.19068234,13.56,46.32,6.9
1554109730520,-5.1762643,-5.555146700000001,5.740697,-0.036218993,-0.10439592,-0.20772657,13.56,46.32,6.9
1554109730541,-5.209783,-5.703587000000001,5.9705405,-0.017044231,-0.10972224,-0.2066613,13.5,46.32,6.84
1554109730561,-5.2816089999999996,-5.8663926,6.013636,0.03195793,-0.1107875,-0.19387813,13.44,46.32,6.84
1554109730580,-5.1810527,-5.981314,5.798158,0.098004326,-0.12250541,-0.17150758,13.38,46.38,6.84
1554109730600,-5.085284,-5.9956794,5.8651957999999995,0.14487597,-0.112918034,-0.15552860000000002,13.32,46.44,6.84
1554109730620,-5.066130599999999,-6.005256,5.8747725,0.16831179,-0.099069595,-0.14487597,13.26,46.44,6.78
1554109730641,-4.912902,-5.938218599999999,5.869984,0.19813919,-0.07882957,-0.12463594,13.26,46.5,6.78
1554109730660,-4.8937483,-5.6748567,5.769428,0.23116238,-0.05219796,-0.12463594,13.2,46.62,6.78
1554109730680,-4.965574299999999,-5.5647235,5.831677,0.24927188,-0.03834952,-0.13635385,13.2,46.74,6.66
1554109730701,-4.9559975,-5.4402246,5.755062000000001,0.26312032,-0.037284255,-0.17363810000000002,13.2,46.86,6.6
1554109730721,-4.9464207,-5.430648000000001,5.7215432999999996,0.22690132,-0.039414786,-0.20026971,13.2,46.92,6.48
1554109730740,-4.984728,-5.4593782,5.740697,0.15446335,-0.036218993,-0.21518342,13.2,47.1,6.42
1554109730760,-4.912902,-5.502473999999999,5.755062000000001,0.047936900000000005,-0.02876214,-0.22264028,13.26,47.22,6.3
1554109730781,-4.8937483,-5.555146700000001,5.7502737,-0.05539375,-0.023435817999999997,-0.22583607,13.2,47.4,6.24
1554109730801,-4.8267107000000005,-5.6509147,5.7598505,-0.11504856,-0.015978966,-0.22583607,13.2,47.58,6.12
1554109730820,-4.855441000000001,-6.0291986,6.0758852999999995,-0.113983296,-0.014913702,-0.22050974,13.14,47.82,6.06
1554109730840,-4.9081135,-5.9956794,6.0184245,-0.07030745599999999,-0.017044231,-0.21411815,13.02,48.0,6.0
1554109730861,-4.8219223,-5.990891,6.0663085,-0.018109497,-0.013848438000000001,-0.20240025,12.9,48.24,6.0
1554109730881,-4.8362875,-5.952584,6.085462000000001,0.01917476,-0.010652645,-0.17789917,12.78,48.42,5.94
1554109730901,-4.9512089999999995,-6.019622,6.1477113,0.036218993,0.0,-0.14061491,12.66,48.6,5.88
1554109730920,-4.841076,-5.981314,6.0806737,0.049002163,0.00958738,-0.12250541,12.54,48.78,5.88
1554109730941,-4.9512089999999995,-5.9956794,6.0998273,0.06924219,0.012783173500000002,-0.10439592,12.42,48.96,5.88
1554109730961,-4.8219223,-5.7658362,6.0806737,0.10226539,0.01917476,-0.08841695,12.36,49.08,5.88
1554109730983,-4.7261543,-5.7849900000000005,6.0327897,0.14274544,0.034088463,-0.08522116,12.24,49.2,5.82
1554109731000,-4.879383,-5.751471,5.9465985,0.15978967,0.03834952,-0.08628642,12.24,49.38,5.82
1554109731021,-4.7022123,-5.7418942,5.9226565,0.16724652,0.040480047000000005,-0.10013486,12.24,49.5,5.76
1554109731041,-4.6495394999999995,-5.6365495,5.8412538,0.15446335,0.04261058,-0.099069595,12.24,49.62,5.76
1554109731060,-4.635174299999999,-5.6221843,5.8891377,0.15020229,0.05006743,-0.096939065,12.3,49.8,5.7
1554109731081,-4.6016555,-5.583876999999999,5.6976013,0.14487597,0.05219796,-0.11504856,12.3,49.92,5.7
1554109731101,-4.707000700000001,-5.468955,5.831677,0.13102753,0.053263225,-0.12570119999999999,12.24,49.98,5.64
1554109731120,-4.7357309999999995,-5.521628,5.7119665,0.10865697,0.053263225,-0.12463594,12.24,50.1,5.64
1554109731141,-4.7979803,-5.468955,5.8604074,0.03834952,0.05219796,-0.13102753,12.24,50.1,5.58
1554109731161,-4.817133999999999,-5.713164,5.999271,-0.018109497,0.046871635999999994,-0.12144015,12.24,50.1,5.52
1554109731181,-4.917690299999999,-5.737106,5.9705405,-0.043675844000000005,0.04474111,-0.11824436,12.18,50.1,5.52
1554109731201,-4.936844000000001,-5.7945666,6.013636,-0.04580637,0.039414786,-0.10333065,12.18,50.1,5.46
1554109731220,-4.802768700000001,-5.842450599999999,6.0040593,-0.041545313,0.035153727999999995,-0.084155895,12.12,50.16,5.46
1554109731241,-4.9512089999999995,-5.837662,6.047155,-0.043675844000000005,0.036218993,-0.06604639400000001,12.06,50.16,5.4
1554109731261,-4.9512089999999995,-5.823297,5.9561753,-0.039414786,0.03195793,-0.04474111,12.0,50.22,5.4
1554109731281,-4.8506527,-5.8328739999999994,6.1046157,-0.027696876000000002,0.02876214,-0.014913702,11.94,50.28,5.46
1554109731301,-4.88896,-5.7418942,6.1046157,-0.018109497,0.029827405,0.0053263223,11.94,50.34,5.52
1554109731320,-4.807557,-5.823297,5.9082913,-0.010652645,0.033023197000000004,0.01917476,11.88,50.46,5.58
1554109731340,-4.807557,-5.6940102999999995,5.855619,-0.00958738,0.039414786,0.03089267,11.82,50.52,5.7
1554109731360,-4.7261543,-5.66528,5.9130797,-0.0031957934000000003,0.04261058,0.022370555,11.82,50.64,5.76
1554109731381,-4.8458643,-5.6365495,5.7502737,-0.0063915867,0.040480047000000005,0.008522116,11.82,50.7,5.82
1554109731401,-4.7022123,-5.5647235,5.573103,-0.02876214,0.036218993,-0.010652645,11.76,50.76,5.94
1554109731421,-4.7548847,-5.631761,5.6401405,-0.06391586,0.02876214,-0.03089267,11.76,50.82,6.0
1554109731441,-4.7788267,-5.617396,5.7359085,-0.10439592,0.014913702,-0.049002163,11.76,50.82,6.06
1554109731460,-4.711789,-5.7227407,5.740697,-0.13635385,-0.0031957934000000003,-0.06285059999999999,11.76,50.82,6.12
1554109731480,-4.8123455,-5.856816,5.597045,-0.16192019,-0.013848438000000001,-0.058589544,11.76,50.82,6.12
1554109731500,-4.783615,-6.000468,5.951387,-0.17257284,-0.02876214,-0.056459017,11.76,50.76,6.18
1554109731520,-4.8506527,-6.0291986,6.0088477,-0.16937704,-0.04474111,-0.043675844000000005,11.76,50.7,6.24
1554109731541,-4.865018,-5.966949,6.047155,-0.1438107,-0.049002163,-0.033023197000000004,11.7,50.64,6.3
1554109731561,-4.8219223,-5.966949,5.94181,-0.101200126,-0.05219796,-0.024501082,11.7,50.58,6.3
1554109731580,-4.8123455,-5.7802014,6.0184245,-0.058589544,-0.05006743,-0.018109497,11.7,50.52,6.3
1554109731600,-4.8362875,-5.679645,5.8412538,-0.04580637,-0.049002163,-0.022370555,11.7,50.52,6.24
1554109731621,-4.817133999999999,-5.751471,5.8508306,-0.043675844000000005,-0.05006743,-0.03195793,11.76,50.52,6.24
1554109731640,-4.8123455,-5.7227407,5.7215432999999996,-0.051132694000000006,-0.043675844000000005,-0.033023197000000004,11.82,50.52,6.18
1554109731661,-4.7788267,-5.7849900000000005,5.798158,-0.07243799,-0.040480047000000005,-0.041545313,11.82,50.58,6.18
1554109731681,-4.802768700000001,-5.861604,5.917868,-0.07989483,-0.036218993,-0.047936900000000005,11.88,50.58,6.12
1554109731701,-4.8362875,-6.067506,5.6545057,-0.07456851,-0.03089267,-0.041545313,11.94,50.64,6.12
1554109731720,-4.8841715,-6.010045,5.960963700000001,-0.06711166,-0.03089267,-0.041545313,12.06,50.64,6.12
1554109731740,-4.855441000000001,-6.0387754000000005,5.9226565,-0.05752428,-0.04261058,-0.051132694000000006,12.06,50.64,6.06
1554109731761,-4.8745947,-5.981314,5.8221,-0.051132694000000006,-0.047936900000000005,-0.04261058,12.06,50.64,6.06
1554109731781,-4.8267107000000005,-5.990891,5.8412538,-0.037284255,-0.04474111,-0.037284255,12.06,50.58,6.06
1554109731802,-4.759673,-5.966949,6.0327897,-0.02130529,-0.049002163,-0.02130529,12.06,50.52,6.06
1554109731821,-4.7884035,-5.990891,5.9801173,-0.0010652645,-0.04580637,-0.017044231,12.06,50.52,6.06
1554109731840,-4.7261543,-5.9717374,5.8508306,0.024501082,-0.046871635999999994,-0.012783173500000002,12.0,50.46,6.06
1554109731860,-4.7453080000000005,-6.000468,5.8987145,0.04261058,-0.04474111,-0.011717908999999999,12.0,50.46,6.0
1554109731881,-4.7453080000000005,-5.8903346,5.903503,0.053263225,-0.040480047000000005,-0.011717908999999999,11.94,50.4,6.0
1554109731901,-4.7644614999999995,-5.966949,5.8412538,0.07030745599999999,-0.033023197000000004,-0.007456851,11.88,50.4,6.0
1554109731920,-4.711789,-5.938218599999999,5.802946599999999,0.09267801,-0.036218993,-0.011717908999999999,11.88,50.4,6.0
1554109731941,-4.6495394999999995,-5.919065,5.769428,0.10759171,-0.027696876000000002,-0.012783173500000002,11.82,50.4,6.0
1554109731961,-4.697424,-5.7706246,5.668871,0.096939065,-0.01917476,-0.008522116,11.82,50.4,6.0
1554109731981,-4.6591167,-5.7802014,5.7215432999999996,0.06604639400000001,-0.01917476,-0.013848438000000001,11.82,50.34,6.0
1554109732000,-4.692635500000001,-5.8041434,5.620987,0.025566347000000003,-0.02130529,-0.02130529,11.82,50.34,6.0
1554109732020,-4.6591167,-5.861604,5.9082913,-0.010652645,-0.023435817999999997,-0.026631612000000002,11.82,50.34,6.0
1554109732040,-4.6782703,-5.828085400000001,5.6640825,-0.017044231,-0.02130529,-0.024501082,11.88,50.34,6.0
1554109732061,-4.6591167,-5.895123,5.8747725,-0.008522116,-0.022370555,-0.02130529,11.94,50.28,6.0
1554109732080,-4.6782703,-5.8903346,5.903503,-0.015978966,-0.029827405,-0.02130529,11.94,50.28,5.94
1554109732101,-4.7165775000000005,-5.7323174,5.994482499999999,-0.024501082,-0.034088463,-0.027696876000000002,12.0,50.28,5.94
1554109732120,-4.644751,-5.880758,5.951387,-0.022370555,-0.029827405,-0.033023197000000004,12.0,50.16,5.94
1554109732141,-4.644751,-5.751471,5.9705405,-0.017044231,-0.027696876000000002,-0.040480047000000005,11.94,50.1,5.94
1554109732162,-4.6878470000000005,-5.7754129999999995,5.917868,-0.023435817999999997,-0.02130529,-0.058589544,11.88,49.98,5.94
1554109732180,-4.697424,-5.8041434,5.9561753,-0.037284255,-0.024501082,-0.06285059999999999,11.88,49.98,5.94
1554109732201,-4.5920787,-5.828085400000001,5.9561753,-0.037284255,-0.013848438000000001,-0.07456851,11.82,49.92,5.88
1554109732221,-4.721366000000001,-5.8185085999999995,5.960963700000001,-0.026631612000000002,-0.010652645,-0.083090626,11.76,49.86,5.82
1554109732240,-4.697424,-5.93343,6.0998273,-0.012783173500000002,-0.012783173500000002,-0.09054748,11.7,49.8,5.76
1554109732260,-4.7405194999999996,-5.852027400000001,5.8651957999999995,-0.007456851,-0.0063915867,-0.09161274,11.64,49.74,5.7
1554109732281,-4.783615,-5.8089319999999995,5.7646394,-0.008522116,-0.0031957934000000003,-0.09374327,11.64,49.74,5.7
1554109732301,-4.7740383,-5.7802014,5.9801173,-0.015978966,0.0031957934000000003,-0.09054748,11.7,49.8,5.7
1554109732321,-4.7788267,-5.952584,5.802946599999999,-0.034088463,0.011717908999999999,-0.09161274,11.7,49.8,5.7
1554109732341,-4.76925,-5.9717374,5.846042,-0.033023197000000004,0.015978966,-0.096939065,11.76,49.86,5.7
1554109732361,-4.663905000000001,-5.9956794,5.755062000000001,-0.03089267,0.022370555,-0.09267801,11.82,49.92,5.76
1554109732381,-4.7931919999999995,-6.1489085999999995,5.9465985,-0.049002163,0.034088463,-0.09161274,11.88,49.98,5.82
1554109732401,-4.7740383,-5.837662,5.951387,-0.049002163,0.05006743,-0.098004326,11.88,49.98,5.88
1554109732421,-4.7453080000000005,-5.9956794,5.8221,-0.051132694000000006,0.058589544,-0.08948222,11.94,50.1,5.94
1554109732441,-4.807557,-6.091448000000001,5.903503,-0.06178534,0.06178534,-0.06391586,11.94,50.16,6.0
1554109732460,-4.711789,-6.120178,5.8508306,-0.037284255,0.05752428,-0.05006743,11.94,50.22,6.0
1554109732481,-4.697424,-6.1345434,5.740697,0.020240024,0.056459017,-0.024501082,11.88,50.28,6.0
1554109732501,-4.802768700000001,-5.9956794,5.812523400000001,0.07137272,0.05219796,0.0010652645,11.88,50.34,6.0
1554109732520,-4.783615,-5.9956794,5.7502737,0.09054748,0.04474111,0.00958738,11.82,50.4,6.0
1554109732541,-4.7740383,-5.976526,5.635351999999999,0.06178534,0.035153727999999995,0.014913702,11.82,50.46,6.06
1554109732560,-4.7979803,-5.9717374,5.6880245,0.040480047000000005,0.033023197000000004,0.020240024,11.82,50.52,6.06
1554109732581,-4.817133999999999,-5.9477954,5.6640825,0.00958738,0.01917476,0.029827405,11.76,50.58,6.06
1554109732601,-4.8362875,-5.9238534000000005,5.6736593,0.014913702,0.014913702,0.034088463,11.76,50.58,6.06
1554109732621,-4.7165775000000005,-5.799355,5.8604074,0.037284255,0.011717908999999999,0.037284255,11.7,50.64,6.12
1554109732641,-4.7979803,-5.828085400000001,5.7454852999999995,0.05219796,0.010652645,0.03834952,11.64,50.64,6.12
1554109732661,-4.7979803,-5.7658362,5.774216,0.03834952,0.008522116,0.037284255,11.58,50.64,6.24
1554109732681,-4.807557,-5.828085400000001,5.7359085,0.011717908999999999,0.0031957934000000003,0.02876214,11.52,50.64,6.3
1554109732701,-4.8841715,-5.8089319999999995,5.707178,-0.014913702,0.0031957934000000003,0.026631612000000002,11.52,50.64,6.36
1554109732721,-4.841076,-5.885546,5.812523400000001,-0.043675844000000005,-0.0053263223,0.02876214,11.46,50.64,6.42
1554109732740,-4.8458643,-5.823297,5.8891377,-0.049002163,-0.010652645,0.018109497,11.52,50.64,6.48
1554109732761,-4.7740383,-5.966949,5.9130797,-0.040480047000000005,-0.015978966,0.027696876000000002,11.52,50.64,6.54
1554109732781,-4.7500963,-5.9047,5.707178,-0.022370555,-0.012783173500000002,0.022370555,11.52,50.58,6.66
1554109732801,-4.7309427,-5.7658362,5.8412538,-0.014913702,-0.00958738,0.013848438000000001,11.52,50.52,6.66
1554109732820,-4.8745947,-5.7466826,5.8891377,-0.014913702,-0.017044231,-0.0031957934000000003,11.52,50.4,6.66
1554109732841,-4.8985367,-5.66528,5.707178,-0.035153727999999995,-0.020240024,-0.018109497,11.58,50.28,6.66
1554109732861,-4.8458643,-5.713164,5.7790045999999995,-0.056459017,-0.022370555,-0.025566347000000003,11.58,50.1,6.66
1554109732880,-4.9464207,-5.789778,5.692813,-0.07350325,-0.023435817999999997,-0.03089267,11.64,49.98,6.66
1554109732900,-4.9320555,-5.852027400000001,5.8891377,-0.07563378,-0.02876214,-0.02876214,11.7,49.86,6.66
1554109732920,-4.965574299999999,-6.005256,6.0280013,-0.054328485999999995,-0.026631612000000002,-0.027696876000000002,11.7,49.74,6.66
1554109732940,-4.8985367,-5.990891,5.8268886,-0.035153727999999995,-0.022370555,-0.03089267,11.76,49.68,6.66
1554109732961,-4.9512089999999995,-5.976526,5.817312,-0.017044231,-0.022370555,-0.018109497,11.76,49.56,6.66
1554109732981,-4.960786,-6.0291986,5.7263317,0.008522116,-0.014913702,0.014913702,11.76,49.56,6.72
1554109733001,-4.9799394999999995,-5.8328739999999994,5.879561,0.043675844000000005,-0.012783173500000002,0.010652645,11.82,49.56,6.72
1554109733022,-5.056554,-5.861604,5.812523400000001,0.07456851,-0.014913702,0.025566347000000003,11.82,49.56,6.72
1554109733042,-4.936844000000001,-5.837662,5.8651957999999995,0.099069595,-0.011717908999999999,0.040480047000000005,11.94,49.56,6.66
1554109733060,-4.999093,-5.8903346,5.6880245,0.10972224,-0.008522116,0.051132694000000006,12.0,49.56,6.66
1554109733081,-5.118803,-5.981314,5.707178,0.11930962,-0.0053263223,0.056459017,12.06,49.56,6.66
1554109733101,-5.104438,-5.856816,5.817312,0.13422333,-0.024501082,0.043675844000000005,12.18,49.56,6.66
1554109733121,-5.032612,-6.0531406,5.8221,0.17789917,-0.01917476,0.10333065,12.24,49.5,6.66
1554109733141,-5.066130599999999,-5.885546,6.085462000000001,0.18855181,-0.023435817999999997,0.096939065,12.42,49.44,6.6
1554109733160,-5.090072599999999,-5.7945666,5.917868,0.20453078,-0.017044231,0.13954964,12.54,49.38,6.54
1554109733180,-5.1810527,-5.8185085999999995,5.9705405,0.21518342,-0.025566347000000003,0.17257284,12.66,49.26,6.48
1554109733201,-5.1475334,-5.6221843,6.1094040000000005,0.21624869,-0.025566347000000003,0.19387813,12.72,49.08,6.42
1554109733221,-5.0996494000000006,-5.6221843,5.9465985,0.23435818,-0.027696876000000002,0.26312032,12.78,48.9,6.36
1554109733240,-5.114014599999999,-5.382764,5.9561753,0.21092236,-0.027696876000000002,0.257794,12.78,48.72,6.24
1554109733260,-5.118803,-5.2008047,6.0758852999999995,0.2066613,-0.014913702,0.27803403,12.84,48.54,6.18
1554109733281,-5.0421886,-5.2726307,5.9322333,0.20133498,-0.027696876000000002,0.28975195,12.84,48.36,6.06
1554109733300,-5.046977,-5.133767,5.951387,0.18002969,-0.023435817999999997,0.27377295,12.84,48.12,6.0
1554109733320,-5.171476,-4.817732299999999,5.9705405,0.1470065,-0.03089267,0.24181503,12.84,47.94,5.88
1554109733341,-5.161899,-4.88477,5.9849057,0.10759171,-0.041545313,0.23755397,12.84,47.64,5.76
1554109733360,-5.1235914000000005,-4.8320975,5.8651957999999995,0.07563378,-0.05752428,0.19920446,12.84,47.22,5.58
1554109733381,-5.1235914000000005,-4.6932339999999995,5.817312,0.03089267,-0.07243799,0.12783173,12.84,46.86,5.34
1554109733401,-5.0421886,-4.717176,5.951387,0.0031957934000000003,-0.07563378,0.12463594,12.84,46.56,5.16
1554109733420,-4.917690299999999,-4.8320975,5.917868,-0.020240024,-0.08628642,0.08841695,12.84,46.38,5.04
1554109733442,-4.927267,-4.8656163,5.8604074,-0.056459017,-0.09161274,0.00958738,13.02,46.02,4.74
1554109733461,-4.879383,-4.8656163,5.9322333,-0.084155895,-0.09161274,-0.023435817999999997,13.14,45.84,4.56
1554109733481,-4.831499,-4.980538,5.927445,-0.11930962,-0.09267801,-0.06604639400000001,13.32,45.66,4.38
1554109733501,-4.8985367,-5.0523643,5.9705405,-0.13741912,-0.08628642,-0.10972224,13.5,45.66,4.2
1554109733521,-4.984728,-5.0523643,6.0758852999999995,-0.14913702,-0.08522116,-0.13635385,13.68,45.72,4.2
1554109733541,-4.984728,-5.0427876,6.071097,-0.15126756,-0.08841695,-0.17044231,13.92,45.72,4.2
1554109733560,-4.817133999999999,-5.148132299999999,6.013636,-0.165116,-0.08948222,-0.20133498,14.04,45.78,4.2
1554109733580,-5.032612,-5.172074299999999,6.013636,-0.18748654,-0.09161274,-0.22583607,14.16,45.78,4.2
1554109733601,-4.807557,-5.205593,5.9465985,-0.23116238,-0.09267801,-0.25566345,14.22,45.78,4.26
1554109733620,-4.7548847,-5.253476999999999,5.9322333,-0.2695119,-0.09267801,-0.27164245,14.22,45.78,4.26
1554109733641,-4.8602295,-5.325303,5.831677,-0.36112466,-0.07989483,-0.28336033,14.16,45.78,4.26
1554109733660,-4.8841715,-5.5168395,5.8268886,-0.45060685,-0.07776430000000001,-0.28229508,14.1,45.78,4.26
1554109733680,-4.941632299999999,-5.7179523,5.7215432999999996,-0.5273059,-0.07776430000000001,-0.2727077,13.92,45.84,4.26
1554109733701,-4.965574299999999,-5.9142766,5.7454852999999995,-0.56885123,-0.080960095,-0.25246766,13.74,45.96,4.26
1554109733721,-5.023035,-5.9047,5.6161985,-0.58909124,-0.08948222,-0.23009712,13.5,46.02,4.26
1554109733740,-5.0374002,-5.952584,5.668871,-0.62317973,-0.099069595,-0.2034655,13.26,46.14,4.32
1554109733761,-5.032612,-6.139332,5.7263317,-0.65726817,-0.10972224,-0.16618125,13.08,46.2,4.38
1554109733780,-5.0996494000000006,-6.158485400000001,5.620987,-0.6625945,-0.12570119999999999,-0.12357068,12.9,46.32,4.44
1554109733803,-5.0086699999999995,-6.297349,5.9705405,-0.6263755,-0.1470065,-0.09054748,12.72,46.38,4.62
1554109733823,-4.831499,-6.3883285999999995,5.999271,-0.5123922000000001,-0.15126756,-0.07350325,12.6,46.44,4.92
1554109733841,-4.9512089999999995,-6.3643866,6.0088477,-0.34088463,-0.14061491,-0.07030745599999999,12.54,46.5,5.22
1554109733860,-4.975151,-6.3979053,6.0327897,-0.18429075,-0.11824436,-0.06604639400000001,12.48,46.5,5.46
1554109733887,-4.9224787,-6.239888,5.903503,-0.084155895,-0.09587380000000001,-0.07882957,12.66,46.56,5.82
1554109733902,-4.9464207,-6.206369400000001,5.855619,-0.07137272,-0.07989483,-0.08628642,12.72,46.56,5.94
1554109733922,-4.8841715,-6.311714,5.774216,-0.08522116,-0.054328485999999995,-0.07776430000000001,12.78,46.62,6.12
1554109733941,-4.879383,-6.4362125,5.8412538,-0.07137272,-0.027696876000000002,-0.05219796,12.9,46.62,6.3
1554109733961,-4.7884035,-6.4936733,5.6880245,-0.03089267,-0.004261058,-0.025566347000000003,12.96,46.68,6.36
1554109733980,-4.783615,-6.4840965,5.6880245,0.023435817999999997,0.0063915867,-0.012783173500000002,13.08,46.74,6.3
1554109734001,-4.7309427,-6.4505777,5.4342394,0.07350325,0.008522116,-0.004261058,13.14,46.8,6.3
1554109734020,-4.7309427,-6.3021374,5.4964886,0.094808534,0.010652645,0.007456851,13.2,46.8,6.24
1554109734040,-4.7644614999999995,-6.259042,5.266645,0.08948222,0.0053263223,0.012783173500000002,13.2,46.86,6.24
1554109734061,-4.596867,-6.187216,5.3384714,0.07669904,-0.0063915867,0.004261058,13.14,46.92,6.24
1554109734081,-4.5872903,-6.14412,5.257068,0.053263225,-0.017044231,-0.00958738,13.08,46.92,6.24
1554109734100,-4.635174299999999,-6.172850599999999,5.204396,0.023435817999999997,-0.03195793,-0.02130529,13.02,46.98,6.24
1554109734120,-4.673482,-6.1106014,5.209184,-0.002130529,-0.04474111,-0.02876214,13.02,46.98,6.24
1554109734140,-4.644751,-6.14412,5.228338,-0.043675844000000005,-0.06711166,-0.03195793,12.96,46.92,6.24
1554109734161,-4.7500963,-6.187216,5.415086,-0.07776430000000001,-0.07669904,-0.036218993,12.96,46.92,6.18
1554109734181,-4.7309427,-6.1632739999999995,5.458181400000001,-0.098004326,-0.08735169,-0.03195793,12.9,46.92,6.18
1554109734201,-4.711789,-6.2925606,5.506065400000001,-0.09161274,-0.09054748,-0.029827405,12.96,46.92,6.18
1554109734220,-4.7022123,-6.455366000000001,5.7263317,-0.07669904,-0.08948222,-0.025566347000000003,12.96,46.92,6.12
1554109734240,-4.673482,-6.4505777,5.788581400000001,-0.05539375,-0.07882957,-0.017044231,13.02,46.86,6.06
1554109734260,-4.6591167,-6.455366000000001,5.7359085,-0.011717908999999999,-0.06711166,-0.00958738,13.02,46.86,6.06
1554109734281,-4.6878470000000005,-6.297349,5.5922565,0.018109497,-0.051132694000000006,0.0031957934000000003,13.08,46.86,6.0
1554109734300,-4.6255975,-6.287772,5.568314599999999,0.024501082,-0.03834952,0.0063915867,13.08,46.86,6.06
1554109734320,-4.606444000000001,-6.3883285999999995,5.606621700000001,0.018109497,-0.02130529,0.010652645,13.08,46.8,6.06
1554109734341,-4.606444000000001,-6.282984,5.525219,0.027696876000000002,-0.017044231,0.007456851,13.08,46.8,6.0
1554109734360,-4.5537715,-6.297349,5.568314599999999,0.04580637,-0.013848438000000001,0.0010652645,13.08,46.74,6.0
1554109734381,-4.5920787,-6.192004,5.510854,0.05752428,-0.01917476,-0.0053263223,13.08,46.68,6.0
1554109734400,-4.5537715,-6.182427400000001,5.4102974,0.04580637,-0.025566347000000003,-0.018109497,13.08,46.62,6.0
1554109734421,-4.582502,-6.1967926,5.357625,0.027696876000000002,-0.024501082,-0.018109497,13.08,46.56,5.94
1554109734440,-4.5298295,-6.282984,5.539584,0.026631612000000002,-0.024501082,-0.008522116,13.14,46.56,5.94
1554109734461,-4.759673,-6.139332,5.6545057,0.039414786,-0.03195793,-0.008522116,13.26,46.5,5.88
1554109734480,-4.673482,-6.177639,5.510854,0.037284255,-0.040480047000000005,-0.024501082,13.32,46.5,5.88
1554109734500,-4.596867,-6.120178,5.5922565,0.013848438000000001,-0.039414786,-0.046871635999999994,13.38,46.5,5.88
1554109734520,-4.6591167,-6.1632739999999995,5.549161,-0.035153727999999995,-0.024501082,-0.04474111,13.44,46.5,5.88
1554109734540,-4.6782703,-6.249465,5.6976013,-0.05006743,-0.011717908999999999,-0.037284255,13.5,46.5,5.82
1554109734561,-4.663905000000001,-6.2638300000000005,5.8221,-0.023435817999999997,0.0,-0.03834952,13.56,46.5,5.82
1554109734580,-4.707000700000001,-6.369175,5.568314599999999,-0.0031957934000000003,0.002130529,-0.037284255,13.56,46.5,5.88
1554109734601,-4.7165775000000005,-6.158485400000001,5.5922565,0.03089267,0.0053263223,-0.036218993,13.56,46.5,5.88
1554109734620,-4.7309427,-6.067506,5.4486045999999995,0.02876214,0.00958738,-0.034088463,13.5,46.5,5.88
1554109734641,-4.7261543,-6.172850599999999,5.635351999999999,0.012783173500000002,0.0053263223,-0.035153727999999995,13.44,46.5,5.88
1554109734660,-4.7453080000000005,-6.287772,5.644929,-0.004261058,0.002130529,-0.039414786,13.38,46.44,5.82
1554109734680,-4.759673,-6.2542534000000005,5.6257753,-0.0010652645,-0.0053263223,-0.046871635999999994,13.38,46.44,5.82
1554109734701,-4.7740383,-6.1489085999999995,5.573103,0.00958738,-0.0053263223,-0.039414786,13.32,46.38,5.82
1554109734721,-4.802768700000001,-6.201581,5.462969999999999,0.024501082,-0.0063915867,-0.01917476,13.32,46.32,5.76
1554109734741,-4.76925,-6.2446766,5.472546599999999,0.043675844000000005,-0.014913702,-0.0053263223,13.26,46.32,5.7
1554109734761,-4.841076,-6.206369400000001,5.6161985,0.054328485999999995,-0.02876214,0.002130529,13.26,46.26,5.7
1554109734781,-4.7788267,-6.172850599999999,5.606621700000001,0.05539375,-0.04261058,0.018109497,13.26,46.2,5.64
1554109734801,-4.76925,-6.0483522,5.635351999999999,0.056459017,-0.06391586,0.041545313,13.26,46.14,5.58
1554109734821,-4.8506527,-6.120178,5.6161985,0.05752428,-0.08841695,0.05752428,13.26,46.08,5.58
1554109734841,-4.8937483,-6.182427400000001,5.798158,0.07243799,-0.112918034,0.07350325,13.2,46.02,5.58
1554109734863,-4.9703627,-5.976526,5.8412538,0.084155895,-0.15233281,0.11717909,13.2,45.96,5.58
1554109734880,-4.9559975,-5.943007,5.94181,0.07882957,-0.1768339,0.15020229,13.2,45.9,5.64
1554109734901,-4.927267,-6.0244102,5.798158,0.07350325,-0.19813919,0.1768339,13.2,45.9,5.58
1554109734920,-4.7884035,-6.033987000000001,5.769428,0.10546118,-0.20985709,0.17150758,13.2,45.84,5.52
1554109734941,-4.673482,-6.000468,5.7933699999999995,0.18002969,-0.21198763,0.12357068,13.14,45.78,5.4
1554109734961,-4.572925,-5.990891,5.6257753,0.20879184,-0.19387813,0.12037488,13.26,45.78,5.22
1554109734980,-4.5202527,-5.919065,5.597045,0.18322548,-0.17789917,0.10439592,13.38,45.72,5.04
1554109735001,-4.477157,-5.852027400000001,5.525219,0.128897,-0.16085494,0.099069595,13.44,45.66,4.8
1554109735020,-4.486733999999999,-5.9238534000000005,5.5922565,0.06498113,-0.14274544,0.09161274,13.56,45.66,4.56
1554109735041,-4.4915223,-5.9142766,5.6401405,0.002130529,-0.12996227,0.06924219,13.62,45.6,4.32
1554109735061,-4.5298295,-5.976526,5.8987145,-0.039414786,-0.10439592,0.049002163,13.74,45.54,4.14
1554109735081,-4.525041000000001,-5.909488,5.7933699999999995,-0.06604639400000001,-0.082025364,0.033023197000000004,13.8,45.42,3.96
1554109735100,-4.55856,-5.9621606,5.869984,-0.08628642,-0.05965481,0.015978966,13.92,45.24,3.84
1554109735120,-4.4723687000000005,-5.981314,6.0758852999999995,-0.08522116,-0.04580637,0.012783173500000002,13.92,45.12,3.72
1554109735141,-4.5633483,-5.938218599999999,6.1620764999999995,-0.036218993,-0.03195793,0.0053263223,13.92,44.94,3.72
1554109735161,-4.611232299999999,-5.9142766,6.267421700000001,0.033023197000000004,-0.022370555,-0.00958738,13.98,44.76,3.66
1554109735181,-4.5298295,-5.799355,6.229114,0.08628642,-0.022370555,-0.03089267,14.04,44.64,3.6
1554109735200,-4.5920787,-5.6604915,6.1668650000000005,0.10226539,-0.01917476,-0.051132694000000006,14.1,44.52,3.54
1554109735221,-4.6495394999999995,-5.6509147,6.257845,0.09054748,-0.011717908999999999,-0.068176925,14.16,44.4,3.48
1554109735240,-4.711789,-5.6700683,6.2339025,0.054328485999999995,0.0,-0.10013486,14.22,44.28,3.42
1554109735261,-4.8267107000000005,-5.7179523,6.2482677,0.0,0.01917476,-0.11611383,14.34,44.28,3.36
1554109735281,-4.6782703,-5.612607499999999,6.305729,-0.036218993,0.03834952,-0.10226539,14.34,44.22,3.3
1554109735300,-4.721366000000001,-5.856816,6.305729,-0.004261058,0.060720075,-0.058589544,14.4,44.22,3.3
1554109735321,-4.630386,-5.9621606,6.4398040000000005,0.10972224,0.06711166,-0.035153727999999995,14.4,44.16,3.3
1554109735341,-4.6782703,-5.856816,6.2817870000000005,0.26312032,0.05752428,-0.025566347000000003,14.46,44.16,3.3
1554109735360,-4.6016555,-5.761048000000001,6.0758852999999995,0.35899413,0.036218993,-0.03195793,14.4,44.16,3.36
1554109735381,-4.6591167,-5.559935,6.071097,0.41971418,0.012783173500000002,-0.036218993,14.4,44.1,3.42
1554109735400,-4.644751,-5.6221843,5.917868,0.43356264,-0.0010652645,-0.04474111,14.4,44.16,3.42
1554109735420,-4.5441947,-5.631761,5.8508306,0.38775626,-0.004261058,-0.05539375,14.4,44.16,3.42
1554109735440,-4.5202527,-5.6940102999999995,5.740697,0.30786142,0.004261058,-0.07563378,14.4,44.22,3.36
1554109735461,-4.362235500000001,-5.583876999999999,5.9801173,0.18216023,0.015978966,-0.080960095,14.4,44.28,3.3
1554109735481,-4.3574470000000005,-5.617396,5.9322333,0.05006743,0.024501082,-0.08948222,14.4,44.28,3.18
1554109735500,-4.362235500000001,-5.6221843,6.0327897,-0.026631612000000002,0.035153727999999995,-0.09374327,14.4,44.34,3.06
1554109735521,-4.3574470000000005,-5.727529,5.893926,-0.039414786,0.03195793,-0.10013486,14.4,44.4,2.94
1554109735540,-4.4580035,-5.555146700000001,6.0040593,-0.004261058,0.014913702,-0.11824436,14.4,44.4,2.82
1554109735560,-4.525041000000001,-5.54557,5.9322333,0.060720075,-0.0010652645,-0.13635385,14.4,44.52,2.76
1554109735581,-4.5058875,-5.468955,5.9561753,0.094808534,-0.015978966,-0.15233281,14.34,44.58,2.76
1554109735601,-4.5681367,-5.4881085999999994,5.8412538,0.07456851,-0.025566347000000003,-0.17257284,14.34,44.64,2.7
1554109735621,-4.6495394999999995,-5.3540335,6.0040593,0.011717908999999999,-0.027696876000000002,-0.18961707,14.34,44.7,2.7
1554109735640,-4.644751,-5.468955,6.0327897,-0.058589544,-0.03089267,-0.20453078,14.34,44.82,2.7
1554109735660,-4.6160207,-5.5982423,6.114192500000001,-0.10759171,-0.04261058,-0.221575,14.34,44.88,2.7
1554109735681,-4.759673,-5.6269727,6.186018499999999,-0.12676647,-0.049002163,-0.22370553,14.34,45.0,2.76
1554109735700,-4.644751,-5.7802014,6.4062852999999995,-0.113983296,-0.053263225,-0.2034655,14.34,45.12,2.76
1554109735720,-4.6208089999999995,-5.689222,6.4350157,-0.084155895,-0.06285059999999999,-0.18216023,14.34,45.18,2.76
1554109735740,-4.654328,-5.6940102999999995,6.5738792,-0.036218993,-0.060720075,-0.15978967,14.28,45.3,2.82
1554109735760,-4.654328,-5.655703,6.6217630000000005,0.022370555,-0.06285059999999999,-0.13635385,14.22,45.48,2.82
1554109735781,-4.510676,-5.5647235,6.449381,0.06711166,-0.058589544,-0.13422333,14.1,45.66,2.88
1554109735800,-4.7884035,-5.4402246,6.564302400000001,0.07030745599999999,-0.047936900000000005,-0.16937704,13.74,45.84,2.94
1554109735820,-4.692635500000001,-5.607819,6.5307837,0.023435817999999997,-0.04474111,-0.18109496,13.68,45.9,2.94
1554109735841,-4.434061499999999,-5.7083755,6.401497,-0.036218993,-0.014913702,-0.14594123,13.38,46.08,2.94
1554109735860,-4.462791999999999,-5.751471,6.5738792,-0.020240024,0.023435817999999997,-0.10013486,13.26,46.14,2.94
1554109735880,-4.390966000000001,-5.7706246,6.2195373,0.041545313,0.036218993,-0.06604639400000001,13.26,46.26,2.88
1554109735901,-4.3718123,-5.6030307,6.128557700000001,0.11824436,0.049002163,-0.058589544,13.26,46.26,2.76
1554109735923,-4.4244847,-5.5647235,5.903503,0.15020229,0.049002163,-0.07456851,13.32,46.32,2.64
1554109735941,-4.3478703,-5.5647235,5.7933699999999995,0.10759171,0.04580637,-0.08841695,13.44,46.32,2.52
1554109735960,-4.3047748,-5.607819,5.620987,0.03089267,0.051132694000000006,-0.12037488,13.56,46.38,2.34
1554109735980,-4.228160400000001,-5.8185085999999995,5.6784476999999995,-0.040480047000000005,0.056459017,-0.1470065,13.62,46.5,2.28
1554109736001,-4.237737,-5.8328739999999994,5.8412538,-0.09054748,0.06285059999999999,-0.17896444,13.74,46.62,2.16
1554109736021,-4.1611223,-5.7802014,5.917868,-0.10865697,0.07563378,-0.21624869,13.74,46.68,2.16
1554109736040,-4.2521024,-5.6700683,5.893926,-0.12676647,0.07137272,-0.23755397,13.68,46.8,2.16
1554109736060,-4.31914,-5.7466826,6.023213,-0.15978967,0.056459017,-0.257794,13.68,46.92,2.28
1554109736081,-4.232949,-5.7754129999999995,5.994482499999999,-0.18748654,0.034088463,-0.27057716,13.62,46.98,2.34
1554109736101,-4.280833,-5.761048000000001,5.994482499999999,-0.20133498,0.015978966,-0.27377295,13.62,47.16,2.46
1554109736120,-4.261679,-5.943007,6.18123,-0.18216023,-0.020240024,-0.27803403,13.62,47.28,2.64
1554109736141,-4.1419687000000005,-5.823297,6.1237693,-0.13848437,-0.05006743,-0.28868666,13.62,47.4,2.82
1554109736160,-4.098873,-6.1153900000000005,6.229114,-0.09374327,-0.07882957,-0.29188246,13.62,47.58,2.94
1554109736180,-3.9264907999999994,-6.096236,6.2817870000000005,-0.09374327,-0.094808534,-0.2908172,13.56,47.76,3.06
1554109736201,-3.8642415999999997,-6.225523,6.2243257000000005,-0.07243799,-0.10865697,-0.2908172,13.5,47.94,3.18
1554109736221,-3.9743748,-6.3548098,6.214748999999999,-0.05219796,-0.11504856,-0.27803403,13.44,48.12,3.24
1554109736240,-4.0462008,-6.3643866,6.3727665,-0.025566347000000003,-0.10972224,-0.27377295,13.38,48.36,3.36
1554109736260,-4.156333999999999,-6.306926,6.3488245,-0.008522116,-0.10439592,-0.28336033,13.2,48.66,3.36
1554109736281,-4.1132383,-6.2542534000000005,6.2769985,-0.012783173500000002,-0.09161274,-0.28655612,12.96,48.9,3.36
1554109736301,-4.098873,-6.1632739999999995,6.4062852999999995,-0.053263225,-0.07669904,-0.27057716,12.72,49.14,3.36
1554109736320,-4.19943,-6.2351,6.458957700000001,-0.094808534,-0.054328485999999995,-0.23009712,12.48,49.38,3.36
1554109736340,-4.146757,-6.3404446,6.4398040000000005,-0.09374327,-0.035153727999999995,-0.18961707,12.24,49.56,3.36
1554109736361,-4.175488,-6.431424,6.377555,-0.041545313,-0.012783173500000002,-0.15020229,12.06,49.8,3.36
1554109736381,-4.0892963,-6.4122705,6.0088477,0.018109497,0.0010652645,-0.11504856,11.88,50.04,3.36
1554109736401,-3.9456443999999995,-6.335656,6.0519433,0.054328485999999995,0.018109497,-0.08841695,11.7,50.22,3.42
1554109736420,-3.7924154000000003,-6.259042,5.960963700000001,0.07030745599999999,0.029827405,-0.07350325,11.7,50.46,3.42
1554109736440,-3.7684733999999995,-6.172850599999999,5.6257753,0.06498113,0.049002163,-0.07243799,11.82,50.58,3.48
1554109736460,-3.7972038,-6.192004,5.707178,0.056459017,0.058589544,-0.11930962,11.88,50.7,3.54
1554109736480,-3.6104562000000007,-6.0244102,5.6018333,0.013848438000000001,0.06391586,-0.18855181,11.94,50.88,3.6
1554109736501,-3.490746,-5.7849900000000005,5.6401405,-0.04474111,0.07776430000000001,-0.21518342,12.06,51.12,3.6
1554109736521,-3.6296098,-5.7658362,5.7215432999999996,-0.11930962,0.06498113,-0.24501082,12.06,51.36,3.66
1554109736540,-3.5625722,-5.842450599999999,5.6497173,-0.16192019,0.024501082,-0.30146983,12.0,51.48,3.66
1554109736561,-3.5577837999999997,-6.0148335,5.635351999999999,-0.14913702,-0.023435817999999997,-0.35792887,11.88,51.54,3.6
1554109736581,-3.5051112,-6.0627174,5.5347957999999995,-0.08522116,-0.08522116,-0.41225734,11.7,51.66,3.6
1554109736600,-3.3566709,-6.1632739999999995,5.8268886,-0.015978966,-0.15020229,-0.46978164,11.58,51.78,3.6
1554109736621,-3.2225955,-6.2781954,5.807735,0.07456851,-0.20985709,-0.5294364,11.4,51.96,3.6
1554109736640,-3.1603463,-5.919065,5.798158,0.18322548,-0.25566345,-0.5954828000000001,11.22,52.08,3.6
1554109736660,-3.0214825000000003,-5.7849900000000005,5.6880245,0.27590349999999997,-0.30892670000000005,-0.67218184,11.04,52.26,3.6
1554109736681,-2.7150247000000003,-5.895123,5.692813,0.2790993,-0.37284255,-0.80533993,10.86,52.56,3.6
1554109736700,-2.5234885,-5.976526,5.869984,0.19707392,-0.4165184,-0.92464954,10.8,52.92,3.6
1554109736721,-2.3223755,-6.120178,5.9130797,0.06178534,-0.44954160000000004,-1.0098706,10.68,53.28,3.54
1554109736745,-2.2074540000000002,-6.172850599999999,6.1381345000000005,-0.101200126,-0.46232477,-1.0290455,10.56,53.76,3.48
1554109736761,-2.0302830000000003,-6.4122705,6.06152,-0.23861924,-0.46658584,-1.0173275,10.32,54.3,3.36
1554109736781,-2.0733786,-6.7570357,6.1524997,-0.38349520000000004,-0.45593318,-0.9917611999999999,9.96,54.84,3.24
1554109736800,-2.1691467999999996,-7.140108000000001,6.353613,-0.5006742999999999,-0.45380265,-0.96086854,9.48,55.32,3.12
1554109736822,-2.1930888,-7.719505000000001,6.746262,-0.54435015,-0.43888897,-0.90014845,8.88,55.92,2.94
1554109736841,-2.1164744,-8.255806,7.0670850000000005,-0.46232477,-0.41225734,-0.8021441,8.28,56.76,2.82
1554109736861,-2.2074540000000002,-8.796896,7.234678999999999,-0.33555830000000003,-0.36964676,-0.69987875,7.62,57.48,2.64
1554109736881,-2.2218192,-8.883087,7.3974850000000005,-0.22796659,-0.31957933,-0.58269966,6.9,58.14,2.52
1554109736901,-2.3175871,-9.098564999999999,7.445369,-0.20240025,-0.24607609,-0.39734364,6.24,58.74,2.4
1554109736920,-2.2888567,-8.959702,7.689577000000001,-0.19707392,-0.15339808,-0.17896444,5.7,59.28,2.28
1554109736940,-2.2936451,-8.811261,7.6608467000000005,-0.15126756,-0.06391586,0.03834952,5.22,59.76,2.1
1554109736961,-2.4085669999999997,-8.5622635,7.493252799999999,-0.04580637,0.020240024,0.23542345,4.86,60.24,1.98
1554109736981,-2.4612392999999995,-8.370728,7.2729864,0.12996227,0.09054748,0.4101268,4.68,60.6,1.86
1554109737001,-2.566584,-8.073847,7.086238400000001,0.34621096,0.1470065,0.55606806,4.56,60.72,1.8
1554109737020,-2.4851813,-7.719505000000001,6.885125599999999,0.51984906,0.18322548,0.6625945,4.62,60.84,1.68
1554109737040,-2.4660277,-7.508815299999999,6.664859,0.628506,0.22583607,0.78296936,4.92,60.96,1.62
1554109737061,-2.4468741,-7.417835,6.401497,0.680704,0.2695119,0.8692558000000001,5.22,61.02,1.62
1554109737080,-2.4181437000000003,-7.307702000000001,6.257845,0.6988135,0.3057309,0.93636745,5.58,61.02,1.62
1554109737100,-2.2984335,-7.154473299999999,6.1524997,0.6945524000000001,0.33129725,0.9651296,5.94,60.9,1.62
1554109737121,-2.1739352000000003,-6.9581485,6.27221,0.67218184,0.350472,0.9672601000000001,6.42,60.6,1.5
1554109737140,-2.1164744,-6.570288000000001,5.812523400000001,0.62317973,0.35473305,0.94595486,6.96,60.18,1.38
1554109737160,-2.0398598000000003,-6.14412,5.6784476999999995,0.53263223,0.34088463,0.9012136999999999,7.5,59.64,1.26
1554109737180,-2.1068976000000004,-6.010045,5.6497173,0.39521313,0.3057309,0.83729786,7.92,58.98,1.08
1554109737201,-2.1691467999999996,-5.789778,5.6161985,0.24074976,0.25566345,0.7552725,8.28,58.2,0.96
1554109737220,-2.4085669999999997,-5.727529,5.7119665,0.10972224,0.19068234,0.664725,8.58,57.36,0.78
1554109737241,-2.3558946,-5.593454,5.9082913,0.029827405,0.111852765,0.5795039000000001,8.88,56.58,0.6
1554109737261,-2.528277,-5.6030307,5.927445,0.035153727999999995,0.03089267,0.49321744,9.18,55.92,0.48
1554109737280,-2.4277205000000004,-5.535993,6.18123,0.08841695,-0.040480047000000005,0.40053943,9.6,55.32,0.42
1554109737300,-2.3942018,-5.33488,6.2482677,0.12570119999999999,-0.10439592,0.30892670000000005,9.96,54.78,0.36
1554109737321,-2.4612392999999995,-5.143344,6.3009405,0.13528858,-0.15233281,0.21944448,10.26,54.18,0.36
1554109737341,-2.60968,-5.0427876,6.63134,0.13209279,-0.18535602,0.11611383,10.5,53.7,0.24
1554109737361,-2.7246015,-4.8799815,6.5307837,0.12676647,-0.22903186,-0.023435817999999997,10.8,53.4,0.24
1554109737381,-2.4516625,-4.607043,6.4781113,0.10013486,-0.25672874,-0.16405073,11.04,53.1,0.12
1554109737400,-2.5809495,-4.156933,6.5307837,0.060720075,-0.22477080000000002,-0.26312032,11.34,52.74,0.06
1554109737420,-2.834735,-4.3676224,6.564302400000001,0.0063915867,-0.1949434,-0.33875409999999995,11.52,52.44,-0.06
1554109737441,-2.7246015,-5.0140567,6.4828997,-0.07776430000000001,-0.18642128,-0.38136467,11.58,52.2,-0.18
1554109737461,-2.681506,-5.1146135,6.2243257000000005,-0.2034655,-0.19068234,-0.50173956,11.64,52.08,-0.36
1554109737481,-2.930503,-5.502473999999999,6.0998273,-0.30040458,-0.16085494,-0.5699165,11.7,52.08,-0.48
1554109737501,-2.8778305,-6.168062,6.329671,-0.3653857,-0.14487597,-0.5699165,11.76,52.08,-0.66
1554109737521,-2.858677,-6.785766000000001,6.324882499999999,-0.39947417,-0.14168017,-0.65513766,11.76,52.14,-0.78
1554109737541,-2.7437549999999997,-7.3938932,6.2865753,-0.47510794,-0.12144015,-0.73609775,11.76,52.26,-0.9
1554109737560,-2.4899697,-7.9301944,6.2195373,-0.5603291,-0.094808534,-0.72437984,11.7,52.38,-0.96
1554109737580,-2.3511062000000003,-8.231864,6.6265516,-0.65726817,-0.034088463,-0.7073356,11.58,52.74,-0.96
1554109737600,-2.3989902,-7.997232400000001,6.688801,-0.6583334,0.036218993,-0.6466155,11.34,53.22,-0.96
1554109737621,-2.4995465,-7.5710645,6.779781,-0.56245965,0.08522116,-0.5209143,11.04,53.76,-0.84
1554109737641,-2.5187001,-6.713939999999999,6.707954400000001,-0.36751625,0.07563378,-0.43356264,10.5,54.6,-0.6
1554109737661,-2.6048915,-6.4218473,6.6744356,-0.20772657,0.033023197000000004,-0.39947417,10.14,55.08,-0.36
1554109737680,-2.6240451,-6.4840965,6.688801,-0.08948222,-0.008522116,-0.38136467,9.96,55.38,-0.24
1554109737701,-2.6479871,-6.9437833,6.779781,0.060720075,-0.06924219,-0.36325517,9.48,56.22,0.12
1554109737720,-2.6527755,-6.8288617,6.9808936,0.12996227,-0.10226539,-0.34727620000000003,9.3,56.52,0.24
1554109737741,-2.552219,-7.2454529999999995,7.258621000000001,0.16405073,-0.16618125,-0.34088463,9.06,57.18,0.6
1554109737761,-2.336741,-7.585429700000001,7.426214999999999,0.15765914,-0.1949434,-0.30679616,8.88,57.48,0.72
1554109737781,-2.3175871,-7.724292999999999,7.766192,0.19813919,-0.17576863,-0.20772657,8.88,57.78,0.84
1554109737801,-2.480393,-7.9062524000000005,7.838017999999999,0.27803403,-0.11930962,-0.07456851,8.7,58.08,0.84
1554109737821,-2.480393,-7.753023599999999,7.8428062999999995,0.36645097,-0.06711166,0.046871635999999994,8.52,58.32,0.78
1554109737840,-2.3558946,-7.374739599999999,7.531560000000001,0.45912898,-0.014913702,0.15552860000000002,8.34,58.62,0.72
1554109737860,-2.2266076,-7.092224000000001,7.2873516,0.55074173,0.05539375,0.27164245,8.16,58.74,0.66
1554109737881,-2.0350714,-6.737882000000001,7.091027,0.64341974,0.12996227,0.34727620000000003,7.92,58.74,0.6
1554109737900,-1.7190368000000003,-6.369175,6.865972,0.7254451,0.20985709,0.38349520000000004,7.8,58.68,0.48
1554109737921,-1.4700398000000001,-6.345233,6.5307837,0.79681784,0.2908172,0.386691,7.68,58.62,0.36
1554109737941,-1.316811,-5.966949,6.545148999999999,0.86392945,0.38349520000000004,0.33129725,7.62,58.56,0.18
1554109737961,-1.340753,-5.655703,6.353613,0.8788431999999999,0.43462790000000007,0.26738137,7.74,58.44,0.0
1554109737982,-1.3024458,-5.3779755,6.214748999999999,0.8341021000000001,0.4857606,0.17044231,7.92,58.26,-0.24
1554109738001,-1.3742718,-5.0427876,6.2243257000000005,0.63915867,0.5230448000000001,0.011717908999999999,8.04,57.96,-0.6
1554109738020,-1.3551182,-4.923076999999999,6.425439,0.38349520000000004,0.5219796,-0.12783173,8.22,57.66,-0.9
1554109738040,-1.4508862,-4.860828,6.4781113,0.113983296,0.515588,-0.2609898,8.4,57.3,-1.26
1554109738060,-1.4556746,-4.9518075,6.947375,-0.02876214,0.5091964,-0.36432046,8.52,57.0,-1.62
1554109738080,-1.8052281000000003,-5.0092683,7.0527196,-0.101200126,0.49854377,-0.5368933000000001,8.64,56.7,-1.92
1554109738101,-2.0973208,-5.0332108,7.4070616,-0.083090626,0.46871635,-0.76059884,8.7,56.46,-2.1
1554109738121,-2.4277205000000004,-5.0092683,7.445369,-0.00958738,0.43462790000000007,-0.9108011,8.7,56.28,-2.04
1554109738140,-2.5761611,-5.0763063,7.689577000000001,0.08948222,0.41864893,-0.97897804,8.7,56.28,-1.92
1554109738160,-2.5905263,-5.3923407,7.780557000000001,0.18748654,0.42397526,-0.96939063,8.64,56.58,-1.62
1554109738180,-2.7246015,-5.703587000000001,7.7949224,0.29507825,0.44954160000000004,-0.9331716999999998,8.52,57.06,-1.32
1554109738201,-2.8874072999999996,-5.8089319999999995,7.8188642999999995,0.39840892,0.49854377,-0.8724516,8.28,57.54,-1.02
1554109738220,-3.083732,-5.6030307,7.454945599999999,0.49747851,0.54435015,-0.81066626,7.92,58.08,-0.72
1554109738241,-3.1124623,-5.4641665999999995,7.1915830000000005,0.5784385999999999,0.572047,-0.7414241,7.56,58.56,-0.36
1554109738260,-3.2800562000000006,-5.253476999999999,6.827665,0.6317018,0.5763081,-0.7030744999999999,7.08,59.1,-0.12
1554109738281,-3.3327288999999998,-5.1960163,6.320094,0.6306366,0.5496765,-0.6860303000000001,6.66,59.82,0.06
1554109738301,-3.490746,-5.253476999999999,6.305729,0.56459016,0.49854377,-0.721184,6.12,60.6,0.12
1554109738322,-3.4715924,-5.4354362,6.095039,0.46125950000000004,0.44208476,-0.75633776,5.52,61.14,0.12
1554109738345,-3.490746,-5.579088700000001,6.1094040000000005,0.32810146,0.38349520000000004,-0.7850999,4.98,61.62,0.06
1554109738360,-3.3901896000000002,-5.823297,6.3727665,0.21092236,0.32170987,-0.7840345999999999,4.56,62.1,0.0
1554109738381,-3.145981,-6.005256,6.4302273,0.15233281,0.25566345,-0.76592517,4.14,62.52,-0.12
1554109738400,-3.0358477,-6.297349,6.933009599999999,0.13954964,0.19813919,-0.69668293,3.66,63.24,-0.24
1554109738422,-2.9209259999999997,-6.488885,6.889914,0.15020229,0.16618125,-0.6402239000000001,3.54,63.42,-0.3
1554109738440,-2.9783869,-6.3165026,6.9904703999999995,0.16937704,0.12996227,-0.5273059,2.94,63.84,-0.42
1554109738460,-2.8969840000000002,-6.2638300000000005,6.995259,0.15659387,0.111852765,-0.45593318,2.76,64.02,-0.42
1554109738481,-2.8203697,-6.033987000000001,7.095814999999999,0.11504856,0.08522116,-0.3717773,2.1,64.5,-0.6
1554109738500,-2.9735985,-5.856816,7.047931,0.037284255,0.05539375,-0.28975195,1.68,64.74,-0.66
1554109738521,-2.992752,-5.9047,7.071872999999999,0.0,0.03195793,-0.25140239999999997,1.5,64.92,-0.72
1554109738542,-3.064578,-5.957372,7.392696400000001,-0.05219796,-0.010652645,-0.20240025,0.9,65.4,-0.84
1554109738561,-2.9831752999999996,-6.0291986,7.3208704,-0.06498113,-0.04474111,-0.16618125,0.54,65.76,-0.84
1554109738581,-2.858677,-5.919065,7.277775,-0.07243799,-0.06498113,-0.11611383,0.24,66.0,-0.9
1554109738601,-2.8155810000000003,-5.751471,7.4310035999999995,-0.07030745599999999,-0.07669904,-0.07563378,0.18,66.12,-0.9
1554109738621,-2.8299465,-5.612607499999999,7.4645224,-0.05006743,-0.10226539,-0.027696876000000002,-0.06,66.3,-0.9
1554109738641,-2.9209259999999997,-5.3875523,7.5746554999999995,-0.034088463,-0.13422333,-0.011717908999999999,-0.12,66.36,-0.84
1554109738661,-2.8921957000000003,-5.3444567,7.713519,-0.02876214,-0.1587244,0.007456851,-0.18,66.42,-0.72
1554109738680,-2.8060042999999997,-5.512050599999999,7.7709804,-0.033023197000000004,-0.17044231,0.025566347000000003,-0.24,66.42,-0.66
1554109738701,-2.944868,-5.612607499999999,7.7949224,-0.023435817999999997,-0.165116,0.041545313,-0.3,66.42,-0.66
1554109738721,-2.8778305,-5.8185085999999995,8.048708,-0.008522116,-0.14487597,0.08628642,-0.36,66.48,-0.66
1554109738740,-2.695871,-5.976526,8.058285,-0.007456851,-0.1107875,0.1438107,-0.48,66.48,-0.66
1554109738760,-2.566584,-5.957372,7.981669999999999,-0.03089267,-0.06604639400000001,0.18855181,-0.54,66.48,-0.72
1554109738781,-2.5378537,-6.0244102,7.9912467000000005,-0.041545313,0.0053263223,0.25033715,-0.54,66.48,-0.78
1554109738800,-2.432509,-5.9621606,7.780557000000001,-0.034088463,0.10226539,0.30999196,-0.48,66.48,-0.84
1554109738821,-2.5713725,-5.823297,7.627327999999999,-0.025566347000000003,0.17896444,0.3291667,-0.48,66.54,-0.84
1554109738840,-2.6623523,-5.6030307,7.0766615999999996,-0.05006743,0.23861924,0.34940675,-0.42,66.48,-0.9
1554109738861,-2.834735,-5.2678423,6.7941460000000005,-0.15446335,0.28868666,0.35260254,-0.3,66.42,-0.9
1554109738880,-3.0693667000000002,-5.286996,6.564302400000001,-0.26844665,0.30999196,0.33875409999999995,-0.06,66.3,-0.96
1554109738901,-3.3614593,-5.4402246,6.1620764999999995,-0.43995422,0.31638354,0.31957933,0.18,66.06,-0.9
1554109738920,-3.6870705999999998,-5.492897,5.817312,-0.608266,0.32597092,0.2727077,0.48,65.82,-0.9
1554109738940,-3.6248214,-5.502473999999999,5.568314599999999,-0.7488809000000001,0.32384038,0.24074976,0.78,65.58,-0.78
1554109738961,-3.5146879999999996,-5.727529,5.6497173,-0.89801794,0.29188246,0.21092236,1.08,65.28,-0.54
1554109738981,-3.3039982000000006,-5.9238534000000005,5.3624134,-1.0120013,0.27377295,0.21198763,1.44,65.04,-0.24
1554109739000,-3.1364042999999997,-6.072294,5.544372599999999,-1.055677,0.26631612,0.23648871,1.8,64.8,0.24
1554109739022,-2.825158,-6.3787518,5.7359085,-1.0908308,0.23648871,0.25353295,2.1,64.62,0.84
1554109739041,-2.6144682999999995,-6.699575,5.994482499999999,-1.1217233999999998,0.18429075,0.24714136,2.28,64.5,1.5
1554109739061,-2.6144682999999995,-6.795342999999999,6.18123,-1.0652645,0.10759171,0.19174760000000002,2.4,64.38,2.22
1554109739080,-2.705448,-6.938994999999999,6.3392477,-0.9012136999999999,0.012783173500000002,0.14274544,2.52,64.32,2.94
1554109739101,-2.5091232999999997,-7.0251865,6.39192,-0.664725,-0.08948222,0.13635385,2.58,64.2,3.72
1554109739121,-2.4516625,-6.9725137,6.4637459999999995,-0.38029942,-0.17470337,0.13848437,2.64,64.02,4.38
1554109739140,-2.6479871,-6.8575919999999995,6.640917,-0.14487597,-0.24820662,0.13741912,2.64,63.9,5.04
1554109739161,-2.7820622999999998,-6.7283053,6.4924764999999995,0.027696876000000002,-0.3291667,0.11824436,2.7,63.66,5.58
1554109739181,-2.6862943,-6.819285000000001,6.5068417,0.19174760000000002,-0.38882150000000004,0.101200126,2.76,63.42,6.06
1554109739201,-2.6144682999999995,-6.795342999999999,6.645705,0.33662358,-0.41225734,0.084155895,2.94,63.18,6.36
1554109739220,-2.7772740000000002,-6.6947865,6.4685345000000005,0.4133226,-0.43036684,0.04261058,3.06,62.94,6.66
1554109739240,-2.8299465,-6.536769400000001,6.291363700000001,0.40373522,-0.44208476,0.00958738,3.24,62.82,6.9
1554109739261,-2.791639,-6.321291,6.118981,0.30892670000000005,-0.43462790000000007,0.008522116,3.42,62.64,7.08
1554109739281,-2.930503,-5.9956794,6.2099605,0.15126756,-0.42184472,0.03195793,3.6,62.52,7.14
1554109739300,-2.9161377,-6.2351,6.473323000000001,0.011717908999999999,-0.4048005,0.07350325,3.78,62.46,7.08
1554109739321,-2.9257145,-6.512827400000001,6.5307837,-0.034088463,-0.39095205,0.098004326,3.84,62.4,6.96
1554109739341,-2.8155810000000003,-6.627749000000001,6.535572,0.041545313,-0.34621096,0.068176925,3.96,62.4,6.6
1554109739361,-2.791639,-6.666056,6.5738792,0.12783173,-0.30360037,0.025566347000000003,4.02,62.46,6.3
1554109739380,-2.6288335,-6.6469026,6.707954400000001,0.23542345,-0.23968449999999997,-0.02876214,4.02,62.46,6.18
1554109739401,-2.6862943,-6.603807000000001,7.023989,0.34727620000000003,-0.14594123,-0.10652645,4.08,62.46,5.76
1554109739422,-2.6910827,-6.5942300000000005,7.368754400000001,0.40906155,-0.07989483,-0.18642128,4.14,62.46,5.4
1554109739441,-2.585738,-6.2925606,7.148487599999999,0.45912898,-0.008522116,-0.23329292,4.2,62.46,5.04
1554109739461,-2.6719291000000003,-5.943007,7.0527196,0.4644553,0.080960095,-0.23648871,4.26,62.4,4.68
1554109739481,-2.7724855,-5.6748567,6.818088,0.38775626,0.15446335,-0.24820662,4.32,62.4,4.38
1554109739501,-2.6910827,-5.856816,6.7845693,0.24927188,0.17789917,-0.28655612,4.38,62.46,4.08
1554109739521,-2.6910827,-5.9477954,6.7893577,0.11824436,0.18855181,-0.3291667,4.32,62.52,3.78
1554109739540,-2.7102362999999996,-6.192004,6.5212069999999995,0.06391586,0.21518342,-0.33981937,4.2,62.58,3.54
1554109739561,-2.705448,-6.4505777,6.7941460000000005,0.068176925,0.24181503,-0.33555830000000003,4.08,62.64,3.24
1554109739581,-2.7820622999999998,-6.287772,6.3488245,0.06178534,0.2727077,-0.3323625,3.96,62.76,3.0
1554109739601,-2.8491,-6.3643866,6.39192,0.011717908999999999,0.29933932,-0.32810146,3.84,62.82,2.88
1554109739620,-2.8155810000000003,-6.4936733,6.2530565000000005,-0.049002163,0.31638354,-0.3153183,3.72,62.88,2.88
1554109739641,-2.7341783,-6.6852098,6.229114,-0.10333065,0.32490566,-0.30786142,3.6,63.0,2.94
1554109739661,-2.7102362999999996,-6.8863225,6.449381,-0.10759171,0.33662358,-0.28975195,3.48,63.06,3.12
1554109739680,-2.6671407000000005,-7.0347633,6.6217630000000005,-0.060720075,0.35153726,-0.25672874,3.42,63.12,3.3
1554109739700,-2.6288335,-6.8863225,6.5212069999999995,0.015978966,0.3685815,-0.18961707,3.3,63.18,3.54
1554109739721,-2.8921957000000003,-6.680421400000001,6.4828997,0.068176925,0.36218992,-0.15659387,3.12,63.24,3.78
1554109739741,-3.371036,-6.2207346,6.569091,0.04474111,0.294013,-0.16618125,2.88,63.3,3.96
1554109739760,-3.193865,-6.249465,6.578667599999999,0.010652645,0.20453078,-0.13102753,2.64,63.36,4.2
1554109739781,-3.2321722999999998,-6.177639,6.612186400000001,0.036218993,0.16298546,-0.083090626,2.34,63.42,4.26
1554109739800,-3.5003227999999997,-6.177639,6.7989345000000005,0.13528858,0.12037488,-0.018109497,2.1,63.48,4.32
1554109739820,-3.4141315999999997,-6.2446766,6.818088,0.22264028,0.08522116,0.047936900000000005,1.86,63.54,4.32
1554109739841,-3.4189199999999995,-6.417059,6.8228765,0.2790993,0.07882957,0.12463594,1.68,63.72,4.32
1554109739861,-3.4763808,-6.603807000000001,7.014412400000001,0.28868666,0.06391586,0.1768339,1.56,63.84,4.32
1554109739881,-3.5003227999999997,-6.824073299999999,7.215525,0.27377295,0.05219796,0.23542345,1.5,63.96,4.32
1554109739901,-3.6631286,-6.881533999999999,7.1580644,0.26738137,0.058589544,0.32384038,1.5,64.14,4.32
1554109739921,-3.7014358,-6.8863225,7.387908,0.27803403,0.08628642,0.41545314,1.56,64.2,4.32
1554109739941,-3.8690300000000004,-6.5942300000000005,7.1915830000000005,0.32384038,0.113983296,0.5028047999999999,1.62,64.32,4.32
1554109739960,-3.9121256,-6.3979053,7.4405804,0.36432046,0.15126756,0.5901565,1.74,64.32,4.2
1554109739980,-4.0222587999999995,-6.2638300000000005,7.483675999999999,0.39627838,0.19600865,0.680704,1.92,64.32,4.02
1554109740000,-4.309563,-6.057929,7.258621000000001,0.3749731,0.25246766,0.7776430000000001,2.22,64.26,3.84
1554109740021,-4.534618,-5.9238534000000005,7.373543,0.26418558,0.30892670000000005,0.8745821,2.52,64.14,3.66
1554109740041,-4.76925,-5.823297,7.3065050000000005,0.17470337,0.35579833,0.9683254000000001,2.82,64.02,3.54
1554109740060,-4.76925,-5.9477954,7.3591776,0.20026971,0.40373522,1.063134,3.18,63.78,3.36
1554109740081,-4.7931919999999995,-5.852027400000001,7.4405804,0.32490566,0.46871635,1.1494204,3.48,63.36,3.24
1554109740101,-4.9895163,-5.5407815000000005,7.153275999999999,0.45060685,0.5400891,1.220793,3.96,62.88,3.12
1554109740121,-5.1571107000000005,-5.172074299999999,7.148487599999999,0.5294364,0.59761333,1.2836437,4.56,62.34,3.06
1554109740140,-5.2241483,-4.6692919999999996,6.7366850000000005,0.58483016,0.6562029,1.3646038,5.16,61.74,3.06
1554109740161,-5.401319,-4.1760864,6.5068417,0.60080916,0.7041398,1.4157364,5.7,60.9,3.06
1554109740181,-5.506664,-4.022857,6.39192,0.572047,0.7275756,1.4157364,6.36,60.0,3.06
1554109740200,-5.6790465999999995,-3.8265328000000003,6.2195373,0.515588,0.7435546,1.3954965,6.96,58.98,3.06
1554109740222,-5.9041014,-3.5679589999999997,5.927445,0.50600064,0.74461985,1.3763216999999999,7.68,57.84,3.06
1554109740240,-6.1818290000000005,-3.4003648999999996,5.798158,0.50387007,0.7350325,1.3486248,8.82,56.04,3.06
1554109740260,-6.0525417,-3.103484,5.6257753,0.51665324,0.7094661,1.2985574,9.54,54.84,3.06
1554109740281,-6.0764837,-2.7539306,5.472546599999999,0.51026165,0.6945524000000001,1.2740563,10.26,53.58,3.06
1554109740300,-6.1243677000000005,-2.8018146,5.333683000000001,0.46765109999999993,0.680704,1.2495551999999999,10.92,52.38,3.12
1554109740321,-6.244078,-2.4953567999999997,5.3624134,0.37603834,0.65194184,1.1835088,11.58,51.18,3.24
1554109740340,-6.3685765,-2.2224178,5.276222,0.30679616,0.60293967,1.1036139999999999,12.24,49.98,3.42
1554109740360,-6.5265937,-1.8249803,5.127781400000001,0.25033715,0.5518069999999999,1.0439591000000001,12.78,48.84,3.6
1554109740380,-6.531382,-1.7435773999999997,5.443816,0.19068234,0.49641323,1.0024139,13.32,47.88,3.78
1554109740401,-6.5457472999999995,-1.4945803999999998,5.37199,0.12250541,0.43569317,0.95234644,13.74,47.04,4.08
1554109740420,-6.555324000000001,-1.2360066,5.525219,0.1107875,0.38882150000000004,0.8863,14.22,46.14,4.32
1554109740441,-6.7612257,-0.9391255999999999,5.568314599999999,0.18642128,0.34940675,0.793622,14.58,45.18,4.56
1554109740461,-6.8186865,-0.9008184000000001,5.391144000000001,0.27164245,0.30679616,0.72651035,14.88,44.1,4.8
1554109740481,-6.895301,-0.7284359,5.333683000000001,0.31105720000000003,0.2790993,0.67324716,15.18,43.02,4.98
1554109740501,-7.1490865,-0.52732295,5.3863554,0.32277513,0.22690132,0.5997439,15.48,41.94,5.16
1554109740521,-7.1969705,-0.29269117,5.4102974,0.26525086,0.16085494,0.5336975,15.78,40.92,5.34
1554109740540,-7.240066000000001,-0.29747957,5.61141,0.1438107,0.09587380000000001,0.46978164,16.08,40.02,5.52
1554109740561,-7.168239999999999,-0.6135142,5.558737799999999,0.020240024,0.060720075,0.42930159999999995,16.26,39.12,5.7
1554109740581,-7.278373200000001,-0.5129577000000001,5.807735,-0.07882957,0.051132694000000006,0.40586576,16.32,38.4,5.88
1554109740600,-7.2065472999999995,-0.39324763,5.951387,-0.13848437,0.023435817999999997,0.350472,16.38,37.86,6.0
1554109740621,-7.177817,-0.43155485,5.8651957999999995,-0.16831179,0.002130529,0.31105720000000003,16.44,37.32,6.18
1554109740641,-7.2113357,-0.46986207,5.7790045999999995,-0.1768339,-0.014913702,0.27377295,16.5,36.96,6.3
1554109740661,-7.326257000000001,-0.29269117,5.879561,-0.16724652,-0.025566347000000003,0.25672874,16.56,36.54,6.36
1554109740681,-7.2927384,-0.24959552,5.9465985,-0.10652645,-0.04474111,0.23968449999999997,16.62,36.18,6.42
1554109740700,-7.3310455999999995,-0.26396075,5.846042,-0.058589544,-0.05539375,0.19920446,16.68,35.82,6.42
1554109740722,-7.441178999999999,-0.38845924,5.927445,-0.02130529,-0.05965481,0.14168017,16.74,35.46,6.36
1554109740741,-7.489063000000001,-0.28311434,5.9705405,0.007456851,-0.058589544,0.09267801,16.86,35.1,6.36
1554109740761,-7.489063000000001,-0.16340427,6.114192500000001,0.015978966,-0.060720075,0.05219796,16.92,34.74,6.36
1554109740781,-7.541735000000001,-0.11552023,5.8651957999999995,-0.0010652645,-0.054328485999999995,0.026631612000000002,16.98,34.32,6.3
1554109740800,-7.690175999999999,-0.350152,5.846042,-0.0053263223,-0.034088463,0.027696876000000002,17.04,33.96,6.24
1554109740822,-7.584830800000001,-0.40761283,5.831677,0.0031957934000000003,-0.023435817999999997,0.034088463,17.1,33.66,6.24
1554109740840,-7.513005000000001,-0.3645172,5.994482499999999,0.017044231,-0.014913702,0.029827405,17.1,33.36,6.18
1554109740861,-7.5082164,-0.26396075,5.788581400000001,0.027696876000000002,0.0,0.024501082,17.16,33.12,6.18
1554109740881,-7.4603324,-0.18255788,5.846042,0.08841695,-0.0063915867,0.011717908999999999,17.22,32.88,6.18
1554109740901,-7.522581599999999,-0.09636662,5.774216,0.13848437,-0.010652645,-0.015978966,17.22,32.64,6.12
1554109740921,-7.61835,-0.048482585999999994,5.668871,0.17257284,-0.013848438000000001,-0.05752428,17.22,32.46,6.12
1554109740941,-7.4699089999999995,-0.010175358,5.573103,0.14168017,-0.013848438000000001,-0.07350325,17.28,32.4,6.12
1554109740960,-7.5082164,0.013766658999999999,5.6736593,0.05965481,0.002130529,-0.094808534,17.28,32.34,6.12
1554109740980,-7.704541000000001,-0.0676362,6.0327897,-0.004261058,0.025566347000000003,-0.11717909,17.28,32.28,6.12
1554109741000,-7.6614455999999995,-0.3645172,5.7263317,0.024501082,-0.0010652645,-0.10333065,17.28,32.22,6.12
1554109741021,-7.565677,-0.54168814,5.6161985,0.10013486,-0.015978966,-0.06924219,17.22,32.22,6.06
1554109741040,-7.680599000000001,-0.16819267,5.6736593,0.099069595,-0.011717908999999999,-0.08841695,17.28,32.16,6.0
1554109741060,-7.61835,-0.11552023,5.817312,0.111852765,-0.05006743,-0.10652645,17.28,32.16,6.0
1554109741080,-7.599196000000001,0.21009120000000003,5.7598505,0.16618125,-0.03195793,-0.112918034,17.28,32.28,6.0
1554109741101,-7.5561004,0.20530279,5.7646394,0.165116,-0.04261058,-0.12357068,17.34,32.4,6.0
1554109741122,-7.565677,0.26276365,5.6736593,0.094808534,-0.022370555,-0.14061491,17.34,32.46,5.94
1554109741140,-7.795521000000001,-0.048482585999999994,5.9465985,-0.112918034,0.004261058,-0.14487597,17.34,32.64,5.94
1554109741160,-7.656657000000001,-0.45549688,5.716755,-0.20559604,0.0010652645,-0.111852765,17.34,32.76,5.94
1554109741181,-7.6710224,-0.25438392,5.9130797,-0.19281286,0.00958738,-0.10226539,17.34,32.88,5.94
1554109741200,-7.522581599999999,-0.40761283,5.8651957999999995,-0.12570119999999999,-0.023435817999999997,-0.12037488,17.28,33.0,6.0
1554109741221,-7.345411,-0.64703304,5.7502737,-0.0031957934000000003,-0.04261058,-0.113983296,17.28,33.06,6.0
1554109741240,-7.3406224,0.04249708,5.8412538,0.11717909,-0.06924219,-0.23222765,17.28,33.06,6.0
1554109741261,-7.4603324,0.21966799999999997,5.5922565,0.111852765,-0.09374327,-0.28655612,17.28,33.06,6.06
1554109741281,-7.345411,-0.17298107,5.4007206,-0.010652645,-0.08735169,-0.18961707,17.22,33.12,6.06
1554109741301,-7.1873937,-0.4890157,5.3863554,-0.1438107,-0.084155895,-0.18961707,17.28,33.24,6.06
1554109741321,-7.134721300000001,-0.31184477,5.568314599999999,-0.21411815,-0.09587380000000001,-0.28442562,17.28,33.54,6.06
1554109741341,-6.8186865,-0.038905777,5.7790045999999995,-0.18322548,-0.13315806,-0.39308259999999995,17.28,33.84,6.06
1554109741360,-6.6510925,-0.19213470000000002,5.6018333,-0.15978967,-0.17896444,-0.46125950000000004,17.34,34.14,6.06
1554109741380,-6.469133,-0.18255788,5.218761,-0.13315806,-0.2609898,-0.572047,17.34,34.44,6.06
1554109741401,-6.167464,-0.048482585999999994,4.912303400000001,-0.1107875,-0.37923414,-0.69029135,17.28,34.74,6.06
1554109741421,-6.133945,-0.13946225,5.309741000000001,-0.15126756,-0.45060685,-0.7222493000000001,17.28,34.98,6.0
1554109741441,-5.985504,-0.7236475,5.774216,-0.2695119,-0.5997439,-0.80533993,17.22,35.34,5.88
1554109741460,-6.229712999999999,-0.88166475,6.0280013,-0.3291667,-0.700944,-0.8990832000000001,17.16,35.7,5.76
1554109741480,-6.1818290000000005,-1.073201,6.1094040000000005,-0.39095205,-0.8341021000000001,-1.0066749,17.1,36.06,5.58
1554109741501,-5.9567738,-1.3796587,6.4110737,-0.43995422,-0.9289106,-1.0823087,16.98,36.6,5.4
1554109741521,-5.602432,-1.9159599999999999,6.818088,-0.44101948,-0.9736517,-1.1472898999999999,16.86,37.2,5.16
1554109741540,-5.4922986,-2.1218612,7.148487599999999,-0.34621096,-0.98430437,-1.216532,16.74,37.92,4.86
1554109741560,-5.5401826,-2.4187422,7.402272999999999,-0.21092236,-0.96939063,-1.2655341999999998,16.56,38.82,4.44
1554109741580,-5.530606,-2.5863364,7.5890207,-0.13741912,-0.95447695,-1.2921658,16.32,39.78,3.96
1554109741601,-5.4922986,-2.6725276,7.474099000000001,-0.11611383,-0.9235843,-1.3102753,16.08,40.92,3.48
1554109741621,-5.401319,-2.5576060000000003,7.378331,-0.15978967,-0.8745821,-1.32945,15.78,42.12,3.06
1554109741641,-5.2863975,-2.878429,7.7039423,-0.19174760000000002,-0.8223841999999999,-1.3464943,15.42,43.32,2.58
1554109741661,-5.0996494000000006,-3.3764230000000004,7.8092875,-0.18961707,-0.7680557,-1.3582121999999999,15.06,44.4,2.16
1554109741680,-4.960786,-3.6876693,8.096592,-0.13209279,-0.69987875,-1.3741912,14.7,45.54,1.74
1554109741700,-5.066130599999999,-3.7163997,7.7039423,-0.060720075,-0.63702816,-1.3773868999999999,14.34,46.74,1.14
1554109741721,-4.9464207,-3.5248635000000004,7.5842323,-0.039414786,-0.5699165,-1.3571468999999998,13.86,47.94,0.72
1554109741741,-4.984728,-3.4674027,7.612962700000001,-0.09054748,-0.49854377,-1.3219931999999999,13.32,49.26,0.3
1554109741761,-4.831499,-4.061165,7.838017999999999,-0.13422333,-0.43995422,-1.3049488999999999,12.66,50.46,-0.06
1554109741781,-4.453215,-4.683657,7.7614035999999995,-0.10226539,-0.38456047,-1.2942963,11.94,51.66,-0.42
1554109741801,-4.462791999999999,-4.860828,7.6321163,-0.004261058,-0.30146983,-1.2655341999999998,11.22,52.8,-0.78
1554109741821,-4.3287168,-4.7985787,7.3974850000000005,0.05539375,-0.22477080000000002,-1.196292,10.2,54.42,-1.26
1554109741840,-4.228160400000001,-4.7985787,7.373543,0.0010652645,-0.16405073,-1.1174624,9.84,54.96,-1.44
1554109741861,-4.1132383,-4.9374423,7.454945599999999,-0.084155895,-0.10865697,-1.0620687,9.06,55.92,-1.56
1554109741881,-4.098873,-5.037999,7.6081743,-0.10546118,-0.06604639400000001,-0.99495703,8.34,56.94,-1.74
1554109741901,-4.036624,-5.373187000000001,7.330447,-0.025566347000000003,-0.040480047000000005,-0.9321064,7.74,57.72,-1.92
1554109741920,-3.8067808,-5.4114943,7.5507135,0.05752428,-0.014913702,-0.87138635,7.32,58.44,-2.1
1554109741941,-3.9073372,-5.310938,7.301717,0.05219796,0.02876214,-0.77231675,6.66,59.46,-2.34
1554109741961,-3.98874,-5.282207499999999,7.4405804,-0.029827405,0.040480047000000005,-0.6785734,6.06,60.12,-2.52
1554109741981,-3.739743,-5.382764,7.5411367,-0.14168017,0.04580637,-0.5816344,5.58,60.78,-2.64
1554109742001,-3.7014358,-5.277419,7.3400240000000005,-0.23648871,0.056459017,-0.49641323,5.1,61.44,-2.76
1554109742022,-3.6727053999999995,-5.239112,7.392696400000001,-0.29188246,0.060720075,-0.41971418,4.5,61.98,-2.82
1554109742040,-3.6679169999999996,-5.253476999999999,7.536348299999999,-0.30679616,0.035153727999999995,-0.35579833,4.02,62.46,-2.88
1554109742060,-3.5721489999999996,-5.205593,7.4405804,-0.27696875,-0.004261058,-0.31957933,3.54,62.94,-2.88
1554109742080,-3.4620156000000004,-5.157709,7.478887599999999,-0.23435818,-0.04474111,-0.2876214,3.12,63.3,-2.82
1554109742100,-3.4380736000000005,-5.0763063,7.402272999999999,-0.19281286,-0.083090626,-0.25246766,2.76,63.66,-2.7
1554109742121,-3.4332852,-5.172074299999999,7.507617999999999,-0.18216023,-0.11717909,-0.21411815,2.58,63.9,-2.52
1554109742141,-3.371036,-5.21517,7.435792,-0.20985709,-0.15978967,-0.16085494,2.4,64.14,-2.28
1554109742160,-3.2896330000000003,-5.2965727,7.478887599999999,-0.23329292,-0.19174760000000002,-0.12144015,2.28,64.32,-2.04
1554109742181,-3.3279405,-5.3205147,7.6369047000000005,-0.24074976,-0.21731395,-0.082025364,2.1,64.44,-1.8
1554109742200,-3.2513257999999996,-5.2343235,7.459734,-0.24074976,-0.23435818,-0.06285059999999999,1.92,64.56,-1.56
1554109742222,-3.1507695,-5.224746700000001,7.29214,-0.23116238,-0.2695119,-0.054328485999999995,1.68,64.62,-1.32
1554109742241,-3.0071173,-5.2965727,7.3831196,-0.23222765,-0.29614353,-0.039414786,1.5,64.62,-1.14
1554109742260,-3.0166939999999998,-5.325303,7.277775,-0.22583607,-0.3057309,-0.024501082,1.32,64.68,-1.02
1554109742281,-2.9975405,-5.3636102999999995,7.3591776,-0.22264028,-0.31851408,-0.015978966,1.2,64.68,-0.9
1554109742300,-2.992752,-5.2726307,7.3400240000000005,-0.27803403,-0.32384038,0.004261058,1.08,64.68,-0.84
1554109742320,-2.9257145,-5.3444567,7.354389,-0.33555830000000003,-0.31957933,0.014913702,1.02,64.68,-0.78
1554109742341,-2.8443117,-5.5168395,7.378331,-0.37284255,-0.31105720000000003,0.025566347000000003,1.02,64.68,-0.78
1554109742361,-2.8443117,-5.6509147,7.665635000000001,-0.35260254,-0.29188246,0.027696876000000002,1.14,64.8,-0.72
1554109742381,-2.8299465,-5.751471,7.713519,-0.29827404,-0.2609898,0.035153727999999995,1.2,64.86,-0.72
1554109742400,-2.7485435000000003,-5.8089319999999995,7.6464815,-0.23222765,-0.21092236,0.046871635999999994,1.26,64.92,-0.66
1554109742421,-2.695871,-5.761048000000001,7.814075999999999,-0.18002969,-0.15446335,0.05006743,1.32,64.98,-0.6
1554109742441,-2.7581203,-5.7323174,7.8475947,-0.16405073,-0.094808534,0.054328485999999995,1.32,65.04,-0.48
1554109742461,-2.7389667,-5.8089319999999995,7.838017999999999,-0.14807177,-0.034088463,0.056459017,1.32,65.16,-0.42
1554109742481,-2.6719291000000003,-6.005256,7.756614999999999,-0.10759171,0.008522116,0.05219796,1.26,65.16,-0.24
1554109742501,-2.825158,-5.861604,7.612962700000001,-0.011717908999999999,0.05752428,0.06604639400000001,1.26,65.22,-0.12
1554109742521,-2.7724855,-5.6844335,7.493252799999999,0.07243799,0.08841695,0.082025364,1.26,65.22,-0.06
1554109742541,-2.767697,-5.7658362,7.3065050000000005,0.12250541,0.10652645,0.08948222,1.26,65.22,0.06
1554109742561,-2.681506,-5.5982423,7.167641000000001,0.15233281,0.112918034,0.09267801,1.32,65.22,0.12
1554109742581,-2.6527755,-5.5503583,7.153275999999999,0.17044231,0.11717909,0.08948222,1.38,65.22,0.18
1554109742601,-2.6671407000000005,-5.535993,7.033566,0.15126756,0.11504856,0.096939065,1.44,65.22,0.18
1554109742620,-2.695871,-5.607819,7.105392,0.12676647,0.10226539,0.09161274,1.5,65.16,0.18
1554109742640,-2.6767175,-5.6461263,7.0048356,0.10226539,0.09054748,0.06924219,1.56,65.1,0.18
1554109742661,-2.6431987,-5.655703,6.9808936,0.08628642,0.07456851,0.05752428,1.62,65.1,0.12
1554109742681,-2.6527755,-5.6604915,6.899491,0.08735169,0.06604639400000001,0.05752428,1.68,65.04,0.12
1554109742701,-2.6862943,-5.497685400000001,6.9521630000000005,0.06604639400000001,0.060720075,0.058589544,1.8,64.98,0.06
1554109742720,-2.753332,-5.4498014,7.043143,0.037284255,0.041545313,0.047936900000000005,1.98,64.86,0.0
1554109742740,-2.7437549999999997,-5.3779755,7.1820064,0.014913702,0.012783173500000002,0.020240024,2.22,64.68,-0.06
1554109742761,-2.8299465,-5.239112,7.138911,0.024501082,0.0,0.0,2.4,64.56,-0.06
1554109742781,-2.8491,-5.1529207,7.091027,0.02876214,-0.0053263223,-0.017044231,2.52,64.44,-0.12
1554109742801,-2.72939,-5.1529207,7.143699000000001,0.010652645,-0.004261058,-0.041545313,2.7,64.32,-0.18
1554109742820,-2.7198130000000003,-5.3540335,7.143699000000001,-0.011717908999999999,-0.0053263223,-0.060720075,2.82,64.14,-0.18
1554109742840,-2.8682537,-5.4258595000000005,7.4645224,-0.008522116,0.020240024,-0.06711166,2.88,64.02,-0.18
1554109742861,-2.858677,-5.468955,7.560290299999999,0.017044231,0.035153727999999995,-0.068176925,2.94,64.02,-0.18
1554109742881,-2.8778305,-5.478532,7.5890207,0.037284255,0.04474111,-0.07243799,2.88,64.02,-0.18
1554109742901,-2.8921957000000003,-5.5407815000000005,7.402272999999999,0.04580637,0.06178534,-0.080960095,2.88,64.02,-0.12
1554109742921,-2.882619,-5.468955,7.373543,0.039414786,0.07563378,-0.07669904,2.82,64.02,-0.06
1554109742940,-2.7820622999999998,-5.4545900000000005,7.4070616,0.04580637,0.08841695,-0.082025364,2.82,64.02,0.0
1554109742960,-2.8682537,-5.4881085999999994,7.3352356,0.049002163,0.10013486,-0.094808534,2.76,64.02,0.06
1554109742980,-2.7724855,-5.325303,7.277775,0.060720075,0.10652645,-0.10652645,2.82,64.02,0.12
1554109743001,-2.6623523,-5.143344,7.1915830000000005,0.06178534,0.11504856,-0.12250541,2.82,64.02,0.18
1554109743021,-2.767697,-5.2008047,7.1580644,0.026631612000000002,0.1107875,-0.14061491,2.76,63.96,0.24
1554109743041,-2.8778305,-5.0906715,7.000047,-0.002130529,0.084155895,-0.18002969,2.76,63.9,0.3
1554109743060,-2.8491,-5.2965727,7.258621000000001,-0.012783173500000002,0.054328485999999995,-0.19920446,2.76,63.84,0.3
1554109743081,-2.9113493,-5.4210709999999995,6.9808936,-0.012783173500000002,0.008522116,-0.22370553,2.76,63.84,0.3
1554109743100,-3.0214825000000003,-5.502473999999999,7.2203135,-0.017044231,-0.03089267,-0.22264028,2.7,63.9,0.3
1554109743120,-3.0502129,-5.5647235,7.268198,-0.00958738,-0.05539375,-0.18322548,2.7,64.02,0.3
1554109743140,-3.0693667000000002,-5.66528,7.325659,0.002130529,-0.07563378,-0.15233281,2.64,64.14,0.24
1554109743161,-3.1172507,-5.6030307,7.268198,0.013848438000000001,-0.07882957,-0.13422333,2.58,64.26,0.24
1554109743181,-3.1028854999999997,-5.5647235,7.08145,0.00958738,-0.07776430000000001,-0.10972224,2.52,64.44,0.24
1554109743200,-3.0550013,-5.6030307,7.000047,0.002130529,-0.07137272,-0.094808534,2.46,64.56,0.24
1554109743220,-3.0693667000000002,-5.4114943,7.091027,-0.015978966,-0.06498113,-0.082025364,2.34,64.68,0.18
1554109743241,-3.1124623,-5.4545900000000005,7.086238400000001,-0.03089267,-0.058589544,-0.06391586,2.22,64.8,0.18
1554109743261,-3.1747115000000004,-5.4593782,7.038354400000001,-0.04474111,-0.06711166,-0.053263225,2.16,64.86,0.12
1554109743281,-3.1076740000000003,-5.4641665999999995,7.0048356,-0.06285059999999999,-0.080960095,-0.054328485999999995,2.04,64.92,0.06
1554109743301,-3.0119057000000002,-5.478532,7.062296400000001,-0.09267801,-0.099069595,-0.027696876000000002,1.92,64.98,0.0
1554109743322,-2.992752,-5.5982423,7.0287776,-0.11504856,-0.11504856,0.0010652645,1.8,64.98,-0.06
1554109743341,-2.9017725,-5.631761,7.014412400000001,-0.13209279,-0.13954964,0.02130529,1.74,64.92,-0.12
1554109743361,-2.8969840000000002,-5.6221843,7.019201,-0.13422333,-0.16298546,0.04261058,1.68,64.92,-0.18
1554109743381,-2.8203697,-5.507262,6.9521630000000005,-0.13848437,-0.19068234,0.05752428,1.68,64.98,-0.24
1554109743401,-2.7341783,-5.5743003,6.8516070000000004,-0.15126756,-0.21624869,0.06178534,1.68,64.98,-0.24
1554109743422,-2.657564,-5.631761,7.0670850000000005,-0.18216023,-0.23968449999999997,0.06498113,1.68,64.98,-0.3
1554109743441,-2.6431987,-5.6844335,7.129334,-0.21837921,-0.25992453,0.06498113,1.8,64.98,-0.24
1554109743461,-2.60968,-5.761048000000001,7.258621000000001,-0.25140239999999997,-0.27590349999999997,0.058589544,1.92,64.98,-0.18
1554109743481,-2.4995465,-5.875969400000001,7.330447,-0.257794,-0.2876214,0.05752428,1.98,64.98,-0.12
1554109743501,-2.5043349999999998,-5.7802014,7.177217999999999,-0.25353295,-0.29933932,0.06498113,2.1,64.98,-0.06
1554109743521,-2.5378537,-5.761048000000001,7.1724296,-0.25885928,-0.3153183,0.06285059999999999,2.1,64.92,0.0
1554109743541,-2.4133554,-5.7323174,7.325659,-0.27483824,-0.34408042,0.05539375,2.16,64.92,0.12
1554109743561,-2.384625,-5.9047,7.426214999999999,-0.27590349999999997,-0.35579833,0.05539375,2.16,64.92,0.12
1554109743581,-2.2984335,-5.957372,7.421427,-0.26631612,-0.350472,0.06178534,2.16,64.92,0.12
1554109743600,-2.336741,-6.1106014,7.483675999999999,-0.21624869,-0.31638354,0.07882957,2.1,64.98,0.18
1554109743621,-2.2649147999999997,-5.952584,7.593808999999999,-0.15339808,-0.26844665,0.09587380000000001,2.1,64.92,0.18
1554109743640,-2.1883004,-5.9717374,7.5650787,-0.08735169,-0.19920446,0.09587380000000001,2.22,64.86,0.18
1554109743662,-2.1643584,-5.895123,7.507617999999999,-0.04474111,-0.13422333,0.08628642,2.28,64.8,0.18
1554109743681,-2.0829554,-6.000468,7.498041000000001,-0.012783173500000002,-0.07456851,0.07882957,2.4,64.74,0.18
1554109743700,-2.1021092,-5.847239,7.435792,0.027696876000000002,-0.020240024,0.060720075,2.64,64.62,0.24
1554109743721,-2.1212628,-5.828085400000001,7.3400240000000005,0.07350325,0.013848438000000001,0.034088463,2.7,64.62,0.24
1554109743741,-2.1164744,-5.9047,7.1915830000000005,0.13209279,0.058589544,0.0,3.06,64.5,0.3
1554109743761,-2.1739352000000003,-5.842450599999999,7.239467599999999,0.18429075,0.082025364,-0.020240024,3.24,64.44,0.3
1554109743780,-2.2218192,-5.8663926,7.301717,0.24181503,0.10333065,-0.023435817999999997,3.36,64.38,0.36
1554109743801,-2.1978772,-5.727529,7.1341224,0.30146983,0.10972224,-0.034088463,3.48,64.38,0.36
1554109743821,-2.3558946,-5.6030307,7.1724296,0.34301516,0.11930962,-0.043675844000000005,3.6,64.26,0.36
1554109743841,-2.3223755,-5.607819,7.1006035999999995,0.36432046,0.11504856,-0.06178534,3.66,64.2,0.36
1554109743861,-2.2649147999999997,-5.5647235,7.249044400000001,0.35260254,0.11504856,-0.07882957,3.72,64.14,0.3
1554109743880,-2.255338,-5.468955,7.129334,0.30253512,0.11504856,-0.099069595,3.72,64.08,0.24
1554109743901,-2.3319526,-5.478532,7.215525,0.22477080000000002,0.11504856,-0.10546118,3.66,64.02,0.12
1554109743921,-2.4085669999999997,-5.6509147,7.253833,0.11504856,0.099069595,-0.12037488,3.66,63.96,-0.06
1554109743940,-2.3511062000000003,-5.6221843,7.454945599999999,0.06178534,0.08735169,-0.12570119999999999,3.6,63.96,-0.18
1554109743960,-2.3894134,-5.6700683,7.378331,0.06711166,0.084155895,-0.11824436,3.6,63.9,-0.36
1554109743981,-2.4133554,-5.4114943,7.478887599999999,0.1107875,0.080960095,-0.112918034,3.6,63.9,-0.54
1554109744001,-2.3175871,-5.4498014,7.531560000000001,0.15339808,0.07989483,-0.111852765,3.54,63.9,-0.72
1554109744021,-2.4756044999999998,-5.3300915,7.344812400000001,0.18109496,0.08628642,-0.12037488,3.42,63.84,-0.96
1554109744041,-2.5378537,-5.3444567,7.4070616,0.18109496,0.101200126,-0.13528858,3.36,63.84,-1.08
1554109744061,-2.5091232999999997,-5.33488,7.507617999999999,0.17150758,0.112918034,-0.15020229,3.3,63.84,-1.26
1554109744081,-2.5713725,-5.2678423,7.5411367,0.14913702,0.13635385,-0.1587244,3.18,63.78,-1.32
1554109744100,-2.5378537,-5.2965727,7.258621000000001,0.12570119999999999,0.15339808,-0.15978967,3.06,63.78,-1.38
1554109744120,-2.6671407000000005,-5.2965727,7.531560000000001,0.10013486,0.16724652,-0.15659387,2.94,63.78,-1.44
1554109744140,-2.6527755,-5.3540335,7.3400240000000005,0.080960095,0.17150758,-0.1587244,2.76,63.78,-1.44
1554109744161,-2.6431987,-5.3779755,7.3065050000000005,0.07243799,0.17470337,-0.15446335,2.64,63.84,-1.44
1554109744181,-2.633622,-5.512050599999999,7.344812400000001,0.06711166,0.17044231,-0.15126756,2.46,63.9,-1.38
1554109744201,-2.6862943,-5.3923407,7.2873516,0.06391586,0.16831179,-0.14594123,2.28,63.96,-1.38
1554109744221,-2.6671407000000005,-5.3683987,7.282563000000001,0.05539375,0.1587244,-0.13528858,2.1,64.08,-1.32
1554109744241,-2.6048915,-5.282207499999999,7.301717,0.040480047000000005,0.14168017,-0.12996227,1.92,64.14,-1.26
1554109744260,-2.6862943,-5.277419,7.124545599999999,0.023435817999999997,0.11930962,-0.13954964,1.8,64.32,-1.26
1554109744280,-2.7102362999999996,-5.263054,6.971317,-0.0031957934000000003,0.08948222,-0.1470065,1.74,64.38,-1.26
1554109744300,-2.7629087,-5.2917843,7.033566,-0.040480047000000005,0.05539375,-0.15978967,1.74,64.5,-1.26
1554109744321,-2.72939,-5.33488,7.091027,-0.060720075,0.02130529,-0.16618125,1.74,64.56,-1.26
1554109744340,-2.767697,-5.4210709999999995,7.1867948,-0.05965481,-0.0031957934000000003,-0.15765914,1.8,64.68,-1.26
1554109744360,-2.6719291000000003,-5.502473999999999,7.282563000000001,-0.054328485999999995,-0.018109497,-0.14061491,1.86,64.68,-1.26
1554109744381,-2.6623523,-5.406706,7.1963716,-0.054328485999999995,-0.027696876000000002,-0.12676647,1.98,64.74,-1.26
1554109744401,-2.7772740000000002,-5.5168395,7.225102000000001,-0.058589544,-0.03195793,-0.10439592,2.04,64.8,-1.26
1554109744420,-2.7485435000000003,-5.559935,7.3831196,-0.07030745599999999,-0.034088463,-0.09161274,2.1,64.8,-1.2
1554109744441,-2.7820622999999998,-5.507262,7.5219830000000005,-0.07350325,-0.03834952,-0.07563378,2.1,64.86,-1.08
1554109744461,-2.8443117,-5.5647235,7.373543,-0.06924219,-0.03195793,-0.051132694000000006,2.1,64.86,-1.02
1554109744481,-2.7198130000000003,-5.478532,7.536348299999999,-0.06178534,-0.02130529,-0.029827405,2.04,64.86,-0.96
1554109744500,-2.7485435000000003,-5.3875523,7.5028296,-0.046871635999999994,-0.017044231,-0.015978966,1.92,64.92,-0.84
1554109744520,-2.6862943,-5.535993,7.5842323,-0.01917476,-0.010652645,-0.010652645,1.86,64.92,-0.84
1554109744541,-2.657564,-5.4210709999999995,7.5411367,0.012783173500000002,0.0063915867,0.014913702,1.68,64.98,-0.84
1554109744560,-2.6623523,-5.5407815000000005,7.6321163,0.025566347000000003,0.00958738,0.020240024,1.62,65.04,-0.84
1554109744581,-2.6431987,-5.4498014,7.74225,0.024501082,0.013848438000000001,0.017044231,1.5,65.04,-0.9
1554109744601,-2.7341783,-5.4881085999999994,7.593808999999999,0.013848438000000001,0.018109497,0.039414786,1.44,65.1,-0.96
1554109744621,-2.6671407000000005,-5.48332,7.603386,-0.004261058,0.018109497,0.06604639400000001,1.44,65.1,-0.96
1554109744642,-2.6001031,-5.579088700000001,7.459734,-0.0010652645,0.020240024,0.094808534,1.38,65.1,-1.02
1554109744660,-2.6623523,-5.6030307,7.7087307,0.018109497,0.01917476,0.11504856,1.38,65.1,-1.02
1554109744681,-2.6527755,-5.512050599999999,7.6369047000000005,0.049002163,0.018109497,0.12783173,1.44,65.1,-0.96
1554109744700,-2.7341783,-5.4210709999999995,7.459734,0.07350325,0.015978966,0.13102753,1.56,65.04,-0.96
1554109744721,-2.6240451,-5.4593782,7.3831196,0.08628642,0.013848438000000001,0.12996227,1.68,65.04,-0.9
1554109744740,-2.7006595,-5.3300915,7.344812400000001,0.099069595,0.008522116,0.113983296,1.8,64.98,-0.9
1554109744760,-2.6527755,-5.263054,7.153275999999999,0.113983296,0.007456851,0.09161274,1.92,64.98,-0.84
1554109744781,-2.7198130000000003,-5.239112,7.2969284,0.10013486,0.007456851,0.06391586,2.04,64.92,-0.84
1554109744800,-2.5953147,-5.2726307,7.325659,0.07030745599999999,0.0010652645,0.033023197000000004,2.16,64.86,-0.84
1554109744821,-2.681506,-5.2917843,7.0527196,0.05006743,-0.00958738,0.004261058,2.28,64.74,-0.84
1554109744841,-2.7437549999999997,-5.263054,7.1820064,0.04261058,-0.013848438000000001,-0.00958738,2.4,64.68,-0.84
1554109744860,-2.7246015,-5.224746700000001,7.1820064,0.040480047000000005,-0.017044231,-0.036218993,2.46,64.62,-0.84
1554109744880,-2.695871,-5.253476999999999,7.1867948,0.022370555,-0.033023197000000004,-0.06285059999999999,2.52,64.56,-0.84
1554109744900,-2.801216,-5.2103815,7.177217999999999,0.0063915867,-0.04474111,-0.07989483,2.52,64.5,-0.84
1554109744921,-2.7868507,-5.2917843,7.177217999999999,-0.0063915867,-0.049002163,-0.080960095,2.58,64.44,-0.84
1554109744941,-2.834735,-5.3540335,7.4884644,-0.015978966,-0.054328485999999995,-0.07350325,2.64,64.38,-0.84
1554109744962,-2.873042,-5.263054,7.349601,-0.015978966,-0.05965481,-0.07243799,2.7,64.38,-0.84
1554109744980,-2.8491,-5.4258595000000005,7.41185,-0.013848438000000001,-0.05539375,-0.054328485999999995,2.7,64.38,-0.9
1554109745000,-2.8060042999999997,-5.4210709999999995,7.507617999999999,-0.008522116,-0.051132694000000006,-0.036218993,2.7,64.44,-0.9
1554109745022,-2.7820622999999998,-5.2917843,7.354389,-0.0031957934000000003,-0.041545313,-0.035153727999999995,2.7,64.44,-0.96
1554109745040,-2.9017725,-5.263054,7.454945599999999,-0.002130529,-0.03089267,-0.026631612000000002,2.64,64.44,-0.96
1554109745060,-2.954445,-5.229535,7.5267715,-0.00958738,-0.018109497,-0.020240024,2.64,64.44,-0.96
1554109745080,-2.8921957000000003,-5.253476999999999,7.5028296,-0.023435817999999997,-0.008522116,-0.018109497,2.64,64.5,-1.02
1554109745100,-2.7820622999999998,-5.349245,7.5746554999999995,-0.01917476,-0.002130529,-0.0053263223,2.58,64.5,-1.02
1554109745121,-2.7389667,-5.3636102999999995,7.478887599999999,-0.007456851,0.010652645,0.0031957934000000003,2.58,64.5,-1.02
1554109745140,-2.791639,-5.3396683,7.478887599999999,0.004261058,0.015978966,0.002130529,2.58,64.56,-1.08
1554109745160,-2.7629087,-5.349245,7.445369,0.002130529,0.01917476,-0.004261058,2.52,64.56,-1.14
1554109745180,-2.7150247000000003,-5.349245,7.41185,-0.0010652645,0.022370555,0.004261058,2.52,64.56,-1.2
1554109745201,-2.7581203,-5.349245,7.378331,0.002130529,0.027696876000000002,0.010652645,2.46,64.56,-1.2
1554109745221,-2.7724855,-5.325303,7.3112936,0.014913702,0.022370555,0.0063915867,2.46,64.56,-1.26
1554109745240,-2.7964275,-5.286996,7.435792,0.015978966,0.0053263223,-0.0010652645,2.46,64.56,-1.26
1554109745260,-2.7868507,-5.282207499999999,7.392696400000001,0.018109497,-0.0010652645,0.0,2.46,64.56,-1.26
1554109745280,-2.7102362999999996,-5.224746700000001,7.354389,0.014913702,0.0010652645,0.00958738,2.46,64.5,-1.32
1554109745300,-2.753332,-5.2917843,7.3352356,0.007456851,-0.002130529,0.0,2.46,64.5,-1.32
1554109745320,-2.705448,-5.325303,7.450157000000001,0.004261058,-0.0063915867,-0.012783173500000002,2.46,64.5,-1.32
1554109745340,-2.7437549999999997,-5.2917843,7.354389,0.004261058,-0.008522116,-0.008522116,2.46,64.44,-1.32
1554109745361,-2.7868507,-5.277419,7.454945599999999,0.0063915867,-0.0063915867,-0.010652645,2.46,64.44,-1.32
1554109745381,-2.7964275,-5.325303,7.41185,0.012783173500000002,0.002130529,-0.014913702,2.52,64.38,-1.38
1554109745401,-2.7724855,-5.2582655,7.426214999999999,0.011717908999999999,0.00958738,-0.015978966,2.58,64.32,-1.38
1554109745420,-2.8155810000000003,-5.229535,7.402272999999999,0.0053263223,0.013848438000000001,-0.01917476,2.7,64.26,-1.44
1554109745440,-2.7868507,-5.157709,7.3065050000000005,-0.013848438000000001,0.022370555,-0.02130529,2.76,64.26,-1.44
1554109745460,-2.8203697,-5.1816510000000005,7.378331,-0.013848438000000001,0.01917476,-0.026631612000000002,2.88,64.26,-1.44
1554109745480,-2.825158,-5.2582655,7.41185,-0.0063915867,0.018109497,-0.037284255,2.88,64.26,-1.44
1554109745500,-2.8491,-5.224746700000001,7.4310035999999995,0.013848438000000001,0.015978966,-0.04474111,3.0,64.2,-1.44
1554109745521,-2.8491,-5.21517,7.5267715,0.011717908999999999,0.013848438000000001,-0.051132694000000006,3.06,64.2,-1.44
1554109745541,-2.753332,-5.1816510000000005,7.445369,0.007456851,0.014913702,-0.053263225,3.06,64.26,-1.38
1554109745560,-2.7629087,-5.2008047,7.445369,0.0063915867,0.015978966,-0.05219796,3.06,64.26,-1.26
1554109745580,-2.825158,-5.1960163,7.426214999999999,0.010652645,0.015978966,-0.05965481,3.0,64.2,-1.14
1554109745600,-2.882619,-5.248688700000001,7.421427,0.004261058,0.017044231,-0.07030745599999999,3.0,64.2,-1.08
1554109745621,-2.9735985,-5.21517,7.617750999999999,-0.002130529,0.022370555,-0.084155895,3.0,64.14,-0.96
1554109745640,-2.8969840000000002,-5.282207499999999,7.5794440000000005,-0.00958738,0.0031957934000000003,-0.08841695,3.06,64.08,-0.96
1554109745661,-2.873042,-5.3971290000000005,7.3831196,0.014913702,0.008522116,-0.07669904,3.12,64.02,-0.96
1554109745681,-2.9879637000000003,-5.248688700000001,7.354389,0.02130529,0.012783173500000002,-0.07563378,3.24,63.96,-0.96
1554109745701,-3.0310593,-5.172074299999999,7.301717,-0.004261058,-0.0010652645,-0.082025364,3.3,63.9,-0.96
1554109745720,-2.9879637000000003,-5.253476999999999,7.354389,-0.02876214,-0.008522116,-0.07563378,3.42,63.9,-1.08
1554109745740,-3.0262709,-5.191228,7.4405804,-0.022370555,-0.01917476,-0.07350325,3.48,63.84,-1.14
1554109745760,-2.9975405,-5.148132299999999,7.4405804,-0.007456851,-0.024501082,-0.06711166,3.48,63.84,-1.2
1554109745780,-3.0166939999999998,-5.2917843,7.498041000000001,-0.002130529,-0.027696876000000002,-0.054328485999999995,3.48,63.84,-1.26
1554109745801,-2.96881,-5.33488,7.3400240000000005,-0.007456851,-0.03195793,-0.036218993,3.42,63.84,-1.26
1554109745821,-2.9831752999999996,-5.2678423,7.4405804,-0.008522116,-0.024501082,-0.02130529,3.3,63.84,-1.2
1554109745841,-2.954445,-5.2343235,7.4884644,0.0,-0.023435817999999997,-0.022370555,3.24,63.9,-1.2
1554109745861,-2.9592332999999997,-5.119402,7.277775,-0.0063915867,-0.025566347000000003,-0.03089267,3.12,63.9,-1.14
1554109745881,-2.873042,-5.21517,7.282563000000001,-0.027696876000000002,-0.029827405,-0.023435817999999997,3.06,63.9,-1.2
1554109745901,-2.8155810000000003,-5.3157263,7.378331,-0.051132694000000006,-0.029827405,-0.013848438000000001,3.0,63.9,-1.2
1554109745920,-2.882619,-5.4498014,7.5267715,-0.043675844000000005,-0.027696876000000002,-0.007456851,3.0,63.9,-1.26
1554109745940,-2.834735,-5.286996,7.354389,-0.02876214,-0.03195793,-0.011717908999999999,2.94,63.96,-1.32
1554109745960,-2.7820622999999998,-5.167286,7.3065050000000005,-0.023435817999999997,-0.033023197000000004,-0.011717908999999999,2.82,63.96,-1.38
1554109745982,-2.8299465,-5.109825,7.344812400000001,-0.039414786,-0.04261058,-0.013848438000000001,2.7,63.96,-1.44
1554109746000,-2.858677,-5.172074299999999,7.349601,-0.060720075,-0.06391586,-0.020240024,2.58,63.96,-1.44
1554109746020,-2.767697,-5.3396683,7.512406299999999,-0.06711166,-0.082025364,-0.017044231,2.46,63.96,-1.38
1554109746041,-2.8443117,-5.401917500000001,7.4645224,-0.05539375,-0.08948222,-0.012783173500000002,2.34,63.96,-1.38
1554109746060,-2.7964275,-5.507262,7.6321163,-0.056459017,-0.07882957,0.013848438000000001,2.28,63.96,-1.32
1554109746080,-2.801216,-5.4498014,7.603386,-0.05006743,-0.053263225,0.043675844000000005,2.34,63.96,-1.26
1554109746101,-2.9113493,-5.3205147,7.5028296,-0.046871635999999994,-0.014913702,0.080960095,2.34,63.96,-1.26
1554109746121,-2.8299465,-5.148132299999999,7.555502000000001,-0.054328485999999995,-0.0031957934000000003,0.08522116,2.4,63.96,-1.2
1554109746140,-3.0693667000000002,-5.0236335,7.478887599999999,-0.058589544,0.010652645,0.07350325,2.58,63.96,-1.2
1554109746160,-3.0885203,-5.0427876,7.555502000000001,-0.03195793,0.0031957934000000003,0.047936900000000005,2.7,63.96,-1.26
1554109746180,-2.930503,-5.325303,7.344812400000001,0.027696876000000002,-0.0063915867,0.018109497,2.82,63.9,-1.26
1554109746201,-2.8443117,-5.3061495,7.4645224,0.08841695,-0.004261058,0.0053263223,3.0,63.9,-1.26
1554109746220,-2.9161377,-5.3444567,7.4645224,0.12144015,0.0031957934000000003,0.0053263223,3.06,63.84,-1.26
1554109746240,-2.873042,-5.507262,7.4310035999999995,0.12250541,0.014913702,0.020240024,3.12,63.78,-1.26
1554109746261,-2.767697,-5.4498014,7.392696400000001,0.11504856,0.03195793,0.039414786,3.18,63.78,-1.26
1554109746281,-2.6431987,-5.382764,7.3400240000000005,0.112918034,0.046871635999999994,0.04261058,3.3,63.72,-1.26
1554109746301,-2.7772740000000002,-5.349245,7.215525,0.11930962,0.05539375,0.039414786,3.42,63.66,-1.26
1554109746320,-2.791639,-5.2199583,7.148487599999999,0.11717909,0.058589544,0.026631612000000002,3.54,63.6,-1.26
1554109746341,-2.7341783,-5.205593,7.225102000000001,0.10333065,0.056459017,0.008522116,3.66,63.54,-1.32
1554109746361,-2.6671407000000005,-5.0236335,6.9665284,0.07456851,0.047936900000000005,-0.011717908999999999,3.78,63.54,-1.38
1554109746380,-2.7341783,-4.9661726999999996,6.933009599999999,0.03834952,0.027696876000000002,-0.04261058,3.9,63.42,-1.44
1554109746400,-2.7006595,-4.9853263,6.937798,0.004261058,0.0053263223,-0.06285059999999999,3.96,63.36,-1.5
1554109746421,-2.825158,-5.0763063,7.378331,-0.029827405,-0.024501082,-0.08628642,4.02,63.3,-1.56
1554109746441,-2.791639,-5.1002483,7.229890299999999,-0.036218993,-0.047936900000000005,-0.10546118,4.08,63.24,-1.62
1554109746460,-2.7868507,-5.1816510000000005,7.3065050000000005,-0.034088463,-0.058589544,-0.113983296,4.14,63.18,-1.68
1554109746481,-2.767697,-5.253476999999999,7.392696400000001,-0.022370555,-0.068176925,-0.10865697,4.2,63.18,-1.74
1554109746501,-2.834735,-5.2008047,7.560290299999999,-0.025566347000000003,-0.07563378,-0.12037488,4.2,63.12,-1.8
1554109746520,-2.767697,-5.119402,7.5411367,-0.036218993,-0.083090626,-0.11717909,4.2,63.12,-1.86
1554109746541,-2.8155810000000003,-5.1816510000000005,7.483675999999999,-0.022370555,-0.08522116,-0.11824436,4.14,63.12,-1.86
1554109746561,-2.72939,-5.157709,7.426214999999999,-0.010652645,-0.07669904,-0.1107875,4.02,63.18,-1.86
1554109746581,-2.8491,-5.172074299999999,7.5267715,-0.0031957934000000003,-0.060720075,-0.10439592,3.96,63.3,-1.86
1554109746601,-2.7581203,-5.119402,7.493252799999999,0.0053263223,-0.046871635999999994,-0.111852765,3.9,63.36,-1.92
1554109746620,-2.7820622999999998,-5.085883,7.426214999999999,-0.008522116,-0.03089267,-0.101200126,3.78,63.42,-1.92
1554109746640,-2.6910827,-5.0810947,7.3974850000000005,-0.039414786,-0.017044231,-0.10013486,3.72,63.48,-1.92
1554109746660,-2.7964275,-5.047576,7.2729864,-0.068176925,-0.00958738,-0.10865697,3.66,63.54,-1.92
1554109746683,-2.825158,-5.133767,7.229890299999999,-0.094808534,-0.012783173500000002,-0.11504856,3.54,63.66,-1.92
1554109746700,-2.7964275,-5.1816510000000005,7.253833,-0.11611383,-0.027696876000000002,-0.12463594,3.54,63.72,-1.92
1554109746722,-2.7629087,-5.229535,7.454945599999999,-0.13848437,-0.049002163,-0.13422333,3.48,63.72,-1.86
1554109746742,-2.858677,-5.349245,7.373543,-0.14594123,-0.068176925,-0.13209279,3.36,63.78,-1.86
1554109746762,-2.8395232999999998,-5.535993,7.3974850000000005,-0.13422333,-0.08628642,-0.13209279,3.24,63.78,-1.86
1554109746782,-2.7964275,-5.5407815000000005,7.450157000000001,-0.11504856,-0.096939065,-0.11930962,3.06,63.78,-1.86
1554109746802,-2.8969840000000002,-5.5982423,7.545925,-0.084155895,-0.098004326,-0.08841695,2.94,63.78,-1.8
1554109746822,-2.801216,-5.6940102999999995,7.675211999999999,-0.05006743,-0.094808534,-0.060720075,2.82,63.84,-1.68
1554109746841,-2.7724855,-5.6604915,7.498041000000001,-0.027696876000000002,-0.080960095,-0.036218993,2.64,63.9,-1.62
1554109746861,-2.6910827,-5.507262,7.4884644,-0.014913702,-0.056459017,-0.011717908999999999,2.52,63.9,-1.56
1554109746880,-2.585738,-5.521628,7.435792,-0.023435817999999997,-0.024501082,0.0031957934000000003,2.4,63.96,-1.44
1554109746900,-2.6623523,-5.48332,7.3112936,-0.023435817999999997,0.00958738,-0.0010652645,2.4,63.96,-1.32
1554109746921,-2.7150247000000003,-5.445012999999999,7.3400240000000005,-0.034088463,0.037284255,-0.004261058,2.46,63.96,-1.26
1554109746941,-2.6192567,-5.4258595000000005,7.392696400000001,-0.05219796,0.06178534,-0.025566347000000003,2.46,64.02,-1.2
1554109746960,-2.6623523,-5.445012999999999,7.4645224,-0.056459017,0.07989483,-0.03089267,2.46,63.96,-1.14
1554109746981,-2.633622,-5.6030307,7.699153999999999,-0.051132694000000006,0.08841695,-0.039414786,2.46,63.96,-1.14
1554109747001,-2.5474305,-5.583876999999999,7.665635000000001,-0.03834952,0.099069595,-0.054328485999999995,2.46,63.96,-1.14
1554109747021,-2.4995465,-5.4354362,7.651269999999999,-0.033023197000000004,0.08948222,-0.07030745599999999,2.52,63.96,-1.14
1554109747041,-2.552219,-5.2965727,7.507617999999999,-0.029827405,0.068176925,-0.09054748,2.52,63.96,-1.14
1554109747060,-2.6240451,-5.157709,7.5842323,-0.0063915867,0.047936900000000005,-0.09267801,2.52,64.02,-1.14
1554109747082,-2.767697,-5.253476999999999,7.804499000000001,0.05965481,0.004261058,-0.08628642,2.52,64.02,-1.14
1554109747102,-2.5905263,-5.4498014,7.699153999999999,0.17044231,-0.036218993,-0.06711166,2.58,64.08,-1.08
1554109747121,-2.4277205000000004,-5.54557,7.531560000000001,0.28016454,-0.05965481,-0.039414786,2.58,64.08,-1.08
1554109747141,-2.2984335,-5.2343235,7.047931,0.33662358,-0.047936900000000005,-0.054328485999999995,2.58,64.14,-1.08
1554109747160,-2.4277205000000004,-4.8560395,6.4110737,0.28229508,-0.020240024,-0.06285059999999999,2.58,64.2,-1.08
1554109747180,-2.7246015,-4.956596,6.415862000000001,0.17470337,-0.01917476,-0.08948222,2.52,64.2,-1.08
1554109747201,-2.9017725,-5.3636102999999995,6.640917,-0.014913702,-0.07350325,-0.15765914,2.52,64.2,-1.14
1554109747221,-2.8969840000000002,-5.6461263,6.640917,-0.111852765,-0.13102753,-0.21624869,2.52,64.2,-1.2
1554109747240,-2.9735985,-5.512050599999999,6.827665,-0.10333065,-0.13954964,-0.20133498,2.52,64.14,-1.32
1554109747261,-3.2609026,-5.3636102999999995,6.693589,-0.10013486,-0.12037488,-0.16831179,2.52,64.14,-1.44
1554109747280,-3.394978,-5.310938,7.000047,-0.16937704,-0.13954964,-0.15978967,2.52,64.14,-1.56
1554109747301,-3.4189199999999995,-5.6748567,7.387908,-0.22796659,-0.14487597,-0.09054748,2.52,64.08,-1.62
1554109747320,-3.2896330000000003,-5.957372,7.6081743,-0.18216023,-0.13102753,-0.01917476,2.52,64.08,-1.74
1554109747340,-3.0454244999999998,-6.0866594,8.158841,-0.08735169,-0.10759171,0.040480047000000005,2.52,64.08,-1.74
1554109747360,-2.7485435000000003,-6.072294,8.019978,0.025566347000000003,-0.036218993,0.1470065,2.52,64.14,-1.74
1554109747380,-2.4899697,-5.966949,7.8571715,0.10865697,0.084155895,0.30040458,2.52,64.14,-1.68
1554109747400,-2.3223755,-5.512050599999999,7.74225,0.10865697,0.17363810000000002,0.38775626,2.52,64.2,-1.62
1554109747421,-2.2505496,-4.994903,7.344812400000001,0.036218993,0.22796659,0.39201729999999996,2.52,64.26,-1.5
1554109747441,-2.1643584,-4.817732299999999,7.033566,-0.08522116,0.23009712,0.35153726,2.58,64.32,-1.44
1554109747460,-2.0254946,-4.7842135,6.985682000000001,-0.23329292,0.19068234,0.25885928,2.64,64.38,-1.38
1554109747480,-2.1547816,-4.7698483,6.96174,-0.34301516,0.13102753,0.16831179,2.7,64.38,-1.38
1554109747500,-2.2313959999999997,-5.0523643,7.1006035999999995,-0.45167214,0.06391586,0.09267801,2.82,64.38,-1.32
1554109747521,-2.2984335,-5.5264163,7.143699000000001,-0.48363006,-0.0010652645,0.002130529,2.94,64.32,-1.32
1554109747540,-2.5187001,-5.823297,7.483675999999999,-0.36751625,-0.05539375,-0.06604639400000001,3.06,64.2,-1.32
1554109747560,-2.7246015,-6.010045,7.5842323,-0.14061491,-0.10652645,-0.094808534,3.12,64.02,-1.32
1554109747580,-2.8538885,-5.93343,7.536348299999999,0.10546118,-0.15126756,-0.12570119999999999,3.24,63.84,-1.32
1554109747600,-3.0885203,-5.7466826,7.378331,0.23222765,-0.16724652,-0.12144015,3.3,63.72,-1.32
1554109747621,-3.3662476999999997,-5.607819,7.3974850000000005,0.19600865,-0.16192019,-0.07669904,3.36,63.54,-1.26
1554109747641,-3.4093432,-5.54557,7.392696400000001,0.07243799,-0.14594123,-0.015978966,3.36,63.42,-1.2
1554109747660,-3.5913025999999997,-5.875969400000001,7.459734,-0.035153727999999995,-0.112918034,0.04261058,3.36,63.3,-1.08
1554109747681,-3.7253778,-5.9047,7.5794440000000005,-0.06391586,-0.07776430000000001,0.096939065,3.36,63.24,-0.96
1554109747701,-3.6966474000000002,-5.8663926,7.7039423,-0.03834952,-0.051132694000000006,0.165116,3.42,63.24,-0.9
1554109747720,-3.6870705999999998,-5.981314,7.8715367,0.025566347000000003,-0.039414786,0.23542345,3.42,63.24,-0.84
1554109747741,-3.5865142,-6.072294,7.7374616,0.15659387,-0.018109497,0.30999196,3.48,63.24,-0.78
1554109747760,-3.4332852,-6.0291986,7.7039423,0.30892670000000005,0.0053263223,0.41225734,3.6,63.12,-0.72
1554109747780,-3.4141315999999997,-5.8328739999999994,7.6369047000000005,0.36218992,0.027696876000000002,0.48363006,3.9,62.94,-0.66
1554109747801,-3.2130187,-5.7418942,7.665635000000001,0.34940675,0.054328485999999995,0.56459016,4.2,62.82,-0.72
1554109747820,-3.1747115000000004,-5.607819,7.6321163,0.33768883,0.07882957,0.60933125,4.32,62.76,-0.72
1554109747840,-3.122039,-5.3396683,7.651269999999999,0.30999196,0.10652645,0.65513766,4.74,62.46,-0.84
1554109747861,-3.122039,-5.00448,7.474099000000001,0.28016454,0.13315806,0.6764429,5.04,62.22,-0.9
1554109747881,-3.1603463,-4.894346700000001,7.3208704,0.24394555,0.1587244,0.67218184,5.28,61.98,-1.02
1554109747901,-3.3087866000000004,-4.7937902999999995,7.368754400000001,0.18961707,0.19068234,0.67963874,5.52,61.68,-1.08
1554109747921,-3.3901896000000002,-4.779425,7.454945599999999,0.13635385,0.21092236,0.67005134,5.88,61.32,-1.2
1554109747941,-3.5051112,-4.7937902999999995,7.41185,0.11611383,0.22050974,0.6487460999999999,6.0,60.9,-1.32
1554109747961,-3.6248214,-4.583101,7.3591776,0.12783173,0.22796659,0.65194184,6.24,60.36,-1.38
1554109747981,-3.6343982000000006,-4.6261964,7.426214999999999,0.1587244,0.24394555,0.6583334,6.54,59.76,-1.38
1554109748000,-3.5721489999999996,-4.429871599999999,7.3400240000000005,0.17257284,0.25353295,0.64555025,6.96,59.16,-1.32
1554109748021,-3.7205894,-4.353257,7.474099000000001,0.16298546,0.25672874,0.61678815,7.44,58.5,-1.32
1554109748040,-3.9073372,-4.228758999999999,7.641692999999999,0.14594123,0.26738137,0.6018744,7.92,57.84,-1.26
1554109748060,-3.9360676,-4.0994720000000004,7.5507135,0.14594123,0.27696875,0.5944176,8.34,57.24,-1.2
1554109748080,-4.060566000000001,-4.147355999999999,7.483675999999999,0.15233281,0.28016454,0.5656554,8.7,56.76,-1.14
1554109748101,-4.223372,-3.9797617999999995,7.282563000000001,0.1587244,0.28229508,0.5411543000000001,9.0,56.28,-1.08
