TimeStamp,Ax,Ay,Az,Gx,Gy,Gz,Mx,My,Mz
1554104579212,-6.780379300000001,-4.4059295999999994,1.809418,-0.67005134,-0.35260254,-0.5305017,7.02,68.22,14.28
1554104579232,-7.5082164,-4.5687356,1.158195,-0.85966843,-0.32277513,-0.49215218,7.08,68.28,14.58
1554104579252,-7.905653999999999,-4.827309,0.11432313,-1.1664646,-0.3653857,-0.42290998,7.08,68.28,15.06
1554104579271,-8.030152000000001,-4.970961,-0.26396075,-1.6692694,-0.5411543000000001,-0.45593318,6.96,68.28,15.66
1554104579292,-7.584830800000001,-5.0571527000000005,-0.15861586,-2.3158847999999996,-0.7318366999999999,-0.55606806,6.78,68.22,16.38
1554104579313,-7.6710224,-5.512050599999999,1.0528502,-2.847452,-0.8948221,-0.6508765999999999,6.6,68.1,17.4
1554104579333,-7.996633500000001,-6.0483522,3.0400376000000002,-3.0679617,-0.99495703,-0.7233145999999999,6.36,67.98,18.48
1554104579351,-8.221688,-6.9246297000000006,4.433463,-2.8016455000000002,-1.0684601999999999,-0.7414241,6.12,67.8,19.74
1554104579372,-7.8865004,-7.973290400000001,3.9881415000000002,-2.1571605,-1.0482203,-0.62104917,5.82,67.5,21.12
1554104579391,-7.896077,-8.959702,3.7152026,-1.5190671999999998,-0.93423694,-0.49215218,5.52,66.96,22.68
1554104579412,-7.675811,-9.11293,3.3512837999999996,-1.1163971000000001,-0.9139969000000001,-0.46339005,5.1,66.24,24.18
1554104579433,-7.417236999999999,-9.314043,2.3361422999999997,-0.9353021999999999,-0.83942837,-0.30786142,4.8,65.4,25.8
1554104579451,-7.383717999999999,-8.930971000000001,1.3210008,-0.9853696,-0.76272935,-0.10652645,4.5,64.56,27.3
1554104579472,-7.7428484,-8.45213,1.1534066,-1.2048141,-0.82344943,0.060720075,4.26,63.78,29.16
1554104579493,-7.1155677,-8.39467,1.5125369,-1.5126754999999998,-1.0045444,0.18855181,4.08,63.0,29.76
1554104579511,-6.593631299999999,-9.409811,1.7040731,-1.4913702,-0.9981528000000001,0.36645097,3.9,61.98,31.08
1554104579531,-6.617573299999999,-9.385869,1.7663223000000001,-1.2367721,-0.9086706,0.48043427,3.84,61.68,31.56
1554104579551,-6.770802499999999,-9.012374000000001,1.7040731,-0.8426242,-0.80533993,0.6317018,3.9,61.08,32.34
1554104579572,-6.540959,-8.409035000000001,1.3257892,-0.63702816,-0.7318366999999999,0.80107886,4.32,60.48,33.36
1554104579594,-6.612785000000001,-8.030750999999999,1.4407108999999998,-0.6317018,-0.6593986999999999,0.8948221,4.8,60.18,33.96
1554104579612,-6.6893997,-7.839214999999999,1.8908207,-0.6199839,-0.5997439,0.96939063,5.28,59.7,34.56
1554104579632,-6.6510925,-7.5471225,1.7758990000000001,-0.5454154,-0.5795039000000001,1.0258497,5.88,59.22,35.22
1554104579651,-6.6750345,-6.9581485,2.0009542000000002,-0.4016047,-0.5251754,1.0460896000000002,6.54,58.74,35.76
1554104579673,-6.4787097000000005,-6.330868,2.355296,-0.10226539,-0.47936899999999993,1.0290455,7.32,58.14,36.24
1554104579692,-6.2392898,-5.54557,2.4462755,0.12463594,-0.43249738,0.9331716999999998,8.28,57.6,36.54
1554104579711,-6.5984197,-5.037999,2.0296845,0.2545982,-0.34408042,0.80747044,9.12,57.12,36.78
1554104579732,-6.8569937,-4.908712,1.407192,0.12783173,-0.26205507,0.69348717,9.84,56.76,36.96
1554104579753,-7.0006455999999995,-4.7123876,1.1725603,-0.07350325,-0.25672874,0.535828,10.44,56.4,37.14
1554104579771,-7.192182000000001,-4.956596,1.1007341999999998,-0.30466563,-0.257794,0.4261058,10.98,56.22,37.26
1554104579792,-7.1969705,-5.282207499999999,1.4598645000000001,-0.49108690000000005,-0.25246766,0.31638354,11.58,55.98,37.38
1554104579812,-7.4363904000000005,-5.4402246,1.1725603,-0.6668556,-0.19600865,0.25992453,12.24,55.86,37.5
1554104579833,-7.752425,-5.909488,1.5412674,-0.5858955,-0.14594123,0.28868666,12.78,55.8,37.56
1554104579851,-7.5608889999999995,-6.359598,1.6897078999999997,-0.39414784,-0.17257284,0.29614353,13.14,55.74,37.62
1554104579872,-7.254431200000001,-6.2446766,1.6849195,-0.02876214,-0.099069595,0.3323625,13.5,55.56,37.62
1554104579892,-7.656657000000001,-5.66528,1.5364790000000002,0.17257284,-0.01917476,0.3536678,13.8,55.38,37.62
1554104579911,-7.723694999999999,-5.248688700000001,1.3736732,0.19600865,-0.022370555,0.34301516,14.16,55.14,37.68
1554104579933,-7.642291999999999,-4.8895583,1.584363,0.084155895,-0.037284255,0.28549087,14.46,54.9,37.74
1554104579951,-7.7572136,-4.9374423,1.5412674,0.040480047000000005,-0.05006743,0.19813919,14.7,54.6,37.74
1554104579972,-7.5608889999999995,-4.860828,1.8860323,0.060720075,-0.04474111,0.1438107,14.76,54.3,37.8
1554104579991,-7.704541000000001,-4.7602715,1.3976152,0.094808534,-0.022370555,0.06711166,14.82,54.0,37.8
1554104580017,-7.943961,-4.664503599999999,1.4694413,-0.096939065,0.017044231,0.022370555,14.94,53.7,37.86
1554104580032,-8.0445175,-5.1768627,1.6418238,-0.16618125,-0.022370555,-0.035153727999999995,15.06,53.64,37.92
1554104580051,-7.991845,-5.6461263,1.7567455,-0.11717909,-0.05539375,-0.043675844000000005,15.24,53.58,37.92
1554104580071,-7.9583262999999995,-5.5647235,1.8237831999999998,0.046871635999999994,-0.015978966,-0.02876214,15.48,53.46,37.92
1554104580091,-8.058883,-5.3300915,1.5747862,0.19281286,-0.0063915867,-0.03834952,15.66,53.46,37.98
1554104580111,-8.121132000000001,-5.349245,1.3210008,0.22903186,-0.015978966,-0.014913702,15.84,53.34,37.98
1554104580132,-8.006210000000001,-5.239112,1.3257892,0.17896444,-0.022370555,0.02876214,15.96,53.28,38.04
1554104580151,-8.073248,-5.109825,1.2348095,0.09054748,-0.01917476,0.07882957,16.02,53.16,38.04
1554104580172,-7.881711999999999,-5.0523643,1.4263457,-0.014913702,-0.05752428,0.08522116,16.02,53.04,37.98
1554104580191,-7.5369470000000005,-4.6501384,1.9818004,-0.05219796,-0.08735169,0.037284255,16.02,52.98,37.98
1554104580211,-7.7189064,-4.214393599999999,1.6274586000000002,0.06498113,-0.02876214,-0.036218993,15.9,52.92,37.98
1554104580231,-8.020576,-4.664503599999999,1.6657659,-0.13741912,0.01917476,0.002130529,15.78,52.8,37.98
1554104580251,-8.169016000000001,-5.4881085999999994,1.1534066,-0.2034655,-0.04580637,-0.03834952,15.72,52.74,37.92
1554104580271,-8.063671000000001,-4.779425,1.9482816000000003,-0.12250541,-0.010652645,-0.09161274,15.66,52.74,37.92
1554104580291,-7.5800424,-4.180875,2.0201077,-0.09161274,0.07563378,-0.058589544,15.6,52.74,37.86
1554104580312,-8.034941,-4.109049,1.7184383,-0.056459017,0.12250541,-0.17257284,15.66,52.8,37.86
1554104580332,-7.4699089999999995,-4.147355999999999,1.4790181,-0.22477080000000002,0.13528858,-0.20879184,15.72,52.8,37.86
1554104580352,-7.393294999999999,-4.089895200000001,1.158195,-0.4165184,0.17576863,-0.36645097,15.78,52.86,37.86
1554104580372,-7.1586633,-3.8265328000000003,1.4407108999999998,-0.5773733,0.21198763,-0.46125950000000004,15.84,52.92,37.86
1554104580392,-6.655881,-3.5583823,1.4024036,-0.6444850000000001,0.26312032,-0.68816084,15.84,52.92,37.98
1554104580412,-6.143522,-3.4338839999999995,0.5165489999999999,-0.61891866,0.2908172,-0.93423694,15.9,52.98,38.16
1554104580431,-5.3725886,-3.2471360000000002,0.29628247,-0.7957525,0.28868666,-1.1952267,15.84,52.98,38.34
1554104580451,-5.070919,-3.208829,0.09516951400000001,-0.9960223,0.2428803,-1.530785,15.72,53.04,38.58
1554104580472,-4.817133999999999,-3.208829,-0.22565351,-1.1899004,0.19068234,-1.804558,15.48,53.04,38.82
1554104580494,-4.596867,-3.7307648999999996,-1.7483658,-1.4498249,0.22370553,-2.05383,15.06,52.98,39.06
1554104580511,-4.4244847,-4.420294999999999,-3.1705215,-1.9920446,0.19707392,-2.223207,14.46,52.74,39.42
1554104580532,-4.098873,-5.253476999999999,-4.305373,-2.8921930000000002,0.25353295,-2.3989756,13.74,52.14,39.9
1554104580551,-4.175488,-6.0531406,-5.4210709999999995,-3.9244342000000003,0.39201729999999996,-2.6237464,12.84,51.18,40.44
1554104580572,-4.5681367,-8.021174,-6.005256,-4.8821069999999995,0.5571333,-2.6738138,11.76,49.74,40.98
1554104580592,-4.8362875,-9.831191,-6.642114,-5.6810555,0.79894835,-2.5023062,10.62,47.7,41.58
1554104580611,-4.76925,-11.291654,-7.3460092999999995,-6.2104917,1.1153319,-2.1252027,9.54,44.76,42.3
1554104580632,-4.7357309999999995,-11.727399,-7.599794999999999,-6.3138223,1.2612731000000001,-1.8738002,8.34,41.04,43.14
1554104580651,-6.2057709999999995,-11.626842,-7.16405,-5.7865167,1.2879047,-1.7022926,7.2,36.48,43.92
1554104580672,-5.645528,-11.387422,-6.4745197,-4.7201867,1.1057445,-1.3166668,6.06,31.2,44.7
1554104580691,-5.521029,-10.975619,-6.4505777,-3.3044502999999996,0.80533993,-1.0876350000000001,4.86,25.62,45.3
1554104580712,-5.506664,-9.936536,-6.9820905,-1.438107,0.37071204,-0.9257148000000001,3.9,19.86,45.66
1554104580732,-4.8602295,-9.668385,-8.045116,-0.19281286,0.09374327,-0.74461985,3.12,14.22,45.9
1554104580751,-4.855441000000001,-9.395446000000002,-8.389880999999999,0.386691,-0.07563378,-0.64768076,2.46,9.12,45.96
1554104580772,-4.261679,-8.581417,-8.57184,0.6956177,-0.30253512,-0.5209143,1.8,4.8,45.78
1554104580791,-4.232949,-7.9301944,-7.85358,0.66152924,-0.43249738,-0.46339005,1.26,1.38,45.48
1554104580812,-3.8546648,-7.6333137,-6.5990186,0.73609775,-0.5965481,-0.3685815,0.84,-1.08,45.18
1554104580832,-3.0358477,-8.260594000000001,-4.8656163,1.2197278,-0.67005134,-0.34088463,0.6,-2.64,44.88
1554104580852,-3.193865,-8.978855000000001,-4.089895200000001,2.058091,-0.660464,-0.37710363,0.54,-3.3,44.58
1554104580871,-3.0693667000000002,-9.711481,-3.5296519,3.7444046,-0.5603291,-0.24714136,0.66,-2.94,44.34
1554104580894,-2.681506,-10.525509,-2.9837740000000004,5.0088735,-0.42397526,-0.18535602,0.84,-1.68,44.28
1554104580912,-2.3558946,-12.17272,-1.5089456,6.501309,-0.31638354,-0.32384038,1.08,0.3,44.46
1554104580932,-2.2936451,-14.159907,-1.3605051000000001,8.274974,0.040480047000000005,-0.3334278,1.38,3.18,44.82
1554104580951,-2.4133554,-14.504672,-2.0691888,9.738647,0.33449304,0.113983296,1.62,7.14,45.06
1554104580972,-2.2649147999999997,-13.235745000000001,-2.9646204,9.735452,0.35579833,0.2695119,1.86,12.42,45.06
1554104580991,-2.5474305,-10.870275,-1.1833341999999998,9.022789999999999,0.4889564,-0.053263225,2.16,18.48,44.7
1554104581012,-3.4428620000000003,-9.433753,-0.17776948,8.348477,0.6040049,-0.19068234,2.4,25.2,43.86
1554104581032,-3.7301662,-7.6764092,0.52133745,7.6145105,0.70840085,-0.054328485999999995,2.52,32.22,42.42
1554104581052,-3.7684733999999995,-5.2965727,0.5069722,6.5130267,0.4878911,0.0031957934000000003,2.64,39.12,40.26
1554104581071,-3.7828386,-2.0883423999999997,1.0049661,4.463458,0.07030745599999999,-0.128897,2.64,45.66,37.44
1554104581091,-3.3997664,-1.1402385,2.498948,2.0314593,-0.05752428,-0.23542345,2.64,51.48,34.02
1554104581112,-3.0933087,-3.7355532999999994,4.6441526,0.20772657,0.007456851,-0.26631612,2.64,56.22,30.36
1554104581131,-3.265691,-6.8863225,7.0670850000000005,-0.43782368,0.13102753,-0.25140239999999997,2.7,59.64,27.0
1554104581151,-3.4763808,-7.839214999999999,7.675211999999999,0.14807177,0.00958738,-0.21518342,2.76,62.28,23.88
1554104581171,-3.3135752999999997,-6.3883285999999995,7.1915830000000005,0.8181231,-0.101200126,-0.18109496,2.7,63.96,21.24
1554104581192,-3.3183637000000004,-4.9135003,6.1381345000000005,0.7094661,-0.14168017,-0.19174760000000002,2.58,65.28,18.42
1554104581212,-3.3566709,-5.047576,6.502053299999999,0.15659387,-0.094808534,-0.15126756,2.52,65.7,17.28
1554104581231,-3.4620156000000004,-5.8089319999999995,7.071872999999999,-0.056459017,-0.08735169,-0.08948222,2.46,65.82,16.86
1554104581251,-3.371036,-6.3643866,7.378331,-0.018109497,-0.12250541,-0.041545313,2.4,66.0,16.5
1554104581272,-3.3854012000000004,-6.14412,7.531560000000001,0.22583607,-0.15659387,-0.04474111,2.28,66.18,16.32
1554104581291,-3.2609026,-5.612607499999999,7.402272999999999,0.25885928,-0.16618125,-0.040480047000000005,2.28,66.3,16.26
1554104581312,-3.1172507,-5.1624975,7.023989,0.058589544,-0.12463594,-0.02130529,2.22,66.36,16.2
1554104581331,-3.3327288999999998,-5.0810947,6.727108,-0.17150758,-0.08522116,-0.033023197000000004,2.22,66.42,16.08
1554104581352,-3.2513257999999996,-5.325303,6.8372416,-0.37603834,-0.060720075,0.0,2.22,66.48,15.96
1554104581372,-3.1364042999999997,-5.6365495,6.8132997,-0.44954160000000004,-0.054328485999999995,0.023435817999999997,2.22,66.48,15.78
1554104581392,-3.0597897,-5.9717374,7.368754400000001,-0.42717105,-0.043675844000000005,0.002130529,2.16,66.48,15.66
1554104581411,-2.9352913,-6.0244102,7.0766615999999996,-0.33129725,-0.04261058,-0.023435817999999997,2.16,66.42,15.48
1554104581432,-3.1268275,-5.9047,6.971317,-0.24501082,-0.015978966,-0.02876214,2.16,66.42,15.3
1554104581452,-3.1076740000000003,-5.861604,6.727108,-0.23009712,-0.033023197000000004,-0.025566347000000003,2.16,66.36,15.24
1554104581471,-2.9640217,-5.919065,6.7941460000000005,-0.25885928,-0.01917476,-0.0053263223,2.16,66.36,15.24
1554104581491,-3.1555579,-6.0483522,6.909067599999999,-0.1587244,-0.046871635999999994,-0.029827405,2.16,66.36,15.36
1554104581512,-3.0262709,-5.9621606,6.870760400000001,-0.096939065,-0.05965481,-0.004261058,2.16,66.36,15.6
1554104581532,-3.1268275,-5.895123,6.616975,-0.12037488,-0.080960095,-0.0031957934000000003,2.16,66.42,15.84
1554104581552,-3.2465374,-5.7083755,6.655282000000001,-0.26631612,-0.10013486,-0.02130529,2.16,66.48,16.2
1554104581572,-3.1507695,-6.1632739999999995,6.885125599999999,-0.39734364,-0.11717909,-0.015978966,2.22,66.48,16.56
1554104581592,-3.0358477,-6.737882000000001,7.2873516,-0.28549087,-0.11717909,-0.025566347000000003,2.22,66.54,16.92
1554104581611,-3.1028854999999997,-6.666056,7.138911,-0.027696876000000002,-0.10333065,-0.025566347000000003,2.22,66.54,17.22
1554104581632,-3.064578,-6.297349,6.4876879999999995,0.14913702,-0.10546118,-0.004261058,2.22,66.54,17.46
1554104581651,-3.0789435000000003,-6.0387754000000005,6.5259953,0.082025364,-0.1107875,0.02876214,2.22,66.54,17.64
1554104581671,-3.1316159,-6.0291986,6.669647,-0.05752428,-0.098004326,0.034088463,2.22,66.54,17.82
1554104581691,-3.1603463,-6.158485400000001,6.645705,-0.10333065,-0.082025364,0.046871635999999994,2.22,66.48,17.94
1554104581711,-3.0597897,-5.976526,6.559514,-0.058589544,-0.07243799,0.05965481,2.22,66.48,18.0
1554104581732,-3.2321722999999998,-5.9238534000000005,6.7941460000000005,0.01917476,-0.06391586,0.029827405,2.22,66.42,18.0
1554104581752,-3.0023289,-5.7802014,6.7845693,0.098004326,-0.068176925,0.024501082,2.22,66.42,18.06
1554104581772,-2.9592332999999997,-5.761048000000001,6.7606273,0.099069595,-0.037284255,0.013848438000000001,2.22,66.42,18.12
1554104581792,-2.944868,-5.7323174,6.8611835999999995,0.04580637,-0.00958738,-0.029827405,2.22,66.42,18.12
1554104581812,-3.0310593,-5.8663926,6.746262,0.04474111,-0.014913702,-0.025566347000000003,2.22,66.42,18.06
1554104581832,-3.0693667000000002,-5.5982423,6.717531,-0.011717908999999999,-0.020240024,-0.041545313,2.28,66.42,17.94
1554104581851,-3.083732,-5.8089319999999995,6.755839,-0.083090626,-0.020240024,-0.04474111,2.28,66.42,17.88
1554104581871,-2.9592332999999997,-6.081871,6.9904703999999995,-0.14487597,-0.012783173500000002,-0.068176925,2.34,66.42,17.82
1554104581892,-2.906561,-6.359598,7.177217999999999,-0.07776430000000001,0.017044231,-0.080960095,2.4,66.42,17.76
1554104581912,-3.0166939999999998,-6.2207346,6.865972,0.03834952,0.013848438000000001,-0.07989483,2.46,66.36,17.7
1554104581931,-2.9496564999999997,-6.0244102,6.755839,0.053263225,0.02130529,-0.046871635999999994,2.52,66.36,17.58
1554104581951,-2.944868,-5.966949,6.5307837,-0.0063915867,0.023435817999999997,-0.04261058,2.58,66.36,17.58
1554104581972,-2.8778305,-6.010045,6.554725599999999,-0.05539375,0.037284255,-0.03834952,2.64,66.36,17.58
1554104581991,-3.0071173,-5.8663926,6.4206505,-0.08948222,0.025566347000000003,-0.036218993,2.64,66.42,17.64
1554104582012,-2.9161377,-5.7945666,6.4781113,-0.12783173,0.025566347000000003,-0.047936900000000005,2.7,66.42,17.64
1554104582032,-3.0358477,-5.880758,6.554725599999999,-0.11717909,0.022370555,-0.05539375,2.7,66.48,17.7
1554104582052,-2.96881,-5.9238534000000005,6.5738792,-0.11504856,0.007456851,-0.04474111,2.64,66.48,17.7
1554104582072,-3.0597897,-5.895123,6.3823433,-0.16298546,0.007456851,-0.05219796,2.64,66.48,17.7
1554104582091,-3.083732,-5.7945666,6.229114,-0.22050974,0.0031957934000000003,-0.07350325,2.64,66.48,17.76
1554104582111,-3.1842883,-5.909488,6.27221,-0.29827404,-0.00958738,-0.07989483,2.64,66.54,17.82
1554104582132,-3.3423057000000003,-6.206369400000001,6.5307837,-0.38882150000000004,-0.010652645,-0.09587380000000001,2.64,66.54,17.94
1554104582152,-3.3375172999999996,-6.4505777,6.865972,-0.3270362,-0.0053263223,-0.10226539,2.76,66.54,18.06
1554104582172,-3.2273839,-6.689997999999999,6.6217630000000005,-0.21518342,-0.010652645,-0.10226539,2.76,66.48,18.18
1554104582192,-3.1651347000000003,-6.589442,6.5307837,-0.16192019,-0.024501082,-0.10333065,2.82,66.54,18.3
1554104582211,-3.1794999,-6.699575,6.3392477,-0.16085494,-0.039414786,-0.10439592,2.88,66.54,18.48
1554104582231,-3.0693667000000002,-6.666056,6.645705,-0.18216023,-0.083090626,-0.08841695,2.94,66.48,18.6
1554104582252,-2.767697,-6.819285000000001,6.4685345000000005,-0.20240025,-0.09054748,-0.039414786,3.0,66.48,18.78
1554104582272,-2.7868507,-6.689997999999999,6.6792240000000005,-0.23542345,-0.1107875,-0.049002163,3.06,66.42,18.96
1554104582291,-2.8969840000000002,-6.632537400000001,6.717531,-0.19813919,-0.10972224,-0.05965481,3.06,66.3,19.14
1554104582311,-2.882619,-6.488885,6.5738792,-0.13741912,-0.11611383,-0.08522116,3.0,66.24,19.32
1554104582332,-2.96881,-6.5607114,6.545148999999999,-0.113983296,-0.111852765,-0.101200126,2.94,66.24,19.44
1554104582352,-2.9640217,-6.531981,6.4110737,-0.14168017,-0.11504856,-0.101200126,2.88,66.18,19.62
1554104582372,-2.96881,-6.522404,6.458957700000001,-0.1470065,-0.10546118,-0.09374327,2.82,66.12,19.86
1554104582392,-3.0358477,-6.5607114,6.2099605,-0.12996227,-0.113983296,-0.05539375,2.7,66.06,20.04
1554104582412,-2.9352913,-6.508039,6.2099605,-0.13528858,-0.07989483,-0.00958738,2.58,66.06,20.28
1554104582431,-2.9831752999999996,-6.359598,6.0758852999999995,-0.1587244,-0.07243799,0.002130529,2.46,66.0,20.52
1554104582451,-3.0502129,-6.5846534,5.7359085,-0.12463594,-0.04580637,0.023435817999999997,2.4,65.94,20.7
1554104582472,-3.241749,-6.4266357,5.6640825,-0.08841695,-0.03834952,0.029827405,2.34,65.82,20.88
1554104582492,-3.2321722999999998,-6.4505777,5.558737799999999,-0.07243799,-0.04261058,0.043675844000000005,2.22,65.7,21.06
1554104582512,-3.193865,-6.4936733,5.34326,-0.10652645,-0.06178534,0.05965481,2.22,65.58,21.18
1554104582532,-3.1172507,-6.6612678,5.4390279999999995,-0.20133498,-0.07882957,0.07882957,2.16,65.46,21.3
1554104582552,-2.9640217,-6.9820905,5.6018333,-0.30892670000000005,-0.08948222,0.09054748,2.1,65.34,21.42
1554104582571,-2.954445,-7.283760000000001,6.1381345000000005,-0.32170987,-0.101200126,0.08522116,2.1,65.22,21.48
1554104582591,-2.9161377,-7.3460092999999995,6.1716533,-0.26205507,-0.11504856,0.098004326,2.16,65.16,21.6
1554104582611,-2.6719291000000003,-7.4322004,6.5403605,-0.14807177,-0.12996227,0.12357068,2.1,65.1,21.6
1554104582632,-2.4181437000000003,-7.255029700000001,6.257845,-0.037284255,-0.12037488,0.14594123,2.1,65.1,21.66
1554104582652,-2.6001031,-6.9485717000000005,6.1237693,-0.0063915867,-0.09161274,0.15765914,2.1,65.16,21.72
1554104582672,-2.6862943,-6.618172,6.085462000000001,-0.058589544,-0.06604639400000001,0.1470065,2.1,65.16,21.84
1554104582691,-2.8155810000000003,-6.431424,6.0663085,-0.1470065,-0.05006743,0.13528858,2.22,65.22,21.96
1554104582711,-2.930503,-6.713939999999999,6.415862000000001,-0.23861924,-0.03089267,0.12570119999999999,2.4,65.22,22.08
1554104582733,-2.9975405,-6.881533999999999,6.3823433,-0.294013,-0.010652645,0.10439592,2.58,65.28,22.2
1554104582753,-3.169923,-7.259817999999999,6.569091,-0.23435818,-0.002130529,0.068176925,2.76,65.34,22.32
1554104582772,-3.1794999,-7.2885485,6.425439,-0.11611383,-0.01917476,0.05965481,2.94,65.34,22.56
1554104582792,-2.9113493,-7.2167225,6.2243257000000005,0.015978966,-0.04580637,0.08628642,3.12,65.34,22.8
1554104582812,-2.6910827,-6.9581485,5.831677,0.06285059999999999,-0.05965481,0.10972224,3.36,65.34,23.1
1554104582832,-2.7724855,-6.8097080000000005,5.587468,0.034088463,-0.06604639400000001,0.10759171,3.54,65.34,23.28
1554104582852,-2.6623523,-6.785766000000001,5.644929,-0.046871635999999994,-0.06604639400000001,0.10865697,3.72,65.34,23.46
1554104582871,-2.6144682999999995,-6.9246297000000006,5.659294,-0.07882957,-0.05006743,0.07882957,3.72,65.34,23.58
1554104582891,-2.7964275,-6.8288617,5.807735,-0.07456851,-0.03089267,0.025566347000000003,3.78,65.34,23.76
1554104582912,-2.8874072999999996,-6.7905545,5.644929,-0.07882957,-0.02130529,-0.008522116,3.84,65.4,23.88
1554104582931,-2.906561,-6.699575,5.774216,-0.10226539,-0.013848438000000001,-0.014913702,3.84,65.4,23.94
1554104582952,-2.8682537,-6.666056,5.6880245,-0.12357068,-0.013848438000000001,-0.023435817999999997,3.84,65.46,23.88
1554104582972,-3.0933087,-6.737882000000001,5.817312,-0.15020229,-0.022370555,-0.017044231,3.84,65.46,23.82
1554104582992,-2.9352913,-6.843227000000001,5.965751999999999,-0.18855181,-0.035153727999999995,-0.033023197000000004,3.84,65.52,23.82
1554104583012,-2.9209259999999997,-7.015609700000001,6.0758852999999995,-0.17789917,-0.029827405,-0.05752428,3.84,65.58,23.82
1554104583031,-2.8299465,-7.1879919999999995,6.3153057,-0.07563378,-0.01917476,-0.07882957,3.9,65.58,23.88
1554104583052,-2.7964275,-7.231087700000001,6.157287999999999,0.033023197000000004,-0.004261058,-0.07669904,3.96,65.58,23.88
1554104583071,-2.8395232999999998,-7.140108000000001,5.975329,0.06711166,0.035153727999999995,-0.06391586,4.02,65.58,23.88
1554104583093,-2.9161377,-7.116166000000001,5.8221,0.056459017,0.06604639400000001,-0.05219796,4.08,65.52,23.94
1554104583113,-2.8874072999999996,-7.077858999999999,5.769428,0.022370555,0.07776430000000001,-0.027696876000000002,4.2,65.52,23.94
1554104583132,-2.8491,-6.9342065,5.812523400000001,-0.0010652645,0.082025364,-0.03195793,4.26,65.46,24.0
1554104583152,-2.9257145,-6.9198413,5.7359085,-0.002130529,0.08735169,-0.047936900000000005,4.38,65.34,24.0
1554104583172,-2.9975405,-6.8097080000000005,5.755062000000001,-0.0010652645,0.09267801,-0.06711166,4.44,65.28,24.0
1554104583192,-3.1747115000000004,-6.689997999999999,5.7119665,-0.034088463,0.09374327,-0.09267801,4.5,65.22,24.0
1554104583211,-3.241749,-6.7426705,5.6497173,-0.04580637,0.09054748,-0.10439592,4.5,65.16,24.0
1554104583231,-3.3423057000000003,-6.8049197,5.798158,-0.051132694000000006,0.07563378,-0.11930962,4.44,65.16,24.0
1554104583252,-3.3662476999999997,-7.0395517000000005,5.7023897,-0.096939065,0.054328485999999995,-0.10759171,4.38,65.1,24.0
1554104583271,-3.1986535,-7.0826473,5.893926,-0.14487597,0.041545313,-0.08522116,4.32,65.1,24.0
1554104583291,-3.2130187,-7.255029700000001,5.846042,-0.13209279,0.02876214,-0.06604639400000001,4.2,65.04,24.06
1554104583312,-3.1603463,-7.2406645,5.644929,-0.03089267,0.018109497,-0.034088463,4.14,65.04,24.06
1554104583332,-3.1268275,-7.0826473,5.472546599999999,0.033023197000000004,0.007456851,-0.020240024,4.02,65.04,24.12
1554104583353,-3.0262709,-6.9820905,5.37199,0.04474111,0.004261058,-0.010652645,3.96,65.04,24.18
1554104583371,-3.1076740000000003,-6.83365,5.295376,-0.026631612000000002,-0.00958738,-0.013848438000000001,3.9,65.1,24.24
1554104583392,-3.1842883,-6.7283053,5.142146599999999,-0.111852765,-0.033023197000000004,-0.03834952,3.9,65.1,24.24
1554104583412,-3.1268275,-6.737882000000001,5.156512,-0.20879184,-0.043675844000000005,-0.039414786,3.96,65.1,24.3
1554104583432,-3.1507695,-7.020397999999999,5.544372599999999,-0.26844665,-0.047936900000000005,-0.043675844000000005,4.02,65.1,24.36
1554104583452,-3.1268275,-7.0347633,5.620987,-0.25033715,-0.046871635999999994,-0.04580637,4.08,65.1,24.36
1554104583471,-3.1603463,-7.3124905,5.817312,-0.21092236,-0.04474111,-0.040480047000000005,4.08,65.1,24.42
1554104583491,-3.0502129,-7.3268557,5.7598505,-0.17150758,-0.035153727999999995,-0.013848438000000001,4.14,65.1,24.42
1554104583512,-2.801216,-7.355586,5.6257753,-0.16724652,-0.010652645,0.008522116,4.14,65.1,24.42
1554104583533,-2.8395232999999998,-7.2406645,5.309741000000001,-0.2066613,0.02130529,0.011717908999999999,4.14,65.04,24.48
1554104583553,-2.930503,-7.053917,5.2810106,-0.27377295,0.04474111,-0.0053263223,4.08,64.98,24.6
1554104583572,-3.0071173,-6.977302000000001,5.3863554,-0.31851408,0.05752428,-0.026631612000000002,4.08,64.92,24.78
1554104583591,-3.1603463,-7.2454529999999995,5.367202,-0.34408042,0.07456851,-0.047936900000000005,4.02,64.92,25.02
1554104583612,-3.2034418999999996,-7.441777,5.4007206,-0.28549087,0.06924219,-0.07243799,3.96,64.86,25.26
1554104583632,-3.2513257999999996,-7.379528,5.209184,-0.18961707,0.06711166,-0.08841695,3.9,64.86,25.56
1554104583652,-3.3566709,-7.4322004,5.185242,-0.15126756,0.07669904,-0.09374327,3.9,64.74,25.8
1554104583671,-3.3279405,-7.4992385,5.156512,-0.19813919,0.07669904,-0.09374327,3.9,64.68,26.04
1554104583693,-3.3183637000000004,-7.729081599999999,4.941033999999999,-0.29188246,0.06604639400000001,-0.08522116,3.9,64.62,26.4
1554104583712,-3.2848446000000004,-7.85358,5.3049526,-0.31212249999999997,0.060720075,-0.07350325,3.9,64.56,26.46
1554104583732,-3.1507695,-8.212710000000001,5.4917,-0.22690132,0.040480047000000005,-0.07243799,3.9,64.44,26.58
1554104583752,-2.9161377,-8.179192,5.5539494000000005,-0.040480047000000005,0.027696876000000002,-0.053263225,3.9,64.26,26.58
1554104583771,-2.8538885,-7.839214999999999,5.348048,0.13848437,0.015978966,-0.03834952,3.9,64.08,26.7
1554104583791,-2.906561,-7.5950065,5.0224366,0.19068234,0.0053263223,-0.034088463,3.9,63.96,26.76
1554104583812,-3.0358477,-7.1353197,5.1900306,0.14168017,-0.020240024,-0.039414786,3.9,63.72,26.88
1554104583832,-2.906561,-6.977302000000001,5.089474,0.094808534,-0.022370555,-0.05965481,3.9,63.66,26.88
1554104583851,-3.0502129,-6.9677253,4.8979383,0.041545313,-0.004261058,-0.07989483,3.9,63.6,26.94
1554104583871,-3.3039982000000006,-6.9102645,4.830900700000001,-0.01917476,0.002130529,-0.11930962,3.9,63.54,26.94
1554104583891,-3.4859576,-7.1688385,4.797382,-0.084155895,0.0031957934000000003,-0.15020229,3.9,63.54,26.94
1554104583911,-3.2944214,-7.3268557,5.1900306,-0.082025364,0.014913702,-0.14807177,3.9,63.6,26.88
1554104583931,-3.169923,-7.436989,5.156512,-0.04261058,0.011717908999999999,-0.17789917,3.9,63.6,26.88
1554104583953,-3.1603463,-7.4465656000000005,4.7016134,-0.11504856,-0.0031957934000000003,-0.18429075,3.84,63.66,26.82
1554104583973,-2.930503,-7.685986,4.8165355000000005,-0.24820662,-0.03195793,-0.18961707,3.78,63.66,26.82
1554104583993,-2.791639,-7.9541364,4.955399,-0.28975195,-0.03089267,-0.19387813,3.66,63.72,26.82
1554104584012,-2.906561,-8.088212,5.180454,-0.18002969,-0.020240024,-0.18322548,3.54,63.66,26.82
1554104584032,-3.0454244999999998,-7.7578119999999995,4.9218802,-0.06924219,0.007456851,-0.15446335,3.3,63.66,26.88
1554104584052,-3.2992098,-7.527969000000001,4.6920366,-0.10226539,0.029827405,-0.12357068,3.06,63.72,26.94
1554104584072,-3.3470940000000002,-7.441777,4.481347,-0.24181503,0.03195793,-0.09161274,2.88,63.72,26.94
1554104584092,-3.1842883,-7.647678999999999,4.2898107,-0.34194988,0.020240024,-0.06604639400000001,2.7,63.66,27.0
1554104584112,-3.1268275,-7.484873299999999,4.0360255,-0.39308259999999995,0.00958738,-0.054328485999999995,2.52,63.66,27.06
1554104584132,-3.0885203,-8.308478,4.7878050000000005,-0.35153726,0.035153727999999995,-0.08522116,2.4,63.66,27.18
1554104584152,-2.9113493,-8.341997000000001,5.1660886,-0.23968449999999997,0.054328485999999995,-0.017044231,2.34,63.54,27.36
1554104584171,-2.7772740000000002,-8.06427,5.2810106,-0.25566345,0.06498113,-0.0010652645,2.28,63.36,27.54
1554104584192,-3.4093432,-7.8248496,5.01286,-0.35579833,0.08522116,-0.07882957,2.34,63.12,27.78
1554104584212,-3.6391866000000004,-8.049905,5.0320134,-0.3174488,0.053263225,-0.07137272,2.4,62.88,27.96
1554104584231,-3.1555579,-8.006809,4.8404775,-0.17789917,0.0031957934000000003,-0.03195793,2.4,62.7,28.14
1554104584252,-3.1507695,-8.131308,4.395156,-0.10333065,-0.0010652645,-0.02130529,2.4,62.46,28.38
1554104584272,-3.3758245000000002,-8.222287,4.347272,-0.17257284,0.0,-0.037284255,2.4,62.22,28.56
1554104584291,-3.3183637000000004,-8.4234,4.624999,-0.16618125,-0.05965481,-0.05219796,2.4,62.04,28.74
1554104584311,-3.2082303,-8.5862055,4.6441526,-0.05965481,-0.101200126,-0.037284255,2.46,61.98,28.86
1554104584332,-3.217807,-8.57184,4.8739963,0.16192019,-0.16831179,0.0,2.4,61.92,28.98
1554104584352,-3.5290532,-8.471283999999999,5.467758,0.40266997,-0.17789917,0.018109497,2.4,61.92,29.1
1554104584372,-3.6248214,-8.480861,5.036802,0.7041398,-0.21624869,0.12037488,2.4,61.92,29.16
1554104584391,-3.643975,-8.739435,5.4342394,1.026915,-0.2130529,0.21624869,2.4,61.92,29.28
1554104584411,-4.2185836,-9.0842,6.1955953,1.4849787,-0.16937704,0.24714136,2.4,61.98,29.34
1554104584432,-4.630386,-9.668385,7.062296400000001,2.4032366,-0.22477080000000002,0.32810146,2.4,62.04,29.34
1554104584452,-4.6830587,-9.539098,7.454945599999999,3.5313516000000003,-0.34194988,0.5294364,2.46,62.1,29.16
1554104584472,-4.434061499999999,-9.227852,7.651269999999999,4.359062000000001,-0.43249738,0.8085357,2.58,62.34,28.68
1554104584492,-4.663905000000001,-8.456919000000001,7.8428062999999995,5.2144694000000005,-0.6114618,0.9981528000000001,2.76,62.82,27.78
1554104584512,-4.606444000000001,-7.2023573,6.8085113,6.0219398,-0.89588743,1.2612731000000001,3.06,63.48,26.34
1554104584531,-3.5817258,-5.4258595000000005,5.975329,6.046441000000001,-1.1462245,1.6394419999999998,3.48,64.08,24.36
1554104584551,-1.9632453999999997,-2.2750902,5.6161985,5.352954,-1.325189,1.8471686,4.08,64.68,21.84
1554104584572,-0.842759,0.25318682,5.6018333,4.0799627,-1.2857742,1.8663433999999997,4.8,65.28,18.84
1554104584592,-0.5267244000000001,1.158195,5.9465985,2.7292075000000002,-1.1536813999999997,1.7502294999999999,5.58,65.82,15.42
1554104584612,-0.9864110999999999,1.1486181999999998,6.717531,1.8482338,-1.0929613,1.5680691999999998,6.3,66.18,11.82
1554104584632,-0.5410896,0.9139864999999999,7.7709804,1.4881744,-1.0748518999999999,1.4508902,7.08,66.18,8.28
1554104584652,-0.26336220000000005,0.87089086,8.479664,1.2815131000000002,-1.0024139,1.2911005,7.86,65.64,5.04
1554104584671,-0.7278373,0.88046765,9.274539,0.92038846,-0.7946873000000001,0.9651296,9.06,64.26,1.02
1554104584692,-1.0390834999999998,1.0001777,9.533113,0.7488809000000001,-0.6444850000000001,0.69668293,9.78,63.3,-1.14
1554104584712,-1.4221559,1.1773487,9.236232000000001,0.79894835,-0.5134575,0.51026165,10.32,62.22,-2.94
1554104584732,-1.3215994,1.4119805,8.834005,0.7520766999999999,-0.39734364,0.37071204,10.86,61.02,-4.2
1554104584752,-0.842759,1.5412674,8.924985000000001,0.5187838,-0.23968449999999997,0.20559604,11.34,59.82,-5.04
1554104584772,-1.0390834999999998,1.2587515,9.351153,0.28975195,-0.07243799,0.05006743,11.76,58.56,-5.7
1554104584791,-1.13964,1.0480618,9.432556,0.22050974,0.025566347000000003,-0.05539375,12.06,57.54,-6.3
1554104584811,-1.1013328000000002,1.2826935,9.274539,0.20240025,0.10546118,-0.13528858,12.3,56.82,-6.84
1554104584832,-1.3503298000000001,1.881244,8.474875,0.15020229,0.16831179,-0.20026971,12.42,56.28,-7.26
1554104584852,-1.3551182,1.5556326,8.417415,0.0031957934000000003,0.1949434,-0.2066613,12.54,55.74,-7.5
1554104584871,-1.1492168,1.0863690000000001,8.728661,-0.15339808,0.21092236,-0.20453078,12.6,55.38,-7.8
1554104584892,-1.4652513999999999,0.74639237,9.073426,-0.13741912,0.21198763,-0.22264028,12.6,55.14,-8.04
1554104584912,-1.7142484,0.82779527,9.044696,-0.024501082,0.17470337,-0.1949434,12.66,55.02,-8.28
1554104584932,-1.5945383,1.1725603,8.786121000000001,0.034088463,0.096939065,-0.13741912,12.72,55.02,-8.46
1554104584952,-1.6328455,1.2635399,8.55149,-0.05006743,0.04580637,-0.09374327,12.78,55.14,-8.64
1554104584971,-1.7429788,1.1965023000000001,8.853159,-0.11717909,-0.011717908999999999,-0.04474111,12.78,55.2,-8.7
1554104584991,-1.8148049,0.98102415,9.21229,-0.11930962,-0.083090626,0.0063915867,12.78,55.32,-8.76
1554104585012,-1.3742718,0.7703344,9.461286999999999,-0.06178534,-0.13635385,0.037284255,12.78,55.44,-8.82
1554104585032,-1.3599066,1.062427,9.422979,-0.0053263223,-0.14913702,0.04261058,12.78,55.56,-8.82
1554104585052,-1.3311761999999998,1.3688848,9.399037,0.007456851,-0.15020229,0.05965481,12.78,55.62,-8.82
1554104585071,-1.5801731,1.6083049999999999,9.274539,0.008522116,-0.14913702,0.06711166,12.78,55.74,-8.76
1554104585091,-1.5179238000000002,1.4598645000000001,9.537901,-0.033023197000000004,-0.13954964,0.08948222,12.78,55.74,-8.64
1554104585112,-1.2880806,1.2970588,9.533113,-0.080960095,-0.12144015,0.083090626,12.78,55.68,-8.58
1554104585131,-1.2497733,1.38325,9.71986,-0.10013486,-0.07776430000000001,0.049002163,12.78,55.62,-8.46
1554104585152,-1.4221559,1.407192,9.782109,-0.056459017,-0.039414786,0.035153727999999995,12.72,55.56,-8.34
1554104585171,-1.4413095,1.3976152,9.542689,0.00958738,-0.012783173500000002,0.022370555,12.72,55.5,-8.22
1554104585192,-1.4173675,1.5795746000000002,9.312846,0.040480047000000005,-0.007456851,0.011717908999999999,12.72,55.38,-8.16
1554104585212,-1.1492168,1.4550761,9.260174000000001,-0.0010652645,0.007456851,-0.002130529,12.72,55.32,-8.1
1554104585232,-1.2641385,1.1629834,9.45171,-0.07030745599999999,0.02876214,-0.01917476,12.72,55.26,-8.04
1554104585251,-1.3742718,1.0145429,9.446921000000001,-0.08628642,0.043675844000000005,-0.039414786,12.72,55.26,-8.1
1554104585271,-1.364695,1.0145429,9.413403,-0.034088463,0.034088463,-0.05006743,12.72,55.32,-8.1
1554104585293,-1.4077905000000002,1.0097545,9.260174000000001,0.05006743,0.023435817999999997,-0.040480047000000005,12.72,55.32,-8.1
1554104585313,-1.4317327,1.3497312,9.130887,0.07030745599999999,0.0063915867,-0.029827405,12.72,55.32,-8.16
1554104585333,-1.3455413999999999,1.2731166999999999,9.245809,-0.011717908999999999,0.011717908999999999,-0.02876214,12.66,55.32,-8.16
1554104585352,-1.5562311000000002,1.0672153999999998,9.403825999999999,-0.05752428,0.008522116,-0.018109497,12.66,55.32,-8.16
1554104585372,-1.5562311000000002,0.99060094,9.485228999999999,0.014913702,-0.024501082,0.002130529,12.66,55.32,-8.22
1554104585392,-1.6280571000000001,1.2156559,9.513959,0.10972224,-0.054328485999999995,0.023435817999999997,12.66,55.32,-8.22
1554104585412,-1.6663644,1.3305776000000002,9.365519,0.10865697,-0.058589544,0.024501082,12.66,55.38,-8.22
1554104585431,-1.5945383,1.4598645000000001,9.351153,0.083090626,-0.06498113,0.027696876000000002,12.66,55.38,-8.28
1554104585451,-1.3263878,1.4024036,9.389461,0.06498113,-0.05539375,0.04580637,12.66,55.38,-8.28
1554104585472,-1.3982137,1.3640964,9.346364999999999,0.060720075,-0.03195793,0.05006743,12.72,55.44,-8.28
1554104585492,-1.3551182,1.3449427999999999,9.494805,0.02876214,-0.02130529,0.06711166,12.78,55.44,-8.28
1554104585512,-1.3886370000000001,1.3736732,9.293693,0.008522116,-0.004261058,0.054328485999999995,12.78,55.5,-8.28
1554104585531,-1.3790601,1.3401544,9.379883999999999,0.043675844000000005,-0.0010652645,0.0053263223,12.78,55.56,-8.34
1554104585551,-1.4508862,1.2252326999999998,9.130887,0.07137272,-0.007456851,-0.007456851,12.84,55.56,-8.34
1554104585572,-1.2401965,1.3257892,9.298480999999999,0.03089267,-0.007456851,-0.020240024,12.9,55.62,-8.34
1554104585592,-1.2976573999999998,1.2348095,9.327211,-0.02876214,0.0010652645,-0.027696876000000002,12.9,55.62,-8.4
1554104585612,-1.3359646,1.2826935,9.336788,-0.04474111,0.008522116,-0.02130529,13.02,55.62,-8.4
1554104585632,-1.4173675,1.2731166999999999,9.341577000000001,-0.05539375,0.007456851,-0.008522116,13.08,55.62,-8.46
1554104585651,-1.3551182,1.3401544,9.399037,-0.039414786,-0.0063915867,-0.0010652645,13.14,55.62,-8.52
1554104585671,-1.3455413999999999,1.3688848,9.188348,-0.026631612000000002,-0.027696876000000002,-0.0031957934000000003,13.14,55.62,-8.52
1554104585693,-1.2210428999999998,1.2970588,9.063849000000001,-0.026631612000000002,-0.024501082,-0.008522116,13.2,55.68,-8.58
1554104585713,-1.5227122,1.4981716999999999,9.375095,-0.0010652645,-0.03195793,-0.01917476,13.26,55.74,-8.58
1554104585732,-1.4604629999999998,1.4502877,9.351153,-0.04474111,-0.043675844000000005,-0.012783173500000002,13.26,55.8,-8.58
1554104585752,-1.2354081000000001,1.4550761,9.322422999999999,-0.096939065,-0.04261058,-0.023435817999999997,13.32,55.8,-8.58
1554104585772,-1.3790601,1.1773487,9.403825999999999,-0.07882957,-0.024501082,-0.036218993,13.32,55.86,-8.58
1554104585792,-1.5131354,1.2731166999999999,9.312846,-0.004261058,-0.022370555,-0.041545313,13.32,55.92,-8.52
1554104585811,-1.5801731,1.3401544,9.336788,0.010652645,-0.03089267,-0.03834952,13.26,55.92,-8.52
1554104585831,-1.2880806,1.1486181999999998,9.537901,-0.06498113,-0.023435817999999997,-0.029827405,13.26,55.92,-8.52
1554104585852,-1.340753,1.0289081,9.5809965,-0.060720075,0.0010652645,-0.04261058,13.26,55.92,-8.52
1554104585871,-1.4460978999999998,1.2922704,9.422979,-0.00958738,-0.0010652645,-0.03195793,13.2,55.86,-8.46
1554104585891,-1.3263878,1.38325,9.231442999999999,-0.012783173500000002,0.017044231,-0.033023197000000004,13.14,55.86,-8.46
1554104585912,-1.2258313,1.311424,9.317635000000001,-0.08522116,0.046871635999999994,-0.047936900000000005,13.14,55.8,-8.4
1554104585931,-1.2785037000000001,1.062427,9.470863,-0.10013486,0.05752428,-0.06604639400000001,13.08,55.8,-8.34
1554104585952,-1.2880806,1.2635399,9.173983,-0.07243799,0.049002163,-0.09161274,13.08,55.74,-8.28
1554104585972,-1.2593501,1.3640964,8.982447,-0.08735169,0.051132694000000006,-0.11717909,13.08,55.74,-8.22
1554104585991,-1.3263878,1.1725603,9.054273,-0.13209279,0.06498113,-0.14168017,13.08,55.74,-8.16
1554104586012,-1.3072342,1.1246762,9.298480999999999,-0.15339808,0.053263225,-0.15446335,13.08,55.74,-8.1
1554104586032,-1.2210428999999998,1.0815806000000001,9.288903999999999,-0.19281286,0.043675844000000005,-0.16937704,13.08,55.8,-7.98
1554104586052,-1.412579,0.99060094,9.025542,-0.2545982,0.051132694000000006,-0.19068234,13.08,55.86,-7.92
1554104586071,-1.5993267,1.0097545,9.236232000000001,-0.33129725,0.043675844000000005,-0.19281286,13.02,55.98,-7.8
1554104586091,-1.484405,0.8900445,9.264961999999999,-0.40906155,0.027696876000000002,-0.18961707,13.02,56.1,-7.74
1554104586114,-1.5849615,0.56922144,9.322422999999999,-0.4101268,0.018109497,-0.17044231,13.02,56.22,-7.68
1554104586131,-1.5275006000000002,0.6123171,9.317635000000001,-0.38562572,-0.0031957934000000003,-0.14807177,13.02,56.46,-7.62
1554104586153,-1.4460978999999998,0.3776853,9.365519,-0.38349520000000004,0.014913702,-0.13635385,12.96,56.76,-7.5
1554104586172,-1.6472107,0.30585927,9.466075,-0.30999196,0.011717908999999999,-0.14168017,12.96,57.0,-7.38
1554104586192,-1.6759412,0.47345337,9.542689,-0.23755397,-0.004261058,-0.12463594,12.84,57.18,-7.2
1554104586212,-1.7812861,0.32501290000000005,9.5570545,-0.17363810000000002,-0.008522116,-0.098004326,12.72,57.36,-7.02
1554104586232,-1.6663644,0.5835866999999999,9.45171,-0.13422333,-0.03195793,-0.08841695,12.6,57.54,-6.84
1554104586252,-1.6136919,0.7320272,9.494805,-0.17470337,-0.03195793,-0.07989483,12.54,57.72,-6.66
1554104586271,-1.7046716,0.7224503999999999,9.427767999999999,-0.30679616,-0.023435817999999997,-0.058589544,12.42,57.84,-6.48
1554104586291,-1.484405,0.3633201,9.490017,-0.45486793,-0.00958738,-0.05219796,12.3,57.96,-6.18
1554104586311,-1.4748282,-0.21128829999999998,9.829993,-0.44847634,0.027696876000000002,-0.054328485999999995,12.24,57.96,-6.06
1554104586332,-1.685518,0.037708677,9.648033999999999,-0.25246766,0.02130529,-0.041545313,12.18,58.02,-5.88
1554104586351,-1.6232687,0.31543607,9.264961999999999,-0.2034655,0.002130529,-0.02876214,12.18,58.08,-5.76
1554104586371,-1.3263878,-0.36930559999999996,9.691130000000001,-0.28336033,0.080960095,-0.05752428,12.12,58.32,-5.7
1554104586392,-1.7956512999999998,-0.41240123,9.844358,-0.03834952,0.101200126,-0.10226539,12.12,58.68,-5.52
1554104586412,-1.6950948000000001,0.37289690000000003,9.490017,0.06498113,0.07030745599999999,-0.10439592,12.06,58.86,-5.4
1554104586432,-1.4652513999999999,0.38726214,9.063849000000001,-0.01917476,0.082025364,-0.11611383,12.06,58.98,-5.4
1554104586451,-1.5801731,0.09995792,9.09258,-0.23648871,0.1470065,-0.112918034,12.06,59.28,-5.1
1554104586471,-1.8626889,-0.17298107,9.332,-0.31957933,0.16298546,-0.11504856,12.06,59.4,-4.98
1554104586493,-1.8148049,-0.43155485,9.327211,-0.2609898,0.15233281,-0.12996227,12.06,59.58,-4.8
1554104586513,-1.7525556,-0.4794389,9.346364999999999,-0.15339808,0.14061491,-0.10865697,12.06,59.64,-4.68
1554104586531,-1.8722657,-0.20171149,9.269751,-0.082025364,0.12676647,-0.098004326,12.06,59.7,-4.56
1554104586553,-1.9632453999999997,-0.110731825,9.288903999999999,-0.09054748,0.10652645,-0.1107875,12.12,59.76,-4.26
1554104586571,-1.8818424999999999,-0.010175358,9.183558999999999,-0.14168017,0.083090626,-0.1107875,12.12,59.88,-4.08
1554104586592,-1.7573439999999998,0.0041898529999999995,9.059061,-0.21624869,0.06604639400000001,-0.11504856,12.18,60.0,-3.96
1554104586612,-1.4317327,-0.3405752,9.173983,-0.38349520000000004,0.09587380000000001,-0.12676647,12.24,60.12,-3.84
1554104586632,-1.4030021000000001,-0.4842273,9.169194000000001,-0.49002165,0.15552860000000002,-0.1768339,12.36,60.36,-3.72
1554104586651,-1.4556746,-0.42197806,8.987235,-0.53795856,0.19387813,-0.22477080000000002,12.36,60.6,-3.54
1554104586671,-1.2880806,-0.5081693,8.738237,-0.71159667,0.23222765,-0.24927188,12.42,60.84,-3.36
1554104586692,-1.067814,-0.96306765,8.556278,-1.0247844000000002,0.31851408,-0.3270362,12.48,61.08,-3.12
1554104586711,-1.1109096,-1.2886791000000002,8.594585,-1.1558118999999998,0.37710363,-0.38242993,12.48,61.32,-2.82
1554104586732,-0.9768343,-1.7292121999999999,8.31207,-1.2378373,0.47191215,-0.45167214,12.42,61.56,-2.4
1554104586751,-1.1061212,-1.9063831999999998,8.460510000000001,-1.2751216,0.52837116,-0.51026165,12.24,61.86,-1.86
1554104586771,-1.484405,-1.7818846999999998,8.292916,-1.3901701000000002,0.5571333,-0.5763081,12.06,62.16,-1.08
1554104586792,-1.4700398000000001,-1.9734207,8.168417999999999,-1.6181368,0.5400891,-0.62104917,11.82,62.52,-0.24
1554104586812,-1.2737153,-2.5432408,8.31207,-1.8482338,0.54648066,-0.65513766,11.58,62.94,0.66
1554104586832,-1.6759412,-3.1561562999999997,8.230667,-1.9366508000000002,0.60293967,-0.6924219,11.34,63.42,1.56
1554104586851,-2.27928,-3.7499184999999997,8.16363,-1.9536950000000002,0.63383234,-0.716923,11.1,63.9,2.58
1554104586871,-2.552219,-3.9893386,8.063073,-1.9973708,0.58269966,-0.7435546,10.86,64.44,3.72
1554104586892,-2.5905263,-4.147355999999999,7.8188642999999995,-2.1092236,0.531567,-0.7616641,10.62,64.98,4.92
1554104586912,-2.8060042999999997,-4.3819875999999995,7.6847887,-2.2604911,0.531567,-0.7414241,10.38,65.58,6.42
1554104586932,-3.1364042999999997,-5.253476999999999,7.1341224,-2.4192157,0.5219796,-0.70627034,9.96,66.12,7.86
1554104586952,-3.6008794,-6.177639,7.3112936,-2.4596956000000003,0.5028047999999999,-0.6870956,9.6,66.48,9.36
1554104586973,-3.9743748,-6.761824000000001,7.7039423,-2.3041669999999996,0.44421527,-0.6540724,9.18,66.78,10.98
1554104586991,-4.036624,-7.0587053,7.747038400000001,-1.9963056000000001,0.35899413,-0.5539375,8.82,67.02,12.72
1554104587013,-4.012682,-7.2262993,7.5794440000000005,-1.6767261999999998,0.23435818,-0.43036684,8.4,67.14,14.64
1554104587033,-3.9695864000000003,-7.173627000000001,7.368754400000001,-1.4050837999999999,0.13635385,-0.3153183,8.04,67.26,16.38
1554104587053,-3.9264907999999994,-7.154473299999999,7.1867948,-1.1163971000000001,0.07669904,-0.18855181,7.68,67.32,17.94
1554104587073,-3.7828386,-7.4034699999999996,7.019201,-0.8426242,0.029827405,-0.1438107,7.32,67.2,19.38
1554104587092,-3.8929720000000003,-7.283760000000001,7.000047,-0.52624065,-0.054328485999999995,-0.083090626,7.14,67.02,20.64
1554104587112,-3.5721489999999996,-7.1688385,6.5307837,-0.29614353,-0.13422333,0.08735169,6.96,66.84,21.84
1554104587132,-3.0741549999999997,-7.1975690000000005,6.0327897,-0.20559604,-0.1949434,0.1768339,6.72,66.66,22.92
1554104587152,-2.873042,-7.255029700000001,5.769428,-0.1768339,-0.21944448,0.14913702,6.48,66.48,23.7
1554104587171,-2.8060042999999997,-7.092224000000001,5.61141,-0.14061491,-0.221575,0.13102753,6.24,66.24,24.3
1554104587192,-2.633622,-6.7043633,5.089474,-0.12783173,-0.23755397,0.1470065,6.0,65.94,25.02
1554104587211,-2.4085669999999997,-6.7283053,4.979341000000001,-0.20985709,-0.25140239999999997,0.16937704,5.94,65.88,25.14
1554104587232,-2.0973208,-7.3268557,5.137358,-0.37816888,-0.21624869,0.16937704,5.82,65.76,25.38
1554104587252,-2.1404164,-7.5758529999999995,5.5347957999999995,-0.34834146,-0.165116,0.07776430000000001,5.82,65.64,25.56
1554104587271,-2.384625,-7.5566993,5.510854,-0.20559604,-0.15446335,0.04261058,5.88,65.58,25.56
1554104587292,-2.3223755,-7.422623599999999,5.515642,-0.09587380000000001,-0.13315806,0.05752428,5.94,65.46,25.62
1554104587312,-2.3319526,-7.029975,5.6545057,-0.09054748,-0.12250541,0.05006743,6.06,65.4,25.62
1554104587331,-2.3989902,-6.8575919999999995,5.544372599999999,-0.15765914,-0.12357068,0.025566347000000003,6.24,65.28,25.68
1554104587351,-2.4181437000000003,-6.977302000000001,5.812523400000001,-0.30679616,-0.12463594,0.043675844000000005,6.54,65.16,25.8
1554104587371,-2.432509,-7.173627000000001,6.1477113,-0.34621096,-0.12783173,0.053263225,6.78,65.1,25.98
1554104587391,-2.633622,-7.2789717000000005,6.0567317,-0.28868666,-0.15126756,0.033023197000000004,6.96,65.04,26.1
1554104587412,-2.7389667,-7.307702000000001,5.965751999999999,-0.12463594,-0.2066613,0.013848438000000001,7.26,64.98,26.46
1554104587432,-2.695871,-7.2981253,5.774216,-0.07243799,-0.2609898,0.014913702,7.44,64.92,26.7
1554104587452,-2.60968,-7.389105000000001,5.917868,-0.060720075,-0.29294774,0.015978966,7.56,64.86,27.0
1554104587472,-2.5378537,-7.4609309999999995,5.9130797,-0.082025364,-0.29827404,0.026631612000000002,7.68,64.8,27.18
1554104587491,-2.5617957000000002,-7.307702000000001,5.5922565,-0.128897,-0.28122982,0.033023197000000004,7.68,64.8,27.3
1554104587511,-2.5234885,-7.307702000000001,5.6640825,-0.16831179,-0.24714136,0.03089267,7.74,64.74,27.36
1554104587532,-2.6288335,-7.269394999999999,5.6784476999999995,-0.18535602,-0.21411815,0.039414786,7.74,64.74,27.36
1554104587551,-2.4947581000000003,-7.0826473,5.544372599999999,-0.21624869,-0.1949434,0.046871635999999994,7.8,64.74,27.3
1554104587572,-2.4277205000000004,-6.9246297000000006,5.453393,-0.3206446,-0.17363810000000002,0.039414786,7.86,64.74,27.24
1554104587591,-2.4037786,-6.345233,5.218761,-0.5475459,-0.17150758,0.039414786,7.98,64.74,27.24
1554104587611,-2.2026656000000004,-6.206369400000001,4.5483847,-0.97258645,-0.17896444,0.053263225,8.1,64.68,27.24
1554104587632,-1.8195933000000002,-6.508039,4.624999,-1.5978967,-0.11504856,0.03089267,8.28,64.62,27.36
1554104587652,-1.4796166000000002,-7.7003509999999995,4.7830167,-2.2125542,0.039414786,-0.099069595,8.46,64.44,27.66
1554104587671,-1.6807296000000003,-7.925406,4.3999443,-2.6908581000000003,0.20133498,-0.1470065,8.64,64.14,28.2
1554104587692,-1.8148049,-8.456919000000001,3.9211037,-3.1947281000000003,0.38242993,-0.098004326,8.76,63.72,28.92
1554104587711,-1.6663644,-9.021951,3.4518404,-3.5388086000000003,0.5028047999999999,-0.040480047000000005,8.82,63.12,29.82
1554104587731,-1.8387468999999996,-10.099341,2.690484,-3.7838193999999996,0.8032094,0.002130529,8.82,62.28,31.02
1554104587752,-2.0829554,-11.315596000000001,2.1972785,-3.6549222,0.99708754,0.06498113,8.76,60.96,32.34
1554104587771,-2.456451,-12.057798,2.130241,-3.1116376,1.2644688999999998,0.07989483,8.76,59.22,33.9
1554104587791,-3.1268275,-11.96203,1.7040731,-2.2540996,1.3635385,0.12357068,8.52,57.18,35.64
1554104587812,-3.4284968,-10.664372,0.6410475,-1.3859091000000001,1.3102753,0.22050974,8.22,54.9,37.38
1554104587833,-3.6774937999999993,-9.855133,-0.18255788,-1.0013485999999998,1.2112056999999998,0.30146983,7.86,52.56,38.88
1554104587852,-3.8642415999999997,-9.0315275,-0.46028528,-0.7499462,0.9139969000000001,0.3153183,7.5,50.28,40.2
1554104587871,-3.7062242,-9.275736,-0.46028528,-0.5795039000000001,0.58269966,0.28549087,7.14,48.24,41.34
1554104587891,-3.1747115000000004,-9.299678,-0.6087258000000001,-0.37071204,0.34621096,0.30360037,6.66,46.32,42.18
1554104587912,-2.9592332999999997,-9.318831,-0.6422445999999999,-0.05006743,0.19387813,0.314253,6.24,44.76,42.84
1554104587932,-3.1364042999999997,-8.998009,-0.7188591,0.32170987,0.046871635999999994,0.27057716,5.7,43.74,43.26
1554104587951,-3.3087866000000004,-8.734647,-1.0157399999999999,0.62531024,-0.14168017,0.25246766,5.22,43.02,43.5
1554104587971,-3.323152,-8.57184,-1.0157399999999999,0.7574029999999999,-0.34088463,0.26738137,4.74,42.66,43.62
1554104587991,-3.4189199999999995,-8.528744999999999,-0.86251116,0.7957525,-0.49108690000000005,0.24927188,4.44,42.42,43.74
1554104588012,-3.5960910000000004,-8.658031,-0.44113165,0.90973586,-0.56245965,0.17576863,4.08,42.24,43.8
1554104588033,-3.8450879999999996,-8.978855000000001,-0.019752163,1.1675298,-0.5294364,0.07669904,3.78,42.18,43.92
1554104588052,-3.8738184,-9.065046,0.008978256,1.3954965,-0.5123922000000001,0.023435817999999997,3.72,42.3,43.92
1554104588071,-3.4476504,-9.476849000000001,0.19093758,1.6309198999999999,-0.51452273,-0.05539375,3.78,42.72,43.92
1554104588093,-3.0454244999999998,-9.883863,1.134253,2.026133,-0.47936899999999993,-0.22796659,4.02,43.32,43.8
1554104588112,-2.791639,-9.481637,1.3880384,2.3499734,-0.36432046,-0.25353295,4.38,44.28,43.44
1554104588131,-2.8395232999999998,-8.638878,1.311424,2.3531692000000004,-0.17896444,-0.13102753,4.86,45.42,42.9
1554104588152,-3.394978,-7.705139599999999,1.3880384,2.0080235,-0.09054748,-0.10333065,5.46,47.58,41.88
1554104588172,-3.6774937999999993,-7.211933999999999,1.2779051000000001,1.6234629999999999,-0.10652645,-0.084155895,5.64,48.36,41.52
1554104588192,-3.8259343999999995,-7.053917,1.6609775000000002,0.93423694,-0.17789917,-0.024501082,6.0,49.98,40.86
1554104588212,-3.7588966,-7.116166000000001,1.9674352,0.18429075,-0.29827404,-0.015978966,6.24,51.48,40.14
1554104588231,-3.5146879999999996,-7.413047,2.6521769,-0.50173956,-0.40906155,-0.03089267,6.42,52.86,39.36
1554104588252,-3.2369606,-8.672397,4.0120835,-0.8852348,-0.44847634,-0.06924219,6.48,54.48,38.4
1554104588272,-2.8060042999999997,-9.496002,4.0120835,-0.6988135,-0.44847634,-0.08522116,6.54,55.2,37.92
1554104588292,-2.4133554,-9.888652,3.8205473,-0.34194988,-0.39095205,-0.054328485999999995,6.72,55.74,37.62
1554104588311,-2.3319526,-9.524733,3.3273417999999997,0.0031957934000000003,-0.30253512,-0.07563378,6.9,55.98,37.38
1554104588331,-2.6623523,-8.993219999999999,2.8868085999999997,0.18642128,-0.2428803,-0.10333065,7.08,56.1,37.2
1554104588352,-2.8107927000000004,-8.686762,2.5755625,0.1470065,-0.23009712,-0.07776430000000001,7.26,56.1,37.14
1554104588372,-2.7198130000000003,-8.619724,2.3888147,0.03195793,-0.23116238,-0.06391586,7.44,56.04,37.08
1554104588392,-2.681506,-8.729858,2.5611973,-0.07669904,-0.20772657,-0.05965481,7.62,55.92,37.08
1554104588411,-2.7581203,-8.734647,2.8485014,-0.13528858,-0.17470337,-0.068176925,7.8,55.86,37.2
1554104588431,-2.8491,-8.84478,2.949058,-0.1107875,-0.15020229,-0.09161274,7.92,55.74,37.38
1554104588452,-3.145981,-8.84478,3.0591912,-0.036218993,-0.11504856,-0.09267801,7.92,55.68,37.5
1554104588471,-3.098097,-8.873510000000001,2.7910407000000004,0.03834952,-0.111852765,-0.08522116,7.98,55.62,37.62
1554104588491,-3.0214825000000003,-8.839992,2.8485014,0.082025364,-0.1107875,-0.07243799,7.98,55.62,37.68
1554104588512,-2.9975405,-8.7538,2.8963853999999998,0.039414786,-0.113983296,-0.06178534,7.98,55.62,37.68
1554104588532,-2.9400797,-8.705916,2.9969419999999998,0.007456851,-0.12570119999999999,-0.07030745599999999,8.04,55.62,37.68
1554104588551,-3.0119057000000002,-8.734647,3.0879216,-0.010652645,-0.13848437,-0.058589544,8.04,55.62,37.68
1554104588572,-2.873042,-8.629301,3.1405939999999997,-0.05752428,-0.15020229,-0.04261058,8.04,55.68,37.68
1554104588592,-2.9400797,-8.7538,3.2363622000000003,-0.07350325,-0.14274544,-0.049002163,8.04,55.68,37.62
1554104588612,-2.954445,-8.763377,3.221997,-0.033023197000000004,-0.13954964,-0.051132694000000006,8.04,55.68,37.62
1554104588633,-2.9257145,-8.595782,3.1262288,-0.0053263223,-0.14274544,-0.03089267,8.04,55.68,37.56
1554104588651,-2.944868,-8.739435,2.8293478,-0.0063915867,-0.13741912,-0.029827405,8.04,55.68,37.56
1554104588671,-2.9400797,-8.696339,2.9586349,-0.0063915867,-0.14274544,-0.022370555,8.04,55.68,37.56
1554104588692,-2.8491,-8.686762,2.9969419999999998,0.002130529,-0.15020229,-0.012783173500000002,8.1,55.68,37.5
1554104588711,-2.9257145,-8.653243,2.8772318,-0.03195793,-0.14913702,-0.0031957934000000003,8.16,55.68,37.44
1554104588733,-2.8060042999999997,-8.667608,2.949058,-0.084155895,-0.15126756,-0.002130529,8.28,55.68,37.44
1554104588752,-2.906561,-8.950125,2.7910407000000004,-0.10759171,-0.15339808,0.0031957934000000003,8.34,55.68,37.32
1554104588772,-2.6862943,-9.021951,3.2028434,-0.05006743,-0.14061491,0.0010652645,8.46,55.68,37.26
1554104588792,-2.6671407000000005,-8.96449,2.9825767999999995,0.039414786,-0.12144015,0.00958738,8.58,55.68,37.2
1554104588811,-2.834735,-8.701127,3.0879216,0.10333065,-0.10652645,0.018109497,8.64,55.68,37.14
1554104588832,-2.7198130000000003,-8.557475,2.9730000000000003,0.13315806,-0.12463594,0.033023197000000004,8.7,55.68,37.08
1554104588852,-2.657564,-8.629301,3.3033997999999998,0.08948222,-0.113983296,0.047936900000000005,8.82,55.68,37.08
1554104588872,-2.633622,-8.839992,3.3800142,0.07882957,-0.11611383,0.010652645,8.94,55.68,37.08
1554104588893,-2.7150247000000003,-8.72507,3.198055,0.07563378,-0.1107875,-0.008522116,9.0,55.74,37.02
1554104588911,-2.7246015,-8.643666,3.1884782000000005,0.06711166,-0.10226539,-0.022370555,9.06,55.74,37.08
1554104588931,-2.7198130000000003,-8.768166,3.2650926,0.026631612000000002,-0.099069595,-0.022370555,9.18,55.74,37.08
1554104588952,-2.4468741,-8.686762,3.3800142,-0.0010652645,-0.06604639400000001,-0.010652645,9.3,55.74,37.14
1554104588972,-2.5043349999999998,-8.686762,3.3608606,0.060720075,-0.027696876000000002,-0.01917476,9.36,55.74,37.14
1554104588991,-2.705448,-8.792108,3.3225534,0.13315806,0.0,-0.03089267,9.42,55.74,37.2
1554104589012,-2.7820622999999998,-8.504802999999999,3.3033997999999998,0.17789917,0.004261058,-0.03834952,9.48,55.74,37.14
1554104589032,-2.8107927000000004,-8.380303999999999,3.0735563999999997,0.17044231,0.008522116,-0.047936900000000005,9.54,55.8,37.14
1554104589052,-2.7629087,-8.480861,3.0544027999999996,0.09374327,0.012783173500000002,-0.040480047000000005,9.54,55.8,37.08
1554104589071,-2.8299465,-8.590994,3.245939,0.013848438000000001,0.015978966,-0.04474111,9.54,55.8,37.08
1554104589091,-2.906561,-8.643666,3.2124202,-0.02876214,0.00958738,-0.035153727999999995,9.54,55.8,37.08
1554104589112,-2.7389667,-8.763377,3.3560722000000003,-0.04474111,0.026631612000000002,-0.018109497,9.54,55.86,37.02
1554104589131,-2.7868507,-8.629301,3.3464954,0.0031957934000000003,0.039414786,-0.02130529,9.54,55.92,37.02
1554104589151,-2.791639,-8.533533,3.1405939999999997,0.03834952,0.049002163,-0.0031957934000000003,9.54,55.98,36.96
1554104589171,-2.633622,-8.619724,3.3369186,-0.0010652645,0.04261058,0.002130529,9.54,56.04,36.96
1554104589191,-2.5570072999999995,-8.619724,3.6625300000000003,-0.05752428,0.04474111,-0.02876214,9.6,56.04,36.96
1554104589211,-2.542642,-8.801684,3.7774517999999997,-0.15339808,0.080960095,-0.029827405,9.6,56.1,36.96
1554104589232,-2.7246015,-8.437764999999999,2.9394810000000002,-0.33129725,0.18429075,0.002130529,9.6,56.16,36.9
1554104589252,-3.1316159,-7.647678999999999,1.5077485000000002,-0.8628642,0.30679616,0.112918034,9.66,56.22,36.9
1554104589271,-3.5098996,-7.441777,-0.19213470000000002,-2.0208068,0.39947417,0.2972088,9.66,56.22,36.96
1554104589292,-3.6631286,-7.5375457,-2.3421277999999996,-3.7795582000000003,0.39840892,0.41438788,9.66,56.04,37.14
1554104589312,-3.3135752999999997,-7.944559599999999,-2.581548,-6.046441000000001,0.37603834,0.32597092,9.66,55.5,37.74
1554104589332,-3.3758245000000002,-10.108918,-1.7866731,-7.995875,0.45593318,0.39521313,9.66,54.12,38.58
1554104589351,-3.2992098,-12.359467500000001,-1.1689690000000001,-8.034224499999999,0.588026,0.4857606,9.66,51.78,39.6
1554104589371,-3.3279405,-12.943653,-0.22086509999999998,-6.771886299999999,0.63383234,0.38029942,9.6,48.54,40.86
1554104589392,-2.5570072999999995,-11.329961,-0.28790274,-4.4890246,0.8511463,0.5784385999999999,9.54,44.34,42.3
1554104589412,-2.1068976000000004,-9.476849000000001,-1.6861166,-2.1475732000000005,0.94488955,0.5475459,9.42,39.6,43.74
1554104589432,-3.1028854999999997,-7.834426400000001,-4.180875,0.06498113,0.73609775,0.27696875,9.18,34.44,45.18
1554104589453,-3.3135752999999997,-7.623736999999999,-6.139332,0.7765778,0.40373522,0.24074976,8.94,29.34,46.5
1554104589472,-3.4093432,-8.011598,-6.843227000000001,0.608266,0.09374327,0.2066613,8.64,24.66,47.28
1554104589491,-3.5721489999999996,-8.121731,-6.0627174,0.09374327,-0.05752428,0.10333065,8.28,20.82,47.7
1554104589511,-3.9360676,-7.958925,-5.071518,-0.21198763,-0.10546118,-0.015978966,7.92,17.94,47.88
1554104589532,-3.8738184,-8.174403,-4.19524,-0.17896444,-0.113983296,-0.03834952,7.62,16.02,47.94
1554104589551,-3.8833952000000003,-8.413822999999999,-4.032433999999999,0.05965481,-0.08522116,-0.041545313,7.32,14.94,47.82
1554104589572,-3.6104562000000007,-8.509591,-3.8025907999999995,0.314253,-0.035153727999999995,-0.0063915867,7.02,14.58,47.64
1554104589592,-3.8642415999999997,-8.801684,-4.147355999999999,0.54648066,-0.07669904,0.017044231,6.84,14.58,47.46
1554104589612,-3.7780502,-8.978855000000001,-4.5352163,0.5944176,-0.10439592,0.11504856,6.72,14.64,47.34
1554104589631,-3.7205894,-9.141661000000001,-3.5248635000000004,0.72011876,-0.053263225,0.20879184,6.6,14.76,47.22
1554104589652,-3.7062242,-9.840767999999999,-2.7060466,1.0791129,-0.022370555,0.31105720000000003,6.54,14.94,47.34
1554104589672,-3.8115692,-10.621277000000001,-2.830545,1.6170714,-0.020240024,0.43356264,6.48,15.18,47.4
1554104589691,-3.7062242,-10.477625,-2.9741971,2.159291,0.036218993,0.55287224,6.42,15.66,47.46
1554104589712,-3.8738184,-9.366715,-3.5679589999999997,2.501241,0.10226539,0.6125271,6.36,16.5,47.52
1554104589731,-4.0174704,-8.332419999999999,-4.0037036,2.2551648999999996,0.11930962,0.63702816,6.3,17.7,47.52
1554104589752,-4.2521024,-7.911041,-4.123414,1.6074841,0.08948222,0.59122175,6.24,19.26,47.52
1554104589771,-4.582502,-8.413822999999999,-3.7882257000000004,1.0088054,0.06604639400000001,0.53476274,6.24,20.94,47.52
1554104589791,-4.5394063,-8.983644,-3.007716,0.59228706,0.011717908999999999,0.5411543000000001,6.24,22.68,47.52
1554104589812,-4.644751,-9.256582,-2.9358897,0.39734364,-0.018109497,0.55606806,6.24,24.48,47.46
1554104589831,-5.118803,-9.98442,-3.1609447,0.21624869,-0.040480047000000005,0.69348717,6.3,27.06,47.34
1554104589852,-5.3678,-10.34355,-3.1657330000000004,0.14807177,-0.101200126,0.7914915,6.3,27.78,47.28
1554104589874,-5.4539914000000005,-10.67395,-2.629432,0.15659387,-0.18429075,0.96299905,6.42,29.04,47.16
1554104589892,-5.8179099999999995,-10.659583999999999,-2.4474726,0.29188246,-0.26844665,1.144094,6.54,29.94,47.04
1554104589911,-6.1483099999999995,-10.22384,-2.629432,0.40586576,-0.34727620000000003,1.3486248,6.72,30.72,46.86
1554104589931,-6.272808599999999,-9.979631,-2.3373394,0.46552056,-0.42290998,1.627724,6.96,31.14,46.62
1554104589952,-6.009446,-9.596559,-1.7052702000000002,0.5400891,-0.49534798,1.7864485,7.32,31.5,46.44
1554104589972,-5.851429,-8.643666,-0.96306765,0.74675035,-0.5006742999999999,1.8727348999999998,7.8,31.8,46.26
1554104589992,-5.8083334,-7.5758529999999995,0.008978256,1.1313108,-0.49641323,1.9771308999999997,8.34,32.22,46.14
1554104590012,-4.9320555,-6.795342999999999,-0.32621,1.6682042000000001,-0.46978164,2.0090888,9.0,32.76,46.02
1554104590032,-5.1571107000000005,-5.579088700000001,-0.7428011,1.8716697,-0.36645097,1.8130800999999999,9.78,33.3,45.9
1554104590051,-5.8945246,-4.487332299999999,-0.9295488000000001,1.7193368999999998,-0.24607609,1.619202,10.62,34.2,45.78
1554104590072,-6.0956373,-3.9318779000000004,-0.88166475,1.3560816,-0.19813919,1.4402375,11.58,35.16,45.72
1554104590092,-6.1530986,-3.6685154000000004,-0.9343372,0.87777793,-0.18855181,1.2506205,12.54,36.24,45.66
1554104590111,-6.517017,-3.6014779000000003,-0.7188591,0.37816888,-0.10972224,1.0759171,13.26,37.32,45.6
1554104590132,-6.95755,-4.109049,-0.16819267,0.04261058,-0.027696876000000002,0.8681905000000001,13.98,38.34,45.42
1554104590152,-6.885724000000001,-4.482544,0.18136078,0.056459017,-0.02876214,0.72011876,14.58,39.18,45.12
1554104590171,-6.617573299999999,-4.755483,0.7272388000000001,0.23435818,-0.002130529,0.56672066,15.12,39.9,44.76
1554104590191,-6.981492,-4.425083,0.11432313,0.46125950000000004,0.07669904,0.46765109999999993,15.54,40.56,44.4
1554104590212,-7.5944076,-4.4059295999999994,-0.66618663,0.46765109999999993,0.10652645,0.38242993,15.84,40.8,44.1
1554104590232,-7.752425,-4.511274299999999,-0.7380127,0.22796659,0.0,0.28229508,15.96,40.98,43.74
1554104590252,-7.699753,-4.741118,-0.3597288,-0.008522116,-0.05539375,0.23755397,16.02,40.98,43.44
1554104590271,-8.049306,-5.105036699999999,0.04249708,-0.31957933,-0.082025364,0.19387813,16.08,40.98,43.2
1554104590292,-8.192958,-5.4258595000000005,0.28670564,-0.3057309,-0.12144015,0.1587244,16.2,40.98,43.08
1554104590312,-8.1163435,-5.617396,0.41599256,-0.12463594,-0.14913702,0.15339808,16.38,41.04,43.02
1554104590331,-8.341399000000001,-5.468955,0.43035775,0.09161274,-0.10439592,0.16085494,16.5,41.04,43.08
1554104590352,-8.293514,-5.157709,0.26755205,0.26312032,-0.10226539,0.14594123,16.62,41.04,43.08
1554104590372,-8.145074000000001,-4.812944,0.3824737,0.2695119,-0.14061491,0.13209279,16.8,41.04,43.14
1554104590391,-8.259995,-4.511274299999999,0.5117606,0.20879184,-0.13528858,0.08841695,16.98,40.98,43.14
1554104590411,-8.312667999999999,-4.386776,0.3298013,0.17470337,-0.112918034,0.05752428,17.1,40.92,43.14
1554104590432,-8.197746,-4.425083,0.6697779,0.12463594,-0.11824436,0.0063915867,17.34,40.86,43.08
1554104590452,-8.192958,-4.4681787,0.64583594,0.05965481,-0.09054748,-0.05219796,17.58,40.86,43.08
1554104590472,-8.413225,-4.7219644,0.39205053,-0.04261058,-0.041545313,-0.041545313,17.7,40.8,43.02
1554104590492,-8.432379,-4.970961,0.5931635000000001,-0.08522116,-0.03195793,-0.04580637,17.82,40.8,42.96
1554104590512,-8.360553,-4.980538,0.6410475,-0.008522116,-0.05752428,-0.047936900000000005,17.94,40.86,42.96
1554104590532,-8.336611,-4.947019,0.39205053,0.054328485999999995,-0.033023197000000004,-0.02130529,18.06,40.86,42.9
1554104590552,-8.504205,-4.956596,0.24839842,-0.007456851,-0.022370555,0.002130529,18.18,40.92,42.84
1554104590572,-8.7292595,-4.9422307,-0.04369418,-0.128897,-0.07456851,-0.03089267,18.24,40.98,42.84
1554104590592,-8.504205,-4.9853263,0.52133745,-0.24927188,-0.12357068,-0.025566347000000003,18.24,41.1,42.78
1554104590611,-8.470686,-5.0810947,0.7128736,-0.1587244,-0.128897,-0.02130529,18.3,41.16,42.78
1554104590631,-8.537724,-5.1146135,0.84216046,0.03195793,-0.12037488,-0.0031957934000000003,18.3,41.22,42.78
1554104590652,-8.154651,-5.119402,0.7032967,0.13635385,-0.12357068,0.025566347000000003,18.3,41.22,42.78
1554104590671,-8.082825,-4.827309,0.55964464,0.09161274,-0.10333065,0.0053263223,18.36,41.22,42.78
1554104590691,-8.135497,-4.8656163,0.55485624,-0.04474111,-0.084155895,0.014913702,18.36,41.22,42.78
1554104590712,-8.2169,-5.157709,0.48303019999999997,-0.15765914,-0.083090626,0.014913702,18.36,41.22,42.72
1554104590732,-8.322245,-5.061941,0.48303019999999997,-0.17470337,-0.05539375,0.043675844000000005,18.42,41.22,42.72
1554104590752,-8.317456,-4.6692919999999996,0.43514615,-0.13528858,-0.037284255,0.040480047000000005,18.42,41.22,42.72
1554104590772,-8.298303,-4.587889,0.46866497,-0.08522116,-0.058589544,0.023435817999999997,18.54,41.1,42.66
1554104590791,-8.288725999999999,-4.8560395,0.47824179999999994,-0.13635385,-0.06604639400000001,-0.0053263223,18.6,40.98,42.66
1554104590811,-8.561666,-4.707599,0.45429978,-0.23542345,-0.051132694000000006,-0.029827405,18.66,40.86,42.6
1554104590832,-8.695741,-5.0332108,0.7703344,-0.25992453,-0.07350325,-0.024501082,18.84,40.68,42.6
1554104590852,-8.279149,-5.2343235,0.7128736,-0.19920446,-0.12357068,-0.01917476,18.9,40.56,42.54
1554104590872,-8.178593,-5.382764,0.7032967,-0.098004326,-0.06604639400000001,0.013848438000000001,19.02,40.38,42.54
1554104590892,-8.283937,-5.0140567,0.86610246,-0.014913702,-0.026631612000000002,0.026631612000000002,19.08,40.26,42.6
1554104590911,-8.082825,-4.6022544000000005,0.6171055000000001,0.041545313,-0.053263225,-0.004261058,19.2,40.14,42.66
1554104590932,-8.087613000000001,-4.6022544000000005,0.30107087,-0.0010652645,-0.07137272,-0.007456851,19.26,40.08,42.72
1554104590952,-8.7532015,-4.9853263,0.09516951400000001,-0.12463594,-0.068176925,-0.025566347000000003,19.26,40.08,42.78
1554104590971,-8.552089,-4.851251,1.0959458,-0.20559604,-0.06711166,-0.033023197000000004,19.32,40.02,42.84
1554104590991,-7.9343843,-4.745906400000001,0.9427169,-0.06498113,-0.06498113,-0.05752428,19.26,39.96,42.9
1554104591011,-8.054094000000001,-4.6022544000000005,0.7751228,-0.12676647,0.020240024,-0.05752428,19.26,39.9,42.9
1554104591032,-8.240842,-4.420294999999999,0.32501290000000005,-0.18322548,0.01917476,-0.09054748,19.26,39.84,42.84
1554104591051,-8.470686,-4.970961,0.061650693,-0.19068234,-0.020240024,-0.098004326,19.26,39.72,42.78
1554104591071,-7.9104424,-4.549582,0.9475053,-0.26631612,-0.026631612000000002,-0.1470065,19.26,39.6,42.66
1554104591092,-7.920019,-4.1329910000000005,0.6314706999999999,-0.3206446,0.05539375,-0.17789917,19.26,39.48,42.6
1554104591112,-7.943961,-4.348469000000001,0.66020113,-0.5592638000000001,0.08628642,-0.2609898,19.26,39.3,42.54
1554104591132,-7.5082164,-4.970961,0.5883751,-0.7307714,0.08628642,-0.32597092,19.32,39.12,42.48
1554104591151,-7.216124000000001,-5.2199583,0.789488,-0.7499462,0.17576863,-0.36218992,19.32,39.0,42.48
1554104591171,-6.8522053,-4.76506,0.8948328999999999,-0.6870956,0.27803403,-0.39201729999999996,19.32,38.82,42.66
1554104591192,-6.627150500000001,-4.0372224,1.110311,-0.5944176,0.44315,-0.54435015,19.32,38.52,42.84
1554104591212,-6.6606693,-4.4538136,0.44472298,-0.45273739999999996,0.56459016,-0.7222493000000001,19.32,38.16,43.02
1554104591232,-6.277597,-4.8656163,0.090381116,-0.3323625,0.63702816,-0.8362325999999999,19.26,37.86,43.2
1554104591251,-5.8562174,-5.105036699999999,0.11432313,-0.21837921,0.69348717,-0.99495703,19.2,37.5,43.32
1554104591271,-5.386954,-5.1146135,0.0712275,-0.07137272,0.700944,-1.2431636000000001,19.02,37.08,43.5
1554104591292,-5.2241483,-5.3300915,-0.65660983,0.18535602,0.6540724,-1.5126754999999998,18.78,36.66,43.62
1554104591312,-4.8745947,-5.856816,-0.7332243,0.49747851,0.5475459,-1.7512947,18.36,36.36,43.8
1554104591336,-4.596867,-6.177639,-1.6669630000000002,0.9289106,0.47723848,-2.0208068,17.4,35.94,43.98
1554104591353,-4.55856,-6.306926,-3.079542,0.9289106,0.46339005,-2.0953753,16.98,35.82,44.04
1554104591372,-5.0038815,-6.091448000000001,-4.3819875999999995,0.3057309,0.41438788,-2.1454427000000003,16.14,36.12,44.16
1554104591391,-5.8945246,-5.5264163,-5.071518,-0.76912093,0.45380265,-2.2604911,15.3,36.54,44.28
1554104591413,-6.0142345,-5.789778,-5.7945666,-2.05383,0.3206446,-2.2551648999999996,14.34,36.9,44.4
1554104591431,-5.4539914000000005,-6.9246297000000006,-6.555923,-3.3641052000000005,0.21411815,-2.2626216,13.44,37.32,44.58
1554104591452,-5.4539914000000005,-8.30369,-7.006033,-4.6275086,0.18642128,-2.2540996,12.48,37.74,44.7
1554104591471,-6.019023000000001,-9.304466,-6.3404446,-5.5745287,0.34727620000000003,-2.1156151000000003,11.52,37.38,44.82
1554104591491,-6.339846,-10.219051,-6.3787518,-5.9516325,0.41545314,-1.8684738999999997,10.68,36.24,45.0
1554104591511,-5.4779334,-11.344325999999999,-5.157709,-5.462676,0.47404268,-1.6543556000000001,9.9,34.2,45.36
1554104591531,-4.654328,-11.669938,-4.702811,-4.149205,0.67218184,-1.4349113000000002,9.18,30.96,45.54
1554104591552,-5.837064,-11.291654,-4.8656163,-2.6535737999999998,0.753142,-1.1430287000000001,8.46,26.88,45.78
1554104591571,-6.291962,-9.740211500000001,-5.847239,-1.5883093000000001,0.5294364,-0.9491506,7.8,22.62,45.96
1554104591592,-5.5641245999999995,-10.927735,-6.7666125,-1.1707256000000001,0.17789917,-0.8426242,7.2,17.94,46.14
1554104591612,-4.8985367,-10.592546,-6.091448000000001,-0.7765778,-0.053263225,-0.7435546,6.42,10.98,46.14
1554104591631,-4.7788267,-9.496002,-5.861604,-0.10333065,-0.13209279,-0.5049353,6.06,6.96,46.08
1554104591651,-4.098873,-8.911817999999998,-5.7658362,0.35260254,-0.17363810000000002,-0.29827404,5.82,4.02,45.78
1554104591672,-3.8929720000000003,-8.289325,-5.8328739999999994,0.9715212,-0.19174760000000002,-0.046871635999999994,5.64,1.86,45.54
1554104591692,-3.3423057000000003,-7.508815299999999,-5.943007,1.2974921,-0.14913702,0.07882957,5.52,0.54,45.3
1554104591712,-3.1076740000000003,-7.355586,-5.229535,1.5446335,-0.05965481,0.10865697,5.46,-0.18,45.12
1554104591732,-3.1986535,-8.059482000000001,-5.109825,2.0996363,0.047936900000000005,0.10013486,5.46,-0.18,45.06
1554104591752,-2.825158,-8.15525,-5.966949,2.5672874,0.17363810000000002,0.30253512,5.52,0.42,45.06
1554104591772,-2.7629087,-7.2646065,-6.3548098,2.5651567,0.25992453,0.37071204,5.64,1.56,45.18
1554104591791,-2.7868507,-6.632537400000001,-6.8144965,2.1337247,0.23116238,0.350472,5.7,3.12,45.36
1554104591811,-2.705448,-6.7522473,-6.579865,1.3156016000000001,0.1587244,0.36432046,5.76,4.86,45.48
1554104591832,-2.705448,-7.0395517000000005,-5.875969400000001,0.49215218,0.054328485999999995,0.24714136,5.76,6.84,45.66
1554104591852,-2.9017725,-7.5375457,-4.947019,0.00958738,-0.007456851,0.13528858,5.76,9.0,45.9
1554104591871,-2.8778305,-7.796119,-4.362833999999999,-0.128897,-0.026631612000000002,0.043675844000000005,5.76,11.04,46.08
1554104591892,-3.0214825000000003,-7.872733599999999,-4.836886,-0.12783173,-0.043675844000000005,-0.06711166,5.76,12.66,46.2
1554104591912,-3.2848446000000004,-7.877522,-4.496909,-0.20772657,-0.058589544,-0.15446335,5.7,13.98,46.38
1554104591932,-3.3901896000000002,-7.958925,-4.5160627,-0.28122982,-0.07776430000000001,-0.1949434,5.64,14.94,46.5
1554104591952,-3.4428620000000003,-8.078635,-4.4921207,-0.25992453,-0.10652645,-0.21198763,5.58,15.48,46.62
1554104591972,-3.5865142,-8.193557,-4.621408,-0.16724652,-0.09054748,-0.19281286,5.58,15.84,46.74
1554104591991,-3.6056678,-8.289325,-4.635773,-0.07669904,-0.068176925,-0.16085494,5.52,15.96,46.8
1554104592012,-3.6918589999999996,-8.078635,-4.683657,-0.002130529,-0.037284255,-0.13422333,5.46,15.9,46.92
1554104592032,-3.6343982000000006,-8.241441,-4.7267528,0.033023197000000004,-0.06178534,-0.12357068,5.4,15.72,46.98
1554104592051,-3.3997664,-8.251018,-4.3436804,-0.020240024,-0.112918034,-0.11504856,5.4,15.54,47.04
1554104592071,-3.3375172999999996,-8.169615,-4.439448400000001,-0.014913702,-0.14168017,-0.13848437,5.4,15.3,47.04
1554104592091,-3.2273839,-8.102577,-4.6692919999999996,0.026631612000000002,-0.15552860000000002,-0.15446335,5.4,15.06,47.04
1554104592111,-3.1124623,-8.059482000000001,-4.755483,0.084155895,-0.17150758,-0.18322548,5.4,14.82,46.98
1554104592132,-3.0262709,-8.078635,-4.7937902999999995,0.14168017,-0.19174760000000002,-0.21731395,5.46,14.58,46.92
1554104592152,-3.0885203,-8.083424,-5.0523643,0.18642128,-0.17044231,-0.23968449999999997,5.52,14.4,46.86
1554104592172,-3.1028854999999997,-7.968502,-4.7267528,0.18216023,-0.18855181,-0.27057716,5.64,14.22,46.8
1554104592192,-3.0454244999999998,-8.059482000000001,-4.540005000000001,0.17576863,-0.22050974,-0.31851408,5.82,14.22,46.8
1554104592212,-3.0693667000000002,-8.188768,-4.841674299999999,0.18002969,-0.23755397,-0.34621096,5.94,14.22,46.74
1554104592232,-3.1172507,-8.18398,-4.9039235,0.13635385,-0.23648871,-0.3717773,6.06,14.34,46.74
1554104592251,-3.2992098,-8.428188,-4.8895583,0.07350325,-0.24927188,-0.3568636,6.18,14.52,46.8
1554104592272,-3.193865,-8.581417,-4.185663,0.012783173500000002,-0.25992453,-0.3206446,6.3,14.76,46.86
1554104592292,-3.0885203,-8.672397,-3.9558197999999996,0.07563378,-0.23861924,-0.30786142,6.42,14.94,46.92
1554104592312,-3.0310593,-8.710705,-3.9797617999999995,0.13741912,-0.15339808,-0.25140239999999997,6.42,15.18,46.98
1554104592331,-3.1555579,-8.600571,-3.9079356,0.14807177,-0.09054748,-0.21411815,6.48,15.42,47.1
1554104592351,-3.3327288999999998,-8.653243,-4.0276456,0.13741912,-0.056459017,-0.18748654,6.6,15.66,47.1
1554104592372,-3.3518825,-8.811261,-4.0994720000000004,0.12463594,-0.05219796,-0.13954964,6.66,15.84,47.16
1554104592392,-3.145981,-8.839992,-4.065953299999999,0.11717909,-0.05006743,-0.09267801,6.84,16.26,47.22
1554104592411,-3.098097,-8.950125,-4.0420110000000005,0.15339808,0.007456851,-0.03834952,6.96,16.5,47.22
1554104592432,-3.1794999,-8.926183,-4.013280399999999,0.18216023,0.041545313,-0.0053263223,7.08,16.62,47.22
1554104592452,-3.1603463,-8.734647,-4.449025,0.24927188,0.07243799,0.026631612000000002,7.26,16.92,47.22
1554104592471,-3.1507695,-8.523956,-4.31495,0.221575,0.101200126,0.07563378,7.32,17.04,47.22
1554104592492,-3.0262709,-8.610147,-3.8265328000000003,0.23116238,0.068176925,0.07669904,7.44,17.4,47.28
1554104592512,-2.930503,-8.461707,-4.0563765,0.29933932,0.058589544,0.07030745599999999,7.5,17.58,47.28
1554104592532,-3.0119057000000002,-8.332419999999999,-3.9270894999999997,0.33555830000000003,0.07456851,0.07882957,7.56,17.7,47.28
1554104592552,-3.217807,-8.313267,-3.9414546,0.34834146,0.058589544,0.04474111,7.5,17.76,47.28
1554104592572,-3.3662476999999997,-8.231864,-4.1282024,0.33768883,0.024501082,0.012783173500000002,7.5,17.82,47.28
1554104592591,-3.3375172999999996,-8.409035000000001,-4.094683600000001,0.28229508,-0.026631612000000002,-0.0010652645,7.5,18.0,47.22
1554104592611,-3.217807,-8.447341999999999,-3.8552632000000004,0.18855181,-0.04474111,0.002130529,7.5,18.36,47.22
1554104592632,-3.1842883,-8.528744999999999,-3.7594953,0.1470065,-0.029827405,0.011717908999999999,7.5,18.72,47.16
1554104592651,-3.2513257999999996,-8.610147,-3.9606082000000002,0.13315806,-0.020240024,0.01917476,7.5,19.08,47.16
1554104592671,-3.2704793999999997,-8.658031,-4.0372224,0.15126756,-0.004261058,0.03089267,7.44,19.5,47.16
1554104592692,-3.2752678,-8.610147,-3.8839936,0.15339808,0.03195793,0.040480047000000005,7.44,19.92,47.16
1554104592711,-3.3183637000000004,-8.45213,-3.7163997,0.10652645,0.04261058,0.053263225,7.38,20.34,47.22
1554104592732,-3.2369606,-8.653243,-3.5727474999999997,0.06711166,0.024501082,0.051132694000000006,7.38,20.76,47.22
1554104592751,-3.0310593,-8.792108,-3.3812113,0.09161274,0.018109497,0.047936900000000005,7.32,21.12,47.22
1554104592771,-3.0358477,-8.701127,-3.4434607,0.14487597,0.040480047000000005,0.041545313,7.32,21.24,47.28
1554104592792,-3.193865,-8.600571,-3.6685154000000004,0.20453078,0.06285059999999999,0.012783173500000002,7.32,21.42,47.28
1554104592811,-3.4093432,-8.519167999999999,-3.7211879999999997,0.17789917,0.06498113,0.03089267,7.26,21.48,47.28
1554104592832,-3.4811692,-8.500014,-3.4961330000000004,0.10865697,0.05219796,0.034088463,7.26,21.6,47.28
1554104592852,-3.4093432,-8.629301,-3.4913447,0.05006743,0.033023197000000004,0.03195793,7.2,21.66,47.22
1554104592871,-3.3183637000000004,-8.619724,-3.3955764999999998,0.015978966,0.046871635999999994,0.047936900000000005,7.2,21.72,47.22
1554104592891,-3.4572272000000006,-8.701127,-3.4434607,0.056459017,0.06711166,0.05006743,7.14,21.78,47.16
1554104592912,-3.4332852,-8.576628999999999,-3.6254199000000003,0.13635385,0.082025364,0.05965481,7.14,21.84,47.16
1554104592933,-3.4715924,-8.533533,-3.591901,0.14061491,0.06711166,0.060720075,7.08,21.84,47.16
1554104592952,-3.4620156000000004,-8.341997000000001,-3.7068229,0.09267801,0.046871635999999994,0.043675844000000005,7.02,21.9,47.1
1554104592971,-3.4284968,-8.4664955,-3.5535938999999996,0.047936900000000005,0.026631612000000002,0.02876214,6.96,21.96,47.1
1554104592992,-3.2944214,-8.509591,-3.5727474999999997,0.023435817999999997,0.027696876000000002,0.013848438000000001,6.96,22.02,47.1
1554104593011,-3.371036,-8.504802999999999,-3.5823242999999994,0.046871635999999994,0.022370555,-0.004261058,6.96,22.02,47.16
1554104593032,-3.5003227999999997,-8.404246,-3.6780925000000004,0.060720075,0.0063915867,0.0,6.96,22.08,47.16
1554104593052,-3.4093432,-8.337209,-3.6062663,0.058589544,-0.008522116,-0.010652645,6.96,22.14,47.16
1554104593072,-3.4476504,-8.327632000000001,-3.6493617999999994,0.053263225,-0.01917476,-0.024501082,6.9,22.26,47.16
1554104593091,-3.5338415999999997,-8.54311,-3.6014779000000003,0.014913702,-0.03195793,-0.036218993,6.78,22.38,47.22
1554104593111,-3.5290532,-8.471283999999999,-3.4147300000000005,-0.024501082,-0.049002163,-0.06924219,6.72,22.5,47.22
1554104593132,-3.3806129,-8.5862055,-3.5296519,-0.058589544,-0.082025364,-0.07456851,6.66,22.62,47.22
1554104593152,-3.2369606,-8.677185,-3.4434607,-0.068176925,-0.099069595,-0.08841695,6.54,22.74,47.28
1554104593172,-3.1364042999999997,-8.701127,-3.3189620000000004,-0.025566347000000003,-0.096939065,-0.10439592,6.54,22.8,47.28
1554104593192,-3.1603463,-8.648455,-3.5009214999999996,0.0,-0.07350325,-0.08628642,6.48,22.92,47.28
1554104593212,-3.2369606,-8.619724,-3.3955764999999998,0.0010652645,-0.05965481,-0.07989483,6.48,22.98,47.28
1554104593232,-3.2273839,-8.581417,-3.5248635000000004,-0.011717908999999999,-0.017044231,-0.047936900000000005,6.6,22.86,47.28
1554104593252,-3.2561142000000003,-8.634089,-3.6780925000000004,-0.03089267,0.03089267,-0.014913702,6.72,22.86,47.28
1554104593271,-3.2896330000000003,-8.413822999999999,-3.6349967000000003,-0.082025364,0.07243799,0.008522116,6.78,22.8,47.28
1554104593292,-3.2992098,-8.495225999999999,-3.7547068999999995,-0.17576863,0.09267801,-0.01917476,6.84,22.8,47.28
1554104593312,-3.490746,-8.643666,-3.840898,-0.32597092,0.08735169,-0.05752428,6.84,22.74,47.28
1554104593331,-3.5721489999999996,-8.796896,-3.8313212,-0.44421527,0.05752428,-0.06498113,6.84,22.74,47.28
1554104593352,-3.466804,-9.098564999999999,-3.9079356,-0.5251754,0.054328485999999995,-0.05539375,6.84,22.62,47.34
1554104593372,-3.3806129,-9.012374000000001,-3.5440169999999998,-0.52837116,0.060720075,-0.05006743,6.84,22.44,47.34
1554104593392,-3.3423057000000003,-8.868722,-3.5823242999999994,-0.44847634,0.053263225,-0.02876214,6.78,22.26,47.34
1554104593411,-3.1076740000000003,-8.72507,-3.3333273,-0.17257284,0.07669904,0.014913702,6.78,21.9,47.34
1554104593431,-3.2848446000000004,-8.519167999999999,-3.5775358999999995,0.08735169,0.101200126,0.01917476,6.78,21.6,47.34
1554104593452,-3.3518825,-8.270171000000001,-3.7163997,0.24607609,0.08841695,0.01917476,6.78,21.3,47.28
1554104593472,-3.4093432,-8.227076,-3.9510313999999997,0.26418558,0.06285059999999999,0.025566347000000003,6.78,21.0,47.28
1554104593492,-3.4572272000000006,-8.030750999999999,-4.1138372,0.15659387,0.024501082,0.023435817999999997,6.84,20.7,47.22
1554104593512,-3.466804,-7.963713,-4.0755300000000005,0.004261058,-0.0031957934000000003,-0.011717908999999999,6.84,20.46,47.16
1554104593532,-3.4811692,-8.255806,-4.013280399999999,-0.12996227,-0.023435817999999997,-0.012783173500000002,6.84,20.28,47.16
1554104593551,-3.4045547999999997,-8.500014,-3.8265328000000003,-0.22690132,-0.05965481,-0.036218993,6.84,20.16,47.1
1554104593571,-3.3758245000000002,-8.7538,-3.7978023999999997,-0.21944448,-0.054328485999999995,-0.041545313,6.84,20.16,47.1
1554104593592,-3.122039,-8.796896,-3.7259765,-0.11611383,-0.04261058,-0.04474111,6.84,20.16,47.04
1554104593612,-3.1651347000000003,-8.634089,-3.7020345,0.008522116,-0.013848438000000001,-0.037284255,6.78,20.16,47.04
1554104593631,-3.2034418999999996,-8.528744999999999,-3.9749733999999997,0.068176925,-0.015978966,-0.024501082,6.78,20.16,47.04
1554104593651,-3.2752678,-8.385093,-3.9845502,0.06498113,-0.03195793,-0.010652645,6.72,20.1,47.04
1554104593672,-3.2752678,-8.380303999999999,-3.7307648999999996,0.022370555,-0.049002163,-0.018109497,6.72,20.1,46.98
1554104593692,-3.5625722,-8.4425535,-4.061165,-0.03834952,-0.03834952,-0.020240024,6.66,20.04,46.98
1554104593711,-3.6822822,-8.413822999999999,-3.8792052000000004,-0.07989483,-0.04474111,-0.025566347000000003,6.6,20.04,46.98
1554104593731,-3.3901896000000002,-8.672397,-3.8217443999999996,-0.09267801,-0.054328485999999995,-0.004261058,6.54,19.98,46.98
1554104593752,-2.9257145,-8.643666,-3.9558197999999996,-0.12250541,-0.049002163,0.00958738,6.54,19.98,46.98
1554104593772,-2.9831752999999996,-8.581417,-3.9558197999999996,-0.096939065,-0.01917476,0.0063915867,6.48,19.92,46.98
1554104593791,-2.96881,-8.523956,-3.9318779000000004,-0.035153727999999995,-0.00958738,0.0031957934000000003,6.48,19.86,47.04
1554104593811,-3.083732,-8.504802999999999,-3.9606082000000002,0.05006743,0.0063915867,-0.0031957934000000003,6.48,19.74,47.04
1554104593831,-3.3135752999999997,-8.456919000000001,-3.9558197999999996,0.10546118,0.0063915867,-0.034088463,6.48,19.68,47.1
1554104593852,-3.4428620000000003,-8.341997000000001,-3.946243,0.09161274,0.0010652645,-0.051132694000000006,6.54,19.56,47.16
1554104593872,-3.5913025999999997,-8.260594000000001,-3.9797617999999995,0.05752428,-0.011717908999999999,-0.05006743,6.66,19.5,47.22
1554104593892,-3.4955344,-8.289325,-4.0467997,0.004261058,-0.01917476,-0.033023197000000004,6.72,19.38,47.28
1554104593911,-3.3279405,-8.313267,-4.185663,-0.05965481,-0.024501082,-0.00958738,6.84,19.32,47.28
1554104593931,-3.2513257999999996,-8.413822999999999,-4.085107,-0.12463594,-0.004261058,-0.0053263223,6.9,19.26,47.34
1554104593952,-3.323152,-8.45213,-3.9079356,-0.112918034,0.03195793,-0.020240024,7.02,19.26,47.34
1554104593972,-3.2273839,-8.533533,-4.0420110000000005,-0.06604639400000001,0.040480047000000005,-0.040480047000000005,7.08,19.26,47.4
1554104593991,-3.3375172999999996,-8.610147,-3.9318779000000004,-0.01917476,0.03834952,-0.04474111,7.14,19.26,47.4
1554104594011,-3.3518825,-8.672397,-3.7834373,0.022370555,0.046871635999999994,-0.023435817999999997,7.08,19.26,47.46
1554104594031,-3.6391866000000004,-8.772953999999999,-3.7068229,0.05006743,0.06391586,0.013848438000000001,7.02,19.26,47.46
1554104594052,-3.7158010000000004,-8.969278,-3.9510313999999997,0.07243799,0.07350325,0.03834952,6.9,19.26,47.52
1554104594072,-3.6966474000000002,-9.160814,-3.8313212,0.10759171,0.09161274,0.11930962,6.78,19.2,47.52
1554104594091,-3.5482068,-9.0794115,-3.6924577000000003,0.21411815,0.12996227,0.20879184,6.6,19.14,47.52
1554104594112,-3.5960910000000004,-9.261371,-3.5009214999999996,0.4314321,0.17470337,0.32170987,6.48,19.08,47.46
1554104594131,-3.4093432,-9.481637,-2.8640637000000004,0.78723043,0.19707392,0.38349520000000004,6.36,19.08,47.46
1554104594152,-3.2321722999999998,-9.596559,-2.8544869999999998,1.1824435,0.22477080000000002,0.44528055,6.36,19.08,47.46
1554104594172,-3.3279405,-9.438541,-2.959832,1.5861788,0.30360037,0.5273059,6.36,19.32,47.46
1554104594191,-3.7636849999999997,-8.950125,-3.0268695,1.7459685,0.33981937,0.5784385999999999,6.3,20.1,47.34
1554104594212,-3.643975,-8.787319,-2.7347770000000002,1.6532904,0.35899413,0.6306366,6.3,20.82,47.28
1554104594231,-3.6104562000000007,-8.873510000000001,-2.629432,1.5797871,0.37710363,0.61891866,6.3,21.36,47.22
1554104594253,-3.8115692,-8.988432000000001,-1.9973627,1.6373115,0.43036684,0.58483016,6.3,23.1,47.1
1554104594272,-3.7732617999999993,-9.050680999999999,-1.7244238,1.7779262999999998,0.4282363,0.5837649,6.3,23.82,47.04
1554104594292,-3.8690300000000004,-7.9876556,-2.1027076,1.7342505000000001,0.41225734,0.50387007,6.24,26.28,46.8
1554104594312,-4.2664676,-7.882310400000001,-2.2990322,1.4753913,0.33662358,0.40906155,6.18,28.14,46.62
1554104594332,-4.338293599999999,-7.973290400000001,-2.0931308,1.1622036,0.23968449999999997,0.314253,6.12,29.88,46.38
1554104594351,-4.2760444,-7.9541364,-2.1122843999999996,0.90014845,0.17896444,0.22583607,6.06,31.68,46.2
1554104594371,-4.5537715,-7.599794999999999,-2.1122843999999996,0.63702816,0.15233281,0.13848437,5.94,33.24,46.02
1554104594391,-4.8458643,-7.451353999999999,-2.0883423999999997,0.314253,0.13954964,0.113983296,5.82,34.56,45.78
1554104594412,-4.6495394999999995,-7.4896617,-2.0883423999999997,-0.06285059999999999,0.096939065,0.096939065,5.76,35.76,45.6
1554104594431,-4.635174299999999,-7.867945,-1.8106151000000001,-0.34088463,0.06391586,0.07882957,5.64,36.72,45.42
1554104594452,-4.429273,-8.140884,-1.738789,-0.43995422,0.04261058,0.04580637,5.58,37.44,45.24
1554104594472,-4.367024,-8.404246,-1.7435773999999997,-0.41971418,0.036218993,0.034088463,5.52,37.92,45.12
1554104594492,-4.43885,-8.413822999999999,-1.6573862000000001,-0.4261058,0.017044231,-0.024501082,5.46,38.22,45.0
1554104594512,-4.4196963,-8.749011999999999,-1.6669630000000002,-0.3717773,-0.026631612000000002,-0.054328485999999995,5.4,38.28,44.94
1554104594531,-4.228160400000001,-8.930971000000001,-1.4754268,-0.27696875,-0.06498113,-0.082025364,5.34,38.22,44.94
1554104594552,-4.103661499999999,-9.136872,-1.489792,-0.18216023,-0.10865697,-0.10226539,5.34,38.16,44.94
1554104594571,-4.5058875,-8.954913000000001,-1.417966,-0.051132694000000006,-0.09374327,-0.11717909,5.34,37.98,45.0
1554104594592,-4.654328,-8.658031,-1.7100586,-0.035153727999999995,-0.07882957,-0.07882957,5.34,37.8,45.06
1554104594614,-4.525041000000001,-8.198345,-2.1697452,-0.20772657,-0.09054748,-0.03834952,5.28,37.56,45.12
1554104594632,-4.453215,-8.131308,-2.0931308,-0.49321744,-0.10226539,-0.037284255,5.28,37.38,45.12
1554104594651,-4.5537715,-7.934983,-2.2176294,-0.7978831000000001,-0.111852765,-0.07563378,5.28,37.08,45.18
1554104594673,-4.534618,-7.6668324000000005,-2.3038206000000003,-1.1132014,-0.15126756,-0.11824436,5.28,36.78,45.24
1554104594692,-4.692635500000001,-7.422623599999999,-3.1609447,-1.4349113000000002,-0.18642128,-0.18855181,5.34,36.3,45.24
1554104594712,-4.9224787,-7.2646065,-3.7738605000000005,-1.75236,-0.19920446,-0.20559604,5.34,35.7,45.24
1554104594732,-4.362235500000001,-7.092224000000001,-4.291008000000001,-2.2402509999999998,-0.25353295,-0.21837921,5.4,34.98,45.24
1554104594752,-4.0414124,-6.9437833,-4.487332299999999,-2.8740835,-0.2727077,-0.35579833,5.4,33.96,45.3
1554104594772,-4.247314,-7.341221000000001,-5.0667295,-3.487676,-0.21837921,-0.39840892,5.46,32.58,45.48
1554104594792,-3.6679169999999996,-8.246229,-4.947019,-3.8850195,-0.21624869,-0.41119209999999995,5.52,30.78,45.66
1554104594812,-3.6774937999999993,-8.557475,-4.64535,-3.8946068,-0.15126756,-0.45912898,5.58,28.56,45.84
1554104594832,-3.6822822,-8.519167999999999,-4.180875,-3.4493263,-0.10439592,-0.50173956,5.64,25.86,46.08
1554104594852,-3.7684733999999995,-8.169615,-4.267066000000001,-2.630138,-0.08735169,-0.5475459,5.76,22.86,46.26
1554104594872,-4.0222587999999995,-8.088212,-4.932654,-1.5968314,-0.054328485999999995,-0.5209143,5.88,19.62,46.5
1554104594891,-3.9073372,-8.552686999999999,-5.5886655,-0.8021441,-0.08948222,-0.43888897,6.06,16.5,46.62
1554104594912,-4.261679,-8.322844,-5.9717374,-0.34940675,-0.11717909,-0.40906155,6.24,13.38,46.74
1554104594932,-4.5537715,-8.030750999999999,-6.2207346,-0.12463594,-0.12783173,-0.32170987,6.42,10.56,46.62
1554104594952,-4.7405194999999996,-7.5566993,-6.153697,-0.096939065,-0.12783173,-0.20559604,6.6,8.1,46.5
1554104594971,-3.9647980000000005,-7.839214999999999,-5.789778,-0.11930962,-0.16298546,-0.10972224,6.84,5.4,46.2
1554104594991,-4.0318356,-7.4274119999999995,-5.607819,-0.060720075,-0.09054748,-0.07989483,6.9,4.26,45.96
1554104595012,-3.8259343999999995,-7.149685000000001,-5.4593782,-0.012783173500000002,-0.06498113,-0.049002163,6.96,3.84,45.9
1554104595031,-3.6727053999999995,-6.713939999999999,-5.928642,0.020240024,-0.011717908999999999,-0.026631612000000002,7.02,3.12,45.66
1554104595051,-3.6248214,-7.044339999999999,-5.9956794,0.03089267,0.024501082,-0.0063915867,6.96,2.94,45.6
1554104595071,-3.643975,-6.7666125,-6.2925606,0.00958738,0.10439592,0.0063915867,7.02,2.7,45.42
1554104595092,-3.7732617999999993,-6.3021374,-6.2207346,-0.083090626,0.13102753,-0.011717908999999999,7.02,2.64,45.42
1554104595112,-3.8881836000000005,-6.177639,-6.1489085999999995,-0.111852765,0.14061491,-0.013848438000000001,6.96,2.58,45.48
1554104595132,-3.5386300000000004,-6.675633,-6.273407,-0.11611383,0.08628642,-0.018109497,6.96,2.58,45.48
1554104595152,-3.9456443999999995,-6.666056,-6.5990186,-0.07563378,0.09587380000000001,-0.058589544,6.96,2.52,45.48
1554104595172,-3.9121256,-6.517616,-6.7091517000000005,-0.098004326,0.07776430000000001,-0.06285059999999999,6.96,2.52,45.48
1554104595191,-4.0845080000000005,-6.239888,-6.7043633,-0.15978967,0.07350325,-0.084155895,6.9,2.46,45.48
1554104595213,-3.9264907999999994,-6.7283053,-6.3548098,-0.20240025,0.03195793,-0.06711166,6.9,2.34,45.42
1554104595232,-3.7732617999999993,-6.8097080000000005,-6.072294,-0.23222765,0.02876214,-0.07776430000000001,6.84,2.28,45.42
1554104595251,-3.9695864000000003,-6.747458999999999,-6.192004,-0.1470065,0.03834952,-0.111852765,6.84,2.22,45.42
1554104595271,-4.1611223,-6.9246297000000006,-6.4840965,-0.02130529,0.041545313,-0.09587380000000001,6.78,2.1,45.36
1554104595291,-3.9552212,-6.6229606,-6.7091517000000005,-0.037284255,0.027696876000000002,-0.08735169,6.72,1.98,45.36
1554104595311,-3.8163576,-6.713939999999999,-6.6085954,-0.1587244,0.007456851,-0.09587380000000001,6.72,1.86,45.3
1554104595331,-3.8067808,-6.9246297000000006,-6.14412,-0.26631612,-0.02130529,-0.12037488,6.72,1.74,45.24
1554104595352,-3.8067808,-7.2023573,-6.000468,-0.036218993,-0.043675844000000005,-0.15020229,6.66,1.56,45.24
1554104595371,-3.8642415999999997,-7.3938932,-6.168062,0.35792887,-0.033023197000000004,-0.13209279,6.66,1.44,45.24
1554104595391,-3.7253778,-7.0491285,-6.3979053,0.58696073,-0.040480047000000005,-0.12570119999999999,6.66,1.32,45.24
1554104595413,-3.4476504,-6.737882000000001,-6.0770826,0.5603291,-0.084155895,-0.12676647,6.6,1.2,45.18
1554104595432,-3.6104562000000007,-7.0395517000000005,-6.019622,0.6295713000000001,-0.09054748,-0.14594123,6.6,1.14,45.18
1554104595452,-3.5673605999999998,-6.9102645,-6.0531406,0.7030744999999999,-0.05752428,-0.17576863,6.6,1.08,45.18
1554104595471,-3.5051112,-7.116166000000001,-6.4362125,0.78936094,-0.07030745599999999,-0.16618125,6.6,1.08,45.18
1554104595491,-3.4955344,-6.7522473,-6.508039,0.5965481,-0.049002163,-0.17257284,6.6,1.26,45.24
1554104595512,-3.6631286,-6.761824000000001,-5.9717374,0.41758367,-0.047936900000000005,-0.24394555,6.6,1.62,45.24
1554104595531,-4.0414124,-7.178415299999999,-6.096236,0.37284255,-0.07243799,-0.28016454,6.6,2.22,45.24
1554104595551,-3.7876269999999996,-7.614160000000001,-6.287772,0.33449304,-0.056459017,-0.19387813,6.6,2.82,45.24
1554104595572,-3.8642415999999997,-7.614160000000001,-6.0770826,0.3323625,-0.018109497,-0.13954964,6.66,3.42,45.24
1554104595593,-3.8067808,-7.85358,-5.6604915,0.30679616,-0.012783173500000002,-0.10759171,6.72,4.08,45.3
1554104595611,-3.739743,-7.944559599999999,-5.148132299999999,0.34088463,0.08948222,-0.082025364,6.84,4.74,45.3
1554104595632,-3.490746,-7.6764092,-4.9996915,0.40586576,0.21944448,-0.020240024,6.9,5.46,45.36
1554104595651,-3.6296098,-7.566275999999999,-5.7227407,0.36005938,0.25353295,0.037284255,6.96,6.06,45.36
1554104595671,-3.8115692,-7.269394999999999,-5.7706246,0.18216023,0.24074976,0.06285059999999999,7.08,6.48,45.42
1554104595691,-3.490746,-7.4465656000000005,-5.277419,0.013848438000000001,0.20559604,0.10333065,7.14,6.66,45.54
1554104595711,-3.4524388,-7.7769656000000005,-5.239112,-0.054328485999999995,0.16724652,0.099069595,7.14,6.9,45.6
1554104595731,-3.490746,-7.719505000000001,-5.263054,-0.004261058,0.1470065,0.07989483,7.14,7.2,45.72
1554104595752,-3.6918589999999996,-7.49445,-5.5168395,0.17044231,0.12676647,0.056459017,7.14,7.44,45.78
1554104595771,-3.7349546,-7.0012445,-6.177639,0.22050974,0.08522116,0.06711166,7.08,7.68,45.9
1554104595792,-3.8546648,-6.737882000000001,-5.9717374,0.06178534,0.10013486,0.07030745599999999,6.84,7.92,46.08
1554104595811,-3.6774937999999993,-6.9677253,-5.81372,-0.23435818,0.098004326,0.056459017,6.66,8.04,46.14
1554104595831,-3.5242648,-6.9916677,-5.263054,-0.37603834,0.06178534,-0.002130529,6.48,8.22,46.2
1554104595851,-3.8067808,-6.8719573,-5.3396683,-0.36751625,0.07137272,-0.026631612000000002,6.3,8.4,46.2
1554104595871,-3.5721489999999996,-6.848015299999999,-5.224746700000001,-0.41864893,0.06498113,-0.033023197000000004,6.12,8.52,46.26
1554104595892,-3.6296098,-6.5511346,-5.468955,-0.52837116,0.01917476,-0.08735169,5.88,8.58,46.26
1554104595912,-3.6296098,-7.0874357,-5.521628,-0.55287224,0.0010652645,-0.094808534,5.76,8.58,46.26
1554104595932,-3.3087866000000004,-7.647678999999999,-5.8328739999999994,-0.43356264,0.037284255,-0.07137272,5.64,8.46,46.26
1554104595953,-3.4189199999999995,-7.949348,-5.938218599999999,-0.19174760000000002,0.08628642,-0.084155895,5.64,8.16,46.26
1554104595973,-3.7828386,-7.283760000000001,-5.952584,-0.033023197000000004,0.09374327,-0.06498113,5.64,7.8,46.26
1554104595993,-3.6966474000000002,-7.1305312999999995,-6.393117,-0.035153727999999995,0.035153727999999995,-0.043675844000000005,5.58,7.38,46.26
1554104596012,-3.5577837999999997,-7.6093717000000005,-6.579865,-0.10439592,-0.015978966,-0.022370555,5.58,6.9,46.26
1554104596032,-3.7493198,-7.417835,-6.239888,-0.10759171,-0.013848438000000001,-0.015978966,5.64,6.42,46.26
1554104596052,-3.7972038,-7.1209545,-5.7849900000000005,-0.09161274,-0.02130529,0.0063915867,5.64,6.0,46.32
1554104596072,-3.6487634,-7.1688385,-5.9238534000000005,-0.07776430000000001,-0.04261058,0.020240024,5.64,5.58,46.32
1554104596092,-3.6583402,-6.824073299999999,-5.7754129999999995,-0.12783173,-0.053263225,-0.004261058,5.64,5.34,46.32
1554104596112,-3.5003227999999997,-7.4896617,-5.9477954,-0.011717908999999999,-0.06604639400000001,0.015978966,5.58,5.22,46.32
1554104596131,-3.3901896000000002,-7.436989,-6.2303114,0.04261058,-0.08522116,0.0,5.58,5.16,46.32
1554104596151,-3.6296098,-7.283760000000001,-6.5511346,0.09267801,-0.080960095,-0.025566347000000003,5.58,5.16,46.32
1554104596171,-3.5577837999999997,-6.996455999999999,-5.928642,0.083090626,-0.068176925,-0.0063915867,5.58,5.1,46.26
1554104596192,-3.9217023999999996,-7.3220673,-6.373963400000001,0.04580637,-0.098004326,0.01917476,5.58,5.1,46.2
1554104596211,-3.7732617999999993,-7.867945,-6.201581,0.053263225,-0.09587380000000001,0.060720075,5.52,5.1,46.2
1554104596232,-3.9504328,-7.441777,-5.6748567,0.07563378,-0.026631612000000002,0.07243799,5.52,5.1,46.14
1554104596252,-3.9456443999999995,-7.5519110000000005,-5.00448,0.12357068,-0.056459017,0.14168017,5.58,5.1,46.14
1554104596272,-3.8546648,-8.054692999999999,-6.0387754000000005,0.28655612,-0.15765914,0.15659387,5.58,5.04,46.14
1554104596291,-3.9073372,-8.107366,-6.4026937,0.40266997,-0.13102753,0.19920446,5.64,5.04,46.08
1554104596311,-4.0078936,-7.3843164,-6.306926,0.40053943,-0.101200126,0.19707392,5.64,5.04,46.08
1554104596332,-3.8929720000000003,-7.7626004,-5.4737434,0.38456047,-0.13315806,0.2695119,5.7,5.1,46.08
1554104596352,-3.9695864000000003,-8.284536,-4.836886,0.54435015,-0.15552860000000002,0.28336033,5.7,5.34,46.08
1554104596372,-4.232949,-8.883087,-4.932654,1.0503508,-0.13848437,0.34727620000000003,5.76,5.7,46.14
1554104596391,-4.232949,-8.902241,-6.0291986,1.4146712,-0.14807177,0.44421527,5.82,6.06,46.14
1554104596411,-4.831499,-8.892664,-6.019622,1.4136058999999999,-0.18429075,0.53263223,5.82,6.42,46.2
1554104596433,-5.272032299999999,-9.529521,-5.4593782,1.3763216999999999,-0.2908172,0.664725,5.82,6.96,46.26
1554104596452,-5.4061074,-9.989208,-5.3396683,1.4977618000000001,-0.37603834,0.809601,5.88,7.8,46.32
1554104596472,-5.444414599999999,-9.658808,-4.947019,1.6266588,-0.45380265,0.9683254000000001,5.94,8.94,46.44
1554104596492,-5.353435,-9.438541,-4.147355999999999,1.7544906000000002,-0.5411543000000001,1.0961571,6.0,10.38,46.5
1554104596512,-5.5162406,-9.35235,-3.9797617999999995,2.0176108,-0.572047,1.2239889,6.18,11.76,46.56
1554104596532,-5.463568,-8.385093,-4.065953299999999,2.1582258,-0.5603291,1.3081448,6.3,13.44,46.68
1554104596552,-5.889736,-7.647678999999999,-3.9797617999999995,2.0080235,-0.5113269,1.3954965,6.48,15.3,46.8
1554104596572,-5.923255,-7.1448965,-2.7874494,1.6650082999999998,-0.56885123,1.4530207,6.78,17.34,46.8
1554104596592,-5.334281400000001,-7.2023573,-1.9782091,1.700162,-0.6040049,1.530785,7.44,20.52,46.86
1554104596612,-5.032612,-6.4457892999999995,-2.1362264,1.7289241999999998,-0.5795039000000001,1.4732608,7.74,21.42,46.92
1554104596631,-5.645528,-5.842450599999999,-2.4905684,1.6074841,-0.48043427,1.3092101,8.64,24.06,46.92
1554104596651,-6.0046577,-5.3300915,-2.5192987999999996,1.2538162,-0.39521313,1.2484899999999999,9.24,25.74,46.92
1554104596672,-5.966350599999999,-5.1816510000000005,-2.2080526000000003,0.8064051999999999,-0.3898868,1.1792477,9.84,27.24,46.8
1554104596692,-6.1387334000000005,-5.373187000000001,-2.1936872000000003,0.28229508,-0.32277513,1.1121361,10.5,28.8,46.68
1554104596712,-6.5218053,-5.4593782,-1.1976993999999999,-0.16192019,-0.30253512,1.0141318000000001,11.16,30.18,46.5
1554104596732,-6.7133417,-6.000468,0.18614918,-0.1470065,-0.35260254,0.9715212,11.7,31.26,46.38
1554104596751,-6.191406,-6.2351,-0.17776948,0.30999196,-0.33662358,0.8852348,12.3,32.22,46.2
1554104596771,-6.9144545,-5.6365495,-0.6087258000000001,0.6956177,-0.24501082,0.74461985,12.9,33.06,46.02
1554104596793,-7.0245875999999985,-5.167286,-1.039682,0.76912093,-0.2428803,0.680704,13.56,33.72,45.84
1554104596812,-6.7468604999999995,-4.635773,-0.7667431,0.5581986,-0.27057716,0.5539375,14.16,34.2,45.72
1554104596832,-7.0820484,-4.851251,-0.5177461,0.30146983,-0.27164245,0.40053943,14.76,34.5,45.6
1554104596852,-7.2209125,-5.3157263,-0.14903906,0.18216023,-0.27377295,0.29827404,15.24,34.56,45.48
1554104596872,-7.2209125,-5.406706,-0.13467385,0.24714136,-0.28549087,0.21837921,15.66,34.68,45.42
1554104596892,-7.5369470000000005,-5.4641665999999995,-0.5033809,0.27377295,-0.22264028,0.17363810000000002,16.08,34.86,45.36
1554104596912,-7.627927000000001,-5.401917500000001,-0.56084174,0.18002969,-0.20772657,0.14913702,16.26,35.04,45.24
1554104596931,-7.8050976,-5.521628,-0.27353755,0.033023197000000004,-0.18002969,0.12250541,16.44,35.28,45.12
1554104596951,-7.953538000000001,-5.5503583,0.15741876,0.004261058,-0.165116,0.10865697,16.44,35.52,45.0
1554104596972,-7.7811556,-5.555146700000001,0.44472298,0.07882957,-0.17789917,0.12357068,16.5,35.76,44.76
1554104596991,-7.5369470000000005,-5.4210709999999995,0.52133745,0.14061491,-0.1438107,0.10439592,16.62,36.0,44.58
1554104597011,-7.2640080000000005,-4.875193,0.6314706999999999,0.07882957,-0.10226539,0.05965481,16.74,36.24,44.4
1554104597032,-8.006210000000001,-4.9661726999999996,-0.5033809,0.060720075,-0.023435817999999997,-0.049002163,16.86,36.36,44.22
1554104597052,-8.51857,-5.4402246,-0.19692309,0.035153727999999995,-0.05219796,-0.05006743,16.98,36.42,44.1
1554104597071,-8.154651,-5.8089319999999995,-0.091578215,0.060720075,-0.1587244,-0.024501082,17.1,36.48,43.98
1554104597095,-8.058883,-5.5168395,0.10474633,0.07669904,-0.16192019,-0.002130529,17.22,36.54,43.86
1554104597112,-8.015787,-4.956596,0.30585927,-0.0063915867,-0.15552860000000002,-0.0010652645,17.4,36.6,43.8
1554104597131,-7.9104424,-5.143344,0.08080431,-0.1438107,-0.14274544,-0.023435817999999997,17.52,36.66,43.74
1554104597151,-8.0684595,-5.3636102999999995,0.3537433,-0.22583607,-0.10865697,-0.060720075,17.58,36.72,43.74
1554104597172,-7.848192999999999,-5.612607499999999,-0.014963761,-0.18642128,-0.10652645,-0.06391586,17.76,36.84,43.68
1554104597191,-7.603985000000001,-5.976526,-0.048482585999999994,-0.1949434,-0.11504856,-0.058589544,17.88,36.9,43.68
1554104597211,-7.881711999999999,-5.8328739999999994,0.25318682,-0.24820662,-0.07882957,-0.06178534,18.06,36.9,43.62
1554104597232,-7.9008656,-5.583876999999999,0.5835866999999999,-0.14168017,-0.06391586,-0.053263225,18.24,36.9,43.56
1554104597253,-7.2927384,-5.502473999999999,0.55485624,-0.025566347000000003,-0.05006743,-0.06391586,18.36,36.78,43.5
1554104597272,-7.833828,-5.5695120000000005,-0.28311434,-0.010652645,0.040480047000000005,-0.08948222,18.42,36.66,43.5
1554104597292,-8.882488,-5.761048000000001,-0.39803603,-0.16405073,0.05539375,-0.09161274,18.48,36.48,43.44
1554104597312,-8.695741,-5.7802014,-0.06284779,-0.22370553,-0.068176925,-0.056459017,18.54,36.36,43.44
1554104597332,-7.455544000000001,-5.3779755,0.24361002,-0.12250541,-0.14274544,-0.037284255,18.6,36.18,43.44
1554104597352,-7.1826053,-5.2199583,0.43035775,-0.07243799,-0.068176925,-0.07882957,18.6,36.06,43.5
1554104597372,-7.383717999999999,-5.263054,0.6218939,-0.10652645,-0.03195793,-0.18322548,18.54,35.88,43.56
1554104597392,-7.0581064,-5.2343235,0.7224503999999999,-0.18002969,0.033023197000000004,-0.23329292,18.54,35.82,43.62
1554104597412,-7.201759,-4.923076999999999,0.30585927,-0.26631612,0.16937704,-0.3206446,18.48,35.76,43.68
1554104597432,-7.809886,-4.429871599999999,-0.74758947,-0.47297743,0.2876214,-0.39201729999999996,18.48,35.76,43.74
1554104597451,-7.819463000000001,-5.09546,-0.98222125,-0.7052050999999999,0.2876214,-0.44741106,18.42,35.76,43.8
1554104597471,-7.7189064,-6.072294,-0.7858967,-1.0844392,0.3568636,-0.45273739999999996,18.42,35.7,43.86
1554104597491,-8.6095495,-6.8097080000000005,-0.45070848,-1.1824435,0.39095205,-0.45699844,18.36,35.58,43.98
1554104597512,-8.528147,-7.211933999999999,-0.42197806,-0.8213189000000001,0.2428803,-0.36964676,18.3,35.4,44.04
1554104597531,-7.848192999999999,-7.029975,-1.0109516,-0.3153183,0.12676647,-0.28442562,18.3,35.04,44.16
1554104597551,-7.575253999999999,-6.000468,-0.9391255999999999,-0.02876214,0.068176925,-0.24607609,18.18,34.14,44.28
1554104597572,-7.201759,-5.224746700000001,-0.82899237,0.027696876000000002,0.002130529,-0.25353295,18.12,33.54,44.4
1554104597592,-6.895301,-5.133767,-0.6422445999999999,-0.04580637,-0.004261058,-0.28442562,18.06,33.24,44.46
1554104597612,-6.4260373,-4.9996915,-0.10594343,-0.24820662,0.056459017,-0.36964676,17.94,32.7,44.64
1554104597631,-5.760449400000001,-5.0332108,-0.15861586,-0.51026165,0.1587244,-0.5837649,17.76,31.86,44.82
1554104597652,-5.1906295,-4.9135003,-0.46028528,-0.8213189000000001,0.257794,-0.8000136,17.52,31.38,45.0
1554104597672,-4.917690299999999,-4.2957964,-1.1258733,-1.0471549,0.43569317,-1.0460896000000002,17.28,31.08,45.12
1554104597692,-4.807557,-4.64535,-1.2360066,-1.0578076,0.46339005,-1.2048141,16.98,30.96,45.3
1554104597712,-4.2664676,-5.856816,-1.039682,-0.79894835,0.4250405,-1.4679343999999999,16.68,30.84,45.48
1554104597732,-4.1802763999999994,-6.5990186,-1.4323312,-0.29614353,0.49534798,-1.7619474,16.38,30.6,45.6
1554104597752,-4.156333999999999,-6.9246297000000006,-2.509722,0.08735169,0.60507023,-1.8354506000000002,16.2,30.48,45.66
1554104597771,-4.3813889999999995,-7.0587053,-4.0276456,0.21518342,0.6508765999999999,-1.8546255,15.54,30.06,45.78
1554104597791,-4.7405194999999996,-6.7761892999999995,-4.449025,-0.15978967,0.6317018,-1.9281287,14.94,29.82,45.9
1554104597811,-4.6208089999999995,-7.508815299999999,-4.228758999999999,-0.6540724,0.49960902,-2.034655,14.28,29.52,46.02
1554104597832,-4.6495394999999995,-8.883087,-3.4674027,-0.8426242,0.29614353,-2.1443772,13.44,29.22,46.14
1554104597852,-5.085284,-10.659583999999999,-3.7211879999999997,-0.71159667,0.25140239999999997,-2.0463731,12.6,28.92,46.2
1554104597872,-5.3486465999999995,-10.357915,-3.7068229,-0.6625945,0.37071204,-1.7257284,11.76,28.74,46.32
1554104597891,-6.5457472999999995,-10.559028,-3.0603882999999996,-0.44421527,0.4133226,-1.5691346000000002,10.92,28.62,46.56
1554104597911,-7.3885064,-10.721834,-2.4522612,-0.32277513,0.18855181,-1.5243934,10.2,28.38,46.8
1554104597932,-6.780379300000001,-11.162367,-2.830545,-0.41225734,-0.068176925,-1.3443637,9.6,28.2,47.04
1554104597951,-5.5401826,-10.932524,-2.8496985,-0.7946873000000001,-0.24820662,-0.93849796,9.18,27.96,47.22
1554104597972,-5.0038815,-11.387422,-2.1697452,-0.93636745,-0.33449304,-0.7595335999999999,8.88,27.72,47.34
1554104597992,-4.917690299999999,-11.6747265,-1.8632874,-0.8341021000000001,-0.4250405,-0.6870956,8.7,27.48,47.46
1554104598011,-3.9600096,-11.444882000000002,-1.9973627,-0.25353295,-0.43356264,-0.45806372,8.64,27.0,47.58
1554104598032,-3.098097,-10.310031,-2.4714148,0.21411815,-0.30040458,-0.31105720000000003,8.52,26.4,47.58
1554104598051,-3.3279405,-9.146449,-3.0508115,0.46019423,-0.15659387,-0.21944448,8.46,25.92,47.46
1554104598071,-3.5673605999999998,-8.734647,-3.5296519,0.5006742999999999,-0.14168017,-0.14168017,8.34,25.56,47.34
1554104598092,-3.3375172999999996,-8.782531,-3.5823242999999994,0.48149952,-0.21624869,-0.06924219,8.28,25.14,47.22
1554104598111,-2.9161377,-8.380303999999999,-3.520075,0.42184472,-0.23755397,0.013848438000000001,8.22,24.78,47.16
1554104598133,-2.6479871,-8.308478,-3.3381157,0.28229508,-0.17789917,0.05965481,8.22,24.54,47.1
1554104598152,-2.8443117,-8.069058,-3.0268695,0.17789917,-0.13741912,0.0,8.28,24.42,47.04
1554104598172,-3.1268275,-8.356361999999999,-3.1130607000000006,0.096939065,-0.13102753,-0.04580637,8.28,24.66,46.98
1554104598192,-2.954445,-8.500014,-2.7204118,0.049002163,-0.16298546,-0.068176925,8.4,24.96,46.98
1554104598212,-2.801216,-8.361151,-3.0747535,0.029827405,-0.15339808,-0.09267801,8.52,25.2,46.92
1554104598232,-2.8538885,-8.883087,-2.9167361,-0.15659387,-0.14807177,-0.03834952,8.7,25.44,46.92
1554104598252,-2.9161377,-9.266159,-2.6581624,-0.26418558,-0.14168017,-0.03089267,8.82,25.68,46.92
1554104598272,-2.954445,-9.491214,-2.461838,-0.13209279,-0.11504856,-0.051132694000000006,8.94,25.92,46.86
1554104598292,-2.8921957000000003,-9.44333,-2.4762032000000005,-0.017044231,-0.053263225,-0.017044231,9.06,26.1,46.86
1554104598311,-3.0071173,-9.280524,-2.5480292,0.060720075,-0.0031957934000000003,-0.011717908999999999,9.18,26.16,46.8
1554104598331,-3.1603463,-9.0794115,-2.380435,0.08841695,0.02876214,-0.014913702,9.3,26.16,46.8
1554104598352,-3.2800562000000006,-8.983644,-2.581548,0.07030745599999999,0.04580637,-0.0053263223,9.48,26.22,46.74
1554104598372,-3.3087866000000004,-9.041103999999999,-2.461838,0.022370555,0.04580637,-0.010652645,9.48,26.22,46.74
1554104598392,-3.2992098,-8.854357,-2.7156234,-0.03834952,0.034088463,-0.033023197000000004,9.54,26.22,46.68
1554104598411,-3.2800562000000006,-8.811261,-2.710835,-0.082025364,0.01917476,-0.05006743,9.6,26.22,46.68
1554104598432,-3.2465374,-8.839992,-2.7682957999999998,-0.10439592,0.0063915867,-0.049002163,9.6,26.22,46.62
1554104598452,-3.0502129,-8.849568,-2.7012582000000003,-0.06498113,-0.011717908999999999,-0.058589544,9.6,26.28,46.62
1554104598471,-3.083732,-8.69155,-3.0364463,-0.025566347000000003,-0.0010652645,-0.07456851,9.6,26.28,46.62
1554104598491,-3.1651347000000003,-8.658031,-2.9789855,-0.025566347000000003,0.0010652645,-0.07137272,9.6,26.28,46.62
1554104598512,-3.1890767,-8.72507,-2.9789855,-0.06711166,-0.025566347000000003,-0.07456851,9.6,26.22,46.68
1554104598532,-3.1603463,-8.763377,-2.9215245,-0.099069595,-0.043675844000000005,-0.07137272,9.6,26.16,46.74
1554104598552,-3.1651347000000003,-8.974067,-2.9646204,-0.15233281,-0.049002163,-0.082025364,9.6,26.04,46.86
1554104598572,-3.1028854999999997,-9.065046,-2.830545,-0.15339808,-0.040480047000000005,-0.07669904,9.66,25.92,46.92
1554104598591,-3.1316159,-9.156025999999999,-2.830545,-0.10865697,-0.036218993,-0.07456851,9.72,25.86,46.98
1554104598612,-3.0310593,-9.199121,-2.6629508,-0.08948222,-0.023435817999999997,-0.049002163,9.78,25.8,47.04
1554104598632,-2.9975405,-9.1512375,-2.6868927000000005,-0.07989483,-0.002130529,-0.039414786,9.78,25.74,47.04
1554104598651,-3.1028854999999997,-9.122507,-2.7970262000000004,-0.041545313,0.014913702,-0.035153727999999995,9.78,25.68,47.1
1554104598671,-3.1124623,-9.065046,-2.806603,0.01917476,0.029827405,-0.024501082,9.84,25.62,47.1
1554104598693,-3.0693667000000002,-8.969278,-2.926313,0.05752428,0.040480047000000005,-0.020240024,9.84,25.68,47.1
1554104598711,-3.2513257999999996,-8.7538,-2.8401217,0.037284255,0.053263225,-0.02876214,9.84,25.68,47.1
1554104598732,-3.2992098,-8.787319,-2.7970262000000004,0.0031957934000000003,0.05219796,-0.029827405,9.84,25.68,47.04
1554104598752,-3.2848446000000004,-8.998009,-2.9933507,-0.017044231,0.040480047000000005,-0.029827405,9.84,25.68,47.04
1554104598771,-3.2465374,-8.897452000000001,-2.9167361,-0.020240024,0.03195793,-0.034088463,9.84,25.62,46.98
1554104598792,-3.0214825000000003,-8.883087,-2.9167361,-0.012783173500000002,0.024501082,-0.033023197000000004,9.84,25.68,46.98
1554104598812,-3.064578,-8.978855000000001,-3.1944637000000005,-0.0063915867,0.023435817999999997,-0.03195793,9.9,25.68,46.92
1554104598831,-3.0502129,-8.902241,-3.0268695,-0.0053263223,0.034088463,-0.01917476,9.9,25.68,46.92
1554104598852,-3.0597897,-8.863934,-2.9741971,0.017044231,0.037284255,-0.013848438000000001,9.9,25.68,46.86
1554104598872,-3.0789435000000003,-8.878299,-3.0556,0.01917476,0.043675844000000005,-0.0010652645,9.9,25.68,46.86
1554104598892,-3.0454244999999998,-8.839992,-2.9885623,0.0053263223,0.051132694000000006,0.015978966,9.9,25.68,46.86
1554104598912,-3.145981,-8.863934,-2.8353333,0.0,0.068176925,0.012783173500000002,9.9,25.62,46.92
1554104598931,-3.1507695,-8.734647,-2.902371,-0.002130529,0.07030745599999999,-0.002130529,9.9,25.62,46.92
1554104598951,-3.2465374,-8.768166,-2.959832,-0.015978966,0.06711166,-0.01917476,9.84,25.62,46.92
1554104598971,-3.3614593,-8.839992,-3.0603882999999996,-0.025566347000000003,0.05752428,-0.034088463,9.78,25.56,46.98
1554104598992,-3.193865,-8.835203,-2.9406781000000004,-0.054328485999999995,0.04474111,-0.03089267,9.72,25.5,46.98
1554104599012,-3.2513257999999996,-8.892664,-2.9502552000000004,-0.068176925,0.034088463,-0.02876214,9.66,25.44,46.98
1554104599031,-3.169923,-9.0315275,-3.0556,-0.07137272,0.023435817999999997,-0.013848438000000001,9.6,25.38,46.92
1554104599051,-3.1507695,-9.088988,-2.9502552000000004,-0.040480047000000005,0.013848438000000001,-0.00958738,9.54,25.26,46.86
1554104599071,-3.0741549999999997,-8.930971000000001,-3.0508115,-0.002130529,0.018109497,-0.002130529,9.42,25.2,46.74
1554104599091,-3.1076740000000003,-8.801684,-3.031658,0.036218993,0.03089267,0.004261058,9.42,25.08,46.68
1554104599111,-3.2225955,-8.835203,-3.1370027,0.043675844000000005,0.01917476,0.013848438000000001,9.42,25.02,46.68
1554104599132,-3.2225955,-8.868722,-2.926313,0.046871635999999994,0.00958738,0.013848438000000001,9.36,24.96,46.62
1554104599152,-3.1364042999999997,-8.672397,-3.0843303,0.03195793,0.012783173500000002,0.007456851,9.36,24.9,46.62
1554104599172,-3.2273839,-8.667608,-2.9646204,-0.0010652645,0.015978966,-0.002130529,9.36,24.84,46.62
1554104599192,-3.2896330000000003,-8.792108,-2.9311013,-0.03195793,0.010652645,-0.013848438000000001,9.36,24.84,46.62
1554104599212,-3.2130187,-8.758589,-2.926313,-0.049002163,0.010652645,-0.012783173500000002,9.3,24.84,46.62
1554104599232,-3.1986535,-8.772953999999999,-2.9406781000000004,-0.05006743,0.01917476,-0.015978966,9.3,24.78,46.62
1554104599251,-3.1986535,-8.806473,-2.9406781000000004,-0.05006743,0.023435817999999997,-0.01917476,9.24,24.78,46.62
1554104599271,-3.2321722999999998,-8.84478,-2.9837740000000004,-0.05006743,0.026631612000000002,-0.020240024,9.18,24.78,46.62
1554104599291,-3.2944214,-8.787319,-3.0220811000000003,-0.051132694000000006,0.022370555,-0.022370555,9.12,24.72,46.62
1554104599312,-3.2273839,-8.854357,-3.0891187,-0.04261058,0.017044231,-0.020240024,9.06,24.66,46.62
1554104599331,-3.241749,-8.820838,-3.1322143,-0.043675844000000005,0.01917476,-0.023435817999999997,9.06,24.66,46.62
1554104599351,-3.3758245000000002,-8.811261,-3.0651767000000003,-0.046871635999999994,0.01917476,-0.025566347000000003,9.0,24.6,46.68
1554104599372,-3.2609026,-8.873510000000001,-3.0172927000000005,-0.041545313,0.010652645,-0.034088463,8.94,24.54,46.68
1554104599391,-3.2273839,-8.796896,-3.0651767000000003,-0.024501082,0.0063915867,-0.03834952,8.94,24.48,46.74
1554104599412,-3.2369606,-8.806473,-3.093907,-0.024501082,0.010652645,-0.035153727999999995,8.94,24.48,46.74
1554104599432,-3.2225955,-8.81605,-3.1705215,-0.026631612000000002,0.0063915867,-0.036218993,8.94,24.42,46.74
1554104599452,-3.2130187,-8.839992,-3.0603882999999996,-0.02130529,0.0053263223,-0.05219796,8.88,24.42,46.74
1554104599472,-3.2609026,-8.854357,-3.2040405,0.0010652645,0.007456851,-0.06498113,8.88,24.42,46.8
1554104599491,-3.2273839,-8.811261,-3.1082723,0.0010652645,0.0063915867,-0.06711166,8.82,24.42,46.8
1554104599512,-3.2034418999999996,-8.763377,-3.0891187,-0.014913702,-0.0010652645,-0.07137272,8.82,24.42,46.8
1554104599532,-3.2369606,-8.72507,-3.0364463,-0.02876214,-0.002130529,-0.083090626,8.82,24.42,46.86
1554104599553,-3.2513257999999996,-8.839992,-3.0699651,-0.012783173500000002,0.0010652645,-0.096939065,8.76,24.36,46.92
1554104599572,-3.2273839,-8.806473,-3.1944637000000005,0.0,0.004261058,-0.10226539,8.76,24.36,46.98
1554104599591,-3.2848446000000004,-8.763377,-3.2136172999999997,-0.014913702,0.0063915867,-0.10333065,8.76,24.36,46.98
1554104599612,-3.2752678,-8.902241,-3.2279825,-0.033023197000000004,0.004261058,-0.09267801,8.76,24.36,47.04
1554104599632,-3.1890767,-8.902241,-3.2615013,-0.040480047000000005,-0.00958738,-0.083090626,8.76,24.3,47.1
1554104599651,-3.1316159,-8.916606,-3.2375592999999996,-0.047936900000000005,-0.015978966,-0.06498113,8.76,24.3,47.1
1554104599671,-3.1268275,-8.863934,-3.1896752999999998,-0.03195793,-0.017044231,-0.060720075,8.7,24.24,47.1
1554104599692,-3.1172507,-8.911817999999998,-3.2423477000000003,0.025566347000000003,-0.011717908999999999,-0.053263225,8.7,24.24,47.1
1554104599712,-3.1507695,-8.729858,-3.0029275,0.06285059999999999,0.002130529,-0.041545313,8.7,24.24,47.1
1554104599732,-3.1507695,-8.696339,-2.9694088,0.054328485999999995,0.007456851,-0.033023197000000004,8.7,24.18,47.04
1554104599752,-3.145981,-8.638878,-3.1657330000000004,0.029827405,0.008522116,-0.03834952,8.76,24.18,47.04
1554104599771,-3.098097,-8.758589,-3.1657330000000004,-0.0053263223,0.0053263223,-0.04580637,8.76,24.18,47.04
1554104599791,-3.145981,-8.806473,-2.9933507,-0.051132694000000006,0.002130529,-0.04261058,8.76,24.18,47.04
1554104599812,-3.1651347000000003,-8.859145,-3.079542,-0.06178534,0.0010652645,-0.051132694000000006,8.76,24.18,47.1
1554104599831,-3.1890767,-8.916606,-3.1944637000000005,-0.041545313,-0.004261058,-0.05219796,8.76,24.24,47.1
1554104599851,-3.083732,-8.81605,-3.0220811000000003,-0.014913702,-0.007456851,-0.046871635999999994,8.82,24.3,47.1
1554104599872,-3.0262709,-8.954913000000001,-3.2375592999999996,0.010652645,-0.0031957934000000003,-0.04261058,8.82,24.36,47.16
1554104599892,-3.1507695,-8.902241,-3.1465794999999996,0.02130529,-0.0010652645,-0.037284255,8.82,24.42,47.16
1554104599912,-3.1555579,-9.007586,-3.1465794999999996,0.024501082,0.0010652645,-0.036218993,8.88,24.48,47.16
1554104599931,-3.1411927000000004,-9.041103999999999,-3.1561562999999997,0.014913702,0.002130529,-0.023435817999999997,8.88,24.6,47.16
1554104599951,-3.1603463,-8.863934,-3.1800982999999996,0.010652645,0.018109497,-0.011717908999999999,8.94,24.66,47.16
1554104599971,-3.2609026,-8.796896,-3.0412347,0.014913702,0.022370555,-0.00958738,8.94,24.72,47.1
1554104599992,-3.1124623,-8.926183,-2.9646204,0.029827405,0.0063915867,-0.011717908999999999,9.0,24.72,47.1
1554104600012,-3.064578,-8.705916,-3.0603882999999996,0.06604639400000001,0.0053263223,-0.010652645,9.0,24.72,47.1
1554104600031,-3.0550013,-8.763377,-3.1226375,0.07137272,0.02130529,-0.008522116,9.0,24.6,47.1
1554104600052,-3.0741549999999997,-8.839992,-2.9215245,0.060720075,0.015978966,-0.026631612000000002,9.0,24.54,47.1
1554104600072,-2.8874072999999996,-8.81605,-3.093907,0.05539375,0.022370555,-0.040480047000000005,9.0,24.36,47.16
1554104600092,-2.8874072999999996,-8.907029,-2.7970262000000004,0.060720075,0.05006743,-0.03089267,8.94,24.24,47.16
1554104600111,-2.858677,-9.041103999999999,-2.5671828,0.06604639400000001,0.07776430000000001,-0.034088463,8.94,24.12,47.16
1554104600131,-2.96881,-9.132083999999999,-2.5528176,0.14274544,0.15233281,-0.00958738,8.82,24.06,47.22
1554104600152,-3.0358477,-8.868722,-2.710835,0.23116238,0.25672874,0.026631612000000002,8.7,24.12,47.22
1554104600172,-3.0166939999999998,-9.156025999999999,-2.3181857999999997,0.23755397,0.29507825,0.07776430000000001,8.7,24.18,47.22
1554104600191,-2.7772740000000002,-9.093777000000001,-1.9159599999999999,0.051132694000000006,0.37603834,0.14594123,8.58,24.36,47.22
1554104600212,-2.542642,-9.218275,-1.3174095,-0.14061491,0.6061354999999999,0.25140239999999997,8.46,24.66,47.16
1554104600232,-2.6048915,-9.256582,-1.2695253999999998,-0.10972224,0.8159926,0.3685815,8.34,24.84,47.16
1554104600252,-2.3894134,-8.983644,-1.2455834,-0.14061491,0.99921805,0.42290998,8.16,25.02,47.16
1554104600272,-2.4372973,-8.806473,-1.5807717,-0.26312032,1.1366372,0.46019423,8.04,25.2,47.16
1554104600292,-2.5617957000000002,-8.892664,-1.3557166999999999,-0.44315,1.3507552999999999,0.55074173,7.8,25.26,47.1
1554104600311,-2.7437549999999997,-8.600571,-1.7770962,-0.5763081,1.5595472,0.6146576,7.5,25.14,47.1
1554104600332,-2.6719291000000003,-8.413822999999999,-1.8632874,-0.6945524000000001,1.8024273999999998,0.63383234,7.08,24.9,47.1
1554104600352,-2.5378537,-8.500014,-2.6964695,-0.7488809000000001,1.9270633000000001,0.6711166000000001,6.54,24.54,47.1
1554104600371,-2.552219,-8.389880999999999,-4.0276456,-0.9353021999999999,2.0985709999999997,0.8000136,5.88,23.88,47.1
1554104600392,-2.7341783,-7.753023599999999,-5.1529207,-1.2804478000000001,2.1763353,0.89162636,5.04,23.04,47.04
1554104600412,-3.394978,-7.705139599999999,-5.9621606,-1.6437031000000002,2.2892532,0.97258645,3.96,21.96,47.04
1554104600431,-2.5091232999999997,-7.7626004,-6.3260794,-2.0730047,2.2498386000000004,1.1057445,2.82,20.64,46.98
1554104600451,-1.8004397,-7.934983,-7.0587053,-1.9036276,2.2530343999999998,1.1025486999999998,1.56,19.08,46.92
1554104600471,-1.8004397,-7.877522,-6.8863225,-1.4136058999999999,2.1731396000000003,1.0290455,0.3,17.46,46.86
1554104600491,-2.2074540000000002,-7.0347633,-7.504027000000001,-0.14487597,1.933455,0.92997587,-1.08,15.78,46.62
1554104600512,-2.0781669999999997,-6.5271926,-8.5383215,0.48149952,1.6266588,0.8447546999999999,-2.52,14.04,46.32
1554104600532,-2.3223755,-6.177639,-9.845556,0.9981528000000001,1.0183928,0.60293967,-4.08,12.48,46.02
1554104600552,-2.5234885,-6.4362125,-9.922171,1.1334413,0.567786,0.45273739999999996,-5.52,11.22,45.54
1554104600571,-2.6671407000000005,-6.570288000000001,-9.639654,1.1121361,0.32277513,0.38029942,-6.78,10.2,45.12
1554104600592,-2.9113493,-6.5271926,-8.351574000000001,0.9416938,0.011717908999999999,0.23542345,-7.92,9.54,44.64
1554104600612,-3.193865,-6.771400999999999,-7.331644,0.8724516,-0.094808534,0.16937704,-8.94,9.36,44.16
1554104600631,-3.0166939999999998,-7.0634937,-6.8097080000000005,0.75420725,-0.21198763,0.15233281,-9.78,9.66,43.74
1554104600651,-2.9113493,-7.0730705,-6.546346,0.6018744,-0.2545982,0.12357068,-10.44,10.2,43.5
1554104600671,-2.791639,-6.9485717000000005,-6.2781954,0.37390783,-0.25033715,0.09161274,-10.86,10.86,43.26
1554104600692,-2.8203697,-7.1688385,-5.655703,0.18535602,-0.22050974,0.033023197000000004,-11.04,11.7,43.08
1554104600712,-2.7150247000000003,-7.49445,-5.3779755,0.11504856,-0.18748654,0.0010652645,-11.04,12.48,43.08
1554104600733,-2.6048915,-7.709928,-5.3061495,0.12783173,-0.16085494,-0.033023197000000004,-10.98,13.5,43.02
1554104600752,-2.6623523,-7.6572556,-5.559935,0.14487597,-0.14168017,-0.05752428,-10.92,14.4,43.02
1554104600772,-2.6431987,-7.508815299999999,-5.3779755,0.099069595,-0.14487597,-0.07989483,-10.86,15.12,42.96
1554104600791,-2.8682537,-7.4992385,-5.468955,0.053263225,-0.15339808,-0.112918034,-10.8,15.6,42.96
