TimeStamp,Ax,Ay,Az,Gx,Gy,Gz,Mx,My,Mz
1554117639573,-7.8027034,-1.8608932,4.6579194,-0.12144015,0.07669904,0.06391586,49.68,0.48,1.26
1554117639590,-7.7218990000000005,-1.8357542000000002,4.9823337,-0.14274544,0.08841695,0.05006743,49.68,0.48,1.26
1554117639612,-7.711724,-1.6795325,5.302558400000001,-0.15233281,0.07776430000000001,0.011717908999999999,49.74,0.48,1.26
1554117639632,-7.8475947,-1.7292121999999999,5.3701944,-0.101200126,0.07669904,-0.002130529,49.74,0.54,1.26
1554117639652,-7.880514999999999,-1.7681179,5.474342299999999,-0.046871635999999994,0.099069595,0.0053263223,49.74,0.54,1.26
1554117639671,-7.9038580000000005,-1.8291701,5.329493,0.004261058,0.11930962,-0.007456851,49.74,0.48,1.26
1554117639691,-7.972691499999999,-1.7717092,5.29358,0.020240024,0.16405073,-0.008522116,49.8,0.42,1.26
1554117639711,-8.05589,-1.5598223999999998,5.270835,-0.04474111,0.19387813,0.020240024,49.86,0.3,1.26
1554117639731,-7.7578119999999995,-1.822586,4.9901147,-0.09054748,0.16192019,0.07137272,49.92,0.18,1.32
1554117639751,-7.629722,-1.9428947,4.5136685,0.029827405,0.10226539,0.049002163,49.98,0.06,1.32
1554117639771,-7.773973,-1.6328455,4.5232453,0.16085494,0.06391586,-0.04474111,50.04,-0.06,1.32
1554117639791,-7.923012,-1.6549919999999998,4.650737,0.18002969,0.083090626,-0.07776430000000001,50.1,-0.18,1.32
1554117639810,-7.8128785999999995,-1.8076223000000002,4.89315,0.053263225,0.14487597,-0.026631612000000002,50.1,-0.3,1.32
1554117639831,-7.755418,-1.6735470000000001,5.0667295,-0.037284255,0.21731395,-0.06285059999999999,50.1,-0.3,1.32
1554117639850,-7.837419000000001,-1.4401124,5.1355624,-0.068176925,0.28229508,-0.14913702,50.04,-0.3,1.38
1554117639870,-7.8930845000000005,-1.5664065,4.948815,-0.10865697,0.31318775,-0.18961707,49.92,-0.3,1.5
1554117639891,-7.7368627000000005,-1.8154035,4.9613843,-0.20879184,0.314253,-0.23542345,49.74,-0.3,1.74
1554117639910,-7.6369047000000005,-1.939902,5.068525,-0.2130529,0.31212249999999997,-0.28442562,49.68,-0.3,1.98
1554117639931,-7.668029300000001,-2.0494366000000004,5.04159,-0.15765914,0.31957933,-0.294013,49.56,-0.3,2.22
1554117639951,-7.8386164,-2.1601684,4.851251,-0.08522116,0.35260254,-0.28442562,49.44,-0.24,2.52
1554117639971,-8.120534,-2.4109612,4.5633483,-0.020240024,0.3536678,-0.2876214,49.32,-0.18,2.82
1554117639990,-8.279149,-2.4959552000000005,4.3646297,0.017044231,0.330232,-0.28016454,49.26,-0.06,3.12
1554117640010,-8.501211999999999,-2.5372553,4.392163,0.05006743,0.32384038,-0.257794,49.2,0.06,3.42
1554117640031,-8.605958,-2.8449101000000003,4.4681787,0.10013486,0.34088463,-0.2609898,49.2,0.24,3.54
1554117640050,-8.301296,-2.9759927000000004,4.2395325,0.17896444,0.34088463,-0.30360037,49.14,0.48,3.66
1554117640070,-8.524555,-2.9538465,4.036624,0.26631612,0.39947417,-0.35899413,49.08,0.78,3.78
1554117640092,-8.764574,-3.0544027999999996,3.9043443,0.28549087,0.38456047,-0.4261058,49.02,1.14,3.84
1554117640111,-8.419210000000001,-3.0148985,3.7894227999999996,0.23755397,0.35153726,-0.44421527,48.9,1.56,4.02
1554117640130,-8.314464,-2.9245174,3.8714242,0.1587244,0.30892670000000005,-0.43249738,48.84,1.92,4.2
1554117640151,-8.432379,-2.8790276,4.036624,0.094808534,0.22903186,-0.39308259999999995,48.78,2.28,4.5
1554117640171,-8.316858,-2.9364884,4.200028400000001,0.10546118,0.12996227,-0.33662358,48.66,2.58,4.74
1554117640191,-8.143278,-2.9592332999999997,4.176685,0.1949434,0.07030745599999999,-0.30146983,48.6,2.94,5.04
1554117640211,-8.212710000000001,-2.9293058,4.0162735000000005,0.31851408,0.058589544,-0.29827404,48.6,3.18,5.28
1554117640231,-8.412027,-2.9436709999999997,3.6750996,0.39521313,0.054328485999999995,-0.3174488,48.6,3.42,5.58
1554117640251,-8.408437,-3.1118636000000004,3.3183637000000004,0.37710363,0.046871635999999994,-0.35260254,48.6,3.6,5.76
1554117640271,-8.316858,-3.2243912,3.2303767000000003,0.2695119,0.054328485999999995,-0.3717773,48.54,3.72,5.88
1554117640290,-8.192958,-3.228581,3.316568,0.14274544,0.07350325,-0.36964676,48.6,4.08,5.94
1554117640310,-8.16363,-3.3075894999999997,3.4380736000000005,0.06285059999999999,0.09374327,-0.35579833,48.6,4.62,6.0
1554117640331,-8.230068,-3.3608606,3.6260185,0.040480047000000005,0.12570119999999999,-0.34621096,48.54,5.34,6.0
1554117640350,-8.328828999999999,-3.3171665999999997,3.6326025,0.051132694000000006,0.14274544,-0.33981937,48.54,5.58,6.0
1554117640371,-8.383896,-3.1639376,3.6679169999999996,0.082025364,0.15446335,-0.30253512,48.54,6.3,6.0
1554117640391,-8.301894,-3.0945058,3.5488055,0.10652645,0.165116,-0.25033715,48.54,6.72,6.0
1554117640411,-8.3390045,-3.0442273999999996,3.4440591,0.08522116,0.18002969,-0.20985709,48.54,7.14,6.06
1554117640430,-8.391677,-3.1441852999999997,3.3919851999999997,0.03195793,0.18748654,-0.19707392,48.48,7.56,6.12
1554117640451,-8.379706,-3.2692822999999995,3.4099417,-0.015978966,0.18748654,-0.17896444,48.42,7.68,6.18
1554117640470,-8.370728,-3.4733882000000005,3.4500446000000005,-0.051132694000000006,0.18855181,-0.15020229,48.36,7.8,6.24
1554117640490,-8.325836,-3.6122517999999997,3.4326867999999995,-0.039414786,0.18429075,-0.13422333,48.3,7.92,6.3
1554117640510,-8.322844,-3.6894648,3.4117374,-0.024501082,0.17470337,-0.12463594,48.24,8.04,6.42
1554117640530,-8.266580000000001,-3.7301662,3.513491,-0.035153727999999995,0.15446335,-0.111852765,48.18,8.16,6.6
1554117640550,-8.234857,-3.7523127,3.5942953,-0.04261058,0.13635385,-0.094808534,48.12,8.22,6.78
1554117640571,-8.255806,-3.7606924,3.7654807999999997,-0.035153727999999995,0.11717909,-0.056459017,48.06,8.28,6.96
1554117640591,-8.234259,-3.7612907999999994,3.8067808,-0.013848438000000001,0.10759171,-0.039414786,48.0,8.34,7.14
1554117640610,-8.302493,-3.7966053,3.8397010000000003,0.034088463,0.10972224,-0.039414786,47.94,8.34,7.32
1554117640630,-8.297705,-3.816956,3.7169980000000002,0.07989483,0.11504856,-0.05219796,47.88,8.28,7.5
1554117640651,-8.315661,-3.738546,3.6433763999999997,0.098004326,0.12250541,-0.05752428,47.76,8.28,7.62
1554117640671,-8.276755,-3.7086184,3.527856,0.08841695,0.12144015,-0.05752428,47.7,8.28,7.8
1554117640691,-8.250419,-3.6523547,3.4338839999999995,0.05752428,0.11504856,-0.037284255,47.64,8.22,7.98
1554117640711,-8.270769999999999,-3.6349967000000003,3.3883939,0.0053263223,0.10759171,-0.012783173500000002,47.58,8.28,8.1
1554117640730,-8.253411999999999,-3.6457705000000002,3.3255462999999996,-0.008522116,0.10226539,-0.022370555,47.58,8.34,8.16
1554117640750,-8.236053,-3.6421792999999996,3.3279405,-0.004261058,0.096939065,-0.039414786,47.58,8.4,8.28
1554117640771,-8.197148,-3.5829230000000005,3.2698810000000003,0.01917476,0.08948222,-0.04580637,47.64,8.46,8.34
1554117640790,-8.164826,-3.5841199999999995,3.2495303,0.025566347000000003,0.083090626,-0.04474111,47.7,8.52,8.46
1554117640811,-8.185177000000001,-3.6445735,3.152565,0.0031957934000000003,0.09161274,-0.040480047000000005,47.64,8.58,8.52
1554117640831,-8.195352999999999,-3.7152026,3.1609447,-0.035153727999999995,0.098004326,-0.05539375,47.64,8.7,8.58
1554117640851,-8.221688,-3.7606924,3.151368,-0.05006743,0.10013486,-0.06604639400000001,47.58,8.76,8.52
1554117640870,-8.297705,-3.8025907999999995,3.1603463,-0.03834952,0.10546118,-0.047936900000000005,47.52,8.76,8.52
1554117640890,-8.257003,-3.8444892999999998,3.2160115,-0.023435817999999997,0.10333065,-0.04474111,47.4,8.76,8.52
1554117640912,-8.207922,-3.809175,3.1789012000000003,-0.007456851,0.098004326,-0.058589544,47.34,8.82,8.52
1554117640932,-8.329428,-3.7277720000000003,3.2279825,0.0031957934000000003,0.10333065,-0.07243799,47.22,8.82,8.58
1554117640951,-8.337209,-3.6613328000000003,3.1890767,0.0031957934000000003,0.09267801,-0.07669904,47.16,8.82,8.64
1554117640972,-8.316858,-3.6607344,3.1717186,-0.004261058,0.09161274,-0.07776430000000001,47.1,8.82,8.7
1554117640992,-8.312667999999999,-3.6607344,3.151368,-0.015978966,0.09587380000000001,-0.07989483,47.1,8.82,8.82
1554117641011,-8.249222,-3.5901055,3.1381997999999998,-0.0053263223,0.10759171,-0.07030745599999999,47.1,8.82,8.94
1554117641031,-8.281544,-3.5613751000000002,2.9819782000000004,0.0063915867,0.12463594,-0.05965481,47.16,8.82,9.06
1554117641051,-8.330027000000001,-3.606865,2.89459,0.002130529,0.14168017,-0.06604639400000001,47.16,8.82,9.12
1554117641071,-8.304289,-3.697246,2.8191724,-0.023435817999999997,0.14913702,-0.082025364,47.16,8.82,9.24
1554117641090,-8.277952,-3.7469256,2.7970262000000004,-0.03089267,0.17150758,-0.080960095,47.16,8.88,9.3
1554117641110,-8.351574000000001,-3.7714663,2.7659016,-0.026631612000000002,0.19174760000000002,-0.07137272,47.16,8.88,9.3
1554117641131,-8.270171000000001,-3.8127663,2.731784,-0.029827405,0.19281286,-0.06285059999999999,47.16,8.82,9.3
1554117641150,-8.319252,-3.8510735,2.7736826,-0.008522116,0.20026971,-0.058589544,47.16,8.82,9.3
1554117641170,-8.392874,-3.8786068,2.7772740000000002,0.01917476,0.2034655,-0.051132694000000006,47.16,8.88,9.3
1554117641190,-8.388684,-3.8367082999999997,2.8179752999999996,0.051132694000000006,0.20240025,-0.04261058,47.16,8.88,9.36
1554117641211,-8.437167,-3.7894227999999996,2.842516,0.07030745599999999,0.20240025,-0.04580637,47.16,8.88,9.36
1554117641230,-8.425794999999999,-3.6679169999999996,2.7802667999999997,0.07350325,0.19068234,-0.047936900000000005,47.1,8.88,9.42
1554117641251,-8.497621,-3.6104562000000007,2.7210102000000003,0.06924219,0.19813919,-0.04580637,46.98,8.94,9.48
1554117641271,-8.519167999999999,-3.5697547999999997,2.7575218999999995,0.068176925,0.20453078,-0.046871635999999994,46.92,8.94,9.48
1554117641291,-8.596381,-3.520075,2.6144682999999995,0.08522116,0.22050974,-0.040480047000000005,46.74,9.0,9.6
1554117641311,-8.6712,-3.447052,2.5893292000000003,0.08628642,0.23009712,-0.047936900000000005,46.56,9.0,9.66
1554117641330,-8.717288,-3.3626563999999997,2.585738,0.05965481,0.22583607,-0.056459017,46.38,9.0,9.78
1554117641350,-8.738237,-3.329736,2.5755625,0.011717908999999999,0.22690132,-0.05965481,46.26,9.0,9.9
1554117641371,-8.853159,-3.3854012000000004,2.5192987999999996,-0.02876214,0.23116238,-0.07030745599999999,46.08,9.0,10.08
1554117641391,-8.938153,-3.4548330000000003,2.4540567,-0.08735169,0.21944448,-0.09374327,45.96,8.94,10.2
1554117641411,-9.032125,-3.5350387000000003,2.5073277999999997,-0.14168017,0.1949434,-0.11824436,45.9,8.94,10.38
1554117641431,-9.07582,-3.5889084,2.529474,-0.15659387,0.17257284,-0.12357068,45.84,8.94,10.5
1554117641451,-9.096169999999999,-3.6715082999999997,2.5893292000000003,-0.17044231,0.14168017,-0.12250541,45.78,8.88,10.86
1554117641470,-8.983644,-3.7995980000000005,2.6312277,-0.16618125,0.10226539,-0.12570119999999999,45.72,8.94,11.1
1554117641491,-8.862138,-3.8031895,2.6420016,-0.14807177,0.06711166,-0.12463594,45.66,9.0,11.34
1554117641511,-8.7771435,-3.804985,2.6198552000000004,-0.10652645,0.03834952,-0.098004326,45.6,9.06,11.58
1554117641531,-8.707711,-3.7547068999999995,2.4971522999999998,-0.06391586,0.014913702,-0.06391586,45.54,9.12,11.76
1554117641550,-8.674192,-3.8163576,2.3624785,-0.036218993,-0.002130529,-0.040480047000000005,45.48,9.12,11.94
1554117641570,-8.563461,-3.8361096,2.336741,-0.024501082,-0.010652645,-0.025566347000000003,45.42,9.18,12.06
1554117641591,-8.432379,-3.7804443999999995,2.3175871,0.00958738,-0.012783173500000002,0.0,45.36,9.24,12.12
1554117641611,-8.315661,-3.7068229,2.255338,0.058589544,0.004261058,0.024501082,45.3,9.24,12.18
1554117641631,-8.304886999999999,-3.6194344,2.0685901999999996,0.10013486,0.03834952,0.033023197000000004,45.3,9.24,12.18
1554117641651,-8.2995,-3.5775358999999995,1.9081788,0.12037488,0.083090626,0.013848438000000001,45.24,9.18,12.24
1554117641671,-8.385093,-3.4865562999999993,1.7447745,0.112918034,0.12783173,-0.010652645,45.18,9.18,12.18
1554117641691,-8.550891,-3.3937809999999997,1.7292121999999999,0.07350325,0.1470065,-0.02876214,45.18,9.12,12.18
1554117641711,-8.607754,-3.3901896000000002,1.7381904,0.015978966,0.1470065,-0.037284255,45.12,9.12,12.18
1554117641730,-8.681973,-3.5104983,1.8596960999999999,-0.049002163,0.13315806,-0.043675844000000005,45.12,9.12,12.18
1554117641750,-8.728063,-3.6098576,1.9889830000000002,-0.10226539,0.10972224,-0.049002163,45.12,9.06,12.18
1554117641770,-8.781333,-3.6822822,2.1320367,-0.12357068,0.07137272,-0.056459017,45.06,9.06,12.18
1554117641790,-8.882488,-3.7708676,2.307412,-0.12996227,0.026631612000000002,-0.05752428,45.06,9.06,12.18
1554117641810,-8.901043,-3.916914,2.4253263,-0.12357068,-0.008522116,-0.058589544,45.0,9.06,12.18
1554117641831,-8.859743,-3.9749733999999997,2.4774002999999998,-0.10013486,-0.033023197000000004,-0.06711166,45.0,9.12,12.24
1554117641851,-8.881291000000001,-3.9773676,2.4929626,-0.07030745599999999,-0.041545313,-0.056459017,44.94,9.18,12.3
1554117641870,-8.793902000000001,-4.0162735000000005,2.4905684,-0.040480047000000005,-0.040480047000000005,-0.029827405,44.94,9.24,12.42
1554117641890,-8.737040499999999,-3.9911342000000003,2.4235306,-0.020240024,-0.013848438000000001,-0.00958738,44.88,9.3,12.48
1554117641911,-8.729858,-3.9444472999999998,2.331354,0.002130529,0.013848438000000001,0.0031957934000000003,44.82,9.36,12.54
1554117641931,-8.620922,-3.8762126000000006,2.2296004000000003,0.033023197000000004,0.040480047000000005,0.020240024,44.76,9.36,12.6
1554117641951,-8.539519,-3.8426937999999993,2.143409,0.056459017,0.06924219,0.033023197000000004,44.76,9.42,12.72
1554117641971,-8.468291,-3.788824,2.0691888,0.068176925,0.09054748,0.034088463,44.76,9.42,12.78
1554117641991,-8.459313,-3.690662,2.006341,0.07989483,0.1107875,0.02876214,44.76,9.36,12.78
1554117642011,-8.447341999999999,-3.6014779000000003,1.977012,0.08628642,0.1107875,0.029827405,44.76,9.24,12.72
1554117642031,-8.434772500000001,-3.5595794,1.9075803,0.08948222,0.11824436,0.029827405,44.76,9.18,12.72
1554117642050,-8.410232,-3.5691562000000006,1.8758569999999999,0.084155895,0.1107875,0.00958738,44.76,9.06,12.66
1554117642070,-8.4425535,-3.5541922999999995,1.9231426,0.08628642,0.11930962,-0.017044231,44.76,9.0,12.66
1554117642091,-8.537724,-3.4799721,1.8632874,0.084155895,0.12570119999999999,-0.034088463,44.76,8.94,12.6
1554117642111,-8.593389,-3.429694,1.8758569999999999,0.05539375,0.12144015,-0.05752428,44.76,8.82,12.6
1554117642130,-8.616732,-3.4638114,1.903989,-0.007456851,0.10759171,-0.07882957,44.7,8.76,12.54
1554117642150,-8.746018,-3.494936,1.9189526999999997,-0.06711166,0.10546118,-0.08841695,44.64,8.7,12.54
1554117642171,-8.872911,-3.615843,1.9937714,-0.09054748,0.101200126,-0.10652645,44.52,8.64,12.6
1554117642190,-8.872911,-3.7337575,2.0105310000000003,-0.08628642,0.10546118,-0.12463594,44.46,8.64,12.66
1554117642211,-8.938752000000001,-3.8145617999999994,1.9841946,-0.07776430000000001,0.12357068,-0.128897,44.34,8.58,12.72
1554117642231,-9.035717,-3.8821980000000003,1.9500773,-0.07882957,0.13315806,-0.12037488,44.28,8.58,12.84
1554117642251,-8.962694,-3.9534256,1.95307,-0.08841695,0.13528858,-0.112918034,44.22,8.58,12.96
1554117642271,-8.847773,-4.004901,1.9716251,-0.09054748,0.13528858,-0.10013486,44.16,8.58,13.02
1554117642291,-8.729858,-3.9833531000000004,1.929128,-0.07030745599999999,0.14274544,-0.07137272,44.1,8.58,13.14
1554117642310,-8.673594,-3.9163153,1.8788497,-0.029827405,0.15446335,-0.04474111,44.1,8.58,13.26
1554117642331,-8.614936,-3.9073372,1.7669207999999998,0.011717908999999999,0.16831179,-0.02130529,44.1,8.58,13.44
1554117642350,-8.471283999999999,-3.8295257000000005,1.6543933000000002,0.043675844000000005,0.19068234,-0.007456851,44.04,8.58,13.68
1554117642371,-8.421006,-3.726575,1.5364790000000002,0.06924219,0.21198763,0.004261058,44.04,8.58,13.86
1554117642390,-8.471283999999999,-3.7122097000000003,1.3886370000000001,0.08735169,0.24181503,0.010652645,43.98,8.58,14.04
1554117642410,-8.480263,-3.6936547999999996,1.3700819,0.09587380000000001,0.25353295,-0.007456851,43.92,8.58,14.28
1554117642431,-8.500613000000001,-3.6918589999999996,1.3371617,0.09374327,0.25992453,-0.03195793,43.86,8.58,14.46
1554117642451,-8.5778265,-3.6523547,1.3221979,0.10333065,0.25885928,-0.05965481,43.86,8.64,14.64
1554117642470,-8.779537,-3.6583402,1.3413515,0.10759171,0.24501082,-0.09267801,43.74,8.7,14.76
1554117642490,-9.052477,-3.5817258,1.3443443000000002,0.098004326,0.20985709,-0.13102753,43.68,8.76,14.88
1554117642511,-9.205706,-3.5966894999999997,1.3694833999999998,0.07882957,0.16937704,-0.15552860000000002,43.5,8.82,14.88
1554117642531,-9.348161,-3.6379894999999998,1.436521,0.047936900000000005,0.11824436,-0.16724652,43.38,8.88,14.94
1554117642551,-9.398438,-3.685275,1.4814123,0.020240024,0.06285059999999999,-0.16618125,43.2,8.94,14.94
1554117642570,-9.404425,-3.6816837999999996,1.5083469999999999,0.01917476,0.043675844000000005,-0.15659387,43.08,8.94,15.0
1554117642591,-9.423578,-3.7134068,1.4760253,0.033023197000000004,0.024501082,-0.12037488,42.9,9.0,15.06
1554117642610,-9.355343,-3.6745010000000002,1.3174095,0.04580637,0.014913702,-0.08522116,42.72,9.06,15.12
1554117642631,-9.191938,-3.627814,1.1755531000000001,0.043675844000000005,0.012783173500000002,-0.049002163,42.54,9.18,15.18
1554117642651,-8.990826,-3.6050692000000004,1.0654198000000001,0.020240024,0.0053263223,-0.01917476,42.42,9.3,15.24
1554117642670,-8.805874000000001,-3.5883097999999998,1.0672153999999998,-0.025566347000000003,-0.015978966,-0.0053263223,42.36,9.42,15.24
1554117642690,-8.665813,-3.5511997,1.0959458,-0.06391586,-0.037284255,-0.010652645,42.3,9.54,15.24
1554117642711,-8.708909,-3.5990837,1.1875241,-0.07456851,-0.05965481,-0.03089267,42.24,9.6,15.18
1554117642730,-8.76637,-3.5829230000000005,1.1725603,-0.07030745599999999,-0.07669904,-0.05219796,42.24,9.72,15.18
1554117642750,-8.790312,-3.638588,1.2030864,-0.054328485999999995,-0.09054748,-0.06498113,42.24,9.78,15.18
1554117642770,-8.800487,-3.697246,1.2372037,-0.06285059999999999,-0.098004326,-0.080960095,42.24,9.84,15.18
1554117642790,-8.847174,-3.7343562000000006,1.2886791000000002,-0.09267801,-0.10333065,-0.09161274,42.24,9.78,15.18
1554117642811,-8.857349000000001,-3.7792472999999998,1.3611037,-0.128897,-0.11824436,-0.099069595,42.3,9.78,15.12
1554117642832,-8.875306,-3.8989575,1.4490906000000001,-0.15233281,-0.13422333,-0.094808534,42.3,9.72,15.12
1554117642850,-8.893262,-3.9558197999999996,1.4879963,-0.15765914,-0.14487597,-0.09161274,42.3,9.72,15.0
1554117642870,-8.89446,-3.9516299,1.5059528,-0.13422333,-0.15339808,-0.083090626,42.36,9.72,14.88
1554117642891,-8.845378,-3.9444472999999998,1.5286977,-0.111852765,-0.15126756,-0.07669904,42.36,9.72,14.76
1554117642911,-8.755595,-3.9480386,1.5286977,-0.10972224,-0.1470065,-0.07030745599999999,42.42,9.72,14.64
1554117642931,-8.730456,-3.9324763,1.5394716999999998,-0.12250541,-0.14061491,-0.07350325,42.42,9.66,14.52
1554117642950,-8.698733,-3.9432502,1.5795746000000002,-0.13422333,-0.13741912,-0.07776430000000001,42.42,9.66,14.46
1554117642970,-8.642469,-3.9899370000000003,1.5239093000000001,-0.13315806,-0.128897,-0.07882957,42.48,9.66,14.34
1554117642991,-8.65863,-3.9803602999999996,1.5340848,-0.12250541,-0.112918034,-0.07137272,42.48,9.6,14.28
1554117643010,-8.6574335,-3.9977183,1.5783775,-0.10865697,-0.10226539,-0.068176925,42.48,9.6,14.34
1554117643031,-8.620922,-4.0066967,1.5454572,-0.10333065,-0.09054748,-0.06711166,42.54,9.48,14.46
1554117643051,-8.560468,-3.9929300000000003,1.584363,-0.096939065,-0.08522116,-0.060720075,42.54,9.48,14.52
1554117643071,-8.57184,-4.0043025000000005,1.5388732,-0.082025364,-0.07456851,-0.05752428,42.54,9.36,14.58
1554117643091,-8.606557,-4.0719385,1.5586253,-0.07243799,-0.07030745599999999,-0.06391586,42.54,9.36,14.64
1554117643111,-8.497022,-4.1359835,1.5717934,-0.06498113,-0.06391586,-0.07563378,42.66,9.3,14.7
1554117643131,-8.467692999999999,-4.1252093,1.6214731000000002,-0.05006743,-0.04580637,-0.07350325,42.78,9.3,14.76
1554117643151,-8.492233,-4.1665095999999995,1.6609775000000002,-0.029827405,-0.035153727999999995,-0.06924219,42.9,9.24,14.76
1554117643171,-8.508394000000001,-4.176685,1.7196354,-0.015978966,-0.024501082,-0.068176925,43.02,9.24,14.76
1554117643191,-8.543709,-4.131195,1.7788918999999999,0.014913702,-0.0010652645,-0.06498113,43.2,9.18,14.7
1554117643211,-8.565855,-4.0707417,1.7872716,0.05006743,0.01917476,-0.05752428,43.32,9.12,14.64
1554117643231,-8.611943,-3.9977183,1.6621746,0.07030745599999999,0.046871635999999994,-0.049002163,43.44,9.12,14.64
1554117643251,-8.600571,-3.9653966,1.6136919,0.05752428,0.07137272,-0.040480047000000005,43.56,9.18,14.58
1554117643270,-8.707711,-3.9665937000000007,1.596334,0.05006743,0.101200126,-0.040480047000000005,43.62,9.18,14.52
1554117643290,-8.721478,-3.9767690000000004,1.5071499,0.047936900000000005,0.1107875,-0.05539375,43.62,9.18,14.46
1554117643311,-8.8806925,-3.9576154000000003,1.411382,0.039414786,0.10865697,-0.060720075,43.62,9.24,14.46
1554117643331,-8.896853,-3.9911342000000003,1.3982137,0.023435817999999997,0.083090626,-0.07030745599999999,43.62,9.24,14.4
1554117643351,-8.908825,-4.0467997,1.3886370000000001,0.00958738,0.047936900000000005,-0.07669904,43.56,9.3,14.4
1554117643371,-8.848969,-4.077924299999999,1.4413095,0.0010652645,0.017044231,-0.07350325,43.5,9.3,14.4
1554117643390,-8.816647999999999,-4.160524,1.4041992,0.0010652645,-0.0031957934000000003,-0.06711166,43.44,9.36,14.4
1554117643410,-8.72507,-4.203021,1.4431051000000001,0.0010652645,-0.007456851,-0.056459017,43.38,9.36,14.4
1554117643430,-8.6299,-4.152743,1.5304934,0.017044231,0.002130529,-0.05219796,43.26,9.36,14.4
1554117643452,-8.678383,-4.0934862999999995,1.5705963,0.01917476,0.024501082,-0.04261058,43.2,9.36,14.4
1554117643470,-8.702923,-4.0743327,1.5280992,0.018109497,0.036218993,-0.034088463,43.14,9.36,14.46
1554117643490,-8.664616,-4.021062000000001,1.5245079,0.014913702,0.046871635999999994,-0.020240024,43.08,9.36,14.46
1554117643511,-8.702923,-4.059369,1.5041572,0.026631612000000002,0.05006743,-0.02130529,43.02,9.36,14.46
1554117643531,-8.687361,-4.032433999999999,1.4317327,0.047936900000000005,0.04474111,-0.022370555,42.96,9.3,14.4
1554117643551,-8.619724,-3.9965212,1.3449427999999999,0.068176925,0.047936900000000005,-0.024501082,42.96,9.3,14.4
1554117643571,-8.655039,-3.9659949999999995,1.2617443000000002,0.05539375,0.041545313,-0.037284255,42.96,9.3,14.46
1554117643591,-8.700529,-3.9270894999999997,1.1905168,0.020240024,0.033023197000000004,-0.05006743,42.96,9.3,14.46
1554117643611,-8.717887,-3.9725792,1.1976993999999999,-0.017044231,0.012783173500000002,-0.056459017,42.96,9.3,14.46
1554117643630,-8.751406,-4.0120835,1.2515688999999999,-0.039414786,-0.004261058,-0.05752428,42.96,9.3,14.46
1554117643650,-8.754997,-4.07134,1.3239936,-0.049002163,-0.029827405,-0.060720075,42.9,9.3,14.52
1554117643671,-8.715492999999999,-4.131195,1.3443443000000002,-0.05539375,-0.04580637,-0.060720075,42.9,9.36,14.58
1554117643691,-8.643068,-4.1449620000000005,1.3611037,-0.053263225,-0.046871635999999994,-0.06285059999999999,42.84,9.36,14.64
1554117643710,-8.611943,-4.162918,1.4634558000000002,-0.05539375,-0.04261058,-0.068176925,42.78,9.36,14.7
1554117643731,-8.63828,-4.188656,1.5382746,-0.05965481,-0.03834952,-0.06498113,42.72,9.36,14.76
1554117643750,-8.590396,-4.2556934,1.5388732,-0.049002163,-0.037284255,-0.06178534,42.72,9.36,14.82
1554117643770,-8.580219999999999,-4.2197804,1.5035586,-0.011717908999999999,-0.017044231,-0.056459017,42.72,9.36,14.88
1554117643791,-8.623316,-4.223372,1.4604629999999998,0.012783173500000002,-0.0063915867,-0.05539375,42.72,9.36,14.88
1554117643811,-8.519767,-4.2515035,1.4449007999999999,0.023435817999999997,-0.011717908999999999,-0.049002163,42.78,9.42,14.88
1554117643830,-8.50181,-4.256891,1.353921,0.041545313,-0.0063915867,-0.037284255,42.84,9.42,14.88
1554117643850,-8.635885,-4.301782,1.3796587,0.04261058,-0.014913702,-0.04474111,42.84,9.42,14.94
1554117643871,-8.558672999999999,-4.3101616,1.3485341,0.043675844000000005,-0.02876214,-0.06285059999999999,42.9,9.42,14.94
1554117643890,-8.640674,-4.256292,1.3569138,0.05006743,-0.023435817999999997,-0.06924219,42.96,9.42,14.94
1554117643911,-8.702325,-4.26946,1.441908,0.03834952,-0.041545313,-0.07882957,42.96,9.42,14.94
1554117643931,-8.698733,-4.301183,1.4867992,0.020240024,-0.051132694000000006,-0.084155895,42.9,9.42,14.94
1554117643951,-8.667608,-4.373009,1.5568296999999998,0.007456851,-0.06391586,-0.083090626,42.9,9.42,14.88
1554117643971,-8.640075999999999,-4.4220904999999995,1.6178818000000001,0.014913702,-0.06285059999999999,-0.07776430000000001,42.84,9.42,14.88
1554117643991,-8.6334915,-4.431667299999999,1.6633717000000001,0.035153727999999995,-0.05752428,-0.080960095,42.84,9.42,14.82
1554117644010,-8.66282,-4.446631,1.6340426000000001,0.06178534,-0.039414786,-0.083090626,42.84,9.48,14.7
1554117644031,-8.625112,-4.420294999999999,1.6208745,0.07243799,-0.02130529,-0.07776430000000001,42.9,9.54,14.64
1554117644051,-8.529344,-4.429273,1.5939398,0.07563378,-0.017044231,-0.06498113,42.9,9.66,14.58
1554117644071,-8.471883,-4.337096,1.6388310000000001,0.096939065,-0.004261058,-0.06178534,42.9,9.72,14.58
1554117644090,-8.507197,-4.262876,1.6484078000000002,0.11504856,0.014913702,-0.06391586,42.9,9.78,14.52
1554117644110,-8.480861,-4.2664676,1.6124948000000001,0.13528858,0.03195793,-0.07563378,42.9,9.84,14.52
1554117644131,-8.436568,-4.344279,1.6448165000000001,0.15552860000000002,0.05219796,-0.07989483,42.84,9.96,14.52
1554117644151,-8.346188,-4.403535400000001,1.5987281999999998,0.17789917,0.068176925,-0.084155895,42.78,10.02,14.52
1554117644171,-8.178593,-4.3939585999999995,1.483208,0.20026971,0.080960095,-0.083090626,42.72,10.08,14.58
1554117644191,-8.178593,-4.3915644,1.3634979,0.21411815,0.099069595,-0.08522116,42.66,10.2,14.58
1554117644211,-8.330625,-4.3640313,1.4437037,0.2130529,0.10226539,-0.10865697,42.66,10.32,14.58
1554117644230,-8.447341999999999,-4.386776,1.4987701999999998,0.22264028,0.099069595,-0.113983296,42.66,10.44,14.58
1554117644250,-8.541314,-4.3688197,1.472434,0.24074976,0.10226539,-0.10972224,42.66,10.62,14.58
1554117644270,-8.612542,-4.3604400000000005,1.5071499,0.257794,0.09587380000000001,-0.113983296,42.72,10.86,14.58
1554117644291,-8.578424,-4.368221,1.6071079,0.25885928,0.082025364,-0.12783173,42.72,11.04,14.58
1554117644311,-8.4664955,-4.290409599999999,1.5891514,0.26738137,0.06391586,-0.12037488,42.78,11.22,14.58
1554117644330,-8.550891,-4.11264,1.5275006000000002,0.28868666,0.07882957,-0.098004326,42.84,11.52,14.52
1554117644351,-8.74542,-3.9211037,1.4532804,0.2908172,0.098004326,-0.10013486,42.84,11.76,14.52
1554117644371,-8.952518,-3.8229415,1.3820529,0.24607609,0.112918034,-0.11717909,42.9,12.0,14.46
1554117644391,-9.097966,-3.762488,1.3599066,0.17257284,0.1107875,-0.11611383,42.9,12.3,14.46
1554117644411,-9.235633,-3.8414967000000004,1.3952209999999998,0.10652645,0.09587380000000001,-0.082025364,42.9,12.54,14.4
1554117644431,-9.214684,-3.9677907999999995,1.3958195,0.07243799,0.06498113,-0.049002163,42.84,12.78,14.4
1554117644451,-9.024942999999999,-4.0402154999999995,1.417966,0.07030745599999999,0.024501082,-0.026631612000000002,42.66,13.02,14.4
1554117644470,-8.810063000000001,-4.0144777000000005,1.3006501,0.07882957,-0.002130529,-0.008522116,42.54,13.26,14.46
1554117644491,-8.674192,-3.9193082,1.2725182,0.05752428,-0.025566347000000003,-0.010652645,42.36,13.5,14.52
1554117644511,-8.644264999999999,-3.8325183,1.2982559,0.015978966,-0.05752428,-0.023435817999999997,42.24,13.62,14.58
1554117644531,-8.703522,-3.8157589999999995,1.3718776000000001,-0.041545313,-0.10013486,-0.024501082,42.06,13.74,14.64
1554117644550,-8.644864,-3.8450879999999996,1.4197617,-0.09374327,-0.13954964,-0.027696876000000002,41.94,13.8,14.7
1554117644570,-8.540716,-3.946243,1.3688848,-0.10439592,-0.14168017,-0.043675844000000005,41.82,13.86,14.76
1554117644591,-8.5143795,-3.9504328,1.270124,-0.10546118,-0.128897,-0.06604639400000001,41.76,13.92,14.82
1554117644610,-8.559271,-3.930082,1.282095,-0.1438107,-0.13954964,-0.07669904,41.76,13.98,14.82
1554117644631,-8.579621000000001,-4.0282445,1.2354081000000001,-0.21198763,-0.1768339,-0.06391586,41.76,13.98,14.82
1554117644650,-8.5778265,-4.2185836,1.2509704,-0.27057716,-0.21624869,-0.06285059999999999,41.76,13.98,14.88
1554117644670,-8.588001,-4.353257,1.2144588,-0.27803403,-0.22477080000000002,-0.080960095,41.76,13.98,14.88
1554117644691,-8.534730999999999,-4.3664255,1.2384008,-0.27057716,-0.23968449999999997,-0.07776430000000001,41.76,13.92,14.88
1554117644711,-8.533533,-4.392163,1.340753,-0.28549087,-0.24607609,-0.046871635999999994,41.82,13.86,14.88
1554117644731,-8.580819,-4.3640313,1.3790601,-0.3334278,-0.26738137,-0.007456851,41.82,13.74,14.82
1554117644750,-8.580819,-4.4113164000000005,1.5741876000000001,-0.37816888,-0.28868666,0.036218993,41.88,13.5,14.82
1554117644771,-8.435371,-4.44304,1.7316063999999998,-0.39308259999999995,-0.30253512,0.07563378,42.0,13.2,14.82
1554117644791,-8.37013,-4.4364557,1.7405846,-0.3653857,-0.28336033,0.099069595,42.06,13.02,14.82
1554117644811,-8.31207,-4.3502645,1.7052702000000002,-0.33449304,-0.25885928,0.10226539,42.18,12.78,14.82
1554117644832,-8.325238,-4.333505000000001,1.5825673,-0.3270362,-0.24074976,0.07989483,42.42,12.6,14.76
1554117644851,-8.5060005,-4.395156,1.6232687,-0.36005938,-0.24074976,0.060720075,42.54,12.36,14.76
1554117644870,-8.723274,-4.548983,1.7375918999999997,-0.43356264,-0.27377295,0.023435817999999997,42.72,12.06,14.7
1554117644890,-8.771158,-4.7453080000000005,1.7962499,-0.46658584,-0.30679616,-0.007456851,42.84,11.76,14.58
1554117644911,-8.763377,-4.8135424,1.8058267,-0.4314321,-0.3291667,-0.023435817999999997,43.02,11.52,14.46
1554117644930,-8.692149,-4.76087,1.8818424999999999,-0.38882150000000004,-0.35260254,-0.01917476,43.14,11.28,14.4
1554117644951,-8.676587,-4.704606500000001,1.9045875,-0.3898868,-0.37710363,0.008522116,43.26,10.98,14.28
1554117644970,-8.569447,-4.6812629999999995,1.8608932,-0.41758367,-0.39840892,0.041545313,43.32,10.5,14.16
1554117644991,-8.430583,-4.733337000000001,1.8884265,-0.4250405,-0.39414784,0.06285059999999999,43.44,10.08,14.04
1554117645011,-8.261791,-4.8081555,1.8638860000000002,-0.42397526,-0.3568636,0.07030745599999999,43.68,9.72,13.8
1554117645031,-8.170812,-4.88058,1.8734628,-0.41438788,-0.33129725,0.07243799,43.8,9.42,13.62
1554117645051,-8.101977999999999,-4.9224787,1.8884265,-0.406931,-0.31318775,0.07243799,43.98,9.18,13.44
1554117645070,-8.052897,-4.9440265,1.9075803,-0.40906155,-0.30999196,0.07030745599999999,44.16,8.88,13.26
1554117645091,-7.998429300000001,-4.9996915,1.9123686999999998,-0.4016047,-0.31957933,0.049002163,44.34,8.64,13.02
1554117645111,-8.023568,-4.9787426,1.9692308999999997,-0.3717773,-0.3323625,0.024501082,44.52,8.34,12.84
1554117645130,-8.008006,-4.936245400000001,1.9937714,-0.34194988,-0.34194988,0.015978966,44.7,8.1,12.72
1554117645151,-8.0367365,-4.868608999999999,2.0111293999999997,-0.30786142,-0.34088463,0.037284255,44.82,7.86,12.6
1554117645171,-8.100183,-4.88477,2.0350714,-0.28336033,-0.33555830000000003,0.06604639400000001,44.88,7.5,12.54
1554117645191,-8.10138,-4.8614264,2.0290859,-0.26738137,-0.314253,0.080960095,44.94,7.14,12.48
1554117645211,-8.157642999999998,-4.871003,1.99437,-0.26205507,-0.2908172,0.06498113,45.0,6.72,12.48
1554117645230,-8.18398,-4.912902,1.9219455,-0.27590349999999997,-0.26738137,0.026631612000000002,45.06,6.3,12.42
1554117645250,-8.240244,-4.964976,1.9806032999999998,-0.30360037,-0.25566345,-0.007456851,45.18,5.88,12.3
1554117645271,-8.215105,-4.973954,2.0578163000000003,-0.33662358,-0.2727077,-0.01917476,45.24,5.58,12.12
1554117645291,-8.142081,-4.915296,2.1134815,-0.34088463,-0.30360037,-0.0053263223,45.24,5.28,11.94
1554117645311,-8.191761,-4.7453080000000005,2.2541409,-0.3323625,-0.34301516,0.015978966,45.24,5.1,11.76
1554117645331,-8.193557,-4.574721,2.3546975,-0.31318775,-0.39521313,0.04261058,45.36,4.98,11.58
1554117645351,-8.139089,-4.472967,2.4313118,-0.28868666,-0.44101948,0.07030745599999999,45.54,4.8,11.4
1554117645371,-8.164227499999999,-4.4837413,2.4678235,-0.24820662,-0.46125950000000004,0.101200126,45.66,4.62,11.22
1554117645391,-8.172607000000001,-4.446032499999999,2.3750482,-0.20559604,-0.46765109999999993,0.112918034,45.84,4.5,11.04
1554117645411,-8.194754,-4.4717703,2.3247697,-0.20453078,-0.46339005,0.09587380000000001,45.96,4.38,10.86
1554117645431,-8.159439,-4.5525746,2.2828712,-0.24074976,-0.45486793,0.06924219,46.14,4.26,10.62
1554117645451,-8.085219,-4.667496,2.2822728,-0.29507825,-0.42930159999999995,0.046871635999999994,46.38,3.96,10.2
1554117645470,-7.972691499999999,-4.76506,2.3439236,-0.3206446,-0.41864893,0.037284255,46.44,3.9,10.08
1554117645491,-7.879916000000001,-4.800973,2.4881742,-0.35473305,-0.40906155,0.02876214,46.5,3.72,9.72
1554117645511,-7.791331,-4.7578773000000005,2.544438,-0.36005938,-0.4048005,0.03195793,46.5,3.54,9.36
1554117645532,-7.674015,-4.698621,2.6515784,-0.34834146,-0.39521313,0.026631612000000002,46.56,3.3,8.7
1554117645551,-7.6638399999999995,-4.6800656,2.806603,-0.3057309,-0.38882150000000004,0.008522116,46.56,3.06,8.22
1554117645571,-7.704541000000001,-4.6471453,2.8377275,-0.26738137,-0.37603834,-0.02876214,46.62,3.0,7.98
1554117645591,-7.890092,-4.6980224,2.9454667999999997,-0.24820662,-0.35579833,-0.09587380000000001,46.74,2.7,7.56
1554117645610,-7.890690299999999,-4.724957,2.9640217,-0.2428803,-0.35473305,-0.12250541,46.8,2.64,7.44
1554117645631,-7.7865424,-4.6884456,3.0538042,-0.2545982,-0.33768883,-0.17576863,47.04,2.28,7.14
1554117645650,-7.877522,-4.575918,3.0454244999999998,-0.2790993,-0.3206446,-0.1949434,47.28,2.1,6.96
1554117645670,-7.9337860000000004,-4.429273,3.1070752,-0.330232,-0.31638354,-0.19600865,47.52,1.86,6.84
1554117645691,-7.916428,-4.3849800000000005,3.1615434,-0.40586576,-0.33768883,-0.17470337,47.76,1.68,6.84
1554117645712,-7.9068513,-4.461595,3.2591069999999998,-0.46125950000000004,-0.36325517,-0.14061491,48.0,1.5,6.9
1554117645730,-7.9391727,-4.5884876,3.3877954,-0.47297743,-0.386691,-0.1107875,48.18,1.38,6.84
1554117645750,-7.882310400000001,-4.683657,3.4650084999999997,-0.4314321,-0.40906155,-0.08948222,48.24,1.2,6.78
1554117645771,-7.803900200000001,-4.8338933,3.5224693,-0.36005938,-0.41545314,-0.07137272,48.3,1.08,6.6
1554117645790,-7.7440453,-4.940435400000001,3.6182373,-0.28975195,-0.40266997,-0.058589544,48.3,1.02,6.3
1554117645810,-7.688380199999999,-5.020641,3.6248214,-0.22264028,-0.37071204,-0.05219796,48.24,0.96,5.94
1554117645832,-7.6321163,-5.0254292000000005,3.5859156000000003,-0.15552860000000002,-0.3206446,-0.039414786,48.24,0.96,5.64
1554117645851,-7.675811,-4.931457,3.5122937999999992,-0.113983296,-0.26205507,-0.029827405,48.24,0.9,5.34
1554117645871,-7.6794020000000005,-4.8745947,3.4548330000000003,-0.12570119999999999,-0.2066613,-0.025566347000000003,48.24,0.9,5.04
1554117645891,-7.7171106,-4.8757915,3.429694,-0.165116,-0.15659387,-0.012783173500000002,48.36,0.84,4.8
1554117645911,-7.7254906000000005,-4.9057193,3.4434607,-0.20026971,-0.11930962,-0.004261058,48.54,0.72,4.56
1554117645931,-7.654263,-4.8853683,3.481768,-0.21198763,-0.09054748,0.0,48.66,0.6,4.44
1554117645950,-7.61835,-4.914099,3.5847184999999997,-0.19281286,-0.08841695,0.0053263223,48.84,0.48,4.38
1554117645971,-7.493850999999999,-4.911106,3.6834792999999997,-0.14168017,-0.098004326,0.013848438000000001,48.96,0.3,4.38
1554117645991,-7.3831196,-4.957793,3.7433343,-0.07243799,-0.10759171,0.018109497,49.08,0.18,4.32
1554117646010,-7.252037,-4.96737,3.7445314,-0.0031957934000000003,-0.112918034,0.015978966,49.2,0.06,4.26
1554117646030,-7.1466923,-4.965574299999999,3.8654387000000003,0.053263225,-0.113983296,0.002130529,49.26,0.0,4.14
1554117646051,-7.043143,-4.968567,3.9528269999999996,0.11504856,-0.10652645,-0.013848438000000001,49.26,-0.12,4.02
1554117646071,-6.940790700000001,-4.9344497,3.9474400999999997,0.17576863,-0.08948222,-0.033023197000000004,49.26,-0.12,3.84
1554117646091,-6.9599442,-4.9308586,3.8833952000000003,0.22477080000000002,-0.05539375,-0.07882957,49.26,-0.18,3.72
1554117646111,-7.060500599999999,-4.8698063,3.8420951,0.23648871,-0.024501082,-0.13741912,49.26,-0.18,3.6
1554117646131,-7.208342599999999,-4.872799,3.8977604,0.20133498,-0.011717908999999999,-0.19387813,49.2,-0.3,3.48
1554117646151,-7.222707700000001,-4.968567,3.9282866000000003,0.15339808,-0.012783173500000002,-0.22264028,49.2,-0.3,3.36
1554117646171,-7.231087700000001,-5.043386,4.0743327,0.13848437,-0.007456851,-0.23968449999999997,49.2,-0.36,3.3
1554117646190,-7.257424,-5.1343656,4.1371803,0.17789917,0.0053263223,-0.26418558,49.2,-0.36,3.18
1554117646210,-7.358579,-5.116409,4.1401734,0.25566345,0.034088463,-0.26738137,49.2,-0.36,3.12
1554117646230,-7.367557000000001,-5.1002483,4.0318356,0.33662358,0.07350325,-0.24074976,49.2,-0.24,3.06
1554117646251,-7.271190600000001,-5.0643353,3.8696284,0.40373522,0.11930962,-0.1949434,49.2,-0.06,3.0
1554117646272,-7.184400599999999,-4.9721584000000005,3.750517,0.45167214,0.17896444,-0.14913702,49.2,0.12,3.0
1554117646290,-7.1832037,-4.823119,3.5883097999999998,0.46125950000000004,0.23755397,-0.12037488,49.26,0.36,3.0
1554117646311,-7.2484455,-4.684255599999999,3.5452142,0.43888897,0.28336033,-0.11717909,49.26,0.66,3.0
1554117646331,-7.33763,-4.6273932,3.6104562000000007,0.41438788,0.31957933,-0.12996227,49.26,0.9,3.0
1554117646350,-7.401076,-4.6255975,3.5871127,0.38349520000000004,0.33768883,-0.15552860000000002,49.2,1.38,3.12
1554117646371,-7.378331,-4.630386,3.6697125,0.36325517,0.3334278,-0.165116,49.2,1.5,3.12
1554117646391,-7.36217,-4.701015,3.762488,0.34194988,0.3270362,-0.18109496,49.14,1.68,3.24
1554117646410,-7.3100963000000005,-4.6902413,3.915717,0.33875409999999995,0.30786142,-0.19600865,49.14,1.98,3.3
1554117646431,-7.3346367,-4.71957,3.9324763,0.350472,0.29933932,-0.19600865,49.02,2.34,3.48
1554117646451,-7.442375999999999,-4.671686,3.8971617,0.38242993,0.29933932,-0.18322548,48.9,2.52,3.66
1554117646471,-7.454945599999999,-4.707000700000001,3.8115692,0.41119209999999995,0.30466563,-0.18002969,48.84,2.76,3.9
1554117646492,-7.393294999999999,-4.699219,3.7523127,0.43462790000000007,0.3153183,-0.1768339,48.78,2.94,4.14
1554117646510,-7.415441,-4.6273932,3.7355532999999994,0.4644553,0.32170987,-0.16298546,48.66,3.18,4.38
1554117646531,-7.3424179999999994,-4.774636699999999,3.5248635000000004,0.47404268,0.31318775,-0.12144015,48.6,3.6,4.56
1554117646551,-7.3627687,-4.694431,3.4985273,0.49641323,0.3291667,-0.12570119999999999,48.48,3.9,4.74
1554117646570,-7.507019500000001,-4.8219223,3.3770216,0.5400891,0.35473305,-0.18429075,48.36,4.26,4.92
1554117646591,-7.462726600000001,-4.9254713,3.1896752999999998,0.5486112,0.36964676,-0.25885928,48.18,4.56,5.04
1554117646611,-7.447763,-4.811148,3.2130187,0.50387007,0.36645097,-0.36325517,48.06,4.92,5.22
1554117646631,-7.3950906000000005,-4.6896424,3.2932242999999994,0.4165184,0.31105720000000003,-0.44528055,47.94,5.22,5.34
1554117646652,-7.131728,-4.433463,3.3704373999999997,0.3334278,0.21411815,-0.46232477,47.82,5.58,5.46
1554117646671,-6.998251400000001,-4.417900599999999,3.5033157,0.31105720000000003,0.15765914,-0.47191215,47.7,5.94,5.64
1554117646691,-6.8097080000000005,-4.338293599999999,3.5206735,0.32170987,0.10439592,-0.5294364,47.58,6.3,5.88
1554117646711,-6.7217210000000005,-4.31076,3.4715924,0.36005938,0.09587380000000001,-0.5901565,47.52,6.66,6.06
1554117646731,-6.5601125,-4.395156,3.3482912000000002,0.406931,0.10652645,-0.700944,47.52,7.02,6.36
1554117646750,-6.5487404,-4.6381674,3.2255882999999996,0.406931,0.14913702,-0.8383630999999999,47.46,7.5,6.54
1554117646771,-6.6654577,-5.0816930000000005,3.156755,0.3334278,0.19068234,-0.96619487,47.4,8.04,6.72
1554117646791,-6.716933,-5.37199,3.1483752999999997,0.27057716,0.23329292,-0.9821738000000001,47.28,8.64,6.84
1554117646811,-6.799533,-5.6700683,3.2208,0.23861924,0.27164245,-0.96406436,47.16,9.48,6.96
1554117646831,-6.7366850000000005,-5.717354,3.4272997000000003,0.24181503,0.2972088,-0.9672601000000001,47.04,10.38,7.02
1554117646851,-6.6062009999999995,-5.566519,3.6355953000000003,0.30040458,0.30892670000000005,-1.0045444,46.86,11.22,7.08
1554117646870,-6.4900823,-5.8268886,3.6134489000000003,0.35153726,0.27483824,-1.0439591000000001,46.68,12.12,7.08
1554117646890,-6.294955,-5.7849900000000005,3.8319199999999998,0.34194988,0.26631612,-1.0748518999999999,46.38,13.2,7.14
1554117646911,-6.2087636,-5.547365,3.9408559999999997,0.40053943,0.24181503,-1.144094,46.14,14.28,7.2
1554117646931,-5.923255,-5.243302,3.8935703999999998,0.49321744,0.20453078,-1.2282499,45.84,15.42,7.32
1554117646951,-5.507861,-4.8458643,3.9414546,0.5965481,0.15020229,-1.3795174,45.6,16.5,7.44
1554117646971,-5.092467,-4.736928,3.851672,0.6828345,0.058589544,-1.6010925,45.24,17.46,7.5
1554117646990,-4.683657,-4.6776714,3.8121676,0.7307714,-0.025566347000000003,-1.8301243999999999,44.82,18.42,7.62
1554117647010,-4.292804,-4.7644614999999995,3.4877534,0.68816084,-0.112918034,-2.0506341,44.22,19.38,7.68
1554117647030,-3.867833,-4.470573,3.4578260000000003,0.572047,-0.16831179,-2.292449,43.5,20.4,7.68
1554117647051,-3.3889925,-4.7040076,3.7900212,0.46658584,-0.257794,-2.5843315,42.84,21.48,7.68
1554117647071,-2.7377696,-5.351041,4.2275615,0.35260254,-0.32277513,-2.8176246,42.06,22.8,7.68
1554117647091,-1.9794062,-6.3979053,4.2874165,0.31957933,-0.31318775,-2.9454563,41.16,24.24,7.5
1554117647111,-1.4628572,-6.8132997,4.2898107,0.30679616,-0.23755397,-3.0700922000000004,40.08,25.86,7.44
1554117647131,-1.2922704,-7.0946183000000005,3.2728736,0.10865697,-0.25246766,-3.1712922999999997,39.0,27.54,7.32
1554117647151,-1.073201,-6.8623804999999996,2.6515784,-0.47617322,-0.21837921,-3.1265512,37.8,29.22,7.2
1554117647171,-0.45010993,-7.0209966,2.5671828,-1.1451592,-0.13848437,-3.0551784,36.66,30.78,7.14
1554117647191,0.24241292,-7.216124000000001,3.2261868,-1.5744608999999998,-0.047936900000000005,-3.174488,35.46,32.28,7.08
1554117647210,0.9259575000000001,-7.8128785999999995,3.639785,-1.6671387999999998,-0.06604639400000001,-3.4365432,34.2,33.6,7.02
1554117647231,1.8740613000000002,-8.92738,2.6210522999999997,-1.6266588,-0.10972224,-3.4621096,32.7,34.56,7.14
1554117647251,3.1334114,-9.646238,1.8608932,-1.6479641,0.12144015,-3.1691618,30.96,35.22,7.5
1554117647270,3.8229415,-11.113883999999999,2.5941176,-1.5701998,0.30466563,-3.1244206,29.22,35.7,8.1
1554117647290,4.2622776,-12.294825,3.1920695,-1.4061489999999999,0.4016047,-3.2234902,27.36,35.88,8.76
1554117647310,3.9324763,-11.521497,3.2531216,-0.8266452,0.49960902,-3.1158986,24.18,35.4,9.96
1554117647330,4.361637,-11.125257000000001,2.31639,-0.4016047,0.56245965,-3.086071,22.02,34.8,10.8
1554117647350,5.0984526,-11.040262,1.9626468000000001,-0.17150758,0.6306366,-2.9603697999999996,19.86,33.96,11.58
1554117647371,5.3259015,-10.962451,1.958457,-0.18642128,0.6380934,-2.8858013,18.78,33.54,12.06
1554117647391,5.298967,-9.746795,1.6915035,-0.34940675,0.56672066,-2.8613002,5.1,25.92,16.02
1554117647411,5.642534700000001,-8.791509,1.4155718000000002,-0.43569317,0.5784385999999999,-2.803776,3.3,24.84,16.5
1554117647431,6.275801,-9.146449,1.0289081,-0.50813115,0.61572284,-2.6919234,1.56,23.58,16.8
1554117647450,6.619967999999999,-9.2865095,1.2258313,-0.6530071,0.6348976,-2.5481126,0.0,22.2,17.04
1554117647471,6.579865,-9.504980999999999,1.4700398000000001,-0.7552725,0.5901565,-2.3425164,-1.38,21.0,17.04
1554117647491,6.805517999999999,-9.500193,1.8680758000000002,-0.8181231,0.5273059,-2.13479,-2.76,19.86,17.1
1554117647511,7.1514807000000005,-9.381081,1.8842366999999998,-0.8277104999999999,0.46978164,-1.9739349999999998,-4.08,18.6,17.1
1554117647530,7.3184759999999995,-9.415198,1.8183962,-0.7978831000000001,0.46019423,-1.7640778999999998,-5.34,17.34,17.1
1554117647550,7.392696400000001,-9.399636,1.9327193,-0.71798825,0.5028047999999999,-1.5393071000000003,-6.48,16.08,17.1
1554117647571,7.299322599999999,-9.419388,1.8872293999999998,-0.61678815,0.531567,-1.2825783000000002,-7.5,14.76,17.16
1554117647591,7.217321000000001,-9.155427,1.9428947,-0.53476274,0.572047,-0.98856544,-8.4,13.5,17.22
1554117647610,7.037756,-8.842385,1.8070238,-0.47830373,0.6040049,-0.68389976,-9.42,12.42,17.4
1554117647630,6.743269000000001,-8.41502,1.6992846999999998,-0.46765109999999993,0.6178534000000001,-0.44741106,-10.26,11.4,17.64
1554117647651,6.5385647,-8.019978,1.5574282,-0.48469532,0.6221144000000001,-0.27696875,-11.1,10.5,17.94
1554117647670,6.2901664,-7.7703815,1.6663644,-0.50813115,0.5997439,-0.16192019,-11.88,9.66,18.18
1554117647691,6.169258999999999,-7.920019,1.8339584999999998,-0.4250405,0.5496765,-0.060720075,-12.6,8.82,18.42
1554117647710,6.0369797,-7.9313917,1.8626889,-0.31957933,0.46978164,-0.013848438000000001,-13.26,7.98,18.54
1554117647730,5.9023056,-7.9768815,1.9524715,-0.21198763,0.36325517,0.04474111,-13.92,7.14,18.6
1554117647751,5.892729,-8.219892999999999,2.0949266,-0.111852765,0.23116238,0.14061491,-14.52,6.54,18.72
1554117647771,5.8143187,-8.441357,2.2146366000000004,-0.0010652645,0.08628642,0.24927188,-14.94,6.0,18.78
1554117647791,5.627571,-8.433575999999999,2.2134395000000002,0.12144015,-0.037284255,0.37603834,-15.3,5.58,18.84
1554117647810,5.5377884,-8.432379,2.219425,0.24607609,-0.12676647,0.5454154,-15.54,5.22,18.84
1554117647830,5.5856724,-8.465898,2.3026235,0.36005938,-0.19387813,0.7126619000000001,-15.72,5.04,18.78
1554117647851,5.492897,-8.51857,2.4486697,0.4889564,-0.25140239999999997,0.83729786,-18.0,3.96,22.92
1554117647871,5.445012999999999,-8.523358,2.4911668,0.61572284,-0.30786142,0.9374326999999999,-18.06,4.26,22.92
1554117647891,5.449203,-8.474875,2.397793,0.71159667,-0.34088463,1.0610034,-18.12,4.92,22.86
1554117647910,5.4396260000000005,-8.461707,2.1559787,0.76592517,-0.35260254,1.1824435,-18.0,5.58,22.8
1554117647931,5.3995233,-8.356961,2.0847511,0.7616641,-0.33129725,1.2815131000000002,-17.88,6.36,22.74
1554117647951,5.224746700000001,-8.336611,1.8393455,0.7126619000000001,-0.30679616,1.3624732,-17.64,7.2,22.68
1554117647971,5.016451,-8.321048,1.2958617000000001,0.531567,-0.30146983,1.4242586000000002,-17.22,8.22,22.62
1554117647991,4.55856,-8.074444999999999,0.9923966000000001,0.21411815,-0.30146983,1.4839133999999998,-16.68,9.3,22.62
1554117648010,4.2371383,-8.148066499999999,0.93972415,-0.19068234,-0.34408042,1.562743,-16.02,10.62,22.56
1554117648032,4.0821137,-8.760384,1.2431892,-0.49321744,-0.43462790000000007,1.627724,-15.18,11.94,22.56
1554117648051,4.170100700000001,-9.492412,1.4251486,-0.6295713000000001,-0.5475459,1.6820526000000002,-14.28,13.14,22.56
1554117648071,4.231153,-10.086772,1.4826093999999999,-0.59761333,-0.61891866,1.7172063999999998,-13.26,14.28,22.5
1554117648091,4.174889,-10.234015,1.5658079,-0.39414784,-0.6412892,1.7331853,-12.24,15.3,22.56
1554117648111,4.065953299999999,-10.2657385,1.3347674999999999,-0.16085494,-0.63702816,1.7385116000000003,-10.98,16.32,22.56
1554117648130,3.887585,-9.875483500000001,1.0402806,0.08948222,-0.62744075,1.7491642,-9.66,17.22,22.68
1554117648150,3.5966894999999997,-9.397242,0.93014735,0.22583607,-0.608266,1.7821875,-8.4,17.94,22.8
1554117648171,3.3686419,-9.072227999999999,0.87448215,0.18535602,-0.63383234,1.8226674999999999,-6.6,18.78,22.92
1554117648191,3.079542,-8.831013,0.91458505,0.05219796,-0.65194184,1.8109495999999998,-5.4,19.14,23.04
1554117648211,2.7802667999999997,-8.747814,1.0737995,-0.07882957,-0.6562029,1.7694043000000002,-4.26,19.5,23.16
1554117648231,2.469619,-9.008183500000001,1.1456255,-0.13848437,-0.6668556,1.7331853,-2.94,19.86,23.28
1554117648251,2.3343467999999996,-9.018958,1.1887212,-0.16298546,-0.6466155,1.7204021,-2.28,20.04,23.28
1554117648271,1.9476831000000001,-9.080608,1.2665327,-0.15126756,-0.6221144000000001,1.6490293999999999,-0.6,20.58,23.34
1554117648290,1.6525976999999998,-9.16261,1.353921,-0.06924219,-0.60933125,1.5425029,0.6,20.82,23.34
1554117648311,1.3210008,-9.244612,1.1186907,-0.0053263223,-0.5933523,1.4444987,1.92,21.0,23.28
1554117648331,1.2318168,-9.267955,0.90021986,-0.03089267,-0.5816344,1.3869743,3.24,21.06,23.28
1554117648350,0.97384155,-9.0794115,0.8900445,-0.096939065,-0.5305017,1.3017531999999998,4.56,21.12,23.28
1554117648370,0.5674258000000001,-9.216479,0.89782566,-0.16298546,-0.5134575,1.2218584,5.76,21.18,23.28
1554117648391,0.30526072,-9.277532,0.59017074,-0.3270362,-0.5294364,1.1994878,6.84,21.18,23.28
1554117648411,0.07003039999999999,-8.968081,0.5201403,-0.5432849000000001,-0.50600064,1.2175972,7.86,21.24,23.22
1554117648431,-0.17836803,-9.270947,0.4794389,-0.75101143,-0.5028047999999999,1.1856394,8.76,21.24,23.22
1554117648451,-0.30346507,-9.451111000000001,0.7044938000000001,-0.9395633,-0.49854377,1.1494204,9.54,21.18,23.22
1554117648470,-0.37349546,-9.602545,0.60932434,-0.90654004,-0.47617322,1.0855045,10.14,20.88,23.16
1554117648490,-0.42377370000000003,-9.829395,0.33039984,-0.89588743,-0.46765109999999993,1.0205233,10.68,20.52,23.22
1554117648512,-0.50637364,-9.786897999999999,0.08259996,-0.94595486,-0.4165184,0.9534117,11.4,20.04,23.34
1554117648531,-0.7870938000000001,-9.541492,-0.0047884034,-1.0130665,-0.38242993,0.90973586,12.12,19.5,23.52
1554117648550,-0.9588778,-9.570822,-0.46028528,-1.1899004,-0.40053943,0.87138635,12.78,18.9,23.82
1554117648570,-0.96306765,-9.52593,-0.6757634,-1.4061489999999999,-0.40906155,0.8490158000000001,13.32,18.24,24.12
1554117648591,-1.2443863000000002,-9.4062195,-0.85413146,-1.7907095000000002,-0.41758367,0.8298409999999999,13.86,17.52,24.42
1554117648611,-1.5095441,-9.623494,-0.7326256999999999,-2.05383,-0.46871635,0.79042625,14.34,16.38,24.78
1554117648631,-1.7878702000000002,-9.782109,-0.55964464,-2.091114,-0.5475459,0.7233145999999999,14.88,15.24,25.14
1554117648651,-2.1374235,-9.852139999999999,-0.6991069000000001,-1.9515644,-0.6018744,0.6540724,15.54,13.86,25.62
1554117648670,-2.6360161,-9.78989,-0.4985925,-1.6362462,-0.6061354999999999,0.5858955,15.96,12.36,25.98
1554117648690,-3.1465794999999996,-9.669582,-0.5967548,-1.0780476,-0.5965481,0.5475459,16.38,10.92,26.34
1554117648711,-3.342904,-9.430760000000001,-1.1139023000000001,-0.50600064,-0.61891866,0.54648066,16.8,9.36,26.7
1554117648731,-3.3452983,-8.974665,-1.6657659,-0.17789917,-0.57311225,0.5784385999999999,17.28,7.74,27.0
1554117648751,-3.4841620000000004,-8.684967,-1.9758148999999998,-0.08841695,-0.5049353,0.59761333,17.82,6.24,27.36
1554117648770,-3.6164417,-8.547898,-2.2637177000000004,-0.13635385,-0.45912898,0.5997439,18.42,5.04,27.6
1554117648791,-3.7481226999999997,-8.48146,-2.5504234,-0.3174488,-0.43782368,0.58483016,19.02,4.08,27.78
1554117648811,-4.0773253,-8.35337,-2.6874914,-0.6061354999999999,-0.4261058,0.5581986,19.5,3.42,27.9
1554117648830,-4.446631,-8.313267,-2.9017725,-1.019458,-0.46871635,0.5603291,19.8,2.76,27.96
1554117648850,-4.519056,-8.212111,-2.9879637000000003,-1.5350461000000002,-0.5070659000000001,0.58056915,20.16,2.1,27.84
1554117648871,-4.610633999999999,-8.385093,-2.930503,-1.9718044999999997,-0.5273059,0.5773733,20.52,1.44,27.78
1554117648891,-4.847659999999999,-8.5383215,-2.801216,-2.1614215,-0.5518069999999999,0.57417756,20.88,0.78,27.6
1554117648911,-4.9901147,-8.389880999999999,-3.063381,-2.143312,-0.58696073,0.60933125,21.3,-0.06,27.48
1554117648931,-4.992509,-8.222287,-3.4213142,-2.0570256999999996,-0.588026,0.6380934,21.6,-1.2,27.3
1554117648951,-5.0284224,-8.279748,-3.6523547,-1.9504991999999999,-0.5773733,0.62104917,21.9,-2.64,27.18
1554117648971,-5.1696800000000005,-8.013991,-4.0761285,-1.6650082999999998,-0.572047,0.6242449999999999,22.38,-5.1,27.0
1554117648990,-5.1385555,-7.683592,-4.3664255,-1.5009576,-0.5901565,0.65726817,22.56,-6.0,26.94
1554117649010,-4.944625,-7.281366,-4.437054,-1.3624732,-0.6114618,0.6956177,22.92,-7.86,26.82
1554117649031,-4.9200845,-6.707356,-4.390966000000001,-1.200553,-0.58483016,0.6764429,23.34,-10.74,26.4
1554117649052,-5.1648917,-6.3422403,-4.4059295999999994,-1.0535465,-0.5550028,0.6199839,23.58,-12.54,26.04
1554117649071,-5.3564277,-6.2901664,-4.865018,-0.8990832000000001,-0.5336975,0.5763081,23.82,-14.22,25.68
1554117649090,-5.567117700000001,-6.1524997,-4.8440685,-0.82877576,-0.4857606,0.5219796,24.0,-15.6,25.32
1554117649111,-5.798158,-6.133945,-4.707599,-0.7233145999999999,-0.47617322,0.41119209999999995,24.24,-16.74,24.96
1554117649131,-6.023811299999999,-6.1369375999999995,-4.911705,-0.59761333,-0.5070659000000001,0.3334278,24.42,-17.82,24.54
1554117649151,-5.9717374,-6.217741999999999,-5.0104656,-0.5187838,-0.5251754,0.3291667,24.66,-18.84,24.06
1554117649170,-5.9801173,-6.244078,-4.743512,-0.41758367,-0.5454154,0.294013,24.84,-19.8,23.64
1554117649191,-6.1333459999999995,-6.2512608,-4.691438,-0.25140239999999997,-0.567786,0.28016454,25.02,-20.64,23.22
1554117649211,-6.2273190000000005,-6.2464724,-4.7279496,-0.1107875,-0.58056915,0.314253,25.2,-21.42,22.86
1554117649231,-6.3033347,-6.173449,-4.733337000000001,-0.03089267,-0.5784385999999999,0.33555830000000003,25.38,-22.14,22.44
1554117649251,-6.371569,-6.0423665,-4.5118732,0.04474111,-0.57311225,0.36964676,25.56,-22.8,22.02
1554117649271,-6.38354,-5.960963700000001,-4.2610803,0.14913702,-0.5784385999999999,0.3898868,25.68,-23.4,21.6
1554117649291,-6.405687,-5.8508306,-4.161721,0.2428803,-0.57417756,0.39734364,25.86,-23.94,21.12
1554117649310,-6.369773400000001,-5.798158,-4.2658687,0.2695119,-0.5699165,0.3653857,25.98,-24.3,20.82
1554117649331,-6.3548098,-5.7921724,-4.217984700000001,0.21837921,-0.57098174,0.26844665,26.16,-24.48,20.52
1554117649351,-6.2967505,-5.9148755,-4.086901999999999,0.15552860000000002,-0.5475459,0.16405073,26.4,-24.72,20.34
1554117649370,-6.529587,-5.891532,-3.8510735,0.11824436,-0.48043427,0.040480047000000005,26.64,-24.84,20.16
1554117649390,-6.865972,-5.8161144,-3.752911,0.07456851,-0.41971418,-0.0063915867,26.88,-24.96,19.98
1554117649410,-7.451953,-5.8334722999999995,-3.6337996,0.023435817999999997,-0.2876214,-0.035153727999999995,27.12,-25.02,19.8
1554117649430,-7.8948803,-5.897517,-3.764882,0.007456851,-0.1768339,-0.099069595,27.3,-24.96,19.68
1554117649450,-7.758410499999999,-5.8179099999999995,-3.8361096,-0.029827405,-0.16298546,-0.13209279,27.54,-24.96,19.56
1554117649471,-7.5136037,-5.687426,-3.5015199999999997,-0.094808534,-0.1949434,-0.18855181,27.72,-24.9,19.44
1554117649492,-7.699153999999999,-5.5647235,-3.198055,-0.14594123,-0.26631612,-0.22477080000000002,27.9,-24.78,19.32
1554117649511,-7.7350674,-5.5324016,-3.2980127,-0.19281286,-0.37071204,-0.2066613,28.02,-24.66,19.2
1554117649531,-7.6351094,-5.445612000000001,-3.3764230000000004,-0.19600865,-0.49108690000000005,-0.19600865,28.14,-24.6,19.08
1554117649551,-7.5052238,-5.406706,-3.5224693,-0.16405073,-0.58483016,-0.19707392,28.32,-24.48,18.9
1554117649571,-7.587225,-5.370793,-3.6613328000000003,-0.15765914,-0.61678815,-0.21837921,28.44,-24.42,18.6
1554117649591,-7.6764092,-5.252279799999999,-3.8594532,-0.19174760000000002,-0.628506,-0.22583607,28.56,-24.42,18.3
1554117649613,-7.6488757,-5.267244,-4.1120415,-0.2695119,-0.64341974,-0.20453078,28.68,-24.42,18.06
1554117649631,-7.454347,-5.209184,-3.9995138999999997,-0.39521313,-0.64341974,-0.20985709,28.86,-24.36,17.82
1554117649651,-7.301717,-5.192425,-3.6200330000000003,-0.41545314,-0.6348976,-0.19387813,29.22,-24.3,17.52
1554117649671,-7.091027,-5.035605,-3.4081461,-0.32384038,-0.6018744,-0.1587244,29.58,-24.24,17.1
1554117649690,-6.985682000000001,-5.047576,-3.6535518,-0.25672874,-0.57098174,-0.13954964,29.94,-24.18,16.68
1554117649710,-6.9246297000000006,-5.0421886,-3.7427358999999996,-0.28336033,-0.54435015,-0.13741912,30.3,-24.12,16.26
1554117649732,-6.869563,-5.0116625,-3.5972881,-0.34194988,-0.5091964,-0.16724652,30.72,-24.06,16.02
1554117649751,-6.7648168,-5.0631379999999995,-3.537433,-0.38882150000000004,-0.47617322,-0.19068234,31.08,-23.94,15.72
1554117649770,-6.4667387000000005,-5.100847,-3.5655648999999996,-0.39734364,-0.43675843,-0.22264028,31.44,-23.88,15.36
1554117649790,-6.4499793,-5.3390699999999995,-3.7211879999999997,-0.42930159999999995,-0.38562572,-0.24181503,31.74,-23.82,15.0
1554117649811,-6.622362,-5.7562594,-3.7475242999999994,-0.61572284,-0.30253512,-0.24501082,31.86,-23.76,14.52
1554117649830,-6.851008,-6.2273190000000005,-3.5859156000000003,-0.8522116,-0.20559604,-0.22690132,32.04,-23.7,13.98
1554117649850,-6.8743514999999995,-6.4164605,-3.5230677000000004,-0.87777793,-0.1768339,-0.23222765,32.16,-23.7,13.86
1554117649871,-7.085041499999999,-6.941389,-3.4811692,-0.7797736,-0.12250541,-0.28016454,32.34,-23.64,13.44
1554117649891,-7.2628107,-7.225700999999999,-3.4685998,-0.61572284,-0.094808534,-0.31318775,32.52,-23.64,13.2
1554117649911,-7.2406645,-7.4088573,-3.341707,-0.40373522,-0.09161274,-0.3153183,32.64,-23.7,12.96
1554117649931,-7.1909847000000005,-7.4088573,-3.1441852999999997,-0.17257284,-0.08841695,-0.28442562,32.82,-23.76,12.78
1554117649951,-7.3777327999999995,-7.117363,-3.1585505,0.099069595,-0.07350325,-0.25033715,33.0,-23.82,12.54
1554117649971,-7.453747999999999,-6.8204823,-3.0867245,0.330232,-0.051132694000000006,-0.19387813,33.18,-23.88,12.36
1554117649991,-7.3789296,-6.360196599999999,-3.2668881,0.51771855,-0.047936900000000005,-0.13741912,33.36,-23.88,12.12
1554117650010,-7.2071457,-5.985504,-3.371036,0.62317973,-0.053263225,-0.083090626,33.48,-23.82,11.94
1554117650033,-7.021595,-5.746084,-3.3824084,0.6423545,-0.07137272,-0.03834952,33.6,-23.64,11.82
1554117650051,-6.9916677,-5.6634839999999995,-3.5571851999999997,0.6178534000000001,-0.08841695,-0.00958738,33.72,-23.46,11.64
1554117650071,-7.0006455999999995,-5.549161,-3.70802,0.50813115,-0.08948222,0.01917476,33.9,-23.22,11.64
1554117650090,-6.9108634,-5.4515970000000005,-3.7331589999999997,0.36964676,-0.11611383,0.04474111,34.02,-22.98,11.58
1554117650110,-6.7642183000000005,-5.644929,-3.6379894999999998,0.2727077,-0.10439592,0.06711166,34.14,-22.68,11.7
1554117650131,-6.623558999999999,-5.834071,-3.4278982000000005,0.21092236,-0.04580637,0.046871635999999994,34.26,-22.38,11.82
1554117650150,-6.676830000000001,-5.8508306,-3.3423057000000003,0.18535602,0.0063915867,0.010652645,34.44,-22.2,12.0
1554117650170,-6.783970399999999,-6.022016000000001,-3.3806129,0.16298546,0.039414786,-0.0053263223,34.56,-22.02,12.12
1554117650191,-6.8204823,-6.114192500000001,-3.2375592999999996,0.12783173,0.053263225,-0.023435817999999997,34.68,-21.9,12.18
1554117650211,-7.000047,-6.2099605,-3.0741549999999997,0.14274544,0.053263225,-0.01917476,34.74,-21.72,12.3
1554117650231,-7.152677499999999,-6.217741999999999,-2.944868,0.20985709,0.056459017,0.02876214,34.8,-21.6,12.3
1554117650251,-7.2729864,-6.2500634,-2.9807810000000003,0.29188246,0.06498113,0.07350325,34.86,-21.42,12.3
1554117650271,-7.355586,-6.159084,-3.0101101000000003,0.36112466,0.05006743,0.10546118,34.92,-21.36,12.3
1554117650291,-7.445369,-6.0902505,-3.0160956000000003,0.4250405,0.039414786,0.15339808,35.04,-21.24,12.3
1554117650311,-7.4106526,-6.0627174,-3.0933087,0.44741106,0.014913702,0.18961707,35.04,-21.18,12.3
1554117650333,-7.338228,-6.031593,-3.2381577,0.45167214,-0.0010652645,0.21411815,35.04,-21.12,12.3
1554117650352,-7.267599000000001,-5.9226565,-3.1794999,0.4048005,-0.026631612000000002,0.20133498,35.04,-21.12,12.36
1554117650373,-7.3352356,-5.8209029999999995,-3.1759086,0.3291667,-0.05539375,0.15978967,35.04,-21.12,12.42
1554117650392,-7.2927384,-5.704784,-3.091513,0.2545982,-0.096939065,0.12570119999999999,35.1,-21.06,12.48
1554117650412,-7.131728,-5.6844335,-3.0322563999999996,0.18216023,-0.128897,0.07669904,35.22,-21.06,12.6
1554117650432,-7.0030399999999995,-5.7065797,-2.846706,0.13102753,-0.12250541,0.02876214,35.22,-20.94,12.66
1554117650451,-7.077858999999999,-5.7813989999999995,-2.8083985,0.10865697,-0.098004326,-0.0063915867,35.28,-20.88,12.72
1554117650471,-7.127538700000001,-5.817312,-2.8538885,0.09267801,-0.068176925,-0.027696876000000002,35.34,-20.76,12.78
1554117650491,-7.149685000000001,-5.817312,-2.8856115,0.049002163,-0.036218993,-0.040480047000000005,35.34,-20.7,12.9
1554117650510,-7.152677499999999,-5.877765,-2.9526494,-0.0063915867,-0.012783173500000002,-0.026631612000000002,35.4,-20.58,12.9
1554117650530,-7.1131735,-5.9878983,-2.730587,-0.06604639400000001,0.010652645,-0.008522116,35.4,-20.58,12.9
1554117650551,-7.1730285,-6.083068,-2.6641479,-0.10439592,0.024501082,0.015978966,35.4,-20.52,12.9
1554117650571,-7.305906299999999,-6.117185,-2.5881321,-0.11930962,0.029827405,0.03834952,35.28,-20.52,12.84
1554117650591,-7.4327993,-6.125565,-2.581548,-0.09054748,0.014913702,0.04261058,35.34,-20.52,12.84
1554117650610,-7.4812818,-6.217143,-2.6036943999999997,-0.04261058,-0.0031957934000000003,0.04261058,35.28,-20.52,12.72
1554117650631,-7.465719,-6.1686606,-2.6503813,0.012783173500000002,-0.022370555,0.029827405,35.28,-20.52,12.6
1554117650651,-7.4495587,-6.1153900000000005,-2.6761188999999996,0.040480047000000005,-0.040480047000000005,0.011717908999999999,35.28,-20.52,12.54
1554117650671,-7.33763,-6.1243677000000005,-2.6521769,0.029827405,-0.07350325,0.002130529,35.34,-20.58,12.42
1554117650691,-7.2340803,-6.1489085999999995,-2.5887306,0.022370555,-0.094808534,-0.02130529,35.34,-20.64,12.36
1554117650711,-7.1867948,-6.132149,-2.60549,0.03089267,-0.113983296,-0.04580637,35.34,-20.7,12.36
1554117650731,-7.231087700000001,-6.192004,-2.497751,0.039414786,-0.11717909,-0.06391586,35.34,-20.76,12.42
1554117650750,-7.2646065,-6.1542954000000005,-2.3948002,0.035153727999999995,-0.10652645,-0.08735169,35.4,-20.82,12.42
1554117650772,-7.235875999999999,-6.237494,-2.3822308,0.05006743,-0.10972224,-0.10013486,35.46,-20.82,12.54
1554117650792,-7.268796400000001,-6.149507,-2.3690627,0.10333065,-0.096939065,-0.10226539,35.46,-20.88,12.6
1554117650813,-7.353192,-6.071097,-2.4223334999999997,0.15765914,-0.084155895,-0.101200126,35.52,-20.88,12.6
1554117650831,-7.4609309999999995,-6.0184245,-2.441487,0.16618125,-0.080960095,-0.083090626,35.52,-20.88,12.6
1554117650851,-7.498041000000001,-6.015432,-2.4247277,0.15020229,-0.08841695,-0.05752428,35.58,-20.88,12.6
1554117650871,-7.4693108,-6.010045,-2.3451207000000003,0.13209279,-0.098004326,-0.036218993,35.64,-20.82,12.54
1554117650891,-7.48607,-5.9890957,-2.3331497000000003,0.13635385,-0.11504856,-0.027696876000000002,35.64,-20.82,12.42
1554117650910,-7.5213847000000005,-5.9627595,-2.2613235,0.14913702,-0.13954964,-0.03195793,35.64,-20.76,12.36
1554117650930,-7.49445,-5.8903346,-2.2379801,0.15020229,-0.17789917,-0.05219796,35.64,-20.76,12.36
1554117650951,-7.4232225000000005,-5.8502316,-2.28347,0.12676647,-0.19920446,-0.082025364,35.7,-20.76,12.3
1554117650971,-7.410054,-5.789778,-2.2535423999999997,0.04474111,-0.21092236,-0.12676647,35.76,-20.76,12.3
1554117650991,-7.295731,-5.751471,-2.2840683,-0.035153727999999995,-0.22370553,-0.16085494,35.82,-20.7,12.24
1554117651011,-7.184400599999999,-5.73112,-2.380435,-0.128897,-0.21731395,-0.18855181,35.88,-20.7,12.18
1554117651030,-7.0449386,-5.567716000000001,-2.5935189999999997,-0.23861924,-0.19600865,-0.21518342,36.0,-20.7,12.0
1554117651051,-6.8396360000000005,-5.5180364,-2.7820622999999998,-0.36112466,-0.19068234,-0.25566345,36.06,-20.7,11.82
1554117651070,-6.8097080000000005,-5.5581393,-2.7311857,-0.48682585,-0.19387813,-0.29188246,36.18,-20.64,11.58
1554117651090,-7.003638700000001,-5.743091000000001,-2.5623944,-0.5965481,-0.1949434,-0.30146983,36.3,-20.58,11.4
1554117651111,-7.265205,-5.93343,-2.4833857999999998,-0.65726817,-0.19600865,-0.28868666,36.36,-20.46,11.22
1554117651131,-7.45315,-6.0968347000000005,-2.5318682,-0.6860303000000001,-0.18855181,-0.257794,36.42,-20.4,10.98
1554117651151,-7.5746554999999995,-6.296151999999999,-2.7581203,-0.700944,-0.17789917,-0.2130529,36.48,-20.28,10.74
1554117651171,-7.542333999999999,-6.498462,-2.7700913,-0.72011876,-0.18216023,-0.17044231,36.54,-20.16,10.56
1554117651191,-7.4274119999999995,-6.671442999999999,-2.7581203,-0.7392935,-0.19813919,-0.13528858,36.6,-20.1,10.2
1554117651212,-7.351995,-6.7504516,-2.8125885,-0.7414241,-0.22264028,-0.11717909,36.72,-20.04,9.96
1554117651232,-7.319673,-6.7444663,-2.846706,-0.7052050999999999,-0.25566345,-0.09267801,36.78,-19.98,9.66
1554117651252,-7.173627000000001,-6.712144400000001,-2.7922377999999997,-0.6178534000000001,-0.28975195,-0.08841695,36.84,-19.98,9.36
1554117651271,-7.020397999999999,-6.613982000000001,-2.6563668,-0.49321744,-0.30253512,-0.09374327,36.9,-20.04,9.06
1554117651291,-6.9150529999999995,-6.453571,-2.7162217999999996,-0.37071204,-0.28655612,-0.1107875,37.02,-20.1,8.7
1554117651311,-6.902483500000001,-6.239888,-2.8850130000000003,-0.29188246,-0.2545982,-0.1438107,37.08,-20.16,8.46
1554117651331,-6.9342065,-6.229114,-2.9502552000000004,-0.27696875,-0.22796659,-0.17257284,37.2,-20.28,8.22
1554117651351,-6.856395200000001,-6.349423000000001,-2.8802247000000003,-0.29827404,-0.19920446,-0.19813919,37.32,-20.34,8.16
1554117651371,-6.7648168,-6.4882865,-2.8862102000000003,-0.31212249999999997,-0.15978967,-0.22583607,37.44,-20.46,8.04
1554117651392,-6.829460000000001,-6.589442,-2.9442697,-0.30786142,-0.12250541,-0.23648871,37.56,-20.64,7.92
1554117651411,-6.7516490000000005,-6.795342999999999,-2.8395232999999998,-0.27590349999999997,-0.098004326,-0.23329292,37.68,-20.7,7.74
1554117651430,-6.7468604999999995,-6.917447,-2.6868927000000005,-0.18429075,-0.049002163,-0.25353295,37.8,-20.76,7.5
1554117651451,-6.891111,-7.091027,-2.8155810000000003,-0.07137272,-0.0031957934000000003,-0.29188246,37.92,-20.88,7.26
1554117651470,-6.955754300000001,-7.2047514999999995,-3.0095115000000003,-0.026631612000000002,0.011717908999999999,-0.30360037,37.98,-20.94,7.14
1554117651490,-7.079654,-7.300519500000001,-3.0460230999999998,0.09374327,0.04474111,-0.3334278,38.04,-21.0,6.84
1554117651510,-7.126939999999999,-7.3567834,-2.9454667999999997,0.18216023,0.06604639400000001,-0.33129725,38.04,-21.0,6.72
1554117651530,-7.134721300000001,-7.3825210000000006,-2.8048072,0.25992453,0.08522116,-0.31212249999999997,38.04,-21.0,6.66
1554117651552,-7.1305312999999995,-7.390900599999999,-2.7347770000000002,0.42077947,0.08841695,-0.26738137,38.1,-20.94,6.6
1554117651572,-7.159860000000001,-7.315483,-2.5312697999999996,0.57098174,0.07456851,-0.19600865,38.16,-20.82,6.6
1554117651592,-7.21373,-7.2502413,-2.3840263,0.76272935,0.05752428,-0.13209279,38.28,-20.7,6.6
1554117651612,-7.2370734,-7.2364745,-2.2086509999999997,0.9736517,0.036218993,-0.080960095,38.34,-20.46,6.6
1554117651631,-7.1580644,-7.213131,-2.0380642,1.1739215,0.012783173500000002,-0.029827405,38.34,-20.22,6.6
1554117651651,-7.1167645,-7.208342599999999,-1.7866731,1.3518206,-0.010652645,-0.002130529,38.4,-19.92,6.66
1554117651671,-7.0952168,-7.2406645,-1.590947,1.5456988,-0.03195793,0.002130529,38.4,-19.62,6.66
1554117651691,-7.047333,-7.29214,-1.4311341,1.7140104999999999,-0.05752428,-0.0010652645,38.4,-19.32,6.72
1554117651711,-6.970119500000001,-7.2430587,-1.1569979,1.8482338,-0.084155895,0.008522116,38.4,-18.96,6.78
1554117651731,-7.0646906000000005,-7.2939353,-0.9475053,1.9750003,-0.111852765,0.0031957934000000003,38.34,-18.54,6.9
1554117651751,-7.0455369999999995,-7.443573,-0.7206547,2.0378509,-0.15339808,0.015978966,38.34,-18.0,7.02
1554117651770,-6.9958572,-7.405864200000001,-0.59017074,2.0208068,-0.16298546,0.06285059999999999,38.34,-17.46,7.2
1554117651791,-6.8719573,-7.4507556,-0.3716998,1.9760654999999998,-0.16085494,0.13209279,38.34,-16.86,7.44
1554117651810,-6.825869,-7.5285673,-0.25079262,1.9558256,-0.11611383,0.20879184,38.34,-16.2,7.74
1554117651830,-6.8516070000000004,-7.4345946,0.12090719,1.9718044999999997,-0.05965481,0.27803403,38.34,-15.54,7.92
1554117651851,-6.7743936,-7.249044400000001,0.40940848,2.0154803,-0.0010652645,0.38029942,38.4,-14.76,8.1
1554117651870,-6.588842999999999,-7.1592617,0.6099229,2.058091,0.05752428,0.48469532,38.4,-13.98,8.28
1554117651891,-6.5026517,-6.816890700000001,0.8511386999999999,2.0975057999999995,0.13315806,0.5518069999999999,38.4,-13.32,8.46
1554117651911,-6.6684504,-6.547543,1.0809821000000002,2.1560952999999996,0.19813919,0.5454154,38.46,-12.84,8.52
1554117651931,-6.822277499999999,-6.379350700000001,1.2623428,2.1923141,0.25353295,0.54648066,38.52,-12.42,8.58
1554117651951,-6.826467500000001,-6.0980315,1.5861586,2.2264028,0.31638354,0.5400891,38.52,-12.12,8.52
1554117651971,-6.9491705999999995,-5.8394580000000005,1.7016789,2.2455776000000003,0.36964676,0.49747851,38.58,-11.82,8.52
1554117651990,-7.1425023,-5.559935,1.7717092,2.2136195,0.40266997,0.45912898,38.64,-11.58,8.58
1554117652010,-7.250839699999999,-5.318719000000001,1.8243817,2.1486384999999997,0.41438788,0.43888897,38.64,-11.4,8.64
1554117652031,-7.252037,-5.0643353,1.8740613000000002,2.0804615,0.42717105,0.38562572,38.64,-11.22,8.76
1554117652051,-7.398083,-4.8518495999999995,2.0231004,1.9813918999999998,0.41864893,0.30466563,38.64,-11.04,8.94
1554117652071,-7.4489600000000005,-4.703409,2.1757307,1.8194717,0.38136467,0.25246766,38.52,-10.8,9.24
1554117652091,-7.5034279999999995,-4.601057,2.292448,1.6458336,0.3653857,0.2066613,38.4,-10.5,9.48
1554117652111,-7.5794440000000005,-4.4113164000000005,2.3349452,1.4689997,0.33662358,0.13635385,38.28,-10.2,9.78
1554117652130,-7.6045833,-4.173094,2.4887726000000003,1.3006879,0.30040458,0.068176925,38.16,-9.78,10.08
1554117652150,-7.5525093,-4.0037036,2.64679,1.1345067,0.25992453,0.008522116,37.98,-9.24,10.44
1554117652171,-7.592013400000001,-3.982156,2.7814639,0.95234644,0.23542345,-0.05965481,37.86,-8.64,10.74
1554117652191,-7.758410499999999,-4.0719385,2.77069,0.7574029999999999,0.22690132,-0.10546118,37.68,-8.1,10.98
1554117652211,-7.869741,-4.0336313,2.8514943,0.58909124,0.20026971,-0.1438107,37.56,-7.5,11.28
1554117652231,-7.8003089999999995,-4.0222587999999995,3.0125043,0.46019423,0.1587244,-0.16085494,37.44,-7.08,11.52
1554117652251,-7.739257,-4.1383777,3.2237926,0.386691,0.14594123,-0.15552860000000002,37.32,-6.6,11.7
1554117652271,-7.876325,-4.212598000000001,3.317765,0.3685815,0.15233281,-0.15765914,37.26,-6.18,11.94
1554117652290,-8.088212,-4.135384999999999,3.3973722,0.4101268,0.15339808,-0.13635385,37.14,-5.58,12.12
1554117652311,-8.069656,-4.0402154999999995,3.2728736,0.46125950000000004,0.15978967,-0.10013486,37.08,-5.22,12.18
1554117652331,-8.207922,-4.0204629999999995,3.232771,0.51665324,0.18002969,-0.06924219,36.96,-4.98,12.24
1554117652350,-8.428787,-4.013280399999999,3.1789012000000003,0.52624065,0.18748654,-0.060720075,36.84,-4.68,12.36
1554117652371,-8.496424000000001,-3.9366663,3.204639,0.49960902,0.19174760000000002,-0.037284255,36.66,-4.32,12.48
1554117652390,-8.341997000000001,-4.006098000000001,3.245939,0.46232477,0.18216023,0.01917476,36.54,-3.9,12.6
1554117652410,-8.234857,-4.090493700000001,3.3800142,0.41225734,0.17257284,0.05539375,36.36,-3.42,12.72
1554117652430,-8.241441,-4.059369,3.3788169999999997,0.39414784,0.16405073,0.06498113,36.24,-2.94,12.9
1554117652451,-8.285135,-4.0306387,3.3877954,0.39734364,0.15339808,0.096939065,36.06,-2.58,13.02
1554117652471,-8.197746,-3.9743748,3.4021605999999998,0.3898868,0.11717909,0.12676647,35.94,-2.34,13.14
1554117652491,-8.137293,-3.9270894999999997,3.4189199999999995,0.3653857,0.082025364,0.13954964,35.88,-2.1,13.26
1554117652511,-8.1079645,-3.8804023,3.4889504999999996,0.33555830000000003,0.05006743,0.13209279,35.82,-1.98,13.26
1554117652531,-8.213907,-3.8468835,3.4632127,0.3291667,0.035153727999999995,0.11717909,35.82,-1.92,13.26
1554117652551,-8.359954,-3.7074212999999996,3.481768,0.34194988,0.01917476,0.10226539,35.82,-1.86,13.26
1554117652571,-8.267178999999999,-3.5966894999999997,3.5559879999999997,0.36432046,-0.00958738,0.10546118,35.82,-1.92,13.26
1554117652591,-8.267777,-3.5829230000000005,3.6326025,0.39521313,-0.008522116,0.111852765,35.88,-2.04,13.26
1554117652611,-8.4647,-3.4715924,3.6936547999999996,0.4048005,-0.011717908999999999,0.101200126,35.94,-2.1,13.2
1554117652631,-8.608353,-3.2381577,3.5942953,0.350472,-0.027696876000000002,0.11504856,36.06,-2.16,13.2
1554117652650,-8.419210000000001,-3.193865,3.6164417,0.23435818,-0.06285059999999999,0.17576863,36.18,-2.22,13.14
1554117652671,-8.323442,-3.2609026,3.6505589999999994,0.17044231,-0.07989483,0.20879184,36.24,-2.28,13.08
1554117652690,-8.385692,-3.3147724000000003,3.7427358999999996,0.15339808,-0.09267801,0.21837921,36.3,-2.28,12.96
1554117652712,-8.327033,-3.2507273999999997,3.8121676,0.16724652,-0.1107875,0.22583607,36.36,-2.28,12.9
1554117652730,-8.162432,-3.2213984,3.738546,0.21624869,-0.112918034,0.24394555,36.36,-2.34,12.78
1554117652750,-8.100183,-3.1902738,3.7307648999999996,0.2790993,-0.10439592,0.22796659,36.3,-2.34,12.72
1554117652770,-8.053496,-3.1172507,3.7535098,0.30892670000000005,-0.08948222,0.18855181,36.18,-2.4,12.6
1554117652790,-7.9068513,-3.0107086,3.8295257000000005,0.32170987,-0.07776430000000001,0.14913702,36.0,-2.52,12.48
1554117652810,-7.7709804,-2.9604304,3.8397010000000003,0.30040458,-0.05006743,0.11611383,35.82,-2.58,12.48
1554117652830,-7.801506,-3.0107086,3.8007953000000003,0.28229508,-0.035153727999999995,0.08841695,35.76,-2.64,12.48
1554117652850,-8.1079645,-3.0370448,3.7433343,0.17470337,0.018109497,0.007456851,35.52,-2.94,12.42
1554117652871,-8.133701,-3.0735563999999997,3.891775,0.049002163,0.017044231,-0.007456851,35.4,-3.3,12.42
1554117652890,-8.054692999999999,-3.2968156000000004,3.8762126000000006,-0.008522116,0.010652645,-0.0031957934000000003,35.34,-3.66,12.42
1554117652910,-8.058285,-3.4201171,3.9689879999999995,0.0,0.018109497,-0.010652645,35.28,-4.08,12.42
1554117652930,-8.102577,-3.3512837999999996,4.1826706,0.084155895,0.012783173500000002,-0.043675844000000005,35.22,-4.5,12.36
1554117652951,-8.127118,-3.2728736,4.1341877,0.19920446,0.013848438000000001,-0.041545313,35.16,-4.92,12.3
1554117652970,-7.898471400000001,-3.1705215,4.3502645,0.34727620000000003,0.056459017,-0.060720075,35.16,-5.28,12.24
1554117652990,-8.133103,-3.1531637000000003,4.06715,0.49215218,0.09587380000000001,-0.11930962,34.98,-5.82,12.18
1554117653010,-8.371924,-3.0496144,3.9139209999999998,0.5070659000000001,0.098004326,-0.12144015,34.98,-5.94,12.18
1554117653030,-8.373122,-2.698864,3.5990837,0.48363006,0.083090626,-0.08628642,34.86,-5.94,12.18
1554117653050,-8.453327,-2.7042507999999996,3.6828809000000002,0.37284255,0.101200126,-0.06711166,34.86,-5.82,12.12
1554117653070,-8.297106,-2.309806,3.8552632000000004,0.28442562,0.07350325,-0.098004326,34.8,-5.7,12.12
1554117653090,-8.273164,-2.4839842,3.4757824,0.23755397,0.07030745599999999,-0.07669904,34.8,-5.46,12.12
1554117653110,-8.051102,-2.5252842999999996,3.6643257000000005,0.1470065,0.05539375,-0.08522116,34.8,-5.22,12.18
1554117653130,-8.112753,-2.6324248,3.651756,0.15978967,0.06391586,-0.14807177,34.8,-4.92,12.18
1554117653151,-8.012196000000001,-2.3606830000000003,3.791817,0.12463594,0.053263225,-0.18961707,34.86,-4.56,12.18
1554117653170,-8.152855,-2.4181437000000003,3.5859156000000003,0.13209279,0.033023197000000004,-0.2428803,34.92,-4.2,12.24
1554117653190,-8.351574000000001,-2.6102784,3.4500446000000005,0.06604639400000001,0.0010652645,-0.24501082,34.92,-3.96,12.36
1554117653211,-8.474277,-2.7665,3.4865562999999993,-0.03089267,-0.01917476,-0.22370553,34.92,-3.78,12.42
1554117653230,-8.557475,-2.7605145,3.5942953,-0.08628642,-0.008522116,-0.21837921,34.92,-3.54,12.48
1554117653250,-8.585608,-2.677316,3.743933,-0.09587380000000001,0.029827405,-0.21518342,34.92,-3.3,12.54
1554117653271,-8.520964,-2.6402058999999998,3.6721067,-0.08735169,0.04261058,-0.19387813,34.92,-3.0,12.66
1554117653290,-8.391677,-2.7563248,3.9079356,-0.07989483,0.06498113,-0.17363810000000002,34.92,-2.7,12.72
1554117653310,-8.029554,-2.3948002,4.27365,0.027696876000000002,0.128897,-0.25566345,34.86,-2.46,12.78
1554117653331,-8.109161,-2.2864625,3.7954082000000002,0.11824436,0.15020229,-0.33662358,34.86,-2.22,12.84
1554117653351,-8.377911,-2.31639,3.4434607,0.004261058,0.16724652,-0.3323625,34.8,-1.98,12.84
1554117653370,-8.429984,-2.5594015,3.3500867,-0.14913702,0.15233281,-0.31212249999999997,34.8,-1.68,12.84
1554117653390,-8.11395,-2.8263552000000005,3.4183214,-0.27803403,0.16937704,-0.28229508,34.8,-1.44,12.9
1554117653410,-8.006809,-2.8951882999999996,3.520075,-0.26631612,0.19174760000000002,-0.294013,34.8,-1.08,12.9
1554117653431,-8.129512,-2.9999347000000003,3.4165258,-0.23648871,0.20879184,-0.31105720000000003,34.8,-0.66,12.96
1554117653450,-8.144476,-3.127426,3.3596635000000004,-0.23222765,0.21518342,-0.30040458,34.8,-0.36,13.02
1554117653470,-8.076241,-3.311181,3.3758245000000002,-0.18322548,0.21518342,-0.30146983,34.74,-0.06,13.14
1554117653490,-7.9948380000000006,-3.2896330000000003,3.3273417999999997,-0.12463594,0.21518342,-0.3153183,34.68,0.3,13.26
1554117653511,-8.1797905,-3.3506854,3.1657330000000004,-0.08522116,0.21837921,-0.32810146,34.62,0.6,13.38
1554117653530,-8.417415,-3.3441012000000003,3.0496144,-0.06924219,0.23329292,-0.3323625,34.56,0.84,13.62
1554117653551,-8.460510000000001,-3.2213984,2.9017725,-0.06285059999999999,0.2428803,-0.30466563,34.5,1.08,13.86
1554117653570,-8.467094,-3.205836,2.7635074,-0.07776430000000001,0.257794,-0.26525086,34.38,1.26,14.1
1554117653591,-8.508394000000001,-3.2142158,2.9281087,-0.10972224,0.2609898,-0.25246766,34.32,1.32,14.34
1554117653610,-8.574235,-3.2070332,2.967613,-0.13741912,0.23968449999999997,-0.2428803,34.2,1.5,14.52
1554117653631,-8.579023,-3.2543187000000002,2.9508536,-0.15659387,0.22690132,-0.2130529,34.02,1.62,14.64
1554117653651,-8.440758,-3.3482912000000002,2.8981812000000002,-0.1587244,0.2066613,-0.2130529,33.9,1.8,14.82
1554117653671,-8.367735,-3.4356794,2.8802247000000003,-0.15659387,0.20772657,-0.2545982,33.78,1.98,15.06
1554117653691,-8.57184,-3.4428620000000003,2.823961,-0.17363810000000002,0.21411815,-0.31105720000000003,33.6,2.16,15.24
1554117653711,-8.631097,-3.4051532999999994,2.7425580000000003,-0.20559604,0.20985709,-0.33449304,33.42,2.28,15.48
1554117653731,-8.462905000000001,-3.4823663000000002,2.7042507999999996,-0.25566345,0.20985709,-0.31957933,33.3,2.4,15.78
1554117653750,-8.265982000000001,-3.6355953000000003,2.5929205,-0.31105720000000003,0.21518342,-0.3291667,33.18,2.52,16.02
1554117653770,-8.242638000000001,-3.7074212999999996,2.5354595,-0.36751625,0.22264028,-0.36218992,33.06,2.58,16.26
1554117653792,-8.337808,-3.7822402000000004,2.4277205000000004,-0.4133226,0.22903186,-0.38882150000000004,32.94,2.58,16.5
1554117653812,-8.107366,-3.8947675000000004,2.3708582000000002,-0.46019423,0.23435818,-0.41438788,32.76,2.64,16.62
1554117653831,-7.8853035,-3.9953241000000004,2.2319946,-0.48363006,0.23435818,-0.4708469,32.64,2.64,16.74
1554117653851,-7.861960000000001,-4.0360255,2.1990743,-0.5113269,0.22477080000000002,-0.5422196,32.46,2.64,16.8
1554117653871,-7.7757688,-4.1683053999999995,2.1589713,-0.55074173,0.1949434,-0.5965481,32.34,2.7,16.8
1554117653891,-7.597999000000001,-4.2012253,2.2732944,-0.5581986,0.17470337,-0.6498113,32.16,2.76,16.92
1554117653911,-7.485471700000001,-4.1922474,2.2272062000000004,-0.5187838,0.16724652,-0.72437984,31.92,2.82,17.16
1554117653931,-7.3825210000000006,-4.23654,2.134431,-0.45593318,0.1587244,-0.81918836,31.74,2.88,17.4
1554117653951,-7.4112515,-4.478953,1.7753005000000002,-0.42930159999999995,0.15659387,-0.9491506,31.5,3.0,17.88
1554117653970,-7.5770497,-4.7494974,1.5622166000000002,-0.43888897,0.15765914,-1.0056095999999999,31.44,3.06,18.06
1554117653991,-7.627927000000001,-4.938041,1.4155718000000002,-0.5091964,0.16085494,-1.1004181999999998,31.2,3.24,18.42
1554117654011,-7.430405,-5.0631379999999995,1.3742718,-0.5858955,0.16831179,-1.1579423999999998,24.9,6.0,23.7
1554117654031,-7.1209545,-5.4791307,1.2419921,-0.6380934,0.15978967,-1.2133361999999999,24.42,6.48,24.24
1554117654050,-6.9904703999999995,-5.6580973,1.1755531000000001,-0.6775081999999999,0.15552860000000002,-1.2463594999999998,24.3,6.66,24.36
1554117654070,-6.643311,-5.8161144,1.2689268999999999,-0.716923,0.14594123,-1.3283848,23.88,7.14,24.6
1554117654091,-6.407482,-5.9130797,1.1749545,-0.69987875,0.11930962,-1.3901701000000002,23.52,7.5,24.78
1554117654111,-6.1010246,-6.2871737,1.0271125,-0.67218184,0.09267801,-1.4413028,23.28,7.92,24.96
1554117654131,-5.855619,-6.5655,1.0827777,-0.6775081999999999,0.08948222,-1.5169365,22.92,8.34,25.14
1554117654152,-5.7395,-6.7516490000000005,1.1156979999999999,-0.6487460999999999,0.096939065,-1.6415724999999999,22.44,8.64,25.32
1554117654172,-5.49589,-7.2909426999999996,0.7978677,-0.6317018,0.10972224,-1.7022926,22.08,8.88,25.56
1554117654192,-5.160103299999999,-7.229292,1.0097545,-0.6114618,0.17576863,-1.7204021,21.66,9.12,25.8
1554117654212,-5.0254292000000005,-7.3831196,0.80205756,-0.51026165,0.1768339,-1.8109495999999998,21.24,9.48,26.04
1554117654231,-4.701015,-7.7153149999999995,0.53929394,-0.5390238,0.16937704,-1.8535602,20.76,10.02,26.28
1554117654251,-4.3933599999999995,-8.15525,0.42975920000000006,-0.5901565,0.15552860000000002,-1.881257,20.22,10.44,26.76
1554117654271,-3.9588125,-8.406641,0.36272156,-0.6412892,0.13635385,-1.9270633000000001,19.62,10.86,27.24
1554117654291,-3.74513,-8.96449,-0.19512744,-0.65513766,0.08628642,-1.9643476000000002,19.14,11.34,27.72
1554117654311,-3.4955344,-9.343372,-0.7637503000000001,-0.85753787,0.053263225,-1.9174759999999997,18.72,11.76,28.14
1554117654331,-3.221997,-9.998785,-0.96785605,-1.171791,0.029827405,-1.8109495999999998,18.3,12.24,28.56
1554117654351,-3.0974984,-10.71106,-0.7823054,-1.4210628,0.07350325,-1.7065537,17.88,12.6,28.92
1554117654371,-3.0831332000000002,-10.987589999999999,-0.8295909,-1.4402375,0.09054748,-1.6500946,17.28,12.96,29.34
1554117654391,-2.9287071,-11.511322,-1.0354922,-1.2484899999999999,0.14594123,-1.4892397,16.56,13.2,29.7
1554117654411,-2.730587,-11.686098,-1.0576386,-0.9917611999999999,0.19387813,-1.3518206,15.84,13.26,30.06
1554117654431,-2.6533740000000003,-11.420342,-0.8984242,-0.64341974,0.26312032,-1.2452941000000002,15.12,13.2,30.48
1554117654451,-2.7449522,-11.232397,-1.2455834,-0.35473305,0.29188246,-1.139833,14.4,12.9,30.84
1554117654470,-2.7431567,-10.986393,-1.4239515,-0.24501082,0.30253512,-1.0173275,13.68,12.6,31.2
1554117654490,-2.681506,-10.720636,-1.8980032999999998,-0.24501082,0.28975195,-0.7957525,13.02,12.24,31.56
1554117654511,-2.5917234000000002,-10.462063,-1.8644845,-0.34621096,0.2790993,-0.6242449999999999,12.36,11.88,31.92
1554117654530,-2.496554,-10.298060000000001,-1.8872293999999998,-0.41438788,0.2609898,-0.47404268,11.76,11.52,32.22
1554117654550,-2.3744495,-10.144831,-1.9410990000000001,-0.42184472,0.24394555,-0.34514567,11.28,11.16,32.46
1554117654570,-2.2774843999999996,-10.020332000000002,-1.9512744,-0.39095205,0.23435818,-0.23648871,10.86,10.86,32.64
1554117654590,-2.2583307999999995,-9.886856,-1.9740193,-0.34940675,0.22477080000000002,-0.13848437,10.56,10.62,32.76
1554117654610,-2.1972785,-9.818622,-2.0811598,-0.30040458,0.21092236,-0.047936900000000005,10.26,10.5,32.88
1554117654632,-2.1739352000000003,-9.731233,-2.2074540000000002,-0.24927188,0.19387813,0.034088463,10.02,10.32,33.0
1554117654652,-2.15957,-9.685144000000001,-2.2948422,-0.21944448,0.18002969,0.101200126,9.78,10.2,33.18
1554117654672,-2.1110873,-9.735422999999999,-2.3840263,-0.20453078,0.16405073,0.15765914,9.6,9.96,33.3
1554117654691,-2.03567,-9.751583,-2.3612813999999998,-0.20559604,0.15020229,0.19281286,9.48,9.72,33.42
1554117654710,-2.0027497,-9.772532,-2.3546975,-0.20133498,0.13315806,0.21518342,9.42,9.48,33.48
1554117654731,-1.9955671000000001,-9.734225,-2.3295584,-0.18642128,0.11504856,0.24820662,9.36,9.24,33.54
1554117654751,-1.9369092,-9.791088,-2.2900537999999995,-0.16192019,0.09587380000000001,0.2695119,9.24,8.94,33.6
1554117654771,-1.8974048,-9.742006,-2.1972785,-0.1438107,0.06498113,0.26631612,9.06,8.64,33.66
1554117654791,-1.8728642,-9.671975999999999,-2.1254525,-0.12676647,0.023435817999999997,0.24714136,8.94,8.28,33.72
1554117654811,-1.8543092,-9.671975999999999,-2.019509,-0.11611383,-0.012783173500000002,0.22690132,8.76,7.86,33.78
1554117654830,-1.8255788,-9.664794,-1.9027918999999998,-0.10333065,-0.06711166,0.19600865,8.64,7.5,33.9
1554117654850,-1.7776948000000001,-9.638457,-1.8531121,-0.07776430000000001,-0.12250541,0.16192019,8.52,7.14,34.02
1554117654870,-1.7016789,-9.673173,-1.7687165,-0.037284255,-0.17363810000000002,0.12357068,8.4,6.84,34.08
1554117654891,-1.6376339,-9.647436,-1.8405426,0.060720075,-0.21731395,0.07350325,8.28,6.42,34.14
1554117654911,-1.6346412000000001,-9.518747,-1.9470845,0.15020229,-0.23116238,0.036218993,8.28,6.18,34.2
1554117654931,-1.6747441000000003,-9.381081,-2.110489,0.2130529,-0.22903186,0.004261058,8.28,6.06,34.2
1554117654951,-1.6992846999999998,-9.248202000000001,-2.2134395000000002,0.22477080000000002,-0.20559604,-0.012783173500000002,8.4,6.06,34.2
1554117654971,-1.7322049,-9.057863000000001,-2.267309,0.20879184,-0.16724652,-0.022370555,8.58,6.06,34.14
1554117654991,-1.8130093,-8.962694,-2.3481132999999996,0.17257284,-0.12357068,-0.026631612000000002,8.76,6.12,34.08
1554117655010,-1.9009962,-8.865729,-2.4941597,0.07989483,-0.07563378,-0.008522116,8.94,6.18,34.02
1554117655030,-1.965041,-8.885481,-2.4941597,-0.040480047000000005,-0.02876214,0.015978966,9.12,6.24,33.96
1554117655050,-2.0679917000000003,-9.058461999999999,-2.4546554,-0.13848437,0.0063915867,0.020240024,9.3,6.36,33.96
1554117655070,-2.1254525,-9.309854,-2.3924060000000003,-0.20559604,0.027696876000000002,0.007456851,9.48,6.42,33.96
1554117655090,-2.0697872999999998,-9.585785000000001,-2.3678656000000005,-0.23435818,0.035153727999999995,-0.01917476,9.6,6.48,33.96
1554117655110,-1.9931729,-9.812635,-2.4534583,-0.23861924,0.039414786,-0.039414786,9.66,6.54,33.96
1554117655132,-1.9117701,-9.961675,-2.4863784,-0.21092236,0.033023197000000004,-0.034088463,9.72,6.54,34.02
1554117655151,-1.8555063000000003,-10.056845,-2.3798366,-0.14807177,0.025566347000000003,0.0010652645,9.72,6.54,34.08
1554117655171,-1.9135658,-9.952697,-2.2307975,-0.05539375,0.011717908999999999,0.04580637,9.72,6.54,34.14
1554117655191,-2.0350714,-9.725247,-2.1386206000000003,0.037284255,-0.0031957934000000003,0.08948222,9.78,6.48,34.2
1554117655211,-2.2062569,-9.408614,-2.0260932,0.094808534,-0.008522116,0.13102753,9.78,6.42,34.2
1554117655230,-2.31639,-9.138069,-2.0428526000000002,0.13848437,-0.0063915867,0.17576863,9.84,6.36,34.2
1554117655250,-2.3259668,-8.901043,-2.0392613,0.16192019,0.010652645,0.21092236,9.84,6.3,34.2
1554117655271,-2.4103625,-8.771158,-2.2301989,0.13741912,0.05219796,0.22583607,9.9,6.24,34.2
1554117655290,-2.4702177000000005,-8.727464,-2.321777,0.080960095,0.082025364,0.22370553,9.9,6.12,34.2
1554117655311,-2.497751,-8.847773,-2.4265234,0.014913702,0.11504856,0.21518342,9.9,6.06,34.2
1554117655331,-2.5157075,-8.981848,-2.44029,-0.06711166,0.14168017,0.2066613,9.96,5.94,34.26
1554117655351,-2.5629928,-9.147646,-2.4684220000000003,-0.14168017,0.15233281,0.18535602,9.96,5.88,34.26
1554117655371,-2.6186580000000004,-9.275136999999999,-2.505532,-0.20559604,0.13954964,0.14487597,9.96,5.76,34.32
1554117655391,-2.5576060000000003,-9.47206,-2.5384523999999997,-0.27483824,0.11611383,0.10652645,9.96,5.7,34.32
1554117655411,-2.5169046,-9.825205,-2.4612392999999995,-0.31957933,0.09054748,0.07350325,9.96,5.52,34.38
1554117655431,-2.5438392000000003,-9.951499,-2.3002293,-0.25353295,0.054328485999999995,0.02876214,9.96,5.4,34.38
1554117655451,-2.6084828,-9.985018,-2.1877017000000003,-0.112918034,0.0053263223,-0.010652645,9.9,5.28,34.38
1554117655470,-2.5450362999999996,-9.8042555,-2.1775265,0.060720075,-0.05006743,-0.022370555,9.9,5.16,34.38
1554117655490,-2.6168625,-9.605537,-2.2942438,0.20026971,-0.07882957,-0.03195793,9.9,5.04,34.38
1554117655511,-2.6659436000000003,-9.351153,-2.3229742,0.26738137,-0.10333065,-0.04261058,9.84,4.92,34.44
1554117655530,-2.6551697,-8.97287,-2.2541409,0.34301516,-0.11611383,-0.03195793,9.9,4.86,34.44
1554117655550,-2.6479871,-8.777742,-2.475006,0.3153183,-0.11717909,0.002130529,9.9,4.8,34.44
1554117655570,-2.6689363,-8.623915,-2.44448,0.20559604,-0.08735169,0.047936900000000005,9.84,4.74,34.44
1554117655590,-2.7389667,-8.561666,-2.3774424,0.094808534,-0.060720075,0.06178534,9.9,4.8,34.44
1554117655610,-2.7736826,-8.590994,-2.3026235,-0.00958738,-0.037284255,0.06711166,9.9,4.86,34.44
1554117655631,-2.665345,-8.693346,-2.2224178,-0.05965481,-0.014913702,0.06498113,9.9,4.92,34.38
1554117655651,-2.606687,-8.749011999999999,-2.2990322,-0.06391586,-0.0063915867,0.04474111,9.84,4.98,34.38
1554117655670,-2.6868927000000005,-8.840589999999999,-2.7120319999999998,-0.06498113,0.00958738,0.025566347000000003,9.84,5.04,34.38
1554117655690,-2.6797101000000003,-8.987833,-2.6132712000000002,-0.12357068,0.036218993,0.014913702,9.84,5.1,34.38
1554117655711,-2.586935,-9.202114,-2.7216089,-0.18855181,0.017044231,-0.049002163,9.84,5.16,34.32
1554117655731,-2.4660277,-9.460688000000001,-2.6898855999999998,-0.24820662,0.0053263223,-0.08841695,9.84,5.16,34.32
1554117655753,-2.367267,-9.78989,-2.5288756,-0.25566345,-0.02130529,-0.13848437,9.84,5.1,34.38
1554117655772,-2.3062148,-9.91439,-2.5133132999999996,-0.20026971,-0.049002163,-0.18642128,9.84,4.98,34.38
1554117655790,-2.31639,-10.058639999999999,-2.4516625,-0.14168017,-0.046871635999999994,-0.17789917,9.84,4.86,34.38
1554117655810,-2.4408886,-10.13286,-2.3517046,-0.07350325,-0.037284255,-0.165116,9.84,4.74,34.38
1554117655831,-2.5372553,-10.044274,-2.2744915,0.014913702,-0.029827405,-0.13635385,9.84,4.62,34.44
1554117655851,-2.5210943,-9.814430999999999,-2.1134815,0.14061491,-0.015978966,-0.060720075,9.78,4.5,34.44
1554117655870,-2.461838,-9.575610000000001,-2.0500352,0.24501082,0.013848438000000001,0.0053263223,9.78,4.38,34.44
1554117655890,-2.4875755,-9.298480999999999,-2.0296845,0.33449304,0.068176925,0.04580637,9.78,4.38,34.44
1554117655912,-2.4995465,-9.09258,-2.0901381999999997,0.38136467,0.10333065,0.07137272,9.84,4.38,34.44
1554117655931,-2.594716,-9.017161999999999,-2.456451,0.44528055,0.128897,0.08735169,9.84,4.38,34.44
1554117655951,-2.5983074,-8.781333,-2.6443958,0.3536678,0.16724652,0.11824436,9.84,4.5,34.38
1554117655971,-2.5570072999999995,-8.784326,-2.5252842999999996,0.17363810000000002,0.20985709,0.15020229,9.84,4.68,34.38
1554117655990,-2.5312697999999996,-8.798691,-2.3942018,0.07776430000000001,0.23755397,0.14487597,9.84,5.04,34.38
1554117656011,-2.6048915,-8.854955,-2.445677,0.06498113,0.25672874,0.12570119999999999,9.72,5.28,34.38
1554117656030,-2.735974,-8.937555,-2.5438392000000003,0.06391586,0.26631612,0.09054748,9.6,5.58,34.38
1554117656050,-2.7910407000000004,-8.896853,-2.5139117000000004,0.06498113,0.26525086,0.058589544,9.48,5.88,34.32
1554117656071,-2.7724855,-9.027936,-2.5127146000000002,0.037284255,0.24714136,0.04474111,9.3,6.18,34.26
1554117656091,-2.7497406000000004,-8.995614,-2.384625,-0.035153727999999995,0.25140239999999997,0.026631612000000002,9.12,6.42,34.2
1554117656111,-2.7754784,-9.086594,-2.1458032000000005,-0.080960095,0.27164245,0.017044231,8.88,6.54,34.14
1554117656130,-2.7904419999999996,-9.19134,-2.083554,-0.07350325,0.27377295,-0.0063915867,8.7,6.54,34.14
1554117656150,-2.779668,-9.164406,-2.131438,-0.05965481,0.26418558,-0.012783173500000002,8.52,6.42,34.08
1554117656171,-2.7940332999999997,-9.327211,-2.4253263,-0.07882957,0.23542345,0.002130529,8.4,6.36,34.08
1554117656191,-2.8760347,-9.363124000000001,-2.5264813999999998,-0.12144015,0.2130529,0.02130529,8.28,6.24,34.02
1554117656211,-2.867655,-9.351752000000001,-2.3630772,-0.08841695,0.18109496,0.035153727999999995,8.22,6.12,34.02
1554117656230,-2.7635074,-9.323022,-2.2134395000000002,-0.0010652645,0.165116,0.036218993,8.1,6.0,34.08
1554117656250,-2.7581203,-9.224260000000001,-2.1859062000000002,0.13209279,0.16298546,0.010652645,8.04,5.88,34.14
1554117656270,-2.7682957999999998,-9.0716305,-2.3864205000000003,0.1949434,0.1587244,-0.010652645,7.92,5.82,34.2
1554117656290,-2.6964695,-8.982447,-2.3906104999999997,0.16298546,0.17257284,-0.007456851,7.8,5.76,34.32
1554117656310,-2.6623523,-9.074024,-2.417545,0.098004326,0.19281286,0.0031957934000000003,7.56,5.7,34.44
1554117656331,-2.6701334,-9.200917,-2.28347,0.06498113,0.2130529,0.020240024,7.38,5.76,34.5
1554117656350,-2.6593595000000003,-9.298480999999999,-2.3104044999999998,0.111852765,0.23648871,0.022370555,7.2,5.82,34.62
1554117656371,-2.5743654,-9.3421755,-2.2744915,0.15552860000000002,0.26844665,0.023435817999999997,6.96,5.94,34.74
1554117656391,-2.5911248,-9.411607,-2.3409307,0.20559604,0.31212249999999997,0.0063915867,6.78,6.18,34.8
1554117656412,-2.6372132,-9.388264,-2.3050177000000005,0.23755397,0.3568636,-0.034088463,6.6,6.36,34.8
1554117656430,-2.6431987,-9.238626,-2.4486697,0.22903186,0.3685815,-0.05006743,6.42,6.6,34.86
1554117656451,-2.6312277,-9.356541,-2.5366566,0.16192019,0.37390783,-0.03195793,6.3,6.84,34.86
1554117656471,-2.6078842,-9.354146,-2.2948422,0.10546118,0.37071204,-0.014913702,6.18,7.02,34.86
1554117656491,-2.6234465,-9.293693,-2.0949266,0.07989483,0.3685815,-0.0010652645,6.0,7.2,34.86
1554117656511,-2.7024553,-9.287707000000001,-2.0506337,0.111852765,0.38242993,-0.0010652645,5.82,7.26,34.8
1554117656531,-2.8107927000000004,-9.39365,-2.3295584,0.13848437,0.39414784,-0.025566347000000003,5.64,7.38,34.74
1554117656550,-2.9113493,-9.540894,-2.4355016,0.11717909,0.39627838,-0.047936900000000005,5.4,7.44,34.68
1554117656570,-2.9861681,-9.649231,-2.5582043999999997,0.07776430000000001,0.37390783,-0.054328485999999995,5.04,7.5,34.62
1554117656591,-2.8802247000000003,-9.599552000000001,-2.4851813,0.06285059999999999,0.31957933,-0.027696876000000002,4.5,7.68,34.56
1554117656610,-2.837129,-9.518747,-2.4504653999999997,0.083090626,0.28016454,-0.002130529,4.32,7.68,34.56
1554117656631,-2.634819,-9.139864999999999,-2.1410147999999998,0.18535602,0.19707392,0.0053263223,3.84,7.86,34.56
1554117656651,-2.7000610000000003,-9.078813,-2.111686,0.25992453,0.12037488,-0.004261058,3.54,7.98,34.56
1554117656671,-2.730587,-9.048885,-2.1242554,0.32170987,0.046871635999999994,0.002130529,3.3,8.1,34.62
1554117656690,-2.5881321,-8.887876,-2.2092497000000004,0.33875409999999995,0.012783173500000002,0.03834952,3.06,8.28,34.68
1554117656710,-2.4893713,-8.920197,-2.0721814999999997,0.30040458,0.004261058,0.06924219,2.94,8.52,34.74
1554117656731,-2.48159,-8.9124155,-2.0009542000000002,0.26418558,0.026631612000000002,0.10333065,2.82,8.82,34.74
1554117656751,-2.4265234,-8.980052,-1.8357542000000002,0.26844665,0.07456851,0.12783173,2.76,9.12,34.8
1554117656771,-2.6144682999999995,-9.069236,-1.8369513,0.30999196,0.10865697,0.10972224,2.7,9.36,34.86
1554117656791,-2.7838580000000004,-9.014768,-2.019509,0.28336033,0.13635385,0.12676647,2.64,9.66,34.92
1554117656812,-2.706645,-9.1350765,-2.15538,0.19600865,0.14807177,0.2034655,2.64,9.96,34.92
1554117656831,-2.6839,-9.333197,-1.9135658,0.10759171,0.15978967,0.25566345,2.64,10.26,34.92
1554117656851,-2.7485435000000003,-9.555858,-1.7675193999999999,0.10759171,0.15233281,0.2876214,2.58,10.5,34.92
1554117656872,-2.9209259999999997,-9.667786999999999,-1.8962077000000002,0.15978967,0.14274544,0.3206446,2.58,10.68,34.92
1554117656891,-2.9107506,-9.680955,-1.8501193999999999,0.21944448,0.11504856,0.35473305,2.58,10.92,34.86
1554117656910,-2.8748376,-9.609129,-1.8411411,0.2695119,0.096939065,0.38136467,2.52,11.16,34.74
1554117656930,-2.9777883999999997,-9.494805,-1.7244238,0.3174488,0.084155895,0.38882150000000004,2.52,11.4,34.62
1554117656951,-3.095703,-9.337985,-1.5777789,0.35153726,0.049002163,0.4016047,2.58,11.7,34.5
1554117656970,-3.080739,-9.290101,-1.447295,0.350472,0.047936900000000005,0.41225734,2.58,12.0,34.38
1554117656990,-3.0699651,-9.298480999999999,-1.2755108999999998,0.34408042,0.068176925,0.40906155,2.52,12.36,34.26
1554117657011,-3.1010897,-9.306861,-1.1767502,0.37710363,0.07243799,0.40373522,2.52,12.9,34.14
1554117657030,-3.1435869,-9.3026705,-1.067814,0.43249738,0.07669904,0.40266997,2.52,13.38,34.02
1554117657050,-3.3028011,-9.242217,-1.5328877,0.42397526,0.06178534,0.41545314,2.52,13.8,33.96
1554117657070,-3.2375592999999996,-9.205107,-1.2707225,0.39308259999999995,0.09374327,0.41971418,2.52,14.22,33.9
1554117657090,-3.2836475,-9.224260000000001,-0.99538934,0.41545314,0.12570119999999999,0.38029942,2.58,14.64,33.84
1554117657111,-3.3470940000000002,-9.244013,-0.9864110999999999,0.46871635,0.1470065,0.35260254,2.58,15.06,33.78
1554117657131,-3.3237504999999996,-9.240421000000001,-0.95827925,0.51026165,0.17150758,0.36112466,2.7,15.54,33.66
1554117657152,-3.3608606,-9.316438,-0.90620536,0.55287224,0.20879184,0.34940675,2.76,15.9,33.48
1554117657171,-3.5212722000000003,-9.21229,-1.0426749,0.60507023,0.29827404,0.34301516,2.88,16.14,33.3
1554117657190,-3.594894,-8.998607000000002,-1.0911574,0.5901565,0.40906155,0.38882150000000004,3.06,16.5,33.06
1554117657210,-3.5266589999999995,-8.832211000000001,-0.97384155,0.5400891,0.47830373,0.4261058,3.18,16.86,32.82
1554117657230,-3.5529952000000007,-8.6712,-0.97384155,0.51026165,0.49428272,0.41545314,3.3,17.34,32.64
1554117657250,-3.6954502999999996,-8.465299,-1.0606314,0.41119209999999995,0.47723848,0.40053943,3.42,17.76,32.4
1554117657270,-3.6535518,-8.458714500000001,-0.7260416999999999,0.28442562,0.47404268,0.38136467,3.54,18.18,32.22
1554117657290,-3.643975,-8.501211999999999,-0.57400984,0.25140239999999997,0.47723848,0.32384038,3.66,18.54,32.04
1554117657310,-3.6499605,-8.620922,-0.62129533,0.24394555,0.47191215,0.27057716,3.72,18.84,31.98
1554117657332,-3.6481647000000006,-8.730456,-0.6344634,0.25885928,0.47723848,0.24181503,3.78,19.14,31.92
1554117657351,-3.7068229,-8.827422,-0.6171055000000001,0.32490566,0.49960902,0.19281286,3.84,19.5,31.86
1554117657371,-3.738546,-8.754997,-0.45070848,0.42077947,0.5305017,0.128897,3.84,19.74,31.86
1554117657391,-3.7588966,-8.731653,-0.57281274,0.54435015,0.5475459,0.06711166,3.84,19.98,31.86
1554117657411,-3.752911,-8.585009,-0.51475334,0.6221144000000001,0.588026,0.012783173500000002,3.78,20.22,31.86
1554117657430,-3.8229415,-8.570642999999999,-0.3716998,0.5837649,0.6178534000000001,-0.026631612000000002,3.72,20.4,31.86
1554117657451,-4.1359835,-8.598775999999999,-0.5398925,0.46125950000000004,0.6466155,-0.058589544,3.48,20.82,31.74
1554117657470,-4.35625,-8.664616,-0.57879823,0.37603834,0.6583334,-0.06924219,3.24,21.18,31.62
1554117657490,-4.474762999999999,-8.779537,-0.24959552,0.32170987,0.68176925,-0.094808534,2.94,21.54,31.44
1554117657511,-4.532822,-8.652645,-0.034117375,0.35260254,0.69135666,-0.12250541,2.64,21.84,31.26
1554117657531,-4.634576,-8.499416,-0.22086509999999998,0.34088463,0.67324716,-0.12996227,2.4,22.08,31.02
1554117657551,-4.868608999999999,-8.46889,-0.3298013,0.23222765,0.63915867,-0.09587380000000001,2.04,22.38,30.84
1554117657570,-4.938041,-8.667010000000001,-0.28191724,0.12357068,0.59867865,-0.03834952,1.74,22.68,30.6
1554117657590,-4.8733974,-8.751406,-0.37948096,0.083090626,0.54648066,-0.022370555,1.38,22.92,30.42
1554117657610,-4.8147397000000005,-8.871116,-0.40282443,0.08522116,0.49534798,-0.008522116,1.14,23.16,30.3
1554117657630,-4.71119,-8.934562,-0.36152446,0.07563378,0.45273739999999996,0.036218993,0.78,23.28,30.18
1554117657650,-4.557363,-9.048885,-0.48602295,0.034088463,0.41545314,0.083090626,0.48,23.4,30.18
1554117657672,-4.4999022,-9.091981,-0.48841715,0.004261058,0.38242993,0.11824436,0.12,23.52,30.12
1554117657691,-4.5148660000000005,-9.064447,-0.48243165,0.07989483,0.34621096,0.13315806,-0.24,23.64,30.12
1554117657711,-4.429871599999999,-8.883087,-0.42556936,0.20559604,0.30679616,0.13102753,-0.54,23.76,30.06
1554117657731,-4.4783545,-8.743025999999999,-0.6356605,0.26312032,0.26738137,0.12570119999999999,-0.84,23.82,30.06
1554117657751,-4.546589,-8.560468,-0.65301853,0.23009712,0.23968449999999997,0.11930962,-1.08,23.94,30.06
1554117657771,-4.6022544000000005,-8.464102,-0.6440403,0.17150758,0.20559604,0.10333065,-1.26,24.06,30.06
1554117657790,-4.6932339999999995,-8.5886,-0.5081693,0.09161274,0.18642128,0.113983296,-1.38,24.12,30.06
1554117657810,-4.6830587,-8.603564,-0.21607670000000004,0.060720075,0.17257284,0.10652645,-1.44,24.12,30.06
1554117657831,-4.667496,-8.48984,-0.22026655,0.06498113,0.12676647,0.11717909,-1.5,24.24,30.06
1554117657851,-4.7159786,-8.504802999999999,-0.27952304,0.07030745599999999,0.10333065,0.112918034,-1.5,24.3,30.0
1554117657870,-4.7536874000000005,-8.495825,-0.34715924,0.07563378,0.08735169,0.10972224,-1.56,24.3,29.88
1554117657891,-4.7219644,-8.526949,-0.34835634,0.083090626,0.08628642,0.10013486,-1.62,24.36,29.76
1554117657910,-4.819528,-8.37013,-0.35075054,0.10652645,0.08841695,0.06391586,-1.68,24.42,29.64
1554117657930,-4.9895163,-8.342596,-0.50397944,0.10652645,0.08522116,0.04474111,-1.74,24.42,29.58
1554117657951,-4.9757495,-8.426991000000001,-0.6183026,0.033023197000000004,0.09374327,0.05539375,-1.8,24.42,29.46
1554117657970,-4.912902,-8.560468,-0.62728083,-0.10226539,0.096939065,0.07350325,-1.86,24.42,29.34
1554117657991,-4.957195,-8.532935,-0.57520694,-0.2066613,0.07137272,0.07456851,-1.86,24.36,29.28
1554117658012,-5.0577510000000006,-8.459313,-0.54168814,-0.20772657,0.034088463,0.082025364,-1.92,24.3,29.16
1554117658031,-5.0637364,-8.37013,-0.5351041,-0.12463594,-0.008522116,0.10226539,-1.92,24.24,29.16
1554117658051,-5.053561,-8.458714500000001,-0.51595044,-0.040480047000000005,-0.051132694000000006,0.11611383,-1.92,24.24,29.16
1554117658071,-5.0966569999999995,-8.453926,-0.56443304,0.034088463,-0.083090626,0.11504856,-1.98,24.18,29.1
1554117658091,-5.205593,-8.354567,-0.8331822,0.082025364,-0.10652645,0.13102753,-1.98,24.18,29.04
1554117658111,-5.269638,-8.311471000000001,-0.94451255,0.068176925,-0.12357068,0.15339808,-1.92,24.12,29.04
1554117658131,-5.282806,-8.377911,-0.96905315,0.03089267,-0.15126756,0.16298546,-1.86,24.12,28.98
1554117658151,-5.2474914,-8.4647,-1.043872,-0.017044231,-0.1768339,0.17257284,-1.8,24.18,28.98
1554117658171,-5.1882353,-8.432379,-0.84096336,-0.08948222,-0.19387813,0.19068234,-1.68,24.24,29.04
1554117658190,-5.2504845,-8.492233,-0.6703765,-0.14487597,-0.22264028,0.1949434,-1.56,24.24,29.04
1554117658210,-5.315128,-8.533533,-0.48482585,-0.21092236,-0.23222765,0.22583607,-1.38,24.24,29.16
1554117658230,-5.4360349999999995,-8.532935,-0.28072014,-0.21092236,-0.23755397,0.257794,-1.2,24.24,29.28
1554117658251,-5.6179943,-8.589797,-0.08798691,-0.17044231,-0.25885928,0.28655612,-0.96,24.18,29.34
1554117658271,-5.8328739999999994,-8.731055,-0.16280572,-0.10226539,-0.28549087,0.32597092,-0.66,24.06,29.46
1554117658291,-6.211755999999999,-8.820838,-0.31543607,-0.0063915867,-0.32490566,0.3653857,-0.18,23.88,29.64
1554117658310,-6.3272767,-8.8777,-0.28670564,0.04474111,-0.36218992,0.39414784,-0.06,23.76,29.64
1554117658331,-6.6600703999999995,-8.862736,-0.21547815,0.10759171,-0.43249738,0.4878911,0.36,23.52,29.76
1554117658351,-6.859388,-8.7951,-0.2124854,0.16192019,-0.5028047999999999,0.572047,0.66,23.4,29.82
1554117658371,-7.060500599999999,-8.680178999999999,-0.28491,0.19813919,-0.59228706,0.67537767,1.14,23.28,29.76
1554117658390,-7.2640080000000005,-8.593987,-0.18136078,0.25140239999999997,-0.6828345,0.78083885,1.62,23.28,29.7
1554117658410,-7.357382,-8.423999,-0.23403321,0.33768883,-0.78936094,0.87564737,2.16,23.34,29.64
1554117658432,-7.302314999999999,-8.222886,-0.12928689,0.39947417,-0.8692558000000001,1.0034790999999998,2.64,23.4,29.58
1554117658451,-7.276577499999999,-8.061875,-0.10594343,0.43995422,-0.9416938,1.1334413,3.18,23.52,29.52
1554117658471,-7.119757000000001,-7.793725,0.01316811,0.50387007,-0.9938916999999999,1.2389026,3.9,23.64,29.28
1554117658491,-7.023391,-7.425018,0.31064767,0.6583334,-1.0120013,1.3049488999999999,4.74,23.76,28.98
1554117658511,-6.792948700000001,-6.9437833,0.50278234,0.80533993,-1.0088054,1.3507552999999999,5.88,23.88,28.62
1554117658531,-6.7151369999999995,-6.4823010000000005,0.66858083,0.90654004,-0.9715212,1.3795174,6.84,24.0,28.38
1554117658550,-6.673238799999999,-6.2153480000000005,0.7493850999999999,0.9555421999999999,-0.9225190000000001,1.3954965,7.98,24.12,28.14
1554117658570,-6.4781113,-5.8466406,0.8714894,0.94488955,-0.8692558000000001,1.3891048000000001,9.12,24.18,27.84
1554117658590,-6.344036,-5.434838,1.2479776000000002,0.8873653,-0.8021441,1.3411678999999999,10.44,24.24,27.54
1554117658611,-6.281187999999999,-5.131373,1.6609775000000002,0.8181231,-0.72011876,1.2442288000000001,11.82,24.3,27.06
1554117658630,-6.2213330000000004,-5.0134583,1.8309658,0.7914915,-0.64555025,1.1920309,13.02,24.3,26.58
1554117658650,-6.267421700000001,-4.7141833,2.1098902,0.7286409,-0.5496765,1.0908308,14.16,24.3,25.92
1554117658671,-6.3607955,-4.510676,2.2762873,0.608266,-0.46019423,0.94275904,15.0,24.24,25.26
1554117658691,-6.4960675000000005,-4.3903675,2.3187842,0.50600064,-0.39095205,0.84155893,15.84,24.18,24.54
1554117658711,-6.8121023,-4.289212,2.379238,0.40266997,-0.35260254,0.721184,16.68,24.12,23.82
1554117658730,-7.059902,-4.1581297,2.510919,0.314253,-0.32277513,0.62317973,17.52,24.06,23.16
1554117658750,-7.208941499999999,-4.188656,2.698864,0.27590349999999997,-0.30253512,0.55287224,18.18,24.54,21.48
1554117658770,-7.3507977,-4.0533834,2.8622682,0.23435818,-0.28442562,0.47936899999999993,18.72,24.48,20.94
1554117658790,-7.645883,-3.9240966,3.020884,0.19387813,-0.2790993,0.40266997,19.32,24.48,20.46
1554117658811,-7.941567,-3.9294837,3.1334114,0.12357068,-0.2695119,0.37071204,19.86,24.42,20.16
1554117658831,-8.055291,-3.894169,3.3225534,0.07243799,-0.2695119,0.35899413,20.46,24.3,19.92
1554117658851,-7.989451,-3.8450879999999996,3.5098996,0.07669904,-0.26631612,0.34940675,20.94,24.18,19.62
1554117658871,-8.067862,-3.840898,3.5739446000000004,0.13528858,-0.25566345,0.32384038,21.36,24.0,19.38
1554117658892,-8.148066499999999,-3.7475242999999994,3.6194344,0.20240025,-0.23329292,0.294013,21.6,23.76,19.08
1554117658912,-8.186374,-3.7122097000000003,3.5942953,0.25672874,-0.21518342,0.29507825,21.78,23.58,18.78
1554117658932,-8.174403,-3.6373908999999998,3.5482068,0.2972088,-0.20026971,0.29933932,21.96,23.34,18.48
1554117658952,-8.271967,-3.5290532,3.4620156000000004,0.294013,-0.18535602,0.28868666,22.2,23.04,18.24
1554117658971,-8.262989,-3.4739866000000004,3.4404678,0.23329292,-0.18322548,0.29614353,22.44,22.8,18.06
1554117658991,-8.160038,-3.4530375,3.4201171,0.16937704,-0.18322548,0.30892670000000005,22.68,22.56,17.94
1554117659011,-8.074444999999999,-3.2615013,3.527856,0.040480047000000005,-0.17150758,0.31638354,22.86,22.38,17.82
1554117659031,-8.020576,-3.1705215,3.5847184999999997,-0.1107875,-0.16618125,0.29933932,23.1,22.26,17.64
1554117659051,-7.9954367,-3.2435447999999996,3.726575,-0.20772657,-0.15978967,0.27377295,23.4,22.14,17.52
1554117659071,-7.9876556,-3.268684,3.8181531000000004,-0.23116238,-0.15339808,0.24607609,23.7,21.96,17.4
1554117659091,-8.122928,-3.3105824,3.8594532,-0.20453078,-0.14807177,0.21837921,23.94,21.78,17.28
1554117659111,-8.276156,-3.256713,3.791817,-0.14487597,-0.1438107,0.18535602,24.24,21.42,17.16
1554117659131,-8.237250999999999,-3.2423477000000003,3.8983587999999996,-0.11930962,-0.13315806,0.19281286,24.42,21.18,17.04
1554117659150,-8.193557,-3.2004492,3.9390604,-0.06924219,-0.13528858,0.18855181,24.48,21.06,16.98
1554117659171,-8.19236,-3.103484,3.9486372000000003,-0.01917476,-0.12250541,0.17789917,24.84,20.64,16.74
1554117659191,-8.194156,-3.0454244999999998,3.9264907999999994,-0.029827405,-0.113983296,0.17470337,25.08,20.34,16.62
1554117659211,-8.211513499999999,-2.9975405,3.9031472000000003,-0.05539375,-0.1107875,0.17257284,25.26,20.04,16.56
1554117659231,-8.192958,-3.0280666000000003,3.9480386,-0.06711166,-0.10439592,0.17257284,25.5,19.86,16.5
1554117659250,-8.05589,-3.0442273999999996,4.004901,-0.01917476,-0.09267801,0.165116,25.68,19.68,16.44
1554117659270,-7.796717599999999,-2.9963433999999998,4.162918,0.09161274,-0.040480047000000005,0.12676647,25.86,19.5,16.38
1554117659292,-7.77517,-2.6144682999999995,4.392163,0.26312032,0.012783173500000002,0.022370555,25.98,19.38,16.38
1554117659312,-8.04392,-2.5432408,3.7995980000000005,0.29294774,-0.01917476,-0.0063915867,26.04,19.26,16.32
1554117659332,-7.9343843,-2.9622262000000004,3.4584242999999995,0.16937704,-0.007456851,0.033023197000000004,25.98,19.2,16.32
1554117659351,-8.031948,-2.9101522,3.5440169999999998,0.03834952,-0.0031957934000000003,-0.035153727999999995,25.98,19.14,16.32
1554117659371,-8.373122,-2.7096379,3.6373908999999998,-0.049002163,-0.017044231,-0.096939065,25.92,19.08,16.32
1554117659391,-8.439561,-2.6264392999999995,3.7295678,-0.10226539,-0.039414786,-0.08948222,25.86,19.08,16.32
1554117659411,-8.292916,-2.6491842,3.762488,-0.13741912,-0.04580637,-0.06285059999999999,25.86,19.08,16.26
1554117659431,-8.281544,-2.7431567,3.803788,-0.18961707,-0.04580637,-0.07137272,25.8,19.08,16.26
1554117659451,-8.259995,-2.7730842,3.8588544999999996,-0.22690132,-0.041545313,-0.07350325,25.86,19.02,16.2
1554117659471,-8.238448,-2.8395232999999998,3.9306807999999998,-0.24820662,-0.037284255,-0.054328485999999995,25.92,19.02,16.2
1554117659490,-8.310274,-2.8892027999999996,3.9001546,-0.27057716,-0.035153727999999995,-0.051132694000000006,25.92,19.02,16.14
1554117659510,-8.429385,-2.8844144,3.9199066,-0.30040458,-0.04580637,-0.05539375,25.98,19.02,16.08
1554117659530,-8.462306,-2.9352913,3.9534256,-0.31212249999999997,-0.056459017,-0.02876214,26.04,18.96,16.08
1554117659550,-8.383297,-3.0609868,3.9522285000000004,-0.29294774,-0.06178534,0.0,26.04,18.96,16.02
1554117659570,-8.460510000000001,-3.063381,3.9067385000000003,-0.26312032,-0.07669904,0.007456851,26.04,18.9,16.08
1554117659591,-8.622119,-2.9933507,3.8624457999999997,-0.25140239999999997,-0.10759171,0.013848438000000001,26.1,18.84,16.08
1554117659611,-8.434772500000001,-2.9197290000000002,3.9354692000000004,-0.24820662,-0.1438107,0.056459017,26.1,18.78,16.2
1554117659631,-8.169016000000001,-2.9394810000000002,4.0204629999999995,-0.20026971,-0.14487597,0.09267801,26.1,18.78,16.26
1554117659651,-8.129512,-2.9197290000000002,3.9240966,-0.15020229,-0.13954964,0.07776430000000001,26.1,18.72,16.32
1554117659670,-8.251616499999999,-2.8329391,3.7576995,-0.14594123,-0.13741912,0.06604639400000001,26.16,18.72,16.38
1554117659690,-8.2276745,-2.8832173,3.6607344,-0.23116238,-0.13741912,0.10439592,26.22,18.66,16.44
1554117659710,-8.160637,-3.067571,3.6924577000000003,-0.34940675,-0.13102753,0.13635385,26.22,18.54,16.5
1554117659731,-8.081628,-3.1076740000000003,3.8043866000000004,-0.4079963,-0.10865697,0.13954964,26.28,18.36,16.56
1554117659751,-8.139089,-3.020884,3.8420951,-0.40053943,-0.09267801,0.13209279,26.34,18.18,16.56
1554117659771,-8.174403,-2.9436709999999997,3.8247373,-0.38775626,-0.09587380000000001,0.12783173,26.4,17.94,16.56
1554117659791,-8.168417999999999,-3.0142999,3.8259343999999995,-0.39521313,-0.10439592,0.12570119999999999,26.46,17.7,16.62
1554117659811,-8.198345,-3.1771057000000003,3.7199910000000003,-0.42930159999999995,-0.10759171,0.12250541,26.52,17.4,16.68
1554117659831,-8.297106,-3.2399535,3.7373488,-0.47510794,-0.11930962,0.1107875,26.58,17.16,16.74
1554117659851,-8.395268,-3.2830489999999997,3.8534677000000004,-0.49428272,-0.12250541,0.10652645,26.64,16.68,16.8
1554117659871,-8.347384,-3.268684,4.051588,-0.47404268,-0.12996227,0.12144015,26.7,16.26,16.86
1554117659891,-8.218098,-3.3441012000000003,4.0114849999999995,-0.41225734,-0.12357068,0.14807177,26.7,15.9,16.98
1554117659910,-8.10557,-3.4207156000000003,4.088698,-0.36751625,-0.096939065,0.15978967,26.76,15.54,17.04
1554117659930,-8.054094000000001,-3.2818519999999998,4.156333999999999,-0.2908172,-0.07563378,0.13315806,26.76,15.24,17.1
1554117659950,-8.095993,-3.1148564999999997,3.9773676,-0.20026971,-0.06604639400000001,0.09374327,26.82,14.94,17.16
1554117659970,-8.301296,-2.9981391,3.4967315,-0.23009712,-0.083090626,0.080960095,26.82,14.64,17.16
1554117659991,-8.310872999999999,-3.0735563999999997,3.5446155,-0.43249738,-0.1107875,0.08735169,26.88,14.1,17.16
1554117660020,-8.1319065,-3.2429460999999997,3.690662,-0.515588,-0.13209279,0.07989483,26.94,13.86,17.16
1554117660031,-8.133103,-3.3979707,3.6649241000000004,-0.5390238,-0.12250541,0.06285059999999999,27.0,13.56,17.16
1554117660050,-8.164227499999999,-3.470994,3.5547910000000003,-0.49747851,-0.10652645,0.05965481,27.12,13.26,17.16
1554117660071,-8.167819,-3.3225534,3.7122097000000003,-0.43036684,-0.094808534,0.037284255,27.18,12.9,17.1
1554117660090,-8.078036,-3.2052376000000002,3.8127663,-0.34621096,-0.08735169,0.017044231,27.24,12.48,17.16
1554117660110,-7.335833999999999,-3.1651347000000003,4.197036,-0.221575,0.00958738,-0.025566347000000003,27.36,12.06,17.16
1554117660131,-6.5427547,-2.336741,5.121796,0.16831179,0.23435818,-0.28868666,27.42,11.58,17.22
1554117660150,-7.841609,-1.7417817,4.2658687,0.4016047,0.21731395,-0.5592638000000001,27.48,11.1,17.22
1554117660170,-8.814852,-2.540248,2.023699,-0.033023197000000004,0.07350325,-0.48363006,27.54,10.74,17.28
1554117660190,-8.619724,-3.9809589999999995,1.3467385,-0.93849796,-0.008522116,-0.294013,27.54,10.38,17.4
1554117660210,-8.546700999999999,-4.95899,1.8411411,-1.7385116000000003,-0.08735169,-0.25992453,27.54,10.08,17.4
1554117660231,-8.773552,-5.3402667,2.8281507,-2.030394,-0.18535602,-0.165116,27.54,9.96,17.46
1554117660250,-8.603564,-5.5982423,3.5559879999999997,-1.7757957999999998,-0.2609898,0.013848438000000001,27.54,9.9,17.52
1554117660270,-8.18398,-5.5737014,4.1946416,-1.1685951,-0.25246766,0.099069595,27.48,9.84,17.7
1554117660290,-8.045714,-5.1355624,4.312556,-0.4261058,-0.19068234,0.084155895,27.48,9.9,17.88
1554117660311,-8.108562,-4.782418,4.2251673,0.18535602,-0.12037488,0.09054748,27.48,9.9,18.06
1554117660331,-8.025364,-4.3676224,3.6721067,0.59122175,-0.07030745599999999,0.094808534,27.48,9.96,18.24
1554117660351,-8.114548,-4.0479965,3.3075894999999997,0.59761333,-0.06178534,0.099069595,27.42,9.96,18.36
1554117660373,-8.123527000000001,-3.8804023,3.091513,0.4048005,-0.07776430000000001,0.11824436,27.42,9.84,18.48
1554117660390,-8.151658,-3.8947675000000004,2.9963433999999998,0.20453078,-0.09161274,0.13422333,27.42,9.6,18.66
1554117660411,-8.130111,-3.8001966,3.1142578,-0.10439592,-0.112918034,0.14168017,27.48,9.42,18.78
1554117660432,-8.122928,-3.705027,3.3441012000000003,-0.23542345,-0.12144015,0.14061491,27.48,9.18,18.84
1554117660451,-8.006809,-3.6577415,3.4967315,-0.23861924,-0.112918034,0.13741912,27.48,9.0,18.84
1554117660470,-7.916428,-3.6164417,3.5775358999999995,-0.17257284,-0.08735169,0.12570119999999999,27.54,8.82,18.84
1554117660490,-7.923012,-3.6421792999999996,3.5559879999999997,-0.084155895,-0.047936900000000005,0.09587380000000001,27.6,8.7,18.84
1554117660511,-7.893683,-3.654749,3.5027169999999996,-0.023435817999999997,-0.017044231,0.07456851,27.66,8.52,18.84
1554117660531,-7.9098440000000005,-3.6290112,3.4715924,-0.018109497,0.0010652645,0.04580637,27.78,8.4,18.78
1554117660551,-7.877522,-3.5781345,3.4111388,-0.049002163,0.008522116,-0.0010652645,27.9,8.34,18.78
1554117660571,-7.94037,-3.5930982000000005,3.2806550000000003,-0.11824436,0.011717908999999999,-0.025566347000000003,27.96,8.28,18.72
1554117660591,-7.961917999999999,-3.6487634,3.328539,-0.20026971,0.018109497,-0.05539375,28.08,8.22,18.66
1554117660611,-7.968502,-3.8289269999999997,3.3291376000000006,-0.2545982,0.01917476,-0.09054748,28.14,8.1,18.66
1554117660631,-7.967304700000001,-3.8738184,3.4524388,-0.26418558,0.025566347000000003,-0.12357068,28.26,8.04,18.6
1554117660651,-7.968502,-3.970185,3.3572693,-0.24394555,0.025566347000000003,-0.14274544,28.32,7.92,18.6
1554117660671,-7.924208999999999,-4.0629599999999995,3.2555158,-0.22583607,0.01917476,-0.165116,28.32,7.92,18.6
1554117660691,-7.9331875,-4.1258082,3.2148144,-0.23222765,0.0063915867,-0.18216023,28.38,7.92,18.6
1554117660710,-7.958925,-4.132391999999999,3.2112230999999998,-0.24501082,-0.012783173500000002,-0.2034655,28.38,7.86,18.6
1554117660731,-7.964312,-4.1934443,3.2106244999999998,-0.24714136,-0.01917476,-0.221575,28.38,7.74,18.6
1554117660751,-7.8888945999999995,-4.2251673,3.2674868,-0.23116238,-0.011717908999999999,-0.22796659,28.38,7.68,18.54
1554117660771,-7.765592999999999,-4.268862,3.3255462999999996,-0.19920446,0.00958738,-0.23329292,28.38,7.62,18.54
1554117660791,-7.700949700000001,-4.3077674,3.2603042,-0.1587244,0.022370555,-0.26312032,28.38,7.56,18.6
1554117660811,-7.700949700000001,-4.31495,3.2968156000000004,-0.12144015,0.043675844000000005,-0.29827404,28.32,7.5,18.6
1554117660831,-7.6225395,-4.2515035,3.2477345,-0.07243799,0.03834952,-0.34940675,28.32,7.44,18.6
1554117660851,-7.7440453,-4.288614,3.0561984,-0.05752428,0.051132694000000006,-0.39840892,28.26,7.38,18.72
1554117660871,-7.789535000000001,-4.4484267,2.9616275,-0.15233281,0.051132694000000006,-0.43782368,28.2,7.44,18.84
1554117660890,-7.8865004,-4.578911,3.004723,-0.23116238,0.05752428,-0.45167214,28.2,7.5,18.9
1554117660910,-7.838017999999999,-4.6561236,3.0029275,-0.2695119,0.06178534,-0.44101948,28.2,7.56,18.96
1554117660931,-7.6285253,-4.795586,2.9891607999999996,-0.28975195,0.054328485999999995,-0.41545314,28.14,7.92,19.08
1554117660951,-7.516596300000001,-4.9105077,3.0663737999999996,-0.24820662,0.05965481,-0.43249738,28.14,8.16,19.14
1554117660971,-7.5106106,-4.9841294000000005,3.0945058,-0.17150758,0.07456851,-0.46765109999999993,28.14,8.4,19.2
1554117660992,-7.431602000000001,-4.997896,3.0023289,-0.096939065,0.07776430000000001,-0.4857606,28.14,8.7,19.26
1554117661010,-7.3406224,-4.948815,2.8526914,-0.06924219,0.08841695,-0.47404268,28.14,8.94,19.26
1554117661032,-7.323863,-5.1810527,2.8072014,-0.10013486,0.08948222,-0.46232477,28.08,9.18,19.32
1554117661052,-7.241263000000001,-5.3803697,2.7994204,-0.1470065,0.096939065,-0.45912898,28.02,9.42,19.38
1554117661072,-7.2304892999999995,-5.6096144,2.7443538,-0.18748654,0.12783173,-0.46125950000000004,27.96,9.66,19.5
1554117661091,-7.228693499999999,-5.7418942,2.7156234,-0.21837921,0.15339808,-0.4825648,27.9,9.84,19.68
1554117661111,-7.201160000000001,-5.8334722999999995,2.7449522,-0.23861924,0.1768339,-0.4857606,27.84,10.08,19.8
1554117661131,-7.199364699999999,-5.990292500000001,2.7018566,-0.25246766,0.18642128,-0.47617322,27.78,10.26,19.92
1554117661150,-7.2364745,-6.125565,2.7222072999999996,-0.23435818,0.19600865,-0.47936899999999993,27.66,10.44,20.1
1554117661171,-7.265205,-6.251859,2.6970682,-0.22370553,0.21092236,-0.4825648,27.48,10.62,20.28
1554117661191,-7.3400240000000005,-6.27221,2.5558102000000003,-0.20772657,0.20879184,-0.47936899999999993,27.24,10.92,20.4
1554117661211,-7.4333979999999995,-6.287772,2.416348,-0.22477080000000002,0.20026971,-0.44954160000000004,26.94,11.16,20.58
1554117661231,-7.3639660000000005,-6.347626999999999,2.433706,-0.21518342,0.1768339,-0.41438788,26.7,11.46,20.64
1554117661251,-7.154473299999999,-6.3751607,2.552219,-0.1438107,0.15552860000000002,-0.40373522,26.4,11.76,20.76
1554117661270,-6.9880759999999995,-6.407482,2.5845408,-0.07776430000000001,0.14913702,-0.4016047,26.1,12.0,20.88
1554117661290,-6.941988,-6.405687,2.5342624,0.015978966,0.15659387,-0.41119209999999995,25.8,12.3,21.06
1554117661310,-6.892308,-6.442796700000001,2.472612,0.06711166,0.16937704,-0.41758367,25.5,12.6,21.36
1554117661331,-6.754042999999999,-6.503849,2.3439236,0.07882957,0.18748654,-0.41545314,25.38,12.96,21.66
1554117661351,-6.658873599999999,-6.5948286,2.1865046,0.047936900000000005,0.22903186,-0.40906155,25.26,13.38,21.9
1554117661371,-6.5218053,-6.707954400000001,2.2906525,-0.034088463,0.28122982,-0.41225734,25.2,13.74,22.2
1554117661391,-6.4721255,-6.926425500000001,2.1769277999999996,-0.09161274,0.30360037,-0.43249738,25.14,13.98,22.44
1554117661411,-6.4380083,-6.968324000000001,2.107496,-0.113983296,0.31957933,-0.44421527,25.02,14.28,22.68
1554117661431,-6.4188547,-7.036558599999999,2.0931308,-0.08522116,0.29827404,-0.45912898,24.84,14.52,22.86
1554117661451,-6.417658,-6.955156,1.8142063999999998,0.024501082,0.29294774,-0.47191215,24.48,14.76,22.98
1554117661470,-6.3721676,-6.8839283,1.8698715,0.056459017,0.2972088,-0.45912898,24.18,15.0,22.98
1554117661493,-6.336254599999999,-6.887519999999999,1.8267759,0.09267801,0.2876214,-0.47723848,23.82,15.36,23.1
1554117661512,-6.3829417,-6.865373599999999,1.678934,0.128897,0.29507825,-0.49534798,23.46,15.54,23.22
1554117661532,-6.4667387000000005,-6.87914,1.7226281000000003,0.12570119999999999,0.3153183,-0.5113269,23.16,15.72,23.34
1554117661551,-6.51582,-6.956353,1.7100586,0.10652645,0.32597092,-0.5187838,22.8,15.9,23.52
1554117661572,-6.517616,-7.1730285,1.620276,0.080960095,0.34408042,-0.49854377,22.5,16.14,23.64
1554117661591,-6.457162,-7.286154300000001,1.5825673,0.07137272,0.34940675,-0.47723848,22.26,16.32,23.82
1554117661612,-6.285378,-7.3723453999999995,1.7591397000000002,0.11717909,0.39201729999999996,-0.46978164,22.08,16.56,23.94
1554117661631,-6.232107,-7.395689,1.797447,0.17257284,0.43356264,-0.44634579999999996,21.78,16.92,24.06
