TimeStamp,Ax,Ay,Az,Gx,Gy,Gz,Mx,My,Mz
1554107582936,-4.855441000000001,-3.1896752999999998,4.5483847,-2.0570256999999996,-0.47723848,-1.7459685,1.68,44.94,-0.42
1554107582955,-4.55856,-3.8025907999999995,4.208408,-2.1582258,-0.47297743,-1.9558256,1.08,45.42,0.54
1554107582974,-4.2521024,-4.7219644,4.1844660000000005,-2.380866,-0.43995422,-2.1198764,0.36,45.9,1.62
1554107582995,-4.0078936,-5.3923407,4.1557355000000005,-2.5513084,-0.38882150000000004,-2.2604911,-0.48,46.38,2.88
1554107583014,-3.7924154000000003,-5.7706246,3.863643,-2.610963,-0.30253512,-2.376605,-1.32,46.86,4.14
1554107583034,-3.5242648,-5.789778,3.7056258,-2.5193505000000003,-0.2066613,-2.5406556,-2.16,47.28,5.52
1554107583055,-3.4141315999999997,-7.006033,3.3369186,-2.3105586,-0.128897,-2.727077,-3.06,47.7,6.96
1554107583075,-3.0262709,-8.27496,2.9634232999999996,-2.2722092000000003,-0.053263225,-2.8304076,-3.96,47.94,8.34
1554107583094,-2.4756044999999998,-8.500014,2.915539,-2.2338595000000003,0.03195793,-2.790993,-5.1,48.0,9.48
1554107583115,-2.3606830000000003,-8.629301,1.8046296000000002,-2.111354,0.14061491,-2.8176246,-6.42,48.0,10.68
1554107583134,-2.2984335,-8.461707,1.5604209999999998,-2.118811,0.2034655,-2.8655615,-7.74,47.82,11.82
1554107583154,-1.9871874,-10.152014,0.7990648,-2.2668827,0.25246766,-2.847452,-9.06,47.46,13.02
1554107583175,-1.5562311000000002,-11.574169,1.4790181,-2.3787355,0.29294774,-2.7398603,-10.44,46.74,14.28
1554107583194,-1.1061212,-12.110471,2.0296845,-1.8524948,0.33768883,-2.5853968,-12.0,45.72,15.42
1554107583215,-1.340753,-12.129624,0.31543607,-1.3124058,0.40373522,-2.4213462000000003,-13.74,44.64,16.56
1554107583235,-1.2497733,-11.531074,-0.29747957,-1.3422332000000001,0.36432046,-2.1518342,-15.72,43.44,17.58
1554107583255,-1.0199299000000002,-11.6747265,0.3537433,-1.6010925,0.28868666,-1.9792613999999997,-17.46,42.12,18.6
1554107583275,-1.043872,-12.823943,0.42078096,-1.4413028,0.21624869,-1.7821875,-19.02,40.62,19.5
1554107583294,-0.7469909,-12.943653,0.09516951400000001,-1.0887003,0.16085494,-1.5052186,-20.52,38.94,20.28
1554107583315,-0.8379706,-12.316372,-0.4985925,-0.8788431999999999,0.112918034,-1.2271847,-21.84,37.38,21.0
1554107583335,-0.7374141,-12.009914,-0.36930559999999996,-0.9139969000000001,0.034088463,-0.9917611999999999,-23.16,36.06,21.6
1554107583355,-0.82360536,-12.32116,-0.20649989,-0.92784536,-0.029827405,-0.8021441,-24.36,34.8,22.08
1554107583374,-0.6751649000000001,-12.551003,0.22924481,-0.71159667,-0.06604639400000001,-0.58483016,-25.26,33.48,22.38
1554107583395,-0.6655880999999999,-12.330737,0.14784196,-0.28975195,-0.080960095,-0.40053943,-25.86,32.22,22.68
1554107583415,-0.5506664000000001,-11.804013000000001,-0.05327099,0.040480047000000005,-0.07350325,-0.22477080000000002,-26.34,31.08,22.98
1554107583435,-0.49320555,-11.550227,-0.0676362,0.24394555,-0.07137272,-0.10652645,-26.7,30.12,23.22
1554107583455,-0.45010993,-11.248558000000001,-0.22565351,0.28655612,-0.06498113,0.002130529,-27.0,29.46,23.46
1554107583475,-0.32561144,-10.889428,-0.24959552,0.23222765,-0.07776430000000001,0.10226539,-27.24,28.8,23.58
1554107583495,-0.095768064,-10.812814,-0.25917232,0.14168017,-0.08522116,0.165116,-27.3,28.32,23.7
1554107583514,0.23942018,-10.64043,-0.41240123,0.06711166,-0.08841695,0.20453078,-27.36,27.96,23.82
1554107583534,0.58897364,-10.650007,-0.38367084,0.036218993,-0.094808534,0.21198763,-27.36,27.78,23.94
1554107583555,0.8379706,-10.34355,-0.43634325,0.046871635999999994,-0.080960095,0.20240025,-27.36,27.78,24.0
1554107583574,0.9528923,-10.070611,-0.28790274,0.07137272,-0.07563378,0.18109496,-27.36,27.78,24.06
1554107583595,0.93373865,-9.59177,-0.66139823,0.07350325,-0.08735169,0.16298546,-27.36,27.9,24.06
1554107583614,0.866701,-9.467272,-0.6374562,0.068176925,-0.10333065,0.14594123,-27.36,27.96,24.06
1554107583634,0.79966336,-9.146449,-0.7188591,0.07030745599999999,-0.13954964,0.11930962,-27.36,28.08,24.06
1554107583655,0.7517793,-9.1512375,-0.84814596,0.10865697,-0.17789917,0.084155895,-27.36,28.26,24.06
1554107583674,0.78050977,-9.280524,-0.88166475,0.12463594,-0.19920446,0.06711166,-27.36,28.38,24.12
1554107583694,0.7326256999999999,-9.261371,-1.0779893,0.080960095,-0.22583607,0.056459017,-27.3,28.56,24.12
1554107583714,0.8714894,-9.673173,-0.84814596,0.05219796,-0.23009712,0.036218993,-27.18,28.68,24.24
1554107583735,0.8810662,-9.77373,-0.8960299999999999,0.080960095,-0.21944448,0.024501082,-27.12,28.68,24.3
1554107583754,0.93373865,-9.845556,-1.0923545000000001,0.128897,-0.17257284,0.01917476,-27.0,28.8,24.36
1554107583775,1.2018893,-9.835979,-0.98222125,0.06924219,-0.1107875,0.03195793,-26.76,28.92,24.54
1554107583795,1.1827357,-9.926959,-0.7044938000000001,-0.035153727999999995,-0.053263225,0.041545313,-26.58,28.98,24.6
1554107583815,1.1156979999999999,-9.931747,-0.57041854,-0.112918034,0.0053263223,0.060720075,-26.4,29.1,24.66
1554107583834,0.9959879,-9.855133,-0.3645172,-0.112918034,0.04474111,0.07776430000000001,-26.22,29.22,24.72
1554107583854,0.8714894,-9.582193,-0.32142156,-0.047936900000000005,0.07030745599999999,0.084155895,-25.98,29.4,24.72
1554107583875,0.80924016,-9.519944,-0.38845924,0.01917476,0.07669904,0.082025364,-25.8,29.58,24.72
1554107583894,0.7757214,-9.491214,-0.4985925,0.08522116,0.06178534,0.06285059999999999,-25.68,29.76,24.66
1554107583915,0.6512229,-9.543886,-0.31184477,0.12996227,0.047936900000000005,0.03834952,-25.5,29.94,24.6
1554107583934,0.58418524,-9.500791,-0.4890157,0.14061491,0.02130529,0.0063915867,-25.38,30.06,24.54
1554107583954,0.61770403,-9.390657000000001,-0.83856916,0.07882957,0.0063915867,-0.013848438000000001,-25.32,30.12,24.48
1554107583975,0.58897364,-9.467272,-0.7332243,-0.008522116,0.0063915867,-0.040480047000000005,-25.26,30.18,24.36
1554107583995,0.59855044,-9.749788,-0.7858967,-0.07030745599999999,0.024501082,-0.05219796,-25.2,30.24,24.3
1554107584014,0.545878,-9.759364999999999,-0.47465047,-0.05219796,0.051132694000000006,-0.05006743,-25.2,30.24,24.18
1554107584035,0.44532153,-9.663596,-0.7858967,-0.035153727999999995,0.07243799,-0.04261058,-25.26,30.18,24.12
1554107584055,0.37828386,-9.716269500000001,-0.96785605,-0.035153727999999995,0.09587380000000001,-0.03089267,-25.26,30.18,24.12
1554107584074,0.24899697,-9.534309,-0.86251116,-0.06285059999999999,0.10972224,-0.026631612000000002,-25.32,30.18,24.18
1554107584094,0.10534488,-9.663596,-0.84335756,-0.09054748,0.10333065,-0.037284255,-25.38,30.18,24.24
1554107584114,0.090979666,-9.610924,-0.74758947,-0.112918034,0.096939065,-0.036218993,-25.44,30.18,24.3
1554107584135,0.10055647,-9.620500999999999,-0.4842273,-0.12570119999999999,0.07882957,-0.03834952,-25.5,30.12,24.42
1554107584155,0.07182605,-9.797672,-0.6422445999999999,-0.12250541,0.06178534,-0.041545313,-25.56,30.0,24.48
1554107584175,0.08140286,-9.807249,-0.7140707,-0.10972224,0.040480047000000005,-0.05006743,-25.56,29.88,24.6
1554107584195,0.13407529999999998,-9.903017,-0.65660983,-0.08841695,0.011717908999999999,-0.04580637,-25.56,29.76,24.66
1554107584214,0.21068975,-9.993997,-0.57041854,-0.096939065,-0.002130529,-0.029827405,-25.62,29.7,24.66
1554107584234,0.23463176,-9.993997,-0.4842273,-0.08628642,-0.01917476,-0.012783173500000002,-25.68,29.58,24.66
1554107584255,0.2777274,-9.965266,-0.5129577000000001,-0.049002163,-0.01917476,-0.0053263223,-25.8,29.52,24.66
1554107584275,0.37828386,-9.879075,-0.57999533,-0.013848438000000001,-0.02130529,0.0031957934000000003,-25.92,29.4,24.6
1554107584295,0.30645782,-9.941324,-0.4890157,0.013848438000000001,-0.02130529,0.011717908999999999,-25.98,29.34,24.6
1554107584315,0.30645782,-9.888652,-0.5033809,0.036218993,-0.010652645,0.012783173500000002,-26.04,29.34,24.6
1554107584334,0.34476504,-9.941324,-0.52253455,0.043675844000000005,-0.0010652645,0.014913702,-26.1,29.34,24.54
1554107584354,0.32561144,-9.840767999999999,-0.53689975,0.02876214,0.01917476,0.01917476,-26.16,29.34,24.54
1554107584375,0.32561144,-9.879075,-0.7140707,0.015978966,0.03834952,0.023435817999999997,-26.16,29.34,24.48
1554107584395,0.26815059999999996,-9.821614,-0.7236475,0.00958738,0.056459017,0.026631612000000002,-26.1,29.34,24.48
1554107584415,0.22505496,-9.855133,-0.6087258000000001,0.00958738,0.07989483,0.024501082,-26.1,29.34,24.48
1554107584434,0.1436521,-9.754577000000001,-0.6183026,0.007456851,0.094808534,0.03195793,-25.98,29.34,24.42
1554107584455,0.2777274,-9.658808,-0.66618663,0.007456851,0.10439592,0.03195793,-25.92,29.34,24.42
1554107584475,0.038307227,-9.601347,-0.7811083000000001,0.0063915867,0.10546118,0.027696876000000002,-25.92,29.34,24.36
1554107584494,0.07182605,-9.649231,-0.6757634,-0.002130529,0.099069595,0.017044231,-25.86,29.28,24.36
1554107584514,0.047884032,-9.77373,-0.7140707,-0.007456851,0.09161274,0.0010652645,-25.86,29.28,24.3
1554107584535,-0.009576807,-9.711481,-0.88166475,-0.0010652645,0.07776430000000001,-0.018109497,-25.92,29.22,24.24
1554107584554,0.04309563,-9.826402999999999,-0.88645315,-0.00958738,0.05965481,-0.026631612000000002,-25.92,29.22,24.24
1554107584574,0.019153614,-9.783307,-0.65182143,-0.034088463,0.037284255,-0.029827405,-25.92,29.16,24.18
1554107584595,0.033518825,-9.840767999999999,-0.6853402,-0.02876214,0.014913702,-0.036218993,-25.98,29.16,24.18
1554107584614,0.033518825,-9.816825999999999,-0.6757634,0.0010652645,-0.012783173500000002,-0.041545313,-25.98,29.16,24.18
1554107584634,0.05746084,-9.807249,-0.65660983,0.03089267,-0.029827405,-0.04474111,-25.98,29.1,24.18
1554107584655,0.023942016,-9.840767999999999,-0.56084174,0.05006743,-0.049002163,-0.05006743,-26.04,29.04,24.18
1554107584675,0.038307227,-9.826402999999999,-0.670975,0.043675844000000005,-0.06178534,-0.05219796,-26.04,28.98,24.12
1554107584694,0.05267244,-9.826402999999999,-0.6087258000000001,0.033023197000000004,-0.06711166,-0.049002163,-26.04,28.98,24.12
1554107584715,0.0047884034,-9.706693,-0.56563014,0.027696876000000002,-0.06924219,-0.05006743,-26.04,28.92,24.12
1554107584734,0.02873042,-9.797672,-0.5895722,0.03834952,-0.06924219,-0.05219796,-26.04,28.92,24.12
1554107584755,0.1388637,-9.778519000000001,-0.6853402,0.03834952,-0.06285059999999999,-0.05219796,-26.04,28.92,24.12
1554107584774,0.17238252,-9.816825999999999,-0.53211135,0.03195793,-0.058589544,-0.049002163,-25.98,28.92,24.12
1554107584795,0.08619126,-9.812037,-0.5177461,0.024501082,-0.051132694000000006,-0.041545313,-25.98,28.98,24.06
1554107584816,0.1436521,-9.835979,-0.7044938000000001,0.026631612000000002,-0.05219796,-0.037284255,-25.98,29.04,24.06
1554107584834,0.20590134,-9.816825999999999,-0.5895722,0.02876214,-0.046871635999999994,-0.024501082,-25.98,29.1,24.06
1554107584854,0.17238252,-9.735422999999999,-0.7044938000000001,0.03834952,-0.04261058,-0.02130529,-25.98,29.16,24.0
1554107584874,0.18195933,-9.735422999999999,-0.57999533,0.034088463,-0.043675844000000005,-0.015978966,-26.04,29.22,24.0
1554107584894,0.22984336,-9.783307,-0.54168814,0.01917476,-0.04474111,-0.022370555,-26.04,29.22,24.0
1554107584915,0.19632454,-9.706693,-0.4794389,0.018109497,-0.04474111,-0.035153727999999995,-26.1,29.22,24.0
1554107584934,0.2777274,-9.697116000000001,-0.5081693,0.024501082,-0.03834952,-0.043675844000000005,-26.1,29.28,24.0
1554107584954,0.20590134,-9.768942,-0.5895722,0.02130529,-0.041545313,-0.049002163,-26.1,29.28,24.06
1554107584975,0.19153613,-9.821614,-0.5129577000000001,0.013848438000000001,-0.04261058,-0.049002163,-26.1,29.4,24.06
1554107584995,0.19632454,-9.77373,-0.45549688,0.007456851,-0.037284255,-0.053263225,-26.04,29.58,24.06
1554107585015,0.23463176,-9.883863,-0.4985925,0.012783173500000002,-0.03834952,-0.058589544,-26.04,29.7,24.06
1554107585034,0.25857377,-9.874286999999999,-0.45549688,0.026631612000000002,-0.035153727999999995,-0.060720075,-25.98,29.82,24.06
1554107585054,0.1436521,-9.855133,-0.53689975,0.027696876000000002,-0.037284255,-0.06498113,-25.98,29.94,24.06
1554107585074,0.31603462,-9.883863,-0.41718966,0.022370555,-0.041545313,-0.060720075,-25.92,30.06,24.06
1554107585095,0.24899697,-9.898228999999999,-0.46507367,0.024501082,-0.04261058,-0.05539375,-25.92,30.12,24.06
1554107585115,0.22505496,-9.855133,-0.42197806,0.034088463,-0.04261058,-0.047936900000000005,-25.8,30.18,24.0
1554107585135,0.11971009,-9.845556,-0.3645172,0.049002163,-0.03089267,-0.046871635999999994,-25.74,30.18,24.0
1554107585155,0.19632454,-9.701903999999999,-0.36930559999999996,0.043675844000000005,-0.023435817999999997,-0.03834952,-25.68,30.12,24.0
1554107585175,0.14844051,-9.697116000000001,-0.29747957,0.041545313,-0.015978966,-0.034088463,-25.68,30.06,24.0
1554107585195,0.22026655,-9.68275,-0.46507367,0.047936900000000005,-0.004261058,-0.037284255,-25.62,30.06,23.94
1554107585214,0.17238252,-9.778519000000001,-0.4794389,0.04261058,0.002130529,-0.035153727999999995,-25.56,30.06,23.94
1554107585235,0.19153613,-9.721058,-0.31663316,0.035153727999999995,0.014913702,-0.033023197000000004,-25.5,30.06,23.94
1554107585254,0.18674773,-9.701903999999999,-0.56563014,0.037284255,0.017044231,-0.034088463,-25.5,30.06,24.0
1554107585274,0.19632454,-9.697116000000001,-0.40282443,0.03195793,0.017044231,-0.03089267,-25.5,30.12,24.0
1554107585296,0.18674773,-9.721058,-0.5081693,0.03089267,0.018109497,-0.029827405,-25.5,30.12,24.0
1554107585315,0.18674773,-9.725846,-0.53689975,0.03089267,0.018109497,-0.027696876000000002,-25.5,30.18,24.0
1554107585335,0.15322891,-9.639654,-0.5943606,0.034088463,0.018109497,-0.027696876000000002,-25.5,30.24,24.0
1554107585354,0.16759412,-9.663596,-0.42676646,0.024501082,0.00958738,-0.027696876000000002,-25.5,30.3,24.0
1554107585374,0.15801731,-9.701903999999999,-0.5129577000000001,0.01917476,0.015978966,-0.027696876000000002,-25.5,30.3,24.0
1554107585395,0.21547815,-9.663596,-0.41718966,0.013848438000000001,0.015978966,-0.024501082,-25.56,30.42,24.06
1554107585415,0.2873042,-9.792883999999999,-0.41718966,0.007456851,0.014913702,-0.02130529,-25.62,30.42,24.0
1554107585434,0.18674773,-9.7641535,-0.4985925,0.004261058,0.01917476,-0.025566347000000003,-25.62,30.48,24.0
1554107585455,0.24899697,-9.6923275,-0.36930559999999996,-0.002130529,0.023435817999999997,-0.02130529,-25.68,30.48,24.06
1554107585474,0.18195933,-9.697116000000001,-0.5033809,0.0,0.03089267,-0.022370555,-25.68,30.48,24.06
1554107585495,0.29209262,-9.706693,-0.5847838000000001,-0.007456851,0.041545313,-0.024501082,-25.74,30.48,24.0
1554107585515,0.19632454,-9.749788,-0.4985925,-0.01917476,0.047936900000000005,-0.03089267,-25.8,30.42,23.94
1554107585535,0.20590134,-9.7641535,-0.41240123,-0.043675844000000005,0.058589544,-0.03195793,-25.8,30.36,23.88
1554107585555,0.090979666,-9.788095,-0.41718966,-0.04261058,0.05752428,-0.035153727999999995,-25.8,30.36,23.82
1554107585575,0.16759412,-9.855133,-0.4890157,-0.046871635999999994,0.053263225,-0.03089267,-25.74,30.3,23.76
1554107585594,0.13407529999999998,-9.874286999999999,-0.3309984,-0.036218993,0.053263225,-0.037284255,-25.68,30.3,23.7
1554107585615,0.110133275,-9.831191,-0.3309984,-0.035153727999999995,0.051132694000000006,-0.036218993,-25.68,30.24,23.64
1554107585635,0.17717093,-9.950901,-0.42676646,-0.035153727999999995,0.041545313,-0.037284255,-25.62,30.3,23.58
1554107585655,0.18674773,-9.931747,-0.25438392,-0.018109497,0.04261058,-0.036218993,-25.62,30.3,23.58
1554107585674,0.16280572,-9.888652,-0.31663316,0.008522116,0.036218993,-0.03195793,-25.62,30.36,23.64
1554107585695,0.05267244,-9.826402999999999,-0.43634325,0.024501082,0.039414786,-0.01917476,-25.62,30.36,23.7
1554107585714,0.08619126,-9.778519000000001,-0.4794389,0.026631612000000002,0.039414786,-0.014913702,-25.62,30.36,23.7
1554107585735,0.019153614,-9.821614,-0.53689975,0.03089267,0.037284255,-0.02130529,-25.68,30.36,23.7
1554107585755,0.16280572,-9.788095,-0.36930559999999996,0.02876214,0.036218993,-0.018109497,-25.68,30.36,23.76
1554107585774,0.12449849,-9.783307,-0.5081693,0.02876214,0.036218993,-0.022370555,-25.74,30.3,23.76
1554107585795,0.1436521,-9.768942,-0.3453636,0.022370555,0.033023197000000004,-0.017044231,-25.74,30.24,23.76
1554107585815,0.11971009,-9.821614,-0.43155485,0.025566347000000003,0.035153727999999995,-0.010652645,-25.8,30.24,23.76
1554107585835,0.18195933,-9.879075,-0.46507367,0.03089267,0.026631612000000002,-0.007456851,-25.86,30.18,23.76
1554107585854,0.11971009,-9.759364999999999,-0.374094,0.037284255,0.034088463,-0.0063915867,-25.92,30.18,23.7
1554107585874,0.19632454,-9.740211500000001,-0.3597288,0.034088463,0.03195793,-0.008522116,-25.98,30.18,23.64
1554107585895,0.14844051,-9.740211500000001,-0.374094,0.029827405,0.034088463,-0.0053263223,-26.04,30.24,23.64
1554107585915,0.16759412,-9.778519000000001,-0.3453636,0.037284255,0.036218993,-0.008522116,-26.04,30.3,23.58
1554107585935,0.047884032,-9.716269500000001,-0.43634325,0.04261058,0.046871635999999994,-0.015978966,-26.1,30.36,23.58
1554107585955,0.04309563,-9.620500999999999,-0.5177461,0.029827405,0.04580637,-0.02130529,-26.16,30.42,23.58
1554107585975,0.06703765,-9.701903999999999,-0.3645172,0.012783173500000002,0.047936900000000005,-0.024501082,-26.22,30.54,23.52
1554107585995,0.090979666,-9.701903999999999,-0.41718966,0.008522116,0.04580637,-0.026631612000000002,-26.22,30.6,23.46
1554107586015,0.17238252,-9.730635000000001,-0.27353755,0.013848438000000001,0.041545313,-0.026631612000000002,-26.22,30.6,23.46
1554107586035,0.038307227,-9.730635000000001,-0.46507367,0.037284255,0.037284255,-0.025566347000000003,-26.22,30.6,23.46
1554107586055,0.10055647,-9.754577000000001,-0.46507367,0.047936900000000005,0.02876214,-0.024501082,-26.22,30.6,23.46
1554107586076,0.076614454,-9.759364999999999,-0.46028528,0.037284255,0.023435817999999997,-0.022370555,-26.22,30.66,23.46
1554107586095,0.04309563,-9.898228999999999,-0.4842273,0.020240024,0.01917476,-0.01917476,-26.22,30.66,23.46
1554107586115,0.095768064,-9.869498,-0.3309984,0.017044231,0.025566347000000003,-0.013848438000000001,-26.16,30.72,23.4
1554107586134,0.04309563,-9.89344,-0.3357868,0.00958738,0.024501082,-0.008522116,-26.16,30.66,23.4
1554107586154,0.05267244,-9.788095,-0.45070848,0.01917476,0.03089267,-0.00958738,-26.16,30.72,23.34
1554107586175,0.02873042,-9.68275,-0.3357868,0.02130529,0.02876214,-0.007456851,-26.1,30.72,23.34
1554107586194,0.07182605,-9.721058,-0.30705637,0.02130529,0.02876214,-0.014913702,-26.1,30.78,23.34
1554107586214,0.076614454,-9.639654,-0.23523031,0.012783173500000002,0.027696876000000002,-0.017044231,-26.1,30.78,23.34
1554107586235,0.01436521,-9.716269500000001,-0.41240123,0.0031957934000000003,0.024501082,-0.022370555,-26.1,30.78,23.34
1554107586255,-0.009576807,-9.701903999999999,-0.36930559999999996,0.002130529,0.026631612000000002,-0.023435817999999997,-26.1,30.72,23.34
1554107586275,-0.095768064,-9.654019,-0.5081693,-0.0063915867,0.01917476,-0.029827405,-26.1,30.72,23.34
1554107586294,-0.033518825,-9.874286999999999,-0.20171149,-0.018109497,0.015978966,-0.03195793,-26.1,30.72,23.4
1554107586314,-0.076614454,-9.812037,-0.45070848,-0.029827405,0.017044231,-0.02876214,-26.1,30.72,23.4
1554107586335,-0.05267244,-9.89344,-0.41240123,-0.03089267,0.012783173500000002,-0.02876214,-26.1,30.66,23.4
1554107586355,0.019153614,-9.816825999999999,-0.3597288,-0.033023197000000004,0.0053263223,-0.02130529,-26.16,30.66,23.4
1554107586375,0.047884032,-9.845556,-0.29747957,-0.022370555,0.002130529,-0.017044231,-26.16,30.72,23.4
1554107586396,0.05746084,-9.797672,-0.27353755,-0.0063915867,0.0053263223,-0.014913702,-26.16,30.66,23.4
1554107586415,0.038307227,-9.812037,-0.40282443,-0.002130529,0.004261058,-0.013848438000000001,-26.22,30.66,23.4
1554107586434,0.11492168,-9.730635000000001,-0.350152,-0.007456851,0.017044231,-0.0063915867,-26.22,30.66,23.4
1554107586454,0.076614454,-9.677961,-0.3645172,-0.027696876000000002,0.033023197000000004,-0.008522116,-26.22,30.66,23.4
1554107586474,0.11492168,-9.835979,-0.27832595,-0.05006743,0.046871635999999994,-0.012783173500000002,-26.22,30.66,23.4
1554107586494,0.110133275,-9.826402999999999,-0.3645172,-0.05006743,0.06391586,-0.033023197000000004,-26.22,30.66,23.46
1554107586515,0.033518825,-9.835979,-0.23044191,-0.023435817999999997,0.07669904,-0.05219796,-26.28,30.66,23.52
1554107586535,0.11971009,-9.888652,-0.38367084,0.0,0.07563378,-0.056459017,-26.28,30.6,23.58
1554107586555,0.16759412,-9.936536,-0.28311434,0.029827405,0.08628642,-0.058589544,-26.28,30.6,23.64
1554107586575,0.12449849,-9.740211500000001,-0.350152,0.047936900000000005,0.094808534,-0.06391586,-26.4,30.6,23.64
1554107586594,0.01436521,-9.835979,-0.28790274,0.037284255,0.099069595,-0.06604639400000001,-26.52,30.66,23.7
1554107586614,-0.04309563,-9.850344999999999,-0.3645172,0.034088463,0.10333065,-0.07137272,-26.7,30.72,23.7
1554107586634,0.0047884034,-9.812037,-0.3597288,0.029827405,0.10652645,-0.07456851,-26.82,30.78,23.7
1554107586654,-0.10055647,-9.931747,-0.42197806,0.010652645,0.11611383,-0.07989483,-26.94,30.84,23.64
1554107586675,-0.11971009,-9.883863,-0.4842273,-0.004261058,0.11930962,-0.07989483,-27.06,30.9,23.58
1554107586695,-0.10055647,-9.840767999999999,-0.36930559999999996,-0.01917476,0.12144015,-0.06924219,-27.12,30.9,23.52
1554107586714,-0.11971009,-9.850344999999999,-0.42676646,-0.033023197000000004,0.11824436,-0.058589544,-27.18,30.96,23.46
1554107586734,-0.12449849,-9.797672,-0.42676646,-0.033023197000000004,0.111852765,-0.04261058,-27.18,31.02,23.4
1554107586754,-0.17238252,-9.917382,-0.28311434,-0.0063915867,0.10865697,-0.037284255,-27.12,31.02,23.34
1554107586776,-0.062249242999999996,-9.792883999999999,-0.42197806,0.035153727999999995,0.10759171,-0.03089267,-27.12,30.96,23.28
1554107586794,-0.090979666,-9.812037,-0.36930559999999996,0.053263225,0.111852765,-0.024501082,-27.12,30.9,23.22
1554107586815,-0.062249242999999996,-9.615712,-0.35494040000000004,0.04580637,0.10333065,-0.022370555,-27.12,30.9,23.22
1554107586835,-0.06703765,-9.663596,-0.40761283,0.02876214,0.10759171,-0.018109497,-27.18,30.84,23.22
1554107586855,-0.047884032,-9.644442999999999,-0.3788824,0.004261058,0.10226539,-0.011717908999999999,-27.24,30.84,23.22
1554107586875,-0.023942016,-9.596559,-0.57999533,-0.014913702,0.101200126,-0.010652645,-27.3,30.78,23.22
1554107586895,0.02873042,-9.644442999999999,-0.46028528,-0.034088463,0.099069595,-0.013848438000000001,-27.36,30.72,23.22
1554107586915,-0.038307227,-9.644442999999999,-0.36930559999999996,-0.027696876000000002,0.10013486,-0.026631612000000002,-27.48,30.72,23.22
1554107586934,-0.02873042,-9.668385,-0.32621,-0.024501082,0.08948222,-0.033023197000000004,-27.54,30.66,23.28
1554107586954,-0.05267244,-9.697116000000001,-0.39803603,-0.039414786,0.082025364,-0.033023197000000004,-27.6,30.66,23.28
1554107586975,-0.14844051,-9.6923275,-0.5129577000000001,-0.058589544,0.07350325,-0.029827405,-27.66,30.66,23.28
1554107586995,0.023942016,-9.821614,-0.39803603,-0.05965481,0.06711166,-0.03089267,-27.66,30.66,23.28
1554107587021,-0.023942016,-9.792883999999999,-0.45549688,-0.05752428,0.060720075,-0.033023197000000004,-27.78,30.6,23.28
1554107587040,0.009576807,-9.946113,-0.53211135,-0.051132694000000006,0.051132694000000006,-0.037284255,-27.84,30.6,23.34
1554107587055,0.033518825,-9.907805,-0.41718966,-0.046871635999999994,0.053263225,-0.040480047000000005,-27.84,30.54,23.34
1554107587075,0.04309563,-9.86471,-0.3309984,-0.041545313,0.046871635999999994,-0.041545313,-27.9,30.48,23.34
1554107587094,-0.0047884034,-9.855133,-0.46028528,-0.037284255,0.03834952,-0.03834952,-28.02,30.42,23.34
1554107587114,-0.009576807,-9.86471,-0.31663316,-0.029827405,0.029827405,-0.036218993,-28.08,30.36,23.34
1554107587134,-0.062249242999999996,-9.917382,-0.26396075,-0.0063915867,0.018109497,-0.039414786,-28.08,30.3,23.4
1554107587154,-0.047884032,-9.797672,-0.15382746,0.020240024,0.008522116,-0.04261058,-28.14,30.3,23.4
1554107587175,-0.01436521,-9.740211500000001,-0.26396075,0.035153727999999995,-0.004261058,-0.04474111,-28.14,30.24,23.34
1554107587194,0.04309563,-9.740211500000001,-0.28311434,0.033023197000000004,-0.015978966,-0.060720075,-28.14,30.18,23.34
1554107587215,0.033518825,-9.788095,-0.31663316,0.023435817999999997,-0.03195793,-0.06924219,-28.08,30.24,23.34
1554107587234,-0.019153614,-9.759364999999999,-0.28311434,0.026631612000000002,-0.04474111,-0.07563378,-28.14,30.24,23.34
1554107587254,0.10534488,-9.883863,-0.30705637,0.046871635999999994,-0.047936900000000005,-0.07882957,-28.14,30.3,23.28
1554107587274,0.19632454,-9.86471,-0.26396075,0.054328485999999995,-0.051132694000000006,-0.07989483,-28.14,30.36,23.22
1554107587294,0.13407529999999998,-9.869498,-0.36930559999999996,0.053263225,-0.05219796,-0.082025364,-28.14,30.36,23.22
1554107587314,0.14844051,-9.816825999999999,-0.31184477,0.051132694000000006,-0.054328485999999995,-0.084155895,-28.08,30.42,23.16
1554107587335,0.07182605,-9.792883999999999,-0.32142156,0.051132694000000006,-0.049002163,-0.083090626,-28.14,30.48,23.16
1554107587354,0.1436521,-9.620500999999999,-0.28311434,0.05965481,-0.04261058,-0.082025364,-28.14,30.48,23.16
1554107587375,0.076614454,-9.658808,-0.3597288,0.05539375,-0.034088463,-0.083090626,-28.14,30.54,23.16
1554107587394,0.08619126,-9.639654,-0.374094,0.03834952,-0.027696876000000002,-0.083090626,-28.14,30.54,23.16
1554107587415,0.07182605,-9.826402999999999,-0.3453636,0.022370555,-0.018109497,-0.08735169,-28.14,30.54,23.16
1554107587435,0.095768064,-9.788095,-0.27832595,0.012783173500000002,-0.015978966,-0.08522116,-28.08,30.54,23.16
1554107587455,-0.009576807,-9.740211500000001,-0.27832595,0.01917476,-0.014913702,-0.07456851,-28.08,30.54,23.16
1554107587474,0.08140286,-9.840767999999999,-0.19692309,0.029827405,-0.012783173500000002,-0.06711166,-28.08,30.54,23.16
1554107587494,0.090979666,-9.792883999999999,-0.27353755,0.034088463,-0.012783173500000002,-0.056459017,-28.02,30.54,23.16
1554107587515,0.090979666,-9.701903999999999,-0.21128829999999998,0.027696876000000002,-0.013848438000000001,-0.046871635999999994,-28.02,30.54,23.16
1554107587535,0.12449849,-9.7641535,-0.32142156,0.015978966,-0.012783173500000002,-0.040480047000000005,-28.02,30.54,23.1
1554107587555,0.10534488,-9.816825999999999,-0.350152,0.008522116,-0.011717908999999999,-0.035153727999999995,-27.96,30.48,23.1
1554107587574,0.16280572,-9.783307,-0.23523031,0.007456851,-0.013848438000000001,-0.034088463,-28.02,30.48,23.1
1554107587594,0.076614454,-9.730635000000001,-0.38367084,0.0031957934000000003,-0.012783173500000002,-0.03834952,-28.02,30.42,23.1
1554107587614,0.18195933,-9.778519000000001,-0.5129577000000001,-0.0010652645,-0.022370555,-0.040480047000000005,-28.02,30.36,23.1
1554107587635,0.22026655,-9.89344,-0.24480712,0.0,-0.03195793,-0.04261058,-28.02,30.36,23.1
1554107587655,0.15322891,-9.855133,-0.21607670000000004,0.002130529,-0.041545313,-0.04261058,-28.02,30.36,23.1
1554107587675,0.15322891,-9.749788,-0.27353755,0.014913702,-0.046871635999999994,-0.036218993,-28.02,30.42,23.1
1554107587694,0.18674773,-9.721058,-0.30226797,0.026631612000000002,-0.04261058,-0.033023197000000004,-28.02,30.48,23.1
1554107587715,0.13407529999999998,-9.577405,-0.21607670000000004,0.03195793,-0.040480047000000005,-0.034088463,-27.96,30.6,23.1
1554107587735,0.19632454,-9.634866,-0.27353755,0.017044231,-0.020240024,-0.035153727999999995,-27.9,30.66,23.1
1554107587754,0.15801731,-9.668385,-0.43634325,0.0031957934000000003,-0.004261058,-0.03834952,-27.84,30.72,23.1
1554107587774,0.21068975,-9.6923275,-0.30705637,-0.004261058,0.014913702,-0.041545313,-27.78,30.78,23.1
1554107587795,0.25378537,-9.6923275,-0.3645172,-0.010652645,0.02876214,-0.03834952,-27.72,30.84,23.1
1554107587815,0.12928689,-9.697116000000001,-0.16819267,-0.015978966,0.041545313,-0.033023197000000004,-27.66,30.84,23.1
1554107587835,0.076614454,-9.749788,-0.40282443,-0.011717908999999999,0.053263225,-0.036218993,-27.66,30.78,23.1
1554107587854,0.095768064,-9.663596,-0.27832595,-0.008522116,0.04580637,-0.04261058,-27.66,30.72,23.1
1554107587875,0.090979666,-9.768942,-0.27353755,-0.013848438000000001,0.04474111,-0.04474111,-27.66,30.66,23.16
1554107587895,0.12928689,-9.792883999999999,-0.08200141,-0.02130529,0.051132694000000006,-0.035153727999999995,-27.66,30.66,23.16
1554107587914,0.1388637,-9.740211500000001,-0.0724246,-0.013848438000000001,0.05006743,-0.03089267,-27.66,30.66,23.16
1554107587935,0.08140286,-9.936536,-0.16340427,-0.0010652645,0.056459017,-0.023435817999999997,-27.66,30.6,23.1
1554107587955,-0.019153614,-9.903017,-0.19692309,0.008522116,0.05752428,-0.018109497,-27.66,30.6,23.04
1554107587975,0.05746084,-9.812037,-0.25438392,-0.0010652645,0.07030745599999999,-0.015978966,-27.78,30.6,22.98
1554107587994,0.07182605,-9.850344999999999,-0.12988544,-0.026631612000000002,0.06711166,-0.010652645,-27.84,30.6,22.92
1554107588015,0.04309563,-9.936536,-0.36930559999999996,-0.025566347000000003,0.06604639400000001,-0.00958738,-27.96,30.66,22.86
1554107588035,0.090979666,-9.835979,-0.31663316,-0.013848438000000001,0.06178534,-0.007456851,-28.08,30.66,22.8
1554107588055,0.019153614,-9.663596,-0.32142156,-0.035153727999999995,0.05219796,-0.0063915867,-28.26,30.6,22.8
1554107588075,0.07182605,-9.845556,-0.27832595,-0.06178534,0.039414786,-0.014913702,-28.38,30.54,22.74
1554107588095,0.02873042,-9.7641535,-0.29747957,-0.04261058,0.02876214,-0.025566347000000003,-28.5,30.54,22.74
1554107588115,0.0,-9.677961,-0.38367084,-0.004261058,0.012783173500000002,-0.03089267,-28.62,30.48,22.74
1554107588135,0.11492168,-9.668385,-0.36930559999999996,0.0053263223,-0.0063915867,-0.037284255,-28.74,30.42,22.74
1554107588155,0.06703765,-9.658808,-0.39803603,-0.007456851,-0.024501082,-0.040480047000000005,-28.8,30.42,22.74
1554107588175,0.10534488,-9.725846,-0.38367084,-0.020240024,-0.037284255,-0.040480047000000005,-28.86,30.36,22.74
1554107588195,0.04309563,-9.821614,-0.4890157,-0.020240024,-0.040480047000000005,-0.035153727999999995,-28.86,30.36,22.68
1554107588214,-0.01436521,-9.673173,-0.5033809,-0.004261058,-0.034088463,-0.03834952,-28.86,30.36,22.68
1554107588235,0.11492168,-9.677961,-0.3645172,-0.010652645,-0.034088463,-0.041545313,-28.8,30.36,22.68
1554107588254,0.090979666,-9.735422999999999,-0.3309984,-0.033023197000000004,-0.035153727999999995,-0.03834952,-28.8,30.42,22.68
1554107588274,0.076614454,-9.721058,-0.3357868,-0.046871635999999994,-0.033023197000000004,-0.034088463,-28.8,30.42,22.74
1554107588295,0.076614454,-9.826402999999999,-0.42676646,-0.033023197000000004,-0.03195793,-0.036218993,-28.8,30.48,22.74
1554107588314,0.076614454,-9.869498,-0.40761283,-0.03089267,-0.040480047000000005,-0.03089267,-28.8,30.48,22.74
1554107588335,0.08140286,-9.845556,-0.21607670000000004,-0.023435817999999997,-0.03834952,-0.03089267,-28.8,30.48,22.74
1554107588354,0.1388637,-9.86471,-0.3453636,-0.017044231,-0.04474111,-0.029827405,-28.8,30.48,22.74
1554107588375,0.12449849,-9.850344999999999,-0.350152,-0.018109497,-0.041545313,-0.025566347000000003,-28.74,30.48,22.74
1554107588395,0.07182605,-9.711481,-0.23523031,-0.00958738,-0.039414786,-0.024501082,-28.74,30.48,22.74
1554107588415,0.033518825,-9.77373,-0.19213470000000002,-0.002130529,-0.033023197000000004,-0.022370555,-28.74,30.48,22.74
1554107588434,0.06703765,-9.77373,-0.28311434,0.0,-0.027696876000000002,-0.02130529,-28.74,30.48,22.74
1554107588455,0.08619126,-9.639654,-0.41240123,0.0053263223,-0.023435817999999997,-0.025566347000000003,-28.74,30.42,22.74
1554107588475,0.12449849,-9.6923275,-0.27832595,-0.0063915867,-0.015978966,-0.02876214,-28.68,30.42,22.74
1554107588494,0.095768064,-9.706693,-0.19213470000000002,-0.020240024,-0.010652645,-0.034088463,-28.62,30.42,22.74
1554107588514,0.11971009,-9.759364999999999,-0.41240123,-0.024501082,-0.010652645,-0.036218993,-28.56,30.48,22.74
1554107588534,0.090979666,-9.812037,-0.29747957,-0.011717908999999999,-0.008522116,-0.039414786,-28.44,30.48,22.74
1554107588555,0.08140286,-9.816825999999999,-0.32621,-0.0031957934000000003,-0.010652645,-0.037284255,-28.38,30.48,22.74
1554107588575,0.12928689,-9.797672,-0.43155485,-0.0063915867,-0.011717908999999999,-0.033023197000000004,-28.32,30.54,22.74
1554107588595,-0.019153614,-9.77373,-0.46028528,-0.012783173500000002,-0.0053263223,-0.03195793,-28.2,30.54,22.8
1554107588615,0.05267244,-9.68275,-0.3597288,-0.01917476,0.0031957934000000003,-0.035153727999999995,-28.14,30.6,22.86
1554107588634,0.07182605,-9.749788,-0.46507367,-0.01917476,0.002130529,-0.037284255,-28.08,30.6,22.92
1554107588654,0.047884032,-9.749788,-0.42676646,-0.023435817999999997,0.004261058,-0.03834952,-28.08,30.6,22.98
1554107588675,0.16280572,-9.850344999999999,-0.31663316,-0.02876214,0.008522116,-0.03834952,-28.08,30.6,23.04
1554107588696,0.062249242999999996,-9.754577000000001,-0.31663316,-0.024501082,0.013848438000000001,-0.033023197000000004,-28.08,30.6,23.1
1554107588714,-0.062249242999999996,-9.850344999999999,-0.23044191,-0.014913702,0.017044231,-0.029827405,-28.08,30.6,23.16
1554107588734,-0.05267244,-9.807249,-0.26874915,-0.010652645,0.027696876000000002,-0.018109497,-28.08,30.54,23.22
1554107588756,0.038307227,-9.86471,-0.18255788,-0.015978966,0.053263225,-0.0031957934000000003,-28.08,30.54,23.22
1554107588775,0.047884032,-9.917382,-0.16340427,-0.013848438000000001,0.07243799,0.011717908999999999,-28.08,30.54,23.22
1554107588795,-0.05267244,-9.989208,-0.23523031,0.002130529,0.08735169,0.03089267,-28.14,30.48,23.22
1554107588814,0.019153614,-9.993997,-0.374094,0.025566347000000003,0.094808534,0.03834952,-28.14,30.48,23.22
1554107588834,-0.14844051,-9.888652,-0.38367084,0.07137272,0.08948222,0.041545313,-28.14,30.48,23.22
1554107588855,0.02873042,-9.874286999999999,-0.35494040000000004,0.06604639400000001,0.08948222,0.053263225,-28.14,30.48,23.28
1554107588874,-0.1436521,-9.845556,-0.5177461,0.034088463,0.08628642,0.056459017,-28.08,30.48,23.28
1554107588894,-0.12928689,-9.840767999999999,-0.374094,0.018109497,0.07989483,0.06498113,-28.08,30.48,23.28
1554107588914,-0.090979666,-9.993997,-0.44113165,0.027696876000000002,0.07669904,0.07137272,-28.02,30.48,23.28
1554107588934,-0.12928689,-10.137649,-0.40761283,0.06285059999999999,0.06924219,0.07563378,-27.96,30.48,23.28
1554107588955,-0.10055647,-10.22384,-0.28311434,0.14913702,0.058589544,0.099069595,-27.96,30.48,23.34
1554107588975,-0.25857377,-10.219051,-0.27353755,0.19813919,0.05219796,0.13102753,-27.9,30.48,23.28
1554107588995,-0.35434186,-10.34355,-0.38367084,0.20240025,0.04261058,0.16724652,-27.9,30.54,23.28
1554107589014,-0.40701428,-10.324396,-0.19692309,0.19920446,0.047936900000000005,0.19920446,-27.9,30.54,23.28
1554107589035,-0.50278234,-10.410587,-0.25917232,0.21518342,0.049002163,0.23329292,-27.9,30.6,23.28
1554107589054,-0.5746084,-10.525509,0.0041898529999999995,0.26738137,0.043675844000000005,0.28229508,-27.9,30.72,23.28
1554107589075,-0.7565677,-10.49199,0.09516951400000001,0.32384038,0.04580637,0.314253,-27.96,30.78,23.22
1554107589095,-0.8475474000000001,-10.405799,0.3681085,0.4644553,0.043675844000000005,0.39734364,-28.02,30.96,23.22
1554107589114,-0.8571242,-10.319608,0.15741876,0.53263223,0.037284255,0.43249738,-28.02,31.14,23.16
1554107589134,-0.92416185,-10.295666,0.28670564,0.5954828000000001,0.03834952,0.49321744,-28.02,31.32,23.1
1554107589155,-1.043872,-10.281301,0.3633201,0.6178534000000001,0.040480047000000005,0.5400891,-28.02,31.5,22.98
1554107589174,-1.1204863999999999,-10.290877,0.52133745,0.6306366,0.049002163,0.5837649,-27.96,31.86,22.86
1554107589195,-1.1731589,-10.271724,0.6314706999999999,0.63915867,0.04474111,0.6306366,-27.9,32.28,22.56
1554107589214,-1.3790601,-10.056246,1.062427,0.67005134,0.037284255,0.67963874,-27.78,32.7,22.26
1554107589235,-1.5562311000000002,-10.008362,0.95229375,0.7126619000000001,0.029827405,0.7105314,-27.66,33.24,21.9
1554107589255,-1.685518,-10.046669,1.2539631000000002,0.74461985,0.017044231,0.7488809000000001,-27.42,33.78,21.6
1554107589274,-1.7381904,-10.166379,1.335366,0.81066626,0.008522116,0.7776430000000001,-27.18,34.44,21.24
1554107589294,-1.9680338,-9.907805,1.3784616000000003,0.8809737,0.0053263223,0.8000136,-26.88,35.16,20.88
1554107589314,-2.111686,-9.797672,1.7232267,0.92464954,-0.002130529,0.8319715,-26.58,35.94,20.52
1554107589335,-2.2122424,-9.754577000000001,1.7902644,0.9502159,-0.007456851,0.8681905000000001,-26.22,36.66,20.22
1554107589355,-2.4708161,-9.701903999999999,1.8142063999999998,0.95234644,-0.004261058,0.9139969000000001,-25.86,37.32,19.92
1554107589375,-2.6862943,-9.586982,1.9722236000000002,0.8969527,0.0010652645,0.9672601000000001,-25.44,38.1,19.62
1554107589395,-2.7868507,-9.548675,2.331354,0.8873653,0.014913702,1.010936,-24.9,39.0,19.26
1554107589416,-2.9352913,-9.476849000000001,2.331354,0.9235843,0.022370555,1.0503508,-24.42,39.84,18.84
1554107589435,-3.145981,-9.328408,2.3505075,0.96086854,0.034088463,1.0982877,-23.82,40.62,18.48
1554107589455,-3.265691,-9.299678,2.6138697,1.010936,0.033023197000000004,1.1313108,-23.28,41.46,18.12
1554107589474,-3.5003227999999997,-9.247005,2.484583,1.0396981,0.034088463,1.1856394,-22.8,42.24,17.64
1554107589495,-3.7876269999999996,-9.012374000000001,2.9442697,1.019458,0.025566347000000003,1.2580773,-22.14,43.02,17.22
1554107589515,-4.0078936,-8.892664,3.1022868,1.0258497,0.029827405,1.3060142,-21.48,43.86,16.8
1554107589535,-4.213794999999999,-8.658031,3.3512837999999996,1.0183928,0.04261058,1.3763216999999999,-20.88,44.64,16.44
1554107589558,-4.390966000000001,-8.552686999999999,3.3273417999999997,1.0407634,0.04474111,1.4391723,-20.22,45.3,15.9
1554107589574,-4.7261543,-8.198345,3.4757824,1.0343717,0.054328485999999995,1.4998924,-19.5,45.96,15.3
1554107589594,-4.9895163,-7.9541364,3.5045127999999997,0.99495703,0.056459017,1.5616777,-18.78,46.56,14.58
1554107589614,-5.1235914000000005,-7.4896617,3.8397010000000003,0.9619338,0.06711166,1.6405072,-17.34,47.34,13.62
1554107589634,-5.363012,-7.3124905,3.9833531000000004,0.99069595,0.07030745599999999,1.6927053,-16.32,47.76,12.96
1554107589654,-5.449203,-7.0347633,4.2610803,1.139833,0.06285059999999999,1.7310548,-15.42,48.18,12.36
1554107589674,-5.449203,-6.417059,4.3760023,1.325189,0.056459017,1.7417074000000001,-14.34,48.48,11.76
1554107589695,-5.7365074,-5.9238534000000005,4.2371383,1.4796523000000001,0.06391586,1.7353158,-13.26,48.78,11.1
1554107589714,-5.750872599999999,-5.253476999999999,4.3903675,1.5638082,0.07669904,1.743838,-12.18,48.96,10.44
1554107589735,-5.90889,-4.7363295999999995,4.4957123,1.6490293999999999,0.08628642,1.6852484,-11.16,49.2,9.84
1554107589754,-5.961562000000001,-4.228758999999999,4.672883000000001,1.6415724999999999,0.10759171,1.6618125,-10.26,49.38,9.12
1554107589775,-6.019023000000001,-3.5488055,4.409521,1.5701998,0.11930962,1.5968314,-9.3,49.5,8.4
1554107589795,-6.1866174,-3.1848867000000003,4.481347,1.4125406999999999,0.13315806,1.5201323999999998,-8.22,49.62,7.44
1554107589814,-6.4404025,-2.7587189999999997,4.6393642,1.2346416,0.13422333,1.4476944,-7.14,49.68,6.54
1554107589834,-6.4739213,-2.4426842,4.7303440000000005,1.0727214,0.14274544,1.3624732,-6.24,49.68,5.58
1554107589854,-6.5122285,-1.963844,4.8787847,0.87990844,0.14061491,1.2697952,-5.28,49.56,4.74
1554107589875,-6.588842999999999,-1.738789,4.9506106,0.6828345,0.13209279,1.171791,-4.44,49.38,4.08
1554107589895,-6.708553299999999,-1.5185224,5.0559554,0.54435015,0.11930962,1.0546118,-3.48,48.96,3.48
1554107589914,-6.7277070000000005,-1.3461398999999998,5.1086279999999995,0.5187838,0.1107875,0.99495703,-3.06,48.78,3.18
1554107589935,-6.95755,-1.3844471,5.285799,0.4878911,0.09267801,0.83516735,-1.92,48.24,2.28
1554107589955,-7.1586633,-1.2312181999999998,5.0320134,0.44315,0.07882957,0.7275756,-1.38,47.88,1.74
1554107589974,-7.2065472999999995,-1.2934675,4.979341000000001,0.3568636,0.07882957,0.63915867,-0.78,47.46,1.26
1554107589994,-7.431602000000001,-1.1833341999999998,5.348048,0.21944448,0.099069595,0.5592638000000001,-0.18,47.1,0.84
1554107590015,-7.551311999999999,-1.1258733,5.391144000000001,0.16724652,0.08948222,0.51026165,0.66,46.62,0.48
1554107590035,-7.6518690000000005,-1.2455834,5.482123400000001,0.13102753,0.09267801,0.47936899999999993,1.32,46.14,0.12
1554107590054,-7.5034279999999995,-1.1019313,5.61141,0.111852765,0.07882957,0.45806372,1.86,45.9,-0.18
1554107590074,-7.493850999999999,-0.97743285,5.137358,0.18002969,0.07030745599999999,0.41545314,2.46,45.66,-0.36
1554107590094,-7.517792999999999,-0.88645315,5.257068,0.22583607,0.06924219,0.34727620000000003,2.94,45.36,-0.48
1554107590115,-7.5800424,-0.7044938000000001,5.5922565,0.25885928,0.056459017,0.30253512,3.36,45.06,-0.48
1554107590135,-7.723694999999999,-0.56563014,5.4102974,0.23435818,0.049002163,0.25566345,3.72,44.76,-0.54
1554107590155,-7.7428484,-0.82899237,5.486912,0.14807177,0.047936900000000005,0.221575,3.96,44.4,-0.6
1554107590175,-7.6710224,-0.9295488000000001,5.429451,0.13422333,0.033023197000000004,0.18535602,4.02,44.22,-0.66
1554107590194,-7.785944000000001,-0.87687635,5.391144000000001,0.13848437,0.022370555,0.16937704,4.02,43.92,-0.72
1554107590215,-7.7907324000000004,-0.84814596,5.237914599999999,0.2034655,0.0063915867,0.14913702,4.08,43.56,-0.78
1554107590235,-7.632714999999999,-0.86729956,5.2474914,0.19174760000000002,0.0,0.14594123,4.14,43.44,-0.78
1554107590254,-7.603985000000001,-0.7954735,5.4390279999999995,0.14913702,-0.004261058,0.15020229,4.2,43.2,-0.9
1554107590275,-7.1826053,-0.27832595,5.295376,0.20879184,0.0031957934000000003,0.12357068,4.32,43.02,-1.02
1554107590294,-7.28795,0.22924481,5.194819,0.2908172,-0.014913702,0.037284255,4.38,42.84,-1.08
1554107590314,-7.5704656,0.15741876,4.979341000000001,0.2130529,-0.02130529,-0.049002163,4.44,42.72,-1.2
1554107590335,-7.7428484,-0.41718966,5.194819,-0.043675844000000005,-0.046871635999999994,-0.07243799,4.56,42.66,-1.26
1554107590354,-7.704541000000001,-0.9056068000000002,5.348048,-0.19387813,-0.058589544,-0.07030745599999999,4.62,42.6,-1.38
1554107590375,-7.642291999999999,-1.0540473,5.5204306,-0.12463594,-0.06711166,-0.053263225,4.68,42.54,-1.44
1554107590395,-7.7811556,-0.9056068000000002,5.1613,-0.02876214,-0.096939065,-0.03834952,4.74,42.54,-1.5
1554107590415,-7.728483,-0.6374562,4.9984946,-0.047936900000000005,-0.09587380000000001,-0.020240024,4.74,42.48,-1.56
1554107590435,-7.6518690000000005,-0.25917232,5.587468,-0.15659387,-0.051132694000000006,-0.02130529,4.74,42.48,-1.62
1554107590455,-7.522581599999999,-0.54168814,5.544372599999999,-0.12144015,-0.06178534,-0.06285059999999999,4.74,42.42,-1.62
1554107590475,-7.5561004,-0.55605334,5.4055089999999995,-0.13635385,-0.06604639400000001,-0.06285059999999999,4.74,42.42,-1.62
1554107590494,-7.350199000000001,-0.010175358,5.6497173,-0.10972224,-0.06498113,-0.11504856,4.74,42.36,-1.62
1554107590514,-7.747636999999999,0.31543607,5.228338,-0.13315806,-0.046871635999999994,-0.2034655,4.74,42.36,-1.62
1554107590535,-7.5082164,-0.64703304,5.194819,-0.39840892,-0.026631612000000002,-0.26844665,4.74,42.36,-1.62
1554107590555,-7.656657000000001,-1.2791021999999999,5.194819,-0.47936899999999993,-0.035153727999999995,-0.2727077,4.74,42.36,-1.62
1554107590574,-7.4124484,-0.97743285,5.3288946,-0.51665324,-0.053263225,-0.22796659,4.68,42.36,-1.62
1554107590594,-7.053317999999999,-0.32621,4.8787847,-0.660464,-0.058589544,-0.28442562,4.68,42.36,-1.56
1554107590615,-6.732495299999999,-0.5847838000000001,4.8500543,-0.8277104999999999,-0.060720075,-0.386691,4.62,42.42,-1.5
1554107590635,-6.670246000000001,-0.97743285,5.333683000000001,-0.9598033000000001,-0.07243799,-0.49321744,4.56,42.48,-1.26
1554107590655,-6.540959,-1.1258733,5.3288946,-0.9502159,-0.09054748,-0.63702816,4.5,42.54,-0.96
1554107590675,-6.1866174,-1.2312181999999998,5.1038394,-0.90654004,-0.12996227,-0.77870834,4.44,42.6,-0.6
1554107590694,-5.975927400000001,-1.3078326999999998,4.648941000000001,-0.8404937,-0.19281286,-0.9502159,4.32,42.66,-0.3
1554107590715,-5.7029886,-1.4993688,4.4765587,-0.83516735,-0.27803403,-1.144094,4.08,42.84,0.06
1554107590738,-5.664681400000001,-1.8154035,4.577115,-0.8948221,-0.3717773,-1.3379722,3.72,43.02,0.48
1554107590755,-5.4396260000000005,-2.0069396,4.6393642,-0.9321064,-0.45273739999999996,-1.5393071000000003,3.36,43.38,0.9
1554107590774,-5.1235914000000005,-2.3038206000000003,4.553173,-0.8767126000000001,-0.5273059,-1.7672738000000001,2.94,43.74,1.32
1554107590794,-4.841076,-2.677316,4.3760023,-0.813862,-0.60507023,-2.001632,2.46,44.16,1.68
1554107590815,-4.711789,-2.8832173,4.064756,-0.9139969000000001,-0.680704,-2.2072279999999997,1.86,44.76,1.98
1554107590834,-4.280833,-3.2423477000000003,3.4087446000000003,-1.2634037,-0.7318366999999999,-2.3798008,1.14,45.42,2.28
1554107590854,-3.9073372,-3.8504747999999998,3.1932666000000003,-1.7449032,-0.73822826,-2.5427864,0.3,46.26,2.58
1554107590875,-3.6296098,-5.0332108,3.044826,-2.2168152,-0.7254451,-2.7920582,-0.66,47.1,2.94
1554107590895,-3.3806129,-6.819285000000001,2.9442697,-2.4841967,-0.69668293,-2.9060414,-1.62,47.94,3.36
1554107590914,-2.906561,-7.5471225,3.2076318,-2.808037,-0.60293967,-2.8751488,-2.64,48.66,3.9
1554107590934,-2.7006595,-7.944559599999999,2.5611973,-2.9742184,-0.49428272,-2.851713,-3.84,49.32,4.5
1554107590955,-2.705448,-8.322844,1.8716671000000003,-3.4301515,-0.3270362,-2.9358687000000003,-5.16,49.92,5.28
1554107590975,-2.2744915,-9.491214,1.7280151000000001,-4.020308,-0.17044231,-2.9113677000000004,-6.78,50.22,6.54
1554107590994,-1.8770541,-11.018715,1.5556326,-4.3196473,0.03089267,-2.7643614,-8.52,50.28,7.98
1554107591015,-1.5849615,-12.225392,1.2731166999999999,-4.0852889999999995,0.22583607,-2.666357,-10.26,49.68,9.66
1554107591035,-1.7717092,-13.015479,0.6841431,-3.5931370000000005,0.35260254,-2.5928538,-11.94,48.72,11.52
1554107591055,-1.7525556,-13.317148000000001,-0.091578215,-3.3172336000000002,0.44208476,-2.3584955,-13.62,47.28,13.5
1554107591075,-1.5179238000000002,-13.173495999999998,-0.74758947,-3.2192292,0.4857606,-2.0666130000000003,-15.24,45.48,15.54
1554107591094,-1.4796166000000002,-13.044209500000001,-0.9343372,-2.992328,0.4708469,-1.865278,-16.8,43.32,17.52
1554107591116,-1.2593501,-13.398551000000001,-1.3174095,-2.5257419999999997,0.41225734,-1.6618125,-18.3,40.74,19.38
1554107591135,-1.2976573999999998,-13.657125,-1.6286557,-2.0080235,0.3270362,-1.417867,-19.68,37.92,20.82
1554107591154,-1.4030021000000001,-13.676279000000001,-1.5616181,-1.5158713,0.19813919,-1.1526161,-20.88,34.86,22.14
1554107591174,-1.5275006000000002,-13.149554,-1.8393455,-0.99282646,0.058589544,-0.9150621999999999,-21.84,32.16,23.28
1554107591195,-1.5275006000000002,-12.3834095,-2.212841,-0.5784385999999999,-0.06178534,-0.7073356,-22.68,29.58,24.24
1554107591214,-1.5514427,-11.770494,-2.0931308,-0.36005938,-0.17576863,-0.49428272,-23.46,27.42,24.96
1554107591234,-1.3694833999999998,-11.425728999999999,-1.8393455,-0.23009712,-0.2609898,-0.31212249999999997,-24.12,25.5,25.44
1554107591255,-1.1300632,-11.253346,-1.5807717,-0.07030745599999999,-0.3323625,-0.15126756,-24.66,23.82,25.86
1554107591276,-0.8331822,-10.664372,-1.5999253,0.113983296,-0.39734364,-0.07350325,-25.08,22.62,26.22
1554107591294,-0.79966336,-10.34355,-1.7818846999999998,0.25885928,-0.4261058,0.025566347000000003,-25.2,21.72,26.46
1554107591315,-0.6368576,-9.89344,-2.03567,0.3717773,-0.44208476,0.12357068,-25.32,21.18,26.58
1554107591335,-0.46926352,-9.835979,-2.0404584,0.46552056,-0.44315,0.18322548,-25.38,20.76,26.58
1554107591355,-0.20590134,-9.716269500000001,-2.0404584,0.53795856,-0.4282363,0.22903186,-25.26,20.46,26.58
1554107591375,-0.19153613,-9.701903999999999,-2.1027076,0.5635249,-0.41864893,0.23542345,-25.2,20.4,26.58
1554107591394,-0.15801731,-9.505579,-2.2224178,0.50600064,-0.37071204,0.23648871,-24.96,20.64,26.52
1554107591414,0.19632454,-9.376292,-2.2703017999999995,0.38882150000000004,-0.36005938,0.23542345,-24.72,20.94,26.52
1554107591435,0.26336220000000005,-9.405023,-2.2750902,0.23116238,-0.34621096,0.21092236,-24.48,21.3,26.52
1554107591455,0.31124622,-9.409811,-2.1984756,0.07243799,-0.32384038,0.19600865,-24.18,21.72,26.52
1554107591474,0.36391866,-9.519944,-2.356493,-0.013848438000000001,-0.29933932,0.19387813,-23.82,22.26,26.58
1554107591495,0.32561144,-9.654019,-2.1505916000000003,-0.10546118,-0.28655612,0.17257284,-23.4,22.8,26.58
1554107591515,0.46926352,-9.625289,-1.9494787,-0.096939065,-0.27590349999999997,0.14807177,-23.1,23.34,26.58
1554107591534,0.41180268,-9.486425,-2.0548236,-0.058589544,-0.25992453,0.11930962,-22.86,23.76,26.58
1554107591554,0.4213795,-9.491214,-2.0931308,-0.041545313,-0.25246766,0.094808534,-22.74,23.94,26.58
1554107591574,0.46447513,-9.381081,-2.1170728,-0.06178534,-0.24607609,0.056459017,-22.32,24.24,26.58
1554107591594,0.39264908,-9.299678,-1.8154035,-0.058589544,-0.23329292,0.014913702,-22.02,24.42,26.64
1554107591614,0.23942018,-9.242217,-1.7435773999999997,-0.039414786,-0.20879184,-0.036218993,-21.78,24.48,26.64
1554107591636,0.16759412,-9.381081,-1.8776526000000002,-0.035153727999999995,-0.18002969,-0.09161274,-21.66,24.54,26.64
1554107591655,0.023942016,-9.357139,-1.7244238,-0.082025364,-0.15020229,-0.11824436,-21.54,24.54,26.7
1554107591675,-0.090979666,-9.433753,-1.6573862000000001,-0.14168017,-0.1107875,-0.15552860000000002,-21.42,24.54,26.7
1554107591694,-0.30166942,-9.438541,-1.6813281999999998,-0.20133498,-0.07456851,-0.19707392,-21.36,24.54,26.76
1554107591714,-0.2825158,-9.649231,-1.8489223000000001,-0.25246766,-0.056459017,-0.20559604,-21.3,24.48,26.82
1554107591735,-0.4165911,-9.792883999999999,-1.8106151000000001,-0.29614353,-0.03834952,-0.18535602,-21.24,24.36,26.88
1554107591755,-0.32561144,-9.768942,-1.8584990000000001,-0.33662358,-0.022370555,-0.15446335,-21.18,24.24,27.0
1554107591774,-0.44532153,-9.874286999999999,-1.882441,-0.33129725,-0.01917476,-0.10865697,-21.18,24.18,27.06
1554107591794,-0.4405331,-9.960478,-1.9542671000000003,-0.23648871,-0.026631612000000002,-0.049002163,-21.18,24.06,27.18
1554107591815,-0.4261679,-10.032304,-2.0500352,-0.11930962,-0.034088463,0.0053263223,-21.12,24.0,27.24
1554107591834,-0.4165911,-9.768942,-2.0165164,0.007456851,-0.041545313,0.05006743,-21.06,23.82,27.36
1554107591855,-0.5746084,-9.601347,-2.131438,0.08735169,-0.047936900000000005,0.08841695,-21.0,23.7,27.42
1554107591874,-0.59855044,-9.577405,-2.0644004000000002,0.098004326,-0.04474111,0.12783173,-20.94,23.64,27.48
1554107591895,-0.6560113000000001,-9.371504,-2.2176294,0.07563378,-0.03089267,0.13954964,-20.88,23.52,27.54
1554107591915,-0.6464345,-9.424176,-2.2463598,0.04474111,-0.007456851,0.15978967,-20.76,23.4,27.54
1554107591935,-0.5650316,-9.419388,-2.404377,0.013848438000000001,0.00958738,0.17789917,-20.7,23.28,27.54
1554107591955,-0.6464345,-9.419388,-2.4235306,-0.00958738,0.03195793,0.18322548,-20.58,23.16,27.54
1554107591975,-0.62728083,-9.505579,-2.2703017999999995,-0.041545313,0.049002163,0.1949434,-20.46,23.04,27.54
1554107591994,-0.60333884,-9.366715,-2.3181857999999997,-0.06178534,0.05965481,0.20240025,-20.4,22.98,27.48
1554107592015,-0.5602431999999999,-9.428965,-2.3708582000000002,-0.07776430000000001,0.058589544,0.2130529,-20.28,22.86,27.42
1554107592035,-0.61291564,-9.414599,-2.509722,-0.08628642,0.05539375,0.21411815,-20.22,22.8,27.36
1554107592055,-0.6607997,-9.376292,-2.3995886000000004,-0.09267801,0.043675844000000005,0.20559604,-20.16,22.8,27.24
1554107592075,-0.58418524,-9.481637,-2.509722,-0.10652645,0.033023197000000004,0.19813919,-20.1,22.74,27.18
1554107592095,-0.5554548,-9.448118,-2.5671828,-0.12250541,0.014913702,0.1768339,-20.1,22.74,27.12
1554107592114,-0.5506664000000001,-9.548675,-2.5288756,-0.12996227,-0.008522116,0.15126756,-20.1,22.62,27.06
1554107592135,-0.48841715,-9.668385,-2.533664,-0.12357068,-0.03195793,0.12037488,-20.16,22.5,26.94
1554107592154,-0.48841715,-9.654019,-2.5623944,-0.12357068,-0.060720075,0.08948222,-20.22,22.38,26.94
1554107592174,-0.38307226,-9.835979,-2.6581624,-0.10865697,-0.08735169,0.05219796,-20.28,22.26,26.94
1554107592194,-0.32561144,-9.816825999999999,-2.4570496,-0.09161274,-0.10972224,0.01917476,-20.34,22.02,27.06
1554107592214,-0.4309563,-9.668385,-2.4474726,-0.06711166,-0.12250541,-0.012783173500000002,-20.34,21.9,27.06
1554107592234,-0.40222588,-9.586982,-2.4091654,-0.05539375,-0.12996227,-0.041545313,-20.34,21.78,27.12
1554107592254,-0.47884035,-9.424176,-2.3277626000000002,-0.06604639400000001,-0.12357068,-0.060720075,-20.28,21.66,27.18
1554107592275,-0.5506664000000001,-9.342773,-2.4522612,-0.07882957,-0.11824436,-0.080960095,-20.16,21.6,27.24
1554107592294,-0.7469909,-9.213486999999999,-2.308609,-0.099069595,-0.113983296,-0.10972224,-19.98,21.54,27.36
1554107592315,-0.92895025,-9.275736,-2.3995886000000004,-0.12144015,-0.101200126,-0.12250541,-19.8,21.48,27.42
1554107592335,-0.93852705,-9.280524,-2.2703017999999995,-0.13635385,-0.098004326,-0.12570119999999999,-19.74,21.42,27.42
1554107592355,-1.1923125,-9.534309,-2.1936872000000003,-0.14913702,-0.07989483,-0.12144015,-19.56,21.36,27.42
1554107592375,-1.0726023999999998,-9.577405,-2.3277626000000002,-0.1438107,-0.06285059999999999,-0.112918034,-19.44,21.3,27.42
1554107592395,-1.0247183000000002,-9.716269500000001,-2.5145104,-0.14487597,-0.046871635999999994,-0.09161274,-19.38,21.24,27.48
1554107592415,-1.0007763,-9.816825999999999,-2.9119477000000002,-0.15339808,-0.03089267,-0.06498113,-19.32,21.12,27.48
1554107592434,-1.0199299000000002,-9.917382,-2.9071592999999996,-0.16831179,-0.022370555,-0.029827405,-19.32,21.06,27.54
1554107592454,-0.9720459000000001,-9.855133,-2.878429,-0.15020229,-0.013848438000000001,0.002130529,-19.32,20.94,27.54
1554107592475,-0.9576806999999999,-9.730635000000001,-2.806603,-0.11504856,-0.012783173500000002,0.035153727999999995,-19.32,20.88,27.6
1554107592494,-0.9768343,-9.701903999999999,-2.8209682000000003,-0.06604639400000001,-0.013848438000000001,0.06285059999999999,-19.32,20.82,27.6
1554107592517,-0.8762778,-9.567828,-2.926313,0.008522116,-0.024501082,0.083090626,-19.32,20.76,27.66
1554107592535,-1.0055646999999999,-9.500791,-2.878429,0.03195793,-0.034088463,0.080960095,-19.32,20.7,27.78
1554107592555,-0.94810385,-9.491214,-2.8592752999999997,0.02876214,-0.04580637,0.06924219,-19.26,20.64,27.96
1554107592575,-0.90979666,-9.35235,-2.9837740000000004,-0.004261058,-0.05752428,0.051132694000000006,-19.32,20.58,28.08
1554107592595,-0.9720459000000001,-9.405023,-2.8496985,-0.0053263223,-0.07030745599999999,0.029827405,-19.32,20.52,28.2
1554107592615,-0.89543146,-9.405023,-2.8161798,-0.0010652645,-0.07456851,0.010652645,-19.32,20.46,28.26
1554107592635,-0.8762778,-9.428965,-2.8113914,-0.00958738,-0.07456851,-0.0010652645,-19.32,20.34,28.38
1554107592654,-0.7565677,-9.357139,-2.8161798,-0.023435817999999997,-0.06498113,-0.012783173500000002,-19.38,20.28,28.44
1554107592674,-0.89064306,-9.299678,-2.878429,-0.03089267,-0.049002163,-0.022370555,-19.32,20.22,28.44
1554107592695,-0.9624690999999999,-9.448118,-2.7443538,-0.05006743,-0.034088463,-0.026631612000000002,-19.32,20.22,28.44
1554107592715,-0.9672575000000001,-9.44333,-2.8496985,-0.054328485999999995,-0.015978966,-0.041545313,-19.32,20.22,28.38
1554107592735,-0.94810385,-9.448118,-2.6007016,-0.05539375,-0.00958738,-0.054328485999999995,-19.32,20.22,28.32
1554107592755,-1.0486604,-9.376292,-2.7970262000000004,-0.056459017,-0.002130529,-0.06285059999999999,-19.32,20.22,28.26
1554107592775,-1.0103531,-9.438541,-2.8832173,-0.06391586,0.002130529,-0.07030745599999999,-19.32,20.22,28.26
1554107592796,-1.0247183000000002,-9.467272,-2.8640637000000004,-0.05965481,-0.002130529,-0.083090626,-19.32,20.22,28.2
1554107592815,-1.0295067,-9.577405,-2.8209682000000003,-0.05539375,-0.012783173500000002,-0.08628642,-19.32,20.22,28.2
1554107592835,-1.0773908,-9.59177,-2.806603,-0.033023197000000004,-0.015978966,-0.09267801,-19.32,20.22,28.26
1554107592855,-1.0582372,-9.654019,-2.7970262000000004,-0.013848438000000001,-0.025566347000000003,-0.101200126,-19.32,20.22,28.2
1554107592875,-1.0486604,-9.639654,-2.60549,-0.007456851,-0.01917476,-0.09587380000000001,-19.26,20.16,28.2
1554107592895,-1.1300632,-9.883863,-2.581548,0.011717908999999999,0.0063915867,-0.08841695,-19.2,20.16,28.2
1554107592914,-1.2114661,-9.840767999999999,-2.5288756,0.02876214,0.049002163,-0.06178534,-19.14,20.1,28.2
1554107592934,-1.067814,-9.998785,-2.404377,0.05539375,0.08948222,-0.025566347000000003,-18.96,20.04,28.2
1554107592955,-1.1204863999999999,-9.965266,-2.2703017999999995,0.08522116,0.14807177,0.014913702,-18.78,19.98,28.2
1554107592974,-1.1444284,-9.931747,-2.2272062000000004,0.13954964,0.20559604,0.053263225,-18.66,19.92,28.14
1554107592995,-1.0103531,-9.855133,-2.1888987999999996,0.2066613,0.25353295,0.09161274,-18.54,19.8,28.02
1554107593015,-1.043872,-9.749788,-2.260725,0.26312032,0.29188246,0.12250541,-18.48,19.8,28.02
1554107593034,-0.9576806999999999,-9.524733,-2.4522612,0.27696875,0.31851408,0.1587244,-18.42,19.86,27.9
1554107593055,-0.9959879,-9.433753,-2.380435,0.2609898,0.3323625,0.17363810000000002,-18.48,20.04,27.84
1554107593075,-0.91458505,-9.366715,-2.5192987999999996,0.24714136,0.33555830000000003,0.17363810000000002,-18.6,20.22,27.78
1554107593094,-0.89543146,-9.165602999999999,-2.677316,0.2545982,0.3334278,0.1587244,-18.9,20.58,27.72
1554107593114,-0.92895025,-9.146449,-2.6821042999999998,0.2545982,0.330232,0.14274544,-19.02,20.7,27.66
1554107593135,-0.94331545,-9.0794115,-2.7587189999999997,0.22050974,0.314253,0.10652645,-19.26,21.12,27.72
1554107593155,-1.0151415000000001,-9.223063,-2.9741971,0.18216023,0.29507825,0.07243799,-19.5,21.36,27.72
1554107593176,-0.89543146,-9.242217,-2.9550436,0.16405073,0.26631612,0.03834952,-19.68,21.54,27.78
1554107593194,-0.89064306,-9.381081,-2.7587189999999997,0.15659387,0.23329292,0.012783173500000002,-19.86,21.54,27.78
1554107593215,-0.9624690999999999,-9.199121,-2.6198552000000004,0.17896444,0.221575,-0.00958738,-20.1,21.6,27.78
1554107593234,-1.0342950999999998,-9.088988,-2.782661,0.16937704,0.20453078,-0.025566347000000003,-20.22,21.6,27.78
1554107593254,-1.1061212,-9.160814,-2.7587189999999997,0.10759171,0.18642128,-0.027696876000000002,-20.34,21.66,27.72
1554107593275,-1.1252748,-9.242217,-2.677316,0.07030745599999999,0.16831179,-0.040480047000000005,-20.52,21.78,27.72
1554107593295,-1.0773908,-9.333197,-2.6725276,0.047936900000000005,0.165116,-0.039414786,-20.64,21.9,27.66
1554107593315,-1.2018893,-9.448118,-2.581548,0.03834952,0.16724652,-0.035153727999999995,-20.76,22.08,27.6
1554107593335,-1.3120226000000001,-9.452907000000002,-2.5623944,0.026631612000000002,0.17363810000000002,-0.026631612000000002,-20.82,22.26,27.54
1554107593354,-1.2880806,-9.467272,-2.60549,0.012783173500000002,0.18322548,-0.014913702,-20.94,22.44,27.48
1554107593375,-1.3263878,-9.438541,-2.7204118,-0.015978966,0.18429075,0.0053263223,-21.06,22.56,27.48
1554107593395,-1.2737153,-9.405023,-2.60549,-0.06391586,0.17363810000000002,0.023435817999999997,-21.24,22.74,27.48
1554107593418,-1.2976573999999998,-9.543886,-2.404377,-0.06604639400000001,0.16405073,0.03089267,-21.48,22.86,27.48
1554107593434,-1.3263878,-9.577405,-2.5049335999999998,-0.04474111,0.14061491,0.03834952,-21.72,22.92,27.48
1554107593455,-1.1683705,-9.462483,-2.5049335999999998,-0.041545313,0.11930962,0.04580637,-21.96,22.92,27.48
1554107593475,-1.2785037000000001,-9.419388,-2.3277626000000002,-0.040480047000000005,0.10333065,0.03834952,-22.2,22.86,27.48
1554107593495,-1.2401965,-9.333197,-2.3421277999999996,-0.036218993,0.08841695,0.026631612000000002,-22.38,22.74,27.42
1554107593514,-1.1875241,-9.366715,-2.3133974,-0.06285059999999999,0.07882957,0.02130529,-22.56,22.62,27.42
1554107593534,-1.1779473,-9.610924,-2.356493,-0.058589544,0.06498113,0.00958738,-22.68,22.5,27.36
1554107593555,-1.3120226000000001,-9.606135,-2.2990322,-0.014913702,0.05539375,0.007456851,-22.62,22.38,27.36
1554107593575,-1.2976573999999998,-9.577405,-2.3469162,0.04580637,0.029827405,-0.0031957934000000003,-22.62,22.26,27.3
1554107593594,-1.2880806,-9.740211500000001,-2.1410147999999998,0.13102753,0.007456851,0.007456851,-22.62,22.14,27.3
1554107593614,-1.340753,-9.711481,-2.15538,0.22370553,0.0063915867,0.022370555,-22.62,22.02,27.3
1554107593635,-1.4173675,-9.524733,-2.1888987999999996,0.28122982,-0.0053263223,0.020240024,-22.62,21.9,27.3
1554107593654,-1.6041151000000002,-9.649231,-2.284667,0.24394555,0.007456851,0.014913702,-22.62,21.84,27.36
1554107593676,-1.4030021000000001,-9.89344,-2.1936872000000003,0.13315806,0.013848438000000001,0.013848438000000001,-22.68,21.84,27.36
1554107593695,-1.2545617,-9.907805,-2.1601684,0.046871635999999994,0.02876214,0.018109497,-22.68,21.84,27.42
1554107593715,-1.3551182,-9.840767999999999,-2.1888987999999996,0.022370555,0.03195793,0.023435817999999997,-22.68,21.84,27.42
1554107593735,-1.2210428999999998,-9.620500999999999,-2.1649568,0.080960095,0.03089267,0.02876214,-22.68,21.84,27.48
1554107593755,-1.2018893,-9.711481,-2.083554,0.19707392,0.03195793,0.03834952,-22.74,21.9,27.48
1554107593774,-1.2593501,-9.519944,-2.0979192,0.2972088,0.047936900000000005,0.051132694000000006,-22.74,22.02,27.48
1554107593794,-1.3551182,-9.381081,-2.1697452,0.35792887,0.056459017,0.037284255,-22.74,22.26,27.36
1554107593815,-1.3359646,-9.261371,-2.203264,0.34301516,0.07456851,0.012783173500000002,-22.68,22.56,27.3
1554107593835,-1.3072342,-9.160814,-2.2511482000000003,0.26525086,0.08735169,-0.0010652645,-22.68,22.92,27.18
1554107593854,-1.2976573999999998,-9.132083999999999,-2.2080526000000003,0.17576863,0.082025364,-0.00958738,-22.68,23.34,27.12
1554107593875,-1.3694833999999998,-9.199121,-2.308609,0.060720075,0.07243799,0.008522116,-22.68,23.7,27.0
1554107593894,-1.3455413999999999,-9.44333,-2.0452468,-0.04261058,0.07030745599999999,0.00958738,-22.68,24.06,26.88
1554107593915,-1.3982137,-9.654019,-1.9351135,-0.051132694000000006,0.053263225,-0.008522116,-22.68,24.36,26.82
1554107593934,-1.4030021000000001,-9.625289,-1.9303252,0.015978966,0.051132694000000006,-0.020240024,-22.74,24.66,26.76
1554107593955,-1.2497733,-9.59177,-1.9829974999999997,0.06285059999999999,0.041545313,-0.020240024,-22.74,24.78,26.82
1554107593976,-1.2354081000000001,-9.716269500000001,-1.9829974999999997,0.054328485999999995,0.039414786,-0.015978966,-22.74,24.9,26.82
1554107593995,-1.1683705,-9.855133,-1.8872293999999998,0.027696876000000002,0.022370555,0.010652645,-22.74,24.84,26.88
1554107594015,-1.1348516000000002,-9.759364999999999,-1.5855601000000001,0.054328485999999995,0.03195793,0.025566347000000003,-22.74,24.78,26.94
1554107594035,-1.1587936,-9.668385,-1.6669630000000002,0.13741912,0.05752428,0.011717908999999999,-22.74,24.78,26.94
1554107594054,-1.1444284,-9.452907000000002,-1.8441339,0.19813919,0.08628642,-0.010652645,-22.74,24.72,26.94
1554107594074,-1.1827357,-9.510367,-1.9782091,0.2066613,0.098004326,-0.023435817999999997,-22.74,24.72,26.94
1554107594095,-1.2545617,-9.529521,-1.6095021,0.13422333,0.09267801,-0.033023197000000004,-22.68,24.72,26.88
1554107594114,-1.2114661,-9.376292,-1.5999253,0.07776430000000001,0.09374327,-0.03089267,-22.68,24.72,26.82
1554107594135,-1.2066777,-9.428965,-1.513734,0.03834952,0.098004326,-0.04474111,-22.68,24.78,26.76
1554107594155,-1.1923125,-9.505579,-1.6286557,0.060720075,0.09587380000000001,-0.049002163,-22.68,24.84,26.7
1554107594174,-1.0965444,-9.428965,-1.6573862000000001,0.111852765,0.11504856,-0.05752428,-22.74,24.96,26.58
1554107594195,-1.2401965,-9.333197,-1.7579426,0.13741912,0.15552860000000002,-0.082025364,-22.86,25.02,26.46
1554107594215,-1.3263878,-9.361927,-1.6573862000000001,0.12357068,0.16724652,-0.09161274,-22.98,25.14,26.4
1554107594234,-1.3359646,-9.467272,-1.7052702000000002,0.09161274,0.17470337,-0.09161274,-23.04,25.26,26.28
1554107594254,-1.2785037000000001,-9.32362,-1.8872293999999998,0.06924219,0.1949434,-0.10226539,-23.1,25.38,26.22
1554107594275,-1.2689268999999999,-9.553463,-2.0021513,0.0053263223,0.21198763,-0.112918034,-23.22,25.44,26.16
1554107594294,-1.3886370000000001,-9.577405,-1.7004818,-0.06604639400000001,0.22050974,-0.10226539,-23.34,25.56,26.1
1554107594314,-1.3263878,-9.788095,-1.7914615000000003,-0.023435817999999997,0.21518342,-0.10333065,-23.52,25.62,26.1
1554107594335,-1.3455413999999999,-9.658808,-1.7579426,0.035153727999999995,0.2066613,-0.08735169,-23.76,25.74,26.1
1554107594355,-1.3599066,-9.496002,-1.8297686999999998,0.05965481,0.19068234,-0.084155895,-23.88,25.74,25.98
1554107594375,-1.4508862,-9.539098,-1.9111716,0.054328485999999995,0.17257284,-0.10439592,-24.12,25.8,25.86
1554107594394,-1.3982137,-9.610924,-1.7866731,0.023435817999999997,0.15020229,-0.10652645,-24.3,25.86,25.8
1554107594414,-1.3551182,-9.586982,-1.7435773999999997,0.0031957934000000003,0.13102753,-0.112918034,-24.48,25.86,25.68
1554107594435,-1.4413095,-9.534309,-1.8249803,-0.013848438000000001,0.10972224,-0.10546118,-24.66,25.86,25.56
1554107594454,-1.3311761999999998,-9.663596,-1.9159599999999999,-0.023435817999999997,0.07563378,-0.10226539,-24.78,25.86,25.44
1554107594477,-1.283292,-9.831191,-1.8632874,-0.008522116,0.05752428,-0.082025364,-24.84,25.86,25.38
1554107594494,-1.292869,-9.907805,-1.7483658,0.015978966,0.03834952,-0.06178534,-24.84,25.86,25.32
1554107594515,-1.2306197,-9.6923275,-1.6669630000000002,0.034088463,0.039414786,-0.051132694000000006,-24.9,25.86,25.32
1554107594535,-1.2976573999999998,-9.711481,-1.6286557,0.015978966,0.035153727999999995,-0.039414786,-24.9,25.86,25.32
1554107594555,-1.1061212,-9.831191,-1.8776526000000002,-0.014913702,0.018109497,-0.014913702,-24.96,25.86,25.32
1554107594575,-1.2306197,-9.6923275,-1.8968061999999999,0.008522116,0.022370555,0.0010652645,-24.96,25.86,25.38
1554107594595,-1.2306197,-9.816825999999999,-1.762731,0.054328485999999995,0.0010652645,0.008522116,-25.02,25.92,25.38
1554107594615,-0.9576806999999999,-9.467272,-1.2455834,0.058589544,0.015978966,0.020240024,-25.08,25.92,25.44
1554107594635,-1.1061212,-10.061034,-1.2312181999999998,0.12996227,-0.04261058,0.03089267,-25.08,25.98,25.44
1554107594654,-1.0390834999999998,-9.783307,-1.3030443,0.28655612,-0.0031957934000000003,0.026631612000000002,-25.08,25.98,25.5
1554107594674,-1.2545617,-9.548675,-1.6621746,0.3323625,-0.010652645,0.018109497,-25.08,26.04,25.56
1554107594694,-1.1348516000000002,-9.462483,-1.6669630000000002,0.15765914,-0.024501082,0.054328485999999995,-25.14,26.1,25.62
1554107594714,-1.1587936,-9.840767999999999,-1.5472529,0.054328485999999995,-0.043675844000000005,0.04474111,-25.14,26.16,25.62
1554107594736,-1.2210428999999998,-9.792883999999999,-1.4562732,-0.06711166,0.012783173500000002,0.05965481,-25.14,26.34,25.62
1554107594754,-1.2018893,-10.061034,-1.417966,0.036218993,0.014913702,0.034088463,-25.14,26.46,25.56
1554107594775,-1.2449848999999997,-9.926959,-1.5376761,0.14061491,0.022370555,0.047936900000000005,-25.14,26.58,25.56
1554107594794,-1.2976573999999998,-9.586982,-1.3365631000000002,0.12996227,0.036218993,0.058589544,-25.08,26.7,25.5
1554107594815,-1.2880806,-9.505579,-1.6334441000000002,0.07137272,0.043675844000000005,0.039414786,-25.08,26.76,25.38
1554107594835,-1.3982137,-9.649231,-1.5568296999999998,-0.0010652645,0.060720075,0.039414786,-25.02,26.82,25.32
1554107594854,-1.3024458,-9.534309,-1.4706384,-0.060720075,0.06604639400000001,0.037284255,-24.96,26.88,25.26
1554107594874,-1.2545617,-9.476849000000001,-1.4227544,-0.13422333,0.047936900000000005,0.02876214,-24.9,26.94,25.26
1554107594894,-1.316811,-9.47206,-1.4754268,-0.18429075,0.037284255,0.0063915867,-24.9,26.94,25.2
1554107594915,-1.3599066,-9.505579,-1.6382325,-0.21624869,0.05006743,-0.008522116,-24.84,26.94,25.26
1554107594934,-1.3263878,-9.615712,-1.6286557,-0.2609898,0.051132694000000006,-0.012783173500000002,-24.84,26.94,25.26
1554107594955,-1.2449848999999997,-9.500791,-1.5855601000000001,-0.25566345,0.06604639400000001,-0.026631612000000002,-24.84,26.94,25.32
1554107594974,-1.2258313,-9.32362,-1.738789,-0.23861924,0.07456851,-0.04474111,-24.84,26.88,25.44
1554107594994,-1.2449848999999997,-9.481637,-1.9015948,-0.24501082,0.07563378,-0.07030745599999999,-24.84,26.82,25.62
1554107595014,-1.2880806,-9.77373,-1.963844,-0.24181503,0.068176925,-0.07776430000000001,-24.84,26.7,25.86
1554107595034,-1.2066777,-9.946113,-1.9351135,-0.17789917,0.053263225,-0.07350325,-24.9,26.52,25.98
1554107595054,-1.1252748,-9.974843,-1.9925743000000002,-0.09267801,0.053263225,-0.06711166,-24.96,26.34,26.16
1554107595075,-1.2258313,-9.59177,-2.0931308,-0.06604639400000001,0.07882957,-0.07137272,-25.02,26.1,26.28
1554107595095,-1.1540052,-9.491214,-1.8249803,-0.049002163,0.111852765,-0.10652645,-25.08,25.92,26.34
1554107595115,-1.0630256,-9.179967999999999,-1.8058267,-0.020240024,0.12144015,-0.12463594,-25.08,25.74,26.4
1554107595134,-1.292869,-9.055469500000001,-1.9877859,-0.06498113,0.08841695,-0.12996227,-25.14,25.62,26.4
1554107595155,-1.1540052,-9.529521,-2.0644004000000002,-0.14274544,0.06285059999999999,-0.13422333,-25.2,25.5,26.28
1554107595175,-1.1731589,-10.156802,-1.9686323000000001,-0.02876214,0.06924219,-0.12570119999999999,-25.26,25.44,26.22
1554107595194,-1.2497733,-9.725846,-1.9207484000000001,0.1587244,0.09267801,-0.12250541,-25.32,25.38,26.16
1554107595216,-1.2066777,-9.462483,-2.2703017999999995,0.18642128,0.11504856,-0.12037488,-25.44,25.38,26.1
1554107595235,-1.1923125,-9.136872,-2.0021513,0.051132694000000006,0.111852765,-0.11930962,-25.5,25.32,26.04
1554107595254,-0.9528923,-9.337985,-2.212841,-0.08628642,0.113983296,-0.12463594,-25.62,25.26,26.04
1554107595275,-1.0965444,-9.77373,-1.9542671000000003,-0.14168017,0.09267801,-0.1107875,-25.74,25.2,26.04
1554107595295,-1.13964,-9.883863,-1.4514848,-0.08735169,0.07882957,-0.09587380000000001,-25.86,25.14,26.04
1554107595314,-1.1348516000000002,-9.491214,-1.5472529,0.040480047000000005,0.06178534,-0.099069595,-25.92,25.08,26.04
1554107595334,-1.0486604,-9.199121,-1.7579426,0.09374327,0.047936900000000005,-0.1107875,-26.04,25.02,26.04
1554107595355,-1.0055646999999999,-9.242217,-1.8776526000000002,0.026631612000000002,0.04261058,-0.11504856,-26.1,24.96,26.04
1554107595375,-0.9672575000000001,-9.285313,-1.5951369,-0.04261058,0.040480047000000005,-0.13315806,-26.22,24.9,26.04
1554107595395,-1.0007763,-9.534309,-1.5328877,-0.049002163,0.03195793,-0.15233281,-26.28,24.84,26.04
1554107595416,-0.94331545,-9.596559,-1.7483658,-0.007456851,0.00958738,-0.16618125,-26.34,24.72,26.04
1554107595435,-0.89543146,-9.711481,-1.9207484000000001,0.051132694000000006,-0.02130529,-0.17470337,-26.4,24.66,26.04
1554107595455,-0.79966336,-9.390657000000001,-2.1697452,0.07350325,-0.03089267,-0.17789917,-26.46,24.6,25.98
1554107595475,-0.9576806999999999,-9.452907000000002,-1.7531542000000002,0.03195793,-0.01917476,-0.20772657,-26.52,24.6,25.86
1554107595494,-0.8810662,-9.601347,-1.5089456,-0.05219796,-0.017044231,-0.19600865,-26.58,24.54,25.8
1554107595515,-0.9720459000000001,-9.907805,-1.7770962,-0.03834952,-0.047936900000000005,-0.19174760000000002,-26.64,24.48,25.74
1554107595535,-0.8283938,-9.740211500000001,-1.9446903000000002,-0.03195793,-0.053263225,-0.14913702,-26.64,24.48,25.68
1554107595556,-0.8810662,-9.68275,-1.9877859,-0.03089267,-0.06285059999999999,-0.13528858,-26.64,24.48,25.62
1554107595575,-0.9911995000000001,-9.86471,-2.0117279999999997,-0.06178534,-0.05965481,-0.09587380000000001,-26.64,24.42,25.56
1554107595596,-1.0726023999999998,-10.065823,-1.9303252,-0.07456851,-0.03834952,-0.06498113,-26.7,24.42,25.56
1554107595614,-1.1540052,-10.118495,-1.8968061999999999,-0.08628642,-0.020240024,-0.020240024,-26.7,24.36,25.62
1554107595634,-1.2066777,-10.204686,-1.9590555,-0.10972224,-0.023435817999999997,0.035153727999999995,-26.7,24.36,25.68
1554107595654,-1.1731589,-10.3770685,-2.0213048,-0.096939065,-0.040480047000000005,0.10546118,-26.64,24.3,25.68
1554107595675,-1.2210428999999998,-10.348338,-2.1027076,-0.10972224,-0.039414786,0.17789917,-26.64,24.3,25.74
1554107595696,-1.3551182,-10.5207205,-2.0691888,-0.07776430000000001,-0.05752428,0.27377295,-26.64,24.18,25.8
1554107595715,-1.3263878,-10.717046,-2.0979192,-0.034088463,-0.07669904,0.32277513,-26.58,24.18,25.86
1554107595734,-1.4987701999999998,-10.683527,-2.059612,0.03834952,-0.112918034,0.39521313,-26.58,24.12,25.92
1554107595755,-1.6519991000000003,-10.338761,-2.1888987999999996,0.111852765,-0.18642128,0.47297743,-26.58,24.12,25.98
1554107595775,-1.5897499,-10.295666,-2.1936872000000003,0.1107875,-0.21731395,0.52837116,-26.58,24.12,26.04
1554107595795,-1.7142484,-10.10413,-2.2990322,0.07243799,-0.26525086,0.59228706,-26.58,24.18,26.1
1554107595815,-1.6711528000000002,-10.190321,-2.2990322,0.051132694000000006,-0.29933932,0.6487460999999999,-26.46,24.18,26.16
1554107595834,-1.7717092,-10.381857,-2.0500352,0.05219796,-0.32597092,0.6956177,-26.34,24.3,26.22
1554107595855,-2.0350714,-10.286089,-1.9542671000000003,0.10652645,-0.3653857,0.7350325,-26.1,24.36,26.28
1554107595875,-2.054225,-9.879075,-2.059612,0.16298546,-0.39947417,0.773382,-25.86,24.48,26.34
1554107595894,-2.1739352000000003,-9.960478,-1.8680758000000002,0.2428803,-0.4314321,0.7978831000000001,-25.56,24.66,26.4
1554107595914,-2.3127987,-10.01315,-1.6478093,0.33555830000000003,-0.44634579999999996,0.8149273,-25.14,24.84,26.4
1554107595935,-2.5091232999999997,-9.639654,-1.5951369,0.51026165,-0.46978164,0.8479504999999999,-24.66,25.02,26.4
1554107595955,-2.542642,-9.519944,-1.5807717,0.5901565,-0.49428272,0.8607336999999999,-24.0,25.38,26.4
1554107595974,-2.6910827,-9.371504,-1.4850036,0.6146576,-0.49321744,0.87138635,-23.34,25.68,26.4
1554107595994,-2.8634652999999997,-9.385869,-1.3269863000000002,0.6892261,-0.47830373,0.8522116,-22.74,26.04,26.4
1554107596015,-2.8874072999999996,-9.405023,-1.1210848999999998,0.716923,-0.47191215,0.84688526,-22.14,26.4,26.34
1554107596035,-3.1124623,-8.897452000000001,-0.97264445,0.7041398,-0.4644553,0.850081,-21.6,26.94,26.28
1554107596054,-3.169923,-8.696339,-0.86729956,0.56885123,-0.45806372,0.83729786,-21.0,27.6,26.04
1554107596074,-3.169923,-8.5383215,-0.9008184000000001,0.45593318,-0.44101948,0.8117314999999999,-20.4,28.2,25.92
1554107596095,-3.265691,-8.5383215,-0.5943606,0.44954160000000004,-0.42930159999999995,0.7616641,-19.74,28.8,25.68
1554107596115,-3.3375172999999996,-8.145673,-0.7044938000000001,0.39734364,-0.40373522,0.7233145999999999,-19.26,29.46,25.44
1554107596135,-3.490746,-8.06427,-0.52732295,0.21944448,-0.3536678,0.6775081999999999,-18.78,30.06,25.2
1554107596155,-3.5865142,-8.327632000000001,-0.19213470000000002,0.11611383,-0.29827404,0.59228706,-18.3,30.66,24.96
1554107596174,-3.7876269999999996,-7.9062524000000005,-0.05327099,0.16298546,-0.2695119,0.5187838,-17.82,31.26,24.78
1554107596194,-3.8355112,-7.85358,0.018555064,0.15659387,-0.2609898,0.44528055,-17.34,31.74,24.6
1554107596215,-3.9264907999999994,-8.088212,-0.12988544,0.11504856,-0.24074976,0.38136467,-16.8,32.1,24.54
1554107596235,-3.8833952000000003,-8.18398,-0.14425065,0.1768339,-0.20240025,0.29507825,-16.26,32.4,24.42
1554107596255,-4.0940847,-7.973290400000001,0.19093758,0.24501082,-0.17257284,0.23329292,-15.78,32.64,24.36
1554107596275,-4.1659107,-7.743447,-0.28311434,0.16618125,-0.1470065,0.18642128,-15.36,32.7,24.3
1554107596295,-4.309563,-7.925406,0.22445641,-0.05965481,-0.13315806,0.13741912,-14.94,32.82,24.24
1554107596316,-4.323928400000001,-8.227076,-0.05327099,-0.11504856,-0.13315806,0.094808534,-14.34,32.94,24.18
1554107596335,-4.309563,-8.227076,0.13826515,-0.034088463,-0.12144015,0.04474111,-14.1,32.94,24.18
1554107596355,-4.4436383,-8.054692999999999,0.29628247,0.07563378,-0.098004326,0.013848438000000001,-13.8,33.0,24.12
1554107596374,-4.4675803,-8.322844,-0.10115502,0.099069595,-0.08948222,-0.015978966,-13.56,33.06,24.12
1554107596395,-4.6686935,-8.231864,0.15741876,-0.03195793,-0.09054748,-0.014913702,-13.38,33.12,24.06
1554107596415,-4.7165775000000005,-8.54311,-0.0676362,-0.10865697,-0.09374327,-0.023435817999999997,-13.26,33.18,24.0
1554107596435,-4.6495394999999995,-8.72507,0.17657238,-0.051132694000000006,-0.09267801,-0.039414786,-13.2,33.24,24.0
1554107596454,-4.572925,-8.557475,0.04249708,0.056459017,-0.07030745599999999,-0.04474111,-13.14,33.3,23.94
1554107596474,-4.783615,-8.39467,0.25797522,0.002130529,-0.049002163,-0.043675844000000005,-13.14,33.36,23.88
1554107596495,-4.7309427,-8.701127,0.40162733,-0.03089267,-0.05219796,-0.027696876000000002,-13.08,33.42,23.82
1554107596515,-4.8219223,-8.57184,0.32501290000000005,0.06604639400000001,-0.06285059999999999,-0.004261058,-13.08,33.42,23.76
1554107596535,-4.7500963,-8.624513,0.14305355,0.084155895,-0.07989483,-0.0031957934000000003,-13.08,33.42,23.76
1554107596554,-4.817133999999999,-8.523956,0.14784196,0.020240024,-0.09161274,0.011717908999999999,-13.08,33.42,23.76
1554107596574,-4.8123455,-8.552686999999999,0.15263036,0.0,-0.08841695,0.0031957934000000003,-13.02,33.48,23.7
1554107596594,-4.841076,-8.5143795,0.55485624,0.034088463,-0.06391586,0.008522116,-13.02,33.48,23.7
1554107596614,-4.975151,-8.327632000000001,0.46866497,0.03195793,-0.06498113,0.027696876000000002,-12.96,33.54,23.64
1554107596635,-4.807557,-8.600571,0.31064767,0.004261058,-0.07456851,0.05539375,-12.96,33.6,23.64
1554107596655,-4.8123455,-8.701127,0.20051439,0.084155895,-0.06604639400000001,0.051132694000000006,-12.84,33.66,23.64
1554107596675,-4.8458643,-8.30369,0.28191724,0.1768339,-0.03834952,0.03089267,-12.72,33.78,23.64
1554107596694,-4.8937483,-7.992444,0.17657238,0.098004326,-0.017044231,0.025566347000000003,-12.66,33.84,23.64
1554107596715,-4.7405194999999996,-8.557475,0.55006784,-0.07563378,-0.023435817999999997,0.040480047000000005,-12.54,33.84,23.64
1554107596735,-4.912902,-8.930971000000001,0.39683893,-0.013848438000000001,-0.03834952,0.05219796,-12.42,33.9,23.64
1554107596754,-4.9081135,-8.84478,0.39683893,0.17150758,-0.051132694000000006,0.05965481,-12.36,33.9,23.58
1554107596775,-4.7740383,-8.739435,0.65541273,0.37603834,-0.07563378,0.05219796,-12.24,33.9,23.52
1554107596794,-4.8267107000000005,-8.231864,-0.02932897,0.5187838,-0.10546118,0.058589544,-12.18,33.9,23.4
1554107596815,-4.8985367,-7.848791599999999,-0.374094,0.38029942,-0.10865697,0.05752428,-12.18,33.9,23.28
1554107596835,-4.903325,-8.107366,0.44472298,0.08948222,-0.06178534,0.06604639400000001,-12.12,34.02,23.16
1554107596855,-4.9464207,-8.653243,0.85173726,-0.12144015,-0.049002163,0.11717909,-12.12,34.2,23.04
1554107596875,-5.0134583,-9.055469500000001,0.8086416000000001,0.080960095,-0.05219796,0.12783173,-12.12,34.38,22.92
1554107596894,-5.018246700000001,-8.4234,0.8086416000000001,0.2727077,-0.056459017,0.13209279,-12.12,34.56,22.8
1554107596915,-5.094861,-8.054692999999999,0.5117606,0.2545982,-0.07030745599999999,0.14061491,-12.12,34.74,22.8
1554107596934,-5.12838,-8.389880999999999,0.66498953,0.17150758,-0.07456851,0.15978967,-12.06,34.92,22.74
1554107596954,-5.2385135,-8.619724,0.717662,0.18216023,-0.05752428,0.165116,-12.06,35.1,22.74
1554107596975,-5.3678,-8.332419999999999,0.65062433,0.22690132,-0.049002163,0.17257284,-12.0,35.22,22.74
1554107596995,-5.4922986,-7.949348,1.8237831999999998,0.07030745599999999,-0.054328485999999995,0.20026971,-11.94,35.28,22.74
1554107597014,-5.4779334,-8.820838,0.86131406,0.035153727999999995,-0.10013486,0.23648871,-11.88,35.28,22.74
1554107597034,-5.4922986,-9.088988,0.5165489999999999,0.30360037,-0.12996227,0.26205507,-11.76,35.28,22.68
1554107597055,-5.396530599999999,-8.476072,0.43035775,0.4708469,-0.12783173,0.29614353,-11.64,35.4,22.56
1554107597075,-5.7125654,-8.4234,0.86610246,0.3334278,-0.13315806,0.37071204,-11.46,35.64,22.44
1554107597095,-6.0333879999999995,-8.097789,1.4407108999999998,0.13635385,-0.15765914,0.43249738,-11.34,35.82,22.2
1554107597115,-5.9280434,-8.696339,0.8900445,0.06711166,-0.22477080000000002,0.5028047999999999,-11.1,36.06,22.02
1554107597135,-6.2009826,-9.337985,1.0049661,0.37390783,-0.24607609,0.56672066,-10.92,36.24,21.9
1554107597155,-6.373365,-8.428188,1.0815806000000001,0.6317018,-0.26205507,0.6583334,-10.74,36.42,21.78
1554107597175,-6.732495299999999,-7.958925,1.0432734000000001,0.32597092,-0.29188246,0.76059884,-10.44,36.6,21.6
1554107597195,-7.125144500000001,-8.954913000000001,1.134253,-0.07456851,-0.3334278,0.8969527,-10.26,36.78,21.48
1554107597215,-7.144297999999999,-9.0794115,1.5604209999999998,0.008522116,-0.38456047,1.0524813,-9.96,36.84,21.3
1554107597235,-7.129933,-8.897452000000001,1.8189948,0.386691,-0.44101948,1.1728562,-9.6,36.84,21.24
1554107597255,-7.278373200000001,-7.992444,1.1534066,0.78083885,-0.50813115,1.2825783000000002,-9.18,36.78,21.18
1554107597275,-7.3549875999999985,-6.488885,1.6609775000000002,0.6327670999999999,-0.53263223,1.3848438,-8.64,36.78,21.12
1554107597295,-7.302314999999999,-5.7706246,2.3169887000000005,0.11930962,-0.58269966,1.4498249,-7.98,36.72,20.94
1554107597315,-7.005433999999999,-6.6229606,2.2882583,-0.11504856,-0.6487460999999999,1.470065,-7.38,36.66,20.82
1554107597338,-6.7612257,-6.7570357,2.1158757,0.44954160000000004,-0.68389976,1.433846,-6.12,36.36,20.4
1554107597355,-6.7372837,-6.3979053,2.3409307,0.60293967,-0.6764429,1.4061489999999999,-5.7,36.24,20.28
1554107597374,-6.445191,-4.5687356,2.1733365,0.7030744999999999,-0.6625945,1.3592775,-4.74,35.88,19.92
1554107597395,-6.3925184999999995,-3.8600516000000002,2.5037365,0.25140239999999997,-0.59867865,1.2378373,-3.18,35.4,19.38
1554107597415,-6.430825700000001,-4.362833999999999,2.7527334999999997,0.01917476,-0.5784385999999999,1.1590078000000001,-2.7,35.22,19.2
1554107597434,-6.5744777,-4.6022544000000005,3.0831332000000002,0.084155895,-0.55287224,1.0077401,-1.8,34.86,18.78
1554107597454,-6.5792660000000005,-4.223970400000001,2.9346926,0.39414784,-0.5187838,0.85966843,-1.02,34.5,18.24
1554107597475,-6.766014,-4.180875,3.198055,0.5496765,-0.45380265,0.72437984,-0.3,33.96,17.76
1554107597495,-7.129933,-3.9079356,3.2076318,0.51026165,-0.38242993,0.5773733,0.54,33.24,17.16
1554107597515,-7.383717999999999,-3.8456864,2.6856956000000003,0.38456047,-0.33768883,0.48149952,0.96,32.82,16.86
1554107597534,-7.455544000000001,-3.9749733999999997,2.570774,0.05539375,-0.2876214,0.44101948,1.32,32.4,16.5
1554107597554,-7.479486,-4.496909,3.4278982000000005,-0.17150758,-0.22796659,0.39947417,1.56,32.04,16.08
1554107597575,-7.723694999999999,-4.630985,3.9115269999999995,-0.13741912,-0.19707392,0.35899413,1.92,31.62,15.66
1554107597594,-7.675811,-4.185663,3.5093012000000003,0.07776430000000001,-0.19707392,0.3323625,2.28,31.32,15.36
1554107597615,-7.541735000000001,-3.9223008000000004,3.1262288,0.16618125,-0.18855181,0.30466563,2.64,31.08,15.12
1554107597635,-7.675811,-4.089895200000001,3.5811272000000005,0.128897,-0.17470337,0.27057716,3.0,30.96,14.82
1554107597656,-7.771578999999999,-4.109049,3.863643,0.04580637,-0.16618125,0.24607609,3.3,30.84,14.58
1554107597675,-7.905653999999999,-4.180875,3.8349125,0.04580637,-0.18216023,0.23116238,3.6,30.72,14.28
1554107597694,-7.7093296,-4.147355999999999,3.863643,0.18109496,-0.18642128,0.20985709,3.9,30.6,14.1
1554107597715,-7.4507556,-3.74513,3.8492777,0.30679616,-0.17470337,0.16831179,4.08,30.48,13.98
1554107597734,-7.5034279999999995,-3.232771,3.9258924,0.44421527,-0.13848437,0.07456851,4.14,30.3,13.98
1554107597754,-7.493850999999999,-3.74513,4.117428299999999,0.44847634,-0.113983296,0.010652645,4.32,30.18,13.98
1554107597775,-7.627927000000001,-4.123414,4.174889,0.48682585,-0.094808534,0.00958738,4.44,30.06,13.92
1554107597795,-7.833828,-4.3197384,3.8205473,0.5209143,-0.07350325,0.011717908999999999,4.56,29.94,13.8
1554107597814,-7.891288799999999,-4.061165,4.217984700000001,0.6689861,-0.06178534,0.01917476,4.68,29.88,13.62
1554107597834,-7.7572136,-3.232771,4.079121,0.77231675,-0.07350325,0.022370555,4.8,30.0,13.44
1554107597855,-7.603985000000001,-2.5432408,3.7630866000000003,0.69668293,-0.068176925,-0.037284255,4.92,30.06,13.26
1554107597875,-7.680599000000001,-2.9694088,3.7726634,0.54435015,-0.09054748,-0.082025364,4.98,30.24,13.02
1554107597895,-7.632714999999999,-3.6014779000000003,3.5715504,0.43249738,-0.11930962,-0.08735169,5.04,30.42,12.84
1554107597915,-7.704541000000001,-3.4338839999999995,4.040814,0.31318775,-0.11824436,-0.08735169,4.98,30.66,12.66
1554107597934,-7.4507556,-3.9558197999999996,3.7630866000000003,0.24927188,-0.15552860000000002,-0.09587380000000001,4.98,30.9,12.42
1554107597955,-7.584830800000001,-3.4865562999999993,4.2610803,0.28975195,-0.13315806,-0.08841695,5.1,31.08,12.3
1554107597975,-7.6135616,-3.0172927000000005,4.1317935,0.30040458,-0.113983296,-0.1107875,5.22,31.32,12.24
1554107597995,-7.963114699999999,-3.4147300000000005,4.4717703,0.25246766,-0.08522116,-0.08948222,5.34,31.5,12.0
1554107598014,-7.876923599999999,-3.256713,4.3329067000000006,0.19600865,-0.07030745599999999,-0.060720075,5.4,31.68,11.7
1554107598034,-7.7332716,-2.9885623,4.170100700000001,0.080960095,-0.05965481,-0.06498113,5.52,31.86,11.46
1554107598055,-7.8577699999999995,-3.1465794999999996,4.222773,-0.046871635999999994,-0.041545313,-0.07030745599999999,5.58,32.04,11.16
1554107598075,-7.967903,-3.4530375,4.4238862999999995,-0.111852765,-0.04580637,-0.07563378,5.7,32.22,10.86
1554107598094,-8.049306,-3.5583823,4.529230999999999,-0.10865697,-0.051132694000000006,-0.053263225,5.76,32.46,10.62
1554107598114,-7.8386164,-3.3620577000000003,4.6920366,-0.07137272,-0.037284255,-0.029827405,5.76,32.64,10.5
1554107598135,-7.7572136,-3.2662897,5.122993,-0.041545313,-0.022370555,-0.033023197000000004,5.76,32.82,10.32
1554107598155,-7.785944000000001,-3.4721910000000005,4.6680946,0.035153727999999995,-0.014913702,-0.033023197000000004,5.76,33.0,10.32
1554107598174,-7.967903,-3.5966894999999997,4.6058455,0.12676647,-0.0031957934000000003,-0.020240024,5.76,33.12,10.38
1554107598194,-7.967903,-3.328539,4.8500543,0.21198763,0.025566347000000003,0.014913702,5.82,33.18,10.44
1554107598216,-7.6470804,-3.1753099999999996,4.7782279999999995,0.31638354,0.029827405,0.020240024,5.82,33.18,10.5
1554107598235,-7.656657000000001,-2.6437972000000003,4.2131963,0.35473305,0.025566347000000003,0.0010652645,5.82,33.12,10.5
1554107598254,-7.6231384,-2.677316,4.313753,0.07563378,0.046871635999999994,-0.015978966,5.82,33.06,10.5
1554107598275,-7.872135000000001,-3.2710779999999997,4.3185415,-0.034088463,0.03834952,-0.047936900000000005,5.82,33.0,10.5
1554107598295,-7.876923599999999,-3.3476925000000004,4.2754455,-0.035153727999999995,0.0,-0.013848438000000001,5.76,32.94,10.38
1554107598314,-7.3310455999999995,-3.3189620000000004,4.194042700000001,-0.04580637,-0.007456851,0.011717908999999999,5.7,32.88,10.32
1554107598335,-7.479486,-2.260725,4.4957123,-0.02876214,0.0031957934000000003,-0.08735169,5.7,32.88,10.2
1554107598354,-7.5321584,-2.3181857999999997,4.6537294000000005,-0.16298546,0.024501082,-0.17789917,5.64,32.88,10.14
1554107598374,-7.9248075,-3.5009214999999996,4.2610803,-0.27803403,0.0031957934000000003,-0.22903186,5.64,32.94,10.14
1554107598395,-7.9822683,-3.9558197999999996,4.0934862999999995,-0.19387813,-0.036218993,-0.13209279,5.64,32.94,10.02
1554107598415,-7.465121000000001,-3.3572693,3.54282,-0.18216023,-0.06604639400000001,-0.10333065,5.64,33.0,9.96
1554107598434,-7.153875,-1.8201918999999998,4.89315,-0.24927188,0.033023197000000004,-0.14913702,5.64,33.06,9.96
1554107598455,-7.0102224,-2.0069396,4.2754455,-0.6125271,0.09587380000000001,-0.29188246,5.7,33.12,9.96
1554107598475,-7.192182000000001,-3.232771,4.759074,-0.8969527,0.19281286,-0.4101268,5.7,33.18,9.96
1554107598495,-7.0245875999999985,-3.5871127,4.2419267,-0.87564737,0.2428803,-0.4825648,5.76,33.18,9.96
1554107598515,-6.8809357,-3.3476925000000004,4.0120835,-0.8948221,0.25566345,-0.53476274,5.7,33.18,10.02
1554107598535,-6.3829417,-3.7403417,4.031237,-0.9576728000000001,0.25992453,-0.6444850000000001,5.64,33.18,10.2
1554107598555,-6.4882865,-4.1425676,4.0743327,-0.9289106,0.24714136,-0.7861651999999999,5.52,33.18,10.44
1554107598575,-6.780379300000001,-3.5296519,3.6242227999999996,-0.7946873000000001,0.23116238,-0.9736517,5.34,33.18,10.92
1554107598594,-6.4882865,-2.8113914,2.1493945,-0.8479504999999999,0.26525086,-1.0684601999999999,5.1,33.12,11.34
1554107598615,-5.851429,-4.0803185,2.2930467,-1.2346416,0.34621096,-1.1930962,4.8,33.06,11.82
1554107598635,-6.4020953,-5.3540335,3.1884782000000005,-1.7182716,0.47191215,-1.3060142,4.5,33.06,12.24
1554107598654,-6.4260373,-6.0483522,2.9346926,-1.8375811999999998,0.55606806,-1.3273195,4.14,33.06,12.72
1554107598675,-6.517017,-6.2781954,3.0017304,-1.7182716,0.65726817,-1.3699301000000002,3.66,33.12,13.38
1554107598694,-6.5601125,-6.642114,2.3744495,-1.3763216999999999,0.6870956,-1.4519554,3.0,33.12,14.1
1554107598714,-6.766014,-6.488885,1.2060791000000002,-1.0599382,0.69029135,-1.474326,2.34,33.06,14.88
1554107598735,-6.301539,-6.345233,0.88046765,-0.99282646,0.6860303000000001,-1.4253238000000001,1.68,33.06,15.48
1554107598755,-6.0285997,-6.848015299999999,1.1534066,-0.99708754,0.716923,-1.4658038999999998,1.02,33.06,16.26
1554107598775,-6.2105594,-7.6189485,1.5939398,-0.7755125,0.73609775,-1.4892397,0.24,33.06,17.16
1554107598794,-6.430825700000001,-7.968502,0.7990648,-0.50173956,0.72970617,-1.470065,-0.54,33.0,18.0
1554107598814,-6.2249246,-7.9301944,0.28670564,-0.47617322,0.6668556,-1.3827133,-1.5,33.0,18.9
1554107598834,-6.019023000000001,-8.4234,0.17657238,-0.5422196,0.5954828000000001,-1.3060142,-2.52,32.94,19.68
1554107598855,-5.7987566,-8.811261,0.3345897,-0.5571333,0.5336975,-1.2506205,-3.48,33.0,20.16
1554107598876,-6.0381765,-8.863934,0.3633201,-0.5070659000000001,0.46125950000000004,-1.1856394,-4.32,33.0,20.64
1554107598894,-6.0716953,-8.686762,0.21487960000000003,-0.5858955,0.41864893,-1.1004181999999998,-5.22,33.0,21.06
1554107598915,-5.774814599999999,-8.801684,0.0712275,-0.7414241,0.3749731,-1.015197,-6.06,33.06,21.42
1554107598934,-5.5258174,-8.729858,0.05207389,-0.84688526,0.33129725,-0.9470200999999999,-6.84,33.06,21.72
1554107598955,-5.1762643,-9.098564999999999,-0.04369418,-0.83942837,0.30999196,-0.90014845,-7.62,33.06,22.08
1554107598974,-4.9224787,-9.333197,0.17178397,-0.721184,0.27483824,-0.84155893,-8.22,33.06,22.44
1554107598994,-4.673482,-9.32362,0.032920275,-0.52411014,0.22796659,-0.8042746999999999,-8.64,32.88,22.74
1554107599015,-4.3478703,-9.012374000000001,-0.20171149,-0.36218992,0.18322548,-0.77870834,-9.0,32.58,23.04
1554107599035,-4.098873,-9.012374000000001,-0.4794389,-0.27377295,0.15233281,-0.75101143,-9.36,32.16,23.34
1554107599055,-3.9456443999999995,-8.710705,-0.74758947,-0.32597092,0.13315806,-0.7190535,-9.72,31.74,23.58
1554107599074,-3.9791632000000003,-8.710705,-0.7858967,-0.46339005,0.10759171,-0.7137272,-10.14,31.38,23.82
1554107599094,-3.7924154000000003,-8.782531,-0.76195467,-0.56672066,0.10333065,-0.7254451,-10.5,31.02,23.94
1554107599115,-3.5482068,-8.969278,-0.95827925,-0.6125271,0.10972224,-0.7339671999999999,-10.86,30.66,24.06
1554107599135,-3.371036,-8.998009,-1.1210848999999998,-0.6423545,0.12783173,-0.7222493000000001,-11.16,30.3,24.18
1554107599154,-3.3135752999999997,-9.088988,-1.0109516,-0.66365975,0.15978967,-0.716923,-11.46,30.06,24.3
1554107599175,-3.4620156000000004,-9.534309,-1.0444705,-0.64341974,0.20026971,-0.6945524000000001,-12.0,29.88,24.54
1554107599194,-3.2992098,-9.567828,-1.1306617,-0.6583334,0.25140239999999997,-0.6540724,-12.18,29.76,24.66
1554107599214,-3.2944214,-9.381081,-1.3700819,-0.70200926,0.30892670000000005,-0.6040049,-12.78,29.28,24.96
1554107599234,-3.1316159,-9.476849000000001,-1.7004818,-0.74781567,0.32490566,-0.5581986,-13.08,28.86,25.2
1554107599255,-3.0454244999999998,-9.361927,-1.5280992,-0.72011876,0.3270362,-0.51771855,-13.44,28.38,25.5
1554107599275,-3.0358477,-9.361927,-1.8010383,-0.6295713000000001,0.34834146,-0.49108690000000005,-13.8,27.84,25.8
1554107599294,-3.0023289,-9.582193,-1.939902,-0.5432849000000001,0.36645097,-0.46658584,-14.28,27.18,26.16
1554107599314,-2.9161377,-9.946113,-2.1410147999999998,-0.45060685,0.37603834,-0.44101948,-14.82,26.4,26.4
1554107599336,-2.8682537,-9.634866,-1.9782091,-0.36751625,0.38349520000000004,-0.38882150000000004,-15.24,25.62,26.64
1554107599354,-2.8443117,-9.548675,-2.2750902,-0.32597092,0.37816888,-0.36325517,-15.72,24.9,26.88
1554107599375,-2.7724855,-9.821614,-2.4474726,-0.34834146,0.36645097,-0.32170987,-16.26,24.3,27.06
1554107599395,-2.8443117,-9.778519000000001,-2.4474726,-0.3206446,0.34621096,-0.2876214,-16.74,23.7,27.18
1554107599414,-2.7150247000000003,-9.86471,-2.4953567999999997,-0.21944448,0.3334278,-0.28016454,-17.22,23.16,27.3
1554107599435,-2.5905263,-9.845556,-2.3421277999999996,-0.05752428,0.32170987,-0.26418558,-17.58,22.68,27.3
1554107599455,-2.5905263,-9.6923275,-2.6007016,0.07243799,0.29507825,-0.24501082,-17.94,22.32,27.3
1554107599474,-2.4516625,-9.467272,-2.8257565,0.03834952,0.27590349999999997,-0.22690132,-18.18,22.02,27.3
1554107599495,-2.3702598,-9.428965,-2.3948002,0.018109497,0.29294774,-0.22477080000000002,-18.42,21.84,27.24
1554107599515,-2.3511062000000003,-9.366715,-2.5192987999999996,0.04261058,0.32277513,-0.23968449999999997,-18.6,21.66,27.24
1554107599535,-2.2936451,-9.44333,-2.4905684,0.029827405,0.32170987,-0.22796659,-18.72,21.54,27.3
1554107599554,-2.4995465,-9.735422999999999,-2.6102784,0.05965481,0.28016454,-0.16405073,-18.78,21.42,27.3
1554107599575,-2.7389667,-9.778519000000001,-2.4762032000000005,0.1587244,0.27164245,-0.12037488,-18.9,21.3,27.36
1554107599595,-2.4420857000000002,-9.634866,-3.0125043,0.13422333,0.22583607,-0.056459017,-19.02,21.18,27.42
1554107599615,-2.4133554,-9.610924,-2.6150667999999997,0.14913702,0.24074976,-0.02130529,-19.26,21.06,27.42
1554107599635,-2.5043349999999998,-9.491214,-2.2559366,0.18216023,0.27057716,0.002130529,-19.44,21.06,27.48
1554107599655,-2.6719291000000003,-9.438541,-2.2463598,0.23755397,0.21944448,0.027696876000000002,-19.62,21.12,27.48
1554107599675,-2.4995465,-9.452907000000002,-2.5001452,0.17363810000000002,0.17789917,0.09267801,-19.74,21.18,27.54
1554107599695,-2.3558946,-9.424176,-2.9167361,0.21837921,0.15020229,0.09054748,-19.86,21.24,27.54
1554107599715,-2.3415293999999998,-9.476849000000001,-2.8209682000000003,0.27590349999999997,0.15126756,0.112918034,-20.04,21.42,27.54
1554107599734,-2.2888567,-9.419388,-2.131438,0.27483824,0.15552860000000002,0.12676647,-20.22,21.54,27.54
1554107599754,-2.4085669999999997,-9.601347,-1.9494787,0.23116238,0.10226539,0.14274544,-20.4,21.72,27.54
1554107599775,-2.2697031,-9.615712,-2.1984756,0.26631612,0.06604639400000001,0.13954964,-20.46,21.84,27.48
1554107599794,-2.1499932,-9.491214,-2.0069396,0.37284255,0.037284255,0.12037488,-20.52,22.02,27.48
1554107599815,-2.2409727999999998,-9.711481,-2.3660697999999996,0.5518069999999999,0.00958738,0.08948222,-20.64,22.2,27.42
1554107599834,-2.2122424,-9.462483,-2.3277626000000002,0.6327670999999999,0.00958738,0.09267801,-20.76,22.44,27.36
1554107599856,-2.2888567,-9.194333,-2.0165164,0.43675843,-0.00958738,0.12463594,-20.88,22.68,27.3
1554107599875,-2.4372973,-9.256582,-2.0069396,0.20453078,-0.06498113,0.13315806,-21.0,22.98,27.24
1554107599894,-2.3319526,-9.419388,-2.1170728,0.13528858,-0.09267801,0.13741912,-21.0,23.58,27.12
1554107599914,-2.384625,-9.261371,-2.1170728,0.18429075,-0.083090626,0.12144015,-21.0,23.76,27.06
1554107599934,-2.384625,-8.883087,-1.8776526000000002,0.07989483,-0.05219796,0.12676647,-20.88,24.42,26.94
1554107599954,-2.4899697,-9.47206,-1.4802152,-0.08522116,-0.025566347000000003,0.11504856,-20.82,24.78,26.88
1554107599974,-2.4468741,-9.749788,-1.8106151000000001,-0.0010652645,-0.01917476,0.11504856,-20.7,25.14,26.82
1554107599995,-2.432509,-9.227852,-2.1697452,0.12144015,-0.0010652645,0.12996227,-20.58,25.38,26.82
1554107600015,-2.4851813,-9.227852,-1.8872293999999998,0.12037488,0.018109497,0.101200126,-20.46,25.56,26.76
1554107600035,-2.6719291000000003,-9.366715,-1.6478093,-0.00958738,0.029827405,0.1107875,-20.4,25.68,26.7
1554107600055,-2.4516625,-9.543886,-1.882441,-0.08522116,0.014913702,0.13102753,-20.28,25.68,26.64
1554107600074,-2.4899697,-9.141661000000001,-2.1458032000000005,0.05965481,0.007456851,0.096939065,-20.22,25.62,26.64
1554107600094,-2.2361843999999995,-8.926183,-1.939902,0.17576863,0.017044231,0.07350325,-20.22,25.56,26.58
1554107600114,-2.6623523,-9.1272955,-1.5616181,0.027696876000000002,0.004261058,0.05006743,-20.16,25.5,26.52
1554107600135,-2.5378537,-9.558251,-1.4275428,-0.018109497,-0.020240024,0.06711166,-20.16,25.44,26.46
1554107600154,-2.5713725,-9.371504,-1.5472529,0.15446335,-0.041545313,0.047936900000000005,-20.16,25.44,26.4
1554107600175,-2.5091232999999997,-9.299678,-2.0548236,0.32810146,-0.049002163,0.034088463,-20.16,25.5,26.4
1554107600194,-2.5953147,-9.44333,-1.4562732,0.30999196,-0.037284255,0.034088463,-20.16,25.68,26.4
1554107600215,-2.657564,-9.615712,-1.4083891000000002,0.2908172,-0.040480047000000005,0.03089267,-20.1,25.92,26.4
1554107600235,-2.566584,-9.381081,-1.9973627,0.36112466,-0.03834952,0.049002163,-20.04,26.16,26.4
1554107600255,-2.6288335,-8.988432000000001,-1.4945803999999998,0.46019423,-0.012783173500000002,0.023435817999999997,-20.04,26.46,26.4
1554107600275,-2.72939,-8.705916,-1.3078326999999998,0.2609898,-0.007456851,0.02876214,-19.98,26.7,26.4
1554107600294,-2.6862943,-9.467272,-1.1019313,0.043675844000000005,0.002130529,0.04261058,-19.92,27.0,26.34
1554107600314,-2.695871,-10.003573,-1.3700819,0.2130529,-0.0053263223,0.01917476,-19.92,27.3,26.28
1554107600334,-2.657564,-9.223063,-1.2503718000000001,0.50387007,-0.0010652645,0.013848438000000001,-19.92,27.6,26.16
1554107600354,-2.633622,-8.940548,-1.513734,0.5294364,0.004261058,0.01917476,-19.86,27.78,26.1
1554107600375,-2.7102362999999996,-9.510367,-1.2312181999999998,0.25353295,0.024501082,0.047936900000000005,-19.86,28.02,25.98
1554107600395,-2.944868,-9.663596,-0.8050503000000001,0.165116,0.026631612000000002,0.05752428,-19.86,28.32,25.86
1554107600415,-2.9879637000000003,-8.998009,-0.24959552,0.23861924,0.018109497,0.04261058,-19.86,28.62,25.68
1554107600434,-2.7724855,-8.729858,-1.1976993999999999,0.15126756,-0.0063915867,0.039414786,-19.8,28.92,25.56
1554107600454,-2.825158,-9.136872,-0.96785605,-0.029827405,0.010652645,0.035153727999999995,-19.8,29.22,25.44
1554107600475,-2.873042,-9.7641535,-1.0301052,-0.058589544,0.007456851,0.013848438000000001,-19.8,29.4,25.38
1554107600495,-2.954445,-9.041103999999999,-1.039682,0.080960095,0.0053263223,0.012783173500000002,-19.8,29.52,25.26
1554107600515,-2.9496564999999997,-8.634089,-0.4842273,-0.026631612000000002,0.024501082,-0.004261058,-19.74,29.7,25.14
1554107600534,-2.9113493,-8.84478,-1.5520413,-0.28442562,0.01917476,0.008522116,-19.74,29.76,25.02
1554107600555,-2.8155810000000003,-8.749011999999999,-1.1258733,-0.386691,0.03834952,-0.008522116,-19.74,29.76,24.9
1554107600574,-2.7868507,-9.855133,-1.2743138,-0.37816888,0.051132694000000006,-0.012783173500000002,-19.68,29.76,24.84
1554107600594,-2.9496564999999997,-10.108918,-1.5041572,-0.29614353,0.07030745599999999,-0.014913702,-19.62,29.76,24.84
1554107600615,-3.098097,-8.959702,-0.55126494,-0.32597092,0.09374327,0.00958738,-19.62,29.7,24.84
1554107600634,-2.7341783,-9.247005,-1.4466964,-0.49108690000000005,0.09587380000000001,0.026631612000000002,-19.56,29.64,24.96
1554107600656,-2.8874072999999996,-9.361927,-1.8920178,-0.49215218,0.08522116,0.049002163,-19.56,29.58,25.08
1554107600674,-2.705448,-9.467272,-1.3796587,-0.40906155,0.08735169,0.058589544,-19.56,29.46,25.26
1554107600695,-2.8969840000000002,-9.44333,-1.2360066,-0.31851408,0.10226539,0.046871635999999994,-19.5,29.22,25.38
1554107600714,-2.882619,-9.251794,-1.5472529,-0.27483824,0.111852765,0.047936900000000005,-19.5,28.92,25.56
1554107600734,-2.8491,-9.47206,-1.5233108,-0.24394555,0.12463594,0.024501082,-19.56,28.62,25.68
1554107600755,-2.9352913,-9.539098,-1.738789,-0.14487597,0.13102753,-0.011717908999999999,-19.56,28.32,25.8
1554107600774,-2.8060042999999997,-8.634089,-1.0875661,-0.15446335,0.15126756,-0.017044231,-19.62,28.02,25.86
1554107600794,-2.8395232999999998,-8.667608,-1.834557,-0.36645097,0.12037488,-0.09374327,-19.68,27.48,25.92
1554107600815,-2.753332,-9.045893,-1.513734,-0.4878911,0.12676647,-0.09054748,-19.68,27.3,25.92
1554107600835,-2.7772740000000002,-9.500791,-1.7531542000000002,-0.47936899999999993,0.15978967,-0.11504856,-19.68,26.82,25.98
1554107600854,-2.6719291000000003,-9.294889,-1.939902,-0.48149952,0.18535602,-0.084155895,-19.68,26.7,25.98
1554107600875,-2.8443117,-9.170391,-2.0452468,-0.37390783,0.24714136,-0.113983296,-19.74,26.34,26.04
1554107600895,-2.7341783,-9.558251,-2.3421277999999996,-0.31957933,0.26525086,-0.09587380000000001,-19.8,25.86,26.22
1554107600915,-2.9209259999999997,-9.309255,-2.9789855,-0.4314321,0.26631612,-0.015978966,-19.86,25.44,26.28
1554107600934,-3.0071173,-9.428965,-2.4426842,-0.49854377,0.27164245,-0.004261058,-19.98,25.02,26.4
1554107600954,-2.9879637000000003,-9.304466,-2.6150667999999997,-0.46765109999999993,0.28442562,0.0053263223,-20.1,24.6,26.52
1554107600975,-3.1364042999999997,-9.663596,-2.5528176,-0.350472,0.27590349999999997,0.024501082,-20.28,24.18,26.64
1554107600995,-3.1076740000000003,-9.639654,-2.2080526000000003,-0.05752428,0.25672874,0.014913702,-20.46,23.76,26.76
1554107601015,-3.0693667000000002,-9.649231,-2.4905684,0.26418558,0.24927188,0.029827405,-20.64,23.4,26.88
1554107601035,-3.217807,-9.381081,-2.8832173,0.3717773,0.24074976,0.07137272,-20.82,23.1,27.0
1554107601054,-3.083732,-8.916606,-3.0172927000000005,0.22583607,0.22050974,0.11930962,-21.0,22.8,27.06
1554107601074,-3.3327288999999998,-9.20391,-2.6964695,0.07989483,0.19813919,0.112918034,-21.24,22.68,27.12
1554107601095,-3.1747115000000004,-9.543886,-2.2750902,0.08628642,0.15659387,0.13528858,-21.36,22.5,27.18
1554107601115,-3.2082303,-9.577405,-2.3995886000000004,0.2876214,0.12996227,0.14913702,-21.54,22.44,27.24
1554107601134,-3.2800562000000006,-9.371504,-2.5145104,0.45699844,0.1107875,0.1587244,-21.66,22.5,27.24
1554107601154,-3.1124623,-9.012374000000001,-2.6677392,0.6530071,0.08948222,0.15765914,-21.84,22.62,27.18
1554107601175,-3.1555579,-9.017161999999999,-2.3373394,0.6743124,0.06285059999999999,0.1470065,-22.02,22.8,27.18
1554107601194,-3.2800562000000006,-8.839992,-2.404377,0.6849651,0.039414786,0.13741912,-22.14,23.04,27.18
1554107601214,-3.0454244999999998,-8.485649,-2.5576060000000003,0.54648066,0.029827405,0.13102753,-22.26,23.34,27.12
1554107601235,-3.1364042999999997,-8.72507,-1.882441,0.4261058,0.039414786,0.10013486,-22.38,23.7,27.06
1554107601255,-3.169923,-8.772953999999999,-1.3221979,0.4165184,0.037284255,0.05965481,-22.5,24.12,26.94
1554107601274,-3.1507695,-8.782531,-2.1841104,0.34834146,-0.013848438000000001,0.026631612000000002,-22.62,24.72,26.82
1554107601294,-3.1364042999999997,-9.136872,-2.6437972000000003,0.3057309,-0.05965481,0.0,-22.68,25.26,26.76
1554107601314,-2.882619,-9.227852,-1.6286557,0.4016047,-0.010652645,0.00958738,-22.62,25.74,26.64
1554107601335,-3.122039,-8.409035000000001,-1.049259,0.54648066,0.007456851,-0.036218993,-22.62,26.16,26.46
1554107601355,-3.098097,-8.772953999999999,-2.212841,0.3749731,-0.051132694000000006,-0.043675844000000005,-22.5,26.58,26.28
1554107601375,-2.8921957000000003,-10.003573,-1.5472529,0.16192019,-0.023435817999999997,-0.007456851,-22.44,26.88,26.16
1554107601395,-3.2321722999999998,-9.35235,-0.9343372,0.49321744,-0.00958738,-0.022370555,-22.38,27.24,26.1
1554107601415,-2.858677,-8.533533,-1.3030443,0.60293967,-0.010652645,-0.00958738,-22.32,27.48,26.04
1554107601435,-3.2369606,-8.897452000000001,-1.0636241000000002,0.38775626,-0.014913702,-0.03195793,-22.26,27.66,25.98
1554107601454,-3.4284968,-9.050680999999999,-0.99658644,0.1438107,-0.025566347000000003,0.002130529,-22.2,27.84,25.92
1554107601474,-3.098097,-9.299678,-1.7292121999999999,0.09374327,-0.043675844000000005,0.013848438000000001,-22.2,28.02,25.8
1554107601495,-3.169923,-9.395446000000002,-1.0444705,0.12250541,-0.023435817999999997,0.008522116,-22.14,28.26,25.62
1554107601515,-3.3854012000000004,-9.247005,-0.9439139999999999,0.14913702,-0.02876214,0.022370555,-22.08,28.56,25.5
1554107601534,-3.3135752999999997,-9.088988,-1.1402385,0.098004326,-0.037284255,0.023435817999999997,-22.08,28.86,25.32
1554107601555,-3.2609026,-8.978855000000001,-1.1115081,0.053263225,-0.04474111,0.0053263223,-22.08,29.22,25.14
1554107601575,-3.241749,-8.93576,-1.1498153,-0.011717908999999999,-0.039414786,-0.0053263223,-22.08,29.58,24.9
1554107601594,-3.2800562000000006,-9.366715,-1.0253168,-0.06498113,-0.039414786,-0.012783173500000002,-22.14,30.0,24.66
1554107601614,-3.4093432,-9.491214,-0.6278794,-0.046871635999999994,-0.029827405,-0.0053263223,-22.14,30.12,24.6
1554107601634,-3.3470940000000002,-8.940548,-1.2024878,0.036218993,-0.025566347000000003,0.0,-22.14,30.48,24.42
1554107601655,-3.3854012000000004,-9.021951,-1.4036007,-0.03195793,-0.01917476,-0.004261058,-22.14,30.6,24.42
1554107601674,-3.3518825,-9.069835000000001,-1.4371196000000002,-0.18429075,-0.008522116,-0.008522116,-22.14,30.72,24.42
1554107601695,-3.4093432,-8.897452000000001,-1.0540473,-0.3898868,-0.007456851,0.0010652645,-22.08,30.78,24.36
1554107601715,-3.3566709,-9.256582,-1.0348936,-0.41971418,-0.018109497,-0.0031957934000000003,-22.02,30.72,24.42
1554107601734,-3.1651347000000003,-9.35235,-0.9343372,-0.32384038,-0.027696876000000002,0.010652645,-22.02,30.66,24.42
1554107601755,-3.1747115000000004,-8.940548,-1.4371196000000002,-0.18216023,-0.025566347000000003,-0.022370555,-21.9,30.42,24.48
1554107601775,-3.1794999,-9.141661000000001,-1.441908,-0.28549087,-0.020240024,-0.037284255,-21.84,30.3,24.54
1554107601795,-3.2848446000000004,-8.772953999999999,-1.7866731,-0.36112466,-0.034088463,-0.027696876000000002,-21.78,30.12,24.54
1554107601814,-3.0597897,-8.959702,-1.7818846999999998,-0.43036684,-0.039414786,-0.025566347000000003,-21.78,30.0,24.66
1554107601834,-3.2848446000000004,-9.270947,-1.4802152,-0.42717105,-0.036218993,-0.05965481,-21.72,29.82,24.72
1554107601855,-3.1842883,-9.026739,-1.489792,-0.29294774,-0.033023197000000004,-0.06285059999999999,-21.66,29.64,24.9
1554107601875,-3.2273839,-8.710705,-1.5520413,-0.29188246,-0.017044231,-0.084155895,-21.6,29.52,25.02
1554107601895,-3.2800562000000006,-8.81605,-1.9063831999999998,-0.39201729999999996,0.007456851,-0.07669904,-21.6,29.4,25.2
1554107601914,-3.1651347000000003,-8.993219999999999,-1.8680758000000002,-0.44101948,0.025566347000000003,-0.06711166,-21.54,29.22,25.32
1554107601935,-3.265691,-8.930971000000001,-1.939902,-0.44208476,0.03834952,-0.09054748,-21.54,29.04,25.44
1554107601955,-3.193865,-9.256582,-1.6382325,-0.38136467,0.05965481,-0.099069595,-21.54,28.68,25.56
1554107601974,-3.145981,-9.007586,-1.8584990000000001,-0.25353295,0.05539375,-0.111852765,-21.54,28.26,25.62
1554107601994,-3.1268275,-8.883087,-2.284667,-0.27696875,0.054328485999999995,-0.11717909,-21.54,27.78,25.68
1554107602015,-3.1124623,-8.792108,-2.5432408,-0.3898868,0.049002163,-0.11824436,-21.6,27.36,25.74
1554107602034,-3.0310593,-8.863934,-2.3181857999999997,-0.47191215,0.05752428,-0.12996227,-21.72,26.88,25.74
1554107602055,-3.0693667000000002,-9.055469500000001,-2.1936872000000003,-0.4644553,0.06604639400000001,-0.13848437,-21.84,26.4,25.8
1554107602076,-3.1076740000000003,-8.983644,-2.2990322,-0.42184472,0.07669904,-0.14061491,-21.9,25.92,25.8
1554107602094,-2.96881,-9.036316000000001,-2.3517046,-0.406931,0.07882957,-0.13635385,-21.96,25.38,25.86
1554107602114,-2.8874072999999996,-8.978855000000001,-2.830545,-0.37390783,0.07563378,-0.13315806,-22.08,24.96,26.04
1554107602134,-2.906561,-9.141661000000001,-2.7204118,-0.30040458,0.06604639400000001,-0.13848437,-22.14,24.6,26.28
1554107602155,-2.96881,-9.1033535,-2.5432408,-0.15552860000000002,0.06391586,-0.15339808,-22.2,24.36,26.46
1554107602174,-2.906561,-8.820838,-2.7730842,-0.041545313,0.06924219,-0.17257284,-22.2,24.0,26.64
1554107602195,-2.858677,-8.595782,-2.7874494,-0.05539375,0.05965481,-0.20559604,-22.2,23.7,26.82
1554107602216,-2.9017725,-8.715492999999999,-2.830545,-0.15765914,0.05219796,-0.22796659,-22.2,23.34,27.0
1554107602235,-2.7341783,-8.787319,-2.8113914,-0.21411815,0.039414786,-0.25033715,-22.2,23.1,27.18
1554107602255,-2.7581203,-8.806473,-2.9789855,-0.20879184,0.02876214,-0.2695119,-22.26,22.92,27.36
1554107602275,-2.7102362999999996,-8.782531,-3.208829,-0.2066613,0.01917476,-0.2972088,-22.38,22.74,27.48
1554107602295,-2.6767175,-8.806473,-3.1609447,-0.21837921,0.010652645,-0.33129725,-22.44,22.56,27.42
1554107602315,-2.6192567,-8.705916,-2.9646204,-0.23116238,0.0031957934000000003,-0.36325517,-22.5,22.32,27.42
1554107602335,-2.4899697,-8.854357,-3.1322143,-0.2609898,-0.008522116,-0.39308259999999995,-22.62,21.96,27.42
1554107602354,-2.4133554,-8.811261,-3.0747535,-0.28868666,-0.029827405,-0.42290998,-22.68,21.6,27.36
1554107602374,-2.4229321,-8.978855000000001,-3.2950199999999996,-0.3270362,-0.036218993,-0.43782368,-22.74,21.3,27.36
1554107602395,-2.3415293999999998,-8.921394,-3.3381157,-0.37710363,-0.036218993,-0.44421527,-22.8,21.0,27.36
1554107602415,-2.3463178,-9.0315275,-3.3955764999999998,-0.40586576,-0.018109497,-0.46339005,-22.98,20.58,27.36
1554107602434,-2.2170308,-9.026739,-3.4147300000000005,-0.41864893,-0.012783173500000002,-0.46125950000000004,-23.04,20.4,27.36
1554107602454,-2.2026656000000004,-9.184756,-3.2471360000000002,-0.39947417,0.008522116,-0.45486793,-23.16,20.1,27.42
1554107602474,-2.1164744,-9.160814,-3.3812113,-0.36645097,0.02876214,-0.42930159999999995,-23.34,19.68,27.42
1554107602495,-2.111686,-9.1272955,-3.5631707,-0.32597092,0.041545313,-0.40586576,-23.52,19.02,27.6
1554107602514,-2.0590134,-9.237428999999999,-3.6541502,-0.29614353,0.053263225,-0.39947417,-23.58,18.84,27.6
1554107602535,-1.9919758,-9.213486999999999,-3.7403417,-0.29614353,0.05539375,-0.38456047,-23.7,18.42,27.72
1554107602555,-2.0494366000000004,-9.065046,-3.697246,-0.32597092,0.07243799,-0.37284255,-23.82,18.06,27.78
1554107602575,-1.9297266,-9.088988,-3.8839936,-0.38456047,0.08735169,-0.36325517,-23.88,17.46,27.9
1554107602594,-1.8770541,-9.041103999999999,-3.9079356,-0.42184472,0.094808534,-0.36325517,-23.94,17.04,27.96
1554107602615,-1.7956512999999998,-9.098564999999999,-3.7403417,-0.4133226,0.08841695,-0.3685815,-24.06,16.74,27.96
1554107602634,-1.6759412,-9.314043,-3.7786489000000003,-0.36218992,0.083090626,-0.37071204,-24.18,16.38,28.02
1554107602654,-1.6711528000000002,-9.390657000000001,-3.888782,-0.27696875,0.07030745599999999,-0.36218992,-24.36,15.9,27.96
1554107602674,-1.5897499,-9.251794,-4.013280399999999,-0.221575,0.06178534,-0.350472,-24.54,15.48,27.96
1554107602694,-1.5514427,-9.1272955,-3.9414546,-0.23116238,0.04261058,-0.34301516,-24.66,15.06,27.96
1554107602715,-1.4987701999999998,-9.223063,-3.8025907999999995,-0.24607609,0.020240024,-0.34301516,-24.84,14.7,27.96
1554107602735,-1.4604629999999998,-9.414599,-3.793014,-0.13422333,0.0063915867,-0.32597092,-25.02,14.28,27.96
1554107602756,-1.412579,-9.304466,-4.0084919999999995,0.043675844000000005,-0.010652645,-0.2876214,-25.14,13.98,28.02
1554107602774,-1.3790601,-9.050680999999999,-4.1904516,0.12996227,-0.00958738,-0.25033715,-25.26,13.68,28.02
1554107602795,-1.340753,-9.041103999999999,-4.089895200000001,0.06285059999999999,0.011717908999999999,-0.21944448,-25.26,13.56,28.02
1554107602815,-1.3311761999999998,-8.988432000000001,-4.1425676,0.041545313,0.01917476,-0.2066613,-25.26,13.62,28.02
1554107602835,-1.2689268999999999,-8.969278,-4.300585,0.027696876000000002,0.04580637,-0.16831179,-25.32,13.56,28.08
1554107602855,-1.3215994,-8.897452000000001,-4.3819875999999995,0.02130529,0.068176925,-0.15126756,-25.38,13.5,28.08
1554107602875,-1.3024458,-8.988432000000001,-4.458602,0.010652645,0.08841695,-0.13422333,-25.44,13.44,28.14
1554107602895,-1.2545617,-9.170391,-4.415506400000001,-0.017044231,0.101200126,-0.10972224,-25.44,13.32,28.14
1554107602914,-1.2976573999999998,-9.132083999999999,-4.2862196,-0.035153727999999995,0.096939065,-0.08841695,-25.5,13.26,28.08
1554107602935,-1.3886370000000001,-9.179967999999999,-4.3676224,-0.017044231,0.08522116,-0.05539375,-25.56,13.14,28.08
1554107602955,-1.1779473,-9.189544999999999,-4.4059295999999994,-0.0031957934000000003,0.07137272,-0.029827405,-25.62,13.08,28.08
1554107602975,-1.2162545,-9.223063,-4.3819875999999995,-0.02130529,0.054328485999999995,-0.00958738,-25.68,13.02,28.08
1554107602995,-1.2114661,-9.170391,-4.180875,-0.05006743,0.033023197000000004,0.002130529,-25.74,13.02,28.02
1554107603014,-1.292869,-9.314043,-4.243124,-0.05006743,0.0053263223,0.0053263223,-25.8,12.96,28.02
1554107603034,-1.2689268999999999,-9.275736,-3.9989154,-0.026631612000000002,-0.026631612000000002,0.011717908999999999,-25.8,12.96,27.96
1554107603054,-1.1971009,-9.270947,-4.022857,0.02130529,-0.051132694000000006,0.011717908999999999,-25.86,12.9,28.02
1554107603075,-1.2210428999999998,-9.280524,-3.9989154,0.054328485999999995,-0.07882957,0.007456851,-25.86,12.78,28.02
1554107603096,-1.1492168,-9.318831,-4.0467997,0.08841695,-0.10333065,0.020240024,-25.86,12.72,28.02
1554107603114,-1.1779473,-9.35235,-4.209605000000001,0.11824436,-0.11930962,0.035153727999999995,-25.86,12.6,28.02
1554107603134,-1.2210428999999998,-9.371504,-4.152144399999999,0.13848437,-0.12676647,0.056459017,-25.92,12.54,28.02
1554107603154,-1.2066777,-9.366715,-4.252701,0.15233281,-0.12357068,0.08841695,-25.92,12.48,28.02
1554107603174,-1.3982137,-9.261371,-4.252701,0.16405073,-0.112918034,0.12037488,-25.92,12.48,28.02
1554107603195,-1.4269443000000002,-9.414599,-4.353257,0.14168017,-0.10759171,0.16724652,-25.92,12.54,28.02
1554107603215,-1.5083469999999999,-9.337985,-4.4538136,0.11824436,-0.10333065,0.20772657,-25.98,12.6,28.02
1554107603234,-1.5035586,-9.108141999999999,-4.2957964,0.07243799,-0.10226539,0.24820662,-25.98,12.78,28.02
1554107603254,-1.5801731,-9.165602999999999,-4.300585,0.041545313,-0.111852765,0.27696875,-25.92,13.02,28.02
1554107603275,-1.6759412,-9.136872,-4.233547,0.08841695,-0.13102753,0.30999196,-25.92,13.32,28.08
1554107603295,-1.6519991000000003,-9.20391,-4.1904516,0.1587244,-0.14487597,0.3153183,-25.86,13.5,28.08
1554107603315,-1.6807296000000003,-9.11293,-3.888782,0.19068234,-0.16085494,0.314253,-25.8,13.56,28.08
1554107603334,-1.7669207999999998,-9.1272955,-3.888782,0.18961707,-0.19174760000000002,0.3174488,-25.62,13.74,28.08
1554107603354,-1.8770541,-8.959702,-3.6206315000000004,0.18322548,-0.23009712,0.30679616,-25.32,13.92,28.08
1554107603375,-2.1308396000000003,-9.065046,-3.5966894999999997,0.17576863,-0.26738137,0.29294774,-25.08,14.04,28.08
1554107603394,-2.1643584,-9.045893,-3.8361096,0.16192019,-0.29933932,0.28229508,-24.9,14.1,28.08
1554107603415,-2.2601264,-9.026739,-3.6493617999999994,0.14487597,-0.330232,0.28122982,-24.72,14.22,28.08
1554107603435,-2.4133554,-9.1033535,-3.840898,0.12996227,-0.3536678,0.28336033,-24.54,14.4,28.08
1554107603454,-2.5905263,-9.333197,-4.013280399999999,0.12037488,-0.37071204,0.30253512,-24.36,14.64,28.08
1554107603474,-2.7581203,-9.433753,-4.180875,0.14913702,-0.39734364,0.32490566,-24.3,14.76,28.08
1554107603495,-3.0310593,-9.725846,-4.228758999999999,0.18429075,-0.4314321,0.4048005,-24.12,15.18,28.08
1554107603514,-3.1364042999999997,-9.596559,-4.3101616,0.12570119999999999,-0.47297743,0.4889564,-23.94,15.42,28.08
1554107603535,-3.4380736000000005,-9.654019,-4.386776,0.029827405,-0.535828,0.572047,-23.7,15.66,28.02
1554107603554,-3.6343982000000006,-9.903017,-4.247912400000001,-0.06391586,-0.6221144000000001,0.6892261,-23.28,15.96,28.02
1554107603575,-3.9456443999999995,-10.25257,-4.0994720000000004,0.06285059999999999,-0.7499462,0.7882956999999999,-22.86,16.2,28.02
1554107603595,-4.0701427,-10.099341,-3.8983587999999996,0.19920446,-0.83516735,0.8543421,-22.32,16.44,28.02
1554107603615,-4.2425256,-10.22384,-3.5727474999999997,0.36964676,-0.9534117,0.9470200999999999,-21.66,16.56,28.02
1554107603635,-4.376600700000001,-9.974843,-3.232771,0.5049353,-1.0759171,1.0386329,-20.88,16.74,28.08
1554107603655,-4.6495394999999995,-9.721058,-2.7970262000000004,0.6849651,-1.2080098,1.1302456,-20.1,16.92,28.08
1554107603674,-4.673482,-9.601347,-2.7252002,0.793622,-1.2740563,1.1835088,-19.32,17.1,28.08
1554107603695,-5.023035,-9.395446000000002,-2.0644004000000002,0.9864349,-1.3646038,1.2772521000000001,-18.6,17.52,28.02
1554107603715,-5.1523223,-9.021951,-2.083554,1.1142666,-1.3997575,1.320928,-17.94,18.06,28.02
1554107603734,-5.1571107000000005,-8.744224,-1.8010383,1.1941614,-1.4242586000000002,1.3986923,-17.04,18.72,27.84
1554107603754,-5.291186,-8.519167999999999,-1.7004818,1.1909657,-1.442368,1.4519554,-16.08,19.5,27.66
1554107603775,-5.592855,-8.169615,-1.3940238999999999,1.2144015,-1.4370418,1.4966966,-15.0,20.46,27.42
1554107603794,-5.750872599999999,-7.997232400000001,-1.1210848999999998,1.2058792999999999,-1.4221281000000001,1.5339808000000001,-13.98,21.48,27.12
1554107603814,-5.6790465999999995,-7.4322004,-0.8960299999999999,1.2346416,-1.3827133,1.5648735,-12.78,22.44,26.88
1554107603835,-5.765238,-6.929417999999999,-0.65660983,1.2080098,-1.3507552999999999,1.5712651000000002,-11.46,23.4,26.46
1554107603854,-5.741296,-6.819285000000001,-0.077213004,1.1558118999999998,-1.2996226999999998,1.5712651000000002,-10.14,24.06,25.98
1554107603874,-5.779603,-6.675633,0.6027403,1.1515508999999997,-1.2442288000000001,1.5403723999999999,-8.64,24.66,25.32
1554107603895,-6.1195793,-6.321291,0.9044097,1.2410331000000001,-1.1792477,1.4924355,-7.32,25.08,24.6
1554107603915,-6.167464,-5.895123,1.1917138999999999,1.2655341999999998,-1.107875,1.4636733999999998,-6.06,25.5,23.88
1554107603935,-6.019023000000001,-5.5168395,1.4598645000000001,1.2144015,-1.0343717,1.4104101999999998,-4.86,25.98,23.16
1554107603955,-6.320692500000001,-5.382764,2.1015105,1.1984226,-0.95660746,1.3198626,-3.72,26.4,22.32
1554107603976,-6.26802,-5.229535,2.3361422999999997,1.2793826000000001,-0.8969527,1.2218584,-2.7,26.82,21.48
1554107603995,-6.26802,-4.5687356,2.8006175,1.3081448,-0.8341021000000001,1.1217233999999998,-1.62,27.18,20.64
1554107604014,-6.2967505,-4.200028400000001,2.9442697,1.2410331000000001,-0.7637946,1.0173275,-0.6,27.54,19.86
1554107604034,-6.5601125,-4.0994720000000004,3.0735563999999997,1.196292,-0.69348717,0.86499476,0.24,27.84,19.02
1554107604055,-6.813898,-3.840898,3.1836896,1.176052,-0.608266,0.7105314,1.02,28.14,18.24
1554107604074,-6.823475,-3.5727474999999997,3.020884,1.0290455,-0.52411014,0.6359629,1.8,28.26,17.52
1554107604094,-7.0341644,-3.7211879999999997,2.9873652,0.74675035,-0.43675843,0.55074173,2.46,28.2,16.8
1554107604114,-7.4507556,-3.7499184999999997,3.614646,0.46339005,-0.33768883,0.46232477,3.06,28.14,16.02
1554107604134,-7.28795,-3.816956,3.9115269999999995,0.37284255,-0.25672874,0.43569317,3.54,28.14,15.3
1554107604155,-7.603985000000001,-3.7403417,3.7152026,0.350472,-0.20559604,0.39095205,3.9,28.08,14.64
1554107604175,-7.833828,-3.6014779000000003,3.4326867999999995,0.28122982,-0.19387813,0.37071204,4.2,28.08,14.1
1554107604194,-7.7667904000000005,-3.6589386,4.117428299999999,0.17896444,-0.18535602,0.34940675,4.68,28.14,13.62
1554107604215,-7.522581599999999,-3.8456864,4.395156,0.22583607,-0.18535602,0.3057309,4.86,28.14,13.44
1554107604235,-7.7189064,-3.1992521000000003,4.3807906999999995,0.34301516,-0.15978967,0.25566345,5.1,28.2,13.14
1554107604255,-7.5034279999999995,-2.7922377999999997,4.117428299999999,0.18429075,-0.15659387,0.22796659,5.4,28.2,12.84
1554107604275,-7.1873937,-3.4386723,4.7830167,-0.12037488,-0.14807177,0.12676647,5.64,28.2,12.48
1554107604294,-6.8905125,-3.697246,4.936245400000001,0.0010652645,-0.17363810000000002,0.07669904,5.82,28.14,12.24
1554107604315,-7.335833999999999,-3.6014779000000003,3.7870286,0.35153726,-0.20559604,-0.020240024,5.94,28.08,12.0
1554107604335,-7.7811556,-4.6022544000000005,2.7287915000000003,0.5390238,-0.23116238,-0.012783173500000002,6.0,28.02,11.76
1554107604354,-8.236053,-4.578312400000001,3.6242227999999996,0.40266997,-0.2034655,0.11930962,6.06,27.9,11.52
1554107604374,-8.437167,-3.4195184999999997,3.9163153,0.24074976,-0.16618125,0.19068234,6.12,27.84,11.34
1554107604394,-8.346188,-3.6014779000000003,4.6920366,-0.10972224,-0.08522116,0.29614353,6.18,27.72,11.22
1554107604414,-8.599973,-3.4578260000000003,4.8500543,0.03089267,-0.06285059999999999,0.29933932,6.3,27.66,11.16
1554107604435,-8.37013,-3.0747535,5.099051,0.33875409999999995,-0.03195793,0.330232,6.42,27.54,11.16
1554107604454,-8.049306,-2.806603,4.7494974,0.46125950000000004,-0.025566347000000003,0.34088463,6.54,27.54,11.16
1554107604474,-7.929596000000001,-2.9167361,4.56275,0.28442562,-0.02876214,0.37284255,6.66,27.54,11.04
1554107604495,-7.785944000000001,-3.1848867000000003,4.6441526,0.113983296,-0.022370555,0.34194988,6.84,27.54,10.86
1554107604515,-7.5369470000000005,-3.0268695,4.969764,0.19174760000000002,0.0063915867,0.31638354,7.02,27.48,10.68
