TimeStamp,Ax,Ay,Az,Gx,Gy,Gz,Mx,My,Mz
1554207614909,-9.059659,-2.404377,2.082357,-0.35260254,-0.04580637,-0.023435817999999997,4.32,16.02,-47.04
1554207614928,-9.002198,-2.5959132,2.0248961,-0.4250405,-0.06178534,-0.039414786,4.38,16.2,-47.1
1554207614949,-9.150639,-2.6677392,2.2643162999999995,-0.4133226,-0.06604639400000001,-0.041545313,4.38,16.32,-47.1
1554207614969,-9.222465,-2.8113914,2.5516205000000003,-0.31105720000000003,-0.06285059999999999,-0.039414786,4.44,16.32,-47.16
1554207614988,-9.121908,-2.8018146,2.321777,-0.18002969,-0.051132694000000006,-0.04261058,4.5,16.38,-47.16
1554207615008,-9.198523,-2.7635074,2.3744495,-0.08948222,-0.035153727999999995,-0.029827405,4.62,16.5,-47.16
1554207615028,-9.174581,-2.7778726000000002,2.297835,-0.035153727999999995,-0.015978966,0.0,4.68,16.68,-47.22
1554207615048,-9.050082000000002,-2.4953567999999997,2.4941597,-0.0053263223,-0.012783173500000002,0.017044231,4.74,16.98,-47.16
1554207615069,-8.973467999999999,-2.6102784,2.3936029999999997,0.07882957,-0.002130529,0.010652645,4.74,17.16,-47.1
1554207615089,-9.169792,-2.3517046,2.4271219,0.10226539,0.011717908999999999,0.0031957934000000003,4.74,17.22,-47.1
1554207615110,-9.188946000000001,-2.5576060000000003,2.0727801,0.068176925,0.0031957934000000003,0.00958738,4.74,17.46,-47.04
1554207615128,-9.102755,-2.5623944,2.307412,0.0031957934000000003,-0.002130529,0.02876214,4.74,17.58,-47.04
1554207615149,-8.868122999999999,-2.5432408,2.460641,0.025566347000000003,-0.012783173500000002,0.024501082,4.68,17.64,-47.04
1554207615169,-8.695741,-2.356493,2.5228900000000003,0.128897,-0.022370555,0.0010652645,4.68,17.64,-46.98
1554207615189,-8.5473,-2.3133974,2.168548,0.18109496,-0.027696876000000002,-0.022370555,4.62,17.64,-46.98
1554207615209,-8.6813755,-2.3277626000000002,2.1015105,0.165116,-0.049002163,-0.049002163,4.62,17.58,-46.98
1554207615229,-8.336611,-2.3708582000000002,2.1493945,0.12783173,-0.06711166,-0.096939065,4.62,17.58,-46.98
1554207615248,-8.6813755,-2.2894554,2.144606,0.18216023,-0.07882957,-0.20772657,4.62,17.58,-46.98
1554207615268,-8.772355000000001,-2.236783,2.202067,0.020240024,-0.11504856,-0.24714136,4.56,17.58,-46.92
1554207615288,-8.269572,-2.4091654,2.5516205000000003,-0.1438107,-0.15978967,-0.25992453,4.56,17.58,-46.92
1554207615308,-8.087613000000001,-2.4570496,2.949058,-0.09267801,-0.17257284,-0.33875409999999995,4.5,17.58,-46.92
1554207615328,-7.7667904000000005,-2.3660697999999996,2.8532897999999998,0.040480047000000005,-0.18961707,-0.4708469,4.5,17.64,-46.92
1554207615349,-7.3406224,-2.15538,3.0879216,0.22690132,-0.2034655,-0.6412892,4.44,17.64,-46.92
1554207615368,-6.9671270000000005,-2.083554,3.198055,0.41545314,-0.221575,-0.88203895,4.38,17.64,-46.92
1554207615388,-6.6367273,-2.0787656,2.891597,0.46978164,-0.257794,-1.1792477,4.32,17.64,-46.92
1554207615408,-6.253655,-1.8010383,2.6761188999999996,0.3653857,-0.36218992,-1.5680691999999998,4.2,17.64,-46.92
1554207615428,-5.990292500000001,-2.1266496,2.6617537000000002,0.29614353,-0.48363006,-1.9004318,4.02,17.64,-46.98
1554207615449,-5.592855,-2.5719712,2.8485014,0.3568636,-0.6263755,-2.267948,3.78,17.64,-47.04
1554207615469,-5.3390699999999995,-3.4003648999999996,2.8580782000000005,0.5305017,-0.76485986,-2.6429212000000004,3.42,17.58,-47.1
1554207615488,-4.9703627,-3.5631707,2.7287915000000003,0.62317973,-0.93636745,-2.9720879,3.0,17.58,-47.22
1554207615509,-4.6399627,-3.4865562999999993,2.3600842999999996,0.6892261,-1.1366372,-3.307646,2.4,17.4,-47.46
1554207615529,-4.213794999999999,-3.0747535,2.2930467,0.62104917,-1.365669,-3.7049897000000005,1.62,17.28,-47.64
1554207615549,-3.6487634,-3.2184057,2.2643162999999995,0.47723848,-1.619202,-4.120443,0.48,17.1,-47.94
1554207615569,-2.6671407000000005,-3.5392287000000002,2.4462755,0.26418558,-1.8674085999999999,-4.4741106,-0.78,16.86,-48.24
1554207615588,-1.6759412,-4.0707417,3.1405939999999997,0.07882957,-2.0698087,-4.744688,-2.16,16.62,-48.6
1554207615608,-0.7326256999999999,-4.7698483,3.8492777,0.07776430000000001,-2.1827269,-4.9769154,-3.78,16.2,-48.9
1554207615629,0.090979666,-5.8041434,3.9546227,0.11717909,-2.251969,-5.1548147,-5.7,15.54,-49.2
1554207615649,0.9624690999999999,-6.8863225,4.1461587,0.05965481,-2.324407,-5.235775,-7.8,14.76,-49.5
1554207615668,1.9249381999999997,-7.6668324000000005,4.577115,-0.07243799,-2.3222766,-5.2677325999999995,-9.9,13.92,-49.62
1554207615689,2.7964275,-8.552686999999999,4.7016134,-0.21944448,-2.2807312,-5.270928400000001,-11.94,12.84,-49.8
1554207615708,4.0078936,-9.0794115,4.926668599999999,-0.5656554,-2.2040322,-5.143097,-13.86,11.46,-49.86
1554207615731,5.616797,-9.922171,4.835689,-0.8490158000000001,-2.0399814,-4.9651976,-15.9,9.78,-49.92
1554207615749,6.8569937,-10.137649,5.156512,-0.9938916999999999,-1.8365159,-4.827778299999999,-18.12,7.74,-49.86
1554207615769,8.101977999999999,-10.860698,5.5347957999999995,-0.89588743,-1.5243934,-4.687164,-20.28,5.52,-49.62
1554207615789,9.524135000000001,-12.637196000000001,5.558737799999999,-0.59761333,-1.1888351000000001,-4.4315,-22.08,3.42,-49.32
1554207615808,10.323798,-12.397775,5.774216,-0.24074976,-0.8149273,-3.9009983999999998,-23.64,1.26,-48.96
1554207615828,9.883265,-10.903792999999999,5.3815669999999995,0.38349520000000004,-0.46019423,-3.4983284,-25.08,-0.96,-48.66
1554207615849,8.700529,-8.749011999999999,4.5962687,0.8021441,-0.32170987,-3.3683662000000005,-26.4,-3.24,-48.36
1554207615869,8.528147,-7.1209545,4.007295,0.70200926,-0.37710363,-3.125486,-27.84,-6.78,-47.88
1554207615889,8.978256,-6.713939999999999,4.040814,0.28868666,-0.43675843,-2.795254,-28.38,-9.24,-47.58
1554207615909,9.217675999999999,-6.345233,3.863643,-0.2428803,-0.47936899999999993,-2.4959147,-28.56,-11.58,-47.4
1554207615928,9.011775,-5.5407815000000005,3.7870286,-0.69029135,-0.4889564,-2.3371902,-28.68,-13.86,-47.4
1554207615948,8.738836000000001,-5.0571527000000005,3.7487214,-0.9768475000000001,-0.49428272,-2.2402509999999998,-28.74,-16.2,-47.4
1554207615969,8.767567,-4.9757495,3.8684312999999997,-1.1728562,-0.47936899999999993,-2.07407,-28.74,-17.28,-47.4
1554207615989,8.8777,-4.994903,3.8061821000000005,-1.3731258999999998,-0.44315,-1.8194717,-28.74,-19.26,-47.4
1554207616009,8.810661999999999,-4.7602715,3.6194344,-1.4413028,-0.4261058,-1.7289241999999998,-28.74,-21.78,-47.4
1554207616029,9.016563,-4.5016975,3.4183214,-1.4093448999999998,-0.42717105,-1.6969663000000001,-28.74,-22.38,-47.4
1554207616049,9.208099,-4.520851,3.4231097999999998,-1.2697952,-0.34834146,-1.510545,-28.74,-23.28,-47.4
1554207616068,9.251195,-4.520851,3.5140896,-1.0748518999999999,-0.25246766,-1.2495551999999999,-28.74,-23.88,-47.4
1554207616089,9.112331,-4.439448400000001,3.2794578000000003,-0.8628642,-0.21411815,-1.0237192,-28.74,-24.12,-47.4
1554207616109,9.006986999999999,-4.089895200000001,3.2411506,-0.73822826,-0.21624869,-0.89588743,-28.68,-24.12,-47.4
1554207616129,9.169792,-3.7834373,2.9538465,-0.6625945,-0.20453078,-0.75101143,-28.62,-24.12,-47.4
1554207616148,9.227253,-3.697246,2.9586349,-0.61678815,-0.15020229,-0.572047,-28.62,-24.0,-47.46
1554207616169,9.174581,-3.7307648999999996,2.7910407000000004,-0.6135923000000001,-0.09054748,-0.38775626,-28.56,-23.94,-47.52
1554207616189,9.208099,-3.74513,2.9394810000000002,-0.6466155,-0.06285059999999999,-0.20026971,-28.5,-23.82,-47.58
1554207616208,9.390058999999999,-3.7259765,3.1358056,-0.64341974,-0.05219796,-0.09161274,-28.44,-23.7,-47.64
1554207616229,9.423578,-3.8552632000000004,3.2650926,-0.5752428,-0.036218993,0.022370555,-28.38,-23.52,-47.7
1554207616248,9.461885,-3.8361096,3.3033997999999998,-0.43249738,0.02130529,0.16405073,-28.32,-23.28,-47.76
1554207616269,9.313444,-3.8456864,2.9969419999999998,-0.25246766,0.07989483,0.29294774,-28.26,-22.8,-47.82
1554207616288,9.016563,-3.7834373,2.9921536,-0.13848437,0.11824436,0.38882150000000004,-28.26,-22.32,-47.88
1554207616308,8.844180999999999,-3.6541502,3.020884,-0.07563378,0.12676647,0.44634579999999996,-28.2,-21.84,-47.94
1554207616329,8.662222,-3.4482489999999997,2.9921536,-0.03834952,0.12783173,0.46765109999999993,-28.2,-21.36,-48.06
1554207616348,8.604761,-3.4961330000000004,2.9059622000000003,0.012783173500000002,0.12996227,0.49960902,-28.2,-20.88,-48.12
1554207616369,8.767567,-3.5488055,2.9442697,0.16298546,0.128897,0.50813115,-28.14,-20.4,-48.12
1554207616388,8.939949,-3.6349967000000003,3.0017304,0.33768883,0.15446335,0.50813115,-28.14,-19.92,-48.18
1554207616408,8.820239,-3.5727474999999997,2.570774,0.49534798,0.16937704,0.4878911,-28.14,-19.56,-48.24
1554207616429,8.576031,-3.2902317,2.4702177000000005,0.55287224,0.16085494,0.47510794,-28.08,-19.32,-48.24
1554207616449,8.690952000000001,-3.2040405,2.2547395,0.4857606,0.12144015,0.49108690000000005,-27.96,-19.08,-48.3
1554207616469,8.686164,-3.1705215,2.4271219,0.3898868,0.082025364,0.49321744,-27.9,-18.9,-48.24
1554207616489,8.604761,-3.1657330000000004,2.5755625,0.34301516,0.06285059999999999,0.47404268,-27.84,-18.72,-48.24
1554207616509,8.580819,-3.1896752999999998,2.5372553,0.38136467,0.06711166,0.44741106,-27.72,-18.6,-48.24
1554207616529,8.485051,-3.141791,2.6569653,0.5028047999999999,0.07989483,0.39201729999999996,-27.66,-18.48,-48.3
1554207616549,8.437167,-2.9358897,2.5468319999999998,0.5933523,0.08522116,0.30999196,-27.6,-18.42,-48.3
1554207616571,8.470686,-2.7443538,2.4366987,0.60720074,0.06391586,0.21198763,-27.54,-18.48,-48.36
1554207616588,8.643068,-2.6485856,2.2882583,0.5400891,0.02876214,0.10439592,-27.54,-18.54,-48.42
1554207616608,8.676587,-2.6007016,2.144606,0.43782368,-0.0010652645,0.02130529,-27.54,-18.66,-48.42
1554207616629,8.7532015,-2.5049335999999998,2.0967221,0.24927188,-0.04580637,-0.09054748,-27.6,-18.84,-48.42
1554207616650,8.848969,-2.7491422,2.178125,0.05219796,-0.09267801,-0.19174760000000002,-27.66,-19.14,-48.42
1554207616668,8.973467999999999,-2.8401217,2.4319102999999997,-0.128897,-0.1107875,-0.24394555,-27.78,-19.44,-48.42
1554207616689,9.251195,-3.1705215,2.4366987,-0.25246766,-0.11930962,-0.26631612,-27.84,-19.68,-48.42
1554207616709,9.394848,-3.2902317,2.5995044999999997,-0.28336033,-0.098004326,-0.26525086,-27.96,-19.92,-48.42
1554207616728,9.337387,-3.3764230000000004,2.5803509,-0.24501082,-0.083090626,-0.25672874,-28.08,-20.16,-48.36
1554207616748,9.232041,-3.3620577000000003,2.6042929,-0.20879184,-0.094808534,-0.24927188,-28.2,-20.4,-48.42
1554207616769,9.121908,-3.3764230000000004,2.5755625,-0.1470065,-0.12144015,-0.21944448,-28.32,-20.7,-48.48
1554207616788,8.892064999999999,-3.3716345000000003,2.532467,-0.047936900000000005,-0.12250541,-0.19707392,-28.32,-20.76,-48.48
1554207616809,8.772355000000001,-3.4003648999999996,2.747945,0.03195793,-0.12144015,-0.18642128,-28.38,-20.82,-48.54
1554207616829,8.767567,-3.4099417,2.7096379,0.12037488,-0.113983296,-0.15552860000000002,-28.32,-20.82,-48.54
1554207616849,8.868122999999999,-3.2998084999999997,2.6665419999999997,0.13954964,-0.10972224,-0.113983296,-28.32,-20.82,-48.54
1554207616869,8.820239,-3.2471360000000002,2.5851393,0.096939065,-0.09267801,-0.08841695,-28.26,-20.88,-48.6
1554207616890,8.748413000000001,-3.4674027,2.6234465,0.07137272,-0.07137272,-0.08948222,-28.26,-20.94,-48.6
1554207616909,8.954314,-3.4338839999999995,2.5228900000000003,0.039414786,-0.040480047000000005,-0.09374327,-28.2,-21.0,-48.6
1554207616929,8.868122999999999,-3.4147300000000005,2.508525,-0.015978966,-0.011717908999999999,-0.112918034,-28.26,-21.12,-48.6
1554207616949,8.863335000000001,-3.3764230000000004,2.417545,-0.09374327,0.017044231,-0.13102753,-28.32,-21.24,-48.6
1554207616969,8.858546,-3.3189620000000004,2.5468319999999998,-0.15552860000000002,0.02130529,-0.12996227,-28.38,-21.3,-48.54
1554207616989,8.872911,-3.6445735,2.6426,-0.23435818,0.02130529,-0.12037488,-28.44,-21.54,-48.54
1554207617008,8.968679,-3.6637269999999997,2.867655,-0.19707392,0.022370555,-0.10972224,-28.5,-21.66,-48.48
1554207617029,8.839393,-3.6637269999999997,2.9873652,-0.08522116,0.043675844000000005,-0.083090626,-28.56,-21.78,-48.42
1554207617049,8.643068,-3.520075,2.9299042,0.05006743,0.07456851,-0.040480047000000005,-28.62,-21.9,-48.42
1554207617069,8.7053175,-3.4434607,2.9682117000000003,0.13315806,0.09374327,0.034088463,-28.68,-21.9,-48.36
1554207617089,8.75799,-3.4147300000000005,2.8389246,0.17363810000000002,0.10759171,0.10546118,-28.74,-21.9,-48.3
1554207617108,8.892064999999999,-3.5152867,2.9730000000000003,0.20985709,0.12144015,0.15339808,-28.68,-21.9,-48.3
1554207617129,8.90643,-3.4865562999999993,2.867655,0.25033715,0.13315806,0.20026971,-28.62,-21.78,-48.24
1554207617149,8.944737,-3.4530375,2.8963853999999998,0.30786142,0.15126756,0.22370553,-28.56,-21.72,-48.24
1554207617169,8.882488,-3.3764230000000004,2.9011737999999996,0.35473305,0.18855181,0.23222765,-28.5,-21.66,-48.24
1554207617188,8.743625,-3.2758665000000002,2.8006175,0.37710363,0.22796659,0.25140239999999997,-28.44,-21.54,-48.18
1554207617208,8.537724,-3.093907,2.843713,0.3568636,0.2790993,0.28655612,-28.32,-21.48,-48.18
1554207617228,8.470686,-2.9933507,2.7862522999999997,0.28549087,0.3206446,0.3323625,-28.26,-21.42,-48.18
1554207617249,8.37013,-3.0651767000000003,2.5995044999999997,0.1768339,0.34834146,0.38029942,-28.14,-21.42,-48.18
1554207617268,8.269572,-3.0556,2.4893713,0.080960095,0.36218992,0.41225734,-28.02,-21.42,-48.18
1554207617289,8.202535000000001,-3.0268695,2.570774,0.004261058,0.36645097,0.42930159999999995,-27.9,-21.48,-48.18
1554207617309,8.149861999999999,-3.103484,2.6234465,-0.05752428,0.36325517,0.44208476,-27.78,-21.48,-48.24
1554207617329,8.010999,-3.3812113,2.7048495,-0.08948222,0.36218992,0.44634579999999996,-27.6,-21.54,-48.3
1554207617348,7.967903,-3.3189620000000004,2.570774,-0.09374327,0.34408042,0.42930159999999995,-27.48,-21.6,-48.42
1554207617368,7.97748,-3.3955764999999998,2.6856956000000003,-0.10333065,0.3270362,0.41864893,-27.36,-21.6,-48.54
1554207617390,8.09719,-3.5104983,2.8580782000000005,-0.14061491,0.2908172,0.39414784,-27.18,-21.54,-48.66
1554207617410,8.365341,-3.6589386,2.915539,-0.19387813,0.24607609,0.34194988,-27.0,-21.24,-48.78
1554207617430,8.6334915,-3.9318779000000004,3.1836896,-0.24074976,0.23861924,0.30786142,-26.88,-20.94,-48.9
1554207617450,8.446744,-3.9893386,3.341707,-0.23329292,0.25246766,0.27803403,-26.76,-20.58,-49.02
1554207617469,8.269572,-3.9558197999999996,3.6721067,-0.21518342,0.2695119,0.2609898,-26.64,-20.22,-49.14
1554207617489,8.025364,-3.8361096,3.8397010000000003,-0.25033715,0.257794,0.30999196,-26.52,-19.8,-49.26
1554207617509,7.896077,-3.8744167999999997,4.0599675,-0.30892670000000005,0.23968449999999997,0.39947417,-26.4,-19.38,-49.32
1554207617528,7.833828,-3.9414546,4.3424835,-0.294013,0.20879184,0.50813115,-26.28,-18.9,-49.5
1554207617549,7.9248075,-4.31495,4.4238862999999995,-0.094808534,0.19174760000000002,0.57098174,-26.16,-18.18,-49.8
1554207617568,8.078036,-4.487332299999999,4.3760023,0.1768339,0.18748654,0.531567,-26.1,-17.76,-50.04
1554207617588,8.130709,-4.6884456,4.2898107,0.38775626,0.19920446,0.46871635,-26.1,-17.58,-50.16
1554207617609,8.226477000000001,-4.7363295999999995,4.103063,0.6317018,0.19813919,0.35153726,-26.04,-17.04,-50.4
1554207617629,7.9248075,-4.563947,3.9641995000000003,0.6562029,0.20026971,0.27377295,-25.98,-16.68,-50.52
1554207617649,7.771578999999999,-4.5016975,3.8540661,0.5187838,0.19281286,0.20559604,-25.98,-16.38,-50.58
1554207617668,7.5321584,-4.5687356,3.7630866000000003,0.26844665,0.1768339,0.1587244,-25.98,-16.2,-50.58
1554207617688,7.1873937,-4.717176,3.6481647000000006,-0.033023197000000004,0.15446335,0.1438107,-25.92,-16.02,-50.52
1554207617708,6.9288197,-4.7698483,3.6625300000000003,-0.30679616,0.14594123,0.15446335,-25.92,-16.02,-50.4
1554207617730,6.564901,-4.9901147,3.8780080999999997,-0.51665324,0.16298546,0.18109496,-25.86,-16.08,-50.34
1554207617749,6.493075,-5.1002483,4.0839095,-0.62531024,0.18322548,0.23009712,-25.86,-16.14,-50.34
1554207617769,6.459556,-5.229535,4.103063,-0.60080916,0.21944448,0.26312032,-25.74,-16.2,-50.4
1554207617789,6.5122285,-5.4545900000000005,4.222773,-0.4708469,0.24820662,0.26738137,-25.68,-16.2,-50.52
1554207617808,6.670246000000001,-5.4641665999999995,4.280234,-0.2695119,0.28122982,0.25885928,-25.56,-16.14,-50.64
1554207617828,6.6654577,-5.3971290000000005,4.117428299999999,-0.082025364,0.31851408,0.24714136,-25.44,-15.96,-50.76
1554207617848,6.6079965,-5.3396683,4.064756,0.024501082,0.3270362,0.22903186,-25.26,-15.6,-50.88
1554207617869,6.780379300000001,-5.54557,4.170100700000001,0.02876214,0.29614353,0.22370553,-25.08,-15.24,-51.0
1554207617889,7.077260000000001,-5.919065,4.23235,-0.10333065,0.2545982,0.27057716,-24.84,-14.82,-51.06
1554207617908,7.2352777,-6.1058129999999995,4.44304,-0.24927188,0.22903186,0.34088463,-24.66,-14.46,-51.06
1554207617928,7.268796400000001,-6.6085954,4.8787847,-0.44528055,0.19707392,0.47936899999999993,-24.54,-14.04,-51.06
1554207617949,7.1826053,-6.8575919999999995,5.218761,-0.5134575,0.18535602,0.57417756,-24.36,-13.68,-51.06
1554207617969,6.9288197,-7.2023573,5.290587400000001,-0.47297743,0.16937704,0.7254451,-24.24,-13.2,-51.06
1554207617989,6.655881,-7.16405,5.568314599999999,-0.27696875,0.17789917,0.7957525,-24.18,-12.78,-51.06
1554207618009,6.493075,-7.3029137,5.740697,0.024501082,0.2034655,0.8330368,-24.12,-12.42,-51.12
1554207618028,6.244078,-7.231087700000001,5.7263317,0.35473305,0.25885928,0.8767126000000001,-24.06,-11.82,-51.18
1554207618048,5.9998693,-7.101800999999999,5.506065400000001,0.6359629,0.33129725,0.9193232,-24.0,-11.28,-51.18
1554207618068,5.7125654,-7.020397999999999,5.1996074,0.81705785,0.4165184,0.9683254000000001,-23.94,-10.74,-51.24
1554207618089,5.434838,-6.938994999999999,5.003283000000001,0.83516735,0.46658584,1.0120013,-23.76,-10.26,-51.3
1554207618108,5.1235914000000005,-7.0395517000000005,4.7925935,0.72970617,0.49534798,1.067395,-23.64,-9.78,-51.3
1554207618130,4.8937483,-6.824073299999999,4.577115,0.5294364,0.5091964,1.1451592,-23.46,-9.36,-51.3
1554207618150,4.644751,-6.8144965,4.3281183,0.2876214,0.49641323,1.2144015,-23.34,-9.12,-51.3
1554207618170,4.55856,-7.307702000000001,4.7159786,0.024501082,0.47404268,1.2942963,-23.1,-8.94,-51.3
1554207618189,4.8698063,-8.212710000000001,4.7734394,-0.23116238,0.44634579999999996,1.4466291999999998,-22.86,-9.0,-51.36
1554207618209,5.1092260000000005,-9.366715,4.8021703,-0.40906155,0.47191215,1.7012273,-22.56,-9.0,-51.48
1554207618229,4.759673,-9.903017,5.1996074,-0.47830373,0.5454154,1.9867182,-22.32,-8.94,-51.6
1554207618249,3.9504328,-10.559028,5.4917,-0.44101948,0.588026,2.25623,-22.02,-8.7,-51.66
1554207618269,3.4476504,-10.5207205,5.3863554,-0.34514567,0.66152924,2.5406556,-21.72,-8.16,-51.78
1554207618288,2.552219,-9.783307,5.4007206,-0.13315806,0.74035877,2.7324033,-21.36,-7.44,-51.9
1554207618308,1.5610195,-9.141661000000001,5.549161,0.09161274,0.7765778,2.7739487,-21.0,-6.54,-51.96
1554207618329,0.81881696,-8.480861,5.4007206,0.34940675,0.78936094,2.8154939999999997,-20.52,-5.52,-52.02
1554207618349,0.32561144,-7.891887,5.319318,0.56245965,0.76592517,2.871953,-19.98,-4.38,-52.08
1554207618368,-0.110133275,-7.077858999999999,5.089474,0.65194184,0.7126619000000001,2.8868666000000003,-19.14,-2.58,-52.2
1554207618389,-0.46447513,-6.905475999999999,4.8739963,0.5432849000000001,0.6593986999999999,2.8836708,-18.84,-2.04,-52.2
1554207618408,-0.79008657,-6.6852098,4.955399,0.30999196,0.57311225,2.9113677000000004,-18.24,-1.08,-52.32
1554207618429,-1.1252748,-6.7570357,5.1038394,0.099069595,0.49215218,2.9134984,-17.58,-0.42,-52.44
1554207618449,-1.436521,-6.8767457,4.869208,-0.06498113,0.4016047,2.8613002,-16.98,0.12,-52.56
1554207618470,-1.7860744999999998,-7.140108000000001,4.8452660000000005,-0.17044231,0.31105720000000003,2.795254,-16.38,0.54,-52.68
1554207618489,-2.1739352000000003,-7.4705076,4.8979383,-0.28868666,0.20453078,2.7377295,-15.72,1.26,-52.8
1554207618508,-2.7198130000000003,-7.7003509999999995,4.854842700000001,-0.46552056,0.1470065,2.779275,-15.3,1.62,-52.92
1554207618529,-3.323152,-7.7626004,5.0559554,-0.56672066,0.11611383,2.8176246,-14.88,1.98,-52.98
1554207618548,-3.7828386,-7.6668324000000005,5.099051,-0.49641323,0.08841695,2.8208203,-14.4,2.52,-52.92
1554207618568,-4.0462008,-7.6572556,5.3815669999999995,-0.30466563,0.08948222,2.8485172000000003,-13.86,3.06,-52.86
1554207618589,-4.309563,-7.3843164,5.2618566,0.0,0.128897,2.8921930000000002,-13.44,3.72,-52.8
1554207618608,-4.917690299999999,-7.020397999999999,5.233126,0.32810146,0.18642128,2.8698224999999997,-12.96,4.44,-52.68
1554207618628,-5.133168,-6.5942300000000005,5.0559554,0.53263223,0.23435818,2.8378644,-12.48,5.04,-52.62
1554207618649,-5.3247046,-6.091448000000001,5.3528366,0.67005134,0.30786142,2.8304076,-11.94,5.64,-52.5
1554207618668,-5.4922986,-5.406706,5.515642,0.8404937,0.37923414,2.7867317000000003,-11.28,6.12,-52.44
1554207618688,-5.741296,-4.741118,5.659294,0.99708754,0.43356264,2.670618,-10.62,6.6,-52.38
1554207618708,-5.889736,-4.171298,5.4917,1.0396981,0.5123922000000001,2.5513084,-9.96,6.96,-52.32
1554207618729,-6.1195793,-3.793014,5.515642,0.98856544,0.5901565,2.4543692999999998,-9.36,7.02,-52.32
1554207618749,-6.2488665999999995,-3.2950199999999996,5.549161,0.9619338,0.6508765999999999,2.3414512000000003,-8.76,6.78,-52.32
1554207618768,-6.1243677000000005,-2.4666264,5.3145294000000005,0.99921805,0.6508765999999999,2.1134846,-8.16,6.36,-52.32
1554207618789,-6.1770406,-1.9446903000000002,5.2618566,0.99921805,0.6327670999999999,1.9558256,-7.44,5.82,-52.38
1554207618808,-6.3063273,-1.6669630000000002,5.300164,0.92464954,0.6125271,1.743838,-6.72,5.1,-52.5
1554207618829,-6.5026517,-1.4610616,5.213972599999999,0.83942837,0.5944176,1.6660736,-5.94,4.26,-52.62
1554207618849,-6.627150500000001,-1.4036007,5.257068,0.75633776,0.5603291,1.5563513999999998,-5.28,3.24,-52.8
1554207618869,-6.6415157,-1.3796587,5.1660886,0.7414241,0.52837116,1.4104101999999998,-4.74,2.1,-52.92
1554207618888,-6.7612257,-0.98700964,5.218761,0.8021441,0.5123922000000001,1.2122709999999999,-4.26,1.08,-53.04
1554207618908,-6.9383965,-0.4938041,4.8979383,0.9331716999999998,0.49960902,1.063134,-3.78,0.0,-53.16
1554207618929,-7.168239999999999,-0.077213004,4.6202106,1.0141318000000001,0.4825648,0.9353021999999999,-3.36,-1.02,-53.28
1554207618948,-7.3214690000000004,0.19572599,4.447828299999999,0.99921805,0.46019423,0.8330368,-3.0,-2.16,-53.4
1554207618969,-7.4842744,0.55964464,4.313753,0.9129315999999998,0.43995422,0.7499462,-2.7,-3.12,-53.4
1554207618989,-7.584830800000001,0.4878186,4.1557355000000005,0.8511463,0.4016047,0.6625945,-2.4,-4.5,-53.46
1554207619008,-7.632714999999999,0.55006784,4.0839095,0.8362325999999999,0.37923414,0.6135923000000001,-2.34,-4.98,-53.46
1554207619029,-7.589619,0.7703344,3.9163153,0.8522116,0.34194988,0.535828,-2.16,-5.82,-53.46
1554207619049,-7.632714999999999,1.1055226,3.9067385000000003,0.8490158000000001,0.30892670000000005,0.46125950000000004,-1.92,-6.72,-53.46
1554207619069,-7.680599000000001,1.1773487,3.887585,0.83942837,0.29507825,0.41225734,-1.68,-7.74,-53.46
1554207619088,-7.584830800000001,1.3545196000000002,3.7247794,0.8213189000000001,0.27590349999999997,0.3568636,-1.32,-8.7,-53.46
1554207619109,-7.991845,1.38325,3.5476084,0.7819041,0.23435818,0.27377295,-1.02,-9.66,-53.4
1554207619128,-8.307879,1.6897078999999997,3.4278982000000005,0.6679208000000001,0.19281286,0.20453078,-0.78,-10.68,-53.28
1554207619148,-8.365341,1.8285716,3.2698810000000003,0.46019423,0.14807177,0.16831179,-0.6,-11.7,-53.22
1554207619169,-8.475474,2.0057424999999998,3.3560722000000003,0.26844665,0.11930962,0.14061491,-0.42,-12.72,-53.1
1554207619189,-8.556877,2.0967221,3.2794578000000003,-0.027696876000000002,0.09161274,0.10333065,-0.24,-13.62,-53.04
1554207619209,-8.667010000000001,1.7998412,3.3033997999999998,-0.28655612,0.07350325,0.07669904,-0.12,-14.28,-52.92
1554207619229,-8.7532015,1.7280151000000001,3.6002807999999997,-0.46339005,0.06391586,0.09374327,-0.06,-14.76,-52.86
1554207619248,-8.652645,1.4838065,3.9163153,-0.45593318,0.06498113,0.096939065,0.0,-15.18,-52.8
1554207619268,-8.647857,1.3976152,3.9067385000000003,-0.25033715,0.058589544,0.05752428,0.06,-15.42,-52.8
1554207619289,-8.6095495,1.6561891,3.9594111000000005,-0.015978966,0.04474111,0.03089267,0.12,-15.72,-52.74
1554207619309,-8.710106,1.8285716,3.8588544999999996,0.14061491,0.04474111,0.029827405,0.12,-15.6,-52.68
1554207619329,-8.6095495,1.8285716,3.8780080999999997,0.12463594,0.06924219,0.035153727999999995,0.12,-15.54,-52.68
1554207619349,-8.791509,1.7758990000000001,3.8109705000000003,0.022370555,0.083090626,0.04261058,0.18,-15.36,-52.5
1554207619369,-8.8777,1.7854759999999998,3.8253357000000006,-0.13209279,0.09267801,0.06391586,0.24,-15.18,-52.38
1554207619389,-8.786719999999999,1.7998412,3.887585,-0.25566345,0.10759171,0.07776430000000001,0.24,-15.06,-52.32
1554207619409,-8.772355000000001,1.5795746000000002,4.11264,-0.28442562,0.13741912,0.07882957,0.3,-14.94,-52.2
1554207619429,-8.786719999999999,1.8333599999999999,3.9785647000000006,-0.15978967,0.14061491,0.07350325,0.3,-14.88,-52.14
1554207619448,-8.90643,1.7663223000000001,3.7774517999999997,0.007456851,0.13422333,0.058589544,0.36,-14.76,-52.08
1554207619470,-8.848969,1.7998412,3.7199910000000003,0.08841695,0.12783173,0.05752428,0.42,-14.7,-52.02
1554207619489,-8.791509,1.8956091,3.767875,0.11611383,0.12250541,0.05965481,0.42,-14.7,-52.08
1554207619508,-8.882488,1.905186,3.6673183,0.12570119999999999,0.112918034,0.05219796,0.48,-14.64,-52.08
1554207619528,-8.623915,1.95307,3.6768951000000003,0.10333065,0.10013486,0.029827405,0.54,-14.64,-52.14
1554207619549,-8.781932000000001,2.1254525,3.5619736000000004,0.12463594,0.09161274,-0.011717908999999999,0.6,-14.58,-52.2
1554207619569,-8.724471000000001,2.0488381,3.2986114,0.19600865,0.05965481,-0.053263225,0.66,-14.58,-52.2
1554207619589,-8.762777999999999,2.130241,3.2411506,0.07989483,0.025566347000000003,-0.033023197000000004,0.72,-14.58,-52.2
1554207619612,-8.724471000000001,1.9243397,3.3273417999999997,-0.015978966,0.002130529,-0.018109497,0.78,-14.58,-52.2
1554207619629,-8.772355000000001,1.8525136000000002,3.518878,-0.046871635999999994,-0.0053263223,-0.05539375,0.84,-14.58,-52.2
1554207619649,-8.810661999999999,1.7902644,3.54282,-0.024501082,-0.014913702,-0.09587380000000001,0.9,-14.64,-52.2
1554207619669,-8.719683,1.905186,3.4518404,-0.00958738,-0.017044231,-0.112918034,0.96,-14.64,-52.14
1554207619689,-8.667010000000001,1.6370354,3.3991678,-0.058589544,-0.018109497,-0.12144015,0.96,-14.7,-52.14
1554207619709,-8.695741,1.6944963,3.365649,-0.16937704,-0.015978966,-0.10013486,1.02,-14.7,-52.08
1554207619729,-8.571242,1.7088615000000003,3.4901476000000002,-0.2066613,-0.018109497,-0.07989483,1.08,-14.7,-52.08
1554207619748,-8.599973,1.6274586000000002,3.447052,-0.16937704,-0.014913702,-0.10546118,1.14,-14.7,-52.08
1554207619768,-8.7292595,1.6274586000000002,3.4326867999999995,-0.13848437,-0.014913702,-0.13315806,1.2,-14.76,-52.08
1554207619788,-8.887277000000001,1.6083049999999999,3.4422636,-0.10759171,-0.012783173500000002,-0.12783173,1.2,-14.76,-52.14
1554207619808,-8.968679,1.6370354,3.7247794,-0.053263225,-0.012783173500000002,-0.10759171,1.2,-14.76,-52.14
1554207619829,-8.858546,1.5364790000000002,3.6481647000000006,-0.010652645,0.002130529,-0.096939065,1.26,-14.7,-52.2
1554207619849,-8.968679,1.6274586000000002,3.5476084,-0.011717908999999999,0.020240024,-0.09161274,1.26,-14.64,-52.2
1554207619869,-8.8777,1.6897078999999997,3.5619736000000004,-0.029827405,0.020240024,-0.07882957,1.32,-14.58,-52.26
1554207619889,-8.805874000000001,1.8285716,3.4757824,-0.06498113,0.00958738,-0.083090626,1.32,-14.52,-52.32
1554207619909,-8.7532015,1.8525136000000002,3.4805707999999997,-0.09587380000000001,0.0010652645,-0.09374327,1.26,-14.46,-52.32
1554207619928,-8.6813755,1.7711107,3.743933,-0.12783173,0.008522116,-0.083090626,1.2,-14.4,-52.26
1554207619948,-8.791509,1.5556326,3.5954924,-0.112918034,0.004261058,-0.07669904,1.14,-14.34,-52.26
1554207619970,-8.920795,1.6849195,3.4757824,-0.10013486,-0.010652645,-0.06604639400000001,1.14,-14.28,-52.26
1554207619989,-9.030928999999999,1.5460558,3.6433763999999997,-0.09054748,-0.029827405,-0.05539375,1.2,-14.28,-52.26
1554207620009,-8.853758000000001,1.5556326,3.5523968,-0.07456851,-0.040480047000000005,-0.04580637,1.2,-14.28,-52.26
1554207620029,-8.90643,1.6944963,3.5859156000000003,-0.05752428,-0.043675844000000005,-0.036218993,1.2,-14.22,-52.26
1554207620049,-8.858546,1.6274586000000002,3.6529531000000004,-0.06498113,-0.043675844000000005,-0.026631612000000002,1.2,-14.04,-52.26
1554207620069,-8.892064999999999,1.632247,3.5523968,-0.07456851,-0.024501082,-0.01917476,1.2,-13.8,-52.26
1554207620089,-8.848969,1.7088615000000003,3.4997244,-0.08522116,-0.02130529,-0.007456851,1.26,-13.62,-52.32
1554207620109,-8.590396,1.7136499,3.5284547999999996,-0.08948222,-0.026631612000000002,0.0010652645,1.26,-13.38,-52.32
1554207620128,-8.619126,1.6705543,3.4518404,-0.112918034,-0.025566347000000003,-0.013848438000000001,1.26,-13.2,-52.38
1554207620148,-8.662222,1.6609775000000002,3.341707,-0.15978967,-0.027696876000000002,-0.023435817999999997,1.2,-13.02,-52.38
1554207620168,-8.576031,1.6849195,3.3464954,-0.22264028,-0.025566347000000003,-0.033023197000000004,1.2,-12.84,-52.38
1554207620189,-8.623915,1.6418238,3.1405939999999997,-0.28868666,-0.018109497,-0.058589544,1.2,-12.72,-52.38
1554207620209,-8.619126,1.6083049999999999,3.3512837999999996,-0.34194988,-0.008522116,-0.09161274,1.2,-12.72,-52.38
1554207620229,-8.748413000000001,1.6035166,3.293823,-0.38775626,-0.012783173500000002,-0.12357068,1.2,-12.6,-52.38
1554207620249,-8.710106,1.7711107,3.1693244,-0.44528055,-0.033023197000000004,-0.15765914,1.2,-12.48,-52.32
1554207620268,-8.710106,1.8525136000000002,3.116652,-0.5219796,-0.05006743,-0.21518342,1.14,-12.36,-52.26
1554207620288,-8.652645,1.7950528000000001,3.2555158,-0.68176925,-0.049002163,-0.26205507,1.14,-12.24,-52.2
1554207620308,-8.7771435,1.6370354,3.245939,-0.8990832000000001,-0.04261058,-0.28122982,1.08,-12.06,-52.2
1554207620328,-8.710106,1.4454993,3.0879216,-1.1685951,-0.040480047000000005,-0.30040458,1.08,-11.82,-52.14
1554207620349,-8.523358,1.3449427999999999,3.1070752,-1.442368,-0.05006743,-0.34727620000000003,1.02,-11.28,-52.14
1554207620369,-8.532935,1.1390414,3.1836896,-1.6820526000000002,-0.058589544,-0.40586576,1.08,-10.44,-52.2
1554207620389,-8.513782,0.6362591,3.0974984,-1.8716697,-0.07137272,-0.45060685,1.08,-9.54,-52.26
1554207620408,-8.523358,0.12868834,3.518878,-1.9920446,-0.094808534,-0.4708469,1.08,-8.4,-52.32
1554207620428,-8.537724,-0.3645172,3.413533,-2.0208068,-0.111852765,-0.46978164,1.08,-6.9,-52.32
1554207620449,-8.355764,-0.86729956,3.7247794,-1.9462381999999998,-0.13315806,-0.4878911,1.08,-5.22,-52.32
1554207620469,-8.226477000000001,-1.3509283,3.8205473,-1.8194717,-0.16724652,-0.51771855,1.08,-3.18,-52.26
1554207620488,-8.034941,-1.6430208999999998,3.8684312999999997,-1.6692694,-0.18748654,-0.55606806,1.08,-1.14,-52.14
1554207620509,-8.039729,-1.762731,4.007295,-1.3113406,-0.21198763,-0.6711166000000001,1.08,0.9,-52.02
1554207620529,-8.054094000000001,-1.5855601000000001,4.270657,-0.9672601000000001,-0.23542345,-0.78083885,1.02,2.76,-51.78
1554207620549,-7.7332716,-1.4706384,4.3760023,-0.6423545,-0.28229508,-0.88203895,0.96,4.68,-51.48
1554207620569,-7.273585000000001,-1.4227544,4.117428299999999,-0.5219796,-0.3174488,-0.9821738000000001,0.9,6.54,-51.18
1554207620589,-6.885724000000001,-1.3652935,3.7822402000000004,-0.6199839,-0.3653857,-1.0929613,0.78,8.16,-50.88
1554207620608,-6.885724000000001,-1.5951369,3.518878,-0.9150621999999999,-0.44954160000000004,-1.1941614,0.6,9.54,-50.64
1554207620629,-6.8426285,-2.083554,3.1262288,-1.2815131000000002,-0.5518069999999999,-1.293231,0.36,10.62,-50.4
1554207620649,-6.555324000000001,-2.5623944,3.4805707999999997,-1.6287893,-0.6743124,-1.4295848999999998,0.12,11.58,-50.16
1554207620669,-6.1195793,-3.0556,3.470994,-1.9164108,-0.773382,-1.6010925,-0.36,12.42,-49.98
1554207620688,-5.592855,-3.3907879999999997,3.2507273999999997,-2.1038973,-0.8085357,-1.7875136999999999,-0.9,13.5,-49.8
1554207620708,-5.3103394999999995,-3.888782,2.7048495,-2.3073627999999995,-0.8298409999999999,-1.9664781999999998,-1.5,14.64,-49.62
1554207620729,-5.1235914000000005,-4.439448400000001,2.8628666000000003,-2.6951191000000003,-0.8277104999999999,-2.13479,-2.16,16.02,-49.38
1554207620749,-4.6782703,-5.109825,2.8772318,-3.1531827,-0.76272935,-2.3180156000000003,-2.88,17.58,-48.96
1554207620768,-4.1706996,-6.2542534000000005,3.3273417999999997,-3.4067156,-0.6562029,-2.5193505000000003,-3.78,19.38,-48.42
1554207620788,-3.9600096,-7.3843164,3.696049,-3.2458607999999995,-0.5006742999999999,-2.6802053,-4.8,21.42,-47.7
1554207620809,-3.9312792,-8.686762,4.194042700000001,-2.5832662999999996,-0.3057309,-2.775014,-6.0,23.7,-46.68
1554207620829,-3.7972038,-9.706693,4.735132,-1.4317155000000001,-0.13848437,-2.8186897999999996,-7.14,26.04,-45.42
1554207620849,-3.6200330000000003,-9.845556,5.075108999999999,0.08628642,-0.011717908999999999,-2.8772792999999997,-8.4,28.2,-44.1
1554207620869,-3.6008794,-8.950125,4.586692,1.2346416,0.04580637,-2.9710226000000004,-9.6,30.06,-42.78
1554207620888,-3.5769374,-8.169615,4.3281183,2.392584,-0.05539375,-3.1435955,-10.98,31.44,-41.64
1554207620908,-3.0741549999999997,-8.030750999999999,4.44304,3.0072415,-0.29188246,-3.3065808,-13.2,32.34,-40.32
1554207620928,-2.5378537,-7.709928,4.5148660000000005,3.3129725,-0.6103965,-3.3864758000000004,-13.92,32.22,-40.08
1554207620949,-1.7956512999999998,-7.317278999999999,4.7830167,3.6048547999999996,-0.95447695,-3.4280209999999998,-16.08,30.48,-40.08
1554207620968,-1.4748282,-7.173627000000001,5.146935,3.7081857000000005,-1.3187973,-3.5100464999999996,-17.58,28.38,-40.8
1554207620988,-0.7661445,-6.6852098,5.319318,3.5654402000000003,-1.603223,-3.5345476000000002,-18.36,26.94,-41.22
1554207621009,0.23942018,-6.0483522,5.6497173,3.0136333,-1.9196066000000003,-3.4429347999999997,-20.7,21.36,-42.84
1554207621028,1.2114661,-5.468955,5.8604074,2.4298682,-2.0793962,-3.3694315,-22.26,16.98,-43.98
1554207621050,1.9728221999999997,-5.33488,6.128557700000001,1.6362462,-2.1337247,-3.3374736000000005,-23.88,12.06,-45.12
1554207621068,2.9592332999999997,-5.6844335,6.779781,0.7520766999999999,-2.0282636000000003,-3.2277513,-25.38,7.26,-46.02
1554207621089,3.6152446000000005,-6.192004,7.239467599999999,0.036218993,-1.8429075000000001,-3.0423953999999997,-26.58,2.58,-46.68
1554207621109,4.036624,-7.231087700000001,7.861960000000001,-0.28655612,-1.6618125,-2.973153,-27.66,-1.68,-46.98
1554207621128,4.721366000000001,-7.4609309999999995,8.000824,-0.3270362,-1.4913702,-2.948652,-28.62,-5.7,-46.98
1554207621148,4.9464207,-7.422623599999999,7.6464815,-0.036218993,-1.3518206,-2.8889972999999998,-29.46,-9.24,-46.68
1554207621169,5.090072599999999,-7.0826473,7.478887599999999,0.31851408,-1.2591426000000001,-2.7931235,-30.36,-12.36,-46.26
1554207621189,5.5401826,-6.488885,7.402272999999999,0.53476274,-1.2101405,-2.711098,-31.08,-15.3,-45.84
1554207621209,6.2823853,-5.957372,6.7845693,0.45699844,-1.2175972,-2.6077673,-31.62,-18.0,-45.42
1554207621228,6.603208,-4.923076999999999,6.023213,0.02130529,-1.1973573,-2.4703484,-32.1,-20.4,-45.0
1554207621249,7.153875,-4.583101,5.61141,-0.8021441,-1.1121361,-2.2732744,-32.58,-22.44,-44.58
1554207621269,7.6470804,-5.0140567,5.927445,-1.4210628,-0.94595486,-2.05383,-33.0,-24.42,-44.1
1554207621288,7.762002000000001,-5.3875523,5.7790045999999995,-1.748099,-0.8277104999999999,-1.9345202000000001,-33.36,-26.16,-43.74
1554207621310,7.920019,-5.239112,5.620987,-2.0719395,-0.6263755,-1.865278,-33.6,-27.84,-43.62
1554207621329,8.020576,-5.047576,5.4917,-2.1241374,-0.45060685,-1.8279938000000002,-33.6,-29.28,-43.44
1554207621349,8.058883,-5.2917843,5.544372599999999,-2.0154803,-0.28122982,-1.7353158,-33.36,-30.24,-43.32
1554207621369,8.087613000000001,-5.282207499999999,5.453393,-1.8578212,-0.15659387,-1.5968314,-33.0,-31.02,-43.14
1554207621389,8.0445175,-5.0236335,5.266645,-1.7108147,-0.10759171,-1.5190671999999998,-32.58,-31.56,-43.02
1554207621409,7.9391727,-4.7937902999999995,4.9506106,-1.6586168000000001,-0.09267801,-1.4466291999999998,-32.16,-31.92,-43.02
1554207621428,7.987056699999999,-4.654927,4.6920366,-1.6724651999999998,-0.099069595,-1.3187973,-31.74,-32.04,-43.14
1554207621448,8.0684595,-4.587889,4.56275,-1.716141,-0.09054748,-1.1696603,-31.32,-31.98,-43.38
1554207621468,7.991845,-4.463390400000001,4.4957123,-1.8077538,-0.083090626,-1.0205233,-30.84,-31.74,-43.68
1554207621489,8.025364,-4.31495,4.136582,-1.9206718,-0.10013486,-0.91825795,-30.42,-31.38,-44.04
1554207621509,8.063671000000001,-4.3101616,4.1796775,-2.0069581999999997,-0.12144015,-0.86499476,-30.12,-31.02,-44.4
1554207621528,8.0924015,-4.209605000000001,3.9211037,-2.026133,-0.15552860000000002,-0.8277104999999999,-29.88,-30.6,-44.82
1554207621549,8.374918,-4.410718,4.0025067000000005,-1.9355855,-0.17789917,-0.7680557,-29.7,-30.12,-45.24
1554207621569,8.283937,-4.544793599999999,4.0839095,-1.7363810000000002,-0.19068234,-0.71585774,-29.52,-29.64,-45.66
1554207621589,8.269572,-4.4442368,3.8061821000000005,-1.4775218,-0.22903186,-0.70200926,-29.34,-29.1,-46.14
1554207621609,8.259995,-3.9797617999999995,3.696049,-1.1941614,-0.28229508,-0.69135666,-29.22,-28.38,-46.56
1554207621629,8.48984,-3.8935703999999998,3.8492777,-0.9406285,-0.34834146,-0.68389976,-29.04,-27.6,-46.92
1554207621648,8.63828,-3.840898,3.566762,-0.7275756,-0.4133226,-0.70200926,-28.86,-26.7,-47.28
1554207621668,8.887277000000001,-3.6589386,3.4997244,-0.5613944000000001,-0.43462790000000007,-0.700944,-28.8,-25.86,-47.58
1554207621690,9.279925,-3.4721910000000005,3.2794578000000003,-0.44315,-0.43995422,-0.6498113,-28.68,-25.08,-47.88
1554207621709,9.390058999999999,-3.5104983,3.1501707999999997,-0.38136467,-0.39414784,-0.5635249,-28.62,-24.36,-48.12
1554207621728,9.514558000000001,-3.4338839999999995,3.0160956000000003,-0.35473305,-0.34727620000000003,-0.49534798,-28.5,-23.7,-48.24
1554207621749,9.356541,-3.2615013,2.9682117000000003,-0.34727620000000003,-0.27803403,-0.42397526,-28.44,-23.28,-48.3
1554207621769,9.323022,-3.103484,2.6617537000000002,-0.37390783,-0.22477080000000002,-0.36325517,-28.38,-22.86,-48.24
1554207621788,9.26556,-3.0412347,2.6282349,-0.39627838,-0.18535602,-0.31957933,-28.44,-22.8,-48.24
1554207621809,9.160214999999999,-2.9789855,2.5372553,-0.37603834,-0.16192019,-0.30786142,-28.56,-22.8,-48.18
1554207621829,9.26556,-2.9789855,2.441487,-0.28868666,-0.13102753,-0.3334278,-28.68,-22.74,-48.12
1554207621848,9.045294,-3.1896752999999998,2.3026235,-0.10972224,-0.10652645,-0.36005938,-28.74,-22.74,-48.06
1554207621869,9.045294,-3.103484,2.0727801,0.1107875,-0.083090626,-0.3685815,-28.74,-22.68,-48.06
1554207621889,8.987833,-3.0125043,1.8716671000000003,0.2727077,-0.06604639400000001,-0.35260254,-28.8,-22.68,-48.06
1554207621909,8.944737,-2.8640637000000004,1.584363,0.29933932,-0.068176925,-0.34408042,-28.86,-22.68,-48.0
1554207621929,8.882488,-2.8113914,1.6801311,0.15765914,-0.101200126,-0.33662358,-28.92,-22.68,-48.0
1554207621949,9.040505,-2.6725276,1.5795746000000002,-0.084155895,-0.13422333,-0.2972088,-28.92,-22.8,-48.0
1554207621968,9.040505,-2.677316,1.9243397,-0.32810146,-0.14807177,-0.25033715,-28.98,-22.92,-47.94
1554207621989,9.078813,-2.7635074,2.082357,-0.47830373,-0.12037488,-0.1949434,-28.98,-23.04,-47.88
1554207622009,9.26556,-2.9071592999999996,2.4462755,-0.4825648,-0.07989483,-0.14487597,-29.04,-23.16,-47.88
1554207622028,9.337387,-2.9933507,2.5276785,-0.38349520000000004,-0.024501082,-0.13209279,-29.1,-23.28,-47.82
1554207622048,9.093178,-2.9215245,2.6138697,-0.26205507,0.00958738,-0.12996227,-29.16,-23.4,-47.82
1554207622069,9.179369,-2.830545,2.4702177000000005,-0.16937704,0.023435817999999997,-0.112918034,-29.28,-23.52,-47.76
1554207622090,9.184157,-2.8257565,2.168548,-0.08841695,0.02876214,-0.09054748,-29.34,-23.58,-47.76
1554207622109,9.217675999999999,-2.9502552000000004,2.3744495,-0.03195793,0.035153727999999995,-0.08735169,-29.4,-23.58,-47.76
1554207622129,9.088389,-2.9311013,2.1206641,0.05219796,0.041545313,-0.06178534,-29.52,-23.58,-47.76
1554207622148,9.11712,-2.9215245,2.0009542000000002,0.13635385,0.041545313,-0.020240024,-29.52,-23.52,-47.76
1554207622168,9.050082000000002,-2.8927941,1.929128,0.18748654,0.033023197000000004,0.008522116,-29.52,-23.46,-47.76
1554207622189,8.949525999999999,-2.8018146,1.6944963,0.21731395,0.00958738,0.020240024,-29.52,-23.4,-47.76
1554207622208,8.896853,-2.7730842,1.7088615000000003,0.22050974,-0.0053263223,0.034088463,-29.46,-23.22,-47.76
1554207622228,8.901641999999999,-2.7922377999999997,1.9434932,0.22264028,-0.036218993,0.05539375,-29.46,-23.16,-47.76
1554207622249,8.896853,-2.7539306,1.8333599999999999,0.23222765,-0.068176925,0.05006743,-29.46,-23.1,-47.7
1554207622268,8.825027,-2.60549,1.8716671000000003,0.22583607,-0.11611383,0.04474111,-29.46,-22.98,-47.64
1554207622289,8.959103,-2.7587189999999997,1.8956091,0.21518342,-0.16192019,0.027696876000000002,-29.46,-22.98,-47.64
1554207622309,9.198523,-2.830545,2.1015105,0.23435818,-0.19387813,-0.039414786,-29.46,-22.92,-47.58
1554207622329,9.121908,-2.9550436,2.273893,0.2908172,-0.19600865,-0.10439592,-29.52,-22.92,-47.58
1554207622349,9.275136999999999,-3.031658,2.417545,0.33555830000000003,-0.16831179,-0.12037488,-29.58,-23.04,-47.64
1554207622369,9.414000999999999,-3.0172927000000005,2.40318,0.37071204,-0.13315806,-0.099069595,-29.64,-23.16,-47.64
1554207622389,9.457097000000001,-2.8592752999999997,2.2643162999999995,0.43462790000000007,-0.09267801,-0.05752428,-29.76,-23.34,-47.7
1554207622410,9.495403999999999,-2.7299886000000004,2.2451627,0.5368933000000001,-0.05219796,-0.0010652645,-29.82,-23.7,-47.76
1554207622428,9.404425,-2.6868927000000005,2.273893,0.66579026,-0.029827405,0.06604639400000001,-29.88,-24.0,-47.76
1554207622449,9.404425,-2.5528176,1.9722236000000002,0.7978831000000001,-0.00958738,0.128897,-29.94,-24.3,-47.76
1554207622469,9.323022,-2.308609,1.8620903000000002,0.9044095,0.002130529,0.18002969,-30.0,-24.66,-47.58
1554207622489,9.351752000000001,-2.0979192,1.8333599999999999,0.97258645,0.012783173500000002,0.22370553,-30.0,-25.02,-47.4
1554207622508,9.361329,-1.8632874,1.632247,0.99921805,0.010652645,0.2428803,-30.0,-25.44,-47.22
1554207622528,9.457097000000001,-1.762731,1.7375918999999997,0.98856544,0.008522116,0.24820662,-29.94,-25.92,-46.98
1554207622550,9.428367,-1.7770962,1.8477252,0.9779128,-0.004261058,0.23222765,-30.0,-26.7,-46.68
1554207622569,9.447519999999999,-1.9351135,1.9722236000000002,1.0034790999999998,-0.012783173500000002,0.221575,-29.94,-26.94,-46.56
1554207622589,9.380483,-2.0213048,2.1015105,1.1217233999999998,-0.026631612000000002,0.23222765,-29.94,-27.42,-46.32
1554207622609,9.26556,-2.03567,2.0344729999999998,1.2942963,-0.05539375,0.26205507,-29.94,-27.84,-46.08
1554207622629,9.131485000000001,-1.834557,2.1110873,1.4072143999999998,-0.10546118,0.2727077,-29.94,-28.62,-45.72
1554207622648,9.198523,-1.7770962,2.2547395,1.3986923,-0.15020229,0.25992453,-30.0,-28.92,-45.54
1554207622668,9.241617999999999,-1.6286557,2.297835,1.2761868,-0.16085494,0.22583607,-30.12,-29.82,-45.12
1554207622689,9.212888000000001,-1.3988123,2.1110873,0.9576728000000001,-0.13102753,0.14807177,-30.36,-30.36,-44.82
1554207622709,9.136273,-1.5041572,2.168548,0.62317973,-0.08522116,0.068176925,-30.48,-30.84,-44.52
1554207622728,9.059659,-1.5759833,2.154183,0.27164245,-0.043675844000000005,-0.013848438000000001,-30.6,-31.38,-44.28
1554207622750,9.059659,-1.8010383,2.178125,-0.06178534,0.014913702,-0.07563378,-30.78,-31.86,-43.98
1554207622768,9.045294,-2.0500352,2.2307975,-0.3536678,0.043675844000000005,-0.15126756,-30.9,-32.4,-43.8
1554207622790,9.121908,-2.2080526000000003,2.0105310000000003,-0.58909124,0.058589544,-0.22903186,-31.02,-32.82,-43.74
1554207622809,9.14585,-2.3277626000000002,2.130241,-0.7850999,0.09161274,-0.25353295,-31.08,-33.18,-43.68
1554207622829,9.255983,-2.6007016,2.2930467,-0.9012136999999999,0.11824436,-0.23861924,-31.08,-33.36,-43.62
1554207622848,9.227253,-2.7730842,2.4223334999999997,-0.9683254000000001,0.13315806,-0.20879184,-31.08,-33.48,-43.56
1554207622868,9.193734,-2.7730842,2.2691047,-1.010936,0.13209279,-0.17789917,-31.14,-33.42,-43.5
1554207622889,9.093178,-2.8161798,2.5516205000000003,-1.0375676,0.11824436,-0.14061491,-31.14,-33.24,-43.5
1554207622909,9.193734,-2.782661,2.7623102999999998,-1.0578076,0.10226539,-0.10759171,-31.14,-33.06,-43.62
1554207622929,9.275136999999999,-2.8449101000000003,3.0160956000000003,-1.0013485999999998,0.10652645,-0.07882957,-31.14,-32.76,-43.68
1554207622948,9.198523,-3.141791,3.2603042,-0.83516735,0.13315806,-0.056459017,-31.2,-32.34,-43.86
1554207622969,9.174581,-3.1226375,3.4039562000000005,-0.6583334,0.15659387,-0.043675844000000005,-31.14,-31.92,-44.04
1554207622989,9.064447,-3.0699651,3.2363622000000003,-0.51771855,0.16192019,-0.04261058,-31.08,-31.32,-44.22
1554207623008,8.930372,-3.0125043,3.0160956000000003,-0.38136467,0.15233281,-0.039414786,-31.02,-30.72,-44.46
1554207623028,8.90643,-3.0125043,2.9394810000000002,-0.29933932,0.13422333,-0.037284255,-30.96,-30.18,-44.64
1554207623049,8.825027,-3.093907,2.7670987,-0.15446335,0.10439592,-0.025566347000000003,-30.84,-29.76,-44.82
1554207623069,8.767567,-3.0029275,2.7527334999999997,-0.03089267,0.082025364,-0.022370555,-30.72,-29.34,-45.06
1554207623088,8.686164,-2.926313,2.441487,0.07456851,0.060720075,-0.018109497,-30.6,-28.98,-45.24
1554207623108,8.75799,-2.8736405,2.532467,0.1587244,0.036218993,-0.010652645,-30.48,-28.68,-45.42
1554207623128,8.858546,-2.8401217,2.5276785,0.24820662,0.01917476,-0.02130529,-30.42,-28.44,-45.54
1554207623149,8.901641999999999,-2.8257565,2.3409307,0.34834146,0.010652645,-0.02876214,-30.36,-28.38,-45.66
1554207623169,8.868122999999999,-2.6533740000000003,2.4797945,0.4261058,0.0,-0.024501082,-30.36,-28.32,-45.78
1554207623188,8.829816000000001,-2.4283189999999997,2.28347,0.46232477,-0.011717908999999999,-0.013848438000000001,-30.24,-28.2,-45.9
1554207623209,8.896853,-2.380435,2.4462755,0.4644553,-0.033023197000000004,-0.014913702,-30.18,-28.2,-45.96
1554207623229,8.987833,-2.3133974,2.5037365,0.43356264,-0.049002163,-0.022370555,-30.12,-28.14,-46.02
1554207623249,9.030928999999999,-2.1218612,2.3983915000000002,0.39095205,-0.058589544,-0.035153727999999995,-30.12,-28.2,-46.08
1554207623269,9.112331,-2.0931308,2.6138697,0.35260254,-0.056459017,-0.053263225,-30.06,-28.32,-46.08
1554207623288,9.102755,-2.2080526000000003,2.4223334999999997,0.314253,-0.05219796,-0.06604639400000001,-30.0,-28.5,-46.08
1554207623309,9.222465,-2.1410147999999998,2.5755625,0.26312032,-0.03834952,-0.084155895,-29.94,-28.68,-46.14
1554207623329,9.270349000000001,-2.1266496,2.4366987,0.20240025,-0.025566347000000003,-0.10546118,-29.94,-28.98,-46.14
1554207623348,9.26556,-2.2511482000000003,2.3888147,0.12783173,-0.017044231,-0.11611383,-29.94,-29.22,-46.14
1554207623368,9.160214999999999,-2.1936872000000003,2.40318,0.05006743,-0.0063915867,-0.11824436,-29.88,-29.52,-46.14
1554207623389,9.193734,-2.2319946,2.441487,-0.025566347000000003,0.007456851,-0.10333065,-29.88,-29.76,-46.08
1554207623409,9.188946000000001,-2.2894554,2.3840263,-0.068176925,0.020240024,-0.08841695,-29.82,-30.12,-46.08
1554207623428,9.131485000000001,-2.3373394,2.3840263,-0.10546118,0.03195793,-0.068176925,-29.82,-30.48,-46.02
1554207623448,9.107543,-2.4666264,2.4223334999999997,-0.15446335,0.018109497,-0.039414786,-29.76,-30.72,-45.96
1554207623468,9.14585,-2.5001452,2.6378117000000003,-0.22477080000000002,-0.02876214,-0.00958738,-29.76,-30.9,-45.84
1554207623489,9.035717,-2.6007016,3.0017304,-0.15446335,-0.06711166,-0.025566347000000003,-29.76,-31.08,-45.66
1554207623509,8.987833,-2.8353333,3.221997,0.033023197000000004,-0.068176925,-0.023435817999999997,-29.76,-31.2,-45.48
1554207623528,9.088389,-2.7874494,2.8868085999999997,0.22583607,-0.04474111,-0.008522116,-29.76,-31.26,-45.42
1554207623548,9.064447,-2.4235306,2.795829,0.33662358,-0.007456851,-0.011717908999999999,-29.76,-31.32,-45.3
1554207623569,8.992621,-2.3373394,2.7383683,0.35153726,0.020240024,-0.0063915867,-29.82,-31.26,-45.18
1554207623589,9.054871,-2.2798786,2.6521769,0.30892670000000005,0.037284255,0.004261058,-29.88,-31.2,-45.12
1554207623609,9.059659,-2.2942438,2.441487,0.24714136,0.043675844000000005,0.0010652645,-29.88,-31.14,-45.12
1554207623628,9.126697,-2.4235306,2.417545,0.1768339,0.046871635999999994,0.011717908999999999,-29.94,-31.14,-45.12
1554207623648,8.939949,-2.48578,2.6569653,0.15020229,0.05006743,0.034088463,-30.0,-31.14,-45.12
1554207623668,9.078813,-2.4426842,2.475006,0.18109496,0.049002163,0.046871635999999994,-30.0,-31.08,-45.18
1554207623689,8.99741,-2.356493,2.5899277,0.23009712,0.04580637,0.03195793,-30.06,-31.08,-45.18
1554207623709,8.930372,-2.2176294,2.6138697,0.25885928,0.03195793,-0.0063915867,-30.12,-31.08,-45.12
1554207623729,8.973467999999999,-2.1745335999999997,2.690484,0.23329292,0.022370555,-0.034088463,-30.12,-31.08,-45.12
1554207623749,9.011775,-2.107496,2.5995044999999997,0.13741912,0.018109497,-0.049002163,-30.06,-31.14,-45.06
1554207623768,9.093178,-2.0117279999999997,2.5851393,-0.0031957934000000003,0.026631612000000002,-0.053263225,-30.06,-31.2,-45.0
1554207623788,9.021352,-2.107496,2.7910407000000004,-0.14807177,0.049002163,-0.06604639400000001,-30.06,-31.26,-45.0
1554207623809,9.040505,-2.2319946,2.9011737999999996,-0.23648871,0.05539375,-0.07882957,-30.06,-31.38,-45.0
1554207623829,8.863335000000001,-2.3277626000000002,2.8389246,-0.26738137,0.05539375,-0.09161274,-30.06,-31.44,-44.94
1554207623849,8.916007,-2.203264,2.7527334999999997,-0.28122982,0.05539375,-0.082025364,-30.06,-31.56,-44.94
1554207623868,8.90643,-2.2942438,2.6665419999999997,-0.28016454,0.05219796,-0.06391586,-30.0,-31.68,-44.94
1554207623888,8.968679,-2.3612813999999998,2.7575218999999995,-0.2695119,0.046871635999999994,-0.058589544,-30.0,-31.74,-44.94
1554207623909,8.944737,-2.4091654,2.6856956000000003,-0.23861924,0.034088463,-0.056459017,-30.0,-31.86,-44.94
1554207623930,8.916007,-2.4091654,2.6521769,-0.2066613,0.02876214,-0.046871635999999994,-30.0,-31.8,-44.94
1554207623948,8.939949,-2.5049335999999998,2.6090812999999997,-0.17576863,0.025566347000000003,-0.039414786,-30.0,-31.74,-44.94
1554207623969,9.021352,-2.4283189999999997,2.690484,-0.17150758,0.024501082,-0.033023197000000004,-30.0,-31.5,-44.88
1554207623989,8.949525999999999,-2.4331074,2.7527334999999997,-0.1768339,0.024501082,-0.03089267,-30.0,-31.26,-44.94
1554207624009,9.040505,-2.48578,2.7527334999999997,-0.16405073,0.01917476,-0.03195793,-30.0,-31.08,-45.12
1554207624029,8.968679,-2.48578,2.7670987,-0.15126756,0.013848438000000001,-0.037284255,-30.0,-30.84,-45.3
1554207624048,8.973467999999999,-2.3517046,2.7527334999999997,-0.15659387,0.004261058,-0.03834952,-30.06,-30.6,-45.48
1554207624068,9.016563,-2.4283189999999997,2.6952724,-0.18002969,-0.002130529,-0.037284255,-30.06,-30.36,-45.66
1554207624090,9.136273,-2.533664,2.7240029999999997,-0.21198763,-0.0053263223,-0.039414786,-30.0,-30.18,-45.84
1554207624108,9.131485000000001,-2.677316,2.7048495,-0.23755397,0.002130529,-0.040480047000000005,-30.0,-30.06,-46.02
1554207624130,9.126697,-2.6725276,2.7766755,-0.25672874,0.0063915867,-0.02876214,-29.94,-30.06,-46.2
1554207624150,8.968679,-2.7491422,2.747945,-0.26525086,0.013848438000000001,-0.011717908999999999,-29.94,-30.06,-46.26
1554207624169,8.949525999999999,-2.8449101000000003,2.8963853999999998,-0.25246766,0.02876214,0.004261058,-29.94,-30.06,-46.26
1554207624189,9.141062,-2.7730842,2.843713,-0.221575,0.046871635999999994,0.029827405,-29.94,-30.06,-46.26
1554207624209,9.054871,-2.8640637000000004,2.891597,-0.18429075,0.07882957,0.07563378,-29.94,-30.06,-46.2
1554207624229,9.107543,-2.8880057,3.0113072,-0.13741912,0.14168017,0.16298546,-29.94,-30.0,-46.2
1554207624248,9.208099,-3.0891187,3.116652,-0.09161274,0.2130529,0.24074976,-29.94,-29.88,-46.2
1554207624268,9.289502,-3.2375592999999996,3.1836896,-0.06711166,0.3057309,0.3749731,-29.94,-29.82,-46.26
1554207624288,9.495403999999999,-3.5392287000000002,3.0017304,-0.11504856,0.39734364,0.57098174,-29.88,-29.58,-46.32
1554207624308,9.457097000000001,-3.9606082000000002,3.0065188,-0.221575,0.46871635,0.82557994,-29.88,-29.28,-46.32
1554207624329,9.457097000000001,-4.1186256000000006,3.1932666000000003,-0.30999196,0.51665324,1.0322412,-29.82,-28.92,-46.38
1554207624348,9.3421755,-4.755483,3.2650926,-0.4250405,0.5411543000000001,1.2133361999999999,-29.7,-28.38,-46.5
1554207624368,9.466674000000001,-4.899135,3.2555158,-0.5944176,0.53795856,1.3795174,-29.58,-27.66,-46.56
1554207624389,9.26556,-5.713164,3.5571851999999997,-0.79894835,0.5613944000000001,1.603223,-29.46,-26.4,-46.74
1554207624408,9.251195,-6.1632739999999995,3.5811272000000005,-0.8671253000000001,0.55287224,1.784318,-29.4,-25.5,-46.86
1554207624428,9.102755,-6.4745197,3.8061821000000005,-0.81705785,0.5933523,2.0037625,-29.4,-24.48,-47.16
1554207624449,8.480263,-6.6947865,3.9498343,-0.64768076,0.6295713000000001,2.0655476999999998,-29.34,-23.28,-47.46
1554207624469,8.173803999999999,-7.0730705,3.9594111000000005,-0.4314321,0.6530071,2.111354,-29.34,-21.96,-47.76
1554207624489,7.599196000000001,-7.422623599999999,3.863643,-0.294013,0.7073356,2.1699438,-29.34,-20.46,-48.06
1554207624508,7.5321584,-7.6907744000000005,3.3129766000000003,-0.33129725,0.71798825,2.25623,-29.34,-18.84,-48.36
1554207624528,6.9144545,-7.8248496,2.8963853999999998,-0.66365975,0.74781567,2.3638217,-29.22,-17.1,-48.6
1554207624549,6.3063273,-8.193557,3.0544027999999996,-1.0982877,0.76592517,2.5363946,-28.98,-15.36,-48.9
1554207624570,5.410896,-8.385093,3.2746694,-1.4604776000000002,0.7499462,2.6695528,-28.74,-13.26,-49.08
1554207624588,4.582502,-8.595782,3.6625300000000003,-1.5403723999999999,0.6828345,2.7739487,-28.38,-11.04,-49.14
1554207624609,3.8977604,-9.194333,3.5284547999999996,-1.2729911,0.6018744,2.8261466,-27.96,-8.64,-49.14
1554207624629,3.3758245000000002,-9.098564999999999,3.3991678,-0.809601,0.531567,2.7899277000000002,-27.48,-6.06,-49.14
1554207624649,3.0310593,-9.213486999999999,3.116652,-0.32810146,0.4889564,2.7814054,-26.88,-3.54,-49.14
1554207624669,2.753332,-8.782531,2.9921536,-0.07243799,0.48149952,2.8165592999999998,-26.28,-1.08,-49.08
1554207624689,2.3558946,-8.734647,2.40318,-0.040480047000000005,0.43995422,2.7973845,-25.68,1.32,-49.08
1554207624708,1.9249381999999997,-8.399458000000001,2.570774,-0.19920446,0.38349520000000004,2.7068369999999997,-24.96,3.6,-49.02
1554207624728,1.5035586,-8.389880999999999,2.3840263,-0.29188246,0.30892670000000005,2.6322683999999996,-24.18,5.52,-48.96
1554207624749,1.1923125,-8.581417,2.379238,-0.32384038,0.24820662,2.5811357000000004,-23.34,7.14,-48.9
1554207624769,0.91458505,-7.939771,2.843713,-0.24501082,0.22796659,2.5129588,-22.5,8.64,-48.84
1554207624789,0.34955344,-7.9062524000000005,2.949058,0.22050974,0.21092236,2.2381206000000002,-21.66,10.02,-48.78
1554207624809,0.062249242999999996,-7.6285253,3.0113072,0.51026165,0.18002969,2.0197413,-20.88,11.34,-48.66
1554207624829,0.095768064,-8.160038,2.3888147,0.6498113,0.12676647,1.8599516999999999,-20.04,12.48,-48.66
1554207624849,0.07182605,-7.848791599999999,2.3505075,0.4708469,0.094808534,1.75236,-19.2,13.44,-48.6
1554207624869,-0.31124622,-8.404246,2.28347,0.15552860000000002,0.046871635999999994,1.6522251000000001,-18.48,14.4,-48.48
1554207624888,-0.866701,-9.069835000000001,2.5899277,-0.10865697,0.02876214,1.6085493999999998,-17.88,15.24,-48.42
1554207624908,-1.2162545,-9.778519000000001,2.7814639,-0.28655612,-0.0031957934000000003,1.6021577,-17.28,16.08,-48.36
1554207624929,-1.8962077000000002,-10.319608,2.843713,-0.31105720000000003,0.0053263223,1.6362462,-16.68,16.74,-48.3
1554207624948,-2.566584,-10.01315,3.3033997999999998,-0.30146983,0.015978966,1.6895093999999997,-16.14,17.16,-48.3
1554207624969,-3.2752678,-9.419388,3.7870286,0.049002163,0.054328485999999995,1.7459685,-15.54,17.64,-48.3
1554207624989,-3.9552212,-9.788095,3.5045127999999997,0.55074173,0.06391586,1.784318,-15.0,18.06,-48.3
1554207625009,-4.4244847,-9.812037,2.819771,0.6668556,0.039414786,1.9451729,-14.46,18.54,-48.3
1554207625028,-4.9943047,-8.796896,3.2650926,0.48363006,0.05752428,2.1859226,-13.92,19.02,-48.3
1554207625048,-5.57849,-7.647678999999999,3.6242227999999996,0.41225734,0.03195793,2.2849922,-13.38,19.44,-48.36
1554207625068,-5.93762,-7.729081599999999,3.4231097999999998,0.44528055,0.0,2.324407,-12.66,19.92,-48.36
1554207625089,-5.865794,-7.527969000000001,3.0735563999999997,0.3270362,0.011717908999999999,2.4873924,-12.0,20.28,-48.36
1554207625109,-6.167464,-7.029975,3.020884,0.22050974,0.033023197000000004,2.5917885,-11.28,20.58,-48.36
1554207625129,-6.5122285,-6.3883285999999995,2.949058,0.12463594,0.04580637,2.6194854,-10.5,20.64,-48.42
1554207625149,-6.5792660000000005,-5.751471,2.7287915000000003,0.12037488,0.022370555,2.5800705,-9.54,20.64,-48.42
1554207625168,-6.2105594,-5.6030307,2.6952724,0.22477080000000002,-0.007456851,2.5438516,-8.7,20.58,-48.42
1554207625188,-5.875371,-5.3205147,2.8868085999999997,0.39840892,-0.043675844000000005,2.4692830000000003,-7.86,20.52,-48.42
1554207625209,-5.659893,-4.472967,2.915539,0.660464,-0.07030745599999999,2.275405,-6.66,20.4,-48.42
1554207625228,-5.760449400000001,-4.1282024,2.8820202,0.7914915,-0.07776430000000001,2.0975057999999995,-6.24,20.34,-48.42
1554207625248,-5.760449400000001,-3.86484,2.7910407000000004,0.87351686,-0.094808534,1.8226674999999999,-5.46,20.22,-48.42
1554207625269,-5.674258,-3.8073792,3.2076318,0.87777793,-0.082025364,1.4668691,-4.38,19.8,-48.42
1554207625289,-5.851429,-3.6349967000000003,3.2890346,0.8042746999999999,-0.056459017,1.2122709999999999,-3.84,19.26,-48.54
1554207625309,-6.2967505,-3.328539,3.09271,0.68389976,-0.049002163,0.9598033000000001,-3.36,18.54,-48.72
1554207625330,-6.646304,-3.2279825,3.1836896,0.4016047,-0.036218993,0.7414241,-2.88,17.7,-48.96
1554207625349,-6.756437299999999,-3.0843303,3.4614172,0.023435817999999997,0.002130529,0.59122175,-2.46,16.8,-49.2
1554207625368,-6.9288197,-2.9885623,3.7774517999999997,-0.25566345,0.043675844000000005,0.49641323,-2.1,15.9,-49.44
1554207625389,-7.3789296,-3.2040405,3.8540661,-0.37284255,0.08735169,0.42717105,-1.98,15.06,-49.68
1554207625409,-7.7093296,-3.4338839999999995,3.9354692000000004,-0.32277513,0.14487597,0.37603834,-1.8,14.28,-49.92
1554207625429,-7.896077,-3.3955764999999998,4.064756,-0.13848437,0.19174760000000002,0.350472,-1.68,13.8,-50.16
1554207625448,-7.967903,-3.2950199999999996,3.887585,0.099069595,0.22903186,0.33129725,-1.62,13.56,-50.28
1554207625468,-7.943961,-3.1992521000000003,3.7152026,0.350472,0.24820662,0.28442562,-1.56,13.5,-50.28
1554207625488,-8.1163435,-2.8640637000000004,3.4757824,0.5432849000000001,0.24607609,0.23861924,-1.44,13.62,-50.16
1554207625509,-8.183380999999999,-2.3852234,3.221997,0.6135923000000001,0.23116238,0.19600865,-1.26,13.74,-50.1
1554207625529,-8.470686,-2.2415714,3.1597476,0.5123922000000001,0.20772657,0.14913702,-1.08,13.86,-49.98
1554207625548,-8.465898,-2.404377,3.0879216,0.28336033,0.20559604,0.11717909,-0.84,13.86,-49.92
1554207625568,-8.365341,-2.5863364,3.1453824,0.06178534,0.19068234,0.10226539,-0.66,13.68,-49.92
1554207625589,-8.178593,-2.7682957999999998,3.1405939999999997,-0.07030745599999999,0.165116,0.10013486,-0.42,13.32,-49.92
1554207625608,-8.231264999999999,-2.7778726000000002,3.3895910000000002,-0.05752428,0.1438107,0.080960095,-0.24,12.96,-49.86
1554207625628,-8.39886,-2.6581624,3.3800142,0.04474111,0.12996227,0.040480047000000005,0.0,12.6,-49.98
1554207625648,-8.231264999999999,-2.6677392,3.4662056000000003,0.14594123,0.112918034,-0.010652645,0.18,12.24,-50.1
1554207625668,-8.394072,-2.5911248,3.4997244,0.16618125,0.11611383,-0.06391586,0.3,11.88,-50.16
1554207625688,-8.51857,-2.4139538,3.566762,0.10759171,0.11824436,-0.10333065,0.36,11.52,-50.28
1554207625708,-8.6813755,-2.5480292,3.1932666000000003,-0.07243799,0.11930962,-0.10226539,0.48,11.22,-50.34
1554207625728,-8.700529,-2.8209682000000003,3.3273417999999997,-0.25672874,0.10333065,-0.07030745599999999,0.54,11.16,-50.34
1554207625749,-8.523358,-3.0029275,3.5523968,-0.2876214,0.080960095,-0.047936900000000005,0.66,11.22,-50.34
1554207625769,-8.6095495,-2.9406781000000004,3.7966053,-0.14913702,0.05539375,-0.060720075,0.78,11.22,-50.4
1554207625789,-8.724471000000001,-2.8975825,3.6529531000000004,0.01917476,0.027696876000000002,-0.07456851,0.9,11.28,-50.4
1554207625809,-8.686164,-2.9215245,3.5476084,0.068176925,-0.0010652645,-0.056459017,1.08,11.34,-50.4
1554207625828,-8.623915,-2.8113914,3.7295678,0.007456851,-0.02876214,-0.026631612000000002,1.26,11.46,-50.4
1554207625848,-8.595184,-2.6677392,3.6721067,-0.05219796,-0.053263225,-0.015978966,1.44,11.58,-50.34
1554207625869,-8.676587,-2.7299886000000004,3.696049,-0.06178534,-0.06391586,-0.027696876000000002,1.56,11.7,-50.28
1554207625889,-8.604761,-2.7778726000000002,3.8109705000000003,-0.01917476,-0.06285059999999999,-0.039414786,1.68,11.82,-50.28
1554207625909,-8.690952000000001,-2.3852234,3.8780080999999997,0.112918034,-0.056459017,-0.07243799,1.74,11.88,-50.16
1554207625929,-8.7771435,-2.4474726,3.7104141999999998,0.19068234,-0.06178534,-0.101200126,1.74,12.0,-50.16
1554207625948,-8.930372,-2.8640637000000004,3.2650926,0.11824436,-0.06285059999999999,-0.06604639400000001,1.74,12.06,-50.1
1554207625968,-9.040505,-3.3764230000000004,3.5045127999999997,-0.068176925,-0.054328485999999995,0.05539375,1.68,12.12,-50.1
1554207625990,-8.719683,-3.328539,4.0025067000000005,-0.07456851,-0.06285059999999999,0.15126756,1.62,12.12,-50.16
1554207626009,-8.571242,-2.9933507,4.055179,0.18216023,-0.06498113,0.16298546,1.56,12.06,-50.16
1554207626029,-8.5473,-2.6533740000000003,3.9689879999999995,0.46871635,-0.047936900000000005,0.14807177,1.5,11.94,-50.22
1554207626048,-8.580819,-2.3612813999999998,3.9641995000000003,0.6530071,-0.008522116,0.15446335,1.44,11.88,-50.28
1554207626068,-8.686164,-2.4235306,3.6625300000000003,0.7222493000000001,0.020240024,0.16085494,1.44,11.76,-50.34
1554207626090,-8.815451,-2.2559366,3.4039562000000005,0.6679208000000001,0.039414786,0.14807177,1.5,11.46,-50.34
1554207626108,-8.710106,-2.2990322,3.1549592,0.5070659000000001,0.040480047000000005,0.14274544,1.5,11.04,-50.34
1554207626129,-8.719683,-2.1458032000000005,3.3704373999999997,0.29188246,0.039414786,0.16192019,1.5,10.5,-50.34
1554207626149,-8.556877,-2.1027076,3.2076318,0.17150758,0.03195793,0.17896444,1.5,10.02,-50.4
1554207626168,-8.418014,-2.0644004000000002,3.3225534,0.15126756,0.037284255,0.16192019,1.5,9.54,-50.4
1554207626188,-8.580819,-2.0452468,3.2986114,0.22370553,0.05539375,0.12357068,1.44,9.06,-50.46
1554207626209,-8.623915,-2.1170728,3.2172085999999998,0.29188246,0.08628642,0.096939065,1.44,8.58,-50.52
1554207626229,-8.643068,-1.9829974999999997,2.9825767999999995,0.26525086,0.101200126,0.08522116,1.44,8.16,-50.58
1554207626248,-8.542512,-1.7675193999999999,3.020884,0.13209279,0.10652645,0.07563378,1.38,7.74,-50.64
1554207626268,-8.413225,-1.9542671000000003,2.9921536,-0.018109497,0.112918034,0.058589544,1.38,7.56,-50.7
1554207626289,-8.504205,-1.9111716,2.9730000000000003,-0.101200126,0.09161274,0.049002163,1.38,7.38,-50.76
1554207626309,-8.571242,-1.8680758000000002,2.8628666000000003,-0.14487597,0.06924219,0.027696876000000002,1.44,7.26,-50.88
1554207626329,-8.671799,-1.738789,2.8341362,-0.17896444,0.034088463,-0.010652645,1.44,7.14,-51.0
1554207626349,-8.6095495,-1.6238673000000001,2.7431567,-0.26631612,-0.011717908999999999,-0.058589544,1.5,7.02,-51.06
1554207626369,-8.7771435,-1.417966,2.747945,-0.41864893,-0.040480047000000005,-0.099069595,1.56,6.9,-51.18
1554207626389,-8.743625,-1.5807717,2.8341362,-0.63915867,-0.07989483,-0.13528858,1.56,6.84,-51.18
1554207626409,-8.734048,-1.7100586,2.6473885,-0.85327685,-0.09374327,-0.15339808,1.62,6.78,-51.24
1554207626428,-8.805874000000001,-1.8201918999999998,3.0065188,-1.0695255,-0.1107875,-0.15659387,1.68,6.96,-51.24
1554207626448,-8.724471000000001,-1.9925743000000002,2.9442697,-1.2122709999999999,-0.10972224,-0.16831179,1.74,7.38,-51.18
1554207626469,-8.762777999999999,-2.1936872000000003,3.0400376000000002,-1.4008228,-0.10226539,-0.19281286,1.8,7.86,-51.12
1554207626489,-8.791509,-2.4905684,3.1884782000000005,-1.4711303,-0.09161274,-0.20240025,1.86,8.52,-51.0
1554207626508,-8.796297000000001,-2.9071592999999996,3.4087446000000003,-1.4391723,-0.09374327,-0.19068234,1.86,9.36,-50.7
1554207626528,-8.7532015,-3.2184057,3.3991678,-1.3092101,-0.094808534,-0.17150758,1.86,10.38,-50.34
1554207626549,-8.748413000000001,-3.3189620000000004,3.4278982000000005,-1.1323761,-0.08522116,-0.15978967,1.86,11.58,-50.04
1554207626569,-8.7053175,-3.481768,3.6529531000000004,-0.9768475000000001,-0.07243799,-0.13741912,1.86,12.9,-49.74
1554207626589,-8.686164,-3.6828809000000002,3.2650926,-0.81066626,-0.053263225,-0.11611383,1.8,14.34,-49.44
1554207626609,-8.6813755,-3.6589386,3.1932666000000003,-0.59761333,-0.05752428,-0.1107875,1.8,15.54,-49.14
1554207626628,-8.695741,-3.4434607,3.0544027999999996,-0.47830373,-0.06178534,-0.10652645,1.74,16.68,-48.78
1554207626648,-8.748413000000001,-3.1992521000000003,3.1597476,-0.42717105,-0.06604639400000001,-0.096939065,1.68,17.76,-48.48
1554207626669,-8.51857,-3.256713,2.690484,-0.46232477,-0.06285059999999999,-0.113983296,1.68,18.66,-48.36
1554207626689,-8.595184,-2.8496985,2.202067,-0.572047,-0.06285059999999999,-0.15126756,1.62,19.44,-48.18
1554207626709,-8.829816000000001,-2.5959132,1.8429368000000002,-0.8000136,-0.10546118,-0.16937704,1.56,20.1,-48.0
1554207626729,-8.7771435,-2.5145104,1.7711107,-1.1494204,-0.18642128,-0.16724652,1.44,20.58,-47.76
1554207626748,-8.355764,-2.7204118,1.7854759999999998,-1.4615428,-0.25033715,-0.2130529,1.38,21.0,-47.52
1554207626768,-8.183380999999999,-3.0412347,1.5173253,-1.7757957999999998,-0.294013,-0.30253512,1.26,21.54,-47.22
1554207626790,-8.087613000000001,-3.3955764999999998,1.1629834,-2.091114,-0.34514567,-0.350472,1.14,22.38,-46.86
1554207626810,-8.1402855,-3.9223008000000004,1.6130934,-2.4788704,-0.43569317,-0.38882150000000004,1.02,23.4,-46.5
1554207626829,-7.7428484,-4.597466000000001,2.1110873,-2.5523736,-0.52411014,-0.46552056,0.78,24.66,-46.02
1554207626848,-7.627927000000001,-4.9853263,2.28347,-2.3031017999999994,-0.52624065,-0.5816344,0.42,26.16,-45.42
1554207626868,-7.5273699999999995,-5.0523643,2.6330232999999996,-1.9867182,-0.50813115,-0.6380934,0.06,27.78,-44.64
1554207626889,-7.1873937,-4.9661726999999996,2.7431567,-1.6202673,-0.46658584,-0.6956177,-0.36,29.46,-43.68
1554207626909,-7.029375999999999,-5.061941,2.6569653,-1.1813782,-0.4101268,-0.8586031999999999,-0.96,31.98,-42.0
1554207626928,-7.1634517,-5.157709,2.3265655,-0.7861651999999999,-0.37816888,-0.98430437,-1.44,33.48,-40.98
1554207626948,-7.192182000000001,-5.512050599999999,2.3026235,-0.47830373,-0.39627838,-1.0535465,-1.68,34.08,-40.44
1554207626969,-7.177817,-5.8328739999999994,1.9961656000000003,-0.17789917,-0.45273739999999996,-1.1163971000000001,-2.58,35.94,-39.06
1554207626988,-7.1634517,-6.0531406,1.8237831999999998,-0.09054748,-0.51026165,-1.1494204,-3.18,36.84,-38.28
1554207627009,-7.1826053,-6.1345434,1.7328035,-0.07030745599999999,-0.6146576,-1.1739215,-3.66,37.56,-37.62
1554207627029,-7.1155677,-6.1249666,2.082357,-0.11611383,-0.7254451,-1.1973573,-4.2,38.1,-37.14
1554207627053,-6.8186865,-6.6085954,2.6282349,-0.096939065,-0.8362325999999999,-1.2346416,-4.8,38.52,-36.9
1554207627069,-6.7612257,-6.7426705,2.9203273999999997,-0.00958738,-0.85540736,-1.2293152,-5.46,38.88,-36.78
1554207627088,-6.5792660000000005,-6.9485717000000005,2.9969419999999998,0.25140239999999997,-0.8511463,-1.1994878,-6.3,39.12,-36.66
1554207627109,-6.4260373,-6.7426705,3.2507273999999997,0.4857606,-0.8383630999999999,-1.1749867,-6.72,39.12,-36.6
1554207627128,-6.1818290000000005,-6.737882000000001,3.1214404,0.79255676,-0.8681905000000001,-1.1824435,-8.04,39.0,-36.54
1554207627148,-6.1387334000000005,-6.7522473,2.9442697,0.7882956999999999,-0.9086706,-1.1824435,-8.94,38.64,-36.54
1554207627169,-5.971139,-6.8671690000000005,3.4518404,0.63915867,-0.9800433000000001,-1.128115,-10.02,38.22,-36.66
1554207627189,-5.5545480000000005,-7.2023573,3.7630866000000003,0.5028047999999999,-1.0077401,-1.0897655000000002,-11.16,37.74,-36.84
1554207627209,-5.2528787,-7.211933999999999,4.2850223,0.47404268,-0.96619487,-1.0482203,-12.3,37.2,-37.02
1554207627228,-5.1571107000000005,-7.16405,4.1844660000000005,0.5933523,-0.93423694,-1.019458,-13.38,36.66,-37.26
1554207627248,-4.8123455,-6.9246297000000006,4.385579,0.6764429,-0.9267801,-1.0130665,-14.28,36.0,-37.5
1554207627269,-4.271256,-7.2071457,4.174889,0.664725,-0.9225190000000001,-1.0215886,-15.12,35.1,-37.68
1554207627289,-3.9312792,-7.0251865,4.696825,0.5763081,-0.87564737,-1.0034790999999998,-15.84,34.2,-37.92
1554207627309,-3.6870705999999998,-7.149685000000001,4.9506106,0.5475459,-0.8266452,-1.0002834,-16.56,33.48,-38.16
1554207627328,-3.4476504,-7.140108000000001,4.7399206,0.55074173,-0.80107886,-1.0322412,-17.28,32.64,-38.46
1554207627349,-3.1268275,-6.881533999999999,4.969764,0.46125950000000004,-0.7701861999999999,-1.0887003,-18.12,31.86,-38.76
1554207627369,-2.7485435000000003,-7.389105000000001,5.003283000000001,0.47510794,-0.7414241,-1.1068097,-19.08,30.9,-39.06
1554207627389,-2.2697031,-7.724292999999999,5.510854,0.5773733,-0.700944,-1.1163971000000001,-19.98,29.88,-39.3
1554207627409,-1.9297266,-7.939771,5.5539494000000005,0.8309063,-0.6412892,-1.1057445,-20.94,28.62,-39.6
1554207627428,-1.8148049,-7.781753999999999,5.443816,1.0812434,-0.5795039000000001,-1.0887003,-21.9,27.54,-39.84
1554207627448,-1.8914193,-7.484873299999999,5.5204306,1.2261194,-0.5603291,-1.0887003,-22.86,26.34,-40.08
1554207627468,-1.6136919,-7.561487700000001,5.8651957999999995,1.2644688999999998,-0.5454154,-1.0844392,-23.88,24.96,-40.26
1554207627489,-1.2976573999999998,-7.872733599999999,6.1046157,1.293231,-0.51771855,-1.0343717,-24.72,23.46,-40.38
1554207627509,-1.2641385,-8.107366,6.0758852999999995,1.3166668,-0.47510794,-0.9555421999999999,-25.38,21.84,-40.62
1554207627528,-1.3311761999999998,-7.585429700000001,6.0519433,1.1558118999999998,-0.4314321,-0.88203895,-25.92,20.22,-40.92
1554207627550,-1.4939818,-6.929417999999999,6.3105173,0.90973586,-0.4079963,-0.8266452,-26.46,18.54,-41.22
1554207627570,-1.2641385,-6.4745197,6.684012400000001,0.69135666,-0.38562572,-0.7957525,-26.94,17.16,-41.52
1554207627591,-1.0486604,-6.120178,6.885125599999999,0.6061354999999999,-0.34621096,-0.79255676,-27.42,15.78,-41.88
1554207627609,-0.7661445,-6.182427400000001,7.148487599999999,0.6828345,-0.30253512,-0.813862,-27.84,14.46,-42.24
1554207627629,-0.5793968,-6.4122705,7.392696400000001,0.87564737,-0.26525086,-0.8202536,-28.2,13.26,-42.6
1554207627649,-0.6464345,-6.2542534000000005,7.354389,1.0247844000000002,-0.23755397,-0.8341021000000001,-28.74,11.94,-42.96
1554207627669,-0.39743748,-5.751471,7.478887599999999,1.2144015,-0.22264028,-0.88949585,-29.28,10.68,-43.14
1554207627689,-0.272939,-5.1002483,7.2873516,1.3443637,-0.23542345,-0.97258645,-29.7,9.48,-43.26
1554207627708,-0.095768064,-5.0092683,7.354389,1.4370418,-0.27483824,-1.0599382,-30.06,8.28,-43.38
1554207627729,0.14844051,-4.947019,7.402272999999999,1.4199976,-0.34834146,-1.1195928999999998,-30.48,6.9,-43.56
1554207627749,0.33039984,-4.6405616,7.512406299999999,1.2665993999999998,-0.40906155,-1.1483551,-30.78,5.34,-43.62
1554207627769,0.4261679,-4.233547,7.282563000000001,1.0215886,-0.47510794,-1.2069446000000001,-31.02,3.66,-43.68
1554207627788,0.59855044,-3.8313212,7.129334,0.71479243,-0.55287224,-1.3070794,-31.2,1.86,-43.74
1554207627809,1.1923125,-3.6014779000000003,7.330447,0.33662358,-0.6562029,-1.454086,-31.32,-0.6,-43.74
1554207627829,1.5753847,-3.6110547,7.3591776,0.027696876000000002,-0.7307714,-1.5169365,-31.38,-2.34,-43.74
1554207627851,1.8148049,-3.7499184999999997,7.5842323,-0.22264028,-0.75101143,-1.5797871,-31.5,-4.08,-43.8
1554207627868,2.2361843999999995,-4.252701,7.838017999999999,-0.39627838,-0.77231675,-1.663943,-31.68,-5.76,-43.8
1554207627889,2.7437549999999997,-4.540005000000001,7.5890207,-0.45912898,-0.7669904000000001,-1.7204021,-31.8,-6.54,-43.8
1554207627908,3.0358477,-4.860828,7.9194207,-0.48149952,-0.7456851,-1.8024273999999998,-32.22,-8.58,-43.8
1554207627928,3.4955344,-5.143344,7.7087307,-0.48043427,-0.7275756,-1.8162759999999998,-32.52,-9.84,-43.74
1554207627950,3.9121256,-5.382764,8.067862,-0.49534798,-0.6498113,-1.8141453,-32.82,-11.04,-43.56
1554207627969,4.4244847,-5.497685400000001,7.9098440000000005,-0.5091964,-0.57417756,-1.7875136999999999,-33.12,-12.12,-43.38
1554207627989,4.6399627,-5.497685400000001,7.8092875,-0.46125950000000004,-0.47297743,-1.7619474,-33.36,-13.14,-43.2
1554207628009,4.6830587,-5.224746700000001,7.7087307,-0.35899413,-0.406931,-1.7651432,-33.6,-14.22,-42.96
1554207628029,5.0421886,-5.2103815,7.6081743,-0.23968449999999997,-0.36218992,-1.7885790000000001,-33.72,-15.42,-42.78
1554207628048,5.616797,-5.2965727,7.29214,-0.23968449999999997,-0.3057309,-1.784318,-33.9,-16.62,-42.6
1554207628068,5.9041014,-5.401917500000001,7.091027,-0.4133226,-0.22264028,-1.7097494999999998,-34.08,-17.76,-42.42
1554207628089,5.865794,-5.5695120000000005,6.818088,-0.73609775,-0.14061491,-1.5755261,-34.14,-18.78,-42.24
1554207628109,5.568912999999999,-5.325303,6.693589,-1.1142666,-0.07776430000000001,-1.5084145,-34.26,-19.86,-42.24
1554207628129,5.434838,-5.325303,6.8228765,-1.4263891000000002,-0.025566347000000003,-1.4519554,-34.32,-20.94,-42.24
1554207628148,5.583278,-5.751471,6.918644400000001,-1.6500946,0.07137272,-1.4061489999999999,-34.38,-21.96,-42.3
1554207628168,5.449203,-5.789778,6.6744356,-1.6841831000000003,0.18002969,-1.3997575,-34.38,-22.68,-42.48
1554207628188,5.142745,-5.799355,6.2817870000000005,-1.6745956999999998,0.28868666,-1.4508902,-34.38,-23.22,-42.78
1554207628209,5.0038815,-5.789778,6.1716533,-1.6905746,0.37390783,-1.5030881,-34.26,-23.7,-43.02
1554207628230,4.7740383,-5.976526,5.9130797,-1.7608821,0.43569317,-1.5116103,-34.08,-24.0,-43.38
1554207628255,4.5633483,-6.0866594,5.606621700000001,-1.9046929,0.48043427,-1.4711303,-33.54,-24.36,-43.86
1554207628268,4.6208089999999995,-6.373963400000001,5.8508306,-1.9973708,0.49534798,-1.4221281000000001,-33.3,-24.48,-44.1
1554207628289,4.721366000000001,-6.747458999999999,5.740697,-2.107093,0.5400891,-1.32945,-32.88,-24.54,-44.52
1554207628308,4.673482,-7.2215110000000005,5.8891377,-2.1177456,0.59867865,-1.2197278,-32.4,-24.42,-45.12
1554207628329,4.582502,-7.7003509999999995,5.8651957999999995,-1.9696740000000001,0.64341974,-1.0961571,-31.98,-24.18,-45.6
1554207628348,4.285621,-7.9062524000000005,5.831677,-1.6980315,0.6540724,-0.96939063,-31.56,-23.7,-46.08
1554207628369,4.434061499999999,-7.839214999999999,5.831677,-1.3965617000000001,0.6380934,-0.8564726,-31.14,-23.04,-46.5
1554207628388,4.290409599999999,-7.709928,5.668871,-1.1366372,0.61678815,-0.74035877,-30.6,-22.32,-47.04
1554207628409,4.1276035,-7.398681599999999,5.659294,-0.9321064,0.59228706,-0.6018744,-29.94,-21.6,-47.58
1554207628429,3.98874,-7.2023573,5.333683000000001,-0.79681784,0.53476274,-0.47510794,-29.46,-20.76,-48.12
1554207628449,3.7924154000000003,-7.140108000000001,5.194819,-0.7052050999999999,0.44421527,-0.3653857,-28.92,-19.92,-48.66
1554207628469,3.8211459999999997,-7.140108000000001,5.506065400000001,-0.6508765999999999,0.31638354,-0.26525086,-28.44,-19.02,-49.02
1554207628488,3.9839516,-6.9677253,5.6880245,-0.60720074,0.21837921,-0.16618125,-27.96,-18.3,-49.38
1554207628509,4.4580035,-6.9342065,5.716755,-0.49428272,0.10652645,-0.040480047000000005,-27.54,-17.64,-49.68
1554207628529,5.023035,-6.761824000000001,6.1524997,-0.30786142,-0.007456851,-0.002130529,-27.12,-17.1,-49.92
1554207628549,5.2863975,-6.699575,6.305729,-0.010652645,-0.06711166,0.03089267,-26.82,-16.56,-50.1
1554207628568,5.3582234,-6.6852098,6.3488245,0.32597092,-0.07669904,0.084155895,-26.7,-16.08,-50.28
1554207628588,5.4061074,-6.5511346,6.2626333,0.61678815,-0.068176925,0.12357068,-26.58,-15.6,-50.4
1554207628608,5.4539914000000005,-6.2207346,5.798158,0.8032094,-0.05006743,0.15446335,-26.46,-15.24,-50.46
1554207628629,5.3821654,-5.976526,5.563526,0.8522116,-0.049002163,0.15978967,-26.34,-14.94,-50.46
1554207628649,5.343858200000001,-5.7802014,5.486912,0.737163,-0.06285059999999999,0.15552860000000002,-26.28,-14.76,-50.52
1554207628668,5.363012,-5.679645,5.525219,0.5049353,-0.10333065,0.17257284,-26.16,-14.64,-50.52
1554207628689,5.363012,-5.593454,5.367202,0.21944448,-0.14913702,0.22477080000000002,-26.04,-14.76,-50.58
1554207628709,5.420472599999999,-5.7227407,5.285799,-0.039414786,-0.15765914,0.27377295,-26.04,-14.94,-50.58
1554207628729,5.295974299999999,-6.0866594,5.391144000000001,-0.20772657,-0.15233281,0.29933932,-25.98,-15.3,-50.46
1554207628748,5.449203,-6.1632739999999995,5.544372599999999,-0.18216023,-0.13315806,0.31638354,-25.98,-15.42,-50.46
1554207628768,5.329493,-6.2781954,5.620987,0.0010652645,-0.07776430000000001,0.30892670000000005,-26.04,-15.72,-50.34
1554207628789,5.2863975,-6.192004,5.3528366,0.33981937,0.010652645,0.24820662,-26.1,-16.02,-50.16
1554207628809,5.386954,-6.182427400000001,5.37199,0.5603291,0.07669904,0.17150758,-26.16,-16.26,-50.04
1554207628829,5.3678,-5.9142766,5.1038394,0.64555025,0.13635385,0.10865697,-26.22,-16.38,-49.92
1554207628849,5.185841,-5.6269727,4.9506106,0.5944176,0.18109496,0.03195793,-26.28,-16.44,-49.8
1554207628869,5.046977,-5.4641665999999995,4.9027267,0.40373522,0.18748654,-0.033023197000000004,-26.28,-16.44,-49.68
1554207628889,5.056554,-5.5168395,4.869208,0.14807177,0.16831179,-0.07243799,-26.22,-16.44,-49.56
1554207628909,4.975151,-5.5695120000000005,5.122993,-0.12570119999999999,0.12996227,-0.094808534,-26.16,-16.5,-49.5
1554207628929,5.0421886,-5.823297,5.228338,-0.34408042,0.08628642,-0.099069595,-26.1,-16.68,-49.5
1554207628948,4.9320555,-6.1153900000000005,5.367202,-0.43249738,0.036218993,-0.10759171,-25.98,-16.86,-49.44
1554207628968,4.9464207,-6.215946,5.525219,-0.39414784,-0.011717908999999999,-0.111852765,-25.98,-17.04,-49.5
1554207628989,4.8219223,-6.4457892999999995,5.7646394,-0.19068234,-0.051132694000000006,-0.09587380000000001,-25.92,-17.16,-49.5
1554207629009,4.9224787,-6.469731299999999,5.8891377,-0.026631612000000002,-0.068176925,-0.07350325,-25.86,-17.22,-49.62
1554207629028,4.7644614999999995,-6.259042,5.8221,0.22477080000000002,-0.096939065,-0.049002163,-25.86,-17.22,-49.68
1554207629048,4.7644614999999995,-6.2351,5.716755,0.34621096,-0.12676647,-0.010652645,-25.92,-17.28,-49.8
1554207629069,4.7788267,-6.096236,5.927445,0.40586576,-0.15020229,0.02876214,-26.04,-17.22,-49.92
1554207629088,4.865018,-5.943007,5.8747725,0.4133226,-0.16831179,0.068176925,-26.1,-17.16,-49.98
1554207629108,4.8219223,-5.875969400000001,5.917868,0.38882150000000004,-0.17576863,0.098004326,-26.22,-17.22,-50.1
1554207629129,4.927267,-5.852027400000001,5.917868,0.33981937,-0.16831179,0.13528858,-26.28,-17.46,-50.16
1554207629148,4.941632299999999,-5.837662,5.9322333,0.2908172,-0.15126756,0.16405073,-26.4,-17.82,-50.22
1554207629168,5.0086699999999995,-5.8041434,5.8508306,0.2727077,-0.13848437,0.165116,-26.58,-18.3,-50.22
1554207629188,5.0613421999999995,-5.7754129999999995,5.879561,0.27696875,-0.11930962,0.14487597,-26.82,-18.9,-50.28
1554207629209,5.133168,-5.7323174,5.9082913,0.27590349999999997,-0.094808534,0.128897,-27.06,-19.44,-50.22
1554207629228,5.0421886,-5.631761,5.6736593,0.26738137,-0.06924219,0.113983296,-27.3,-19.92,-50.16
1554207629248,5.1092260000000005,-5.6509147,5.8747725,0.23542345,-0.056459017,0.08841695,-27.54,-20.46,-50.1
1554207629269,5.12838,-5.5695120000000005,5.525219,0.18642128,-0.04261058,0.06924219,-27.66,-20.82,-50.04
1554207629288,5.243302,-5.631761,5.807735,0.14594123,-0.029827405,0.068176925,-27.84,-21.06,-49.98
1554207629308,5.2385135,-5.612607499999999,5.846042,0.1107875,-0.018109497,0.06178534,-27.96,-21.12,-49.86
1554207629328,5.2241483,-5.5743003,5.6976013,0.08522116,-0.010652645,0.051132694000000006,-28.02,-21.24,-49.74
1554207629348,5.161899,-5.468955,5.7263317,0.06924219,-0.004261058,0.037284255,-28.02,-21.3,-49.62
1554207629369,5.295974299999999,-5.579088700000001,5.716755,0.06285059999999999,-0.004261058,0.03089267,-28.2,-21.42,-49.56
1554207629388,5.2863975,-5.612607499999999,5.6257753,0.07137272,-0.004261058,0.015978966,-28.32,-21.54,-49.56
1554207629408,5.2289367,-5.54557,5.7598505,0.084155895,-0.0010652645,-0.004261058,-28.56,-21.84,-49.44
1554207629428,5.2863975,-5.5743003,5.606621700000001,0.09054748,-0.0063915867,-0.015978966,-28.68,-22.08,-49.5
1554207629448,5.1475334,-5.6461263,5.7646394,0.07243799,0.0053263223,-0.017044231,-28.86,-22.32,-49.5
1554207629468,5.1762643,-5.607819,5.769428,0.05219796,0.013848438000000001,-0.02130529,-29.04,-22.62,-49.5
1554207629488,5.1379566,-5.713164,5.8651957999999995,0.046871635999999994,0.01917476,-0.029827405,-29.16,-22.92,-49.5
1554207629508,5.104438,-5.607819,5.802946599999999,0.035153727999999995,0.022370555,-0.03089267,-29.28,-23.22,-49.5
1554207629529,5.133168,-5.689222,5.855619,0.03089267,0.027696876000000002,-0.04474111,-29.22,-23.52,-49.5
1554207629548,4.936844000000001,-5.521628,5.9082913,0.025566347000000003,0.026631612000000002,-0.049002163,-29.16,-23.7,-49.44
1554207629570,4.975151,-5.521628,5.831677,0.03089267,0.020240024,-0.05965481,-29.1,-23.88,-49.44
1554207629588,4.965574299999999,-5.6461263,6.0088477,0.029827405,0.018109497,-0.06498113,-29.04,-24.06,-49.44
1554207629609,4.903325,-5.6748567,5.917868,0.024501082,0.02130529,-0.06285059999999999,-28.98,-24.24,-49.44
1554207629628,4.8841715,-5.48332,5.960963700000001,0.017044231,0.022370555,-0.07030745599999999,-28.92,-24.3,-49.5
1554207629648,4.88896,-5.512050599999999,5.846042,0.008522116,0.020240024,-0.083090626,-28.86,-24.3,-49.5
1554207629669,4.917690299999999,-5.5647235,5.9465985,-0.008522116,0.01917476,-0.096939065,-28.8,-24.18,-49.56
1554207629688,4.903325,-5.507262,5.817312,-0.034088463,0.025566347000000003,-0.094808534,-28.68,-24.0,-49.56
1554207629709,4.936844000000001,-5.6365495,5.903503,-0.05006743,0.024501082,-0.09161274,-28.56,-23.7,-49.62
1554207629728,4.917690299999999,-5.7323174,5.9322333,-0.05965481,0.014913702,-0.08948222,-28.44,-23.22,-49.68
1554207629748,4.8985367,-5.7802014,6.0327897,-0.05539375,0.011717908999999999,-0.08948222,-28.26,-22.8,-49.68
1554207629768,4.960786,-5.7227407,6.0088477,-0.040480047000000005,0.0010652645,-0.08735169,-28.08,-22.32,-49.68
1554207629788,4.9943047,-5.847239,6.186018499999999,-0.010652645,-0.0010652645,-0.07882957,-27.9,-21.9,-49.68
1554207629808,5.032612,-5.885546,6.1620764999999995,0.03834952,0.0,-0.07456851,-27.72,-21.54,-49.74
1554207629829,5.056554,-5.966949,6.229114,0.07243799,0.014913702,-0.05006743,-27.6,-21.24,-49.74
1554207629848,4.984728,-5.909488,6.1477113,0.10439592,0.053263225,-0.010652645,-27.48,-21.06,-49.74
1554207629869,4.984728,-5.6604915,6.128557700000001,0.13954964,0.09374327,0.01917476,-27.42,-21.0,-49.74
1554207629888,5.0517654,-5.7083755,6.06152,0.1470065,0.11717909,0.024501082,-27.42,-21.0,-49.74
1554207629908,5.104438,-5.4641665999999995,5.8987145,0.12570119999999999,0.13102753,0.004261058,-27.36,-20.94,-49.68
1554207629929,5.023035,-5.382764,5.9705405,0.10013486,0.14487597,-0.018109497,-27.3,-20.76,-49.62
1554207629949,4.9512089999999995,-5.229535,5.9322333,0.027696876000000002,0.14807177,-0.046871635999999994,-27.3,-20.64,-49.5
1554207629968,4.917690299999999,-5.310938,6.023213,-0.041545313,0.13315806,-0.07456851,-27.24,-20.52,-49.44
1554207629988,4.8506527,-5.286996,5.8891377,-0.08841695,0.11930962,-0.09374327,-27.18,-20.4,-49.38
1554207630009,4.817133999999999,-5.325303,5.9465985,-0.12570119999999999,0.07989483,-0.12463594,-27.12,-20.28,-49.32
1554207630028,4.879383,-5.3444567,6.1381345000000005,-0.12996227,0.049002163,-0.15126756,-27.06,-20.16,-49.32
1554207630048,4.865018,-5.3971290000000005,6.023213,-0.11930962,0.012783173500000002,-0.17789917,-27.0,-20.04,-49.32
1554207630069,4.8937483,-5.507262,6.0088477,-0.098004326,-0.010652645,-0.19281286,-27.0,-19.92,-49.38
1554207630089,4.88896,-5.5264163,5.999271,-0.07456851,-0.02130529,-0.19600865,-26.94,-20.04,-49.38
1554207630110,4.917690299999999,-5.6269727,6.1237693,-0.06604639400000001,-0.024501082,-0.18322548,-26.94,-20.1,-49.5
1554207630132,4.88896,-5.679645,6.013636,-0.083090626,-0.024501082,-0.17150758,-26.94,-20.1,-49.5
1554207630148,4.917690299999999,-5.8328739999999994,6.095039,-0.11930962,-0.012783173500000002,-0.14487597,-26.94,-20.1,-49.56
1554207630168,4.8458643,-5.751471,6.1477113,-0.15233281,-0.0063915867,-0.11717909,-26.94,-20.16,-49.62
1554207630189,4.7931919999999995,-5.7179523,6.186018499999999,-0.15765914,0.0,-0.09587380000000001,-27.0,-20.22,-49.62
1554207630209,4.7405194999999996,-5.7083755,6.0998273,-0.14487597,0.004261058,-0.07669904,-27.0,-20.34,-49.68
1554207630228,4.663905000000001,-5.7083755,6.27221,-0.11717909,0.0010652645,-0.060720075,-27.0,-20.4,-49.68
1554207630248,4.802768700000001,-5.7179523,6.1524997,-0.06391586,0.002130529,-0.047936900000000005,-27.0,-20.58,-49.74
1554207630268,4.817133999999999,-5.7466826,6.095039,0.0010652645,0.0053263223,-0.023435817999999997,-27.06,-20.82,-49.8
1554207630288,4.8219223,-5.689222,6.18123,0.029827405,0.013848438000000001,-0.008522116,-27.12,-21.0,-49.8
1554207630308,4.817133999999999,-5.6604915,6.0423665,0.029827405,0.00958738,-0.008522116,-27.12,-21.12,-49.86
1554207630329,4.917690299999999,-5.6269727,5.951387,0.023435817999999997,0.008522116,-0.0063915867,-27.18,-21.3,-49.86
1554207630348,4.965574299999999,-5.7227407,6.095039,0.02130529,0.012783173500000002,-0.004261058,-27.24,-21.42,-49.86
1554207630368,4.965574299999999,-5.579088700000001,6.0567317,0.017044231,0.022370555,-0.0031957934000000003,-27.24,-21.48,-49.92
1554207630388,5.0038815,-5.7083755,5.8412538,0.0010652645,0.020240024,-0.008522116,-27.3,-21.48,-49.92
1554207630408,4.9799394999999995,-5.7466826,5.9561753,-0.012783173500000002,0.014913702,-0.01917476,-27.3,-21.48,-49.92
1554207630428,5.046977,-5.789778,6.0423665,-0.010652645,0.015978966,-0.026631612000000002,-27.3,-21.48,-49.98
1554207630448,4.975151,-5.7227407,6.0088477,-0.010652645,0.015978966,-0.034088463,-27.3,-21.54,-50.1
1554207630468,5.0134583,-5.655703,6.047155,-0.013848438000000001,0.00958738,-0.041545313,-27.24,-21.54,-50.16
1554207630488,5.0134583,-5.6269727,6.0567317,-0.026631612000000002,0.012783173500000002,-0.04474111,-27.24,-21.54,-50.22
1554207630509,5.046977,-5.6700683,6.085462000000001,-0.03195793,0.017044231,-0.043675844000000005,-27.24,-21.54,-50.22
1554207630528,5.0086699999999995,-5.6844335,5.965751999999999,-0.024501082,0.025566347000000003,-0.049002163,-27.18,-21.54,-50.28
1554207630548,4.9512089999999995,-5.7083755,6.1381345000000005,-0.014913702,0.036218993,-0.05752428,-27.18,-21.6,-50.28
1554207630568,4.927267,-5.593454,6.0280013,-0.020240024,0.051132694000000006,-0.06178534,-27.12,-21.66,-50.28
1554207630589,4.8841715,-5.655703,6.0663085,-0.04580637,0.07030745599999999,-0.05965481,-27.12,-21.78,-50.22
1554207630608,4.8698063,-5.492897,5.9322333,-0.058589544,0.083090626,-0.068176925,-27.06,-21.96,-50.16
1554207630629,4.865018,-5.6221843,6.023213,-0.080960095,0.09161274,-0.07989483,-27.06,-22.14,-50.16
1554207630648,4.8937483,-5.555146700000001,6.095039,-0.10439592,0.08841695,-0.09054748,-27.12,-22.38,-50.1
1554207630668,4.8602295,-5.612607499999999,6.047155,-0.12037488,0.07989483,-0.08948222,-27.12,-22.62,-50.1
1554207630688,4.7979803,-5.5695120000000005,5.951387,-0.11930962,0.07030745599999999,-0.07989483,-27.12,-22.86,-50.1
1554207630709,4.8123455,-5.6461263,6.1381345000000005,-0.10759171,0.056459017,-0.06924219,-27.18,-23.04,-50.28
1554207630730,4.759673,-5.727529,6.0280013,-0.07563378,0.033023197000000004,-0.060720075,-27.24,-23.28,-50.4
1554207630748,4.7931919999999995,-5.6221843,6.157287999999999,-0.02130529,0.011717908999999999,-0.05539375,-27.3,-23.46,-50.58
1554207630768,4.7022123,-5.612607499999999,6.085462000000001,0.024501082,-0.018109497,-0.047936900000000005,-27.3,-23.52,-50.7
1554207630788,4.76925,-5.617396,6.1955953,0.047936900000000005,-0.041545313,-0.039414786,-27.36,-23.58,-50.76
1554207630808,4.76925,-5.689222,6.0806737,0.06604639400000001,-0.06178534,-0.024501082,-27.36,-23.64,-50.76
1554207630828,4.711789,-5.5407815000000005,6.1237693,0.084155895,-0.07137272,-0.008522116,-27.36,-23.64,-50.76
1554207630848,4.88896,-5.7466826,6.047155,0.10013486,-0.080960095,-0.0010652645,-27.36,-23.64,-50.76
1554207630869,4.855441000000001,-5.7658362,6.1524997,0.10759171,-0.07989483,0.0063915867,-27.36,-23.58,-50.64
1554207630888,4.7931919999999995,-5.66528,5.994482499999999,0.111852765,-0.07776430000000001,0.00958738,-27.36,-23.52,-50.52
1554207630908,4.903325,-5.583876999999999,6.0758852999999995,0.10013486,-0.07989483,0.007456851,-27.36,-23.4,-50.4
1554207630928,4.8267107000000005,-5.5503583,6.114192500000001,0.07456851,-0.07350325,-0.004261058,-27.36,-23.34,-50.28
1554207630949,4.8506527,-5.727529,6.0088477,0.04580637,-0.06391586,-0.010652645,-27.36,-23.28,-50.22
1554207630968,4.8123455,-5.8089319999999995,5.965751999999999,0.024501082,-0.05539375,-0.011717908999999999,-27.36,-23.22,-50.28
1554207630988,4.9081135,-5.8089319999999995,6.0040593,0.008522116,-0.04580637,-0.010652645,-27.42,-23.22,-50.28
1554207631008,4.9799394999999995,-5.837662,6.0519433,0.0,-0.04580637,-0.020240024,-27.42,-23.16,-50.22
1554207631028,4.8698063,-5.828085400000001,5.994482499999999,-0.0010652645,-0.039414786,-0.02130529,-27.42,-23.28,-50.16
1554207631049,4.8602295,-5.837662,5.846042,-0.0053263223,-0.035153727999999995,-0.014913702,-27.48,-23.4,-50.16
1554207631068,4.8458643,-5.8903346,5.893926,-0.007456851,-0.03195793,-0.013848438000000001,-27.48,-23.46,-50.16
1554207631088,4.8841715,-5.7945666,5.8651957999999995,-0.0063915867,-0.02876214,-0.012783173500000002,-27.48,-23.64,-50.04
1554207631108,4.879383,-5.8041434,6.0663085,-0.0031957934000000003,-0.022370555,-0.013848438000000001,-27.54,-23.7,-49.98
1554207631128,4.903325,-5.7849900000000005,5.8508306,0.017044231,-0.0063915867,-0.026631612000000002,-27.54,-23.82,-49.98
1554207631150,4.8602295,-5.679645,5.8412538,0.041545313,0.012783173500000002,-0.060720075,-27.6,-23.76,-49.92
1554207631168,4.9464207,-5.631761,5.7933699999999995,0.025566347000000003,0.023435817999999997,-0.07882957,-27.6,-23.76,-49.86
1554207631188,4.984728,-5.7227407,5.817312,-0.047936900000000005,0.02876214,-0.084155895,-27.66,-23.7,-49.86
1554207631208,4.936844000000001,-5.679645,5.798158,-0.13422333,0.023435817999999997,-0.07137272,-27.72,-23.64,-49.8
1554207631228,4.8506527,-5.7945666,5.893926,-0.16724652,0.012783173500000002,-0.05006743,-27.78,-23.58,-49.86
1554207631249,4.879383,-5.7945666,6.1333459999999995,-0.13528858,-0.002130529,-0.027696876000000002,-27.78,-23.46,-49.86
1554207631268,4.7884035,-5.7466826,6.0519433,-0.05539375,-0.023435817999999997,-0.020240024,-27.78,-23.4,-49.92
1554207631288,4.8267107000000005,-5.7179523,5.975329,0.034088463,-0.05539375,-0.013848438000000001,-27.84,-23.28,-50.04
1554207631308,4.903325,-5.6700683,6.118981,0.101200126,-0.07776430000000001,-0.0010652645,-27.84,-23.22,-50.1
1554207631329,4.9703627,-5.7179523,5.975329,0.1470065,-0.09267801,0.00958738,-27.9,-23.22,-50.16
1554207631348,4.8745947,-5.5695120000000005,5.9801173,0.1768339,-0.08628642,0.010652645,-27.9,-23.22,-50.16
1554207631368,5.0421886,-5.583876999999999,5.9849057,0.18748654,-0.09161274,0.010652645,-27.9,-23.16,-50.22
1554207631389,4.9799394999999995,-5.607819,5.9465985,0.16192019,-0.06924219,0.008522116,-27.9,-23.16,-50.22
1554207631408,4.975151,-5.6030307,6.0184245,0.10865697,-0.03834952,-0.0010652645,-27.9,-23.16,-50.22
1554207631428,4.9895163,-5.579088700000001,5.917868,0.04580637,-0.034088463,-0.018109497,-27.9,-23.16,-50.22
1554207631448,5.0374002,-5.617396,5.807735,-0.010652645,-0.013848438000000001,-0.03089267,-27.9,-23.22,-50.16
1554207631468,4.9464207,-5.6509147,5.8891377,-0.035153727999999995,-0.0010652645,-0.03834952,-27.9,-23.16,-50.16
1554207631488,5.0038815,-5.727529,5.9801173,-0.039414786,-0.0031957934000000003,-0.041545313,-27.9,-23.04,-50.1
1554207631508,5.023035,-5.7418942,5.8412538,-0.029827405,-0.002130529,-0.04474111,-27.9,-22.92,-50.04
1554207631528,4.965574299999999,-5.6604915,5.9082913,-0.017044231,-0.015978966,-0.04474111,-27.78,-22.8,-50.04
1554207631548,5.023035,-5.7083755,5.994482499999999,-0.0031957934000000003,-0.027696876000000002,-0.03834952,-27.66,-22.5,-49.98
1554207631568,4.999093,-5.6940102999999995,5.9801173,0.018109497,-0.03195793,-0.03089267,-27.6,-22.26,-49.92
1554207631588,4.9703627,-5.7179523,6.0423665,0.040480047000000005,-0.036218993,-0.023435817999999997,-27.48,-22.02,-49.92
1554207631608,4.984728,-5.679645,6.0806737,0.05965481,-0.036218993,-0.015978966,-27.36,-21.78,-49.86
1554207631628,4.975151,-5.6221843,5.8891377,0.058589544,-0.03195793,-0.007456851,-27.3,-21.6,-49.86
1554207631648,4.941632299999999,-5.6030307,6.0280013,0.05219796,-0.026631612000000002,-0.015978966,-27.18,-21.42,-49.86
1554207631668,4.8937483,-5.5264163,5.8747725,0.035153727999999995,-0.017044231,-0.023435817999999997,-27.12,-21.3,-49.8
1554207631689,4.927267,-5.497685400000001,5.9130797,0.011717908999999999,-0.0053263223,-0.034088463,-27.12,-21.18,-49.8
1554207631708,5.056554,-5.4545900000000005,5.807735,-0.026631612000000002,0.0010652645,-0.040480047000000005,-27.18,-21.18,-49.74
1554207631728,4.9559975,-5.655703,5.999271,-0.05965481,0.010652645,-0.04580637,-27.18,-21.24,-49.74
1554207631748,5.0086699999999995,-5.6940102999999995,6.0519433,-0.08522116,0.0063915867,-0.046871635999999994,-27.24,-21.3,-49.8
1554207631768,5.0134583,-5.6461263,5.9130797,-0.082025364,-0.0031957934000000003,-0.051132694000000006,-27.24,-21.3,-49.8
1554207631788,4.9512089999999995,-5.6604915,6.1094040000000005,-0.06178534,-0.0031957934000000003,-0.05539375,-27.24,-21.3,-49.86
1554207631809,5.0134583,-5.703587000000001,6.071097,-0.033023197000000004,-0.011717908999999999,-0.04261058,-27.24,-21.36,-49.92
1554207631828,4.975151,-5.7706246,6.06152,-0.0063915867,-0.02130529,-0.04474111,-27.3,-21.3,-49.98
1554207631848,4.960786,-5.593454,6.0663085,0.007456851,-0.035153727999999995,-0.047936900000000005,-27.3,-21.3,-49.98
1554207631868,5.0134583,-5.593454,5.994482499999999,0.007456851,-0.049002163,-0.04474111,-27.3,-21.3,-50.04
1554207631888,4.9464207,-5.7227407,5.9465985,0.0010652645,-0.058589544,-0.041545313,-27.24,-21.3,-50.1
1554207631908,4.9799394999999995,-5.7323174,6.1477113,0.0031957934000000003,-0.058589544,-0.034088463,-27.3,-21.3,-50.1
1554207631929,5.085284,-5.7227407,6.0184245,0.026631612000000002,-0.060720075,-0.025566347000000003,-27.42,-21.3,-50.1
1554207631948,5.0613421999999995,-5.7227407,6.0806737,0.033023197000000004,-0.05539375,-0.024501082,-27.48,-21.3,-50.1
1554207631968,5.018246700000001,-5.713164,5.965751999999999,0.04580637,-0.046871635999999994,-0.029827405,-27.72,-21.36,-50.1
1554207631988,5.0086699999999995,-5.617396,5.975329,0.04580637,-0.039414786,-0.037284255,-27.9,-21.42,-50.1
1554207632008,4.965574299999999,-5.727529,6.0088477,0.041545313,-0.025566347000000003,-0.037284255,-28.08,-21.42,-50.1
1554207632029,5.032612,-5.612607499999999,5.807735,0.020240024,-0.00958738,-0.039414786,-28.14,-21.48,-50.1
1554207632048,4.999093,-5.6461263,5.879561,-0.007456851,0.004261058,-0.041545313,-28.26,-21.48,-50.1
1554207632068,4.975151,-5.6844335,5.9082913,-0.029827405,0.015978966,-0.047936900000000005,-28.32,-21.54,-50.1
1554207632088,5.027823400000001,-5.7179523,6.0184245,-0.037284255,0.013848438000000001,-0.049002163,-28.26,-21.54,-50.04
1554207632108,5.018246700000001,-5.837662,5.8651957999999995,-0.024501082,0.018109497,-0.053263225,-28.14,-21.6,-50.04
1554207632128,5.023035,-5.617396,5.94181,-0.0053263223,0.022370555,-0.054328485999999995,-28.02,-21.6,-49.92
1554207632149,4.9943047,-5.631761,5.9082913,-0.004261058,0.022370555,-0.041545313,-27.96,-21.66,-49.86
1554207632168,4.9895163,-5.5647235,6.0088477,-0.011717908999999999,0.014913702,-0.03834952,-27.9,-21.66,-49.8
1554207632188,5.0421886,-5.612607499999999,5.903503,-0.0063915867,0.0,-0.035153727999999995,-27.84,-21.72,-49.74
1554207632208,5.023035,-5.689222,5.855619,0.011717908999999999,-0.00958738,-0.033023197000000004,-27.84,-21.78,-49.68
1554207632228,5.104438,-5.631761,5.846042,0.02876214,-0.013848438000000001,-0.03089267,-27.78,-21.78,-49.62
1554207632249,5.0613421999999995,-5.5982423,5.960963700000001,0.03195793,-0.020240024,-0.02876214,-27.72,-21.84,-49.56
1554207632268,5.0421886,-5.5695120000000005,6.0423665,0.035153727999999995,-0.022370555,-0.026631612000000002,-27.72,-21.84,-49.5
1554207632288,4.9559975,-5.5982423,5.8747725,0.034088463,-0.024501082,-0.026631612000000002,-27.72,-21.84,-49.5
1554207632308,5.0134583,-5.6461263,5.9226565,0.029827405,-0.024501082,-0.036218993,-27.66,-21.84,-49.56
1554207632328,4.936844000000001,-5.6269727,5.999271,0.029827405,-0.022370555,-0.05006743,-27.6,-21.84,-49.62
1554207632348,4.9559975,-5.535993,5.8747725,0.026631612000000002,-0.015978966,-0.05752428,-27.54,-21.84,-49.62
1554207632369,4.9224787,-5.6221843,5.879561,0.013848438000000001,-0.0010652645,-0.051132694000000006,-27.48,-21.84,-49.68
1554207632388,4.9464207,-5.607819,5.8891377,-0.0031957934000000003,0.0053263223,-0.054328485999999995,-27.48,-21.84,-49.68
1554207632408,4.9799394999999995,-5.655703,6.0998273,-0.014913702,0.014913702,-0.05752428,-27.48,-21.84,-49.62
1554207632428,4.936844000000001,-5.7179523,6.023213,-0.014913702,0.023435817999999997,-0.05539375,-27.48,-21.84,-49.62
1554207632448,4.8841715,-5.6509147,6.0040593,-0.008522116,0.02130529,-0.056459017,-27.48,-21.84,-49.62
1554207632468,4.936844000000001,-5.679645,5.8412538,-0.0031957934000000003,0.026631612000000002,-0.05219796,-27.54,-21.84,-49.62
1554207632489,4.8698063,-5.789778,5.965751999999999,0.004261058,0.025566347000000003,-0.046871635999999994,-27.48,-21.78,-49.68
1554207632508,4.941632299999999,-5.789778,5.817312,0.0010652645,0.023435817999999997,-0.046871635999999994,-27.48,-21.78,-49.68
1554207632528,4.9224787,-5.703587000000001,6.0184245,0.0010652645,0.023435817999999997,-0.04474111,-27.48,-21.78,-49.68
1554207632549,4.936844000000001,-5.579088700000001,6.114192500000001,0.0053263223,0.020240024,-0.041545313,-27.42,-21.78,-49.74
1554207632568,5.0134583,-5.66528,6.0184245,0.015978966,0.02130529,-0.036218993,-27.36,-21.78,-49.8
1554207632590,4.9464207,-5.5168395,5.965751999999999,0.020240024,0.025566347000000003,-0.035153727999999995,-27.36,-21.78,-49.86
1554207632608,4.965574299999999,-5.5264163,5.9705405,0.018109497,0.034088463,-0.034088463,-27.36,-21.84,-49.92
1554207632629,4.8602295,-5.5695120000000005,6.0088477,0.015978966,0.039414786,-0.040480047000000005,-27.3,-21.84,-49.92
1554207632648,4.941632299999999,-5.612607499999999,6.1381345000000005,0.0010652645,0.046871635999999994,-0.04580637,-27.36,-21.9,-49.92
1554207632669,5.032612,-5.502473999999999,5.927445,-0.023435817999999997,0.053263225,-0.05006743,-27.36,-21.96,-49.92
1554207632688,4.9512089999999995,-5.5982423,6.0663085,-0.04474111,0.058589544,-0.043675844000000005,-27.36,-22.02,-49.92
1554207632709,4.941632299999999,-5.66528,6.2099605,-0.046871635999999994,0.06498113,-0.03195793,-27.36,-22.08,-49.92
1554207632728,4.9320555,-5.679645,6.1620764999999995,-0.029827405,0.06285059999999999,-0.025566347000000003,-27.36,-22.14,-49.92
1554207632748,4.917690299999999,-5.6461263,6.157287999999999,-0.0031957934000000003,0.05752428,-0.024501082,-27.36,-22.08,-49.92
1554207632768,4.8985367,-5.66528,6.0998273,0.02876214,0.05752428,-0.017044231,-27.3,-22.02,-49.92
1554207632788,4.8745947,-5.5982423,6.0184245,0.036218993,0.058589544,-0.015978966,-27.24,-22.02,-49.92
1554207632809,4.8362875,-5.5503583,6.06152,0.026631612000000002,0.05752428,-0.017044231,-27.18,-22.02,-49.92
1554207632828,4.9224787,-5.54557,6.0519433,0.01917476,0.053263225,-0.020240024,-27.12,-21.96,-49.92
1554207632848,4.831499,-5.6365495,5.9465985,0.015978966,0.047936900000000005,-0.023435817999999997,-27.12,-21.9,-49.92
1554207632868,4.8506527,-5.593454,6.2339025,0.008522116,0.043675844000000005,-0.03195793,-27.06,-21.84,-49.92
1554207632888,4.9464207,-5.6461263,6.085462000000001,0.00958738,0.040480047000000005,-0.03834952,-27.06,-21.9,-49.92
1554207632909,5.0613421999999995,-5.8041434,6.2817870000000005,0.010652645,0.043675844000000005,-0.026631612000000002,-27.0,-21.9,-49.92
1554207632928,5.209783,-6.2351,6.4781113,-0.0053263223,0.068176925,0.017044231,-27.06,-21.9,-49.92
1554207632948,5.2768207,-6.5655,6.6217630000000005,-0.025566347000000003,0.10865697,0.10226539,-27.06,-21.9,-49.92
1554207632969,5.114014599999999,-6.6469026,6.832453299999999,-0.05539375,0.165116,0.23116238,-27.0,-21.96,-49.92
1554207632988,4.8602295,-6.7522473,7.1963716,-0.07137272,0.20985709,0.38456047,-27.0,-21.96,-49.98
1554207633008,4.9320555,-6.9198413,7.445369,-0.04261058,0.25992453,0.51452273,-27.0,-22.02,-49.98
1554207633028,4.7788267,-7.092224000000001,7.5411367,0.05752428,0.34621096,0.6348976,-26.94,-22.08,-50.04
1554207633049,4.534618,-6.962936999999999,7.4070616,0.17789917,0.45273739999999996,0.7552725,-26.94,-22.02,-50.04
1554207633069,4.012682,-6.407482,7.277775,0.28549087,0.5475459,0.81066626,-26.94,-21.9,-50.1
1554207633088,3.5482068,-6.010045,7.033566,0.3323625,0.608266,0.8064051999999999,-26.88,-21.72,-50.16
1554207633108,3.2034418999999996,-5.7083755,6.880337,0.31638354,0.6412892,0.7797736,-26.82,-21.48,-50.22
1554207633128,3.1411927000000004,-5.4545900000000005,6.731896400000001,0.18109496,0.6508765999999999,0.7307714,-26.7,-21.18,-50.28
1554207633149,3.0789435000000003,-5.6221843,6.727108,-0.0031957934000000003,0.6540724,0.72011876,-26.52,-20.88,-50.28
1554207633169,3.3518825,-6.2446766,7.043143,-0.18429075,0.6775081999999999,0.7797736,-26.4,-20.52,-50.34
1554207633188,3.2800562000000006,-6.761824000000001,7.2969284,-0.25140239999999997,0.72970617,0.89162636,-26.22,-20.16,-50.46
1554207633208,2.9783869,-7.2981253,7.8811135,-0.15233281,0.7850999,0.97045594,-25.98,-19.8,-50.58
1554207633228,2.992752,-7.753023599999999,7.8571715,-0.0031957934000000003,0.8426242,1.0567423,-25.8,-19.44,-50.7
1554207633248,2.801216,-7.911041,7.967304700000001,0.08841695,0.9267801,1.2016183,-25.56,-19.14,-50.88
1554207633268,2.4181437000000003,-8.021174,7.8188642999999995,0.10439592,1.0056095999999999,1.3464943,-25.26,-18.72,-51.06
1554207633289,1.9057846,-7.685986,7.732672999999999,0.018109497,1.0780476,1.4732608,-24.96,-18.24,-51.36
1554207633308,1.3742718,-7.527969000000001,7.5028296,-0.11504856,1.1334413,1.6085493999999998,-24.54,-17.58,-51.6
1554207633328,0.81402856,-7.4322004,7.234678999999999,-0.25353295,1.1632688,1.7417074000000001,-24.0,-16.92,-51.9
1554207633348,0.33518824,-7.211933999999999,7.014412400000001,-0.33449304,1.171791,1.8184064999999998,-23.46,-16.26,-52.2
1554207633368,0.05267244,-7.0491285,6.8085113,-0.3206446,1.160073,1.8588865,-22.92,-15.48,-52.38
1554207633388,-0.39264908,-6.8049197,6.717531,-0.19387813,1.1579423999999998,1.8663433999999997,-22.32,-14.64,-52.62
1554207633409,-0.79966336,-6.5750766,6.3727665,-0.034088463,1.1259845,1.8311896,-21.66,-13.68,-52.8
1554207633428,-1.1587936,-6.464943,6.2817870000000005,0.07350325,1.0876350000000001,1.7811221999999998,-20.94,-12.6,-52.92
1554207633448,-1.3599066,-6.282984,5.9130797,0.06604639400000001,1.0418286,1.7811221999999998,-20.16,-11.58,-53.04
1554207633468,-1.661576,-6.359598,5.61141,0.033023197000000004,1.0002834,1.7768611,-19.38,-10.68,-53.1
1554207633489,-1.8722657,-6.359598,5.6497173,-0.040480047000000005,0.9757822,1.7683389999999999,-18.66,-9.78,-53.16
1554207633508,-2.2984335,-6.5607114,5.707178,-0.23648871,0.91825795,1.8002968999999998,-18.24,-9.3,-53.22
1554207633528,-2.705448,-6.6852098,5.9561753,-0.35153726,0.8788431999999999,1.8524948,-17.4,-8.34,-53.28
1554207633548,-2.9975405,-6.9820905,6.071097,-0.36112466,0.85327685,1.8780613000000002,-16.56,-7.44,-53.34
1554207633569,-3.5194763999999994,-6.4505777,5.94181,-0.32384038,0.8223841999999999,1.933455,-15.36,-6.18,-53.46
1554207633588,-3.9695864000000003,-6.4218473,5.879561,-0.23435818,0.80107886,1.9504991999999999,-15.0,-5.88,-53.52
1554207633608,-4.280833,-6.033987000000001,5.7359085,-0.13422333,0.773382,1.9771308999999997,-14.46,-5.28,-53.58
1554207633629,-4.8985367,-5.492897,5.707178,0.013848438000000001,0.73822826,1.9686086999999999,-13.62,-4.56,-53.64
1554207633648,-5.248090299999999,-5.263054,5.61141,0.06391586,0.7222493000000001,1.9632823,-13.38,-4.26,-53.64
1554207633668,-5.506664,-4.9374423,5.774216,0.15765914,0.71159667,1.9696740000000001,-12.54,-3.48,-53.7
1554207633688,-5.592855,-4.549582,5.573103,0.23116238,0.72011876,1.9622171000000002,-11.94,-3.0,-53.7
1554207633708,-5.913678,-4.094683600000001,5.228338,0.28868666,0.7254451,1.9281287,-11.4,-2.64,-53.7
1554207633728,-6.0908489999999995,-3.6589386,5.0798974,0.29507825,0.7222493000000001,1.8727348999999998,-10.86,-2.4,-53.7
1554207633749,-6.1770406,-3.2758665000000002,5.036802,0.26631612,0.71159667,1.7939054,-10.32,-2.1,-53.7
1554207633768,-6.3302693,-3.0029275,4.7255554,0.21092236,0.71479243,1.6852484,-9.72,-1.86,-53.7
1554207633788,-6.5792660000000005,-2.8018146,4.371214,0.12357068,0.72437984,1.5712651000000002,-9.18,-1.62,-53.7
1554207633808,-6.531382,-2.6868927000000005,4.3760023,0.049002163,0.72651035,1.4849787,-8.52,-1.5,-53.7
1554207633828,-6.564901,-2.7156234,4.3903675,-0.051132694000000006,0.7126619000000001,1.3646038,-8.04,-1.5,-53.7
1554207633848,-6.7516490000000005,-2.806603,4.624999,-0.099069595,0.69029135,1.2591426000000001,-7.62,-1.56,-53.7
1554207633869,-6.7851677,-2.7922377999999997,4.6058455,-0.07243799,0.6540724,1.1707256000000001,-7.08,-1.62,-53.7
1554207633888,-6.8330517,-2.4905684,4.672883000000001,0.008522116,0.61572284,1.0791129,-6.54,-1.68,-53.64
1554207633908,-7.091625,-2.3756466,4.4957123,0.09054748,0.5784385999999999,0.9779128,-6.0,-1.74,-53.58
1554207633928,-7.273585000000001,-2.3852234,4.672883000000001,0.12463594,0.5486112,0.8863,-5.34,-1.8,-53.58
1554207633948,-7.4603324,-2.212841,4.5675383,0.15233281,0.5091964,0.80747044,-4.74,-1.8,-53.46
1554207633968,-7.7093296,-2.0117279999999997,4.4621935,0.18642128,0.46232477,0.7275756,-4.32,-1.92,-53.4
1554207633988,-7.7811556,-1.7340006000000001,4.500500700000001,0.16831179,0.4048005,0.6498113,-3.9,-1.98,-53.28
1554207634008,-7.819463000000001,-1.6190788999999999,4.529230999999999,0.14594123,0.34727620000000003,0.5795039000000001,-3.48,-2.1,-53.22
1554207634028,-7.943961,-1.4993688,4.7016134,0.19068234,0.27377295,0.48149952,-3.12,-2.34,-53.16
1554207634049,-8.025364,-1.46585,4.5723267,0.22583607,0.22264028,0.4016047,-2.76,-2.52,-53.1
1554207634068,-8.312667999999999,-1.3126211,4.2945995,0.15978967,0.17576863,0.35792887,-2.46,-2.76,-53.04
1554207634088,-8.37013,-1.1593921,4.2036195,0.039414786,0.13209279,0.33768883,-2.28,-3.0,-53.04
1554207634109,-8.379706,-1.0109516,4.1222167,-0.12250541,0.10333065,0.30253512,-2.04,-3.24,-53.1
1554207634128,-8.39886,-1.0013748,4.2945995,-0.22477080000000002,0.09054748,0.25140239999999997,-1.8,-3.54,-53.1
1554207634148,-8.322245,-0.98222125,4.308964700000001,-0.2545982,0.07989483,0.19707392,-1.62,-3.78,-53.1
1554207634169,-8.446744,-1.0205284,4.3664255,-0.23222765,0.06498113,0.1587244,-1.38,-3.96,-53.1
1554207634188,-8.418014,-1.2120646000000002,4.347272,-0.18855181,0.05965481,0.12996227,-1.14,-4.02,-53.1
1554207634208,-8.461109,-1.1593921,4.4238862999999995,-0.19281286,0.07350325,0.112918034,-0.96,-4.14,-53.1
1554207634228,-8.470686,-1.240795,4.3424835,-0.1949434,0.07776430000000001,0.096939065,-0.78,-4.2,-53.04
1554207634248,-8.571242,-1.3126211,4.088698,-0.19600865,0.07776430000000001,0.07776430000000001,-0.66,-4.2,-52.98
1554207634268,-8.686164,-1.5472529,4.0839095,-0.22370553,0.07137272,0.07776430000000001,-0.66,-4.2,-52.92
1554207634288,-8.63828,-1.5376761,4.016872,-0.2428803,0.056459017,0.10439592,-0.66,-4.08,-52.8
1554207634308,-8.6095495,-1.5568296999999998,4.1222167,-0.20985709,0.05006743,0.13102753,-0.66,-3.96,-52.74
1554207634328,-8.662222,-1.5376761,4.208408,-0.18429075,0.047936900000000005,0.1438107,-0.66,-3.78,-52.74
1554207634348,-8.513782,-1.3126211,4.007295,-0.13848437,0.04261058,0.15659387,-0.66,-3.66,-52.74
1554207634368,-8.6334915,-1.3796587,3.7870286,-0.10865697,0.037284255,0.1587244,-0.66,-3.42,-52.68
1554207634388,-8.628703,-1.3940238999999999,4.2275615,-0.08628642,0.029827405,0.16085494,-0.66,-3.24,-52.62
1554207634408,-8.599973,-1.4036007,4.1653123,0.0063915867,0.033023197000000004,0.15126756,-0.6,-3.0,-52.62
1554207634428,-8.499416,-1.2743138,4.447828299999999,0.15339808,0.040480047000000005,0.12783173,-0.54,-2.76,-52.56
1554207634448,-8.422802,-1.039682,4.4238862999999995,0.36964676,0.04474111,0.07563378,-0.42,-2.58,-52.5
1554207634468,-8.413225,-1.0348936,4.3664255,0.44741106,0.053263225,0.04261058,-0.36,-2.46,-52.5
1554207634488,-8.719683,-1.1162965,3.9833531000000004,0.40373522,0.054328485999999995,0.056459017,-0.3,-2.34,-52.44
1554207634508,-8.801085,-1.1881226,4.103063,0.31851408,0.040480047000000005,0.09161274,-0.24,-2.22,-52.44
1554207634528,-8.767567,-1.1162965,4.0695443,0.23542345,0.03195793,0.101200126,-0.18,-2.22,-52.38
1554207634549,-8.643068,-0.8912416,4.0025067000000005,0.18216023,0.02876214,0.07669904,-0.06,-2.4,-52.38
1554207634568,-8.667010000000001,-0.7715314999999999,3.9402574999999995,0.15126756,0.035153727999999995,0.06498113,0.0,-2.52,-52.38
1554207634588,-8.6334915,-0.7380127,4.0120835,0.07669904,0.054328485999999995,0.07243799,0.0,-3.0,-52.38
1554207634608,-8.667010000000001,-0.9247603999999999,4.040814,-0.007456851,0.07563378,0.10439592,0.0,-3.3,-52.38
1554207634629,-8.762777999999999,-0.9343372,4.0264487,-0.06498113,0.10013486,0.128897,0.06,-3.6,-52.38
1554207634648,-8.719683,-0.87687635,3.9258924,-0.07669904,0.11824436,0.13209279,0.12,-3.9,-52.32
1554207634668,-8.719683,-0.8098387,3.887585,-0.046871635999999994,0.12676647,0.12250541,0.12,-4.2,-52.32
1554207634692,-8.834603999999999,-0.623091,3.8157589999999995,0.002130529,0.13528858,0.11930962,0.18,-4.38,-52.32
1554207634708,-8.714894000000001,-0.6135142,3.8109705000000003,0.03834952,0.13315806,0.11717909,0.18,-4.44,-52.32
1554207634728,-8.734048,-0.3597288,3.767875,0.10013486,0.13209279,0.10652645,0.24,-4.5,-52.32
1554207634749,-8.6813755,-0.4794389,3.7535098,0.13528858,0.11824436,0.07243799,0.24,-4.5,-52.38
1554207634768,-8.853758000000001,-0.3309984,3.7870286,0.07669904,0.096939065,0.051132694000000006,0.24,-4.5,-52.38
1554207634788,-8.99741,-0.26396075,3.9737763,-0.07350325,0.083090626,0.07030745599999999,0.3,-4.5,-52.38
1554207634808,-8.920795,-0.42676646,3.8492777,-0.19068234,0.06178534,0.07882957,0.3,-4.56,-52.32
1554207634828,-8.7532015,-0.44592008,3.9785647000000006,-0.22690132,0.05539375,0.05752428,0.36,-4.56,-52.32
1554207634848,-8.767567,-0.46507367,4.1222167,-0.2066613,0.05219796,0.034088463,0.42,-4.56,-52.26
1554207634868,-8.7053175,-0.54647654,3.9115269999999995,-0.13848437,0.034088463,0.034088463,0.48,-4.62,-52.26
1554207634888,-8.887277000000001,-0.42676646,3.8301241000000004,0.023435817999999997,0.0053263223,0.014913702,0.54,-4.68,-52.2
1554207634909,-8.839393,-0.4890157,3.7774517999999997,0.112918034,-0.00958738,-0.022370555,0.6,-4.68,-52.2
1554207634928,-8.8777,-0.47465047,3.8109705000000003,0.111852765,-0.022370555,-0.03834952,0.66,-4.68,-52.14
1554207634948,-8.896853,-0.65660983,3.7056258,0.056459017,-0.024501082,-0.025566347000000003,0.78,-4.68,-52.14
1554207634968,-8.767567,-0.55126494,3.8301241000000004,0.0010652645,-0.01917476,-0.018109497,0.78,-4.68,-52.14
1554207634988,-8.868122999999999,-0.4938041,3.6816837999999996,-0.010652645,-0.02130529,-0.026631612000000002,0.9,-4.62,-52.2
1554207635008,-8.671799,-0.40761283,3.7487214,-0.011717908999999999,-0.017044231,-0.027696876000000002,1.02,-4.62,-52.26
1554207635028,-8.667010000000001,-0.27353755,3.6529531000000004,0.03195793,-0.015978966,-0.04261058,1.14,-4.62,-52.32
1554207635049,-8.882488,-0.18734628,3.7247794,0.068176925,-0.018109497,-0.06391586,1.26,-4.62,-52.32
1554207635068,-8.920795,-0.05805939,3.3608606,0.058589544,-0.033023197000000004,-0.101200126,1.38,-4.68,-52.38
1554207635088,-8.853758000000001,-0.11552023,3.0831332000000002,-0.025566347000000003,-0.05219796,-0.13102753,1.44,-4.68,-52.38
1554207635108,-8.805874000000001,-0.3597288,3.1741127999999996,-0.21837921,-0.07243799,-0.14061491,1.56,-4.74,-52.38
1554207635128,-8.772355000000001,-0.6183026,3.4231097999999998,-0.4048005,-0.08841695,-0.14168017,1.62,-4.8,-52.38
1554207635148,-8.738836000000001,-0.38367084,3.221997,-0.5454154,-0.13102753,-0.15339808,1.62,-4.86,-52.32
1554207635169,-8.714894000000001,-0.28311434,3.245939,-0.66579026,-0.17257284,-0.19387813,1.5,-4.86,-52.26
1554207635188,-8.590396,-0.44592008,3.413533,-0.793622,-0.18535602,-0.23222765,1.44,-4.86,-52.26
1554207635208,-8.647857,-0.66139823,3.5236663999999998,-0.8767126000000001,-0.18322548,-0.257794,1.38,-4.74,-52.2
1554207635228,-8.7053175,-0.7811083000000001,3.5284547999999996,-0.91825795,-0.18109496,-0.27377295,1.26,-4.32,-52.2
1554207635248,-8.825027,-0.7667431,2.8580782000000005,-1.0034790999999998,-0.19920446,-0.2972088,1.14,-3.66,-52.2
1554207635269,-8.762777999999999,-0.86729956,2.6952724,-1.2314457,-0.21837921,-0.350472,1.02,-3.0,-52.14
1554207635288,-8.6574335,-0.9487024,2.6378117000000003,-1.5393071000000003,-0.30146983,-0.38775626,0.78,-2.28,-52.14
1554207635309,-8.590396,-1.2503718000000001,3.0160956000000003,-1.824798,-0.37284255,-0.41545314,0.6,-1.5,-52.08
1554207635328,-8.164227499999999,-1.7675193999999999,3.1405939999999997,-2.0474384,-0.42077947,-0.44954160000000004,0.42,-0.72,-52.08
1554207635348,-7.953538000000001,-2.0787656,3.6481647000000006,-2.1731396000000003,-0.41971418,-0.49854377,0.24,0.24,-52.02
1554207635368,-7.5273699999999995,-2.629432,4.174889,-2.0889835,-0.42184472,-0.60720074,-0.3,2.34,-51.78
1554207635389,-7.1873937,-2.9550436,4.5723267,-1.8759307,-0.37071204,-0.7456851,-0.66,4.02,-51.54
1554207635408,-7.3166804,-3.1848867000000003,4.466982,-1.6010925,-0.31105720000000003,-0.88203895,-0.96,5.76,-51.18
1554207635428,-7.5321584,-3.2758665000000002,4.208408,-1.2665993999999998,-0.30360037,-0.9736517,-1.2,7.68,-50.7
1554207635448,-7.5273699999999995,-3.3189620000000004,3.8492777,-0.99921805,-0.34727620000000003,-1.0365024,-1.44,9.78,-50.22
1554207635468,-7.3885064,-3.7163997,3.2794578000000003,-0.9768475000000001,-0.39095205,-1.0908308,-1.68,11.88,-49.74
1554207635488,-7.398083,-4.305373,3.3129766000000003,-1.1259845,-0.44847634,-1.1270498,-1.98,14.04,-49.14
1554207635508,-7.2304892999999995,-4.7937902999999995,3.518878,-1.257012,-0.4889564,-1.1291803,-2.46,16.02,-48.6
1554207635528,-7.2113357,-5.105036699999999,3.4087446000000003,-1.2548815,-0.49747851,-1.1323761,-2.7,16.86,-48.3
1554207635548,-7.168239999999999,-5.5743003,3.2267854,-1.1217233999999998,-0.5006742999999999,-1.128115,-3.12,18.12,-47.82
1554207635568,-7.019799000000001,-5.631761,3.2507273999999997,-0.9821738000000001,-0.515588,-1.0897655000000002,-3.66,19.14,-47.34
1554207635588,-6.8665705,-5.761048000000001,3.3752258,-0.8149273,-0.51771855,-1.0578076,-4.2,20.04,-46.92
1554207635608,-6.7516490000000005,-6.139332,3.5954924,-0.60293967,-0.5006742999999999,-1.0567423,-4.86,20.82,-46.5
1554207635628,-6.588842999999999,-6.464943,3.6194344,-0.43675843,-0.48363006,-1.0503508,-5.7,21.54,-46.08
1554207635648,-6.3350577,-6.259042,3.470994,-0.25672874,-0.45806372,-1.0056095999999999,-6.54,22.26,-45.66
1554207635669,-6.244078,-6.172850599999999,3.7487214,-0.111852765,-0.43036684,-0.93636745,-7.38,22.98,-45.36
1554207635688,-6.100425700000001,-6.0291986,3.8061821000000005,-0.083090626,-0.43675843,-0.9267801,-8.04,23.52,-45.06
1554207635708,-5.899312999999999,-5.9717374,4.1317935,-0.05752428,-0.46232477,-0.96619487,-8.88,23.94,-44.82
1554207635728,-5.707777,-6.1153900000000005,4.2898107,0.03195793,-0.4878911,-1.0226538,-9.6,24.36,-44.64
1554207635748,-5.45878,-6.4122705,4.2754455,0.2066613,-0.49747851,-1.0876350000000001,-10.32,24.78,-44.46
1554207635769,-5.2624555,-6.531981,4.079121,0.34408042,-0.535828,-1.1536813999999997,-10.98,25.08,-44.4
1554207635788,-5.0086699999999995,-6.4362125,4.1413703,0.42930159999999995,-0.5837649,-1.1973573,-11.52,25.14,-44.4
1554207635808,-4.8219223,-6.311714,4.2945995,0.386691,-0.6583334,-1.2463594999999998,-12.06,25.14,-44.34
1554207635828,-4.4675803,-6.2638300000000005,4.5675383,0.30892670000000005,-0.7222493000000001,-1.32945,-12.6,24.9,-44.28
1554207635848,-3.9983168,-6.536769400000001,4.538808,0.3057309,-0.73609775,-1.4104101999999998,-13.32,24.6,-44.28
1554207635869,-3.7253778,-6.570288000000001,4.577115,0.43782368,-0.75633776,-1.4796523000000001,-13.98,24.12,-44.28
1554207635888,-3.5529952000000007,-6.632537400000001,4.1461587,0.53263223,-0.83729786,-1.5701998,-14.82,23.52,-44.28
1554207635908,-3.2704793999999997,-6.7091517000000005,4.3424835,0.39095205,-0.9864349,-1.6596819999999999,-15.72,22.86,-44.28
1554207635928,-3.0310593,-6.996455999999999,4.648941000000001,0.17363810000000002,-1.0961571,-1.6905746,-16.8,21.96,-44.34
1554207635948,-2.336741,-7.178415299999999,5.1900306,-0.07776430000000001,-1.160073,-1.7267936000000002,-18.0,21.0,-44.4
1554207635968,-2.0638018,-7.3220673,5.573103,-0.10759171,-1.1483551,-1.7768611,-19.08,19.98,-44.46
1554207635989,-1.8770541,-8.049905,5.467758,-0.0010652645,-1.1313108,-1.8173412,-20.22,18.96,-44.64
1554207636008,-1.4700398000000001,-8.102577,5.7502737,0.165116,-1.1025486999999998,-1.7875136999999999,-21.18,18.0,-44.76
1554207636028,-1.2545617,-8.136096,5.506065400000001,0.46125950000000004,-1.0887003,-1.7662083999999998,-22.14,17.1,-44.88
1554207636048,-1.0390834999999998,-7.829638,5.573103,0.567786,-1.0865698000000001,-1.7715348000000002,-23.1,16.32,-44.94
1554207636068,-0.7086836999999999,-7.4465656000000005,5.525219,0.4708469,-1.0887003,-1.7608821,-23.94,15.42,-45.06
1554207636088,-0.23463176,-7.283760000000001,5.510854,0.28655612,-1.0897655000000002,-1.7619474,-24.78,14.4,-45.06
1554207636108,0.2873042,-7.6189485,5.9705405,0.13741912,-1.0546118,-1.7576863999999999,-25.62,13.26,-45.06
1554207636128,0.8379706,-7.997232400000001,6.401497,0.12250541,-0.9672601000000001,-1.716141,-26.52,11.94,-44.94
1554207636148,1.067814,-8.078635,6.3823433,0.33129725,-0.8564726,-1.7033578,-27.42,10.56,-44.76
1554207636168,1.1779473,-8.049905,6.186018499999999,0.61572284,-0.7616641,-1.73212,-28.32,9.06,-44.52
1554207636188,1.4030021000000001,-7.872733599999999,6.229114,0.84155893,-0.66365975,-1.7331853,-29.46,6.36,-44.16
1554207636209,1.8435352999999999,-7.504027000000001,6.2195373,0.8330368,-0.6178534000000001,-1.6905746,-30.3,4.5,-43.86
1554207636228,2.0925324,-6.962936999999999,5.994482499999999,0.7755125,-0.5901565,-1.6820526000000002,-30.66,3.48,-43.74
1554207636248,2.3463178,-6.7666125,6.047155,0.57098174,-0.5763081,-1.7363810000000002,-31.68,0.54,-43.38
1554207636268,2.791639,-6.603807000000001,6.095039,0.36005938,-0.5592638000000001,-1.7385116000000003,-32.34,-1.26,-43.26
1554207636289,3.241749,-6.7330937,6.3009405,0.1587244,-0.5251754,-1.6916398999999998,-32.88,-3.06,-43.14
1554207636308,3.3039982000000006,-6.737882000000001,6.2099605,0.020240024,-0.4857606,-1.6511599,-33.36,-4.98,-43.02
1554207636328,3.466804,-6.5511346,6.2003837,-0.027696876000000002,-0.46125950000000004,-1.6703346999999997,-33.78,-6.66,-42.9
1554207636348,3.7541082,-6.464943,6.095039,-0.002130529,-0.46658584,-1.7310548,-34.2,-8.16,-42.78
1554207636368,4.0557775000000005,-6.129755,6.118981,0.026631612000000002,-0.46552056,-1.7630126,-34.56,-9.6,-42.72
1554207636388,4.501099,-6.0387754000000005,5.9561753,0.0063915867,-0.47297743,-1.7726,-34.86,-10.92,-42.6
1554207636408,4.802768700000001,-5.837662,5.9130797,-0.07243799,-0.46978164,-1.7630126,-35.04,-12.36,-42.48
1554207636428,4.960786,-5.4881085999999994,5.879561,-0.1438107,-0.49641323,-1.7821875,-35.28,-13.86,-42.42
1554207636448,5.090072599999999,-4.899135,5.6640825,-0.1470065,-0.5592638000000001,-1.8503643,-35.4,-15.36,-42.36
1554207636468,5.588066599999999,-4.812944,5.8604074,-0.08841695,-0.6402239000000001,-1.9462381999999998,-35.52,-16.74,-42.3
1554207636488,6.469133,-4.947019,5.2810106,-0.10972224,-0.7105314,-1.9345202000000001,-35.58,-18.3,-42.24
1554207636510,6.8330517,-4.7267528,4.960187400000001,-0.22264028,-0.7222493000000001,-1.8961706999999999,-35.7,-19.98,-42.18
