TimeStamp,Ax,Ay,Az,Gx,Gy,Gz,Mx,My,Mz
1554109580149,7.9248075,-2.5959132,2.3983915000000002,0.39840892,-0.6242449999999999,2.2008363999999996,-52.5,-24.54,5.46
1554109580170,8.312667999999999,-2.9789855,2.2786815,-0.008522116,-0.628506,2.1283984,-52.74,-22.74,5.64
1554109580189,8.834603999999999,-3.7738605000000005,1.809418,-0.29827404,-0.6114618,2.0335898,-52.98,-20.82,5.94
1554109580211,8.949525999999999,-4.611831,1.8477252,-0.49002165,-0.62531024,1.9206718,-53.16,-18.72,6.42
1554109580230,8.465898,-5.5168395,1.7232267,-0.51984906,-0.58269966,1.7789917000000002,-53.34,-16.32,6.96
1554109580250,8.389283,-6.0483522,1.9961656000000003,-0.32490566,-0.6199839,1.7033578,-53.4,-13.98,7.5
1554109580269,8.403648,-6.512827400000001,1.8908207,-0.09374327,-0.6380934,1.6895093999999997,-53.4,-11.7,8.1
1554109580289,8.1402855,-7.16405,1.1917138999999999,0.23968449999999997,-0.7414241,1.6618125,-53.16,-8.58,9.18
1554109580311,7.61835,-6.7905545,0.8996213,0.33768883,-0.82557994,1.6042882,-52.92,-6.54,9.96
1554109580330,7.4507556,-6.7426705,0.45908818,0.39095205,-0.8692558000000001,1.6255935,-52.8,-5.58,10.32
1554109580349,7.134721300000001,-6.6469026,0.11432313,0.3749731,-0.8522116,1.6703346999999997,-52.38,-2.46,11.28
1554109580369,6.7468604999999995,-7.116166000000001,-0.12030864,0.18961707,-0.82344943,1.6415724999999999,-52.2,-1.5,11.58
1554109580390,6.2009826,-6.881533999999999,-0.15382746,-0.23648871,-0.76485986,1.5403723999999999,-51.6,1.14,12.36
1554109580411,5.8083334,-6.9725137,-0.35494040000000004,-0.5113269,-0.71798825,1.5659386999999998,-50.88,2.94,13.02
1554109580430,5.295974299999999,-7.504027000000001,-0.43634325,-0.74035877,-0.6625945,1.6223978000000001,-50.1,4.62,13.68
1554109580450,4.9320555,-7.767389,-0.44113165,-0.8863,-0.6498113,1.6298546,-49.38,6.36,14.52
1554109580469,4.7309427,-8.112153999999999,-0.7667431,-0.94595486,-0.6849651,1.6149409,-48.96,7.2,14.88
1554109580490,4.3718123,-8.169615,-0.8242039000000001,-1.1345067,-0.7275756,1.5137408,-47.76,9.42,15.96
1554109580510,4.4484267,-8.72507,-1.1354501000000001,-1.2676646999999999,-0.7882956999999999,1.438107,-46.86,10.56,16.68
1554109580530,4.098873,-9.012374000000001,-1.2264298,-1.4040185,-0.7584683000000001,1.3539511,-45.9,11.58,17.46
1554109580550,4.1180267,-9.1272955,-1.1306617,-1.3848438,-0.809601,1.2708606000000002,-45.06,12.48,18.24
1554109580570,4.261679,-8.801684,-1.1450268999999997,-1.0024139,-0.88843054,1.196292,-44.46,13.26,19.02
1554109580590,4.295198,-8.332419999999999,-0.99179804,-0.66365975,-0.90654004,1.1899004,-43.86,13.86,19.92
1554109580610,3.9025488,-8.792108,-1.7435773999999997,-0.18855181,-0.87777793,1.2740563,-43.2,14.1,20.52
1554109580630,2.858677,-9.725846,-1.9351135,0.080960095,-0.628506,1.4370418,-42.36,14.28,21.12
1554109580650,2.4756044999999998,-9.735422999999999,-2.2894554,0.23648871,-0.61891866,1.478587,-41.46,14.46,21.84
1554109580669,2.7772740000000002,-9.89344,-2.3900118,0.30146983,-0.6359629,1.3954965,-40.62,14.76,22.56
1554109580690,2.6910827,-9.845556,-2.5480292,0.04261058,-0.6508765999999999,1.2889700000000002,-39.84,15.24,23.22
1554109580710,2.3511062000000003,-10.171167,-2.5576060000000003,-0.3749731,-0.567786,1.2516857,-39.06,15.84,23.82
1554109580730,2.0111293999999997,-11.047445,-2.7970262000000004,-0.70627034,-0.4889564,1.1856394,-38.28,16.62,24.42
1554109580751,1.9393034,-11.459247999999999,-2.6246436,-0.8905610999999999,-0.5305017,1.010936,-37.5,17.4,24.9
1554109580769,2.4037786,-10.836756,-2.6533740000000003,-0.8767126000000001,-0.60293967,0.81918836,-36.6,18.18,25.32
1554109580790,2.681506,-9.826402999999999,-2.629432,-0.7275756,-0.6061354999999999,0.72011876,-35.94,18.9,25.74
1554109580810,2.4133554,-9.156025999999999,-2.6437972000000003,-0.55287224,-0.515588,0.7233145999999999,-35.4,19.56,26.1
1554109580831,1.8722657,-8.495225999999999,-2.6964695,-0.43782368,-0.42397526,0.80107886,-34.8,20.1,26.52
1554109580850,1.2114661,-8.404246,-3.007716,-0.31638354,-0.350472,0.9225190000000001,-34.14,20.4,26.94
1554109580870,0.5554548,-8.270171000000001,-2.6868927000000005,-0.26844665,-0.27164245,1.0407634,-33.36,20.52,27.48
1554109580890,0.0,-7.901464,-2.6342204,-0.25566345,-0.30360037,1.1377025,-32.58,20.52,27.84
1554109580910,-0.47405192,-7.858368400000001,-2.7730842,-0.18109496,-0.34301516,1.2442288000000001,-31.8,20.46,28.14
1554109580930,-0.94810385,-8.308478,-2.6821042999999998,-0.094808534,-0.32810146,1.3411678999999999,-31.2,20.4,28.5
1554109580950,-1.2593501,-8.921394,-2.6821042999999998,-0.11930962,-0.3270362,1.3741912,-30.66,20.34,28.8
1554109580970,-1.4891934,-9.381081,-2.6198552000000004,-0.17044231,-0.33129725,1.3912354,-30.12,20.34,29.1
1554109580989,-1.5227122,-9.32362,-2.806603,-0.17257284,-0.2727077,1.4753913,-29.7,20.4,29.4
1554109581010,-1.6567876,-9.189544999999999,-3.2375592999999996,-0.15446335,-0.13848437,1.587244,-29.16,20.52,29.7
1554109581030,-2.1499932,-9.419388,-3.3141737,-0.22050974,0.03834952,1.6373115,-28.68,20.82,29.88
1554109581050,-2.992752,-10.501567,-3.4386723,-0.28016454,0.17363810000000002,1.591505,-28.14,21.12,30.12
1554109581069,-3.8881836000000005,-11.535862,-2.9167361,-0.23222765,0.19600865,1.454086,-27.66,21.42,30.36
1554109581090,-3.9935283999999998,-12.488754,-3.3381157,-0.047936900000000005,0.13315806,1.2665993999999998,-27.0,21.72,30.54
1554109581110,-3.5769374,-12.402563,-3.4674027,0.06285059999999999,0.020240024,1.019458,-26.22,21.96,30.72
1554109581129,-2.8155810000000003,-11.502343,-3.1465794999999996,0.18002969,-0.13635385,0.7052050999999999,-25.44,22.2,30.9
1554109581149,-1.8818424999999999,-11.104906,-2.902371,0.33555830000000003,-0.27377295,0.47297743,-24.72,22.44,31.02
1554109581170,-0.89543146,-10.875063,-3.2471360000000002,0.46765109999999993,-0.41119209999999995,0.32170987,-23.94,22.74,31.08
1554109581191,-0.40701428,-10.808025,-3.7786489000000003,0.535828,-0.47830373,0.18216023,-23.46,23.1,31.14
1554109581210,-0.17717093,-10.736199000000001,-4.147355999999999,0.40906155,-0.5123922000000001,0.0,-23.1,23.52,31.14
1554109581229,-0.1436521,-10.621277000000001,-4.085107,0.18961707,-0.5123922000000001,-0.14913702,-22.92,23.76,31.14
1554109581249,-0.6560113000000001,-10.448894500000002,-4.0994720000000004,-0.10759171,-0.49321744,-0.33449304,-22.62,24.18,31.2
1554109581271,-1.2593501,-10.238205,-3.9797617999999995,-0.31105720000000003,-0.46019423,-0.5656554,-22.32,24.84,31.2
1554109581289,-1.4939818,-10.13286,-3.9270894999999997,-0.28975195,-0.44741106,-0.6540724,-22.08,25.26,31.26
1554109581310,-1.8770541,-10.075399,-4.0276456,-0.17789917,-0.4314321,-0.7222493000000001,-21.84,25.68,31.26
1554109581330,-2.0733786,-10.032304,-4.276643,-0.0063915867,-0.4016047,-0.74781567,-21.6,25.92,31.26
1554109581352,-2.384625,-9.496002,-4.4442368,0.17044231,-0.34514567,-0.7552725,-21.36,26.04,31.2
1554109581369,-2.4660277,-9.242217,-4.401141,0.21944448,-0.2876214,-0.7254451,-21.18,25.98,31.2
1554109581390,-2.4372973,-8.930971000000001,-4.276643,0.20240025,-0.17576863,-0.6348976,-21.06,25.92,31.2
1554109581410,-2.2888567,-8.921394,-3.8839936,0.113983296,-0.049002163,-0.5411543000000001,-20.94,25.92,31.2
1554109581430,-2.2074540000000002,-8.614936,-3.9606082000000002,-0.010652645,0.07137272,-0.46125950000000004,-20.88,25.92,31.2
1554109581450,-2.0398598000000003,-8.45213,-3.639785,-0.12570119999999999,0.17044231,-0.37923414,-20.82,25.98,31.2
1554109581469,-1.8818424999999999,-8.4425535,-3.3476925000000004,-0.23116238,0.27377295,-0.29188246,-20.82,25.98,31.2
1554109581490,-1.6567876,-8.270171000000001,-3.1800982999999996,-0.24714136,0.314253,-0.24607609,-20.82,25.98,31.14
1554109581510,-1.5753847,-8.212710000000001,-3.0268695,-0.18322548,0.36964676,-0.165116,-20.82,26.04,31.14
1554109581530,-1.4939818,-8.222287,-2.8353333,-0.12463594,0.40053943,-0.10865697,-20.88,25.98,31.08
1554109581550,-1.5897499,-8.39467,-2.7682957999999998,-0.068176925,0.42077947,-0.06924219,-21.0,25.86,31.08
1554109581569,-1.6519991000000003,-8.5383215,-2.677316,0.022370555,0.43249738,-0.022370555,-21.18,25.74,31.02
1554109581589,-1.6424223000000002,-8.768166,-2.7156234,0.11930962,0.43036684,0.014913702,-21.42,25.62,31.02
1554109581610,-1.5658079,-8.883087,-2.6629508,0.24074976,0.40586576,0.06178534,-21.72,25.44,31.02
1554109581630,-1.5658079,-8.835203,-2.5959132,0.25885928,0.3749731,0.07776430000000001,-22.02,25.32,31.02
1554109581650,-1.5753847,-9.0842,-2.5671828,0.21198763,0.32597092,0.098004326,-22.38,25.2,31.02
1554109581670,-1.436521,-9.405023,-2.8353333,0.12037488,0.28336033,0.12783173,-22.68,25.08,31.02
1554109581690,-1.3982137,-9.510367,-2.830545,-0.014913702,0.22690132,0.13422333,-22.98,25.02,31.02
1554109581710,-1.2401965,-9.749788,-2.7587189999999997,-0.128897,0.18748654,0.13102753,-23.34,25.02,31.02
1554109581730,-1.1779473,-9.89344,-2.7970262000000004,-0.1768339,0.14487597,0.128897,-23.58,25.02,31.02
1554109581750,-1.1923125,-9.960478,-2.6677392,-0.13635385,0.10865697,0.11930962,-23.76,25.08,31.02
1554109581770,-1.0869676000000001,-10.061034,-2.677316,-0.037284255,0.08522116,0.09374327,-23.88,25.14,30.96
1554109581790,-1.163582,-10.152014,-2.9694088,0.099069595,0.06924219,0.05752428,-24.06,25.26,30.96
1554109581810,-1.2976573999999998,-9.931747,-3.0556,0.23435818,0.068176925,0.01917476,-24.12,25.32,30.9
1554109581830,-1.2689268999999999,-9.979631,-3.127426,0.34194988,0.07456851,-0.020240024,-24.24,25.38,30.9
1554109581849,-1.3024458,-9.821614,-3.1657330000000004,0.36645097,0.10333065,-0.06604639400000001,-24.3,25.44,30.84
1554109581870,-1.4987701999999998,-9.673173,-3.3333273,0.31105720000000003,0.13528858,-0.11717909,-24.3,25.5,30.84
1554109581890,-1.4796166000000002,-9.500791,-3.3572693,0.2428803,0.15978967,-0.14913702,-24.3,25.56,30.84
1554109581910,-1.5370774999999999,-9.366715,-3.3716345000000003,0.15020229,0.18429075,-0.16724652,-24.42,25.62,30.78
1554109581931,-1.5227122,-9.414599,-3.1896752999999998,0.058589544,0.20772657,-0.18216023,-24.48,25.62,30.78
1554109581950,-1.4317327,-9.256582,-3.0172927000000005,-0.03089267,0.22264028,-0.2066613,-24.54,25.68,30.66
1554109581969,-1.316811,-9.32362,-2.9215245,-0.07776430000000001,0.2545982,-0.22796659,-24.6,25.74,30.54
1554109581989,-1.3359646,-9.189544999999999,-2.806603,-0.099069595,0.26844665,-0.24181503,-24.66,25.74,30.54
1554109582009,-1.2497733,-9.170391,-2.7156234,-0.09267801,0.30040458,-0.24820662,-24.72,25.86,30.42
1554109582030,-1.163582,-9.141661000000001,-2.7156234,-0.06178534,0.31957933,-0.23009712,-24.84,25.92,30.3
1554109582050,-1.0630256,-9.11293,-2.6437972000000003,-0.0053263223,0.33129725,-0.20453078,-25.02,25.98,30.24
1554109582071,-1.1061212,-9.132083999999999,-2.6485856,0.027696876000000002,0.3270362,-0.18748654,-25.38,26.1,30.12
1554109582089,-1.0582372,-9.088988,-2.509722,0.01917476,0.30999196,-0.18109496,-25.5,26.1,30.06
1554109582110,-1.0342950999999998,-9.385869,-2.581548,-0.036218993,0.26418558,-0.18109496,-25.98,26.16,30.0
1554109582130,-1.1061212,-9.357139,-2.4091654,-0.084155895,0.22796659,-0.19068234,-26.1,26.16,29.94
1554109582150,-0.9911995000000001,-9.462483,-2.4091654,-0.13209279,0.18961707,-0.19813919,-26.52,26.16,29.88
1554109582169,-0.92895025,-9.610924,-2.2415714,-0.18109496,0.1438107,-0.2034655,-26.82,26.1,29.82
1554109582189,-0.79966336,-9.563039999999999,-2.1218612,-0.16937704,0.128897,-0.19174760000000002,-27.0,26.04,29.82
1554109582210,-0.79487497,-9.697116000000001,-2.1505916000000003,-0.084155895,0.111852765,-0.16937704,-27.12,25.92,29.76
1554109582229,-0.7134720999999999,-9.668385,-2.2080526000000003,0.022370555,0.08735169,-0.15126756,-27.24,25.86,29.7
1554109582250,-0.9576806999999999,-9.59177,-2.356493,0.13528858,0.049002163,-0.14061491,-27.48,25.68,29.64
1554109582269,-0.92416185,-9.496002,-2.2224178,0.15978967,0.02130529,-0.13635385,-27.66,25.44,29.58
1554109582289,-0.9672575000000001,-9.47206,-2.461838,0.16724652,-0.015978966,-0.13102753,-27.84,25.32,29.58
1554109582310,-0.89064306,-9.452907000000002,-2.6150667999999997,0.15020229,-0.043675844000000005,-0.13209279,-28.02,25.14,29.52
1554109582331,-0.8619126,-9.395446000000002,-2.4474726,0.13848437,-0.07243799,-0.13848437,-28.2,25.02,29.46
1554109582349,-0.7613561,-9.213486999999999,-2.5576060000000003,0.13954964,-0.11504856,-0.13528858,-28.38,24.9,29.4
1554109582370,-0.7182605,-9.098564999999999,-2.7204118,0.10439592,-0.13954964,-0.12463594,-28.5,24.84,29.34
1554109582390,-0.6560113000000001,-9.11293,-2.6150667999999997,0.047936900000000005,-0.15339808,-0.11824436,-28.56,24.84,29.22
1554109582410,-0.7469909,-9.050680999999999,-2.7204118,-0.053263225,-0.15126756,-0.10333065,-28.56,24.96,29.16
1554109582429,-0.7038953,-9.218275,-2.7874494,-0.10972224,-0.15233281,-0.07882957,-28.56,25.08,29.16
1554109582449,-0.62249243,-9.189544999999999,-2.9837740000000004,-0.1438107,-0.14807177,-0.06391586,-28.56,25.2,29.1
1554109582470,-0.7230489,-9.189544999999999,-3.0508115,-0.15233281,-0.13954964,-0.05539375,-28.5,25.32,29.04
1554109582490,-0.641646,-9.218275,-3.0412347,-0.15765914,-0.11930962,-0.03089267,-28.44,25.44,29.04
1554109582511,-0.6799533,-9.280524,-2.902371,-0.13422333,-0.08948222,0.00958738,-28.44,25.44,29.04
1554109582531,-0.6703765,-9.294889,-3.007716,-0.07882957,-0.06711166,0.039414786,-28.44,25.38,29.16
1554109582549,-0.8379706,-9.500791,-3.0699651,-0.011717908999999999,-0.039414786,0.06498113,-28.38,25.26,29.28
1554109582569,-0.82360536,-9.424176,-3.2471360000000002,0.03834952,-0.014913702,0.09267801,-28.32,25.08,29.4
1554109582590,-0.79008657,-9.553463,-3.1370027,0.053263225,0.017044231,0.11930962,-28.26,24.84,29.52
1554109582609,-0.8619126,-9.563039999999999,-3.1657330000000004,0.04261058,0.04474111,0.12463594,-28.26,24.66,29.58
1554109582629,-0.842759,-9.644442999999999,-2.9646204,0.03089267,0.053263225,0.11611383,-28.2,24.48,29.64
1554109582651,-0.90021986,-9.663596,-3.0412347,0.03195793,0.04474111,0.1107875,-28.2,24.3,29.58
1554109582669,-0.80445176,-9.826402999999999,-2.9933507,0.02130529,0.023435817999999997,0.09161274,-28.2,24.24,29.58
1554109582689,-0.78529817,-9.6923275,-2.9167361,0.0031957934000000003,-0.0053263223,0.05539375,-28.14,24.24,29.46
1554109582711,-0.63206923,-9.701903999999999,-2.9885623,-0.035153727999999995,-0.015978966,0.0031957934000000003,-28.14,24.24,29.4
1554109582729,-0.6512229,-9.610924,-3.1082723,-0.096939065,-0.025566347000000003,-0.053263225,-28.08,24.36,29.28
1554109582750,-0.63206923,-9.6923275,-2.9741971,-0.12783173,-0.02876214,-0.09161274,-28.08,24.48,29.16
1554109582770,-0.6751649000000001,-9.620500999999999,-3.0364463,-0.11930962,-0.041545313,-0.12037488,-28.08,24.6,29.1
1554109582791,-0.6368576,-9.376292,-2.7539306,-0.09267801,-0.053263225,-0.15552860000000002,-28.08,24.66,29.04
1554109582811,-0.6512229,-9.213486999999999,-2.8113914,-0.058589544,-0.05752428,-0.16831179,-28.02,24.78,29.1
1554109582829,-0.79487497,-9.1272955,-2.9837740000000004,-0.043675844000000005,-0.06178534,-0.16298546,-28.02,24.78,29.1
1554109582849,-0.92895025,-9.041103999999999,-2.926313,-0.05006743,-0.07882957,-0.15020229,-28.02,24.78,29.16
1554109582870,-0.94810385,-9.132083999999999,-2.9071592999999996,-0.082025364,-0.083090626,-0.13635385,-27.96,24.6,29.16
1554109582890,-0.92895025,-9.036316000000001,-2.8832173,-0.09587380000000001,-0.08841695,-0.12996227,-27.96,24.54,29.22
1554109582909,-0.91937345,-9.026739,-3.0651767000000003,-0.09161274,-0.09161274,-0.12463594,-27.96,24.36,29.28
1554109582929,-0.8571242,-9.074622999999999,-2.9741971,-0.05219796,-0.09161274,-0.10972224,-27.9,24.18,29.34
1554109582951,-0.9816226999999998,-9.069835000000001,-2.9933507,-0.0053263223,-0.084155895,-0.07989483,-27.84,24.0,29.52
1554109582970,-0.79487497,-9.199121,-3.1370027,0.023435817999999997,-0.082025364,-0.051132694000000006,-27.78,23.88,29.64
1554109582991,-0.7086836999999999,-9.251794,-3.031658,0.04261058,-0.084155895,-0.023435817999999997,-27.78,23.76,29.7
1554109583009,-0.7326256999999999,-9.35235,-3.1082723,0.053263225,-0.07989483,-0.0053263223,-27.72,23.7,29.82
1554109583031,-0.6560113000000001,-9.342773,-3.2184057,0.047936900000000005,-0.080960095,-0.0063915867,-27.72,23.7,29.88
1554109583049,-0.5506664000000001,-9.328408,-3.0412347,0.03195793,-0.080960095,-0.007456851,-27.66,23.76,29.94
1554109583069,-0.47405192,-9.44333,-3.117849,0.013848438000000001,-0.07669904,-0.0053263223,-27.66,23.82,30.0
1554109583090,-0.5506664000000001,-9.452907000000002,-3.1896752999999998,-0.002130529,-0.07137272,-0.011717908999999999,-27.6,23.88,30.06
1554109583110,-0.5793968,-9.606135,-3.1609447,0.0063915867,-0.07563378,-0.026631612000000002,-27.6,23.94,30.12
1554109583130,-0.60812724,-9.505579,-3.2998084999999997,0.0,-0.08948222,-0.051132694000000006,-27.6,24.0,30.12
1554109583149,-0.56982,-9.452907000000002,-3.4721910000000005,-0.00958738,-0.08841695,-0.060720075,-27.6,24.0,30.12
1554109583170,-0.5746084,-9.534309,-3.3764230000000004,-0.01917476,-0.07882957,-0.07137272,-27.6,24.06,30.12
1554109583190,-0.56982,-9.519944,-3.3572693,-0.026631612000000002,-0.041545313,-0.084155895,-27.6,24.12,30.12
1554109583210,-0.62728083,-9.462483,-3.366846,0.0063915867,0.008522116,-0.07989483,-27.54,24.12,30.12
1554109583230,-0.6799533,-9.414599,-3.3764230000000004,0.060720075,0.046871635999999994,-0.06285059999999999,-27.48,24.12,30.12
1554109583251,-0.51714754,-9.448118,-3.3812113,0.12996227,0.111852765,-0.033023197000000004,-27.42,24.18,30.12
1554109583270,-0.6512229,-9.304466,-3.3093852999999998,0.17150758,0.14487597,-0.013848438000000001,-27.24,24.18,30.12
1554109583289,-0.63206923,-9.285313,-3.3812113,0.19600865,0.17257284,0.014913702,-27.12,24.18,30.06
1554109583309,-0.58897364,-9.371504,-3.5009214999999996,0.17150758,0.19387813,0.035153727999999995,-27.0,24.24,30.0
1554109583330,-0.49799395,-9.433753,-3.4721910000000005,0.1107875,0.21518342,0.013848438000000001,-26.88,24.24,29.94
1554109583350,-0.58897364,-9.500791,-3.3955764999999998,0.033023197000000004,0.23222765,-0.025566347000000003,-26.82,24.3,29.88
1554109583370,-0.6655880999999999,-9.548675,-3.2423477000000003,-0.037284255,0.25140239999999997,-0.049002163,-26.76,24.36,29.82
1554109583390,-0.5793968,-9.634866,-3.1848867000000003,-0.047936900000000005,0.2790993,-0.058589544,-26.76,24.42,29.76
1554109583410,-0.58897364,-9.654019,-3.093907,-0.004261058,0.30253512,-0.068176925,-26.76,24.48,29.7
1554109583431,-0.62728083,-9.716269500000001,-2.7970262000000004,0.043675844000000005,0.3270362,-0.084155895,-26.82,24.54,29.7
1554109583450,-0.62249243,-9.749788,-2.7252002,0.06391586,0.350472,-0.10439592,-26.94,24.6,29.64
1554109583470,-0.78050977,-9.903017,-2.6437972000000003,0.06391586,0.36645097,-0.11717909,-27.12,24.66,29.64
1554109583489,-0.7422025,-9.716269500000001,-2.4762032000000005,0.06604639400000001,0.3568636,-0.12570119999999999,-27.42,24.72,29.64
1554109583510,-0.7757214,-9.6923275,-2.3900118,0.08841695,0.31638354,-0.128897,-27.78,24.78,29.64
1554109583529,-0.6703765,-9.467272,-2.2750902,0.10333065,0.27590349999999997,-0.13422333,-28.08,24.78,29.58
1554109583552,-0.58418524,-9.448118,-2.2990322,0.13209279,0.2034655,-0.1470065,-28.56,24.78,29.46
1554109583569,-0.49320555,-9.366715,-2.3373394,0.12996227,0.17044231,-0.15126756,-28.74,24.78,29.4
1554109583589,-0.5267244000000001,-9.261371,-2.3373394,0.10865697,0.13102753,-0.14594123,-29.04,24.84,29.28
1554109583610,-0.37828386,-9.179967999999999,-2.4091654,0.080960095,0.10759171,-0.13954964,-29.28,24.84,28.98
1554109583629,-0.46926352,-9.237428999999999,-2.4426842,0.06178534,0.09054748,-0.12783173,-29.46,24.84,28.74
1554109583650,-0.60333884,-9.088988,-2.3900118,0.054328485999999995,0.080960095,-0.10546118,-29.52,24.84,28.38
1554109583670,-0.63206923,-9.065046,-2.3181857999999997,0.07030745599999999,0.07456851,-0.084155895,-29.52,24.84,28.26
1554109583690,-0.6368576,-9.122507,-2.4283189999999997,0.07882957,0.060720075,-0.05219796,-29.58,24.9,28.14
1554109583711,-0.6943185000000001,-9.170391,-2.4953567999999997,0.07563378,0.043675844000000005,-0.02876214,-29.64,24.9,28.02
1554109583729,-0.6655880999999999,-9.170391,-2.4666264,0.07243799,0.014913702,-0.01917476,-29.7,24.9,27.96
1554109583749,-0.5554548,-9.247005,-2.461838,0.049002163,-0.025566347000000003,0.0010652645,-29.82,25.02,27.96
1554109583771,-0.5267244000000001,-9.146449,-2.60549,0.012783173500000002,-0.02876214,0.01917476,-29.94,25.08,28.02
1554109583790,-0.5506664000000001,-9.11293,-2.5767596,-0.03195793,-0.035153727999999995,0.03195793,-30.0,25.2,28.08
1554109583809,-0.45968673,-9.1033535,-2.6964695,-0.07350325,-0.03834952,0.060720075,-30.12,25.32,28.14
1554109583831,-0.4261679,-9.337985,-2.5959132,-0.082025364,-0.02876214,0.09587380000000001,-30.18,25.44,28.2
1554109583850,-0.44532153,-9.390657000000001,-2.7539306,-0.084155895,-0.03089267,0.112918034,-30.24,25.56,28.14
1554109583870,-0.5363011999999999,-9.586982,-2.8113914,-0.07669904,-0.034088463,0.12463594,-30.3,25.62,28.2
1554109583890,-0.48362875,-9.788095,-2.8880057,-0.07137272,-0.041545313,0.13528858,-30.3,25.68,28.2
1554109583909,-0.50757074,-10.032304,-2.878429,-0.056459017,-0.03834952,0.12463594,-30.36,25.74,28.2
1554109583929,-0.50757074,-10.022727,-2.6868927000000005,-0.043675844000000005,-0.039414786,0.09161274,-30.36,25.74,28.2
1554109583950,-0.30166942,-9.960478,-2.8161798,0.0010652645,-0.029827405,0.053263225,-30.36,25.74,28.2
1554109583969,-0.4261679,-9.989208,-2.7060466,0.026631612000000002,-0.013848438000000001,0.03834952,-30.36,25.74,28.2
1554109583990,-0.4213795,-10.022727,-2.8832173,0.06711166,-0.004261058,0.013848438000000001,-30.3,25.74,28.2
1554109584010,-0.37828386,-9.98442,-2.7635074,0.10652645,-0.004261058,-0.0053263223,-30.24,25.74,28.26
1554109584030,-0.39264908,-9.812037,-2.6581624,0.12357068,-0.007456851,-0.022370555,-30.24,25.74,28.26
1554109584050,-0.47405192,-9.668385,-2.8257565,0.098004326,-0.012783173500000002,-0.056459017,-30.12,25.74,28.2
1554109584070,-0.49799395,-9.6923275,-2.9311013,0.07350325,-0.015978966,-0.07563378,-30.06,25.74,28.14
1554109584090,-0.50278234,-9.615712,-2.782661,0.0063915867,-0.00958738,-0.10972224,-29.94,25.8,28.14
1554109584109,-0.48841715,-9.577405,-2.7635074,-0.029827405,-0.004261058,-0.13315806,-29.88,25.8,28.08
1554109584129,-0.51235914,-9.318831,-2.7347770000000002,-0.05006743,0.017044231,-0.15446335,-29.82,25.86,28.08
1554109584149,-0.6464345,-9.510367,-2.4139538,-0.051132694000000006,0.040480047000000005,-0.15446335,-29.76,25.86,28.02
1554109584170,-0.56982,-9.256582,-2.3756466,-0.029827405,0.04474111,-0.13954964,-29.76,25.86,28.02
1554109584190,-0.5746084,-9.35235,-2.284667,0.0010652645,0.046871635999999994,-0.11504856,-29.76,25.92,28.02
1554109584210,-0.5267244000000001,-9.275736,-2.1888987999999996,0.00958738,0.041545313,-0.10333065,-29.82,25.92,28.02
1554109584230,-0.5746084,-9.419388,-2.1745335999999997,0.013848438000000001,0.018109497,-0.10333065,-29.88,25.98,28.08
1554109584250,-0.6895300999999999,-9.299678,-2.131438,0.024501082,-0.012783173500000002,-0.09161274,-29.94,25.98,28.08
1554109584270,-0.6751649000000001,-9.390657000000001,-2.0644004000000002,0.05006743,-0.049002163,-0.07989483,-30.0,25.98,28.08
1554109584290,-0.7230489,-9.314043,-2.3038206000000003,0.10439592,-0.098004326,-0.06924219,-30.06,26.04,28.08
1554109584310,-0.6943185000000001,-9.256582,-2.3660697999999996,0.15765914,-0.14061491,-0.05752428,-30.12,26.04,28.02
1554109584330,-0.5506664000000001,-9.227852,-2.6007016,0.18216023,-0.17576863,-0.047936900000000005,-30.18,26.1,28.02
1554109584349,-0.37828386,-9.074622999999999,-2.7874494,0.14913702,-0.19387813,-0.037284255,-30.18,26.1,28.02
1554109584370,-0.272939,-9.055469500000001,-3.031658,0.096939065,-0.19068234,-0.020240024,-30.18,26.22,28.02
1554109584389,-0.17717093,-9.045893,-3.0412347,0.035153727999999995,-0.16298546,0.0031957934000000003,-30.24,26.22,28.02
1554109584409,-0.22026655,-9.170391,-3.079542,-0.027696876000000002,-0.11930962,0.029827405,-30.18,26.28,28.02
1554109584430,-0.23942018,-9.371504,-3.0699651,-0.082025364,-0.07137272,0.058589544,-30.18,26.34,28.02
1554109584449,-0.30166942,-9.505579,-3.2279825,-0.14487597,-0.025566347000000003,0.08735169,-30.18,26.46,28.02
1554109584470,-0.30645782,-9.831191,-3.1800982999999996,-0.20453078,0.00958738,0.1107875,-30.12,26.52,28.02
1554109584490,-0.38307226,-10.137649,-3.3141737,-0.2695119,0.056459017,0.112918034,-30.06,26.58,28.02
1554109584510,-0.34476504,-10.061034,-3.1082723,-0.32490566,0.09374327,0.07137272,-30.0,26.64,28.14
1554109584530,-0.47405192,-10.185533,-3.0268695,-0.37390783,0.14913702,0.024501082,-29.88,26.52,28.2
1554109584550,-0.6847416999999999,-10.535086,-2.926313,-0.3653857,0.18855181,0.017044231,-29.82,26.34,28.32
1554109584569,-0.6703765,-10.879850999999999,-2.6533740000000003,-0.28549087,0.2034655,-0.002130529,-29.76,26.16,28.38
1554109584590,-0.58418524,-10.841544,-2.3900118,-0.20026971,0.18322548,-0.06924219,-29.76,26.1,28.44
1554109584609,-0.521936,-10.228628,-2.0548236,-0.049002163,0.14913702,-0.21837921,-29.76,25.86,28.5
1554109584629,-0.8762778,-9.610924,-1.9829974999999997,0.11930962,0.11611383,-0.3334278,-29.76,25.62,28.56
1554109584650,-1.043872,-9.156025999999999,-1.834557,0.2908172,0.080960095,-0.34301516,-29.7,25.26,28.56
1554109584670,-1.2018893,-8.782531,-1.6765398,0.4016047,0.033023197000000004,-0.27377295,-29.76,25.08,28.56
1554109584690,-1.1156979999999999,-8.768166,-2.0213048,0.46232477,-0.022370555,-0.1768339,-29.76,24.96,28.56
1554109584710,-1.0630256,-8.81605,-2.1984756,0.45699844,-0.09374327,-0.08841695,-29.82,24.96,28.56
1554109584729,-0.9672575000000001,-8.681973,-2.3756466,0.40906155,-0.18642128,-0.020240024,-29.88,24.96,28.56
1554109584749,-0.6560113000000001,-8.658031,-2.710835,0.3334278,-0.27057716,0.04474111,-29.94,25.02,28.56
1554109584769,-0.32561144,-8.768166,-2.8257565,0.23435818,-0.31318775,0.101200126,-30.0,25.14,28.56
1554109584790,-0.12449849,-8.825626,-3.079542,0.13422333,-0.2972088,0.15233281,-30.0,25.5,28.56
1554109584809,0.1388637,-8.873510000000001,-3.127426,0.041545313,-0.23542345,0.19600865,-30.06,25.8,28.56
1554109584829,0.14844051,-9.098564999999999,-3.1705215,-0.033023197000000004,-0.14594123,0.21518342,-30.06,26.1,28.5
1554109584849,0.11492168,-9.337985,-3.328539,-0.07669904,-0.04580637,0.19600865,-30.0,26.4,28.44
1554109584870,-0.22505496,-9.529521,-3.2279825,-0.083090626,0.060720075,0.15233281,-29.88,26.7,28.38
1554109584890,-0.6607997,-9.768942,-3.3716345000000003,-0.08522116,0.1470065,0.10013486,-29.76,27.0,28.32
1554109584910,-0.9672575000000001,-10.01315,-3.1800982999999996,-0.07456851,0.21198763,0.06178534,-29.64,27.3,28.2
1554109584929,-0.9720459000000001,-9.869498,-3.127426,-0.014913702,0.257794,0.04580637,-29.46,27.48,28.14
1554109584949,-0.7422025,-10.022727,-3.232771,0.02130529,0.29294774,0.056459017,-29.34,27.48,28.02
1554109584971,-0.7613561,-10.070611,-3.1130607000000006,-0.004261058,0.33662358,0.05219796,-29.28,27.54,27.96
1554109584990,-0.7278373,-10.161591,-2.8592752999999997,-0.05752428,0.36751625,0.036218993,-29.22,27.6,27.9
1554109585010,-0.50278234,-10.281301,-2.7204118,-0.09587380000000001,0.38775626,0.018109497,-29.16,27.48,27.9
1554109585030,-0.40222588,-10.4967785,-2.6007016,-0.08628642,0.39947417,-0.018109497,-29.22,27.42,27.9
1554109585050,-0.48841715,-10.405799,-2.4283189999999997,-0.04261058,0.40053943,-0.084155895,-29.28,27.42,27.9
1554109585070,-0.5554548,-10.242992999999998,-2.4235306,0.025566347000000003,0.38882150000000004,-0.1470065,-29.4,27.3,27.9
1554109585090,-0.61291564,-10.022727,-2.4378957999999997,0.07456851,0.386691,-0.18642128,-29.58,27.24,27.9
1554109585109,-0.5602431999999999,-9.821614,-2.1458032000000005,0.10759171,0.37390783,-0.22796659,-29.82,27.12,27.9
1554109585131,-0.6560113000000001,-9.730635000000001,-2.1745335999999997,0.14061491,0.36325517,-0.26631612,-30.12,27.06,27.84
1554109585149,-0.770933,-9.534309,-2.3469162,0.16724652,0.33875409999999995,-0.2790993,-30.48,27.0,27.72
1554109585170,-0.641646,-9.476849000000001,-2.3756466,0.1768339,0.31638354,-0.2727077,-30.84,27.0,27.66
1554109585189,-0.4261679,-9.577405,-2.3181857999999997,0.15339808,0.28549087,-0.27483824,-31.2,27.0,27.54
1554109585210,-0.5267244000000001,-9.907805,-2.6150667999999997,0.10759171,0.27057716,-0.30679616,-31.5,27.0,27.36
1554109585231,-0.7326256999999999,-9.926959,-2.7012582000000003,0.06498113,0.26418558,-0.36218992,-31.8,27.0,27.24
1554109585249,-0.6512229,-10.348338,-2.6964695,0.07563378,0.27377295,-0.40266997,-32.04,26.94,27.06
1554109585270,-0.47405192,-10.606912,-2.9358897,0.12357068,0.3057309,-0.43356264,-32.28,26.88,26.88
1554109585290,-0.4261679,-10.889428,-3.2998084999999997,0.17470337,0.3749731,-0.48043427,-32.46,26.82,26.76
1554109585310,-0.26815059999999996,-11.042657,-3.5248635000000004,0.18002969,0.44528055,-0.5496765,-32.7,26.76,26.58
1554109585330,0.10055647,-11.186309,-3.0364463,0.18535602,0.5454154,-0.6359629,-32.94,26.64,26.34
1554109585350,0.6368576,-11.253346,-2.7730842,0.26631612,0.61678815,-0.75633776,-33.3,26.58,26.16
1554109585369,1.0151415000000001,-11.100118,-2.2559366,0.4165184,0.660464,-0.9171927,-33.72,26.52,25.92
1554109585390,1.2066777,-11.329961,-2.356493,0.61891866,0.70840085,-1.0503508,-34.2,26.4,25.62
1554109585410,1.436521,-11.363480000000001,-2.5623944,0.7414241,0.77870834,-1.1345067,-34.74,26.28,25.26
1554109585429,1.5610195,-11.104906,-2.7778726000000002,0.753142,0.8724516,-1.2303803999999998,-35.64,25.98,24.72
1554109585449,1.7573439999999998,-11.090541,-2.8640637000000004,0.72437984,0.91825795,-1.3028183999999998,-36.06,25.86,24.6
1554109585470,1.8243817,-10.812814,-2.5959132,0.66152924,0.9917611999999999,-1.4157364,-36.96,25.68,24.18
1554109585489,1.9823990000000002,-10.353127,-2.1601684,0.6146576,1.0567423,-1.5211976999999999,-37.8,25.44,23.76
1554109585509,2.2649147999999997,-10.219051,-2.3995886000000004,0.6125271,1.1057445,-1.6085493999999998,-38.52,25.14,23.28
1554109585530,2.4899697,-10.147225,-2.0165164,0.59867865,1.2016183,-1.7065537,-39.72,24.66,22.2
1554109585550,2.834735,-10.228628,-1.3748703000000002,0.5816344,1.2186625,-1.7779262999999998,-40.74,24.24,21.36
1554109585570,3.040636,-9.625289,-1.0253168,0.50173956,1.1899004,-1.856756,-41.88,23.7,20.52
1554109585590,3.4524388,-9.337985,-0.9151836,0.42930159999999995,1.1579423999999998,-1.9206718,-42.9,22.92,19.5
1554109585610,3.7301662,-9.179967999999999,-0.9151836,0.32810146,1.1494204,-1.9867182,-43.8,21.96,18.36
1554109585630,4.0653543,-8.839992,-0.15382746,0.31105720000000003,1.1366372,-2.0516994,-44.76,20.7,17.28
1554109585649,4.2042184,-8.84478,0.39205053,0.35260254,1.135572,-2.1198764,-45.84,19.32,16.2
1554109585669,4.2760444,-8.5622635,0.6027403,0.3653857,1.0823087,-2.198706,-46.98,17.64,15.18
1554109585690,4.7357309999999995,-7.9301944,0.86131406,0.3270362,1.0045444,-2.2413163,-48.18,15.78,14.22
1554109585710,5.161899,-7.2406645,1.1773487,0.29188246,0.92038846,-2.2168152,-49.08,13.68,13.26
1554109585731,5.7029886,-6.9437833,1.1534066,0.35473305,0.88949585,-2.1827269,-49.98,11.64,12.18
1554109585749,5.8849480000000005,-6.843227000000001,1.2635399,0.39201729999999996,0.8852348,-2.2050973999999997,-50.88,9.54,11.1
1554109585769,5.8849480000000005,-6.4122705,1.2156559,0.39521313,0.850081,-2.198706,-51.6,7.26,10.14
1554109585789,6.0764837,-5.895123,1.4167688999999999,0.38136467,0.77231675,-2.1156151000000003,-52.26,5.1,9.12
1554109585809,6.325481,-5.4881085999999994,1.5891514,0.34834146,0.7073356,-2.05383,-52.86,2.76,8.04
1554109585830,6.5840545,-5.1529207,1.7711107,0.3153183,0.6402239000000001,-2.0037625,-53.4,0.54,7.02
1554109585851,6.6941880000000005,-4.755483,2.082357,0.25885928,0.5858955,-1.9568908,-53.76,-1.68,5.88
1554109585870,6.8330517,-4.3676224,2.2403743,0.20559604,0.51771855,-1.8993665000000002,-54.12,-3.9,4.86
1554109585890,7.038953,-4.267066000000001,2.345719,0.16618125,0.4314321,-1.8216022,-54.36,-6.12,4.08
1554109585912,7.268796400000001,-3.9079356,2.3888147,0.12570119999999999,0.3568636,-1.7417074000000001,-54.6,-8.4,3.42
1554109585929,7.393294999999999,-3.5248635000000004,2.556409,0.08841695,0.2727077,-1.6745956999999998,-54.84,-10.62,2.82
1554109585950,7.546523599999999,-3.5104983,2.5803509,0.068176925,0.22264028,-1.6181368,-55.02,-12.78,2.22
1554109585969,7.5704656,-3.1896752999999998,2.6521769,0.024501082,0.16192019,-1.5446335,-55.2,-14.88,1.68
1554109585990,7.699753,-2.9071592999999996,3.0735563999999997,0.014913702,0.10013486,-1.4359765,-55.26,-16.8,1.2
1554109586014,7.9391727,-2.5001452,2.9299042,0.037284255,0.04580637,-1.2772521000000001,-55.38,-19.5,0.78
1554109586030,7.9391727,-2.3900118,3.0496144,0.047936900000000005,0.018109497,-1.1877699,-55.38,-20.34,0.66
1554109586051,8.010999,-1.963844,2.915539,0.03834952,-0.0010652645,-1.0801781000000001,-55.44,-22.02,0.36
1554109586070,8.240842,-1.8872293999999998,2.9299042,-0.011717908999999999,-0.025566347000000003,-0.98110855,-55.38,-23.64,0.12
1554109586090,8.542512,-1.8680758000000002,2.7383683,-0.09267801,-0.033023197000000004,-0.90014845,-55.26,-25.14,-0.06
1554109586111,8.619126,-1.8728642,2.5899277,-0.19813919,-0.037284255,-0.8117314999999999,-55.08,-26.46,-0.24
1554109586129,8.628703,-1.8489223000000001,2.5420437000000002,-0.34088463,-0.035153727999999995,-0.71798825,-54.9,-27.6,-0.36
1554109586149,8.6334915,-1.9590555,2.5037365,-0.46232477,-0.037284255,-0.62317973,-54.66,-28.68,-0.48
1554109586170,8.667010000000001,-2.0500352,2.4079683,-0.5518069999999999,-0.05965481,-0.5571333,-54.36,-29.76,-0.72
1554109586190,8.63828,-2.1218612,2.4223334999999997,-0.608266,-0.08735169,-0.5113269,-54.06,-30.9,-0.96
1554109586210,8.6574335,-2.236783,2.3361422999999997,-0.59867865,-0.111852765,-0.45060685,-53.82,-31.92,-1.14
1554109586230,8.743625,-2.4139538,2.2691047,-0.5070659000000001,-0.15020229,-0.39414784,-53.52,-33.0,-1.44
1554109586249,8.667010000000001,-2.4378957999999997,2.2164322999999997,-0.4250405,-0.1768339,-0.37710363,-53.46,-33.36,-1.56
1554109586270,8.820239,-2.3373394,2.178125,-0.28016454,-0.20453078,-0.34194988,-53.34,-33.96,-1.74
1554109586291,8.983044999999999,-2.1505916000000003,1.8908207,-0.099069595,-0.23116238,-0.28868666,-53.22,-34.86,-1.92
1554109586309,9.030928999999999,-2.356493,1.5939398,-0.03195793,-0.2545982,-0.27057716,-53.16,-35.16,-1.98
1554109586330,9.232041,-2.2942438,1.5556326,0.015978966,-0.26205507,-0.26844665,-53.1,-35.82,-2.04
1554109586350,9.284714,-2.2655133999999997,1.7088615000000003,0.07563378,-0.26418558,-0.24820662,-52.98,-36.06,-2.04
1554109586370,9.41879,-2.1362264,1.7423803,0.17257284,-0.2695119,-0.21731395,-52.74,-36.36,-2.04
1554109586390,9.361329,-2.0500352,1.7232267,0.30253512,-0.26631612,-0.17896444,-52.56,-36.6,-2.04
1554109586411,9.337387,-1.8537107,1.8142063999999998,0.45167214,-0.25885928,-0.15978967,-52.44,-36.84,-1.98
1554109586431,9.385271000000001,-1.7483658,1.4550761,0.49108690000000005,-0.2428803,-0.18322548,-52.26,-37.08,-1.98
1554109586450,9.399636,-1.6956933999999997,1.584363,0.49108690000000005,-0.21731395,-0.19920446,-52.14,-37.26,-1.92
1554109586470,9.481038999999999,-1.4754268,1.8860323,0.4857606,-0.18748654,-0.19813919,-52.02,-37.44,-1.86
1554109586489,9.730036,-1.4227544,1.7375918999999997,0.45912898,-0.15446335,-0.18322548,-51.9,-37.56,-1.62
1554109586510,9.725247,-1.1498153,1.5939398,0.33662358,-0.11824436,-0.18002969,-51.9,-37.62,-1.32
1554109586529,9.730036,-1.0205284,1.7184383,0.17257284,-0.08628642,-0.16831179,-51.9,-37.62,-1.02
1554109586549,9.65821,-0.88166475,1.6370354,0.01917476,-0.07137272,-0.14807177,-51.84,-37.56,-0.72
1554109586570,9.576807,-1.0588357,1.6753427,-0.09374327,-0.043675844000000005,-0.13848437,-51.84,-37.56,-0.42
1554109586590,9.581595,-1.2312181999999998,1.7806876,-0.1768339,-0.018109497,-0.16085494,-51.78,-37.5,-0.18
1554109586610,9.634267999999999,-1.1833341999999998,1.7758990000000001,-0.21944448,-0.007456851,-0.17896444,-51.72,-37.5,0.12
1554109586630,9.581595,-1.240795,1.6897078999999997,-0.18961707,-0.0031957934000000003,-0.15233281,-51.66,-37.5,0.36
1554109586650,9.452309,-1.0779893,1.5364790000000002,-0.12250541,-0.004261058,-0.11717909,-51.6,-37.5,0.48
1554109586670,9.600749,-1.2120646000000002,1.4598645000000001,-0.04261058,-0.0031957934000000003,-0.10759171,-51.54,-37.62,0.54
1554109586689,9.504980999999999,-1.1162965,1.4550761,0.011717908999999999,-0.0063915867,-0.12037488,-51.48,-37.68,0.54
1554109586710,9.447519999999999,-1.3509283,1.4550761,0.03834952,-0.00958738,-0.12144015,-51.36,-37.8,0.6
1554109586730,9.3182335,-1.2695253999999998,1.6083049999999999,0.06178534,-0.022370555,-0.096939065,-51.3,-37.98,0.66
1554109586750,9.279925,-1.4466964,1.7375918999999997,0.084155895,-0.033023197000000004,-0.07137272,-51.24,-38.16,0.66
1554109586770,9.323022,-1.3461398999999998,1.7615339,0.05539375,-0.056459017,-0.05752428,-51.12,-38.4,0.66
1554109586789,9.332599,-1.3557166999999999,1.6753427,0.017044231,-0.054328485999999995,-0.043675844000000005,-51.06,-38.58,0.66
1554109586809,9.504980999999999,-1.2503718000000001,1.5604209999999998,-0.05965481,-0.060720075,-0.02130529,-51.0,-38.7,0.6
1554109586830,9.495403999999999,-1.216853,1.3784616000000003,-0.16192019,-0.06711166,-0.014913702,-50.94,-38.82,0.6
1554109586850,9.615114,-1.3892354999999998,1.584363,-0.21837921,-0.05219796,-0.0031957934000000003,-50.94,-39.0,0.6
1554109586869,9.662998,-1.4706384,1.5556326,-0.1768339,-0.05006743,0.00958738,-50.88,-39.12,0.54
1554109586889,9.5385,-1.4371196000000002,1.5652093999999999,-0.08948222,-0.025566347000000003,0.015978966,-50.82,-39.18,0.54
1554109586910,9.634267999999999,-1.6142905,1.6944963,-0.0031957934000000003,-0.029827405,0.015978966,-50.76,-39.12,0.54
1554109586930,9.68694,-1.5472529,1.8189948,0.09054748,-0.05752428,0.008522116,-50.7,-39.06,0.54
1554109586950,9.696517,-1.5041572,1.5508442,0.18642128,-0.06391586,-0.00958738,-50.7,-39.06,0.54
1554109586970,9.65821,-1.4036007,1.3736732,0.22370553,-0.06285059999999999,-0.02876214,-50.64,-39.0,0.54
1554109586990,9.662998,-1.3652935,1.2683283,0.18535602,-0.068176925,-0.051132694000000006,-50.58,-39.0,0.48
1554109587010,9.691728999999999,-1.3365631000000002,1.0767921999999999,0.12037488,-0.06285059999999999,-0.041545313,-50.58,-38.94,0.48
1554109587030,9.706094,-1.216853,1.0720038,0.054328485999999995,-0.043675844000000005,-0.017044231,-50.52,-38.88,0.48
1554109587050,9.648633,-1.2934675,1.1246762,-0.023435817999999997,-0.01917476,-0.007456851,-50.52,-38.82,0.54
1554109587070,9.586383999999999,-1.3126211,1.2108675,-0.096939065,-0.0031957934000000003,-0.010652645,-50.58,-38.82,0.66
1554109587090,9.576807,-1.3365631000000002,1.2204443,-0.14913702,0.011717908999999999,-0.014913702,-50.58,-38.76,0.72
1554109587110,9.414000999999999,-1.1498153,1.335366,-0.16085494,0.008522116,-0.0053263223,-50.58,-38.76,0.78
1554109587130,9.634267999999999,-1.4514848,1.3066356000000001,-0.12570119999999999,0.0,0.0053263223,-50.58,-38.7,0.9
1554109587149,9.548077000000001,-1.4993688,1.2970588,-0.10546118,-0.002130529,0.0063915867,-50.58,-38.7,0.9
1554109587169,9.490616000000001,-1.6334441000000002,1.4359225,-0.1107875,-0.0010652645,-0.00958738,-50.58,-38.64,0.96
1554109587190,9.595961,-1.5472529,1.3688848,-0.113983296,-0.01917476,-0.01917476,-50.52,-38.64,0.96
1554109587209,9.528922999999999,-1.4945803999999998,1.3162124,-0.10865697,-0.029827405,-0.026631612000000002,-50.4,-38.64,0.96
1554109587231,9.576807,-1.5520413,1.2252326999999998,-0.10013486,-0.03195793,-0.04261058,-50.34,-38.64,0.96
1554109587250,9.519346,-1.6478093,1.1629834,-0.06604639400000001,-0.05006743,-0.036218993,-50.34,-38.7,0.96
1554109587270,9.514558000000001,-1.5185224,1.3976152,-0.023435817999999997,-0.04580637,-0.008522116,-50.28,-38.7,0.9
1554109587291,9.437942999999999,-1.5759833,1.2826935,-0.0053263223,-0.060720075,0.0010652645,-50.28,-38.7,0.9
1554109587310,9.442732000000001,-1.5759833,1.1438298,-0.04580637,-0.07030745599999999,-0.033023197000000004,-50.28,-38.7,0.84
1554109587330,9.327810000000001,-1.4993688,1.2731166999999999,-0.05539375,-0.06604639400000001,-0.024501082,-50.34,-38.76,0.78
1554109587350,9.26556,-1.5041572,1.2970588,-0.036218993,-0.07243799,0.017044231,-50.52,-38.76,0.72
1554109587370,9.514558000000001,-1.4131776000000003,1.287482,0.024501082,-0.084155895,0.05965481,-50.58,-38.76,0.66
1554109587389,9.552864999999999,-1.4083891000000002,1.2108675,0.07030745599999999,-0.07989483,0.07669904,-50.7,-38.76,0.6
1554109587409,9.500193,-1.4610616,1.0815806000000001,-0.004261058,-0.056459017,0.041545313,-50.76,-38.76,0.6
1554109587429,9.519346,-1.3892354999999998,1.0528502,-0.06604639400000001,-0.04261058,0.04261058,-50.82,-38.76,0.6
1554109587449,9.394848,-1.441908,1.1486181999999998,-0.09054748,-0.013848438000000001,0.09161274,-50.88,-38.76,0.6
1554109587470,9.548077000000001,-1.4323312,1.1965023000000001,-0.06604639400000001,0.0031957934000000003,0.14487597,-50.88,-38.64,0.66
1554109587490,9.485827,-1.513734,1.2683283,-0.054328485999999995,0.007456851,0.17576863,-50.88,-38.58,0.72
1554109587510,9.466674000000001,-1.5759833,1.3976152,-0.036218993,0.004261058,0.20133498,-50.88,-38.46,0.78
1554109587531,9.461885,-1.4945803999999998,1.2491747,-0.04261058,-0.0063915867,0.22050974,-50.88,-38.34,0.84
1554109587550,9.284714,-1.5185224,1.1965023000000001,-0.043675844000000005,0.0,0.2428803,-50.82,-38.22,0.9
1554109587570,9.107543,-1.4466964,1.359308,-0.027696876000000002,-0.004261058,0.27377295,-50.88,-38.1,0.96
1554109587590,9.078813,-1.1976993999999999,1.4215573000000001,0.06604639400000001,-0.0031957934000000003,0.34301516,-50.88,-37.98,0.96
1554109587609,9.040505,-1.2072762,1.5221136999999998,0.12037488,-0.008522116,0.406931,-50.94,-37.8,0.96
1554109587629,8.872911,-1.417966,1.5077485000000002,0.18748654,-0.014913702,0.48682585,-51.06,-37.62,0.96
1554109587649,8.820239,-1.3126211,1.5939398,0.21731395,-0.04580637,0.5858955,-51.18,-37.44,0.96
1554109587669,8.710106,-1.2934675,1.6753427,0.24501082,-0.049002163,0.69668293,-51.36,-37.08,0.96
1554109587689,8.604761,-1.4754268,1.6561891,0.27590349999999997,-0.056459017,0.80533993,-51.54,-36.6,0.96
1554109587711,8.825027,-1.5041572,1.632247,0.30360037,-0.09054748,0.8969527,-51.72,-36.06,0.96
1554109587731,8.552089,-1.762731,1.5221136999999998,0.35260254,-0.06604639400000001,1.0024139,-51.9,-35.4,1.02
1554109587750,8.279149,-2.1027076,1.7328035,0.35579833,-0.05006743,1.0727214,-52.14,-34.8,1.14
1554109587770,8.719683,-2.2319946,1.7040731,0.314253,-0.06924219,1.1227888000000001,-52.32,-34.02,1.32
1554109587789,8.892064999999999,-2.60549,1.5412674,0.25566345,-0.05752428,1.2048141,-52.44,-33.18,1.44
1554109587810,8.987833,-2.8640637000000004,1.5795746000000002,0.12357068,-0.083090626,1.2665993999999998,-52.56,-32.28,1.62
1554109587830,8.916007,-3.2902317,1.5125369,-0.02876214,-0.101200126,1.3028183999999998,-52.74,-31.32,1.8
1554109587850,8.815451,-3.4290953,1.6753427,-0.19068234,-0.13102753,1.3124058,-52.92,-30.18,1.92
1554109587870,9.078813,-3.639785,1.5604209999999998,-0.3174488,-0.19174760000000002,1.3262542,-53.16,-29.04,2.1
1554109587891,9.074024,-3.8600516000000002,1.5269021,-0.49747851,-0.27057716,1.32945,-53.52,-27.72,2.22
1554109587910,8.346188,-4.5016975,1.3066356000000001,-0.7552725,-0.34727620000000003,1.3017531999999998,-54.0,-25.5,2.4
1554109587929,7.723694999999999,-4.607043,1.0959458,-1.0120013,-0.46871635,1.2953615,-54.18,-24.84,2.46
1554109587949,7.608772999999999,-4.932654,0.65541273,-1.1952267,-0.58269966,1.3379722,-54.48,-23.4,2.7
1554109587971,6.9862804,-5.3444567,-0.019752163,-1.3997575,-0.67537767,1.3827133,-54.9,-21.42,3.0
1554109587991,6.6415157,-5.555146700000001,0.12868834,-1.5488945,-0.75420725,1.3965617000000001,-55.14,-20.28,3.24
1554109588010,6.1770406,-5.7754129999999995,-0.024540568,-1.619202,-0.8362325999999999,1.4146712,-55.26,-19.2,3.48
1554109588030,5.923255,-6.393117,-0.30705637,-1.5616777,-0.89375687,1.4615428,-55.2,-18.18,3.78
1554109588050,5.8322754,-6.3787518,-0.40282443,-1.4615428,-0.98750013,1.5222628999999999,-55.14,-17.34,4.32
1554109588069,5.813122,-6.881533999999999,-0.9103952,-1.2069446000000001,-1.019458,1.5808525,-55.08,-16.92,4.62
1554109588089,5.5976434,-7.3460092999999995,-1.3174095,-0.9416938,-1.0748518999999999,1.5606124,-54.9,-15.6,5.34
1554109588109,5.1379566,-8.241441,-1.5855601000000001,-0.6849651,-1.0247844000000002,1.5169365,-54.84,-14.7,5.76
1554109588130,4.9320555,-8.658031,-1.5520413,-0.38349520000000004,-1.0428939,1.4913702,-54.66,-13.68,6.24
1554109588150,4.912902,-8.998009,-1.5424645000000001,0.07989483,-1.0705907,1.4647386,-54.48,-12.54,6.78
1554109588169,5.066130599999999,-8.863934,-1.8776526000000002,0.5294364,-1.0897655000000002,1.3859091000000001,-54.24,-11.34,7.62
1554109588189,5.0374002,-8.69155,-2.0500352,0.8404937,-1.0215886,1.3241237,-54.06,-9.96,8.58
1554109588210,4.9224787,-8.878299,-2.4570496,0.9757822,-0.87564737,1.320928,-53.76,-8.4,9.36
1554109588230,4.6878470000000005,-8.624513,-2.2511482000000003,0.9310411,-0.75101143,1.3187973,-53.46,-6.66,10.26
1554109588249,4.486733999999999,-7.872733599999999,-2.710835,0.8159926,-0.7701861999999999,1.3401027,-53.1,-4.86,11.16
1554109588269,4.3047748,-7.542333999999999,-3.079542,0.58269966,-0.7350325,1.3827133,-52.56,-2.88,12.06
1554109588290,3.9025488,-8.255806,-3.2231941,0.10546118,-0.67324716,1.3901701000000002,-51.9,-0.9,13.02
1554109588310,3.1651347000000003,-8.643666,-2.8736405,-0.6327670999999999,-0.71585774,1.3624732,-51.12,1.02,14.04
1554109588329,2.906561,-8.897452000000001,-2.8832173,-0.9406285,-0.7595335999999999,1.3518206,-50.46,2.82,14.82
1554109588349,2.6623523,-8.567052,-2.581548,-1.1899004,-0.8404937,1.3347764,-49.74,4.44,15.36
1554109588370,2.5474305,-8.121731,-3.0364463,-1.2048141,-0.9193232,1.3550163999999998,-49.02,5.82,15.9
1554109588390,2.3127987,-8.897452000000001,-3.7307648999999996,-1.1845741,-0.8681905000000001,1.3731258999999998,-48.3,6.9,16.5
1554109588410,1.3024458,-9.462483,-3.7211879999999997,-1.2836437,-0.7861651999999999,1.3411678999999999,-47.46,7.86,17.16
1554109588430,0.6464345,-9.610924,-3.6014779000000003,-1.2538162,-0.8159926,1.3113406,-46.62,8.52,17.88
1554109588450,0.7086836999999999,-8.705916,-3.3093852999999998,-1.0141318000000001,-0.9438243000000001,1.3156016000000001,-46.02,9.06,18.66
1554109588470,1.0199299000000002,-8.409035000000001,-4.152144399999999,-0.5635249,-1.0450244,1.3688648,-45.42,9.48,19.32
1554109588490,0.7182605,-9.108141999999999,-4.420294999999999,-0.2545982,-0.9406285,1.4040185,-44.7,9.84,20.04
1554109588510,-0.11492168,-9.419388,-4.228758999999999,-0.18748654,-0.84155893,1.4008228,-44.04,10.26,20.76
1554109588530,-0.60812724,-9.189544999999999,-4.0803185,-0.07563378,-0.8447546999999999,1.4125406999999999,-43.26,10.8,21.6
1554109588549,-0.8714894,-8.782531,-4.085107,0.09374327,-0.91186637,1.4444987,-42.3,11.4,22.44
1554109588571,-0.91937345,-8.413822999999999,-4.3388919999999995,0.20133498,-0.93636745,1.4956313,-41.4,12.12,23.1
1554109588591,-1.2976573999999998,-8.930971000000001,-4.860828,0.13315806,-0.8788431999999999,1.5371766000000002,-40.44,13.02,23.7
1554109588610,-1.9009962,-8.954913000000001,-4.664503599999999,-0.082025364,-0.84688526,1.5520903,-39.36,13.92,24.18
1554109588630,-2.3750482,-8.701127,-4.449025,-0.23329292,-0.84368944,1.5180018,-38.4,14.82,24.66
1554109588649,-2.5617957000000002,-8.112153999999999,-4.611831,-0.28868666,-0.8905610999999999,1.530785,-37.44,15.78,25.08
1554109588670,-2.6192567,-7.3268557,-4.180875,-0.3057309,-0.90654004,1.6021577,-36.36,16.62,25.5
1554109588690,-2.657564,-7.5471225,-4.702811,-0.25140239999999997,-0.87777793,1.7086842,-35.4,17.4,25.92
1554109588710,-3.5625722,-7.915829,-4.3388919999999995,-0.34088463,-0.7339671999999999,1.7672738000000001,-34.32,18.3,26.4
1554109588730,-4.213794999999999,-7.671621000000001,-4.4681787,-0.34194988,-0.7765778,1.8120148,-33.3,19.2,26.94
1554109588750,-5.0086699999999995,-7.671621000000001,-4.3676224,-0.2727077,-0.773382,1.861017,-32.22,19.86,27.54
1554109588770,-5.5018754,-6.9820905,-4.334103599999999,-0.25885928,-0.8223841999999999,1.937716,-31.08,20.52,28.14
1554109588790,-5.645528,-6.8719573,-4.362833999999999,-0.17576863,-0.8511463,2.0378509,-29.82,21.12,28.68
1554109588810,-6.3925184999999995,-7.4322004,-4.4681787,-0.14807177,-0.8319715,2.1177456,-27.78,21.9,29.52
1554109588830,-6.732495299999999,-7.398681599999999,-4.300585,-0.11930962,-0.8309063,2.150769,-27.12,22.14,29.76
1554109588849,-6.799533,-6.9916677,-4.094683600000001,0.02130529,-0.84368944,2.2050973999999997,-25.8,22.62,30.12
1554109588869,-7.192182000000001,-6.9342065,-3.9558197999999996,0.19707392,-0.8362325999999999,2.2700787,-24.72,22.92,30.36
1554109588889,-7.6470804,-6.905475999999999,-3.7211879999999997,0.31212249999999997,-0.8159926,2.3084279999999997,-23.64,23.16,30.48
1554109588909,-7.97748,-6.8863225,-3.615843,0.45167214,-0.8021441,2.3659522999999996,-22.8,23.46,30.6
1554109588931,-8.667010000000001,-7.417835,-3.7403417,0.58056915,-0.7222493000000001,2.4298682,-21.12,24.0,30.84
1554109588950,-8.6334915,-7.269394999999999,-3.3955764999999998,0.60507023,-0.6849651,2.4096282,-19.8,24.42,30.96
1554109588969,-8.528147,-7.2454529999999995,-3.0747535,0.6689861,-0.64768076,2.3148196,-19.08,24.66,31.08
1554109588990,-8.872911,-7.1113777,-2.6198552000000004,0.7499462,-0.6508765999999999,2.1571605,-17.16,25.74,31.2
1554109589009,-9.131485000000001,-7.49445,-2.5911248,0.8159926,-0.6689861,2.0431771,-15.72,26.58,31.2
1554109589030,-8.667010000000001,-8.768166,-2.6629508,0.77444726,-0.6956177,1.9291939999999999,-14.22,27.24,31.08
1554109589049,-8.264783999999999,-10.34355,-3.0508115,0.41971418,-0.75420725,1.6117451,-12.72,27.84,30.9
1554109589069,-8.6813755,-9.548675,-3.6445735,0.17789917,-0.7680557,1.2144015,-10.98,28.44,30.72
1554109589091,-7.9583262999999995,-8.600571,-4.123414,0.00958738,-0.74461985,0.69029135,-9.66,28.92,30.54
1554109589109,-8.106767,-7.5519110000000005,-3.8600516000000002,-0.23542345,-0.62744075,0.28229508,-8.52,29.34,30.3
1554109589129,-8.125919999999999,-6.120178,-3.5344403,-0.5699165,-0.33662358,-0.21624869,-7.62,29.64,30.06
1554109589150,-8.403648,-6.0244102,-2.7347770000000002,-0.58483016,0.06604639400000001,-0.57311225,-6.66,29.7,29.82
1554109589170,-8.566454,-5.48332,-2.3995886000000004,-0.42290998,0.21518342,-0.6945524000000001,-5.88,29.7,29.64
1554109589190,-8.8777,-4.487332299999999,-2.3277626000000002,-0.19707392,0.34834146,-0.7957525,-5.22,29.7,29.52
1554109589210,-8.973467999999999,-4.1425676,-1.9542671000000003,0.13635385,0.43249738,-0.716923,-4.74,29.7,29.52
1554109589229,-8.8777,-4.0755300000000005,-1.7531542000000002,0.42397526,0.4016047,-0.5795039000000001,-4.62,29.64,29.46
1554109589249,-8.791509,-3.8504747999999998,-1.3365631000000002,0.86606,0.33129725,-0.36005938,-4.68,29.64,29.46
1554109589270,-8.566454,-3.3237504999999996,-1.3892354999999998,1.4061489999999999,0.24607609,-0.12570119999999999,-4.86,29.64,29.4
1554109589290,-8.528147,-3.093907,-1.6525976999999998,1.6788566999999999,0.18216023,0.037284255,-5.04,29.7,29.4
1554109589310,-8.51857,-3.0268695,-1.6765398,1.7896442,0.13741912,0.18216023,-5.28,30.06,29.28
1554109589330,-8.571242,-2.9454667999999997,-1.9973627,1.7512947,0.096939065,0.31105720000000003,-5.58,30.78,29.22
1554109589350,-8.647857,-2.8018146,-2.1218612,1.5286545,0.054328485999999995,0.42930159999999995,-5.94,31.62,29.16
1554109589370,-8.686164,-2.8640637000000004,-2.0548236,1.1685951,0.013848438000000001,0.5294364,-6.24,32.7,28.92
1554109589390,-8.844180999999999,-2.959832,-2.15538,0.7318366999999999,-0.053263225,0.6040049,-6.54,33.84,28.62
1554109589410,-8.839393,-3.1226375,-2.1218612,0.21624869,-0.13102753,0.6508765999999999,-6.66,35.04,28.26
1554109589430,-8.944737,-3.4051532999999994,-1.8632874,-0.31212249999999997,-0.21518342,0.67963874,-6.66,36.18,27.84
1554109589450,-8.781932000000001,-3.8600516000000002,-1.7962499,-0.8341021000000001,-0.27803403,0.65513766,-6.6,37.26,27.36
1554109589470,-8.901641999999999,-4.520851,-1.5424645000000001,-1.2697952,-0.28655612,0.60080916,-6.48,38.1,26.94
1554109589490,-8.528147,-5.612607499999999,-0.87208796,-1.5073493,-0.29614353,0.5571333,-6.24,38.46,26.52
1554109589509,-8.772355000000001,-7.283760000000001,-0.27832595,-1.1515508999999997,-0.21837921,0.49641323,-5.94,38.4,26.1
1554109589529,-8.896853,-6.225523,-1.264737,-0.43356264,-0.2908172,0.36325517,-5.58,37.86,25.98
1554109589550,-8.911219000000001,-5.2103815,-1.5568296999999998,0.053263225,-0.28549087,0.18002969,-5.04,37.26,25.98
1554109589570,-8.772355000000001,-4.8225207,-1.8010383,0.2972088,-0.25672874,0.058589544,-4.56,36.54,26.04
1554109589590,-8.848969,-4.3197384,-2.404377,0.19068234,-0.19707392,-0.12037488,-4.08,35.82,26.16
1554109589611,-8.901641999999999,-3.9031472000000003,-1.963844,-0.10865697,-0.09587380000000001,-0.2609898,-3.72,35.1,26.34
1554109589629,-8.925583999999999,-3.6637269999999997,-1.9782091,-0.32170987,-0.007456851,-0.32490566,-3.36,34.38,26.52
1554109589649,-9.059659,-3.4865562999999993,-1.7675193999999999,-0.43569317,0.082025364,-0.33981937,-3.06,33.78,26.76
1554109589671,-8.973467999999999,-3.6349967000000003,-1.5855601000000001,-0.40053943,0.14487597,-0.31318775,-2.64,33.36,27.0
1554109589689,-9.045294,-3.6828809000000002,-1.3221979,-0.20559604,0.16298546,-0.26844665,-2.52,33.36,27.06
1554109589710,-9.040505,-3.4865562999999993,-1.5041572,0.096939065,0.14168017,-0.19068234,-2.52,33.24,27.12
1554109589731,-9.040505,-3.342904,-1.5328877,0.26525086,0.12463594,-0.11717909,-2.58,33.12,27.18
1554109589749,-9.016563,-3.4674027,-1.2743138,0.34301516,0.10652645,-0.06711166,-2.58,33.06,27.18
1554109589770,-8.987833,-3.4434607,-1.3365631000000002,0.36218992,0.08841695,-0.022370555,-2.7,32.88,27.24
1554109589790,-8.896853,-3.5009214999999996,-1.2886791000000002,0.32277513,0.082025364,0.00958738,-2.82,32.94,27.3
1554109589809,-8.935161,-3.6014779000000003,-1.1354501000000001,0.25246766,0.07882957,0.029827405,-2.94,33.12,27.3
1554109589830,-8.954314,-3.6876693,-1.0779893,0.16831179,0.08841695,0.039414786,-3.0,33.3,27.3
1554109589850,-9.02614,-3.5392287000000002,-1.1976993999999999,0.10865697,0.082025364,0.046871635999999994,-3.12,33.54,27.24
1554109589870,-9.112331,-3.6206315000000004,-0.9247603999999999,0.05752428,0.04580637,0.024501082,-3.18,33.84,27.18
1554109589889,-9.050082000000002,-3.7116113,-0.98222125,0.013848438000000001,0.007456851,0.0010652645,-3.18,34.14,27.18
1554109589909,-9.030928999999999,-3.6014779000000003,-1.0636241000000002,-0.037284255,-0.023435817999999997,-0.0063915867,-3.24,34.38,27.12
1554109589929,-8.959103,-3.6876693,-1.1498153,-0.09161274,-0.05006743,0.0053263223,-3.3,34.68,27.12
1554109589950,-8.844180999999999,-3.5488055,-1.0636241000000002,-0.15659387,-0.07030745599999999,0.011717908999999999,-3.42,34.8,27.12
1554109589970,-8.930372,-3.5009214999999996,-1.3174095,-0.22370553,-0.09161274,0.0053263223,-3.54,34.8,27.18
1554109589989,-9.002198,-3.5104983,-1.4227544,-0.27164245,-0.12250541,0.018109497,-3.66,34.8,27.18
1554109590010,-8.848969,-3.4530375,-1.4371196000000002,-0.29614353,-0.15126756,0.018109497,-3.72,34.74,27.18
1554109590030,-8.954314,-3.4290953,-1.5376761,-0.314253,-0.16618125,0.023435817999999997,-3.78,34.68,27.12
1554109590050,-9.222465,-3.5535938999999996,-1.6813281999999998,-0.33875409999999995,-0.16937704,0.046871635999999994,-3.84,34.5,27.06
1554109590070,-9.193734,-3.5104983,-1.8249803,-0.3291667,-0.18642128,0.06924219,-3.84,34.26,27.06
1554109590091,-9.131485000000001,-3.7594953,-1.9015948,-0.2695119,-0.20133498,0.113983296,-3.84,33.96,27.0
1554109590110,-9.059659,-3.8935703999999998,-1.7531542000000002,-0.2428803,-0.19600865,0.14168017,-3.78,33.72,26.94
1554109590130,-9.045294,-4.013280399999999,-1.8154035,-0.13422333,-0.16085494,0.12676647,-3.66,33.48,26.94
1554109590151,-9.002198,-4.0420110000000005,-1.8680758000000002,-0.012783173500000002,-0.11717909,0.09587380000000001,-3.6,33.24,26.94
1554109590170,-9.050082000000002,-4.0084919999999995,-1.9973627,0.05006743,-0.056459017,0.07882957,-3.3,32.94,27.0
1554109590189,-8.882488,-4.0994720000000004,-1.8872293999999998,0.05752428,-0.002130529,0.041545313,-3.12,32.76,27.06
1554109590210,-8.978256,-4.152144399999999,-2.0165164,0.060720075,0.043675844000000005,0.0063915867,-2.88,32.7,27.18
1554109590230,-8.944737,-3.9270894999999997,-1.6861166,0.05219796,0.05539375,-0.0063915867,-2.7,32.7,27.24
1554109590249,-8.8777,-3.8839936,-1.7866731,0.15446335,0.07776430000000001,-0.05539375,-2.46,32.76,27.3
1554109590271,-8.7771435,-3.7547068999999995,-1.834557,0.25992453,0.07456851,-0.12570119999999999,-2.28,32.76,27.36
1554109590291,-8.825027,-3.4530375,-1.6956933999999997,0.26844665,0.09587380000000001,-0.14807177,-2.16,32.76,27.42
1554109590310,-8.872911,-3.2998084999999997,-1.5855601000000001,0.23755397,0.12676647,-0.13422333,-2.04,32.76,27.42
1554109590331,-8.796297000000001,-3.3045970000000002,-1.513734,0.21624869,0.14487597,-0.1107875,-2.1,32.76,27.36
1554109590351,-8.743625,-3.151368,-1.4754268,0.2066613,0.15552860000000002,-0.080960095,-2.16,32.76,27.36
1554109590370,-8.911219000000001,-3.1753099999999996,-1.3605051000000001,0.21092236,0.165116,-0.03834952,-2.22,32.76,27.3
1554109590389,-9.150639,-3.2854433,-1.3461398999999998,0.24820662,0.15446335,0.0053263223,-2.34,32.82,27.3
1554109590409,-9.275136999999999,-3.328539,-1.4371196000000002,0.30146983,0.12996227,0.04261058,-2.46,32.88,27.24
1554109590430,-9.246407000000001,-3.3189620000000004,-1.3988123,0.33555830000000003,0.098004326,0.06498113,-2.52,33.0,27.24
1554109590451,-9.208099,-3.151368,-1.3796587,0.30786142,0.08628642,0.06711166,-2.58,33.06,27.18
1554109590469,-9.165004,-3.2136172999999997,-1.4514848,0.2428803,0.08522116,0.07776430000000001,-2.64,33.18,27.18
1554109590490,-9.198523,-3.2806550000000003,-1.4371196000000002,0.1470065,0.08948222,0.07563378,-2.7,33.24,27.12
1554109590510,-9.232041,-3.3764230000000004,-1.4036007,0.07456851,0.09374327,0.04474111,-2.82,33.36,27.12
1554109590530,-9.323022,-3.4099417,-1.3605051000000001,0.041545313,0.08735169,0.027696876000000002,-2.94,33.54,27.06
1554109590549,-9.270349000000001,-3.4290953,-1.3748703000000002,0.04261058,0.07030745599999999,0.040480047000000005,-3.0,33.54,27.06
1554109590570,-9.193734,-3.4003648999999996,-1.4945803999999998,0.04580637,0.06391586,0.056459017,-3.12,33.66,27.0
1554109590591,-9.050082000000002,-3.1753099999999996,-1.4993688,0.034088463,0.07776430000000001,0.06391586,-3.36,33.78,27.0
1554109590611,-8.987833,-3.1753099999999996,-1.5951369,0.02130529,0.08735169,0.047936900000000005,-3.48,33.84,27.0
1554109590629,-8.868122999999999,-3.2806550000000003,-1.4083891000000002,0.013848438000000001,0.08628642,0.036218993,-3.54,33.9,27.0
1554109590651,-9.045294,-3.328539,-1.3269863000000002,0.010652645,0.10865697,-0.002130529,-3.66,34.2,27.0
1554109590669,-9.141062,-3.3141737,-1.5999253,0.014913702,0.10333065,-0.022370555,-3.72,34.32,27.0
1554109590690,-9.188946000000001,-3.3237504999999996,-1.5999253,0.029827405,0.07243799,-0.013848438000000001,-3.72,34.56,27.0
1554109590710,-9.059659,-3.5679589999999997,-1.5041572,0.024501082,0.05752428,-0.00958738,-3.78,34.68,26.94
1554109590730,-9.011775,-3.5057099999999997,-1.4466964,0.03195793,0.049002163,-0.0031957934000000003,-3.72,34.8,26.94
1554109590750,-9.002198,-3.5488055,-1.3700819,0.07137272,0.047936900000000005,0.0063915867,-3.72,34.86,26.94
1554109590770,-8.954314,-3.3524809999999996,-1.4323312,0.10652645,0.054328485999999995,-0.0031957934000000003,-3.72,34.86,26.94
1554109590790,-9.040505,-3.3859997,-1.4945803999999998,0.113983296,0.06285059999999999,-0.036218993,-3.66,34.86,26.88
1554109590811,-9.188946000000001,-3.3333273,-1.5233108,0.08522116,0.060720075,-0.07669904,-3.66,34.8,26.88
1554109590830,-9.485827,-3.2040405,-1.4275428,0.04261058,0.046871635999999994,-0.12463594,-3.6,34.74,26.88
1554109590849,-9.361329,-3.2998084999999997,-1.5951369,0.0010652645,0.023435817999999997,-0.12783173,-3.6,34.74,26.88
1554109590870,-9.289502,-3.2998084999999997,-1.3461398999999998,-0.026631612000000002,-0.0031957934000000003,-0.08948222,-3.54,34.68,26.88
1554109590890,-9.299078999999999,-3.2998084999999997,-1.4610616,-0.07456851,-0.027696876000000002,-0.11611383,-3.54,34.68,26.88
1554109590910,-9.337387,-3.2231941,-1.441908,-0.10546118,-0.039414786,-0.13848437,-3.54,34.68,26.82
1554109590929,-9.385271000000001,-3.3237504999999996,-1.3605051000000001,-0.128897,-0.04580637,-0.15339808,-3.54,34.68,26.82
1554109590949,-9.299078999999999,-3.4195184999999997,-1.3174095,-0.11717909,-0.060720075,-0.16618125,-3.54,34.74,26.82
1554109590970,-9.136273,-3.3764230000000004,-1.2791021999999999,-0.09374327,-0.07669904,-0.18109496,-3.54,34.74,26.82
1554109590990,-9.102755,-3.4051532999999994,-1.1976993999999999,-0.08948222,-0.101200126,-0.19387813,-3.6,34.74,26.82
1554109591010,-9.045294,-3.481768,-1.2503718000000001,-0.12144015,-0.12463594,-0.20240025,-3.6,34.74,26.82
1554109591030,-9.059659,-3.4434607,-1.2455834,-0.16831179,-0.1438107,-0.2034655,-3.66,34.74,26.76
1554109591050,-9.069236,-3.5679589999999997,-1.3796587,-0.20985709,-0.16192019,-0.19068234,-3.72,34.8,26.82
1554109591070,-8.892064999999999,-3.6589386,-1.4945803999999998,-0.25672874,-0.17257284,-0.16192019,-3.72,34.8,26.82
1554109591089,-8.872911,-3.7834373,-1.441908,-0.28655612,-0.18961707,-0.12996227,-3.78,34.8,26.88
1554109591110,-8.901641999999999,-3.7307648999999996,-1.3557166999999999,-0.3174488,-0.21092236,-0.13102753,-3.78,34.74,26.88
1554109591130,-8.949525999999999,-3.7020345,-1.5568296999999998,-0.34194988,-0.23116238,-0.13741912,-3.84,34.74,26.88
1554109591150,-8.925583999999999,-3.7116113,-1.6430208999999998,-0.3568636,-0.24820662,-0.15020229,-3.84,34.74,26.88
1554109591172,-8.8777,-3.7211879999999997,-1.7866731,-0.38029942,-0.24820662,-0.17044231,-3.78,34.68,26.88
1554109591189,-8.863335000000001,-3.6445735,-1.714847,-0.39414784,-0.23648871,-0.1587244,-3.78,34.68,26.88
1554109591209,-8.858546,-3.7594953,-1.6238673000000001,-0.41758367,-0.20985709,-0.13528858,-3.66,34.56,26.88
1554109591230,-8.963891,-3.8073792,-1.6334441000000002,-0.41971418,-0.19068234,-0.13102753,-3.6,34.44,26.88
1554109591249,-8.925583999999999,-3.8839936,-1.8106151000000001,-0.41119209999999995,-0.19281286,-0.13954964,-3.48,34.26,26.82
1554109591270,-8.911219000000001,-3.888782,-1.9207484000000001,-0.37284255,-0.19707392,-0.15020229,-3.42,33.9,26.82
1554109591289,-9.002198,-3.8983587999999996,-1.8297686999999998,-0.35153726,-0.18748654,-0.16192019,-3.36,33.72,26.88
1554109591309,-8.887277000000001,-3.9989154,-1.8632874,-0.31212249999999997,-0.16618125,-0.16724652,-3.3,33.48,26.88
1554109591330,-8.853758000000001,-4.0563765,-1.7675193999999999,-0.25992453,-0.14807177,-0.17044231,-3.24,33.18,26.94
1554109591350,-8.772355000000001,-4.013280399999999,-1.8297686999999998,-0.19920446,-0.12570119999999999,-0.18216023,-3.18,32.88,26.94
1554109591371,-8.858546,-3.9989154,-1.762731,-0.12463594,-0.10226539,-0.17363810000000002,-3.12,32.46,27.06
1554109591389,-8.829816000000001,-4.109049,-1.6286557,-0.02876214,-0.080960095,-0.14487597,-3.06,31.92,27.24
1554109591410,-8.815451,-3.9893386,-1.8249803,0.014913702,-0.07456851,-0.13848437,-3.0,31.74,27.3
1554109591430,-8.724471000000001,-3.9989154,-1.5999253,0.051132694000000006,-0.068176925,-0.112918034,-2.94,31.5,27.42
1554109591450,-8.695741,-3.8504747999999998,-1.4706384,0.054328485999999995,-0.058589544,-0.09267801,-2.88,31.2,27.6
1554109591470,-8.767567,-3.9270894999999997,-1.5568296999999998,0.04474111,-0.047936900000000005,-0.07882957,-2.82,31.02,27.72
1554109591489,-8.853758000000001,-3.912724,-1.5376761,0.037284255,-0.047936900000000005,-0.06498113,-2.82,30.84,27.78
1554109591510,-8.791509,-3.8265328000000003,-1.489792,0.023435817999999997,-0.051132694000000006,-0.051132694000000006,-2.82,30.84,27.84
1554109591531,-8.767567,-3.8600516000000002,-1.4754268,0.015978966,-0.054328485999999995,-0.06178534,-2.76,30.9,27.9
1554109591550,-8.839393,-3.9653966,-1.5089456,-0.0053263223,-0.058589544,-0.07456851,-2.76,30.96,27.9
1554109591570,-8.901641999999999,-3.9606082000000002,-1.2934675,-0.02876214,-0.056459017,-0.058589544,-2.7,31.02,27.96
1554109591591,-8.825027,-3.970185,-1.5472529,-0.023435817999999997,-0.05006743,-0.036218993,-2.64,31.08,27.9
1554109591609,-8.839393,-4.018069000000001,-1.3317747,-0.007456851,-0.03834952,-0.036218993,-2.64,31.14,27.9
1554109591630,-8.805874000000001,-3.9031472000000003,-1.489792,0.00958738,-0.037284255,-0.035153727999999995,-2.58,31.14,27.84
1554109591650,-8.8777,-3.8696284,-1.5424645000000001,0.014913702,-0.035153727999999995,-0.03834952,-2.52,31.2,27.78
1554109591670,-8.858546,-3.9318779000000004,-1.5616181,0.024501082,-0.029827405,-0.034088463,-2.52,31.2,27.72
1554109591690,-8.959103,-3.946243,-1.5616181,0.060720075,-0.015978966,-0.022370555,-2.52,31.2,27.66
1554109591710,-8.863335000000001,-3.9223008000000004,-1.417966,0.11717909,-0.00958738,-0.015978966,-2.58,31.2,27.6
1554109591730,-8.887277000000001,-3.9414546,-1.5233108,0.16298546,-0.004261058,-0.01917476,-2.64,31.2,27.54
1554109591750,-8.868122999999999,-3.8504747999999998,-1.3700819,0.18322548,0.008522116,-0.018109497,-2.64,31.26,27.54
1554109591770,-8.834603999999999,-3.9079356,-1.5472529,0.20026971,0.035153727999999995,0.0,-2.64,31.26,27.54
1554109591790,-8.853758000000001,-3.946243,-1.3365631000000002,0.22583607,0.041545313,0.004261058,-2.64,31.26,27.54
1554109591810,-8.901641999999999,-3.86484,-1.2503718000000001,0.25246766,0.04261058,0.0031957934000000003,-2.64,31.26,27.54
1554109591830,-8.8777,-3.8983587999999996,-1.2551602,0.25992453,0.043675844000000005,0.010652645,-2.64,31.26,27.54
1554109591850,-8.848969,-3.8073792,-1.3078326999999998,0.2545982,0.053263225,0.029827405,-2.52,31.32,27.54
1554109591871,-8.863335000000001,-3.8121676,-1.3892354999999998,0.24607609,0.05219796,0.027696876000000002,-2.4,31.44,27.48
1554109591889,-8.930372,-3.793014,-1.192911,0.21944448,0.053263225,0.03195793,-2.34,31.56,27.48
1554109591910,-8.920795,-3.9270894999999997,-1.1737574,0.19174760000000002,0.047936900000000005,0.02130529,-2.28,31.68,27.42
1554109591929,-8.925583999999999,-3.9175123999999997,-1.3844471,0.16085494,0.037284255,0.02130529,-2.28,31.86,27.36
1554109591949,-8.872911,-3.9414546,-1.2455834,0.13528858,0.041545313,0.015978966,-2.4,31.98,27.3
1554109591969,-8.810661999999999,-3.9749733999999997,-1.3030443,0.12144015,0.034088463,0.011717908999999999,-2.46,32.1,27.24
1554109591989,-8.868122999999999,-3.9558197999999996,-1.2551602,0.10759171,0.035153727999999995,0.0,-2.58,32.22,27.18
1554109592010,-8.8777,-3.9414546,-1.3461398999999998,0.10439592,0.037284255,0.0031957934000000003,-2.64,32.34,27.12
1554109592029,-8.868122999999999,-3.9989154,-1.3557166999999999,0.101200126,0.043675844000000005,0.011717908999999999,-2.76,32.4,27.12
1554109592049,-8.868122999999999,-3.9175123999999997,-1.3844471,0.112918034,0.053263225,0.020240024,-2.82,32.4,27.06
1554109592069,-8.829816000000001,-3.9223008000000004,-1.0827777,0.13954964,0.04474111,0.023435817999999997,-2.88,32.4,27.0
1554109592089,-8.887277000000001,-3.8839936,-1.2216414,0.16724652,0.054328485999999995,0.023435817999999997,-2.88,32.34,27.0
1554109592109,-8.868122999999999,-3.7547068999999995,-1.3030443,0.18429075,0.046871635999999994,0.004261058,-2.82,32.34,26.94
1554109592130,-8.8777,-3.7547068999999995,-1.3174095,0.19068234,0.041545313,-0.008522116,-2.82,32.34,26.88
1554109592149,-8.930372,-3.8265328000000003,-1.2264298,0.18109496,0.046871635999999994,-0.00958738,-2.82,32.34,26.88
1554109592170,-8.968679,-3.7499184999999997,-1.192911,0.16831179,0.05006743,-0.018109497,-2.82,32.34,26.82
1554109592189,-8.954314,-3.6445735,-1.1881226,0.15765914,0.039414786,-0.02876214,-2.76,32.46,26.76
1554109592209,-8.944737,-3.7403417,-0.9487024,0.14594123,0.026631612000000002,-0.043675844000000005,-2.76,32.52,26.7
1554109592230,-8.911219000000001,-3.7307648999999996,-1.0923545000000001,0.11717909,0.0031957934000000003,-0.05965481,-2.76,32.7,26.58
1554109592249,-8.920795,-3.639785,-0.9151836,0.07882957,0.002130529,-0.06178534,-2.76,32.88,26.52
1554109592270,-8.939949,-3.6349967000000003,-1.0684125,0.06391586,0.007456851,-0.04261058,-2.7,33.06,26.46
1554109592289,-9.02614,-3.6302083,-1.073201,0.056459017,0.013848438000000001,-0.029827405,-2.7,33.18,26.4
1554109592311,-9.150639,-3.6733038000000002,-0.88166475,0.07030745599999999,0.010652645,-0.017044231,-2.7,33.48,26.34
1554109592329,-9.289502,-3.5727474999999997,-0.97743285,0.07882957,0.0053263223,-0.017044231,-2.64,33.6,26.34
1554109592350,-9.169792,-3.5392287000000002,-0.9199719999999999,0.09587380000000001,-0.0053263223,-0.011717908999999999,-2.64,33.9,26.28
1554109592371,-9.160214999999999,-3.6589386,-0.9487024,0.09161274,-0.004261058,-0.022370555,-2.7,34.14,26.34
1554109592389,-9.198523,-3.5631707,-0.86729956,0.07350325,-0.0010652645,-0.023435817999999997,-2.7,34.38,26.4
1554109592410,-9.136273,-3.6349967000000003,-0.8050503000000001,0.043675844000000005,-0.00958738,-0.01917476,-2.7,34.68,26.4
1554109592430,-9.203311,-3.6685154000000004,-0.7954735,0.0063915867,-0.020240024,-0.025566347000000003,-2.7,34.92,26.46
1554109592449,-9.303867,-3.7211879999999997,-0.9151836,-0.02876214,-0.035153727999999995,-0.043675844000000005,-2.76,35.04,26.46
1554109592469,-9.165004,-3.6780925000000004,-0.99179804,-0.10759171,-0.06604639400000001,-0.05965481,-2.76,35.28,26.46
1554109592489,-9.006986999999999,-3.7403417,-0.98222125,-0.16831179,-0.08522116,-0.05219796,-2.76,35.46,26.46
1554109592510,-8.920795,-3.6349967000000003,-0.96306765,-0.21092236,-0.09374327,-0.06285059999999999,-2.7,35.58,26.46
1554109592530,-8.853758000000001,-3.6828809000000002,-1.0923545000000001,-0.22264028,-0.08628642,-0.07030745599999999,-2.7,35.64,26.46
1554109592550,-8.738836000000001,-3.5823242999999994,-1.0875661,-0.21624869,-0.068176925,-0.06391586,-2.64,35.58,26.46
1554109592570,-8.7532015,-3.6637269999999997,-1.0444705,-0.18855181,-0.05752428,-0.035153727999999995,-2.64,35.46,26.46
1554109592590,-8.7053175,-3.74513,-1.1881226,-0.18109496,-0.058589544,-0.025566347000000003,-2.52,35.34,26.52
1554109592610,-8.7532015,-3.6637269999999997,-1.4371196000000002,-0.1768339,-0.06178534,-0.033023197000000004,-2.46,35.16,26.52
1554109592631,-8.858546,-3.7355532999999994,-1.3174095,-0.2066613,-0.07137272,-0.03089267,-2.4,35.04,26.52
1554109592650,-8.882488,-3.7738605000000005,-1.3892354999999998,-0.24181503,-0.07669904,-0.024501082,-2.34,34.92,26.58
1554109592669,-9.14585,-3.970185,-1.4275428,-0.28975195,-0.06604639400000001,0.011717908999999999,-2.28,34.74,26.58
1554109592690,-9.428367,-4.200028400000001,-1.417966,-0.28229508,-0.05752428,0.03834952,-2.22,34.62,26.58
1554109592710,-9.327810000000001,-4.2957964,-1.2791021999999999,-0.20879184,-0.056459017,0.012783173500000002,-2.16,34.56,26.64
1554109592730,-9.217675999999999,-4.0994720000000004,-1.4036007,-0.1438107,-0.056459017,-0.05965481,-2.1,34.56,26.64
1554109592750,-9.097966,-4.1138372,-1.513734,-0.10439592,-0.04261058,-0.12996227,-2.1,34.5,26.64
1554109592771,-9.054871,-3.970185,-1.4850036,-0.05752428,-0.002130529,-0.17896444,-2.1,34.32,26.64
1554109592790,-8.8777,-3.7307648999999996,-1.3605051000000001,0.035153727999999995,0.02130529,-0.19707392,-2.04,34.14,26.64
1554109592810,-8.719683,-3.7307648999999996,-1.4036007,0.098004326,0.034088463,-0.15978967,-2.1,33.9,26.64
1554109592829,-8.504205,-3.481768,-1.2838906,0.13315806,0.040480047000000005,-0.11611383,-2.1,33.66,26.7
1554109592850,-8.269572,-3.3716345000000003,-1.3892354999999998,0.15765914,0.047936900000000005,-0.09374327,-2.1,33.42,26.76
1554109592870,-8.125919999999999,-3.2902317,-1.3509283,0.16085494,0.060720075,-0.07669904,-2.1,33.3,26.82
1554109592890,-8.336611,-3.5392287000000002,-1.2695253999999998,0.1438107,0.07776430000000001,-0.051132694000000006,-2.1,33.24,26.94
1554109592910,-8.695741,-3.6445735,-1.1450268999999997,0.09587380000000001,0.099069595,0.043675844000000005,-2.1,33.24,27.0
1554109592929,-8.959103,-3.8839936,-1.2695253999999998,0.041545313,0.09374327,0.17257284,-2.1,33.3,27.06
1554109592949,-9.303867,-4.324527,-1.039682,0.012783173500000002,0.060720075,0.24074976,-2.16,33.48,27.06
1554109592969,-9.327810000000001,-4.573524,-1.0971429,0.037284255,-0.002130529,0.29507825,-2.22,33.66,27.06
1554109592989,-9.380483,-4.540005000000001,-1.4802152,0.035153727999999995,-0.05965481,0.23329292,-2.22,33.78,26.94
1554109593010,-9.332599,-4.439448400000001,-1.7340006000000001,-0.02130529,-0.07669904,0.07243799,-2.28,33.96,26.82
1554109593029,-9.294291000000001,-4.463390400000001,-1.7866731,-0.13422333,-0.060720075,-0.07989483,-2.28,33.96,26.76
1554109593049,-9.3182335,-4.3724110000000005,-1.2886791000000002,-0.23542345,-0.007456851,-0.18961707,-2.34,33.9,26.64
1554109593069,-9.313444,-4.3101616,-1.3317747,-0.10972224,0.05006743,-0.29294774,-2.34,33.9,26.58
1554109593090,-9.275136999999999,-3.9414546,-1.5520413,0.07137272,0.07669904,-0.33129725,-2.4,33.84,26.58
1554109593110,-9.11712,-3.7020345,-1.3605051000000001,0.13102753,0.08948222,-0.28975195,-2.4,33.78,26.58
1554109593130,-8.954314,-3.4530375,-1.2982559,0.058589544,0.09161274,-0.25033715,-2.46,33.72,26.58
1554109593151,-8.829816000000001,-3.3859997,-1.2551602,-0.07137272,0.09161274,-0.26631612,-2.46,33.66,26.7
1554109593169,-8.734048,-3.4434607,-0.7188591,-0.21092236,0.094808534,-0.2908172,-2.52,33.6,26.76
1554109593190,-8.7053175,-3.639785,-0.623091,-0.20772657,0.08628642,-0.23648871,-2.58,33.6,26.88
1554109593209,-8.542512,-3.7259765,-0.6326678000000001,-0.17363810000000002,0.07669904,-0.1949434,-2.58,33.6,26.88
1554109593230,-8.743625,-3.6589386,-0.9151836,-0.07456851,0.034088463,-0.10013486,-2.7,33.6,26.94
1554109593251,-8.743625,-3.6445735,-1.2216414,-0.10865697,-0.013848438000000001,-0.035153727999999995,-2.76,33.54,26.94
1554109593270,-8.820239,-3.840898,-1.3605051000000001,-0.22690132,-0.023435817999999997,-0.00958738,-2.88,33.54,26.94
1554109593290,-8.992621,-4.2718544000000005,-1.4466964,-0.30253512,-0.0053263223,-0.034088463,-3.0,33.48,27.0
1554109593311,-9.006986999999999,-4.7506948,-1.5568296999999998,-0.28016454,0.033023197000000004,-0.09161274,-3.12,33.48,27.0
1554109593330,-8.983044999999999,-5.1768627,-1.882441,-0.11717909,0.058589544,-0.165116,-3.24,33.42,27.06
1554109593349,-8.700529,-5.8903346,-2.3948002,0.10546118,0.101200126,-0.34834146,-3.3,33.42,27.06
1554109593370,-8.7771435,-5.943007,-2.878429,0.11504856,0.19281286,-0.7222493000000001,-3.42,33.36,27.12
1554109593389,-8.930372,-5.976526,-3.007716,-0.15126756,0.32277513,-0.9800433000000001,-3.48,33.24,27.12
1554109593410,-8.556877,-6.6612678,-2.8401217,-0.40053943,0.46552056,-1.0290455,-3.6,33.18,27.24
1554109593430,-8.461109,-7.2262993,-2.629432,-0.47723848,0.5816344,-1.1568771999999998,-3.66,33.18,27.3
1554109593450,-8.590396,-7.6764092,-2.8496985,-0.2609898,0.6625945,-1.3198626,-3.84,33.12,27.36
1554109593469,-8.480263,-7.882310400000001,-2.9167361,0.21837921,0.74461985,-1.4466291999999998,-4.32,33.06,27.48
1554109593490,-8.470686,-7.872733599999999,-3.1465794999999996,0.54435015,0.79894835,-1.5137408,-4.98,33.06,27.6
1554109593510,-8.1881695,-7.834426400000001,-3.4338839999999995,1.0482203,0.8990832000000001,-1.6980315,-5.82,33.12,27.78
1554109593530,-8.1881695,-7.6907744000000005,-3.4243068999999995,1.2911005,0.9917611999999999,-1.8461033,-6.66,33.24,27.9
1554109593550,-8.087613000000001,-7.671621000000001,-4.0467997,1.3177321000000002,1.0801781000000001,-1.9622171000000002,-7.62,33.72,28.02
1554109593570,-8.087613000000001,-7.896675599999999,-3.9414546,1.1611383,1.1472898999999999,-2.102832,-9.18,34.68,28.14
1554109593589,-7.876923599999999,-8.227076,-4.109049,1.0205233,1.1792477,-2.1976407000000004,-9.78,35.1,28.2
1554109593610,-7.9104424,-8.658031,-3.9079356,0.850081,1.2218584,-2.3148196,-11.1,35.94,28.2
1554109593629,-7.7189064,-9.098564999999999,-3.6014779000000003,0.753142,1.2634037,-2.4181504,-12.6,36.9,28.08
1554109593650,-7.383717999999999,-9.668385,-3.3955764999999998,0.8202536,1.3124058,-2.4884577,-14.22,37.8,27.84
1554109593669,-7.0245875999999985,-10.247782,-3.3237504999999996,0.9619338,1.3411678999999999,-2.5459821,-15.78,38.7,27.54
1554109593690,-6.95755,-10.333973,-3.1226375,0.9619338,1.3411678999999999,-2.5459821,-15.78,38.7,27.54
1554109593709,-6.100425700000001,-10.587758000000001,-3.0651767000000003,1.2804478000000001,1.3688648,-2.824016,-19.62,40.02,26.58
1554109593730,-5.602432,-10.487202,-2.5576060000000003,1.2729911,1.3550163999999998,-2.8985846,-21.84,40.32,25.86
1554109593750,-4.984728,-10.4728365,-2.203264,1.3113406,1.3028183999999998,-2.9593046000000003,-24.06,40.5,24.9
1554109593769,-4.3287168,-10.362703,-2.2559366,1.3432984,1.2495551999999999,-3.045591,-26.34,40.38,23.82
1554109593790,-3.6679169999999996,-10.209475,-2.1601684,1.2357068000000002,1.1813782,-3.154248,-29.58,39.84,22.14
1554109593810,-3.265691,-10.008362,-2.4139538,0.99495703,1.1451592,-3.2170987,-31.74,39.06,20.82
1554109593830,-2.9496564999999997,-10.065823,-2.0165164,0.7094661,1.0801781000000001,-3.2479913,-33.9,38.22,19.5
1554109593850,-2.5905263,-10.113707000000002,-1.5520413,0.49747851,0.9853696,-3.255448,-36.12,37.02,18.06
1554109593869,-1.9105729999999999,-9.539098,-0.7954735,0.5699165,0.8447546999999999,-3.218164,-38.34,35.58,16.5
1554109593889,-0.90979666,-9.194333,-0.6326678000000001,0.9214538000000001,0.68389976,-3.1276164,-40.5,33.72,15.06
1554109593909,0.21547815,-8.567052,-0.5895722,1.1249193000000002,0.61572284,-3.069027,-42.42,31.44,13.86
1554109593930,1.0630256,-8.102577,-0.670975,1.0652645,0.5933523,-3.0232205000000003,-44.16,28.98,12.6
1554109593949,1.4269443000000002,-7.178415299999999,-0.16819267,0.8362325999999999,0.58269966,-2.9635658,-45.72,26.46,11.58
1554109593969,1.8579005000000002,-6.9150529999999995,-0.14425065,0.74461985,0.5390238,-2.8304076,-47.28,23.88,10.62
1554109593989,2.336741,-6.9246297000000006,0.25797522,0.66365975,0.535828,-2.6684875,-48.78,21.18,9.54
1554109594009,2.7820622999999998,-7.020397999999999,0.6171055000000001,0.5411543000000001,0.4708469,-2.5513084,-50.04,18.42,8.52
1554109594030,3.3327288999999998,-6.6947865,0.97144735,0.38562572,0.39414784,-2.4937842,-51.06,15.6,7.68
1554109594049,3.7780502,-6.0866594,1.3018471999999999,0.25353295,0.28975195,-2.4149543999999996,-51.96,13.02,6.84
1554109594071,4.5202527,-6.306926,1.2348095,0.21518342,0.2790993,-2.2839270000000003,-52.74,10.5,6.0
1554109594090,5.080496,-6.2351,1.0145429,0.12463594,0.2727077,-2.1486384999999997,-53.52,7.98,5.16
1554109594110,5.329493,-6.239888,1.1821371,0.096939065,0.32810146,-2.038916,-54.12,5.34,4.38
1554109594129,5.750872599999999,-5.852027400000001,1.0480618,0.11504856,0.27803403,-1.9451729,-54.6,3.0,3.6
1554109594150,6.2057709999999995,-5.842450599999999,1.062427,0.10865697,0.27590349999999997,-1.8588865,-54.96,0.6,2.94
1554109594170,6.493075,-6.005256,1.1246762,-0.04261058,0.27377295,-1.8269285,-55.26,-1.8,2.28
1554109594190,6.6367273,-5.895123,1.3018471999999999,-0.15659387,0.2428803,-1.8098843,-55.56,-4.14,1.74
1554109594210,7.053317999999999,-5.909488,1.134253,-0.16085494,0.23968449999999997,-1.7704695,-55.8,-6.54,1.26
1554109594229,7.120356,-5.33488,1.0815806000000001,-0.128897,0.24074976,-1.7204021,-56.04,-8.76,0.84
1554109594249,7.441178999999999,-4.6022544000000005,1.2826935,-0.07989483,0.22583607,-1.6341157,-56.22,-10.86,0.48
1554109594270,7.699753,-4.022857,1.3976152,-0.07350325,0.20772657,-1.5659386999999998,-56.34,-12.84,0.12
1554109594291,7.9008656,-3.615843,1.584363,0.0,0.20559604,-1.510545,-56.46,-14.88,-0.18
1554109594310,7.905653999999999,-3.615843,1.7806876,0.19707392,0.22264028,-1.4583471000000001,-56.46,-16.86,-0.42
1554109594330,7.9583262999999995,-3.5009214999999996,1.9387047999999998,0.39521313,0.2130529,-1.4263891000000002,-56.46,-18.72,-0.6
1554109594349,7.9104424,-3.5966894999999997,2.0440497,0.73822826,0.14274544,-1.3795174,-56.4,-20.52,-0.84
1554109594369,8.010999,-3.3381157,2.345719,0.9715212,0.083090626,-1.3049488999999999,-56.28,-22.14,-1.08
1554109594389,7.929596000000001,-2.9550436,2.3409307,1.1494204,0.04261058,-1.220793,-56.1,-23.7,-1.32
1554109594409,8.269572,-2.7204118,2.2691047,1.4732608,-0.043675844000000005,-1.055677,-55.86,-25.02,-1.56
1554109594429,8.384495,-2.902371,2.168548,1.6799221000000002,-0.098004326,-0.9534117,-55.56,-26.34,-1.8
1554109594449,8.628703,-2.9454667999999997,2.2882583,1.7672738000000001,-0.13848437,-0.9108011,-55.26,-27.54,-1.92
1554109594470,8.805874000000001,-2.6007016,2.1637597,1.7054884,-0.16937704,-0.8926915999999999,-54.96,-28.56,-1.98
1554109594490,8.820239,-1.9590555,2.0775685,1.5094798,-0.17470337,-0.8479504999999999,-54.66,-29.46,-1.86
1554109594510,8.892064999999999,-1.3988123,2.1254525,1.2580773,-0.17576863,-0.7680557,-54.3,-30.06,-1.68
1554109594529,9.078813,-1.0588357,1.9722236000000002,1.0120013,-0.1587244,-0.69135666,-54.0,-30.66,-1.44
1554109594549,9.303867,-0.7428011,1.7950528000000001,0.7755125,-0.15552860000000002,-0.64341974,-53.76,-31.14,-1.08
1554109594570,9.054871,-0.57041854,1.929128,0.51771855,-0.13635385,-0.6103965,-53.58,-31.56,-0.78
1554109594590,9.054871,-0.55605334,2.0919337,0.26738137,-0.15765914,-0.57098174,-53.46,-31.86,-0.36
1554109594610,9.23683,-0.57041854,2.1206641,0.05965481,-0.18961707,-0.51665324,-53.34,-32.1,0.06
1554109594630,9.064447,-0.5943606,2.202067,-0.05539375,-0.18748654,-0.44421527,-53.22,-32.34,0.42
1554109594650,9.141062,-0.8194155000000001,2.144606,-0.05006743,-0.1949434,-0.36751625,-53.04,-32.64,0.72
1554109594669,9.361329,-0.7715314999999999,2.1493945,0.03089267,-0.18961707,-0.30253512,-52.8,-32.88,1.02
1554109594691,9.313444,-1.0157399999999999,1.9195513,0.13422333,-0.16618125,-0.23648871,-52.62,-33.18,1.26
1554109594710,9.404425,-1.1354501000000001,1.8046296000000002,0.22477080000000002,-0.16831179,-0.17896444,-52.26,-33.6,1.56
1554109594730,9.624691,-1.1498153,1.6849195,0.2545982,-0.16618125,-0.16298546,-52.2,-33.9,1.74
1554109594750,9.576807,-1.1067197,1.809418,0.2428803,-0.16724652,-0.17044231,-51.84,-34.14,1.86
1554109594769,9.624691,-1.2743138,1.8429368000000002,0.22583607,-0.16724652,-0.1768339,-51.78,-34.26,1.92
1554109594790,9.749189,-1.2503718000000001,1.5604209999999998,0.16298546,-0.15446335,-0.18961707,-51.54,-34.38,2.04
1554109594810,9.816227,-1.3078326999999998,1.4119805,0.043675844000000005,-0.13102753,-0.22690132,-51.24,-34.62,2.46
1554109594830,9.763555,-1.1115081,1.3162124,-0.053263225,-0.12250541,-0.25353295,-51.12,-34.74,2.76
1554109594850,9.706094,-1.2120646000000002,1.584363,-0.022370555,-0.10652645,-0.24394555,-51.0,-34.86,2.94
1554109594871,9.682152,-0.9343372,1.6514006,0.10333065,-0.08948222,-0.22583607,-50.94,-34.98,3.18
1554109594890,9.562441999999999,-0.8098387,1.6370354,0.23542345,-0.08522116,-0.21624869,-50.82,-35.04,3.36
1554109594910,9.385271000000001,-0.75716627,1.7423803,0.33662358,-0.07776430000000001,-0.2066613,-50.76,-35.1,3.54
1554109594931,9.504980999999999,-0.7667431,1.5029601000000001,0.39947417,-0.07350325,-0.18109496,-50.7,-35.16,3.66
1554109594950,9.409213000000001,-0.57999533,1.4838065,0.38562572,-0.07350325,-0.18002969,-50.64,-35.22,3.72
1554109594970,9.619903,-0.4890157,1.3784616000000003,0.31957933,-0.06178534,-0.18429075,-50.64,-35.28,3.84
1554109594990,9.524135000000001,-0.43155485,1.4981716999999999,0.18109496,-0.06285059999999999,-0.18642128,-50.64,-35.34,4.02
1554109595010,9.471461999999999,-0.5895722,1.5604209999999998,-0.007456851,-0.07030745599999999,-0.18429075,-50.64,-35.34,4.2
1554109595030,9.428367,-0.54168814,1.881244,-0.13102753,-0.083090626,-0.14913702,-50.58,-35.4,4.38
1554109595049,9.557653,-0.54168814,1.7184383,-0.04261058,-0.07563378,-0.07456851,-50.58,-35.4,4.56
1554109595069,9.653421,-0.54647654,1.5316905,0.09374327,-0.06391586,-0.06711166,-50.52,-35.46,4.74
1554109595089,9.701305,-0.5033809,1.6130934,0.084155895,-0.041545313,-0.094808534,-50.52,-35.52,4.92
1554109595109,9.662998,-0.64703304,1.6514006,0.03195793,-0.035153727999999995,-0.09161274,-50.52,-35.58,5.04
1554109595129,9.5385,-0.694917,1.7375918999999997,0.020240024,-0.03195793,-0.098004326,-50.4,-35.7,5.1
1554109595150,9.639056,-0.96785605,1.7471686999999998,0.040480047000000005,-0.051132694000000006,-0.12463594,-50.34,-35.94,5.1
1554109595169,9.605537,-0.7906850999999999,1.6514006,0.07456851,-0.05219796,-0.14807177,-50.28,-36.18,5.04
1554109595190,9.572019000000001,-0.6183026,1.5891514,0.13741912,-0.04261058,-0.13954964,-50.22,-36.42,4.98
1554109595210,9.514558000000001,-0.3788824,1.407192,0.2130529,-0.033023197000000004,-0.112918034,-50.16,-36.6,4.92
1554109595229,9.591172,-0.374094,1.407192,0.25992453,-0.01917476,-0.111852765,-50.1,-36.84,4.86
1554109595250,9.600749,-0.25917232,1.2443863000000002,0.26738137,-0.013848438000000001,-0.10439592,-50.1,-37.02,4.8
1554109595269,9.509769,-0.12988544,1.359308,0.23222765,-0.0063915867,-0.07776430000000001,-50.04,-37.2,4.74
1554109595290,9.514558000000001,-0.24480712,1.4359225,0.16618125,0.010652645,-0.03834952,-49.98,-37.26,4.74
1554109595310,9.495403999999999,-0.24959552,1.3976152,0.06711166,0.0063915867,-0.012783173500000002,-49.98,-37.14,4.74
1554109595330,9.595961,-0.24959552,1.3305776000000002,0.0053263223,0.007456851,0.014913702,-49.92,-37.02,4.86
1554109595350,9.595961,-0.30705637,1.4646529,-0.015978966,0.002130529,0.03195793,-49.86,-36.78,4.98
1554109595370,9.619903,-0.7092823,1.6801311,-0.025566347000000003,-0.004261058,0.023435817999999997,-49.8,-36.54,5.16
1554109595390,9.792285000000001,-0.8146270999999999,1.7136499,-0.043675844000000005,-0.024501082,-0.0010652645,-49.74,-36.3,5.28
1554109595409,9.773131,-0.8050503000000001,1.5795746000000002,-0.05219796,-0.041545313,-0.027696876000000002,-49.68,-36.06,5.46
1554109595430,9.639056,-0.75237787,1.5173253,-0.017044231,-0.040480047000000005,-0.04261058,-49.62,-35.82,5.58
1554109595449,9.533711,-0.57041854,1.3545196000000002,0.07456851,-0.034088463,-0.049002163,-49.62,-35.64,5.7
1554109595470,9.787497,-0.45070848,1.4407108999999998,0.16298546,-0.04261058,-0.05752428,-49.56,-35.52,5.76
1554109595489,9.533711,-0.3357868,1.4646529,0.20240025,0.004261058,-0.05219796,-49.56,-35.46,5.76
1554109595510,9.5385,-0.3597288,1.5747862,0.17363810000000002,0.0031957934000000003,-0.04261058,-49.56,-35.46,5.76
1554109595531,9.648633,-0.31663316,1.5412674,0.07030745599999999,0.0,-0.039414786,-49.62,-35.28,5.7
1554109595550,9.701305,-0.13946225,1.3736732,-0.0010652645,-0.0010652645,-0.035153727999999995,-49.62,-35.28,5.7
1554109595569,9.80665,-0.3405752,1.4790181,-0.09587380000000001,-0.0010652645,-0.03834952,-49.62,-35.22,5.7
1554109595590,9.744401,-0.39803603,1.5556326,-0.1470065,-0.0063915867,-0.041545313,-49.62,-35.16,5.7
1554109595609,9.787497,-0.4794389,1.5939398,-0.14274544,-0.022370555,-0.056459017,-49.68,-35.1,5.7
1554109595631,9.572019000000001,-0.26396075,1.7902644,-0.034088463,-0.017044231,-0.07243799,-49.68,-35.04,5.7
1554109595650,9.595961,-0.32142156,1.6226702,0.04580637,-0.024501082,-0.07030745599999999,-49.68,-35.04,5.7
1554109595669,9.624691,-0.26396075,1.311424,0.08628642,-0.014913702,-0.08735169,-49.68,-35.1,5.7
1554109595690,9.648633,-0.13946225,1.4215573000000001,0.07669904,-0.014913702,-0.08841695,-49.74,-35.34,5.7
1554109595711,9.509769,-0.0005985504,1.4502877,0.035153727999999995,0.004261058,-0.056459017,-49.74,-35.58,5.7
1554109595730,9.595961,-0.14425065,1.2635399,-0.017044231,0.0031957934000000003,-0.03834952,-49.74,-35.7,5.7
1554109595749,9.605537,-0.21128829999999998,1.4407108999999998,-0.07030745599999999,0.0010652645,-0.051132694000000006,-49.8,-35.88,5.7
1554109595770,9.849746000000001,-0.46507367,1.5652093999999999,-0.07989483,-0.00958738,-0.046871635999999994,-49.8,-36.0,5.7
1554109595790,9.792285000000001,-0.4985925,1.6226702,-0.084155895,-0.002130529,-0.04261058,-49.86,-36.12,5.7
1554109595811,9.739613,-0.4794389,1.6897078999999997,-0.07243799,-0.013848438000000001,-0.03834952,-49.92,-36.18,5.7
1554109595829,9.639056,-0.4938041,1.8429368000000002,-0.05965481,-0.02876214,-0.041545313,-49.92,-36.18,5.7
1554109595851,9.557653,-0.45070848,1.7471686999999998,-0.013848438000000001,-0.029827405,-0.047936900000000005,-49.98,-36.18,5.64
1554109595870,9.447519999999999,-0.43634325,1.6083049999999999,0.007456851,-0.037284255,-0.05752428,-50.04,-36.18,5.64
1554109595890,9.428367,-0.27353755,1.6944963,0.05006743,-0.033023197000000004,-0.04580637,-50.04,-36.18,5.58
1554109595910,9.346964,-0.38845924,1.6370354,0.11717909,-0.011717908999999999,-0.024501082,-50.04,-36.12,5.52
1554109595930,9.5385,-0.4890157,1.5652093999999999,0.17044231,-0.0031957934000000003,-0.025566347000000003,-50.04,-36.12,5.58
1554109595950,9.514558000000001,-0.30226797,1.5556326,0.14168017,0.00958738,-0.024501082,-50.04,-36.12,5.64
1554109595971,9.557653,-0.35494040000000004,1.6083049999999999,0.099069595,0.015978966,-0.008522116,-50.04,-36.06,5.7
1554109595990,9.605537,-0.374094,1.6849195,0.05752428,0.014913702,0.02130529,-49.98,-36.06,5.82
1554109596010,9.586383999999999,-0.43155485,1.7950528000000001,0.029827405,-0.004261058,0.02130529,-49.98,-36.0,5.94
1554109596030,9.634267999999999,-0.46986207,1.5795746000000002,0.008522116,-0.020240024,0.011717908999999999,-49.98,-35.94,6.06
1554109596050,9.500193,-0.47465047,1.8429368000000002,0.008522116,-0.05006743,0.023435817999999997,-49.98,-35.88,6.18
1554109596070,9.519346,-0.38367084,1.7040731,0.096939065,-0.03089267,0.082025364,-49.98,-35.76,6.3
1554109596089,9.5385,-0.27353755,1.359308,0.15446335,-0.011717908999999999,0.08948222,-49.98,-35.64,6.42
1554109596110,9.409213000000001,-0.13467385,1.4598645000000001,0.12250541,0.0010652645,0.036218993,-49.92,-35.46,6.42
1554109596129,9.428367,-0.11552023,1.6753427,0.08735169,0.013848438000000001,0.05965481,-49.86,-35.28,6.42
1554109596149,9.442732000000001,-0.3597288,1.6226702,0.06178534,0.03834952,0.11504856,-49.8,-35.16,6.36
1554109596169,9.519346,-0.4794389,1.3449427999999999,0.017044231,0.058589544,0.15446335,-49.68,-34.98,6.36
1554109596190,9.629479,-0.64703304,1.1438298,-0.09054748,0.06711166,0.14594123,-49.62,-34.8,6.3
1554109596210,9.710882000000002,-0.86251116,1.4885948999999998,-0.25992453,0.06391586,0.08948222,-49.56,-34.62,6.3
1554109596229,9.500193,-1.0540473,1.7902644,-0.2790993,0.07137272,0.07669904,-49.56,-34.5,6.3
1554109596249,9.662998,-1.2360066,2.0967221,-0.13422333,0.07030745599999999,0.082025364,-49.56,-34.38,6.3
1554109596270,9.792285000000001,-1.1067197,1.929128,0.008522116,0.07563378,0.041545313,-49.62,-34.32,6.36
1554109596290,9.672575,-0.9247603999999999,1.6801311,0.043675844000000005,0.06178534,0.02130529,-49.68,-34.26,6.36
1554109596310,9.811439,-1.0013748,1.8189948,0.047936900000000005,0.037284255,0.034088463,-49.8,-34.14,6.42
1554109596329,9.782708,-0.9199719999999999,1.8956091,0.09054748,0.014913702,0.018109497,-49.92,-34.08,6.36
1554109596351,9.715671,-0.9295488000000001,2.2451627,0.20240025,-0.0053263223,0.012783173500000002,-50.04,-34.02,6.3
1554109596369,9.653421,-0.83856916,2.0296845,0.3057309,-0.02876214,0.0063915867,-50.16,-33.96,6.3
1554109596389,9.155427,-0.24959552,2.082357,0.35260254,-0.051132694000000006,-0.023435817999999997,-50.22,-33.9,6.24
1554109596410,9.11712,0.52133745,2.2260091,0.48682585,-0.08841695,0.10652645,-50.22,-33.9,6.12
1554109596429,9.332599,0.56922144,1.3640964,0.716923,-0.084155895,0.3717773,-50.28,-33.84,6.06
1554109596449,9.500193,0.3537433,0.7846996,0.793622,-0.05219796,0.49534798,-50.34,-33.78,6.0
1554109596471,9.208099,-0.5033809,1.0384849,0.48469532,-0.036218993,0.37603834,-50.4,-33.66,6.0
1554109596490,8.858546,-1.0684125,1.5747862,-0.09374327,-0.07776430000000001,0.2545982,-50.46,-33.42,6.12
1554109596509,9.006986999999999,-1.4466964,1.6609775000000002,-0.51771855,-0.128897,0.30146983,-50.46,-33.18,6.3
1554109596530,9.528922999999999,-2.332551,1.6178818000000001,-0.5571333,-0.11824436,0.44634579999999996,-50.52,-32.64,6.6
1554109596551,9.452309,-2.3900118,1.584363,-0.28868666,-0.082025364,0.44315,-50.58,-32.22,6.78
1554109596571,9.227253,-1.8249803,1.5604209999999998,0.07456851,-0.046871635999999994,0.40586576,-50.7,-31.86,6.9
1554109596589,9.131485000000001,-1.6956933999999997,1.6514006,0.36645097,-0.020240024,0.44315,-50.7,-31.62,7.02
1554109596609,8.983044999999999,-1.1498153,1.7471686999999998,0.6380934,0.011717908999999999,0.5219796,-50.82,-31.08,7.14
1554109596630,9.074024,-0.7044938000000001,1.4550761,0.7254451,0.051132694000000006,0.5901565,-51.0,-30.42,7.26
1554109596650,8.911219000000001,-0.39324763,1.7088615000000003,0.68816084,0.09587380000000001,0.6743124,-51.12,-30.0,7.26
1554109596670,8.829816000000001,-0.25917232,2.1254525,0.67963874,0.14913702,0.8032094,-51.24,-29.58,7.26
1554109596690,8.781932000000001,-0.30226797,2.0344729999999998,0.71479243,0.20133498,0.9214538000000001,-51.42,-29.1,7.38
1554109596710,8.8777,-0.16819267,2.0009542000000002,0.7094661,0.22796659,1.0141318000000001,-51.54,-28.44,7.56
1554109596730,8.99741,-0.091578215,2.0009542000000002,0.66579026,0.22370553,1.099353,-51.6,-28.02,7.62
1554109596749,8.667010000000001,-0.41718966,2.2307975,0.54648066,0.23329292,1.293231,-51.72,-26.34,7.8
1554109596770,8.346188,-0.86729956,2.4223334999999997,0.46232477,0.20240025,1.4871092,-51.78,-25.14,7.92
1554109596789,8.355764,-1.4131776000000003,2.1877017000000003,0.39201729999999996,0.15552860000000002,1.6426378000000001,-51.84,-23.7,8.1
1554109596810,8.322245,-1.7866731,1.9626468000000001,0.28655612,0.11611383,1.7683389999999999,-51.96,-21.96,8.22
1554109596830,8.020576,-2.0787656,1.3449427999999999,0.035153727999999995,0.099069595,1.9345202000000001,-52.2,-20.16,8.34
1554109596850,7.6853875999999985,-2.7347770000000002,1.4502877,-0.27696875,0.08948222,2.0421119,-52.44,-18.18,8.34
1554109596869,7.5082164,-3.0556,1.3640964,-0.5518069999999999,0.05965481,2.0889835,-52.68,-16.2,8.4
1554109596890,7.144297999999999,-3.5727474999999997,1.1965023000000001,-0.8969527,0.025566347000000003,2.1560952999999996,-52.86,-14.1,8.4
1554109596910,6.823475,-4.252701,1.1534066,-1.1685951,0.010652645,2.2391857999999996,-53.1,-12.24,8.4
1554109596930,6.339846,-5.0092683,0.99060094,-1.3646038,-0.03089267,2.3222766,-53.34,-10.26,8.4
1554109596949,5.7939680000000005,-5.5407815000000005,0.84216046,-1.4839133999999998,-0.049002163,2.3712788,-53.52,-8.28,8.46
1554109596969,5.444414599999999,-5.847239,0.7128736,-1.5254587,-0.11824436,2.4138892000000003,-53.58,-6.48,8.52
1554109596990,4.984728,-6.531981,0.56922144,-1.5020228999999998,-0.11611383,2.4596956000000003,-53.4,-4.62,8.76
1554109597010,4.3813889999999995,-7.374739599999999,0.39205053,-1.4988271,-0.111852765,2.4831314,-53.28,-2.76,9.06
1554109597030,3.8498763999999994,-8.06427,0.23882163,-1.5180018,-0.1587244,2.5001757000000002,-53.04,-0.9,9.42
1554109597050,3.6727053999999995,-8.509591,-0.019752163,-1.5148059999999999,-0.23116238,2.5193505000000003,-52.86,0.9,9.9
1554109597070,3.371036,-8.69155,-0.3453636,-1.4924355,-0.33875409999999995,2.5204158,-52.62,2.7,10.38
1554109597090,3.2130187,-9.405023,-0.7284359,-1.4413028,-0.38242993,2.4863272000000003,-52.26,4.38,10.98
1554109597110,2.8491,-9.989208,-0.8098387,-1.4711303,-0.41971418,2.404302,-51.78,6.06,11.52
1554109597130,2.4947581000000003,-9.979631,-0.84335756,-1.4093448999999998,-0.5187838,2.3414512000000003,-51.12,7.8,12.24
1554109597150,2.3127987,-10.161591,-1.240795,-1.2868395000000001,-0.567786,2.275405,-50.52,9.42,12.84
1554109597170,1.9297266,-9.792883999999999,-1.2743138,-1.1110708999999999,-0.61891866,2.1869879,-49.86,11.04,13.56
1554109597189,1.6472107,-9.993997,-1.240795,-0.69668293,-0.67005134,2.1379857,-48.96,12.54,14.28
1554109597209,1.3694833999999998,-10.152014,-0.9295488000000001,-0.15659387,-0.68816084,2.143312,-48.06,13.98,15.0
1554109597229,0.89543146,-10.683527,-1.3221979,0.36218992,-0.6562029,2.1230721000000004,-47.04,15.48,15.72
1554109597250,0.26815059999999996,-10.755353,-1.7770962,0.6530071,-0.62104917,2.0676782,-45.96,16.98,16.5
1554109597270,-0.33518824,-9.754577000000001,-2.0979192,0.67218184,-0.57417756,2.0271983000000002,-44.94,18.48,17.28
1554109597291,-0.8714894,-9.481637,-2.1122843999999996,0.52624065,-0.5422196,2.0527647,-43.92,20.1,18.0
1554109597311,-1.4269443000000002,-9.783307,-1.7675193999999999,0.16618125,-0.50600064,2.0378509,-42.84,21.84,18.54
1554109597329,-1.8291701,-10.10413,-1.5520413,-0.2428803,-0.49747851,1.9355855,-41.1,24.24,19.2
1554109597350,-1.8148049,-10.01315,-1.6142905,-0.36432046,-0.47936899999999993,1.933455,-40.02,25.86,19.62
1554109597369,-2.1499932,-10.166379,-2.1601684,-0.40266997,-0.44954160000000004,1.9781961,-38.94,27.36,20.04
1554109597390,-2.7629087,-10.13286,-1.7962499,-0.52411014,-0.4314321,1.9217370999999999,-38.04,28.8,20.46
1554109597411,-2.9257145,-10.01315,-1.5376761,-0.5496765,-0.43356264,1.8152106,-37.02,30.18,20.82
1554109597430,-2.9640217,-10.22384,-1.0348936,-0.35153726,-0.4165184,1.7875136999999999,-35.88,31.32,21.3
1554109597450,-3.2609026,-10.348338,-0.87208796,-0.07563378,-0.40373522,1.7821875,-35.16,31.8,21.54
1554109597470,-3.6008794,-9.807249,-1.1019313,0.35899413,-0.4165184,1.7694043000000002,-33.84,32.58,22.02
1554109597489,-4.1611223,-9.979631,-1.2312181999999998,0.69774824,-0.38775626,1.7747306,-32.7,33.36,22.56
1554109597509,-4.486733999999999,-9.534309,-1.1785458,0.76912093,-0.3568636,1.7640778999999998,-31.62,34.2,22.98
1554109597530,-4.7453080000000005,-9.405023,-1.1258733,0.6423545,-0.32384038,1.716141,-29.94,35.64,23.52
1554109597551,-5.0613421999999995,-8.983644,-1.2024878,0.41864893,-0.32277513,1.6479641,-28.62,36.6,23.76
1554109597569,-5.425261,-8.500014,-1.1402385,0.20133498,-0.33981937,1.6298546,-27.24,37.56,24.0
1554109597589,-5.765238,-8.677185,-1.3413515,0.0053263223,-0.34621096,1.6703346999999997,-26.04,38.58,24.06
1554109597609,-6.0142345,-8.480861,-1.5041572,-0.25672874,-0.33875409999999995,1.6863136000000003,-24.96,39.66,24.12
1554109597630,-6.2392898,-8.380303999999999,-1.5424645000000001,-0.47617322,-0.33662358,1.6788566999999999,-23.7,40.68,24.12
1554109597649,-6.517017,-7.848791599999999,-1.2934675,-0.67005134,-0.36432046,1.6266588,-22.5,41.58,24.12
1554109597670,-6.885724000000001,-8.054692999999999,-0.7140707,-0.56672066,-0.386691,1.5808525,-21.24,42.3,24.12
1554109597690,-6.9958572,-8.768166,-0.27353755,-0.07030745599999999,-0.36964676,1.5691346000000002,-19.98,42.66,24.18
1554109597709,-7.134721300000001,-8.581417,-0.014963761,0.60933125,-0.31638354,1.5765913999999999,-18.72,42.9,24.24
1554109597729,-7.350199000000001,-8.322844,-0.41240123,1.4487596999999999,-0.21624869,1.5723303999999998,-17.52,43.08,24.3
1554109597750,-7.551311999999999,-7.997232400000001,-0.65182143,1.7225326,-0.15339808,1.5222628999999999,-16.38,43.08,24.3
1554109597770,-7.565677,-7.480085000000001,-0.4794389,1.8301243999999999,-0.05752428,1.4327807,-15.36,43.08,24.36
1554109597790,-7.546523599999999,-7.116166000000001,-0.6183026,1.6671387999999998,0.024501082,1.3539511,-14.34,43.14,24.3
1554109597811,-7.6375036,-6.6612678,-0.56563014,1.3528858,0.10759171,1.3219931999999999,-13.2,43.62,24.12
1554109597830,-7.872135000000001,-6.3404446,-0.7763199000000001,0.92464954,0.18961707,1.3198626,-12.06,44.22,23.82
1554109597850,-8.149861999999999,-5.9621606,-0.7092823,0.41545314,0.24394555,1.3081448,-10.98,44.82,23.28
1554109597870,-8.480263,-5.6365495,-0.21607670000000004,-0.02876214,0.25246766,1.2697952,-10.02,45.42,22.62
1554109597890,-8.499416,-5.751471,0.12868834,-0.19920446,0.22477080000000002,1.2069446000000001,-9.24,46.08,22.02
1554109597910,-8.451532,-5.943007,0.53091425,-0.096939065,0.20453078,1.135572,-8.28,46.74,21.36
1554109597930,-8.676587,-5.8041434,0.44472298,0.12250541,0.18535602,1.0982877,-7.44,47.28,20.7
1554109597950,-8.791509,-5.4881085999999994,0.49260699999999996,0.29614353,0.17896444,1.1057445,-6.72,47.76,20.1
1554109597970,-8.628703,-5.3683987,0.32501290000000005,0.33768883,0.18216023,1.1142666,-6.18,47.88,19.68
1554109597990,-8.7771435,-5.286996,0.22445641,0.23116238,0.18855181,1.0460896000000002,-5.64,47.7,19.38
1554109598011,-8.796297000000001,-5.3300915,0.3681085,0.080960095,0.1768339,0.8926915999999999,-5.04,47.58,19.26
1554109598030,-8.868122999999999,-5.54557,0.44472298,-0.05219796,0.15552860000000002,0.73822826,-4.5,47.4,19.26
1554109598050,-9.02614,-5.48332,0.56443304,-0.23542345,0.12463594,0.5571333,-3.9,47.1,19.38
1554109598070,-8.99741,-5.555146700000001,0.49739540000000004,-0.37923414,0.05752428,0.4282363,-3.48,46.8,19.44
1554109598089,-9.016563,-5.3923407,0.38726214,-0.49747851,-0.012783173500000002,0.27377295,-3.0,46.5,19.56
1554109598111,-8.935161,-5.061941,0.090381116,-0.58269966,-0.08735169,0.040480047000000005,-2.22,46.02,19.68
1554109598130,-8.8777,-4.7602715,0.008978256,-0.6125271,-0.11930962,-0.08841695,-2.04,45.84,19.8
1554109598150,-8.983044999999999,-4.6692919999999996,0.023343466,-0.6114618,-0.12996227,-0.21411815,-1.56,45.54,19.92
1554109598170,-8.987833,-4.429871599999999,-0.26396075,-0.5613944000000001,-0.10546118,-0.28868666,-1.32,45.18,20.16
1554109598190,-9.002198,-4.209605000000001,-0.350152,-0.48043427,-0.068176925,-0.3206446,-1.14,44.82,20.34
1554109598210,-9.088389,-3.8504747999999998,-0.53689975,-0.39414784,-0.046871635999999994,-0.3206446,-1.02,44.46,20.64
1554109598229,-8.8777,-3.697246,-0.41240123,-0.29507825,-0.029827405,-0.2972088,-0.96,43.98,21.06
1554109598250,-8.815451,-3.7499184999999997,-0.45549688,-0.18748654,-0.022370555,-0.27164245,-0.96,43.86,21.24
1554109598270,-8.839393,-3.6589386,-0.41718966,-0.07030745599999999,0.002130529,-0.23009712,-1.08,43.56,21.54
1554109598289,-8.8777,-3.6733038000000002,-0.25917232,0.05006743,0.022370555,-0.15339808,-1.2,43.32,21.78
1554109598309,-8.767567,-3.6780925000000004,-0.15861586,0.1470065,0.05539375,-0.082025364,-1.38,43.02,22.14
1554109598330,-8.801085,-3.5823242999999994,-0.18255788,0.21731395,0.07350325,-0.017044231,-1.44,42.96,22.32
1554109598350,-8.825027,-3.6733038000000002,-0.077213004,0.24394555,0.084155895,0.026631612000000002,-1.5,42.9,22.38
1554109598370,-8.834603999999999,-3.697246,0.12389994,0.23861924,0.084155895,0.05965481,-1.56,42.9,22.44
1554109598390,-8.825027,-3.7594953,0.12868834,0.22050974,0.07563378,0.08522116,-1.56,42.9,22.38
1554109598410,-8.815451,-3.7163997,0.13347675,0.17576863,0.060720075,0.10333065,-1.62,42.9,22.38
1554109598429,-8.8777,-3.8552632000000004,0.32501290000000005,0.14061491,0.037284255,0.1107875,-1.62,42.9,22.38
1554109598449,-8.858546,-3.9510313999999997,0.3585317,0.09161274,0.017044231,0.113983296,-1.62,42.96,22.26
1554109598469,-8.944737,-3.8600516000000002,0.22445641,0.046871635999999994,-0.007456851,0.10546118,-1.62,43.02,22.2
1554109598490,-9.021352,-3.9031472000000003,0.09995792,0.0063915867,-0.024501082,0.09587380000000001,-1.62,43.02,22.14
1554109598510,-9.054871,-3.8983587999999996,-0.09636662,-0.07776430000000001,-0.047936900000000005,0.07776430000000001,-1.62,43.08,22.08
1554109598530,-9.011775,-3.9606082000000002,-0.17776948,-0.15659387,-0.06391586,0.056459017,-1.62,43.14,22.02
1554109598549,-8.983044999999999,-3.9031472000000003,-0.10115502,-0.21411815,-0.07030745599999999,0.041545313,-1.56,43.14,21.96
1554109598570,-9.150639,-3.8552632000000004,-0.110731825,-0.2727077,-0.07350325,0.011717908999999999,-1.56,43.2,21.9
1554109598590,-9.064447,-3.9558197999999996,-0.23044191,-0.29827404,-0.07137272,-0.0063915867,-1.5,43.2,21.9
1554109598609,-9.083601,-4.065953299999999,-0.14903906,-0.27696875,-0.07563378,-0.01917476,-1.44,43.2,21.9
1554109598629,-9.059659,-3.9653966,-0.15382746,-0.23222765,-0.06924219,-0.027696876000000002,-1.38,43.14,21.9
1554109598650,-8.920795,-3.946243,-0.21607670000000004,-0.19387813,-0.06285059999999999,-0.02876214,-1.32,43.08,21.9
1554109598669,-8.944737,-3.8839936,-0.26396075,-0.13954964,-0.05006743,-0.022370555,-1.26,42.96,21.9
1554109598690,-8.868122999999999,-3.9845502,-0.17298107,-0.06391586,-0.043675844000000005,-0.03195793,-1.2,42.84,21.96
1554109598710,-8.896853,-3.9318779000000004,-0.30705637,0.0031957934000000003,-0.035153727999999995,-0.040480047000000005,-1.14,42.72,22.08
1554109598730,-8.8777,-3.8983587999999996,-0.23523031,0.05539375,-0.020240024,-0.03195793,-1.08,42.54,22.14
1554109598750,-8.820239,-3.8935703999999998,-0.0676362,0.06711166,-0.0053263223,-0.03195793,-1.08,42.42,22.26
1554109598770,-8.911219000000001,-3.8696284,-0.091578215,0.07137272,0.0063915867,-0.039414786,-1.08,42.3,22.38
1554109598790,-9.045294,-3.86484,-0.05805939,0.07882957,0.010652645,-0.05219796,-1.08,42.18,22.5
1554109598809,-9.074024,-3.8313212,-0.05805939,0.09161274,0.004261058,-0.05752428,-1.08,42.06,22.62
1554109598831,-9.131485000000001,-3.8361096,0.04249708,0.09587380000000001,-0.004261058,-0.06391586,-1.08,42.06,22.62
1554109598849,-9.093178,-3.7834373,0.008978256,0.07989483,-0.014913702,-0.07243799,-1.08,42.06,22.62
1554109598869,-9.131485000000001,-3.840898,0.0041898529999999995,0.043675844000000005,-0.02130529,-0.07563378,-1.08,42.0,22.62
1554109598889,-9.088389,-3.697246,0.10474633,0.002130529,-0.02876214,-0.07350325,-1.08,41.94,22.56
1554109598909,-8.959103,-3.6924577000000003,0.10474633,-0.015978966,-0.04261058,-0.07243799,-1.08,41.82,22.5
1554109598931,-8.8777,-3.6685154000000004,0.18614918,-0.027696876000000002,-0.046871635999999994,-0.083090626,-1.14,41.76,22.44
1554109598951,-8.810661999999999,-3.7211879999999997,0.19093758,-0.033023197000000004,-0.037284255,-0.07669904,-1.2,41.7,22.38
1554109598969,-8.7771435,-3.6733038000000002,0.3393781,-0.027696876000000002,-0.033023197000000004,-0.054328485999999995,-1.26,41.7,22.38
1554109598990,-8.858546,-3.5823242999999994,0.032920275,-0.007456851,-0.047936900000000005,-0.035153727999999995,-1.32,41.64,22.38
1554109599009,-8.896853,-3.4721910000000005,0.18136078,0.007456851,-0.06498113,-0.025566347000000003,-1.44,41.58,22.38
1554109599029,-9.006986999999999,-3.5392287000000002,0.18614918,-0.01917476,-0.08948222,-0.014913702,-1.56,41.58,22.38
1554109599050,-9.169792,-3.5248635000000004,0.0041898529999999995,-0.10546118,-0.10226539,0.0010652645,-1.74,41.52,22.38
1554109599069,-9.088389,-3.5440169999999998,-0.010175358,-0.23009712,-0.1107875,0.023435817999999997,-1.86,41.46,22.38
1554109599090,-9.232041,-3.6110547,-0.26396075,-0.35899413,-0.12357068,0.041545313,-1.98,41.34,22.38
1554109599109,-9.232041,-3.7738605000000005,-0.43634325,-0.48149952,-0.12463594,0.04474111,-2.1,41.16,22.38
1554109599129,-9.165004,-3.8313212,-0.5177461,-0.60293967,-0.13528858,0.037284255,-2.16,40.98,22.38
1554109599150,-9.054871,-3.9989154,-0.40761283,-0.68176925,-0.13848437,0.03089267,-2.1,40.86,22.38
1554109599169,-8.954314,-4.061165,-0.374094,-0.7041398,-0.13422333,0.00958738,-1.86,40.62,22.32
1554109599191,-8.872911,-4.1329910000000005,-0.374094,-0.6593986999999999,-0.112918034,-0.014913702,-1.62,40.44,22.32
1554109599211,-8.872911,-4.204817,-0.374094,-0.54435015,-0.09161274,-0.025566347000000003,-1.38,40.2,22.38
1554109599232,-8.7771435,-4.223970400000001,-0.42197806,-0.30786142,-0.068176925,-0.041545313,-1.08,40.02,22.5
1554109599250,-8.7292595,-4.19524,-0.30226797,-0.14594123,-0.054328485999999995,-0.053263225,-0.78,39.84,22.68
1554109599270,-8.686164,-4.065953299999999,-0.25917232,0.051132694000000006,-0.035153727999999995,-0.05219796,-0.48,39.72,22.92
1554109599290,-8.796297000000001,-4.0707417,-0.43155485,0.18748654,-0.010652645,-0.043675844000000005,-0.24,39.54,23.22
1554109599310,-8.796297000000001,-3.9318779000000004,-0.38845924,0.25246766,0.010652645,-0.043675844000000005,-0.12,39.36,23.52
1554109599329,-8.954314,-3.9175123999999997,-0.41240123,0.25885928,0.017044231,-0.056459017,-0.06,39.3,23.76
1554109599352,-8.992621,-3.840898,-0.3645172,0.21837921,0.023435817999999997,-0.06924219,-0.06,39.18,24.06
1554109599369,-9.02614,-3.8696284,-0.3645172,0.1768339,0.033023197000000004,-0.07669904,-0.12,39.0,24.24
1554109599390,-9.074024,-3.8121676,-0.38845924,0.098004326,0.043675844000000005,-0.08628642,-0.18,38.88,24.36
1554109599409,-9.02614,-3.8025907999999995,-0.3645172,0.047936900000000005,0.047936900000000005,-0.08735169,-0.18,38.7,24.36
1554109599429,-9.030928999999999,-3.7882257000000004,-0.19692309,0.004261058,0.047936900000000005,-0.09054748,-0.24,38.58,24.3
1554109599450,-9.030928999999999,-3.7978023999999997,-0.22086509999999998,-0.024501082,0.039414786,-0.09374327,-0.36,38.46,24.18
1554109599469,-9.069236,-3.7738605000000005,-0.15861586,-0.054328485999999995,0.033023197000000004,-0.08522116,-0.42,38.34,24.06
1554109599490,-8.892064999999999,-3.7882257000000004,-0.3645172,-0.07137272,0.033023197000000004,-0.07243799,-0.48,38.22,23.94
1554109599509,-8.858546,-3.8025907999999995,-0.26396075,-0.07350325,0.025566347000000003,-0.060720075,-0.54,38.22,23.82
1554109599529,-8.676587,-3.9653966,-0.35494040000000004,-0.05539375,0.027696876000000002,-0.053263225,-0.6,38.22,23.76
1554109599550,-8.7292595,-3.8456864,-0.30226797,-0.026631612000000002,0.029827405,-0.03834952,-0.6,38.28,23.7
1554109599569,-8.7292595,-3.8504747999999998,-0.35494040000000004,0.02876214,0.05006743,-0.027696876000000002,-0.66,38.4,23.64
1554109599590,-8.791509,-3.9558197999999996,-0.26874915,0.10546118,0.068176925,-0.012783173500000002,-0.72,38.52,23.64
1554109599609,-8.949525999999999,-3.9558197999999996,-0.350152,0.19600865,0.080960095,-0.008522116,-0.72,38.58,23.64
1554109599629,-8.930372,-3.8456864,-0.14425065,0.25566345,0.08735169,-0.014913702,-0.72,38.7,23.64
1554109599651,-8.992621,-3.9558197999999996,-0.10594343,0.29827404,0.09587380000000001,-0.022370555,-0.72,38.82,23.64
1554109599669,-8.887277000000001,-3.9510313999999997,0.032920275,0.3206446,0.10439592,-0.033023197000000004,-0.78,38.94,23.7
1554109599691,-9.069236,-3.9510313999999997,-0.05805939,0.32170987,0.10652645,-0.046871635999999994,-0.78,39.0,23.7
1554109599710,-9.188946000000001,-3.8983587999999996,0.19572599,0.31105720000000003,0.10226539,-0.06391586,-0.84,39.06,23.7
1554109599730,-9.179369,-3.7738605000000005,0.076015905,0.27803403,0.08948222,-0.07882957,-0.84,39.18,23.64
1554109599750,-9.14585,-3.7163997,0.14305355,0.22903186,0.07030745599999999,-0.099069595,-0.84,39.3,23.52
1554109599770,-9.179369,-3.7499184999999997,0.13347675,0.16831179,0.040480047000000005,-0.10865697,-0.9,39.54,23.4
1554109599789,-9.064447,-3.6876693,0.16220717,0.08628642,0.011717908999999999,-0.11717909,-0.9,39.9,23.28
1554109599810,-9.174581,-3.6924577000000003,0.008978256,0.0010652645,-0.0063915867,-0.112918034,-0.96,40.2,23.1
1554109599830,-8.99741,-3.6062663,-0.17776948,-0.07137272,-0.02130529,-0.10333065,-0.96,40.56,22.98
1554109599850,-8.987833,-3.6685154000000004,-0.10115502,-0.12996227,-0.03195793,-0.09054748,-0.96,40.86,22.86
1554109599870,-8.920795,-3.615843,-0.23523031,-0.165116,-0.035153727999999995,-0.06924219,-0.96,41.16,22.8
1554109599890,-8.963891,-3.7786489000000003,-0.02932897,-0.14913702,-0.033023197000000004,-0.04474111,-0.96,41.4,22.74
1554109599909,-8.911219000000001,-3.816956,-0.10594343,-0.06711166,-0.036218993,-0.010652645,-1.02,41.64,22.86
1554109599930,-8.8777,-3.8265328000000003,-0.14425065,0.043675844000000005,-0.035153727999999995,0.011717908999999999,-1.02,41.7,22.86
1554109599950,-8.99741,-3.816956,-0.10594343,0.12676647,-0.039414786,0.035153727999999995,-1.02,41.64,22.86
1554109599971,-8.983044999999999,-3.8504747999999998,-0.21607670000000004,0.15126756,-0.033023197000000004,0.046871635999999994,-1.02,41.7,22.98
1554109599990,-9.002198,-4.0563765,-0.12509704,0.14274544,-0.035153727999999995,0.040480047000000005,-1.08,41.7,22.98
1554109600009,-8.868122999999999,-4.0372224,-0.24959552,0.111852765,-0.033023197000000004,0.02876214,-1.02,41.7,23.04
1554109600029,-8.911219000000001,-4.1665095999999995,-0.22565351,0.094808534,-0.024501082,0.025566347000000003,-0.96,41.7,23.04
1554109600050,-9.064447,-4.1329910000000005,-0.12509704,0.08628642,-0.013848438000000001,0.008522116,-0.9,41.76,23.1
1554109600070,-9.002198,-4.1186256000000006,-0.110731825,0.098004326,-0.018109497,-0.026631612000000002,-0.84,41.76,23.1
1554109600090,-9.059659,-4.0994720000000004,-0.17776948,0.1107875,-0.020240024,-0.056459017,-0.78,41.76,23.1
1554109600109,-9.050082000000002,-4.0372224,-0.12988544,0.13209279,-0.02130529,-0.05965481,-0.78,41.64,23.1
1554109600130,-8.935161,-4.1186256000000006,-0.16819267,0.1438107,-0.02130529,-0.05539375,-0.84,41.58,23.1
1554109600149,-8.805874000000001,-3.9558197999999996,-0.28790274,0.14807177,-0.012783173500000002,-0.06178534,-0.84,41.52,23.1
1554109600169,-8.762777999999999,-3.9175123999999997,-0.28311434,0.15233281,-0.0010652645,-0.058589544,-0.96,41.4,23.04
1554109600189,-8.743625,-3.8313212,-0.38367084,0.15126756,0.012783173500000002,-0.05219796,-1.02,41.34,22.98
1554109600209,-8.767567,-4.061165,-0.30705637,0.1470065,0.02130529,-0.053263225,-1.14,41.28,22.92
1554109600230,-8.853758000000001,-3.8552632000000004,-0.3357868,0.11930962,0.034088463,-0.051132694000000006,-1.2,41.34,22.8
1554109600250,-8.872911,-3.8744167999999997,-0.3645172,0.080960095,0.047936900000000005,-0.04261058,-1.26,41.34,22.68
1554109600269,-8.848969,-3.9270894999999997,-0.31184477,0.046871635999999994,0.06285059999999999,-0.04580637,-1.32,41.52,22.56
1554109600290,-8.901641999999999,-3.9414546,-0.3453636,0.04261058,0.07137272,-0.043675844000000005,-1.32,41.64,22.44
1554109600310,-8.844180999999999,-4.0372224,-0.27832595,0.06178534,0.07456851,-0.046871635999999994,-1.32,41.76,22.38
1554109600330,-8.805874000000001,-4.0276456,-0.26874915,0.07243799,0.080960095,-0.05752428,-1.32,41.94,22.32
1554109600350,-8.916007,-3.912724,-0.22086509999999998,0.08948222,0.10226539,-0.06285059999999999,-1.32,42.06,22.26
1554109600370,-8.901641999999999,-3.9989154,-0.038905777,0.13741912,0.111852765,-0.06924219,-1.32,42.24,22.26
1554109600390,-8.959103,-4.156933,0.15741876,0.2066613,0.11504856,-0.083090626,-1.32,42.3,22.26
1554109600410,-9.030928999999999,-3.9510313999999997,-0.02932897,0.26844665,0.111852765,-0.082025364,-1.32,42.36,22.26
1554109600430,-8.987833,-3.8552632000000004,-0.0053869537,0.3153183,0.1107875,-0.07137272,-1.32,42.42,22.26
1554109600450,-8.916007,-3.8696284,0.037708677,0.33129725,0.10865697,-0.07989483,-1.32,42.48,22.2
1554109600470,-9.006986999999999,-3.7834373,-0.0053869537,0.3206446,0.10759171,-0.083090626,-1.32,42.54,22.14
1554109600489,-9.050082000000002,-3.8265328000000003,-0.15382746,0.27483824,0.10972224,-0.083090626,-1.32,42.6,22.02
1554109600510,-9.088389,-3.697246,0.04249708,0.2130529,0.10865697,-0.07563378,-1.38,42.66,21.96
1554109600530,-8.992621,-3.7738605000000005,-0.048482585999999994,0.15978967,0.1107875,-0.06924219,-1.38,42.78,21.84
1554109600550,-9.030928999999999,-3.6876693,0.090381116,0.12357068,0.10226539,-0.06498113,-1.44,42.96,21.72
1554109600570,-9.021352,-3.7499184999999997,0.0712275,0.10546118,0.09267801,-0.060720075,-1.5,43.14,21.6
1554109600591,-8.930372,-3.7259765,0.13826515,0.09267801,0.083090626,-0.056459017,-1.62,43.32,21.48
1554109600610,-8.853758000000001,-3.7163997,0.3298013,0.08735169,0.07350325,-0.043675844000000005,-1.74,43.5,21.42
1554109600630,-8.963891,-3.7259765,0.23403321,0.09374327,0.06604639400000001,-0.025566347000000003,-1.86,43.62,21.36
1554109600650,-8.911219000000001,-3.7116113,0.14305355,0.096939065,0.043675844000000005,-0.011717908999999999,-1.98,43.8,21.36
1554109600671,-8.935161,-3.7116113,0.05207389,0.082025364,-0.0010652645,0.015978966,-2.04,43.98,21.3
1554109600690,-8.911219000000001,-3.7163997,0.008978256,0.049002163,-0.024501082,0.03195793,-2.1,44.04,21.3
1554109600709,-9.006986999999999,-3.7259765,0.05207389,0.002130529,-0.03834952,0.05539375,-2.16,44.04,21.3
1554109600729,-9.040505,-3.7499184999999997,-0.0724246,-0.051132694000000006,-0.04580637,0.07350325,-2.16,44.1,21.3
1554109600750,-9.212888000000001,-3.769072,-0.091578215,-0.10439592,-0.043675844000000005,0.07989483,-2.16,44.22,21.3
1554109600770,-9.203311,-3.74513,-0.29747957,-0.13954964,-0.04261058,0.083090626,-2.16,44.34,21.3
1554109600789,-9.169792,-3.86484,-0.25917232,-0.15020229,-0.041545313,0.08522116,-2.16,44.4,21.3
1554109600809,-9.059659,-3.9414546,-0.23523031,-0.16085494,-0.03834952,0.07243799,-2.16,44.52,21.3
1554109600830,-9.097966,-4.1329910000000005,-0.28311434,-0.16405073,-0.03089267,0.034088463,-2.16,44.58,21.3
1554109600849,-9.006986999999999,-4.0420110000000005,-0.23044191,-0.16085494,-0.014913702,0.007456851,-2.16,44.58,21.3
1554109600869,-8.939949,-4.243124,-0.02932897,-0.12570119999999999,-0.007456851,-0.02130529,-2.16,44.64,21.24
1554109600891,-8.949525999999999,-4.300585,-0.14903906,-0.043675844000000005,0.0,-0.07776430000000001,-2.16,44.58,21.18
1554109600910,-9.002198,-4.171298,-0.0676362,0.012783173500000002,-0.0010652645,-0.111852765,-2.16,44.46,21.18
1554109600930,-8.949525999999999,-4.032433999999999,-0.20171149,0.034088463,0.004261058,-0.13528858,-2.1,44.34,21.12
1554109600950,-8.839393,-3.9749733999999997,-0.17776948,0.04261058,0.0031957934000000003,-0.15765914,-2.1,44.16,21.12
1554109600970,-8.916007,-3.9270894999999997,-0.20649989,0.039414786,0.0053263223,-0.17896444,-2.04,43.98,21.12
1554109600990,-8.973467999999999,-3.7738605000000005,-0.31663316,0.029827405,0.0063915867,-0.17044231,-2.04,43.8,21.06
1554109601010,-8.978256,-3.6302083,-0.31663316,0.022370555,0.02130529,-0.15446335,-1.98,43.62,21.12
1554109601030,-9.059659,-3.6206315000000004,-0.42676646,0.04474111,0.024501082,-0.13954964,-1.98,43.5,21.18
1554109601050,-9.054871,-3.6206315000000004,-0.40282443,0.07882957,0.027696876000000002,-0.11504856,-1.98,43.44,21.24
1554109601070,-8.916007,-3.5248635000000004,-0.45549688,0.10759171,0.041545313,-0.05965481,-1.98,43.38,21.36
1554109601090,-8.925583999999999,-3.6924577000000003,-0.28790274,0.13954964,0.046871635999999994,-0.014913702,-1.98,43.44,21.42
1554109601110,-8.930372,-3.769072,-0.30705637,0.13422333,0.049002163,-0.010652645,-1.98,43.56,21.48
1554109601130,-8.892064999999999,-3.7882257000000004,-0.26396075,0.11504856,0.046871635999999994,-0.004261058,-2.04,43.68,21.48
1554109601150,-8.815451,-3.8504747999999998,-0.09636662,0.101200126,0.05539375,-0.004261058,-2.04,43.8,21.42
1554109601171,-8.920795,-4.0707417,-0.02932897,0.12676647,0.05752428,-0.01917476,-2.04,43.92,21.42
1554109601189,-8.901641999999999,-4.0372224,0.02813187,0.16085494,0.05539375,-0.037284255,-2.04,44.04,21.42
1554109601210,-8.8777,-4.0276456,0.08080431,0.1768339,0.041545313,-0.037284255,-2.04,44.16,21.36
1554109601230,-8.892064999999999,-4.022857,-0.28311434,0.15126756,0.026631612000000002,-0.053263225,-2.04,44.28,21.3
1554109601250,-8.848969,-4.109049,-0.24480712,0.098004326,0.020240024,-0.07989483,-2.04,44.34,21.24
1554109601270,-8.820239,-4.291008000000001,-0.21128829999999998,-0.004261058,0.020240024,-0.128897,-2.04,44.34,21.18
1554109601290,-8.834603999999999,-4.573524,-0.30705637,-0.07243799,0.036218993,-0.18961707,-2.04,44.4,21.12
1554109601310,-8.585608,-4.745906400000001,-0.13467385,-0.046871635999999994,0.04474111,-0.26631612,-2.04,44.4,21.12
1554109601330,-8.690952000000001,-4.717176,-0.43155485,0.06604639400000001,0.06498113,-0.33555830000000003,-2.04,44.46,21.06
1554109601349,-8.695741,-4.803367,-0.6374562,0.15765914,0.082025364,-0.38456047,-2.1,44.46,21.0
1554109601369,-8.6095495,-4.908712,-0.76195467,0.1438107,0.111852765,-0.43782368,-2.1,44.46,21.0
1554109601390,-8.643068,-5.0571527000000005,-0.8146270999999999,0.02876214,0.13422333,-0.5251754,-2.22,44.7,20.94
1554109601411,-8.580819,-5.1960163,-0.694917,-0.09054748,0.16405073,-0.6263755,-2.34,44.94,20.88
1554109601429,-8.6095495,-5.3923407,-0.66139823,-0.17470337,0.19068234,-0.71479243,-2.52,45.18,20.88
1554109601449,-8.738836000000001,-5.7706246,-0.7667431,-0.22690132,0.21198763,-0.78083885,-2.76,45.42,20.88
1554109601470,-8.628703,-5.990891,-0.7667431,-0.25672874,0.23116238,-0.8522116,-3.0,45.66,20.88
1554109601490,-8.542512,-6.311714,-0.52732295,-0.221575,0.2428803,-0.97471696,-3.3,45.9,20.88
1554109601509,-8.446744,-6.5750766,-0.7188591,-0.111852765,0.27803403,-1.1121361,-3.6,46.2,20.94
1554109601530,-8.566454,-6.9485717000000005,-0.82899237,-0.013848438000000001,0.31957933,-1.2090752,-4.14,46.44,21.0
1554109601550,-8.63828,-7.3268557,-1.5568296999999998,-0.036218993,0.36964676,-1.3230585,-4.74,46.5,21.06
1554109601570,-8.48984,-7.504027000000001,-1.5999253,-0.1949434,0.41864893,-1.4871092,-5.4,46.56,21.12
1554109601589,-8.259995,-8.030750999999999,-1.2360066,-0.2790993,0.46765109999999993,-1.6564863,-6.3,46.62,21.18
1554109601610,-7.833828,-8.5383215,-1.3940238999999999,-0.08841695,0.5368933000000001,-1.8279938000000002,-7.74,46.74,21.3
1554109601630,-7.776367,-8.610147,-1.5999253,0.07989483,0.5763081,-1.9110843999999998,-8.28,46.74,21.36
1554109601649,-7.6135616,-8.447341999999999,-1.8010383,0.23435818,0.62104917,-2.0080235,-9.48,46.74,21.48
1554109601669,-7.3885064,-8.523956,-1.9686323000000001,0.34088463,0.664725,-2.0698087,-10.8,46.8,21.6
1554109601690,-7.129933,-8.863934,-1.9063831999999998,0.45912898,0.71585774,-2.1667478,-12.6,46.8,21.78
1554109601710,-7.053317999999999,-9.0842,-2.2990322,0.52624065,0.7456851,-2.2700787,-13.8,46.8,21.9
