TimeStamp,Ax,Ay,Az,Gx,Gy,Gz,Mx,My,Mz
1554109803592,-6.631939,-1.6382325,6.023213,0.70627034,0.43356264,0.6593986999999999,17.82,31.74,1.62
1554109803611,-6.2584434,-1.5472529,5.8747725,1.063134,0.45380265,0.67324716,18.0,30.78,1.8
1554109803631,-6.042965000000001,-1.3269863000000002,5.774216,1.4775218,0.46658584,0.67324716,18.06,29.82,1.98
1554109803652,-5.942408599999999,-0.7188591,5.8604074,1.7470337,0.43249738,0.60080916,18.06,28.92,2.16
1554109803671,-6.1387334000000005,0.21009120000000003,5.5347957999999995,1.8801918000000002,0.37284255,0.5454154,18.06,28.02,2.4
1554109803692,-6.3589997,0.95708215,5.04159,1.8120148,0.34727620000000003,0.5635249,18.06,27.12,2.64
1554109803712,-6.622362,1.311424,5.0942625999999995,1.4689997,0.3653857,0.5699165,18.06,26.58,2.88
1554109803732,-6.7612257,1.7998412,5.4102974,1.0237192,0.3749731,0.47404268,18.12,26.04,3.06
1554109803753,-7.0820484,2.3361422999999997,5.563526,0.63702816,0.34194988,0.38775626,18.12,25.62,3.24
1554109803771,-7.2209125,2.5851393,5.3288946,0.29614353,0.30466563,0.32490566,18.12,25.14,3.42
1554109803792,-7.4363904000000005,2.3648727000000003,5.34326,-0.025566347000000003,0.28655612,0.27483824,18.12,24.6,3.54
1554109803812,-7.4363904000000005,2.154183,5.7359085,-0.22690132,0.23861924,0.13315806,18.12,24.06,3.66
1554109803832,-7.326257000000001,1.8285716,5.8651957999999995,-0.23968449999999997,0.15020229,0.035153727999999995,18.18,23.52,3.72
1554109803852,-7.2304892999999995,1.5029601000000001,5.4917,-0.23329292,0.07137272,0.00958738,18.24,23.22,3.78
1554109803872,-7.4603324,1.1055226,5.8747725,-0.26312032,0.04474111,-0.008522116,18.24,22.86,3.84
1554109803891,-7.455544000000001,0.85652566,5.9801173,-0.2130529,0.02876214,-0.012783173500000002,18.3,22.56,3.9
1554109803911,-7.359775999999999,0.7751228,5.7502737,-0.12570119999999999,0.037284255,0.008522116,18.3,22.32,4.08
1554109803931,-7.541735000000001,0.9235633,5.7359085,-0.04261058,0.05006743,-0.0053263223,18.36,22.14,4.32
1554109803953,-7.608772999999999,1.1390414,5.7790045999999995,-0.020240024,0.051132694000000006,-0.013848438000000001,18.36,22.02,4.5
1554109803971,-7.465121000000001,1.2060791000000002,5.7933699999999995,-0.024501082,0.056459017,0.004261058,18.42,21.96,4.8
1554109803992,-7.5369470000000005,1.2395979,5.5826797,-0.041545313,0.04261058,0.015978966,18.42,21.9,4.92
1554109804012,-7.599196000000001,1.287482,5.6401405,-0.10226539,0.02130529,-0.020240024,18.36,21.84,5.1
1554109804031,-7.5704656,1.3210008,5.8221,-0.14168017,0.043675844000000005,-0.039414786,18.36,21.72,5.28
1554109804052,-7.5369470000000005,1.0959458,5.8604074,-0.13102753,0.058589544,-0.040480047000000005,18.36,21.6,5.4
1554109804071,-7.546523599999999,1.0241197,5.8268886,-0.068176925,0.054328485999999995,-0.07563378,18.36,21.48,5.46
1554109804093,-7.6135616,0.97144735,5.802946599999999,-0.025566347000000003,0.026631612000000002,-0.07563378,18.36,21.36,5.46
1554109804112,-7.6949644,1.0911574,5.549161,-0.00958738,0.00958738,-0.051132694000000006,18.3,21.24,5.46
1554109804132,-7.465121000000001,0.88525605,5.549161,-0.017044231,0.029827405,-0.01917476,18.3,21.12,5.52
1554109804151,-7.7093296,0.99060094,5.8508306,0.0031957934000000003,0.033023197000000004,-0.027696876000000002,18.3,21.06,5.52
1554109804171,-7.776367,1.1150993999999999,5.659294,0.039414786,0.007456851,-0.018109497,18.3,21.0,5.58
1554109804192,-7.5321584,1.2395979,5.486912,0.027696876000000002,-0.011717908999999999,-0.03089267,18.36,20.94,5.7
1554109804212,-7.608772999999999,1.2443863000000002,5.544372599999999,-0.033023197000000004,-0.0010652645,-0.05539375,18.36,20.88,5.82
1554109804232,-7.603985000000001,1.1294646000000002,5.817312,-0.08628642,-0.002130529,-0.049002163,18.36,20.82,5.88
1554109804252,-7.7428484,1.1725603,5.9130797,-0.06711166,-0.011717908999999999,-0.058589544,18.36,20.76,6.0
1554109804272,-7.541735000000001,1.0911574,5.927445,-0.039414786,-0.026631612000000002,-0.06285059999999999,18.36,20.76,6.06
1554109804291,-7.6375036,1.0911574,5.5826797,-0.008522116,-0.041545313,-0.07989483,18.3,20.7,6.12
1554109804312,-7.723694999999999,1.1198878,5.4102974,-0.043675844000000005,-0.026631612000000002,-0.08948222,18.3,20.7,6.12
1554109804331,-7.5321584,1.0049661,5.6257753,-0.11824436,0.0053263223,-0.08628642,18.3,20.64,6.12
1554109804351,-7.8146744,0.6266823,6.0519433,-0.15020229,0.04474111,-0.07030745599999999,18.24,20.64,6.12
1554109804371,-7.7428484,0.64583594,5.9561753,-0.05219796,0.027696876000000002,-0.01917476,18.24,20.64,6.06
1554109804391,-7.704541000000001,1.0863690000000001,5.6736593,0.04261058,0.011717908999999999,-0.017044231,18.24,20.64,6.0
1554109804411,-7.584830800000001,1.3162124,5.204396,0.07350325,-0.03195793,-0.014913702,18.18,20.64,6.0
1554109804432,-7.254431200000001,1.407192,5.146935,-0.020240024,-0.06391586,-0.02876214,18.18,20.64,5.94
1554109804451,-7.5082164,1.1150993999999999,5.6736593,-0.16724652,-0.06711166,-0.080960095,18.18,20.64,5.94
1554109804472,-7.4699089999999995,1.0672153999999998,5.7215432999999996,-0.18855181,-0.08735169,-0.09374327,18.18,20.64,5.94
1554109804495,-7.431602000000001,0.8182184,5.927445,-0.1949434,-0.096939065,-0.11930962,18.18,20.64,5.88
1554109804511,-7.4986396,0.8038531999999999,5.9849057,-0.16937704,-0.07989483,-0.12996227,18.18,20.58,5.82
1554109804532,-7.6231384,0.81343,5.8412538,-0.14061491,-0.07669904,-0.12250541,18.18,20.58,5.76
1554109804559,-7.7428484,0.7032967,6.0040593,-0.12144015,-0.037284255,-0.10546118,18.12,20.58,5.7
1554109804571,-7.7907324000000004,0.64583594,6.047155,-0.10226539,-0.020240024,-0.099069595,18.12,20.58,5.7
1554109804591,-7.680599000000001,0.57879823,5.951387,-0.046871635999999994,-0.011717908999999999,-0.08522116,18.06,20.52,5.64
1554109804611,-7.7332716,0.717662,5.788581400000001,0.023435817999999997,-0.02130529,-0.101200126,18.06,20.52,5.64
1554109804632,-7.680599000000001,0.9475053,5.515642,0.05006743,-0.046871635999999994,-0.101200126,18.0,20.52,5.64
1554109804652,-7.407660000000001,0.97144735,5.453393,0.02876214,-0.04474111,-0.08841695,18.0,20.52,5.58
1554109804672,-7.675811,0.6123171,5.7454852999999995,-0.043675844000000005,-0.03834952,-0.07989483,17.94,20.52,5.58
1554109804691,-7.6853875999999985,0.75596917,5.61141,-0.043675844000000005,-0.049002163,-0.07669904,17.94,20.58,5.58
1554109804712,-7.546523599999999,0.8038531999999999,5.606621700000001,-0.020240024,-0.068176925,-0.09267801,17.94,20.64,5.58
1554109804731,-7.493850999999999,0.9283517,5.817312,-0.01917476,-0.09054748,-0.11824436,18.0,20.7,5.58
1554109804752,-7.489063000000001,1.0097545,5.510854,-0.03089267,-0.10013486,-0.13315806,18.0,20.76,5.52
1554109804771,-7.407660000000001,0.6027403,5.9465985,-0.12144015,-0.06285059999999999,-0.10972224,18.06,20.88,5.4
1554109804791,-7.5561004,0.3585317,6.118981,-0.17363810000000002,-0.058589544,-0.12144015,18.06,20.94,5.34
1554109804811,-7.5800424,0.37289690000000003,6.2099605,-0.14807177,-0.04474111,-0.101200126,18.06,21.12,5.22
1554109804832,-7.603985000000001,0.48303019999999997,6.238691,-0.082025364,-0.022370555,-0.09161274,18.06,21.24,5.1
1554109804851,-7.522581599999999,0.6075286999999999,5.975329,0.0010652645,-0.022370555,-0.080960095,18.06,21.36,5.04
1554109804871,-7.4507556,0.8230068000000001,5.807735,0.04261058,-0.02130529,-0.07456851,18.0,21.42,4.92
1554109804892,-7.4842744,0.6889314999999999,5.6880245,0.041545313,-0.022370555,-0.056459017,17.94,21.54,4.86
1554109804911,-7.3406224,0.55006784,5.807735,-0.02130529,-0.027696876000000002,-0.06391586,17.94,21.6,4.8
1554109804931,-7.4507556,0.5021838,5.8508306,-0.04580637,-0.049002163,-0.08628642,17.94,21.72,4.86
1554109804952,-7.3310455999999995,0.6266823,5.802946599999999,-0.035153727999999995,-0.07243799,-0.101200126,17.94,21.78,4.8
1554109804971,-7.3406224,0.6410475,5.8747725,0.02130529,-0.10439592,-0.11824436,18.06,21.84,4.74
1554109804993,-7.417236999999999,0.6410475,5.7119665,0.051132694000000006,-0.15233281,-0.15339808,18.18,21.9,4.74
1554109805012,-7.493850999999999,0.55485624,5.8221,-0.0010652645,-0.17789917,-0.17363810000000002,18.3,21.9,4.68
1554109805031,-7.407660000000001,0.53091425,5.903503,-0.07137272,-0.18429075,-0.17789917,18.36,21.96,4.68
1554109805052,-7.369353,0.46866497,5.755062000000001,-0.10546118,-0.18216023,-0.18216023,18.42,22.02,4.62
1554109805072,-7.3071036,0.7751228,5.587468,-0.060720075,-0.20240025,-0.22370553,18.48,22.14,4.62
1554109805092,-7.254431200000001,1.287482,5.4102974,0.049002163,-0.26205507,-0.30360037,18.54,22.2,4.56
1554109805111,-7.077260000000001,1.5029601000000001,5.295376,0.08841695,-0.3685815,-0.40266997,18.54,22.38,4.56
1554109805132,-6.981492,0.95229375,5.831677,0.09587380000000001,-0.5209143,-0.57098174,18.42,22.56,4.5
1554109805152,-6.9767036,0.45429978,6.2865753,0.083090626,-0.65513766,-0.7052050999999999,18.36,22.74,4.5
1554109805172,-6.947973299999999,0.30107087,6.0423665,-0.037284255,-0.71479243,-0.7957525,18.3,22.98,4.32
1554109805191,-6.799533,-0.077213004,6.458957700000001,-0.2609898,-0.64768076,-0.76485986,18.24,23.4,4.08
1554109805212,-6.895301,-0.7811083000000001,6.9904703999999995,-0.6423545,-0.51026165,-0.66365975,18.18,23.88,3.72
1554109805232,-6.95755,-1.2503718000000001,7.3591776,-0.9331716999999998,-0.38562572,-0.5635249,18.18,24.48,3.42
1554109805252,-6.9671270000000005,-1.4227544,7.531560000000001,-1.0237192,-0.2790993,-0.49321744,18.18,25.2,3.06
1554109805272,-6.933608,-1.7292121999999999,7.6943655,-0.7584683000000001,-0.18429075,-0.44208476,18.12,25.8,2.7
1554109805292,-6.828263300000001,-1.5951369,7.483675999999999,-0.5028047999999999,-0.14913702,-0.39201729999999996,18.12,26.46,2.34
1554109805311,-6.794744500000001,-1.5089456,7.3208704,-0.19600865,-0.07669904,-0.30786142,18.12,27.12,1.98
1554109805331,-6.861782000000001,-1.7531542000000002,7.277775,0.017044231,-0.002130529,-0.21944448,18.06,27.66,1.8
1554109805352,-6.756437299999999,-1.6382325,7.325659,0.17363810000000002,0.039414786,-0.17044231,18.06,28.14,1.68
1554109805371,-6.7612257,-1.2695253999999998,6.7606273,0.28016454,0.06924219,-0.14168017,18.06,28.56,1.62
1554109805392,-6.789956,-1.049259,6.8611835999999995,0.28549087,0.10865697,-0.09587380000000001,18.0,28.8,1.62
1554109805412,-6.756437299999999,-0.86729956,6.707954400000001,0.27590349999999997,0.11717909,-0.07563378,18.0,29.1,1.68
1554109805431,-6.7133417,-0.7380127,6.7223196,0.2609898,0.099069595,-0.068176925,17.94,29.46,1.68
1554109805451,-6.6893997,-0.670975,6.4685345000000005,0.1949434,0.07882957,-0.06391586,17.88,29.7,1.68
1554109805471,-6.6941880000000005,-0.8194155000000001,6.607398,0.14061491,0.07243799,-0.07882957,17.88,30.0,1.68
1554109805491,-6.631939,-0.87687635,6.578667599999999,0.1768339,0.05965481,-0.10333065,17.82,30.3,1.74
1554109805511,-6.7851677,-0.8146270999999999,6.741472999999999,0.25566345,0.05219796,-0.128897,17.76,30.54,1.74
1554109805532,-6.775591,-0.7858967,6.913856,0.36005938,0.046871635999999994,-0.15978967,17.76,30.78,1.74
1554109805551,-6.847417,-0.623091,6.655282000000001,0.46552056,0.049002163,-0.16831179,17.7,30.96,1.74
1554109805572,-6.732495299999999,-0.6039374,6.7366850000000005,0.5411543000000001,0.04474111,-0.16937704,17.7,31.02,1.74
1554109805591,-6.770802499999999,-0.7092823,6.669647,0.5997439,0.041545313,-0.18642128,17.7,31.02,1.62
1554109805612,-6.9144545,-0.6278794,6.727108,0.6828345,0.027696876000000002,-0.21731395,17.7,31.02,1.56
1554109805631,-7.038953,-0.44592008,6.765415700000001,0.7616641,0.004261058,-0.21092236,17.76,31.02,1.44
1554109805651,-7.0581064,-0.27353755,6.583456,0.76592517,-0.027696876000000002,-0.21518342,17.76,31.08,1.38
1554109805672,-7.2113357,-0.14903906,6.5403605,0.6892261,-0.07137272,-0.22583607,17.76,31.2,1.26
1554109805692,-7.1634517,-0.17298107,6.6792240000000005,0.64768076,-0.08735169,-0.2130529,17.76,31.26,1.2
1554109805712,-7.2592196,-0.24480712,6.458957700000001,0.61678815,-0.101200126,-0.18535602,17.76,31.44,1.14
1554109805732,-7.1826053,-0.3405752,6.5403605,0.60933125,-0.10226539,-0.16405073,17.82,31.68,1.08
1554109805752,-7.105990400000001,-0.20649989,6.3392477,0.5944176,-0.083090626,-0.13209279,17.82,31.86,1.08
1554109805771,-7.105990400000001,-0.11552023,6.583456,0.56885123,-0.046871635999999994,-0.10759171,17.76,32.28,1.08
1554109805792,-6.943185000000001,-0.21607670000000004,6.4781113,0.55287224,-0.02876214,-0.094808534,17.7,32.4,1.08
1554109805811,-6.9096660000000005,-0.08678981,6.4828997,0.59228706,-0.017044231,-0.07456851,17.64,32.76,1.08
1554109805832,-6.8522053,0.22924481,6.4637459999999995,0.61572284,0.0,-0.04261058,17.64,32.94,0.9
1554109805851,-6.828263300000001,0.27712885,6.8132997,0.6306366,0.020240024,-0.02130529,17.58,33.0,0.72
1554109805871,-6.895301,0.23882163,6.765415700000001,0.6945524000000001,0.049002163,0.0010652645,17.52,33.06,0.48
1554109805891,-6.8091097000000005,0.5117606,6.535572,0.6924219,0.05006743,-0.004261058,17.46,33.18,0.3
1554109805911,-6.933608,0.6985083000000001,6.770204,0.5752428,0.049002163,-0.05006743,17.46,33.18,0.12
1554109805932,-6.924031299999999,0.65541273,6.8611835999999995,0.45486793,0.05539375,-0.020240024,17.4,33.24,-0.06
1554109805951,-6.6941880000000005,0.56922144,6.832453299999999,0.36432046,0.049002163,0.015978966,17.4,33.3,-0.24
1554109805972,-6.7277070000000005,0.66498953,7.138911,0.31957933,0.047936900000000005,0.046871635999999994,17.4,33.36,-0.42
1554109805992,-6.5840545,0.7032967,7.1341224,0.33662358,0.04474111,0.06498113,17.34,33.42,-0.48
1554109806012,-6.4787097000000005,0.7990648,6.985682000000001,0.46765109999999993,0.047936900000000005,0.083090626,17.4,33.54,-0.42
1554109806031,-6.4020953,0.8086416000000001,6.9665284,0.55606806,0.05006743,0.07243799,17.4,33.6,-0.42
1554109806051,-6.4787097000000005,1.158195,6.6265516,0.65513766,0.054328485999999995,0.04261058,17.34,33.66,-0.48
1554109806072,-6.4404025,1.4263457,6.5403605,0.6540724,0.046871635999999994,0.03195793,17.34,33.72,-0.54
1554109806092,-6.588842999999999,1.4502877,6.63134,0.6040049,0.037284255,0.0,17.34,33.72,-0.6
1554109806111,-6.6606693,1.7375918999999997,6.2817870000000005,0.515588,0.014913702,-0.03834952,17.4,33.66,-0.72
1554109806131,-6.6893997,1.6753427,6.5068417,0.43036684,0.0,-0.07456851,17.4,33.6,-0.78
1554109806151,-6.742072,1.6944963,6.2482677,0.38136467,-0.018109497,-0.10013486,17.4,33.48,-0.9
1554109806172,-6.8809357,1.6370354,6.291363700000001,0.36325517,-0.027696876000000002,-0.11824436,17.46,33.42,-0.96
1554109806192,-6.933608,1.6992846999999998,6.3488245,0.34408042,-0.03089267,-0.13315806,17.46,33.3,-1.08
1554109806212,-6.947973299999999,1.7758990000000001,6.377555,0.25992453,-0.035153727999999995,-0.14061491,17.46,33.24,-1.14
1554109806232,-6.95755,1.6561891,6.267421700000001,0.13315806,-0.022370555,-0.14913702,17.46,33.18,-1.2
1554109806253,-6.823475,1.6418238,6.305729,0.033023197000000004,-0.0010652645,-0.16192019,17.46,33.06,-1.26
1554109806272,-6.9144545,1.4550761,6.502053299999999,0.0031957934000000003,0.033023197000000004,-0.16618125,17.4,33.06,-1.32
1554109806292,-6.8665705,1.3784616000000003,6.367978,0.017044231,0.04474111,-0.16298546,17.34,33.06,-1.5
1554109806311,-6.813898,1.4454993,6.4110737,0.046871635999999994,0.04261058,-0.17257284,17.34,33.06,-1.62
1554109806332,-6.837839999999999,1.4694413,6.367978,0.037284255,0.02876214,-0.16405073,17.28,33.12,-1.74
1554109806352,-6.9767036,1.4263457,6.2195373,0.041545313,0.013848438000000001,-0.15020229,17.22,33.18,-1.8
1554109806371,-7.0006455999999995,1.5508442,6.1955953,0.041545313,-0.004261058,-0.12570119999999999,17.22,33.3,-1.92
1554109806391,-6.9958572,1.5029601000000001,6.353613,0.01917476,-0.011717908999999999,-0.10439592,17.22,33.42,-2.04
1554109806412,-7.015011,1.3928268,6.3584013,0.0010652645,-0.018109497,-0.08628642,17.28,33.6,-2.16
1554109806432,-7.086836999999999,1.4454993,6.4110737,0.008522116,-0.03089267,-0.08628642,17.28,33.78,-2.22
1554109806452,-7.0724716,1.6178818000000001,6.1620764999999995,0.0063915867,-0.04261058,-0.083090626,17.34,33.9,-2.22
1554109806471,-6.9288197,1.5412674,6.3009405,-0.04474111,-0.034088463,-0.07030745599999999,17.34,34.08,-2.28
1554109806491,-7.0006455999999995,1.335366,6.324882499999999,-0.10652645,-0.017044231,-0.07137272,17.34,34.2,-2.28
1554109806511,-7.0006455999999995,1.2970588,6.4781113,-0.12570119999999999,0.008522116,-0.06924219,17.34,34.32,-2.34
1554109806532,-6.9288197,1.1198878,6.664859,-0.15978967,0.033023197000000004,-0.04261058,17.34,34.32,-2.34
1554109806552,-7.134721300000001,1.1773487,6.4924764999999995,-0.14061491,0.05539375,-0.040480047000000005,17.34,34.38,-2.34
1554109806571,-7.029375999999999,1.2539631000000002,6.554725599999999,-0.10226539,0.06604639400000001,-0.024501082,17.34,34.38,-2.22
1554109806592,-7.053317999999999,1.38325,6.545148999999999,-0.07350325,0.07456851,-0.020240024,17.34,34.38,-2.22
1554109806612,-7.0245875999999985,1.3449427999999999,6.4781113,-0.06604639400000001,0.08841695,0.00958738,17.34,34.38,-2.16
1554109806632,-7.168239999999999,1.3497312,6.6983776,-0.082025364,0.12144015,0.046871635999999994,17.34,34.38,-2.1
1554109806651,-7.129933,1.2108675,6.913856,-0.05539375,0.13528858,0.07030745599999999,17.34,34.38,-1.98
1554109806672,-7.201759,1.3976152,6.688801,0.037284255,0.1438107,0.10439592,17.34,34.38,-1.86
1554109806692,-7.0006455999999995,1.4598645000000001,6.449381,0.10865697,0.15233281,0.12144015,17.34,34.38,-1.8
1554109806712,-7.0245875999999985,1.632247,6.3631897,0.16085494,0.165116,0.112918034,17.34,34.38,-1.68
1554109806731,-7.043741000000001,1.6178818000000001,6.1955953,0.18642128,0.16298546,0.09587380000000001,17.34,34.32,-1.62
1554109806752,-7.067683000000001,1.6944963,6.157287999999999,0.17044231,0.15126756,0.06498113,17.4,34.26,-1.56
1554109806771,-6.943185000000001,1.5412674,5.9465985,0.11504856,0.12144015,0.039414786,17.4,34.14,-1.5
1554109806792,-7.038953,1.6992846999999998,5.9705405,0.07563378,0.13528858,0.015978966,17.4,34.02,-1.44
1554109806812,-7.0341644,1.7567455,6.157287999999999,0.05752428,0.13102753,0.010652645,17.4,33.96,-1.32
1554109806831,-7.1155677,1.751957,6.0998273,0.06391586,0.11611383,-0.0010652645,17.46,33.84,-1.32
1554109806851,-7.0724716,1.6849195,5.8651957999999995,0.049002163,0.098004326,-0.007456851,17.46,33.72,-1.26
1554109806871,-7.1395097000000005,1.6944963,6.1381345000000005,0.03834952,0.07350325,-0.020240024,17.52,33.6,-1.2
1554109806892,-7.015011,1.7806876,5.9849057,0.040480047000000005,0.046871635999999994,-0.03089267,17.58,33.54,-1.14
1554109806912,-7.110779300000001,1.7902644,5.975329,0.04474111,0.043675844000000005,-0.037284255,17.64,33.48,-1.02
1554109806931,-7.1586633,1.8142063999999998,6.2195373,0.020240024,0.05219796,-0.043675844000000005,17.64,33.48,-0.96
1554109806951,-7.1586633,1.632247,6.1094040000000005,-0.029827405,0.05539375,-0.04474111,17.64,33.42,-0.9
1554109806972,-7.201759,1.6274586000000002,6.114192500000001,-0.034088463,0.05539375,-0.04580637,17.64,33.36,-0.84
1554109806992,-7.144297999999999,1.6801311,5.999271,0.007456851,0.05752428,-0.054328485999999995,17.64,33.3,-0.72
1554109807012,-7.2831616,1.8142063999999998,6.27221,0.07243799,0.047936900000000005,-0.06178534,17.64,33.3,-0.66
1554109807031,-7.1969705,1.6849195,5.9561753,0.060720075,0.04474111,-0.053263225,17.58,33.3,-0.54
1554109807051,-7.1826053,1.7328035,6.0040593,0.010652645,0.05219796,-0.05539375,17.58,33.3,-0.48
1554109807072,-7.2352777,1.5364790000000002,6.229114,-0.043675844000000005,0.053263225,-0.05219796,17.52,33.3,-0.42
1554109807092,-7.2640080000000005,1.6992846999999998,5.975329,-0.041545313,0.051132694000000006,-0.043675844000000005,17.52,33.3,-0.36
1554109807111,-7.350199000000001,1.6897078999999997,5.960963700000001,-0.02130529,0.05539375,-0.040480047000000005,17.52,33.3,-0.3
1554109807131,-7.383717999999999,1.7375918999999997,5.9130797,-0.014913702,0.056459017,-0.040480047000000005,17.46,33.3,-0.3
1554109807152,-7.4028716,1.6370354,6.0519433,-0.03195793,0.05752428,-0.037284255,17.46,33.24,-0.24
1554109807172,-7.3310455999999995,1.6418238,6.18123,-0.035153727999999995,0.056459017,-0.036218993,17.46,33.24,-0.12
1554109807192,-7.28795,1.5795746000000002,6.0280013,-0.02130529,0.058589544,-0.027696876000000002,17.46,33.18,0.0
1554109807212,-7.2975270000000005,1.6226702,6.023213,-0.007456851,0.07563378,-0.008522116,17.46,33.18,0.06
1554109807232,-7.2592196,1.5508442,6.2243257000000005,0.0010652645,0.10226539,-0.004261058,17.46,33.18,0.18
1554109807252,-7.431602000000001,1.6609775000000002,6.128557700000001,0.002130529,0.11504856,-0.0031957934000000003,17.58,33.18,0.3
1554109807272,-7.4268136,1.5987281999999998,6.238691,-0.010652645,0.12570119999999999,0.015978966,17.64,33.12,0.42
1554109807292,-7.441178999999999,1.5795746000000002,6.1237693,-0.037284255,0.15126756,0.035153727999999995,17.7,33.12,0.54
1554109807313,-7.3549875999999985,1.5077485000000002,6.2339025,-0.027696876000000002,0.18109496,0.06178534,17.82,33.12,0.66
1554109807331,-7.4028716,1.5460558,6.353613,-0.011717908999999999,0.21837921,0.07989483,17.88,33.12,0.72
1554109807352,-7.407660000000001,1.4838065,6.186018499999999,0.026631612000000002,0.257794,0.11717909,17.94,33.12,0.72
1554109807372,-7.513005000000001,1.5652093999999999,6.2769985,0.07882957,0.294013,0.14487597,18.0,33.12,0.78
1554109807392,-7.546523599999999,1.6944963,6.1716533,0.09374327,0.31318775,0.15552860000000002,18.0,33.12,0.9
1554109807412,-7.565677,1.632247,6.095039,0.053263225,0.33981937,0.17789917,18.0,33.12,0.96
1554109807431,-7.5944076,1.7375918999999997,6.1668650000000005,-0.022370555,0.38136467,0.20772657,18.0,33.06,0.96
1554109807451,-7.575253999999999,1.584363,5.960963700000001,-0.08948222,0.43249738,0.24501082,18.0,33.0,1.08
1554109807472,-7.675811,1.5795746000000002,5.831677,-0.10333065,0.5070659000000001,0.30146983,18.0,32.88,1.32
1554109807492,-7.61835,1.7758990000000001,5.740697,0.010652645,0.5592638000000001,0.32490566,18.0,32.76,1.5
1554109807512,-7.7811556,2.0009542000000002,5.462969999999999,0.18961707,0.59122175,0.330232,18.0,32.58,1.74
1554109807531,-7.7907324000000004,2.1972785,5.2810106,0.26418558,0.5795039000000001,0.31851408,17.94,32.34,1.98
1554109807551,-7.6135616,2.345719,4.912303400000001,0.23329292,0.5454154,0.30466563,18.0,31.92,2.22
1554109807571,-7.6614455999999995,2.5228900000000003,4.6297874000000006,0.10972224,0.49960902,0.30253512,18.0,31.44,2.52
1554109807591,-7.6518690000000005,2.508525,4.524442700000001,0.027696876000000002,0.45593318,0.30040458,18.0,30.96,2.88
1554109807612,-7.4746976,2.484583,4.280234,-0.058589544,0.39414784,0.28549087,18.0,30.54,3.42
1554109807632,-7.632714999999999,2.5516205000000003,4.5723267,-0.06924219,0.36645097,0.27483824,18.0,30.12,3.9
1554109807651,-7.5608889999999995,2.6042929,4.500500700000001,0.007456851,0.3206446,0.24074976,18.0,29.76,4.32
1554109807671,-7.627927000000001,2.771887,4.2945995,0.10972224,0.2727077,0.18322548,18.0,29.28,4.74
1554109807692,-7.5944076,2.9059622000000003,3.9594111000000005,0.16724652,0.22050974,0.13954964,17.94,28.8,5.16
1554109807712,-7.6710224,3.0400376000000002,3.8109705000000003,0.14274544,0.16405073,0.082025364,17.94,28.38,5.58
1554109807732,-7.795521000000001,3.044826,3.8492777,0.07456851,0.10652645,0.03195793,17.88,28.14,5.94
1554109807752,-7.881711999999999,3.0639796,3.9833531000000004,-0.027696876000000002,0.024501082,-0.040480047000000005,17.88,27.84,6.24
1554109807771,-8.111555000000001,3.0831332000000002,4.136582,-0.06604639400000001,-0.018109497,-0.09054748,17.76,27.6,6.3
1554109807791,-8.082825,2.9538465,4.0934862999999995,-0.033023197000000004,-0.07669904,-0.15126756,17.7,27.42,6.36
1554109807812,-8.054094000000001,2.7670987,4.222773,-0.08522116,-0.09267801,-0.16085494,17.64,27.18,6.42
1554109807832,-7.967903,2.321777,4.672883000000001,-0.25140239999999997,-0.07776430000000001,-0.14274544,17.58,27.12,6.48
1554109807852,-8.039729,2.1350293,4.960187400000001,-0.3057309,-0.05539375,-0.09267801,17.52,27.18,6.48
1554109807872,-8.015787,2.1350293,4.854842700000001,-0.20453078,-0.025566347000000003,-0.03195793,17.46,27.18,6.54
1554109807892,-8.101977999999999,2.6186580000000004,4.6776714,-0.034088463,-0.010652645,-0.023435817999999997,17.46,27.18,6.54
1554109807914,-8.0445175,2.7670987,4.7782279999999995,0.025566347000000003,-0.002130529,-0.037284255,17.46,27.18,6.54
1554109807932,-8.078036,2.8963853999999998,4.577115,0.015978966,-0.0063915867,-0.05752428,17.4,27.18,6.54
1554109807951,-8.101977999999999,2.771887,4.6441526,-0.026631612000000002,-0.0063915867,-0.06924219,17.4,27.18,6.54
1554109807971,-8.0445175,2.5468319999999998,4.744708999999999,-0.06924219,0.0053263223,-0.056459017,17.4,27.12,6.54
1554109807991,-8.006210000000001,2.1924900000000003,4.8979383,-0.09161274,0.033023197000000004,-0.041545313,17.4,27.06,6.6
1554109808011,-8.111555000000001,2.259528,5.036802,-0.05965481,0.04580637,-0.05006743,17.4,27.0,6.6
1554109808032,-8.034941,2.6569653,4.586692,-0.002130529,0.033023197000000004,-0.068176925,17.4,27.0,6.6
1554109808051,-8.054094000000001,2.6042929,4.6297874000000006,-0.0031957934000000003,0.04474111,-0.07669904,17.34,26.94,6.66
1554109808072,-8.145074000000001,2.28347,4.7878050000000005,-0.008522116,0.05752428,-0.07882957,17.34,26.94,6.66
1554109808092,-8.169016000000001,2.178125,4.6920366,0.017044231,0.05539375,-0.06604639400000001,17.34,26.94,6.66
1554109808111,-8.0924015,2.417545,4.6202106,0.06391586,0.054328485999999995,-0.06498113,17.34,26.94,6.66
1554109808132,-8.087613000000001,2.4893713,4.577115,0.07563378,0.06285059999999999,-0.06391586,17.4,27.0,6.66
1554109808152,-8.082825,2.5420437000000002,4.634576,0.041545313,0.05752428,-0.06498113,17.4,27.0,6.66
1554109808172,-8.010999,2.379238,4.577115,0.014913702,0.051132694000000006,-0.06285059999999999,17.4,27.06,6.72
1554109808191,-8.130709,2.168548,4.4957123,0.013848438000000001,0.04261058,-0.05219796,17.46,27.12,6.72
1554109808211,-8.020576,2.3265655,4.6154222,0.04580637,0.024501082,-0.056459017,17.46,27.18,6.72
1554109808232,-8.015787,2.5516205000000003,4.6297874000000006,0.058589544,-0.002130529,-0.07243799,17.46,27.24,6.72
1554109808252,-7.963114699999999,2.6234465,4.500500700000001,0.020240024,-0.014913702,-0.07350325,17.52,27.3,6.78
1554109808271,-8.087613000000001,2.4702177000000005,4.4957123,0.0,-0.020240024,-0.07989483,17.46,27.3,6.84
1554109808292,-8.111555000000001,2.4893713,4.409521,-0.0031957934000000003,-0.027696876000000002,-0.082025364,17.4,27.36,6.9
1554109808312,-8.073248,2.3840263,4.2898107,-0.012783173500000002,-0.025566347000000003,-0.082025364,17.34,27.42,6.96
1554109808331,-8.159439,2.3265655,4.32333,-0.024501082,-0.04474111,-0.09267801,17.34,27.48,7.02
1554109808351,-8.106767,2.3026235,4.44304,-0.07776430000000001,-0.041545313,-0.08735169,17.28,27.54,7.02
1554109808372,-8.1163435,2.40318,4.5962687,-0.10972224,-0.04261058,-0.09161274,17.22,27.6,7.02
1554109808392,-8.082825,2.3600842999999996,4.672883000000001,-0.083090626,-0.049002163,-0.10972224,17.16,27.6,7.02
1554109808412,-8.034941,2.3936029999999997,4.5723267,-0.06498113,-0.049002163,-0.11824436,17.04,27.6,7.02
1554109808431,-8.250419,2.3409307,4.6154222,-0.082025364,-0.04474111,-0.10439592,17.04,27.6,6.96
1554109808451,-8.130709,2.1829132999999996,4.6920366,-0.082025364,-0.043675844000000005,-0.07669904,17.04,27.66,6.96
1554109808472,-8.087613000000001,2.3983915000000002,4.7830167,-0.029827405,-0.043675844000000005,-0.07989483,17.04,27.66,6.96
1554109808492,-8.1881695,2.3648727000000003,4.577115,-0.011717908999999999,-0.03834952,-0.07989483,17.04,27.66,6.96
1554109808511,-8.149861999999999,2.3696610000000002,4.830900700000001,-0.012783173500000002,-0.039414786,-0.07456851,17.04,27.72,7.02
1554109808531,-8.101977999999999,2.3361422999999997,4.768651,-0.026631612000000002,-0.04474111,-0.06711166,17.04,27.84,7.02
1554109808552,-8.058883,2.28347,4.6202106,-0.033023197000000004,-0.043675844000000005,-0.054328485999999995,16.98,27.9,7.08
1554109808572,-8.154651,2.2212207000000004,4.797382,-0.015978966,-0.039414786,-0.051132694000000006,16.98,27.96,7.08
1554109808592,-8.106767,2.345719,4.672883000000001,0.008522116,-0.04261058,-0.05539375,16.98,28.02,7.08
1554109808611,-8.121132000000001,2.355296,4.601057,0.0063915867,-0.04261058,-0.06498113,16.98,28.08,7.08
1554109808631,-8.1163435,2.3409307,4.529230999999999,-0.022370555,-0.04580637,-0.05965481,16.92,28.2,7.02
1554109808652,-8.087613000000001,2.1972785,4.634576,-0.056459017,-0.041545313,-0.05219796,16.92,28.2,7.02
1554109808672,-8.149861999999999,2.1254525,4.768651,-0.04474111,-0.039414786,-0.043675844000000005,16.98,28.2,7.02
1554109808691,-8.049306,2.2547395,4.888361499999999,-0.023435817999999997,-0.029827405,-0.040480047000000005,16.98,28.2,7.02
1554109808711,-8.0445175,2.3122002999999998,4.859630999999999,-0.004261058,-0.017044231,-0.039414786,17.04,28.26,7.02
1554109808732,-7.9343843,2.2691047,4.859630999999999,-0.004261058,-0.0053263223,-0.04580637,17.04,28.32,7.02
1554109808751,-8.130709,2.3505075,4.768651,-0.0010652645,0.004261058,-0.056459017,17.1,28.38,7.08
1554109808771,-8.145074000000001,2.2451627,4.883573,0.004261058,0.010652645,-0.056459017,17.1,28.38,7.08
1554109808792,-8.145074000000001,2.3122002999999998,4.6058455,0.002130529,-0.002130529,-0.054328485999999995,17.16,28.44,7.08
1554109808812,-8.073248,2.2451627,4.648941000000001,-0.022370555,-0.0031957934000000003,-0.05752428,17.22,28.44,7.08
1554109808831,-7.967903,2.2212207000000004,4.759074,-0.034088463,-0.0053263223,-0.05752428,17.22,28.38,7.08
1554109808851,-8.111555000000001,2.3361422999999997,4.6776714,-0.033023197000000004,-0.008522116,-0.06178534,17.22,28.38,7.08
1554109808872,-8.087613000000001,2.2691047,4.7878050000000005,-0.033023197000000004,-0.008522116,-0.06178534,17.28,28.32,7.08
1554109808892,-8.0445175,2.1877017000000003,4.8165355000000005,-0.017044231,-0.018109497,-0.06391586,17.28,28.26,7.02
1554109808912,-8.111555000000001,2.1829132999999996,4.601057,0.010652645,-0.035153727999999995,-0.05752428,17.34,28.2,6.96
1554109808931,-8.010999,2.1637597,4.7399206,0.004261058,-0.041545313,-0.05965481,17.34,28.14,6.9
1554109808951,-8.006210000000001,2.28347,4.6920366,0.0,-0.05006743,-0.068176925,17.4,28.14,6.78
1554109808972,-8.073248,2.307412,4.6058455,-0.015978966,-0.053263225,-0.083090626,17.4,28.14,6.72
1554109808992,-8.087613000000001,2.144606,4.7303440000000005,-0.036218993,-0.05752428,-0.07669904,17.46,28.2,6.66
1554109809011,-8.197746,2.1733365,4.7494974,-0.060720075,-0.047936900000000005,-0.054328485999999995,17.46,28.2,6.6
1554109809031,-8.207322999999999,2.0057424999999998,5.003283000000001,-0.07137272,-0.037284255,-0.03089267,17.46,28.26,6.54
1554109809051,-8.111555000000001,2.2691047,4.6633059999999995,-0.027696876000000002,-0.05006743,-0.026631612000000002,17.46,28.26,6.54
1554109809072,-7.967903,2.3505075,4.735132,-0.02130529,-0.060720075,-0.054328485999999995,17.46,28.32,6.54
1554109809091,-7.795521000000001,2.3840263,4.3999443,0.0010652645,-0.09054748,-0.09374327,17.46,28.32,6.54
1554109809111,-7.872135000000001,2.5276785,4.2610803,-0.06924219,-0.11930962,-0.13102753,17.4,28.32,6.54
1554109809132,-7.9248075,2.2499511,4.6058455,-0.15126756,-0.1470065,-0.1587244,17.34,28.32,6.54
1554109809152,-7.896077,2.2930467,4.44304,-0.17044231,-0.20772657,-0.20985709,17.34,28.32,6.54
1554109809171,-7.996633500000001,2.259528,4.3903675,-0.2066613,-0.24181503,-0.23968449999999997,17.28,28.38,6.42
1554109809192,-8.006210000000001,2.1637597,4.706402,-0.24394555,-0.28336033,-0.26525086,17.28,28.44,6.36
1554109809212,-7.9008656,2.0105310000000003,4.6154222,-0.25140239999999997,-0.34408042,-0.29933932,17.22,28.5,6.24
1554109809232,-7.7667904000000005,2.1062990000000004,4.6297874000000006,-0.24074976,-0.4133226,-0.34194988,17.16,28.62,6.18
1554109809251,-7.771578999999999,2.1398177000000005,4.7878050000000005,-0.20240025,-0.46871635,-0.38562572,17.16,28.68,6.06
1554109809272,-7.6710224,2.0632033,4.869208,-0.12357068,-0.5219796,-0.43036684,17.16,28.8,5.94
1554109809292,-7.522581599999999,1.8429368000000002,5.295376,-0.10759171,-0.5581986,-0.49428272,17.16,29.04,5.82
1554109809312,-7.642291999999999,1.7471686999999998,5.4390279999999995,-0.18642128,-0.5795039000000001,-0.55074173,17.16,29.28,5.7
1554109809331,-7.4507556,1.4838065,5.472546599999999,-0.37923414,-0.5763081,-0.5613944000000001,17.22,29.7,5.52
1554109809351,-7.5034279999999995,1.3545196000000002,6.0040593,-0.5795039000000001,-0.51665324,-0.60293967,17.22,30.12,5.22
1554109809372,-7.6853875999999985,0.95229375,6.449381,-0.572047,-0.45912898,-0.56672066,17.22,30.54,4.86
1554109809391,-7.493850999999999,0.20530279,6.602609599999999,-0.46232477,-0.4016047,-0.46339005,17.22,31.08,4.44
1554109809411,-7.61835,0.31543607,7.043143,-0.27377295,-0.31957933,-0.49854377,17.22,31.56,4.08
1554109809432,-7.5561004,0.6171055000000001,6.473323000000001,0.02130529,-0.2428803,-0.38456047,17.22,32.04,3.72
1554109809451,-7.417236999999999,0.55964464,6.2482677,0.11611383,-0.19813919,-0.33981937,17.22,32.46,3.36
1554109809471,-7.517792999999999,0.65541273,6.4062852999999995,0.14061491,-0.15020229,-0.3057309,17.22,32.88,3.06
1554109809492,-7.513005000000001,0.66020113,6.0806737,0.12570119999999999,-0.10439592,-0.22050974,17.22,33.18,2.76
1554109809512,-7.551311999999999,0.27712885,6.0280013,0.24714136,-0.053263225,-0.13954964,17.22,33.54,2.64
1554109809532,-7.192182000000001,0.7224503999999999,6.0088477,0.36005938,-0.07882957,-0.11930962,17.22,33.9,2.64
1554109809551,-7.479486,1.3545196000000002,5.6736593,0.30892670000000005,-0.12144015,-0.24501082,17.22,34.2,2.52
1554109809571,-7.2065472999999995,1.1725603,5.668871,0.096939065,-0.14274544,-0.20026971,17.22,34.56,2.46
1554109809591,-7.1826053,1.1486181999999998,5.769428,-0.17150758,-0.15552860000000002,-0.21198763,17.22,34.86,2.4
1554109809611,-7.2304892999999995,0.9475053,5.846042,-0.36751625,-0.18109496,-0.22370553,17.16,35.22,2.28
1554109809632,-7.086836999999999,0.81343,5.994482499999999,-0.46978164,-0.22370553,-0.23435818,17.1,35.46,2.22
1554109809652,-6.9719152,1.1486181999999998,6.0088477,-0.4825648,-0.25992453,-0.27377295,17.1,35.7,2.1
1554109809671,-6.981492,0.789488,5.994482499999999,-0.48682585,-0.28336033,-0.30146983,17.04,35.82,2.04
1554109809691,-6.861782000000001,0.75596917,6.2626333,-0.55606806,-0.29294774,-0.330232,16.98,35.94,1.92
1554109809713,-6.9048777,0.49739540000000004,6.186018499999999,-0.5763081,-0.31212249999999997,-0.3568636,16.86,36.12,1.86
1554109809733,-6.8522053,0.0664391,6.118981,-0.49641323,-0.33555830000000003,-0.30360037,16.8,36.3,1.86
1554109809752,-6.603208,0.08080431,5.774216,-0.5070659000000001,-0.39627838,-0.4133226,16.74,36.54,1.8
1554109809775,-6.7229185,0.17178397,5.960963700000001,-0.7776430000000001,-0.46232477,-0.5837649,16.68,37.02,1.8
1554109809791,-6.5457472999999995,0.10474633,5.975329,-0.9864349,-0.49960902,-0.59122175,16.62,37.2,1.8
1554109809811,-6.4499793,0.43993455,5.9801173,-1.1899004,-0.5070659000000001,-0.5390238,16.5,37.56,1.8
1554109809832,-6.2249246,-0.7428011,6.1764417,-1.1590078000000001,-0.51771855,-0.28975195,16.38,38.1,1.8
1554109809851,-6.105214,-1.1402385,6.3584013,-1.135572,-0.5390238,-0.3568636,16.32,38.34,1.8
1554109809872,-6.1578870000000006,-1.3269863000000002,6.3727665,-1.1526161,-0.5795039000000001,-0.6508765999999999,16.2,38.82,1.8
1554109809892,-6.291962,-1.5616181,6.5068417,-1.1920309,-0.6306366,-0.8000136,16.14,39.36,1.74
1554109809912,-6.0956373,-2.1218612,6.4685345000000005,-1.2761868,-0.6178534000000001,-0.7861651999999999,16.02,39.84,1.74
1554109809932,-5.90889,-2.6150667999999997,6.1955953,-1.4668691,-0.5454154,-0.8021441,15.96,40.32,1.74
1554109809951,-5.7939680000000005,-2.9741971,6.2865753,-1.6692694,-0.44847634,-0.84368944,15.84,40.74,1.74
1554109809971,-5.7700260000000005,-3.4290953,6.5164184999999994,-1.8791265,-0.36325517,-0.78083885,15.54,41.4,1.62
1554109809991,-5.60722,-4.022857,6.6217630000000005,-1.9057581000000001,-0.34301516,-0.7499462,15.3,41.94,1.62
1554109810011,-5.530606,-4.31495,6.707954400000001,-1.8205369999999998,-0.3270362,-0.7701861999999999,15.06,42.54,1.56
1554109810032,-5.6551046,-4.520851,6.607398,-1.5947008999999999,-0.31851408,-0.8042746999999999,14.82,43.08,1.62
1554109810051,-5.6886234,-4.8320975,6.727108,-1.284709,-0.30466563,-0.8159926,14.52,43.62,1.8
1554109810072,-5.5976434,-5.1146135,6.731896400000001,-0.9598033000000001,-0.2972088,-0.79681784,14.28,44.16,2.04
1554109810092,-5.535394,-5.047576,6.616975,-0.68389976,-0.30146983,-0.7669904000000001,14.04,44.64,2.46
1554109810112,-5.391742,-5.4498014,6.554725599999999,-0.5049353,-0.31212249999999997,-0.73290193,13.86,45.24,2.88
1554109810132,-5.473145,-5.468955,6.4302273,-0.41758367,-0.30679616,-0.6668556,13.74,45.9,3.36
1554109810151,-5.473145,-5.6461263,6.4541693,-0.28122982,-0.28229508,-0.6040049,13.62,46.5,3.78
1554109810172,-5.506664,-5.5647235,6.3153057,-0.19813919,-0.27483824,-0.5305017,13.5,47.04,4.2
1554109810192,-5.3582234,-5.559935,6.4302273,-0.15233281,-0.26525086,-0.49428272,13.32,47.52,4.56
1554109810212,-5.3821654,-5.828085400000001,6.329671,-0.20240025,-0.25992453,-0.45806372,13.14,48.0,4.8
1554109810232,-5.420472599999999,-5.9621606,6.3631897,-0.2972088,-0.23542345,-0.42077947,12.9,48.48,4.86
1554109810252,-5.329493,-5.761048000000001,6.4828997,-0.32384038,-0.19174760000000002,-0.37284255,12.6,49.08,4.8
1554109810272,-5.2241483,-5.9717374,6.458957700000001,-0.30253512,-0.15978967,-0.30146983,12.3,49.74,4.74
1554109810292,-5.2385135,-5.9717374,6.707954400000001,-0.2545982,-0.14913702,-0.25353295,12.06,50.22,4.68
1554109810311,-5.0086699999999995,-5.828085400000001,6.602609599999999,-0.16405073,-0.16831179,-0.23222765,11.88,50.64,4.68
1554109810332,-4.9895163,-5.847239,6.4685345000000005,-0.046871635999999994,-0.18961707,-0.2034655,11.64,51.06,4.62
1554109810352,-4.831499,-5.7323174,6.559514,0.08735169,-0.20879184,-0.17150758,11.52,51.42,4.56
1554109810371,-4.7165775000000005,-5.5503583,6.3344593,0.16192019,-0.22050974,-0.1587244,11.4,51.72,4.5
1554109810392,-4.707000700000001,-5.3971290000000005,6.2003837,0.17044231,-0.23329292,-0.14807177,11.34,51.96,4.5
1554109810412,-4.582502,-5.21517,6.1046157,0.08522116,-0.23435818,-0.13102753,11.34,52.14,4.44
1554109810431,-4.525041000000001,-5.3396683,5.9561753,-0.053263225,-0.23329292,-0.11824436,11.28,52.14,4.38
1554109810451,-4.4436383,-5.3540335,5.8987145,-0.21731395,-0.22050974,-0.10333065,11.22,52.2,4.32
1554109810472,-4.429273,-5.478532,5.7598505,-0.35579833,-0.20453078,-0.08948222,11.16,52.2,4.26
1554109810492,-4.4484267,-5.559935,5.7263317,-0.48043427,-0.18535602,-0.068176925,11.1,52.26,4.2
1554109810515,-4.3574470000000005,-5.6221843,5.539584,-0.6540724,-0.16085494,-0.051132694000000006,11.04,52.26,4.14
1554109810532,-4.362235500000001,-5.5695120000000005,5.506065400000001,-0.9012136999999999,-0.15020229,-0.039414786,10.98,52.32,4.08
1554109810551,-4.367024,-5.7323174,5.563526,-1.1781825000000001,-0.14274544,-0.03089267,10.92,52.38,4.08
1554109810571,-4.333505000000001,-6.0866594,5.458181400000001,-1.4125406999999999,-0.16405073,-0.026631612000000002,10.92,52.5,4.02
1554109810593,-4.3478703,-6.5655,5.6257753,-1.5701998,-0.18216023,-0.04580637,10.86,52.56,4.08
1554109810613,-4.228160400000001,-7.0347633,5.6976013,-1.5382419,-0.2066613,-0.05752428,10.86,52.62,4.2
1554109810632,-4.280833,-7.3938932,5.7646394,-1.3241237,-0.2066613,-0.06285059999999999,10.86,52.68,4.38
1554109810652,-4.1515455,-7.599794999999999,5.7359085,-1.0173275,-0.18642128,-0.07456851,10.86,52.68,4.62
1554109810672,-4.1371803,-7.6668324000000005,5.7646394,-0.6849651,-0.18322548,-0.068176925,10.8,52.68,4.92
1554109810693,-4.261679,-7.6333137,5.606621700000001,-0.43569317,-0.19068234,-0.03195793,10.74,52.56,5.28
1554109810712,-4.189853,-7.681197599999999,5.539584,-0.22903186,-0.18642128,0.00958738,10.68,52.44,5.76
1554109810732,-4.343082,-7.4896617,5.568314599999999,-0.04261058,-0.2066613,0.05965481,10.62,52.26,6.24
1554109810752,-4.314351599999999,-7.389105000000001,5.61141,0.080960095,-0.23009712,0.10652645,10.68,52.08,6.66
1554109810772,-4.4436383,-7.317278999999999,5.563526,0.22370553,-0.23968449999999997,0.13741912,10.68,51.9,7.02
1554109810791,-4.4436383,-7.044339999999999,5.6736593,0.386691,-0.23968449999999997,0.16937704,10.74,51.66,7.32
1554109810812,-4.3718123,-6.9342065,5.6497173,0.5091964,-0.23648871,0.21092236,10.86,51.48,7.62
1554109810832,-4.434061499999999,-6.824073299999999,5.755062000000001,0.5305017,-0.23329292,0.23435818,10.98,51.42,7.62
1554109810851,-4.367024,-6.6612678,5.644929,0.54648066,-0.22903186,0.25992453,11.1,51.36,7.44
1554109810872,-4.3478703,-6.464943,5.6736593,0.5273059,-0.21731395,0.28868666,11.22,51.3,7.2
1554109810892,-4.237737,-6.311714,5.769428,0.47617322,-0.20879184,0.2972088,11.28,51.24,6.9
1554109810912,-4.2425256,-6.282984,5.9130797,0.41864893,-0.20240025,0.30360037,11.28,51.12,6.54
1554109810931,-4.103661499999999,-6.2303114,5.917868,0.34621096,-0.2066613,0.29933932,11.4,50.94,6.18
1554109810951,-4.0078936,-6.168062,6.1620764999999995,0.2908172,-0.21411815,0.29507825,11.46,50.76,5.82
1554109810973,-3.9600096,-6.0483522,6.0758852999999995,0.2695119,-0.23009712,0.28975195,11.58,50.52,5.46
1554109810993,-3.9217023999999996,-6.0387754000000005,6.3153057,0.25672874,-0.24501082,0.27590349999999997,11.76,50.22,5.1
1554109811012,-4.0270470000000005,-6.0291986,6.425439,0.28868666,-0.25033715,0.24714136,12.0,49.92,4.8
1554109811032,-3.9983168,-5.895123,6.2626333,0.33449304,-0.2428803,0.21518342,12.24,49.68,4.44
1554109811051,-3.98874,-5.875969400000001,6.3584013,0.39095205,-0.22796659,0.18216023,12.54,49.38,4.08
1554109811071,-3.9312792,-5.875969400000001,6.3631897,0.43782368,-0.19707392,0.15765914,12.84,49.08,3.78
1554109811092,-3.9983168,-5.837662,6.3488245,0.4825648,-0.16405073,0.13528858,13.14,48.84,3.42
1554109811112,-4.0174704,-5.737106,6.4781113,0.5454154,-0.13528858,0.112918034,13.38,48.6,3.0
1554109811132,-4.0892963,-5.430648000000001,6.329671,0.55287224,-0.10013486,0.09587380000000001,13.56,48.36,2.7
1554109811152,-4.0797195,-5.3205147,6.186018499999999,0.5028047999999999,-0.06498113,0.07882957,13.68,48.18,2.4
1554109811172,-4.1276035,-5.382764,6.2769985,0.46232477,-0.03834952,0.058589544,13.74,47.94,2.16
1554109811191,-4.1371803,-5.310938,6.4828997,0.4314321,-0.015978966,0.039414786,13.74,47.76,1.98
1554109811211,-4.146757,-5.167286,6.449381,0.40586576,0.0063915867,0.013848438000000001,13.74,47.58,1.74
1554109811231,-4.223372,-5.037999,6.4302273,0.37603834,0.012783173500000002,0.013848438000000001,13.68,47.4,1.5
1554109811251,-4.3861775000000005,-5.0427876,6.3488245,0.3270362,0.01917476,0.018109497,13.62,47.28,1.2
1554109811272,-4.4580035,-4.956596,6.5068417,0.25672874,0.013848438000000001,0.010652645,13.56,47.16,0.96
1554109811291,-4.343082,-5.061941,6.51163,0.14487597,0.004261058,0.007456851,13.56,47.04,0.72
1554109811312,-4.3813889999999995,-5.0427876,6.578667599999999,0.058589544,0.0031957934000000003,0.0010652645,13.62,46.98,0.54
1554109811332,-4.434061499999999,-4.9518075,6.717531,0.011717908999999999,0.011717908999999999,-0.0010652645,13.68,46.92,0.3
1554109811351,-4.376600700000001,-5.119402,6.712743,-0.02876214,0.018109497,0.0010652645,13.74,46.86,0.18
1554109811372,-4.285621,-5.1768627,6.995259,-0.033023197000000004,0.020240024,0.0053263223,13.8,46.8,0.06
1554109811391,-4.462791999999999,-5.0284224,6.899491,0.012783173500000002,0.020240024,-0.011717908999999999,13.86,46.74,0.0
1554109811411,-4.4196963,-5.1241902999999995,6.6792240000000005,0.03195793,0.007456851,-0.018109497,13.92,46.62,0.06
1554109811431,-4.256891,-5.119402,6.765415700000001,0.035153727999999995,-0.0053263223,0.0010652645,13.98,46.44,0.06
1554109811452,-4.4149080000000005,-5.119402,6.7941460000000005,0.09587380000000001,-0.011717908999999999,0.0,13.98,46.32,0.06
1554109811471,-4.4005427,-5.1768627,6.818088,0.12996227,-0.011717908999999999,0.010652645,14.04,46.14,-0.06
1554109811492,-4.4101195,-5.0427876,6.63134,0.1587244,-0.023435817999999997,0.027696876000000002,14.04,46.02,-0.24
1554109811512,-4.548983,-5.0427876,6.7606273,0.1587244,-0.0063915867,0.04261058,14.04,45.9,-0.42
1554109811531,-4.4675803,-5.0427876,6.669647,0.14807177,0.010652645,0.06604639400000001,14.04,45.72,-0.66
1554109811552,-4.4963107,-4.8704047,6.684012400000001,0.112918034,0.013848438000000001,0.06391586,14.1,45.66,-0.72
1554109811572,-4.477157,-4.875193,6.832453299999999,0.10546118,0.01917476,0.07563378,14.1,45.66,-0.78
1554109811592,-4.405330999999999,-4.7937902999999995,6.779781,0.10546118,0.008522116,0.07776430000000001,14.1,45.66,-0.9
1554109811612,-4.3957543,-4.678869000000001,6.818088,0.07243799,0.00958738,0.041545313,14.1,45.66,-0.96
1554109811631,-4.280833,-4.6261964,6.8516070000000004,0.034088463,0.008522116,0.010652645,14.1,45.66,-0.96
1554109811651,-4.295198,-4.544793599999999,6.9425864,-0.017044231,0.025566347000000003,0.0,14.16,45.66,-0.9
1554109811673,-4.271256,-4.7219644,6.875549,-0.056459017,0.039414786,-0.023435817999999997,14.22,45.6,-0.84
1554109811692,-4.314351599999999,-4.5926776,6.909067599999999,-0.099069595,0.04261058,-0.06391586,14.22,45.54,-0.84
1554109811711,-4.3957543,-4.4921207,6.880337,-0.113983296,0.056459017,-0.096939065,14.28,45.48,-0.78
1554109811731,-4.43885,-4.7842135,6.6983776,-0.12570119999999999,0.053263225,-0.11611383,14.28,45.42,-0.78
1554109811751,-4.4675803,-4.8320975,6.741472999999999,-0.19174760000000002,0.056459017,-0.15020229,14.34,45.36,-0.78
1554109811772,-4.7453080000000005,-4.980538,6.770204,-0.23329292,0.05539375,-0.17470337,14.34,45.36,-0.72
1554109811792,-4.6255975,-5.0236335,6.765415700000001,-0.25353295,0.04580637,-0.16192019,14.28,45.36,-0.66
1554109811811,-4.697424,-5.2199583,6.7941460000000005,-0.26525086,0.051132694000000006,-0.14594123,14.28,45.36,-0.6
1554109811832,-4.644751,-5.3444567,6.827665,-0.257794,0.043675844000000005,-0.12783173,14.28,45.42,-0.48
1554109811852,-4.6016555,-5.349245,6.913856,-0.1949434,0.05539375,-0.10759171,14.22,45.42,-0.24
1554109811872,-4.6160207,-5.3971290000000005,6.8228765,-0.10865697,0.06285059999999999,-0.07776430000000001,14.16,45.48,0.0
1554109811892,-4.525041000000001,-5.492897,6.9521630000000005,-0.0063915867,0.07776430000000001,-0.04474111,14.16,45.54,0.18
1554109811911,-4.5537715,-5.325303,6.870760400000001,0.08735169,0.10013486,-0.022370555,14.1,45.6,0.3
1554109811932,-4.5777135,-5.1816510000000005,6.6744356,0.15446335,0.10759171,-0.012783173500000002,14.1,45.66,0.48
1554109811952,-4.5872903,-5.133767,6.458957700000001,0.19600865,0.10439592,-0.013848438000000001,14.1,45.66,0.66
1554109811972,-4.654328,-4.980538,6.3727665,0.18216023,0.09054748,-0.010652645,14.1,45.72,0.78
1554109811992,-4.7453080000000005,-4.908712,6.305729,0.11611383,0.07137272,-0.013848438000000001,14.1,45.72,0.9
1554109812012,-4.759673,-5.0810947,6.291363700000001,0.018109497,0.039414786,-0.008522116,14.04,45.78,0.9
1554109812031,-4.654328,-5.037999,6.51163,-0.05219796,0.00958738,-0.020240024,14.04,45.78,0.9
1554109812052,-4.5394063,-5.1241902999999995,6.7223196,-0.09054748,-0.012783173500000002,-0.010652645,13.98,45.84,0.9
1554109812072,-4.486733999999999,-5.205593,6.7845693,-0.07882957,-0.004261058,-0.0053263223,13.98,45.84,0.9
1554109812092,-4.4484267,-5.248688700000001,6.8372416,-0.007456851,0.0010652645,-0.0031957934000000003,13.98,45.9,0.9
1554109812111,-4.453215,-5.143344,6.8228765,0.033023197000000004,0.002130529,-0.007456851,13.98,45.9,0.9
1554109812132,-4.4675803,-5.1146135,6.8085113,0.08522116,0.008522116,-0.01917476,13.98,45.84,0.9
1554109812152,-4.5394063,-5.2343235,6.7845693,0.19707392,0.020240024,-0.017044231,13.98,45.84,0.9
1554109812172,-4.707000700000001,-5.248688700000001,6.755839,0.3153183,0.046871635999999994,0.0031957934000000003,14.04,45.78,0.9
1554109812191,-4.7165775000000005,-5.1816510000000005,6.899491,0.38775626,0.058589544,0.025566347000000003,14.1,45.72,0.9
1554109812212,-4.817133999999999,-4.994903,6.8085113,0.38349520000000004,0.060720075,0.043675844000000005,14.16,45.66,0.9
1554109812231,-4.8841715,-4.741118,6.9521630000000005,0.3174488,0.047936900000000005,0.04580637,14.22,45.6,0.84
1554109812251,-4.9320555,-4.678869000000001,6.746262,0.35579833,0.012783173500000002,0.040480047000000005,14.28,45.54,0.84
1554109812271,-4.8602295,-4.611831,6.545148999999999,0.28975195,0.00958738,0.10652645,14.34,45.48,0.78
1554109812292,-4.711789,-4.5256395,6.832453299999999,0.20772657,-0.0010652645,0.08522116,14.4,45.48,0.72
1554109812312,-4.6016555,-4.291008000000001,6.755839,0.11504856,-0.012783173500000002,0.07563378,14.46,45.42,0.66
1554109812332,-4.4915223,-4.2622776,6.8372416,0.015978966,-0.029827405,0.053263225,14.4,45.42,0.6
1554109812352,-4.5681367,-4.247912400000001,6.741472999999999,-0.039414786,-0.03834952,-0.0063915867,14.34,45.48,0.54
1554109812372,-4.5441947,-4.3963529999999995,6.554725599999999,-0.03834952,-0.03834952,-0.043675844000000005,14.28,45.48,0.48
1554109812392,-4.4819455,-4.463390400000001,6.5164184999999994,-0.07563378,-0.015978966,-0.07030745599999999,14.28,45.48,0.42
1554109812412,-4.5777135,-4.3101616,6.4206505,-0.21198763,0.012783173500000002,-0.08522116,14.28,45.54,0.42
1554109812432,-4.630386,-4.4059295999999994,6.554725599999999,-0.38775626,0.034088463,-0.094808534,14.28,45.54,0.42
1554109812452,-4.606444000000001,-4.654927,6.4062852999999995,-0.5422196,0.046871635999999994,-0.10759171,14.28,45.48,0.42
1554109812471,-4.692635500000001,-4.8704047,6.5307837,-0.6146576,0.05219796,-0.13209279,14.34,45.42,0.42
1554109812492,-4.807557,-5.0523643,6.545148999999999,-0.60933125,0.04261058,-0.15552860000000002,14.4,45.36,0.42
1554109812512,-4.8219223,-5.239112,6.6361284,-0.57311225,0.02130529,-0.15233281,14.52,45.3,0.48
1554109812531,-4.7788267,-5.612607499999999,6.7845693,-0.51665324,0.0,-0.16085494,14.52,45.24,0.54
1554109812552,-4.759673,-5.5407815000000005,6.8085113,-0.41119209999999995,-0.026631612000000002,-0.12996227,14.4,45.18,0.6
1554109812572,-4.663905000000001,-5.5982423,6.717531,-0.32597092,-0.036218993,-0.098004326,14.28,45.12,0.66
1554109812591,-4.7261543,-5.6461263,6.707954400000001,-0.19068234,-0.033023197000000004,-0.056459017,14.1,45.06,0.9
1554109812611,-4.802768700000001,-5.521628,6.7989345000000005,-0.10333065,-0.023435817999999997,-0.05219796,13.98,45.06,0.96
1554109812642,-4.841076,-5.2726307,6.4781113,0.05965481,0.007456851,-0.05006743,13.8,45.12,1.26
1554109812652,-4.7740383,-5.263054,6.4685345000000005,0.07456851,0.011717908999999999,-0.047936900000000005,13.8,45.12,1.32
1554109812671,-4.8985367,-5.2103815,6.229114,0.06178534,0.034088463,-0.03089267,13.74,45.12,1.44
1554109812691,-4.7979803,-5.263054,6.267421700000001,0.0031957934000000003,0.058589544,-0.00958738,13.8,45.18,1.56
1554109812712,-4.7453080000000005,-5.286996,6.2195373,-0.046871635999999994,0.07989483,-0.00958738,13.86,45.24,1.74
1554109812732,-4.8602295,-5.224746700000001,6.0567317,-0.07243799,0.08735169,-0.020240024,13.98,45.24,1.92
1554109812752,-4.903325,-5.325303,6.229114,-0.07989483,0.084155895,-0.03089267,14.1,45.3,1.98
1554109812772,-4.8267107000000005,-5.3540335,6.267421700000001,-0.083090626,0.06604639400000001,-0.053263225,14.16,45.42,2.1
1554109812791,-4.7788267,-5.3875523,6.2099605,-0.07776430000000001,0.043675844000000005,-0.06924219,14.22,45.48,2.16
1554109812811,-4.6495394999999995,-5.430648000000001,6.39192,-0.09054748,0.0031957934000000003,-0.082025364,14.22,45.54,2.22
1554109812832,-4.596867,-5.502473999999999,6.353613,-0.10546118,-0.029827405,-0.10013486,14.16,45.6,2.34
1554109812851,-4.390966000000001,-5.497685400000001,6.1237693,-0.08522116,-0.049002163,-0.12250541,14.16,45.66,2.4
1554109812871,-4.3718123,-5.3444567,5.9465985,-0.04580637,-0.05006743,-0.14807177,14.16,45.72,2.46
1554109812892,-4.3574470000000005,-5.248688700000001,5.8747725,-0.034088463,-0.05006743,-0.19600865,14.16,45.78,2.4
1554109812912,-4.323928400000001,-5.1002483,5.869984,-0.06711166,-0.041545313,-0.26844665,14.1,45.84,2.46
1554109812931,-4.3957543,-5.0332108,6.2626333,-0.15020229,-0.056459017,-0.3536678,14.1,45.84,2.46
1554109812951,-4.3718123,-5.282207499999999,6.071097,-0.221575,-0.09161274,-0.4165184,14.1,45.9,2.46
1554109812972,-4.189853,-5.6221843,6.047155,-0.26738137,-0.10013486,-0.46658584,14.04,45.9,2.46
1554109812992,-4.1611223,-5.8663926,6.0184245,-0.22903186,-0.07456851,-0.49321744,14.04,45.96,2.46
1554109813011,-4.3574470000000005,-6.2446766,6.401497,-0.14807177,-0.035153727999999995,-0.50813115,13.92,46.08,2.46
1554109813031,-4.3957543,-6.2542534000000005,6.4781113,-0.033023197000000004,-0.011717908999999999,-0.5187838,13.86,46.38,2.46
1554109813052,-4.477157,-6.1345434,6.6600703999999995,0.12357068,-0.017044231,-0.5113269,13.62,46.62,2.46
1554109813071,-4.596867,-6.0148335,6.684012400000001,0.19387813,-0.041545313,-0.4857606,13.44,46.92,2.52
1554109813092,-4.548983,-5.9717374,6.84203,0.28442562,-0.07669904,-0.41438788,13.14,47.22,2.52
1554109813112,-4.4484267,-6.1632739999999995,6.7893577,0.44954160000000004,-0.094808534,-0.31851408,12.84,47.52,2.52
1554109813132,-4.343082,-5.952584,6.770204,0.6295713000000001,-0.12250541,-0.23435818,12.6,48.0,2.52
1554109813151,-4.3861775000000005,-5.799355,6.995259,0.813862,-0.1438107,-0.19600865,12.3,48.42,2.52
1554109813171,-4.271256,-5.6269727,6.6744356,0.9331716999999998,-0.16724652,-0.17150758,12.06,48.78,2.46
1554109813192,-4.0653543,-5.445012999999999,6.5212069999999995,0.92784536,-0.16937704,-0.12250541,11.88,49.08,2.4
1554109813212,-4.036624,-5.1768627,6.4110737,0.81066626,-0.15446335,-0.06711166,11.82,49.38,2.22
1554109813232,-4.0797195,-5.061941,6.5164184999999994,0.5752428,-0.1438107,-0.018109497,11.76,49.68,2.04
1554109813252,-3.9600096,-5.248688700000001,6.5403605,0.28229508,-0.12996227,0.029827405,11.76,49.92,1.62
1554109813272,-3.8211459999999997,-5.468955,6.865972,0.09054748,-0.1107875,0.036218993,11.76,50.1,1.26
1554109813292,-3.7588966,-5.5168395,7.0287776,0.12783173,-0.09161274,0.00958738,11.82,50.22,0.9
1554109813311,-3.6391866000000004,-5.2678423,7.387908,0.2908172,-0.06498113,-0.01917476,11.94,50.34,0.54
1554109813332,-3.7684733999999995,-5.037999,7.0670850000000005,0.3685815,-0.05219796,-0.018109497,12.06,50.4,0.12
1554109813352,-3.7349546,-4.860828,7.153275999999999,0.29294774,-0.046871635999999994,-0.011717908999999999,12.18,50.46,-0.18
1554109813371,-3.7158010000000004,-4.779425,7.1580644,0.18429075,-0.024501082,-0.015978966,12.36,50.52,-0.42
1554109813392,-3.7732617999999993,-4.9996915,7.2969284,0.09054748,-0.004261058,-0.00958738,12.54,50.58,-0.66
1554109813411,-3.7110126000000005,-5.0332108,7.2873516,0.05965481,0.012783173500000002,-0.020240024,12.66,50.58,-0.78
1554109813432,-3.739743,-4.851251,7.3831196,0.14061491,0.051132694000000006,-0.06711166,12.9,50.64,-0.96
1554109813451,-3.739743,-4.8704047,7.493252799999999,0.20240025,0.07137272,-0.07989483,12.9,50.64,-1.02
1554109813471,-3.7876269999999996,-4.9374423,7.143699000000001,0.26738137,0.082025364,-0.07669904,12.9,50.64,-1.14
1554109813492,-3.7588966,-4.717176,7.378331,0.26738137,0.10013486,-0.082025364,12.9,50.64,-1.26
1554109813511,-3.916914,-4.7602715,7.091027,0.18109496,0.10865697,-0.07882957,12.9,50.7,-1.32
1554109813531,-3.6774937999999993,-4.7842135,7.1963716,0.06604639400000001,0.13209279,-0.083090626,12.78,50.7,-1.44
1554109813552,-3.9504328,-4.8656163,7.234678999999999,0.05752428,0.15339808,-0.10652645,12.72,50.7,-1.5
1554109813572,-3.9695864000000003,-4.779425,7.4405804,0.096939065,0.1470065,-0.112918034,12.66,50.7,-1.5
1554109813591,-4.0414124,-4.812944,7.229890299999999,0.10972224,0.13209279,-0.08628642,12.6,50.7,-1.56
1554109813611,-3.9791632000000003,-4.7602715,7.086238400000001,0.11611383,0.12463594,-0.07563378,12.54,50.7,-1.56
1554109813632,-4.0940847,-4.7937902999999995,6.933009599999999,0.07989483,0.1107875,-0.05965481,12.48,50.76,-1.56
1554109813651,-4.098873,-4.659715,7.201160000000001,0.03834952,0.094808534,-0.03089267,12.42,50.76,-1.62
1554109813671,-4.1611223,-4.583101,7.1006035999999995,0.0063915867,0.08841695,-0.03195793,12.42,50.7,-1.62
1554109813692,-4.19943,-4.630985,6.8132997,-0.054328485999999995,0.07989483,-0.034088463,12.36,50.7,-1.56
1554109813712,-4.0892963,-4.630985,6.583456,-0.13635385,0.08948222,-0.013848438000000001,12.36,50.7,-1.5
1554109813732,-4.31914,-4.6692919999999996,6.870760400000001,-0.25140239999999997,0.12250541,0.002130529,12.36,50.7,-1.44
1554109813751,-4.2999864,-4.970961,6.889914,-0.45593318,0.15126756,0.013848438000000001,12.36,50.58,-1.32
1554109813771,-4.2999864,-4.9661726999999996,7.1915830000000005,-0.52837116,0.13635385,0.020240024,12.36,50.52,-1.26
1554109813792,-4.2999864,-5.085883,7.1006035999999995,-0.48682585,0.112918034,0.027696876000000002,12.36,50.46,-1.14
1554109813812,-4.237737,-5.0667295,6.770204,-0.42290998,0.11717909,0.051132694000000006,12.36,50.46,-1.02
1554109813831,-4.333505000000001,-5.1529207,6.8228765,-0.46339005,0.13102753,0.09054748,12.3,50.46,-0.9
1554109813851,-4.3574470000000005,-5.277419,6.894702400000001,-0.5209143,0.13102753,0.094808534,12.3,50.46,-0.78
1554109813872,-4.367024,-5.224746700000001,6.8516070000000004,-0.52837116,0.11611383,0.08628642,12.24,50.52,-0.66
1554109813892,-4.209007,-5.282207499999999,6.7893577,-0.47191215,0.11611383,0.06924219,12.24,50.52,-0.54
1554109813912,-4.2760444,-5.191228,6.7223196,-0.46125950000000004,0.112918034,0.05752428,12.24,50.64,-0.36
1554109813931,-4.285621,-5.191228,6.291363700000001,-0.5635249,0.12676647,0.053263225,12.18,50.64,-0.06
1554109813951,-4.4196963,-5.445012999999999,6.564302400000001,-0.7637946,0.15552860000000002,0.015978966,12.18,50.64,0.18
1554109813972,-4.429273,-5.612607499999999,6.449381,-0.85327685,0.16724652,-0.026631612000000002,12.24,50.52,0.48
1554109813992,-4.4149080000000005,-5.6509147,6.425439,-0.80107886,0.18429075,-0.03089267,12.24,50.46,0.84
1554109814011,-4.4723687000000005,-5.7802014,6.2003837,-0.69348717,0.19068234,-0.015978966,12.3,50.28,1.14
1554109814032,-4.434061499999999,-5.895123,5.903503,-0.60720074,0.20240025,-0.0031957934000000003,12.3,50.16,1.62
1554109814052,-4.501099,-6.1058129999999995,5.8268886,-0.55074173,0.19068234,-0.0053263223,12.3,50.04,2.1
1554109814072,-4.6255975,-6.168062,5.620987,-0.43462790000000007,0.16618125,-0.013848438000000001,12.36,49.86,2.58
1554109814092,-4.6495394999999995,-6.019622,5.2618566,-0.33449304,0.13315806,0.007456851,12.36,49.8,2.94
1554109814113,-4.7261543,-5.8185085999999995,4.955399,-0.48363006,0.10972224,0.036218993,12.36,49.8,3.36
1554109814132,-4.7453080000000005,-5.9621606,5.0463786,-0.7776430000000001,0.10759171,0.036218993,12.36,49.74,3.78
1554109814152,-4.8219223,-6.306926,5.0559554,-0.9917611999999999,0.08735169,0.04580637,12.36,49.74,4.26
1554109814172,-4.8362875,-6.431424,5.285799,-1.0237192,0.07669904,0.05752428,12.36,49.62,4.8
1554109814191,-4.8985367,-6.4505777,5.467758,-0.9267801,0.06498113,0.053263225,12.36,49.44,5.28
1554109814212,-4.9799394999999995,-6.508039,5.257068,-0.8511463,0.04474111,0.07030745599999999,12.42,49.26,5.7
1554109814232,-4.9081135,-6.517616,4.888361499999999,-0.86179894,0.036218993,0.06498113,12.42,49.08,6.06
1554109814252,-4.8745947,-6.8097080000000005,4.9984946,-0.9267801,0.040480047000000005,0.06924219,12.48,48.9,6.42
1554109814271,-4.8123455,-7.044339999999999,5.027225,-0.9395633,0.027696876000000002,0.06711166,12.54,48.72,6.84
1554109814291,-4.8506527,-7.0395517000000005,5.01286,-0.84155893,0.01917476,0.06924219,12.66,48.48,7.32
1554109814311,-4.8985367,-7.029975,4.500500700000001,-0.68389976,0.0010652645,0.10759171,12.72,48.06,7.92
1554109814331,-4.8506527,-7.044339999999999,4.2658687,-0.6785734,-0.014913702,0.10333065,12.84,47.76,8.28
1554109814351,-4.941632299999999,-7.16405,4.174889,-0.69987875,-0.026631612000000002,0.10013486,12.84,47.64,8.52
1554109814371,-5.018246700000001,-7.4561424,4.208408,-0.628506,-0.041545313,0.12250541,12.84,47.34,8.82
1554109814392,-5.0421886,-7.422623599999999,4.3185415,-0.46552056,-0.060720075,0.14061491,12.9,46.92,9.36
1554109814413,-5.0613421999999995,-7.283760000000001,4.0934862999999995,-0.37923414,-0.07563378,0.13954964,12.9,46.62,9.72
1554109814432,-4.9799394999999995,-7.355586,4.170100700000001,-0.30679616,-0.083090626,0.15126756,12.9,46.26,9.96
1554109814452,-5.0086699999999995,-7.092224000000001,4.1222167,-0.19920446,-0.10013486,0.13741912,12.9,45.84,10.2
1554109814471,-5.1666875,-7.1305312999999995,3.9737763,-0.113983296,-0.112918034,0.12783173,12.9,45.42,10.38
1554109814491,-5.023035,-6.9102645,4.385579,-0.12463594,-0.099069595,0.13315806,12.9,45.0,10.62
1554109814512,-5.1092260000000005,-7.2789717000000005,4.1222167,-0.007456851,-0.10652645,0.10226539,12.9,44.64,10.8
1554109814532,-4.917690299999999,-7.020397999999999,3.9785647000000006,0.10013486,-0.098004326,0.12570119999999999,12.9,44.28,10.98
1554109814551,-5.023035,-6.737882000000001,3.8061821000000005,0.068176925,-0.08948222,0.099069595,12.96,43.92,11.1
1554109814572,-4.984728,-6.905475999999999,3.9258924,-0.07350325,-0.084155895,0.09374327,12.96,43.5,11.1
1554109814592,-4.9799394999999995,-6.7043633,3.7343562000000006,-0.23542345,-0.09054748,0.06391586,13.02,43.14,11.04
1554109814612,-4.8698063,-6.8863225,3.887585,-0.37710363,-0.08628642,0.024501082,13.02,42.9,10.98
1554109814631,-4.984728,-6.9581485,3.9833531000000004,-0.29614353,-0.09161274,-0.036218993,13.08,42.72,10.8
1554109814652,-4.917690299999999,-6.9581485,4.064756,-0.19707392,-0.080960095,-0.03834952,13.14,42.6,10.62
1554109814672,-5.023035,-6.9820905,3.7774517999999997,-0.20879184,-0.07030745599999999,-0.05006743,13.2,42.48,10.44
1554109814691,-5.080496,-7.2406645,3.9211037,-0.31638354,-0.049002163,-0.080960095,13.32,42.36,10.26
1554109814712,-5.2385135,-7.413047,3.7247794,-0.37390783,-0.013848438000000001,-0.083090626,13.44,42.3,10.2
1554109814731,-5.3821654,-7.3268557,4.1317935,-0.386691,0.09054748,-0.05752428,13.5,42.18,10.2
1554109814752,-4.831499,-7.6285253,3.9833531000000004,-0.33981937,0.10013486,-0.054328485999999995,13.56,42.24,10.32
1554109814771,-5.070919,-7.542333999999999,3.743933,0.13954964,0.02876214,-0.06924219,13.56,42.24,10.38
1554109814791,-5.2768207,-7.2885485,3.8349125,0.42717105,-0.01917476,-0.058589544,13.56,42.18,10.44
1554109814812,-5.2816089999999996,-7.4609309999999995,3.6433763999999997,0.49747851,-0.06391586,-0.05752428,13.56,42.12,10.5
1554109814831,-5.0038815,-7.379528,3.8109705000000003,0.33129725,-0.06391586,0.035153727999999995,13.44,42.12,10.56
1554109814851,-5.0517654,-7.3603745,3.8157589999999995,0.16937704,-0.054328485999999995,0.046871635999999994,13.38,42.06,10.62
1554109814872,-5.0421886,-7.2215110000000005,4.007295,0.112918034,-0.04261058,0.02130529,13.26,42.0,10.62
1554109814892,-4.9943047,-6.8671690000000005,4.103063,0.16405073,-0.029827405,-0.007456851,13.2,42.06,10.56
1554109814912,-4.927267,-6.761824000000001,3.9833531000000004,0.17044231,-0.036218993,-0.051132694000000006,13.2,42.06,10.56
1554109814932,-4.917690299999999,-6.7330937,3.7726634,0.10972224,-0.051132694000000006,-0.10439592,13.26,42.06,10.5
1554109814952,-4.9081135,-6.8144965,3.7056258,0.025566347000000003,-0.06711166,-0.1470065,13.32,42.12,10.5
1554109814971,-4.8841715,-6.929417999999999,3.9546227,-0.033023197000000004,-0.047936900000000005,-0.15552860000000002,13.38,42.12,10.44
1554109814991,-4.88896,-7.1879919999999995,4.0120835,-0.07776430000000001,-0.04261058,-0.1587244,13.44,42.06,10.44
1554109815012,-4.9320555,-7.3364325,3.9019501000000005,-0.06604639400000001,-0.027696876000000002,-0.14274544,13.5,42.06,10.44
1554109815032,-4.927267,-7.3029137,3.9785647000000006,-0.051132694000000006,-0.007456851,-0.12250541,13.56,42.06,10.38
1554109815052,-4.975151,-7.389105000000001,4.0025067000000005,-0.06604639400000001,0.012783173500000002,-0.096939065,13.62,42.0,10.38
1554109815072,-4.999093,-7.331644,4.136582,-0.13315806,0.043675844000000005,-0.07030745599999999,13.62,41.94,10.38
1554109815092,-4.984728,-7.2167225,4.3185415,-0.15978967,0.054328485999999995,-0.06285059999999999,13.62,41.94,10.38
1554109815111,-5.0517654,-7.3220673,4.2419267,-0.13848437,0.05539375,-0.033023197000000004,13.56,42.12,10.38
1554109815131,-5.0613421999999995,-7.3460092999999995,4.419098,-0.12463594,0.056459017,-0.040480047000000005,13.5,42.18,10.38
1554109815151,-5.0374002,-7.341221000000001,4.1557355000000005,-0.07669904,0.05219796,-0.029827405,13.5,42.3,10.44
1554109815172,-5.0613421999999995,-7.3699512,4.064756,-0.060720075,0.041545313,-0.00958738,13.5,42.54,10.44
1554109815191,-5.085284,-7.3029137,4.088698,-0.06178534,0.04261058,0.0053263223,13.5,42.6,10.44
1554109815212,-5.1810527,-7.4561424,3.8588544999999996,-0.096939065,0.053263225,0.049002163,13.44,42.78,10.5
1554109815232,-5.1235914000000005,-7.389105000000001,3.7295678,-0.14274544,0.07563378,0.07350325,13.44,42.9,10.5
1554109815252,-5.142745,-7.317278999999999,3.7247794,-0.13422333,0.08841695,0.09267801,13.38,42.9,10.56
1554109815271,-5.032612,-7.3029137,3.8253357000000006,-0.068176925,0.099069595,0.094808534,13.38,42.9,10.56
1554109815291,-5.0134583,-7.211933999999999,3.7247794,0.018109497,0.10546118,0.08841695,13.32,42.84,10.56
1554109815312,-4.917690299999999,-7.140108000000001,3.6002807999999997,0.080960095,0.10226539,0.06498113,13.26,42.72,10.62
1554109815332,-4.865018,-6.9246297000000006,3.3704373999999997,0.13848437,0.09161274,0.022370555,13.26,42.6,10.74
1554109815352,-4.7644614999999995,-6.795342999999999,3.4901476000000002,0.13635385,0.084155895,-0.008522116,13.2,42.48,10.86
1554109815372,-4.7788267,-6.5942300000000005,3.4183214,0.07776430000000001,0.06391586,-0.07030745599999999,13.2,42.3,10.98
1554109815391,-4.7405194999999996,-6.713939999999999,3.2746694,0.008522116,0.040480047000000005,-0.13741912,13.26,42.18,11.1
1554109815412,-4.7740383,-6.8623804999999996,3.5045127999999997,-0.05219796,0.026631612000000002,-0.22903186,13.26,42.06,11.22
1554109815432,-4.635174299999999,-6.996455999999999,3.566762,-0.10333065,0.0063915867,-0.2876214,13.32,42.0,11.34
1554109815451,-4.654328,-7.2406645,3.6002807999999997,-0.12676647,-0.0031957934000000003,-0.32170987,13.38,41.94,11.46
1554109815471,-4.6255975,-7.173627000000001,3.7247794,-0.16085494,-0.022370555,-0.36218992,13.44,41.94,11.52
1554109815492,-4.55856,-7.2981253,3.6816837999999996,-0.14913702,-0.04261058,-0.40266997,13.44,42.06,11.52
1554109815512,-4.635174299999999,-7.475296000000001,3.7582982000000005,-0.07989483,-0.054328485999999995,-0.44634579999999996,13.5,42.18,11.58
1554109815532,-4.7357309999999995,-7.585429700000001,3.9067385000000003,0.068176925,-0.046871635999999994,-0.49641323,13.44,42.36,11.58
1554109815555,-4.7022123,-7.7865424,3.7582982000000005,0.13848437,-0.034088463,-0.5091964,13.26,42.6,11.58
1554109815572,-4.759673,-7.6093717000000005,3.696049,0.11930962,-0.024501082,-0.5049353,13.14,42.96,11.58
1554109815591,-4.7740383,-7.877522,3.7774517999999997,0.040480047000000005,-0.00958738,-0.4878911,12.96,43.44,11.58
1554109815611,-4.7979803,-8.107366,3.9498343,-0.0063915867,-0.0010652645,-0.46339005,12.78,43.86,11.58
1554109815632,-4.8362875,-8.227076,4.0216603,0.02130529,0.008522116,-0.41545314,12.54,44.28,11.58
1554109815651,-4.7979803,-8.294113000000001,4.0025067000000005,0.12357068,0.027696876000000002,-0.35792887,12.36,44.64,11.58
1554109815672,-4.7979803,-8.169615,3.9067385000000003,0.23435818,0.05219796,-0.29507825,12.18,45.0,11.58
1554109815691,-4.8602295,-7.963713,3.7966053,0.28336033,0.06391586,-0.24074976,12.06,45.3,11.58
1554109815713,-4.8267107000000005,-7.73387,4.007295,0.30786142,0.06285059999999999,-0.20133498,12.0,45.54,11.52
1554109815732,-4.7979803,-7.8104844,4.055179,0.34194988,0.05752428,-0.15765914,11.94,45.72,11.58
1554109815752,-4.76925,-7.6524673,3.9641995000000003,0.39414784,0.049002163,-0.1107875,11.94,45.78,11.64
1554109815772,-4.7453080000000005,-7.4274119999999995,3.9258924,0.41758367,0.02876214,-0.07243799,11.88,45.84,11.64
1554109815792,-4.7405194999999996,-7.3938932,3.7343562000000006,0.3898868,-0.002130529,-0.05219796,11.88,45.96,11.7
1554109815812,-4.759673,-7.2502413,3.8109705000000003,0.33449304,-0.03089267,-0.034088463,11.88,46.14,11.7
1554109815832,-4.510676,-7.374739599999999,3.8013937000000007,0.25566345,-0.06178534,-0.015978966,11.82,46.38,11.64
1554109815852,-4.5441947,-7.331644,3.9211037,0.19707392,-0.08735169,-0.004261058,11.82,46.68,11.52
1554109815872,-4.525041000000001,-7.341221000000001,3.9211037,0.19281286,-0.1107875,-0.0010652645,11.82,46.98,11.46
1554109815892,-4.2999864,-7.2741833,3.9354692000000004,0.20240025,-0.13209279,0.007456851,11.76,47.22,11.34
1554109815911,-4.1611223,-7.1879919999999995,4.055179,0.22690132,-0.14061491,-0.010652645,11.76,47.52,11.22
1554109815932,-3.9647980000000005,-7.0826473,3.9115269999999995,0.2428803,-0.1470065,-0.05539375,11.76,47.7,11.04
1554109815951,-3.9073372,-6.9342065,3.9019501000000005,0.18535602,-0.14168017,-0.10865697,11.76,47.94,10.74
1554109815971,-3.8450879999999996,-6.881533999999999,3.9689879999999995,0.05752428,-0.14913702,-0.16724652,11.76,48.06,10.56
1554109815991,-3.6774937999999993,-7.006033,4.1796775,-0.07137272,-0.16618125,-0.22477080000000002,11.76,48.12,10.32
1554109816012,-3.7876269999999996,-7.2262993,4.3903675,-0.08522116,-0.16831179,-0.29507825,11.76,48.12,10.14
1554109816031,-3.7301662,-7.2885485,4.586692,0.02876214,-0.17896444,-0.37284255,11.7,48.3,9.9
1554109816052,-3.5865142,-7.6668324000000005,4.6058455,0.07350325,-0.18535602,-0.40373522,11.7,48.48,9.66
1554109816072,-3.6200330000000003,-7.925406,4.759074,0.046871635999999994,-0.17789917,-0.41545314,11.58,48.66,9.54
1554109816092,-3.8402996,-8.289325,4.835689,0.015978966,-0.15765914,-0.36325517,11.52,48.84,9.48
1554109816112,-3.9264907999999994,-8.313267,4.869208,-0.046871635999999994,-0.12463594,-0.2876214,11.46,49.02,9.42
1554109816132,-4.0701427,-8.380303999999999,4.955399,-0.08522116,-0.09054748,-0.2428803,11.4,49.2,9.36
1554109816152,-4.185065,-8.30369,5.099051,-0.06178534,-0.05219796,-0.18322548,11.34,49.5,9.36
1554109816172,-4.189853,-8.30369,5.285799,-0.004261058,-0.026631612000000002,-0.12676647,11.28,49.86,9.36
1554109816191,-4.2042184,-8.308478,5.3145294000000005,0.11717909,0.024501082,-0.02130529,11.22,50.1,9.36
1554109816211,-4.1180267,-8.413822999999999,5.1038394,0.16298546,0.05006743,0.053263225,11.16,50.16,9.3
1554109816232,-4.232949,-8.341997000000001,5.285799,0.22264028,0.099069595,0.18535602,11.16,50.52,9.24
1554109816252,-4.256891,-8.30369,5.3528366,0.28975195,0.12463594,0.26844665,11.1,50.76,9.12
1554109816271,-4.185065,-8.203134,4.969764,0.31318775,0.16831179,0.38136467,11.1,50.94,9.0
1554109816292,-4.213794999999999,-8.193557,4.89315,0.2727077,0.2130529,0.5049353,11.1,51.06,8.88
1554109816311,-4.3478703,-8.140884,4.888361499999999,0.20559604,0.24820662,0.61572284,11.04,51.0,8.76
1554109816331,-4.5441947,-8.083424,5.003283000000001,0.1587244,0.27696875,0.7307714,11.04,50.76,8.64
1554109816352,-4.654328,-7.944559599999999,4.969764,0.13741912,0.28655612,0.81918836,11.1,50.58,8.52
1554109816372,-4.8506527,-7.8152729999999995,5.122993,0.17470337,0.30040458,0.9235843,11.1,50.28,8.46
1554109816392,-4.9703627,-7.6045833,5.213972599999999,0.32490566,0.32170987,0.99495703,11.16,49.86,8.4
1554109816411,-5.319916200000001,-7.2502413,5.142146599999999,0.5251754,0.34194988,1.0908308,11.28,49.26,8.4
1554109816431,-5.410896,-6.9150529999999995,5.1900306,0.7914915,0.36325517,1.139833,11.46,48.48,8.4
1554109816452,-5.57849,-6.321291,5.266645,0.94488955,0.37923414,1.180313,11.7,47.58,8.4
1554109816471,-5.7700260000000005,-5.751471,4.859630999999999,1.019458,0.38349520000000004,1.200553,12.06,46.68,8.4
1554109816491,-5.9184665999999995,-5.3875523,5.0511669999999995,0.9619338,0.3717773,1.1888351000000001,12.42,45.78,8.4
1554109816512,-6.066907,-5.2343235,4.89315,0.8586031999999999,0.36751625,1.1377025,12.84,44.82,8.4
1554109816532,-6.2823853,-4.9901147,4.9506106,0.79042625,0.34514567,1.099353,13.26,43.98,8.4
1554109816552,-6.325481,-4.76506,4.926668599999999,0.7552725,0.33555830000000003,1.0833739,13.68,43.08,8.46
1554109816571,-6.497863300000001,-4.3388919999999995,4.931457,0.6945524000000001,0.35792887,1.0695255,14.1,42.18,8.4
1554109816592,-6.5744777,-4.257489,5.0798974,0.6263755,0.36964676,1.0354371,14.52,41.16,8.4
1554109816611,-6.5361705,-3.946243,5.060744000000001,0.5091964,0.38029942,0.9832390999999999,14.88,40.2,8.4
1554109816631,-6.7516490000000005,-3.8600516000000002,4.955399,0.4708469,0.40373522,0.93636745,15.12,39.18,8.4
1554109816651,-6.775591,-3.7020345,4.89315,0.4878911,0.4079963,0.9044095,15.36,38.16,8.4
1554109816671,-6.9767036,-3.5583823,4.8500543,0.5454154,0.41758367,0.85540736,15.54,37.14,8.34
1554109816692,-7.0581064,-3.4099417,4.955399,0.700944,0.41864893,0.79042625,15.72,36.12,8.34
1554109816712,-6.9383965,-3.3381157,4.9027267,0.85753787,0.43036684,0.71479243,15.84,35.22,8.34
1554109816732,-6.9671270000000005,-3.1226375,4.6776714,1.0024139,0.43462790000000007,0.6348976,15.96,34.38,8.34
1554109816752,-7.0341644,-2.8880057,4.466982,1.0876350000000001,0.44101948,0.5699165,16.02,33.66,8.4
1554109816772,-6.933608,-2.7587189999999997,4.6441526,1.0482203,0.4282363,0.51026165,16.08,33.06,8.4
1554109816792,-7.029375999999999,-2.6868927000000005,4.4861355000000005,0.9576728000000001,0.4165184,0.44741106,16.14,32.52,8.46
1554109816811,-7.2640080000000005,-2.629432,4.3760023,0.80747044,0.39308259999999995,0.4261058,16.2,32.1,8.46
1554109816831,-7.61835,-2.6342204,4.4286747,0.64555025,0.37071204,0.4261058,16.26,31.62,8.52
1554109816852,-7.5082164,-2.4666264,4.601057,0.49321744,0.33875409999999995,0.41545314,16.32,31.14,8.7
1554109816872,-7.7332716,-2.3469162,4.601057,0.43569317,0.31212249999999997,0.4079963,16.44,30.42,9.06
1554109816891,-7.714117999999999,-2.3181857999999997,4.7207669999999995,0.43675843,0.28655612,0.40906155,16.44,30.18,9.18
1554109816911,-7.747636999999999,-2.260725,4.9745526,0.47191215,0.25140239999999997,0.40266997,16.5,29.7,9.42
1554109816932,-7.852981599999999,-2.2415714,5.0798974,0.61891866,0.221575,0.39414784,16.56,29.1,9.84
1554109816953,-7.824250999999999,-2.1936872000000003,5.036802,0.86179894,0.19600865,0.39308259999999995,16.62,28.74,10.08
1554109816972,-7.929596000000001,-2.083554,5.228338,1.1547466999999998,0.2066613,0.42290998,16.62,28.44,10.32
1554109816992,-7.872135000000001,-1.5568296999999998,5.391144000000001,1.4104101999999998,0.18961707,0.4282363,16.62,28.08,10.5
1554109817013,-7.876923599999999,-0.8050503000000001,4.9937059999999995,1.5094798,0.13954964,0.4079963,16.56,27.84,10.56
1554109817032,-7.819463000000001,-0.4842273,5.003283000000001,1.4817829,0.11611383,0.3898868,16.56,27.6,10.56
1554109817051,-7.848192999999999,-0.23044191,4.4526167,1.3454291,0.09587380000000001,0.38136467,16.56,27.48,10.56
1554109817072,-7.7572136,0.04249708,4.5435963,1.107875,0.07137272,0.37603834,16.56,27.48,10.5
1554109817092,-7.714117999999999,0.29149407,4.553173,0.8245146999999999,0.041545313,0.32384038,16.62,27.42,10.5
1554109817111,-7.8386164,0.55485624,4.672883000000001,0.5422196,0.03089267,0.26312032,16.74,27.3,10.44
1554109817131,-7.905653999999999,0.65541273,4.6058455,0.29614353,0.04261058,0.2130529,16.8,27.24,10.44
1554109817152,-7.905653999999999,0.5165489999999999,4.5819035,0.07669904,0.054328485999999995,0.15446335,16.86,27.12,10.38
1554109817171,-7.8865004,0.43035775,4.8500543,-0.13102753,0.06498113,0.07030745599999999,16.92,27.0,10.38
1554109817192,-8.006210000000001,0.41120413,5.04159,-0.22370553,0.05539375,-0.013848438000000001,16.98,26.94,10.38
1554109817211,-8.207322999999999,0.26276365,5.209184,-0.15659387,0.02876214,-0.06391586,16.98,26.88,10.32
1554109817232,-8.264783999999999,0.14305355,5.0320134,-0.053263225,-0.0063915867,-0.08841695,16.98,26.76,10.38
1554109817252,-8.24563,0.16220717,5.036802,-0.09161274,-0.023435817999999997,-0.08948222,16.92,26.64,10.38
1554109817271,-8.154651,-0.077213004,5.036802,-0.1768339,-0.013848438000000001,-0.094808534,16.86,26.58,10.44
1554109817291,-8.173803999999999,-0.15861586,5.0511669999999995,-0.21092236,0.0010652645,-0.08948222,16.86,26.52,10.44
1554109817312,-8.212111,-0.39324763,5.0224366,-0.17896444,0.027696876000000002,-0.06285059999999999,16.86,26.46,10.44
1554109817332,-8.37013,-0.38367084,5.060744000000001,-0.14807177,0.037284255,-0.05006743,16.86,26.46,10.44
1554109817352,-8.312667999999999,-0.35494040000000004,5.036802,-0.16724652,0.035153727999999995,-0.014913702,16.86,26.4,10.44
1554109817371,-8.030152000000001,-0.3788824,5.1086279999999995,-0.14594123,0.022370555,-0.026631612000000002,16.92,26.4,10.44
1554109817391,-7.9248075,-0.091578215,5.37199,0.027696876000000002,0.0031957934000000003,-0.080960095,16.92,26.34,10.38
1554109817412,-7.929596000000001,0.14305355,5.453393,0.41864893,-0.05539375,-0.14807177,16.92,26.34,10.38
1554109817432,-7.8577699999999995,0.34895490000000007,5.0798974,0.8564726,-0.14487597,-0.22690132,16.86,26.28,10.38
1554109817451,-7.7428484,0.43035775,4.7255554,1.1483551,-0.25672874,-0.35473305,16.8,26.28,10.32
1554109817472,-7.8865004,0.30585927,4.56275,1.3187973,-0.36645097,-0.4889564,16.68,26.22,10.32
1554109817492,-8.010999,0.5117606,4.280234,1.3624732,-0.4261058,-0.5368933000000001,16.62,26.28,10.32
1554109817512,-7.9343843,0.54527944,4.1892543,1.2314457,-0.42930159999999995,-0.53795856,16.5,26.34,10.26
1554109817531,-7.953538000000001,0.65541273,4.4286747,1.051416,-0.41225734,-0.55287224,16.44,26.7,10.14
1554109817551,-7.6853875999999985,0.11911154,4.5675383,0.91186637,-0.406931,-0.5613944000000001,16.44,27.3,10.02
1554109817572,-7.632714999999999,0.047285482000000004,4.395156,0.7318366999999999,-0.39947417,-0.59228706,16.44,28.08,9.78
1554109817592,-7.704541000000001,0.30107087,4.44304,0.51771855,-0.3653857,-0.6466155,16.44,28.92,9.36
1554109817612,-7.7189064,0.6410475,4.6202106,0.31105720000000003,-0.33129725,-0.67537767,16.5,29.82,8.94
1554109817631,-7.627927000000001,0.061650693,5.156512,0.06285059999999999,-0.34088463,-0.6743124,16.5,30.72,8.46
1554109817651,-7.603985000000001,-0.65182143,5.668871,-0.1438107,-0.3653857,-0.721184,16.5,31.68,7.98
1554109817671,-7.5321584,-1.0923545000000001,5.9801173,-0.15659387,-0.34621096,-0.75420725,16.56,32.58,7.5
1554109817691,-7.6135616,-1.1976993999999999,6.4637459999999995,0.1107875,-0.28442562,-0.70840085,16.56,33.48,7.02
1554109817712,-7.704541000000001,-1.264737,6.84203,0.43675843,-0.26631612,-0.61891866,16.56,34.14,6.6
1554109817733,-7.809886,-0.7715314999999999,6.583456,0.67537767,-0.28975195,-0.52624065,16.56,34.92,6.18
1554109817752,-7.7572136,-0.7092823,6.3727665,0.6380934,-0.29188246,-0.43249738,16.5,35.58,5.94
1554109817772,-7.675811,-0.4794389,6.4350157,0.45699844,-0.26525086,-0.3323625,16.44,36.18,5.64
1554109817791,-7.738060000000001,-0.65182143,6.602609599999999,0.25885928,-0.22583607,-0.25992453,16.44,36.84,5.58
1554109817812,-7.608772999999999,-0.65660983,6.765415700000001,0.11930962,-0.19281286,-0.17789917,16.38,37.44,5.4
1554109817831,-7.6135616,-0.4985925,6.875549,0.10652645,-0.15339808,-0.111852765,16.32,37.98,5.16
1554109817851,-7.4746976,-0.3788824,6.755839,0.19920446,-0.12463594,-0.07137272,16.26,38.34,4.86
1554109817872,-7.6375036,-0.21607670000000004,6.305729,0.28016454,-0.09374327,-0.047936900000000005,16.2,38.7,4.62
1554109817891,-7.479486,-0.15382746,6.1620764999999995,0.2695119,-0.07882957,-0.046871635999999994,16.08,39.06,4.38
1554109817912,-7.4028716,0.090381116,6.118981,0.2130529,-0.07882957,-0.080960095,16.02,39.3,4.2
1554109817932,-7.393294999999999,-0.09636662,5.8987145,0.18748654,-0.07563378,-0.101200126,15.96,39.48,4.08
1554109817951,-7.2640080000000005,-0.15861586,5.903503,0.17363810000000002,-0.05539375,-0.11930962,15.84,39.6,3.96
1554109817971,-7.168239999999999,-0.18734628,5.6257753,0.15339808,-0.03089267,-0.12996227,15.78,39.72,3.84
1554109817992,-7.0964136,-0.15861586,5.6736593,0.07243799,-0.0031957934000000003,-0.14913702,15.72,39.84,3.72
1554109818013,-6.9144545,-0.43155485,5.606621700000001,-0.07243799,0.015978966,-0.16724652,15.66,39.96,3.6
1554109818035,-6.885724000000001,-0.47465047,5.659294,-0.12676647,0.017044231,-0.18642128,15.6,40.08,3.42
1554109818052,-7.029375999999999,-0.5847838000000001,5.659294,-0.094808534,0.015978966,-0.19920446,15.54,40.14,3.3
1554109818071,-7.0581064,-0.6135142,5.788581400000001,-0.007456851,-0.002130529,-0.20453078,15.54,40.26,3.12
1554109818092,-7.335833999999999,-0.43634325,5.644929,0.101200126,-0.04261058,-0.23116238,15.54,40.38,3.0
1554109818112,-7.4699089999999995,-0.42197806,5.4964886,0.08948222,-0.083090626,-0.2609898,15.54,40.62,2.88
1554109818132,-7.493850999999999,-0.15382746,5.597045,-0.04474111,-0.10226539,-0.27377295,15.54,40.86,2.76
1554109818152,-7.4986396,-0.21607670000000004,5.467758,-0.3291667,-0.08628642,-0.28016454,15.54,41.04,2.76
1554109818171,-7.4842744,-0.5033809,5.5826797,-0.7350325,-0.046871635999999994,-0.26844665,15.48,41.28,2.76
1554109818191,-7.642291999999999,-0.84814596,5.774216,-1.1430287000000001,-0.022370555,-0.2790993,15.48,41.46,2.88
1554109818211,-7.7189064,-1.1689690000000001,5.769428,-1.4391723,-0.02130529,-0.26418558,15.48,41.7,3.0
1554109818232,-7.8577699999999995,-1.3844471,5.769428,-1.635181,-0.010652645,-0.18961707,15.42,41.88,3.06
1554109818251,-7.967903,-1.5759833,5.668871,-1.8738002,0.026631612000000002,-0.07563378,15.36,42.06,3.18
1554109818272,-7.920019,-1.8968061999999999,5.6640825,-2.2040322,0.060720075,0.0063915867,15.3,42.06,3.24
1554109818292,-8.09719,-2.3756466,5.7263317,-2.4341292,0.10972224,0.058589544,15.24,42.12,3.42
1554109818312,-7.953538000000001,-2.8401217,5.7215432999999996,-2.47674,0.13315806,0.15233281,15.18,42.12,3.66
1554109818332,-7.7811556,-2.9215245,5.549161,-2.3861923,0.11930962,0.2130529,15.06,42.06,4.14
1554109818352,-7.771578999999999,-2.959832,5.6736593,-2.2381206000000002,0.080960095,0.23648871,15.0,41.76,4.8
1554109818371,-7.642291999999999,-2.9885623,5.563526,-2.0314593,0.040480047000000005,0.2609898,14.94,41.34,5.52
1554109818391,-7.374141000000001,-3.0556,5.2618566,-1.8333201000000001,0.0010652645,0.27803403,14.88,40.8,6.3
1554109818411,-7.4507556,-2.9550436,4.9506106,-1.7225326,-0.02876214,0.25672874,14.82,40.02,7.02
1554109818432,-7.5561004,-3.0125043,4.883573,-1.716141,-0.060720075,0.22796659,14.76,39.24,7.86
1554109818451,-7.680599000000001,-3.3237504999999996,4.6680946,-1.7907095000000002,-0.08841695,0.20026971,14.82,38.4,8.64
1554109818471,-7.7093296,-3.3764230000000004,4.888361499999999,-1.8205369999999998,-0.12996227,0.16724652,14.82,37.5,9.36
1554109818492,-7.6231384,-3.5057099999999997,4.735132,-1.7640778999999998,-0.18961707,0.17896444,14.88,36.54,9.96
1554109818511,-7.627927000000001,-3.7547068999999995,4.6920366,-1.6990968000000002,-0.18748654,0.19600865,14.94,35.76,10.32
1554109818531,-7.5273699999999995,-4.228758999999999,4.5723267,-1.6096146,-0.18109496,0.17363810000000002,15.0,34.98,10.68
1554109818552,-7.541735000000001,-4.607043,4.419098,-1.4242586000000002,-0.17257284,0.12144015,15.06,34.2,10.98
1554109818572,-7.5082164,-4.563947,4.5148660000000005,-1.1771171999999999,-0.165116,0.08841695,15.18,33.54,11.28
1554109818592,-7.551311999999999,-4.4059295999999994,4.2658687,-0.9736517,-0.17044231,0.08628642,15.24,32.76,11.52
1554109818613,-7.551311999999999,-4.6022544000000005,4.0216603,-0.87777793,-0.15233281,0.111852765,15.3,31.38,11.82
1554109818631,-7.5369470000000005,-4.7937902999999995,3.9258924,-0.87990844,-0.13102753,0.13848437,15.42,30.54,11.94
1554109818652,-7.589619,-4.812944,3.8109705000000003,-0.90973586,-0.12037488,0.16085494,15.48,29.76,12.0
1554109818671,-7.546523599999999,-4.8799815,3.6864722000000003,-0.9395633,-0.12144015,0.1768339,15.6,29.04,12.06
1554109818692,-7.493850999999999,-4.7842135,3.9211037,-0.9033443000000001,-0.14487597,0.18961707,15.66,28.32,12.12
1554109818712,-7.762002000000001,-4.779425,3.9594111000000005,-0.79042625,-0.16298546,0.20026971,15.72,27.96,12.18
1554109818732,-7.8146744,-4.745906400000001,3.9163153,-0.5656554,-0.18429075,0.25140239999999997,15.78,26.94,12.3
1554109818751,-8.006210000000001,-4.7267528,3.8492777,-0.43782368,-0.18002969,0.27377295,15.84,26.4,12.42
1554109818772,-7.9343843,-4.659715,3.7966053,-0.40373522,-0.19174760000000002,0.294013,15.84,25.86,12.42
1554109818792,-7.872135000000001,-4.702811,3.6816837999999996,-0.386691,-0.2130529,0.31318775,15.84,25.38,12.48
1554109818812,-7.915230800000001,-4.774636699999999,3.6433763999999997,-0.33129725,-0.23861924,0.33129725,15.84,24.9,12.42
1554109818832,-7.7572136,-4.908712,3.8588544999999996,-0.221575,-0.25992453,0.33768883,15.84,24.42,12.36
1554109818851,-7.6470804,-4.7219644,4.222773,-0.10759171,-0.2790993,0.3536678,15.78,23.82,12.24
1554109818873,-7.776367,-4.472967,4.016872,-0.0031957934000000003,-0.27057716,0.37710363,15.78,23.28,12.06
1554109818891,-7.575253999999999,-4.252701,3.8397010000000003,0.0031957934000000003,-0.24394555,0.38242993,15.78,22.8,11.94
1554109818912,-7.5369470000000005,-4.1282024,3.9019501000000005,-0.039414786,-0.20026971,0.36964676,15.78,22.44,11.7
1554109818932,-7.4699089999999995,-4.2622776,3.8109705000000003,-0.036218993,-0.17896444,0.34621096,15.84,22.14,11.52
1554109818952,-7.5321584,-4.171298,3.7726634,-0.023435817999999997,-0.17150758,0.3153183,15.84,21.78,11.34
1554109818971,-7.656657000000001,-4.032433999999999,3.9306807999999998,0.014913702,-0.15765914,0.27696875,15.9,21.36,11.22
1554109818992,-7.6853875999999985,-3.9510313999999997,3.8492777,0.018109497,-0.14594123,0.23648871,15.96,20.88,11.1
1554109819012,-7.699753,-3.9797617999999995,3.887585,-0.051132694000000006,-0.14913702,0.20240025,16.02,20.46,10.92
1554109819032,-7.6853875999999985,-3.9845502,3.9929300000000003,-0.14061491,-0.15765914,0.17896444,16.14,20.04,10.68
1554109819051,-7.7093296,-4.0707417,4.0025067000000005,-0.15978967,-0.15978967,0.15659387,16.26,19.56,10.5
1554109819072,-7.632714999999999,-4.094683600000001,4.3185415,-0.09374327,-0.1470065,0.15765914,16.38,19.14,10.32
1554109819093,-7.7332716,-3.946243,4.385579,0.022370555,-0.13209279,0.16405073,16.44,18.66,10.2
1554109819113,-7.675811,-3.9270894999999997,4.3329067000000006,0.15552860000000002,-0.11717909,0.16298546,16.62,18.18,10.08
1554109819132,-7.7189064,-3.8600516000000002,4.256292,0.27377295,-0.10333065,0.15339808,16.74,17.88,9.9
1554109819151,-7.848192999999999,-3.8361096,4.2993879999999995,0.34621096,-0.1107875,0.14913702,16.86,17.58,9.78
1554109819172,-7.943961,-3.6254199000000003,4.1317935,0.34621096,-0.12144015,0.14274544,16.98,17.4,9.6
1554109819192,-7.9104424,-3.4961330000000004,3.9641995000000003,0.27377295,-0.14913702,0.13741912,17.04,17.34,9.54
1554109819212,-7.896077,-3.5296519,4.0264487,0.19600865,-0.16192019,0.12144015,17.1,17.22,9.42
1554109819232,-7.929596000000001,-3.6445735,4.2898107,0.16085494,-0.16937704,0.13209279,17.16,17.1,9.3
1554109819251,-7.8577699999999995,-3.4434607,4.3568487000000005,0.16192019,-0.17150758,0.13848437,17.22,17.04,9.06
1554109819271,-7.881711999999999,-3.4099417,4.2419267,0.165116,-0.17576863,0.14168017,17.28,16.98,8.88
1554109819292,-7.819463000000001,-3.256713,4.2945995,0.10546118,-0.17470337,0.1438107,17.34,16.86,8.64
1554109819312,-7.8290396,-3.3572693,4.208408,0.046871635999999994,-0.16831179,0.13848437,17.4,16.68,8.46
1554109819331,-7.872135000000001,-3.3716345000000003,4.4861355000000005,0.014913702,-0.16831179,0.13848437,17.46,16.5,8.22
1554109819352,-7.819463000000001,-3.3764230000000004,4.481347,0.015978966,-0.17470337,0.14168017,17.46,16.32,8.04
1554109819372,-7.795521000000001,-3.208829,4.735132,0.03089267,-0.18322548,0.15233281,17.52,16.08,7.92
1554109819391,-7.747636999999999,-3.232771,4.7878050000000005,0.05539375,-0.19281286,0.16831179,17.52,15.9,7.86
1554109819412,-7.699753,-3.1082723,4.7782279999999995,0.08735169,-0.19813919,0.19174760000000002,17.52,15.6,7.74
1554109819432,-7.666233999999999,-2.9789855,4.529230999999999,0.084155895,-0.19068234,0.20133498,17.52,15.48,7.74
1554109819451,-7.704541000000001,-2.7874494,4.759074,0.07456851,-0.17044231,0.20453078,17.46,15.24,7.68
1554109819471,-7.6375036,-2.6533740000000003,4.7878050000000005,0.07669904,-0.15765914,0.19920446,17.46,15.12,7.62
1554109819491,-7.479486,-2.7635074,4.8787847,0.046871635999999994,-0.13209279,0.17257284,17.46,14.94,7.56
1554109819512,-7.575253999999999,-2.5384523999999997,4.7399206,0.027696876000000002,-0.094808534,0.12996227,17.46,14.58,7.38
1554109819532,-7.3885064,-2.6916811000000003,4.6680946,0.020240024,-0.06178534,0.09161274,17.52,14.34,7.26
1554109819552,-7.546523599999999,-2.9311013,4.4621935,-0.023435817999999997,-0.037284255,0.04474111,17.52,14.1,7.14
1554109819572,-7.5944076,-2.902371,4.4526167,-0.082025364,-0.004261058,0.026631612000000002,17.52,13.92,7.02
1554109819591,-7.603985000000001,-2.8880057,4.3329067000000006,-0.113983296,0.020240024,0.040480047000000005,17.58,13.68,6.9
1554109819612,-7.738060000000001,-2.9550436,4.4286747,-0.10759171,0.029827405,0.05219796,17.58,13.5,6.78
1554109819632,-7.690175999999999,-3.0268695,4.3760023,-0.112918034,0.040480047000000005,0.06498113,17.64,13.26,6.6
1554109819652,-7.896077,-2.926313,4.5483847,-0.13315806,0.043675844000000005,0.08628642,17.64,13.02,6.54
1554109819672,-7.9343843,-2.9741971,4.8404775,-0.11611383,0.041545313,0.12037488,17.64,12.72,6.42
1554109819692,-7.872135000000001,-2.9406781000000004,4.854842700000001,-0.036218993,0.023435817999999997,0.13422333,17.64,12.54,6.3
1554109819712,-7.9248075,-2.7156234,4.888361499999999,0.068176925,0.0031957934000000003,0.15233281,17.64,12.3,6.24
1554109819731,-7.9822683,-2.7730842,4.8500543,0.12570119999999999,-0.008522116,0.16405073,17.64,12.12,6.18
1554109819752,-8.025364,-2.7539306,4.8452660000000005,0.099069595,-0.010652645,0.1438107,17.58,11.94,6.12
1554109819772,-8.1163435,-2.6150667999999997,4.8261123,0.05006743,-0.01917476,0.13848437,17.58,11.64,6.06
1554109819792,-8.2169,-2.5767596,4.859630999999999,-0.03834952,-0.014913702,0.10865697,17.52,11.46,6.06
1554109819812,-8.255207,-2.5528176,4.9458222,-0.07563378,-0.020240024,0.10759171,17.52,11.16,6.06
1554109819831,-8.1163435,-2.7347770000000002,4.988918,-0.10226539,-0.024501082,0.10759171,17.46,10.86,6.06
1554109819851,-8.078036,-2.7635074,4.821324,-0.1107875,-0.03195793,0.096939065,17.4,10.56,6.06
1554109819872,-7.9822683,-2.7443538,4.797382,-0.068176925,-0.03834952,0.10759171,17.34,10.26,6.06
1554109819891,-7.881711999999999,-2.6390088,4.7494974,-0.043675844000000005,-0.03195793,0.1107875,17.34,9.96,6.06
1554109819911,-7.752425,-2.6102784,4.5675383,-0.05219796,-0.01917476,0.09161274,17.34,9.66,6.06
1554109819932,-7.723694999999999,-2.6150667999999997,4.672883000000001,-0.07669904,-0.002130529,0.058589544,17.28,9.48,6.06
1554109819952,-7.8386164,-2.533664,4.6058455,-0.080960095,0.014913702,0.04261058,17.28,9.3,6.06
1554109819972,-7.776367,-2.4426842,4.6297874000000006,-0.04474111,0.012783173500000002,0.029827405,17.28,9.3,6.06
1554109819992,-7.6949644,-2.5288756,4.672883000000001,-0.012783173500000002,-0.0031957934000000003,0.007456851,17.28,9.3,6.06
1554109820012,-7.6518690000000005,-2.5001452,4.4382515,0.020240024,-0.0053263223,-0.014913702,17.34,9.3,6.0
1554109820032,-7.627927000000001,-2.4762032000000005,4.634576,-0.007456851,0.007456851,-0.035153727999999995,17.34,9.24,6.0
1554109820052,-7.8577699999999995,-2.2319946,4.6920366,-0.06178534,0.010652645,-0.06924219,17.34,9.18,6.0
1554109820072,-7.608772999999999,-2.332551,4.7159786,-0.101200126,0.017044231,-0.096939065,17.34,9.18,5.94
1554109820091,-7.795521000000001,-2.1027076,4.7207669999999995,-0.20453078,0.01917476,-0.16937704,17.34,9.12,5.88
1554109820112,-7.819463000000001,-2.7347770000000002,4.6297874000000006,-0.31638354,-0.0010652645,-0.18429075,17.34,9.12,5.88
1554109820131,-7.996633500000001,-3.2184057,4.912303400000001,-0.32170987,0.0010652645,-0.17576863,17.4,9.06,5.82
1554109820152,-8.226477000000001,-3.0412347,4.8452660000000005,-0.18961707,0.0010652645,-0.15446335,17.4,9.06,5.82
1554109820172,-8.183380999999999,-2.7060466,4.5962687,-0.07030745599999999,-0.010652645,-0.1438107,17.4,9.06,5.76
1554109820192,-8.197746,-2.9981391,4.7830167,0.010652645,-0.012783173500000002,-0.11824436,17.4,9.06,5.64
1554109820211,-8.058883,-3.0891187,4.6633059999999995,0.07350325,-0.020240024,-0.084155895,17.46,9.06,5.58
1554109820232,-8.1163435,-2.806603,4.696825,0.11504856,0.0,-0.07456851,17.46,9.06,5.52
1554109820252,-7.97748,-2.7491422,4.869208,0.07243799,0.014913702,-0.07456851,17.46,9.12,5.46
1554109820272,-8.207322999999999,-2.5192987999999996,4.8261123,0.025566347000000003,0.043675844000000005,-0.09374327,17.46,9.12,5.4
1554109820292,-7.7907324000000004,-2.7682957999999998,4.5675383,0.026631612000000002,0.015978966,-0.096939065,17.4,9.12,5.34
1554109820311,-7.963114699999999,-2.8832173,4.5435963,0.08628642,0.00958738,-0.13102753,17.4,9.18,5.34
1554109820331,-7.872135000000001,-3.151368,4.4143095,0.06711166,0.0010652645,-0.12463594,17.4,9.24,5.34
1554109820352,-7.7189064,-2.9358897,4.5340195,0.060720075,0.018109497,-0.13422333,17.34,9.36,5.4
1554109820372,-7.680599000000001,-2.6533740000000003,4.6058455,0.07243799,0.024501082,-0.14274544,17.28,9.48,5.46
1554109820392,-7.603985000000001,-2.6007016,4.6058455,0.08628642,0.02876214,-0.1768339,17.28,9.54,5.58
1554109820412,-7.513005000000001,-2.533664,4.4957123,0.08628642,0.049002163,-0.24714136,17.28,9.66,5.64
1554109820432,-7.551311999999999,-2.7012582000000003,4.447828299999999,0.07350325,0.07776430000000001,-0.2876214,17.28,9.72,5.76
1554109820452,-7.5704656,-2.5863364,4.687248,0.017044231,0.10013486,-0.34834146,17.34,9.84,5.82
1554109820471,-7.5800424,-2.6677392,4.44304,-0.037284255,0.10865697,-0.406931,17.34,10.02,5.94
1554109820492,-7.5561004,-2.830545,4.577115,-0.10652645,0.11504856,-0.43356264,17.34,10.26,6.06
1554109820512,-7.445967,-3.0603882999999996,4.759074,-0.12996227,0.13209279,-0.45060685,17.4,10.5,6.18
1554109820532,-7.383717999999999,-3.1561562999999997,4.8739963,-0.080960095,0.13741912,-0.47936899999999993,17.46,10.86,6.3
1554109820552,-7.422025,-3.2375592999999996,5.122993,0.053263225,0.13528858,-0.51984906,17.46,11.28,6.36
1554109820571,-7.2448545,-3.1705215,4.9937059999999995,0.23222765,0.11717909,-0.57098174,17.52,11.64,6.48
1554109820592,-7.1969705,-3.0747535,4.9458222,0.35899413,0.07563378,-0.6412892,17.58,12.06,6.54
1554109820612,-7.3549875999999985,-3.2662897,4.7399206,0.45486793,0.014913702,-0.7350325,17.64,12.54,6.66
1554109820634,-7.3549875999999985,-3.3620577000000003,4.624999,0.47404268,0.0053263223,-0.76485986,17.64,12.72,6.72
1554109820655,-7.431602000000001,-3.7259765,4.433463,0.49321744,0.041545313,-0.79681784,17.7,13.56,6.9
1554109820672,-7.3789296,-3.793014,4.2850223,0.47723848,0.07456851,-0.77870834,17.64,14.34,7.02
1554109820691,-7.4268136,-3.769072,4.5340195,0.45593318,0.083090626,-0.76912093,17.58,15.06,7.08
1554109820711,-7.4363904000000005,-4.018069000000001,4.371214,0.406931,0.083090626,-0.773382,17.46,15.9,7.14
1554109820732,-7.4842744,-4.032433999999999,4.3281183,0.34088463,0.10013486,-0.7850999,17.34,16.68,7.26
1554109820751,-7.5321584,-4.156933,4.4957123,0.31105720000000003,0.12783173,-0.79042625,17.22,17.4,7.38
1554109820771,-7.311891999999999,-4.0563765,4.6920366,0.35899413,0.15126756,-0.79042625,17.1,18.06,7.5
1554109820792,-6.9862804,-4.147355999999999,4.8165355000000005,0.5219796,0.16298546,-0.8000136,16.98,18.6,7.68
1554109820811,-7.1586633,-4.3676224,4.687248,0.69135666,0.165116,-0.79255676,16.92,19.08,7.8
1554109820831,-7.0581064,-4.540005000000001,4.5914803,0.6775081999999999,0.165116,-0.7765778,16.92,19.38,7.92
1554109820851,-7.067683000000001,-4.5352163,4.744708999999999,0.57311225,0.16724652,-0.7957525,16.86,19.68,8.1
1554109820871,-6.8186865,-4.597466000000001,4.7207669999999995,0.5251754,0.16724652,-0.8000136,16.86,20.28,8.22
1554109820892,-6.555324000000001,-4.635773,5.0320134,0.5273059,0.16405073,-0.77444726,16.86,21.18,8.34
1554109820911,-6.6415157,-4.745906400000001,5.175665400000001,0.61678815,0.15233281,-0.78723043,16.8,22.26,8.4
1554109820932,-6.6606693,-4.745906400000001,4.835689,0.6924219,0.15126756,-0.80747044,16.68,23.52,8.46
1554109820951,-6.646304,-4.6884456,4.941033999999999,0.6487460999999999,0.17470337,-0.7978831000000001,16.5,24.9,8.52
1554109820971,-6.593631299999999,-4.6692919999999996,4.9506106,0.5091964,0.17044231,-0.7819041,16.26,26.34,8.58
1554109820991,-6.564901,-4.76506,4.9745526,0.3270362,0.17576863,-0.75420725,16.08,27.96,8.58
1554109821012,-6.770802499999999,-5.00448,5.237914599999999,0.18855181,0.18642128,-0.7488809000000001,15.72,30.3,8.7
1554109821031,-6.7372837,-5.148132299999999,4.979341000000001,0.1438107,0.20453078,-0.7499462,15.66,30.96,8.76
1554109821052,-6.8522053,-5.143344,4.926668599999999,0.10333065,0.25033715,-0.74461985,15.42,32.04,8.94
1554109821071,-6.895301,-5.2103815,4.854842700000001,0.08522116,0.30146983,-0.73290193,15.24,33.12,9.12
1554109821091,-7.067683000000001,-5.3683987,4.8261123,0.040480047000000005,0.34408042,-0.67218184,15.18,34.14,9.24
1554109821112,-7.134721300000001,-5.6030307,4.744708999999999,-0.036218993,0.37284255,-0.58269966,15.06,35.64,9.54
1554109821131,-7.273585000000001,-5.607819,4.883573,-0.037284255,0.38136467,-0.54435015,15.0,36.48,9.72
1554109821152,-7.278373200000001,-5.5647235,4.969764,0.058589544,0.386691,-0.4878911,15.0,36.9,9.84
1554109821171,-7.2592196,-5.66528,4.9218802,0.25353295,0.3685815,-0.39414784,14.88,37.62,10.02
1554109821191,-7.2304892999999995,-5.33488,4.969764,0.44421527,0.330232,-0.29933932,14.76,38.64,10.26
1554109821211,-6.991069,-5.33488,4.979341000000001,0.6743124,0.257794,-0.24501082,14.58,39.3,10.38
1554109821232,-6.804321300000001,-5.1960163,4.9458222,0.8309063,0.20879184,-0.22370553,14.4,39.84,10.5
1554109821252,-6.5984197,-4.994903,4.859630999999999,1.0972224,0.1470065,-0.20772657,14.16,40.38,10.62
1554109821272,-6.3446345,-4.7842135,4.912303400000001,1.3411678999999999,0.082025364,-0.21411815,13.92,40.92,10.74
1554109821291,-6.167464,-4.487332299999999,4.7782279999999995,1.4839133999999998,0.0031957934000000003,-0.24394555,13.68,41.58,10.8
1554109821312,-6.0860605,-4.152144399999999,4.4957123,1.4679343999999999,-0.082025364,-0.28868666,13.5,42.12,10.8
1554109821331,-5.8945246,-3.7738605000000005,4.3664255,1.3070794,-0.15339808,-0.33768883,13.32,42.72,10.86
1554109821351,-5.731719,-3.697246,4.4717703,1.0705907,-0.21944448,-0.4048005,13.14,43.44,10.86
1554109821372,-5.6790465999999995,-3.7547068999999995,4.5675383,0.8127968000000001,-0.27803403,-0.49108690000000005,13.02,44.1,10.8
1554109821392,-5.635950599999999,-4.252701,4.759074,0.5496765,-0.32810146,-0.58056915,12.9,44.76,10.68
1554109821412,-5.521029,-4.348469000000001,5.099051,0.27803403,-0.36112466,-0.67324716,12.84,45.3,10.44
1554109821431,-5.4683566,-4.496909,5.4055089999999995,0.04580637,-0.36751625,-0.75633776,12.78,45.9,10.08
1554109821452,-5.315128,-4.7123876,5.443816,-0.12463594,-0.35473305,-0.80533993,12.66,46.32,9.6
1554109821471,-5.2624555,-5.2008047,5.716755,-0.17150758,-0.31638354,-0.8117314999999999,12.54,46.86,9.12
1554109821491,-5.4061074,-5.593454,5.994482499999999,-0.14487597,-0.28655612,-0.80533993,12.42,47.52,8.7
1554109821511,-5.425261,-5.655703,5.994482499999999,-0.03834952,-0.23861924,-0.8223841999999999,12.24,48.18,8.28
1554109821531,-5.521029,-5.512050599999999,5.999271,0.033023197000000004,-0.2066613,-0.81918836,12.0,48.78,7.92
1554109821552,-5.602432,-5.2917843,6.0040593,0.09054748,-0.15659387,-0.8064051999999999,11.64,49.44,7.62
1554109821571,-5.530606,-5.382764,6.0184245,0.10759171,-0.10865697,-0.79894835,11.28,50.1,7.38
1554109821591,-5.444414599999999,-5.4545900000000005,6.1764417,0.04474111,-0.06498113,-0.79681784,10.92,50.7,7.26
1554109821611,-5.521029,-5.5168395,6.1524997,-0.026631612000000002,-0.012783173500000002,-0.79681784,10.5,51.36,7.32
1554109821631,-5.482722,-5.48332,6.0327897,-0.05006743,0.02130529,-0.7755125,10.14,52.02,7.26
1554109821651,-5.535394,-5.4545900000000005,6.2099605,-0.03834952,0.05219796,-0.75420725,9.78,52.62,7.26
1554109821672,-5.463568,-5.502473999999999,6.2099605,0.026631612000000002,0.08948222,-0.7233145999999999,9.36,53.1,7.26
1554109821691,-5.248090299999999,-5.4593782,6.1046157,0.11930962,0.10333065,-0.716923,9.0,53.64,7.2
1554109821712,-5.343858200000001,-5.4545900000000005,6.2243257000000005,0.27377295,0.08948222,-0.7222493000000001,8.76,54.3,7.2
1554109821732,-5.161899,-5.172074299999999,6.114192500000001,0.43675843,0.05219796,-0.72011876,8.52,55.02,7.14
1554109821752,-5.0421886,-5.0236335,5.755062000000001,0.51984906,-0.014913702,-0.72651035,8.16,55.74,7.14
1554109821772,-4.8123455,-4.923076999999999,5.5826797,0.35792887,-0.11930962,-0.7574029999999999,7.56,56.76,7.08
1554109821792,-4.5394063,-4.851251,5.6880245,0.19600865,-0.16618125,-0.79042625,7.32,57.06,7.08
1554109821811,-4.429273,-5.0763063,5.6257753,-0.02130529,-0.22796659,-0.8149273,6.9,57.6,7.02
1554109821831,-4.122815,-5.2199583,5.855619,-0.2066613,-0.28016454,-0.8447546999999999,6.48,58.08,6.96
1554109821851,-3.8211459999999997,-5.7945666,6.214748999999999,-0.18216023,-0.32597092,-0.9139969000000001,5.76,58.86,6.9
1554109821872,-3.5482068,-6.3883285999999995,6.5164184999999994,0.04580637,-0.350472,-0.9406285,5.28,59.34,6.78
1554109821891,-3.3039982000000006,-6.9916677,6.4828997,0.3206446,-0.3717773,-0.94808537,4.86,59.88,6.6
1554109821911,-3.169923,-7.1209545,6.559514,0.57417756,-0.37923414,-0.95234644,4.44,60.3,6.42
1554109821932,-3.1747115000000004,-7.015609700000001,6.4398040000000005,0.66365975,-0.36645097,-0.8852348,4.14,60.78,6.24
1554109821951,-3.0597897,-7.0730705,6.377555,0.567786,-0.33981937,-0.793622,3.78,61.2,6.06
1554109821971,-3.0597897,-7.1448965,6.6600703999999995,0.35153726,-0.30999196,-0.7041398,3.48,61.68,5.82
1554109821991,-3.0358477,-7.029975,6.7941460000000005,0.17789917,-0.2695119,-0.6242449999999999,3.12,62.1,5.46
1554109822012,-3.1986535,-6.900687700000001,7.0527196,0.08948222,-0.23116238,-0.5368933000000001,2.64,62.52,4.98
1554109822031,-3.217807,-6.7187285,7.08145,0.07350325,-0.21198763,-0.46125950000000004,2.16,62.82,4.56
1554109822051,-3.2848446000000004,-6.4745197,7.1867948,0.09054748,-0.19707392,-0.41225734,1.68,63.18,4.14
1554109822071,-3.3470940000000002,-6.3404446,7.148487599999999,0.12144015,-0.20453078,-0.36325517,1.14,63.48,3.72
1554109822091,-3.3806129,-6.345233,7.426214999999999,0.15126756,-0.20133498,-0.30253512,0.54,63.78,3.3
1554109822111,-3.2992098,-6.417059,7.1963716,0.19813919,-0.2066613,-0.23968449999999997,0.0,64.02,2.94
1554109822131,-3.1172507,-6.3404446,7.354389,0.25140239999999997,-0.19813919,-0.17470337,-0.6,64.26,2.64
1554109822151,-3.064578,-6.3548098,7.091027,0.28016454,-0.18535602,-0.10546118,-1.02,64.5,2.46
1554109822172,-3.0166939999999998,-6.225523,6.985682000000001,0.24181503,-0.17044231,-0.037284255,-1.26,64.68,2.34
1554109822191,-2.944868,-6.1489085999999995,6.6744356,0.12570119999999999,-0.13848437,0.023435817999999997,-1.44,64.86,2.22
1554109822211,-2.6431987,-6.306926,6.6792240000000005,0.02876214,-0.1107875,0.07350325,-1.56,64.98,2.16
1554109822231,-2.6384103,-6.4601545,6.707954400000001,-0.02876214,-0.06178534,0.113983296,-1.62,65.1,2.04
1554109822251,-2.5378537,-6.579865,6.5068417,-0.058589544,0.013848438000000001,0.14913702,-1.5,65.1,1.86
1554109822272,-2.3989902,-6.642114,6.320094,-0.08841695,0.09267801,0.1768339,-1.44,65.16,1.74
1554109822291,-2.3127987,-6.488885,6.2865753,-0.17470337,0.16298546,0.19813919,-1.38,65.16,1.56
1554109822311,-2.1691467999999996,-6.2781954,6.4350157,-0.25140239999999997,0.20133498,0.21411815,-1.26,65.22,1.38
1554109822331,-1.9632453999999997,-6.0866594,6.63134,-0.26525086,0.21198763,0.20985709,-1.2,65.22,1.26
1554109822352,-1.8866308999999997,-5.9717374,6.7366850000000005,-0.20453078,0.19920446,0.17789917,-1.14,65.22,1.2
1554109822371,-1.8004397,-5.7227407,7.143699000000001,-0.09267801,0.17576863,0.11717909,-1.02,65.16,1.14
1554109822391,-1.7525556,-5.612607499999999,7.086238400000001,-0.014913702,0.14913702,0.058589544,-0.96,65.22,1.2
1554109822411,-1.7669207999999998,-5.430648000000001,7.1963716,0.111852765,0.10652645,-0.06391586,-0.84,65.28,1.32
1554109822432,-1.958457,-5.282207499999999,7.454945599999999,0.22050974,0.06285059999999999,-0.18109496,-0.72,65.4,1.44
1554109822452,-1.9249381999999997,-5.1816510000000005,7.450157000000001,0.27483824,-0.00958738,-0.31105720000000003,-0.54,65.46,1.62
1554109822471,-2.111686,-5.1146135,7.785345599999999,0.29933932,-0.07350325,-0.41545314,-0.42,65.58,1.74
1554109822492,-2.2218192,-5.1146135,7.7087307,0.30253512,-0.12570119999999999,-0.46339005,-0.24,65.64,1.92
1554109822512,-2.1883004,-5.277419,7.866748299999999,0.28016454,-0.15765914,-0.47297743,-0.18,65.82,2.04
1554109822531,-2.2936451,-5.492897,7.814075999999999,0.2130529,-0.17896444,-0.48149952,-0.06,65.94,2.16
1554109822552,-2.2409727999999998,-5.761048000000001,7.699153999999999,0.13209279,-0.17896444,-0.49321744,-0.06,66.06,2.16
1554109822572,-2.1260512,-6.081871,7.7039423,0.12250541,-0.13954964,-0.5049353,-0.18,66.12,2.04
1554109822592,-2.1021092,-6.2542534000000005,7.5746554999999995,0.14168017,-0.082025364,-0.5230448000000001,-0.42,66.24,1.86
1554109822611,-2.2409727999999998,-6.359598,7.493252799999999,0.17896444,-0.008522116,-0.5592638000000001,-0.66,66.36,1.68
1554109822632,-2.2888567,-6.1345434,7.129334,0.18642128,0.07137272,-0.567786,-0.84,66.48,1.5
1554109822653,-2.3558946,-5.9621606,6.8516070000000004,0.15339808,0.14274544,-0.55287224,-1.14,66.66,1.26
1554109822672,-2.6288335,-5.909488,6.645705,0.08735169,0.19174760000000002,-0.52411014,-1.38,66.84,1.08
1554109822691,-2.72939,-5.8328739999999994,6.535572,-0.0031957934000000003,0.21944448,-0.47723848,-1.62,67.02,0.9
1554109822712,-2.657564,-5.938218599999999,6.7366850000000005,-0.05539375,0.24074976,-0.4282363,-1.8,67.14,0.66
1554109822732,-2.5809495,-6.096236,6.741472999999999,-0.058589544,0.24927188,-0.38562572,-2.04,67.32,0.6
1554109822752,-2.528277,-6.096236,6.7893577,0.004261058,0.26631612,-0.35899413,-2.16,67.5,0.6
1554109822771,-2.5617957000000002,-6.139332,6.885125599999999,0.07456851,0.28122982,-0.32810146,-2.46,67.68,0.54
1554109822792,-2.4947581000000003,-5.990891,6.746262,0.096939065,0.26844665,-0.3206446,-2.82,67.92,0.54
1554109822812,-2.695871,-5.9238534000000005,6.7606273,0.07563378,0.2545982,-0.3206446,-3.3,68.28,0.48
1554109822832,-2.6910827,-5.9047,6.664859,0.0010652645,0.22690132,-0.29294774,-3.66,68.52,0.48
1554109822852,-2.7772740000000002,-6.0148335,6.923433,-0.07776430000000001,0.18961707,-0.27590349999999997,-4.02,68.76,0.48
1554109822871,-2.8634652999999997,-5.9621606,6.971317,-0.10759171,0.13848437,-0.2545982,-4.38,69.0,0.48
1554109822891,-2.7006595,-6.172850599999999,6.96174,-0.083090626,0.098004326,-0.23116238,-4.74,69.18,0.48
1554109822911,-2.7581203,-6.1058129999999995,7.086238400000001,-0.0053263223,0.040480047000000005,-0.19600865,-5.04,69.36,0.6
1554109822933,-2.7868507,-6.057929,7.1867948,0.051132694000000006,-0.013848438000000001,-0.15446335,-5.16,69.42,0.78
1554109822953,-2.801216,-6.067506,7.119757000000001,0.098004326,-0.049002163,-0.10865697,-5.22,69.48,0.9
1554109822973,-2.767697,-6.0483522,7.1006035999999995,0.11611383,-0.07350325,-0.068176925,-5.34,69.48,0.96
1554109822992,-2.825158,-6.2638300000000005,7.0766615999999996,0.12783173,-0.068176925,-0.01917476,-5.4,69.48,1.08
1554109823011,-2.6431987,-6.350021400000001,7.0670850000000005,0.13102753,-0.04474111,0.039414786,-5.52,69.42,1.2
1554109823031,-2.5330652999999996,-6.393117,7.3591776,0.15446335,-0.010652645,0.09161274,-5.58,69.42,1.26
1554109823052,-2.4708161,-6.5271926,7.239467599999999,0.1587244,0.020240024,0.12783173,-5.7,69.42,1.32
1554109823071,-2.384625,-6.4936733,6.918644400000001,0.1438107,0.035153727999999995,0.13315806,-5.76,69.42,1.26
1554109823091,-2.4995465,-5.8663926,6.688801,0.07882957,0.024501082,0.10226539,-5.82,69.42,1.26
1554109823112,-2.7964275,-5.382764,6.602609599999999,-0.05965481,0.004261058,0.15233281,-5.88,69.36,1.2
1554109823131,-2.8299465,-5.521628,6.875549,-0.17150758,-0.04261058,0.23009712,-5.94,69.36,1.14
1554109823151,-2.6910827,-5.842450599999999,7.0527196,-0.26738137,-0.12676647,0.30466563,-5.94,69.36,1.08
1554109823172,-2.4708161,-6.000468,7.08145,-0.19600865,-0.21198763,0.35153726,-5.94,69.36,1.08
1554109823191,-2.4899697,-6.139332,7.086238400000001,-0.15020229,-0.24394555,0.36964676,-5.88,69.36,1.02
1554109823211,-1.958457,-6.3883285999999995,7.062296400000001,-0.07137272,-0.31851408,0.3717773,-5.58,69.3,0.96
1554109823232,-1.8052281000000003,-6.637326,7.1867948,-0.06178534,-0.32170987,0.3717773,-5.4,69.3,0.96
1554109823252,-1.5993267,-6.6947865,7.0766615999999996,-0.068176925,-0.28229508,0.4079963,-5.16,69.18,0.9
1554109823271,-1.5705963,-6.5750766,7.129334,-0.07137272,-0.22264028,0.44741106,-4.92,69.06,0.9
1554109823291,-1.5705963,-6.168062,7.000047,-0.047936900000000005,-0.16937704,0.45593318,-4.62,68.94,0.9
1554109823312,-1.6232687,-6.0483522,7.119757000000001,0.034088463,-0.12250541,0.45380265,-4.38,68.76,0.9
1554109823332,-1.6136919,-5.8663926,6.971317,0.11824436,-0.08735169,0.41545314,-4.08,68.64,0.84
1554109823351,-1.6041151000000002,-5.885546,7.0527196,0.21092236,-0.04261058,0.34408042,-3.78,68.46,0.84
1554109823371,-1.6903063999999999,-5.689222,7.148487599999999,0.25140239999999997,0.0010652645,0.27590349999999997,-3.48,68.34,0.78
1554109823393,-1.6184803,-5.4354362,7.1341224,0.22050974,0.03089267,0.21944448,-3.18,68.22,0.72
1554109823411,-1.8052281000000003,-5.3061495,7.047931,0.13422333,0.04580637,0.1438107,-2.82,68.1,0.66
1554109823433,-1.9297266,-5.0140567,6.899491,0.0053263223,0.053263225,0.09587380000000001,-2.52,67.98,0.6
1554109823453,-2.1212628,-5.109825,6.7989345000000005,-0.13635385,0.04261058,0.06285059999999999,-2.16,67.8,0.54
1554109823473,-2.0973208,-5.205593,6.913856,-0.25246766,0.012783173500000002,0.014913702,-1.86,67.62,0.48
1554109823492,-2.255338,-5.248688700000001,6.765415700000001,-0.30679616,-0.02876214,-0.035153727999999995,-1.56,67.38,0.42
1554109823512,-2.1978772,-5.3300915,6.5212069999999995,-0.34088463,-0.07776430000000001,-0.06711166,-1.38,67.2,0.42
1554109823532,-2.1883004,-5.3875523,6.6983776,-0.37603834,-0.12570119999999999,-0.10759171,-1.26,66.96,0.36
1554109823552,-2.2888567,-5.54557,6.602609599999999,-0.43462790000000007,-0.17470337,-0.14913702,-1.2,66.78,0.36
1554109823571,-2.2936451,-5.6700683,6.655282000000001,-0.49108690000000005,-0.2130529,-0.18002969,-1.14,66.6,0.42
1554109823591,-2.1978772,-5.861604,6.8611835999999995,-0.49321744,-0.23116238,-0.20240025,-1.08,66.54,0.54
1554109823612,-2.054225,-6.508039,7.119757000000001,-0.46019423,-0.23542345,-0.20985709,-1.14,66.54,0.84
1554109823631,-2.054225,-6.713939999999999,7.2873516,-0.39201729999999996,-0.22583607,-0.21731395,-1.14,66.6,1.02
1554109823653,-2.0925324,-6.9150529999999995,7.325659,-0.23968449999999997,-0.17896444,-0.21731395,-1.14,66.66,1.44
1554109823672,-2.1499932,-6.900687700000001,7.459734,-0.15446335,-0.13635385,-0.1949434,-1.14,66.78,1.8
1554109823691,-2.1978772,-6.737882000000001,7.41185,-0.084155895,-0.09587380000000001,-0.16298546,-1.14,66.84,2.04
1554109823711,-2.2744915,-6.6947865,7.3591776,-0.06285059999999999,-0.06178534,-0.128897,-1.14,66.96,2.34
1554109823732,-2.456451,-6.4745197,7.421427,-0.04261058,-0.040480047000000005,-0.10546118,-1.14,67.14,2.58
1554109823752,-2.5378537,-6.2638300000000005,7.2873516,0.00958738,-0.029827405,-0.080960095,-1.14,67.26,2.7
1554109823772,-2.5905263,-6.287772,7.373543,0.037284255,-0.029827405,-0.054328485999999995,-1.14,67.38,2.7
1554109823791,-2.60968,-6.201581,7.177217999999999,0.039414786,-0.041545313,-0.03195793,-1.14,67.5,2.7
1554109823811,-2.6767175,-6.225523,7.153275999999999,0.035153727999999995,-0.05219796,-0.002130529,-1.14,67.62,2.64
1554109823832,-2.5187001,-6.206369400000001,7.119757000000001,0.060720075,-0.05752428,0.023435817999999997,-1.14,67.8,2.58
1554109823852,-2.4660277,-6.139332,6.899491,0.096939065,-0.058589544,0.02876214,-1.14,67.86,2.58
1554109823872,-2.3798366,-6.239888,7.105392,0.12996227,-0.05006743,0.02876214,-1.14,67.92,2.52
1554109823892,-2.336741,-6.3165026,6.894702400000001,0.15765914,-0.04261058,0.022370555,-1.14,67.86,2.46
1554109823912,-2.2361843999999995,-6.2925606,6.909067599999999,0.165116,-0.033023197000000004,0.014913702,-1.14,67.8,2.4
1554109823932,-2.1643584,-6.469731299999999,6.933009599999999,0.15339808,-0.020240024,0.011717908999999999,-1.14,67.8,2.34
1554109823951,-2.1212628,-6.297349,6.870760400000001,0.12570119999999999,-0.010652645,0.013848438000000001,-1.14,67.74,2.34
1554109823971,-2.135628,-6.201581,6.63134,0.10865697,-0.0063915867,0.008522116,-1.2,67.74,2.22
1554109823991,-2.3032220000000003,-6.005256,6.7223196,0.08948222,-0.017044231,0.018109497,-1.2,67.68,2.16
1554109824012,-2.3894134,-6.033987000000001,6.885125599999999,0.07456851,-0.047936900000000005,0.014913702,-1.26,67.68,1.98
1554109824031,-2.384625,-5.93343,6.933009599999999,0.07030745599999999,-0.07776430000000001,0.017044231,-1.38,67.68,1.86
1554109824052,-2.2888567,-5.9621606,6.9521630000000005,0.07350325,-0.099069595,0.029827405,-1.44,67.62,1.74
1554109824072,-2.3032220000000003,-5.799355,7.071872999999999,0.06285059999999999,-0.13102753,0.04580637,-1.56,67.56,1.56
1554109824092,-2.2170308,-5.7466826,7.1915830000000005,0.036218993,-0.16405073,0.06391586,-1.62,67.5,1.44
1554109824112,-2.2218192,-5.799355,7.234678999999999,0.03089267,-0.18535602,0.07882957,-1.74,67.44,1.32
1554109824132,-2.183512,-5.93343,7.253833,0.04580637,-0.19600865,0.098004326,-1.8,67.38,1.26
1554109824152,-2.1068976000000004,-6.000468,7.3065050000000005,0.07669904,-0.18642128,0.10865697,-1.86,67.32,1.14
1554109824172,-2.006341,-6.192004,7.426214999999999,0.10759171,-0.15446335,0.10546118,-1.86,67.32,0.96
1554109824191,-2.0159178,-6.1345434,7.29214,0.12676647,-0.10972224,0.10226539,-1.8,67.26,0.78
1554109824211,-2.0685901999999996,-6.192004,7.1867948,0.11717909,-0.058589544,0.08948222,-1.74,67.26,0.66
1554109824233,-2.1643584,-6.0291986,7.177217999999999,0.08522116,-0.015978966,0.07350325,-1.56,67.26,0.48
1554109824253,-2.1978772,-5.966949,7.014412400000001,0.06178534,0.014913702,0.05006743,-1.44,67.26,0.36
1554109824273,-2.1930888,-5.895123,6.985682000000001,0.056459017,0.041545313,0.043675844000000005,-1.26,67.26,0.24
1554109824292,-2.2697031,-5.7945666,6.9761050000000004,0.051132694000000006,0.06604639400000001,0.033023197000000004,-1.02,67.26,0.06
1554109824312,-2.2936451,-5.761048000000001,6.7606273,0.043675844000000005,0.09267801,0.012783173500000002,-0.72,67.2,-0.06
1554109824331,-2.2361843999999995,-5.7466826,6.569091,-0.004261058,0.1107875,0.002130529,-0.48,67.2,-0.12
1554109824351,-2.3080103,-5.6940102999999995,6.6600703999999995,-0.09374327,0.10439592,-0.01917476,-0.36,67.14,-0.12
1554109824372,-2.4085669999999997,-5.703587000000001,6.578667599999999,-0.18642128,0.07456851,-0.041545313,-0.24,67.08,-0.12
1554109824392,-2.4420857000000002,-5.966949,6.746262,-0.24181503,0.03834952,-0.04580637,-0.18,66.96,-0.06
1554109824412,-2.4133554,-6.1632739999999995,6.765415700000001,-0.28229508,-0.018109497,-0.034088463,-0.12,66.9,0.0
1554109824431,-2.5139117000000004,-6.321291,6.9761050000000004,-0.26418558,-0.07563378,-0.013848438000000001,-0.06,66.78,0.06
1554109824451,-2.3415293999999998,-6.407482,7.019201,-0.20133498,-0.11717909,0.026631612000000002,-0.12,66.72,0.18
1554109824472,-2.1883004,-6.666056,7.0527196,-0.10652645,-0.13528858,0.05965481,-0.24,66.6,0.42
1554109824492,-2.0398598000000003,-6.517616,7.062296400000001,-0.054328485999999995,-0.14274544,0.08522116,-0.24,66.48,0.54
1554109824511,-2.0159178,-6.321291,7.071872999999999,-0.02130529,-0.13102753,0.10972224,-0.3,66.48,0.72
1554109824532,-1.9153613999999999,-6.177639,6.928221000000001,0.0,-0.11504856,0.11930962,-0.3,66.48,0.84
1554109824552,-1.9823990000000002,-5.9047,6.779781,0.004261058,-0.10226539,0.10013486,-0.36,66.54,0.9
1554109824572,-1.9967641999999999,-5.789778,6.923433,-0.002130529,-0.09161274,0.06498113,-0.36,66.54,1.02
1554109824591,-1.9345150000000002,-5.6940102999999995,6.885125599999999,0.002130529,-0.09587380000000001,0.037284255,-0.36,66.54,1.08
1554109824612,-1.9632453999999997,-5.6748567,6.84203,-0.004261058,-0.09054748,-0.0063915867,-0.36,66.54,1.08
1554109824632,-2.0446482,-5.617396,7.0048356,-0.051132694000000006,-0.09054748,-0.04580637,-0.3,66.6,1.08
1554109824652,-1.9776106,-5.861604,7.3400240000000005,-0.13422333,-0.09587380000000001,-0.07030745599999999,-0.24,66.6,1.08
1554109824672,-1.9680338,-6.005256,7.244256,-0.18961707,-0.10652645,-0.094808534,-0.18,66.6,1.08
1554109824691,-1.9249381999999997,-6.1249666,7.387908,-0.18109496,-0.113983296,-0.10865697,-0.12,66.54,1.14
1554109824712,-1.9201498,-6.120178,7.2873516,-0.12463594,-0.113983296,-0.1107875,-0.12,66.54,1.08
1554109824732,-1.9728221999999997,-6.096236,7.3112936,-0.047936900000000005,-0.111852765,-0.10546118,-0.06,66.54,1.14
1554109824751,-2.0733786,-6.096236,7.478887599999999,0.011717908999999999,-0.10759171,-0.10013486,-0.06,66.54,1.14
1554109824771,-2.0685901999999996,-6.1632739999999995,7.253833,0.041545313,-0.112918034,-0.101200126,0.0,66.54,1.2
1554109824792,-2.0925324,-6.172850599999999,7.373543,0.05539375,-0.098004326,-0.11611383,0.0,66.48,1.26
1554109824812,-2.1164744,-6.206369400000001,7.354389,0.07776430000000001,-0.07030745599999999,-0.113983296,0.06,66.48,1.26
1554109824831,-2.0829554,-6.297349,7.2969284,0.098004326,-0.03195793,-0.10439592,0.06,66.42,1.32
1554109824851,-2.2649147999999997,-6.1106014,7.167641000000001,0.112918034,0.004261058,-0.11504856,0.06,66.36,1.26
1554109824871,-2.2649147999999997,-6.005256,7.119757000000001,0.098004326,0.034088463,-0.12463594,0.0,66.24,1.2
1554109824892,-2.336741,-6.067506,7.0048356,0.053263225,0.051132694000000006,-0.12357068,-0.06,66.18,1.08
1554109824911,-2.2888567,-6.0866594,6.8516070000000004,-0.004261058,0.06391586,-0.12357068,-0.12,66.12,0.96
1554109824931,-2.3415293999999998,-6.225523,7.019201,-0.024501082,0.06178534,-0.10972224,-0.18,66.12,0.78
1554109824952,-2.3702598,-6.2925606,7.000047,-0.017044231,0.04580637,-0.084155895,-0.24,66.12,0.66
1554109824972,-2.2457612,-6.3021374,7.086238400000001,0.00958738,0.024501082,-0.054328485999999995,-0.36,66.12,0.48
1554109824991,-2.1978772,-6.2638300000000005,7.138911,0.04580637,0.011717908999999999,-0.034088463,-0.48,66.12,0.36
1554109825012,-2.15957,-6.2207346,7.129334,0.11717909,-0.013848438000000001,-0.010652645,-0.6,66.18,0.24
1554109825032,-2.0254946,-6.201581,7.095814999999999,0.15446335,-0.033023197000000004,-0.008522116,-0.66,66.24,0.24
1554109825052,-2.0207062,-6.321291,7.215525,0.16724652,-0.041545313,-0.010652645,-0.66,66.3,0.24
1554109825072,-1.8339584999999998,-6.2781954,7.244256,0.15552860000000002,-0.040480047000000005,0.0031957934000000003,-0.66,66.36,0.24
1554109825094,-1.7956512999999998,-6.2638300000000005,7.474099000000001,0.15446335,-0.033023197000000004,0.029827405,-0.66,66.42,0.24
1554109825114,-1.6807296000000003,-6.0531406,7.498041000000001,0.18002969,-0.015978966,0.027696876000000002,-0.66,66.48,0.24
1554109825131,-1.6759412,-5.751471,7.3112936,0.22264028,-0.013848438000000001,0.0031957934000000003,-0.66,66.6,0.24
1554109825151,-1.6376339,-5.555146700000001,7.124545599999999,0.24820662,-0.004261058,-0.018109497,-0.66,66.6,0.24
1554109825172,-1.9153613999999999,-5.2917843,7.038354400000001,0.24820662,-0.0010652645,-0.03834952,-0.66,66.6,0.24
1554109825191,-2.0446482,-5.0906715,7.1341224,0.17896444,-0.012783173500000002,-0.05539375,-0.6,66.54,0.18
1554109825212,-2.2218192,-5.0763063,6.995259,0.047936900000000005,-0.035153727999999995,-0.06924219,-0.6,66.54,0.12
1554109825232,-2.3080103,-5.3444567,7.0766615999999996,-0.08628642,-0.068176925,-0.043675844000000005,-0.6,66.48,0.06
1554109825251,-2.2409727999999998,-5.579088700000001,7.1341224,-0.16192019,-0.084155895,-0.002130529,-0.6,66.42,0.0
1554109825271,-2.15957,-6.000468,7.2729864,-0.13422333,-0.09267801,0.025566347000000003,-0.6,66.3,-0.06
1554109825291,-1.9536686,-6.072294,7.2969284,-0.049002163,-0.08948222,0.03195793,-0.6,66.18,-0.18
1554109825312,-1.9440918000000003,-6.311714,7.167641000000001,0.049002163,-0.07882957,0.020240024,-0.6,66.06,-0.24
1554109825332,-1.733402,-6.1632739999999995,6.765415700000001,0.128897,-0.053263225,0.013848438000000001,-0.54,66.0,-0.3
1554109825351,-1.958457,-6.1249666,6.602609599999999,0.1470065,-0.020240024,-0.010652645,-0.42,66.0,-0.36
1554109825372,-2.0446482,-5.9717374,6.746262,0.07243799,-0.011717908999999999,-0.041545313,-0.36,65.94,-0.42
1554109825391,-2.1930888,-6.0291986,6.832453299999999,-0.06178534,-0.026631612000000002,-0.07563378,-0.24,65.94,-0.48
1554109825412,-2.1404164,-6.177639,6.913856,-0.13635385,-0.04474111,-0.10226539,-0.12,65.94,-0.54
1554109825432,-2.255338,-6.172850599999999,7.0670850000000005,-0.13422333,-0.049002163,-0.10652645,-0.06,65.94,-0.66
1554109825451,-2.4372973,-6.0291986,7.091027,-0.10226539,-0.06498113,-0.10333065,0.06,66.0,-0.78
