TimeStamp,Ax,Ay,Az,Gx,Gy,Gz,Mx,My,Mz
1554879582317,4.673482,-1.240795,8.288128,-0.31638354,-0.30679616,-0.27803403,-10.2,-36.6,-51.78
1554879582337,4.8219223,-1.7340006000000001,8.158841,-0.10652645,-0.30892670000000005,-0.294013,-10.26,-36.12,-52.02
1554879582357,5.401319,-3.0125043,8.465299,0.22264028,-0.20026971,-0.12570119999999999,-10.32,-35.46,-52.44
1554879582377,5.683835,-2.212841,8.010401,0.41864893,-0.19068234,-0.24927188,-10.32,-35.28,-52.56
1554879582397,5.4683566,-1.1258733,8.120534,0.49854377,-0.10652645,-0.41438788,-10.38,-35.1,-52.8
1554879582417,5.3486465999999995,-1.3317747,8.000824,0.18002969,-0.07882957,-0.06711166,-10.5,-34.86,-53.04
1554879582436,5.1810527,-1.9446903000000002,8.067862,-0.07456851,-0.07137272,-0.11717909,-10.56,-34.8,-53.1
1554879582456,5.463568,-2.3995886000000004,8.134899,-0.165116,-0.083090626,-0.047936900000000005,-10.62,-34.74,-53.1
1554879582476,5.353435,-1.9255368000000002,8.403049000000001,0.1438107,-0.06178534,-0.083090626,-10.68,-34.74,-53.1
1554879582496,5.6551046,-1.5520413,8.412626,0.29188246,-0.037284255,-0.15765914,-10.74,-34.8,-53.1
1554879582516,5.353435,-1.7675193999999999,8.498816999999999,0.38775626,0.068176925,-0.07669904,-10.74,-34.98,-53.04
1554879582537,5.4970870000000005,-1.6142905,8.278551,0.41971418,0.09267801,-0.09054748,-10.8,-35.1,-52.98
1554879582556,5.2768207,-1.4036007,8.498816999999999,0.28122982,0.18216023,-0.04580637,-10.8,-35.28,-52.92
1554879582576,5.2385135,-1.6238673000000001,8.316858,0.13209279,0.25140239999999997,0.024501082,-10.8,-35.4,-52.86
1554879582598,5.018246700000001,-1.7340006000000001,8.393473,0.023435817999999997,0.32170987,0.043675844000000005,-10.8,-35.64,-52.8
1554879582617,5.032612,-1.6669630000000002,8.585009,-0.013848438000000001,0.36218992,0.07456851,-10.8,-35.88,-52.8
1554879582636,4.865018,-1.8010383,8.599374000000001,0.018109497,0.38349520000000004,0.09587380000000001,-10.8,-36.06,-52.8
1554879582657,4.817133999999999,-1.8728642,8.570642999999999,0.07350325,0.38136467,0.07989483,-10.8,-36.24,-52.74
1554879582677,4.783615,-2.0165164,8.522758999999999,0.13635385,0.39521313,0.08522116,-10.8,-36.48,-52.74
1554879582696,4.8506527,-2.0165164,8.326435,0.1768339,0.43569317,0.094808534,-10.74,-36.66,-52.68
1554879582717,4.4675803,-1.7579426,8.168417999999999,0.16192019,0.5006742999999999,0.08841695,-10.74,-36.84,-52.68
1554879582736,4.6016555,-1.7675193999999999,8.16363,0.084155895,0.55074173,0.12996227,-10.68,-36.9,-52.68
1554879582757,4.367024,-1.7052702000000002,8.398261,-0.012783173500000002,0.58696073,0.15765914,-10.56,-36.9,-52.62
1554879582776,4.5202527,-1.8249803,8.484452000000001,-0.05006743,0.5816344,0.17789917,-10.26,-36.9,-52.56
1554879582796,4.3813889999999995,-1.9782091,8.963293,-0.022370555,0.58056915,0.2034655,-9.96,-36.84,-52.56
1554879582817,4.501099,-2.1170728,9.178771000000001,0.034088463,0.56672066,0.23116238,-9.66,-36.84,-52.56
1554879582837,4.6160207,-2.1888987999999996,9.389461,0.10439592,0.5795039000000001,0.26418558,-9.36,-36.78,-52.56
1554879582857,4.7165775000000005,-1.9494787,9.442133,0.16937704,0.62744075,0.29188246,-8.94,-36.78,-52.5
1554879582876,4.338293599999999,-1.8920178,9.499594,0.14274544,0.73822826,0.314253,-8.52,-36.72,-52.5
1554879582896,4.295198,-1.9542671000000003,9.585785000000001,0.002130529,0.8426242,0.37390783,-8.16,-36.72,-52.5
1554879582917,3.8259343999999995,-1.8106151000000001,9.758167,-0.21198763,0.96619487,0.47191215,-7.86,-36.72,-52.5
1554879582937,3.4045547999999997,-2.0979192,9.944916000000001,-0.45167214,1.0812434,0.59761333,-7.68,-36.66,-52.5
1554879582957,3.1364042999999997,-2.4905684,10.347141,-0.588026,1.1781825000000001,0.7318366999999999,-7.56,-36.66,-52.5
1554879582977,2.7246015,-2.533664,10.165182000000001,-0.567786,1.2857742,0.8223841999999999,-7.44,-36.54,-52.5
1554879582996,2.3894134,-2.5767596,10.356717999999999,-0.47510794,1.3997575,0.8873653,-7.38,-36.36,-52.5
1554879583016,2.1930888,-2.6007016,9.988011,-0.35153726,1.4892397,0.94275904,-7.26,-36.0,-52.5
1554879583037,1.7669207999999998,-2.4666264,9.901819,-0.28655612,1.6000272,0.98856544,-7.2,-35.52,-52.56
1554879583057,1.3215994,-2.404377,9.877877,-0.29614353,1.7044232,1.0258497,-6.96,-35.1,-52.62
1554879583077,0.90979666,-2.3900118,9.442133,-0.30679616,1.7640778999999998,1.067395,-6.66,-34.56,-52.68
1554879583097,0.5650316,-2.5480292,9.518747,-0.29507825,1.8120148,1.0865698000000001,-6.18,-34.08,-52.74
1554879583117,0.39743748,-2.5528176,9.513959,-0.23329292,1.8258631999999997,1.0961571,-5.64,-33.6,-52.74
1554879583137,-0.033518825,-2.3373394,9.241019999999999,-0.128897,1.8503643,1.0908308,-5.04,-33.18,-52.8
1554879583157,-0.36870706,-2.3277626000000002,8.91062,-0.07669904,1.8695391,1.1163971000000001,-4.38,-32.82,-52.74
1554879583178,-0.6703765,-2.0260932,8.680777,-0.18216023,1.8492991,1.1472898999999999,-3.24,-32.58,-52.74
1554879583197,-0.90979666,-2.0260932,8.570642999999999,-0.24820662,1.8258631999999997,1.1302456,-2.88,-32.52,-52.68
1554879583217,-1.2306197,-2.131438,8.647258,-0.27377295,1.7864485,1.1227888000000001,-2.1,-32.34,-52.62
1554879583237,-1.4269443000000002,-2.1888987999999996,8.225878999999999,-0.24074976,1.6990968000000002,1.1046791999999999,-1.38,-32.04,-52.56
1554879583257,-1.7860744999999998,-2.3373394,8.139688,-0.17150758,1.627724,1.0471549,-0.66,-31.8,-52.5
1554879583277,-2.087744,-2.2894554,8.168417999999999,-0.14487597,1.5616777,1.0002834,0.0,-31.44,-52.44
1554879583296,-2.4372973,-2.2798786,8.245032,-0.07350325,1.4924355,0.9768475000000001,0.72,-31.08,-52.38
1554879583317,-2.8921957000000003,-2.3612813999999998,8.173206,0.08948222,1.3933659,0.92997587,1.62,-30.6,-52.26
1554879583337,-3.1124623,-2.4426842,7.972092999999999,0.15126756,1.3305153,0.91825795,2.16,-30.3,-52.02
1554879583356,-3.3662476999999997,-2.1984756,7.7039423,0.1587244,1.2783173,0.87990844,2.58,-30.12,-51.72
1554879583378,-3.7062242,-2.0260932,7.790133999999999,0.12996227,1.2218584,0.8223841999999999,3.0,-29.94,-51.36
1554879583398,-3.9695864000000003,-2.0165164,7.814075999999999,0.080960095,1.1888351000000001,0.8127968000000001,3.36,-29.88,-51.06
1554879583418,-4.3287168,-1.9686323000000001,7.861960000000001,0.049002163,1.1483551,0.7946873000000001,3.66,-30.06,-50.64
1554879583438,-4.4244847,-1.9829974999999997,7.732672999999999,0.04261058,1.099353,0.7584683000000001,3.9,-30.36,-50.22
1554879583457,-4.6016555,-1.9063831999999998,7.617750999999999,-0.010652645,1.0855045,0.7286409,4.2,-30.66,-49.86
1554879583477,-4.9464207,-1.762731,7.5794440000000005,-0.03834952,1.0908308,0.6924219,4.44,-31.02,-49.5
1554879583497,-5.248090299999999,-1.7579426,7.3831196,-0.015978966,1.1046791999999999,0.68176925,4.68,-31.38,-49.26
1554879583517,-5.473145,-1.6142905,7.421427,-0.040480047000000005,1.1046791999999999,0.680704,4.98,-31.74,-49.08
1554879583537,-5.7843914000000005,-1.5233108,7.0670850000000005,-0.08841695,1.1270498,0.6402239000000001,5.34,-32.04,-48.96
1554879583556,-5.966350599999999,-1.6142905,7.047931,-0.13954964,1.1387677,0.6146576,5.7,-32.34,-48.78
1554879583577,-6.244078,-1.5089456,7.0670850000000005,-0.14487597,1.1749867,0.5965481,6.0,-32.46,-48.54
1554879583596,-6.4547677000000006,-1.4993688,6.6983776,-0.07456851,1.1845741,0.5699165,6.24,-32.52,-48.36
1554879583617,-6.588842999999999,-1.264737,6.18123,0.04261058,1.2112056999999998,0.52837116,6.48,-32.52,-48.12
1554879583636,-6.823475,-1.2216414,6.449381,0.14807177,1.2399678,0.51984906,6.72,-32.46,-47.94
1554879583657,-6.861782000000001,-1.0588357,5.9465985,0.2034655,1.2463594999999998,0.5049353,7.02,-32.46,-47.76
1554879583676,-7.268796400000001,-1.0779893,5.6497173,0.1949434,1.2431636000000001,0.5049353,7.38,-32.4,-47.58
1554879583697,-7.417236999999999,-1.039682,5.6497173,0.15765914,1.2399678,0.49534798,7.62,-32.4,-47.4
1554879583716,-7.374141000000001,-0.84335756,5.659294,0.1107875,1.1920309,0.45060685,7.8,-32.46,-47.04
1554879583736,-7.6375036,-0.97743285,5.065532,0.09054748,1.1685951,0.4889564,8.04,-32.58,-46.62
1554879583757,-7.848192999999999,-1.0348936,5.113416,0.14487597,1.164334,0.47191215,8.28,-32.64,-46.32
1554879583776,-7.991845,-0.9343372,4.9458222,0.23648871,1.1345067,0.42717105,8.64,-32.76,-45.96
1554879583796,-8.063671000000001,-0.694917,4.9218802,0.3206446,1.067395,0.44634579999999996,8.88,-32.94,-45.54
1554879583817,-7.9583262999999995,-0.52253455,4.601057,0.41971418,0.99495703,0.43569317,9.18,-33.18,-45.06
1554879583837,-8.250419,-0.32142156,4.3807906999999995,0.5049353,0.9225190000000001,0.43675843,9.42,-33.48,-44.52
1554879583856,-8.355764,-0.31663316,3.9498343,0.5305017,0.85966843,0.46978164,9.66,-33.9,-43.8
1554879583876,-8.37013,-0.110731825,3.5715504,0.49108690000000005,0.77231675,0.44421527,9.9,-34.38,-43.32
1554879583897,-8.418014,0.17178397,3.54282,0.43782368,0.6988135,0.40053943,10.14,-34.98,-42.9
1554879583917,-8.537724,0.25318682,3.4422636,0.35899413,0.63915867,0.40053943,10.32,-35.64,-42.48
1554879583937,-8.619126,0.14784196,3.3943794,0.27590349999999997,0.5837649,0.40586576,10.5,-36.24,-42.12
1554879583956,-8.628703,0.12389994,3.5571851999999997,0.25992453,0.4878911,0.38456047,10.62,-36.84,-41.82
1554879583977,-8.585608,0.27234045,3.494936,0.26844665,0.3749731,0.34514567,10.74,-37.32,-41.52
1554879583996,-8.714894000000001,0.25797522,3.293823,0.2972088,0.2972088,0.33981937,10.8,-37.8,-41.28
1554879584016,-8.604761,0.66020113,3.4231097999999998,0.31105720000000003,0.23329292,0.30999196,10.86,-38.16,-41.1
1554879584036,-8.461109,0.7032967,3.3704373999999997,0.30360037,0.21837921,0.30253512,10.92,-38.46,-40.92
1554879584057,-8.576031,0.8996213,3.1214404,0.26418558,0.19920446,0.29294774,10.92,-38.7,-40.62
1554879584076,-8.662222,0.7799111999999999,3.1884782000000005,0.1470065,0.20453078,0.30146983,10.92,-38.94,-40.38
1554879584097,-8.599973,0.74639237,3.4183214,-0.02130529,0.17789917,0.25566345,10.86,-39.18,-40.14
1554879584117,-8.643068,0.9235633,3.4183214,-0.12250541,0.13315806,0.19281286,10.8,-39.42,-39.84
1554879584137,-8.619126,0.741604,3.4662056000000003,-0.10759171,0.09374327,0.15978967,10.68,-39.72,-39.6
1554879584156,-8.714894000000001,0.9235633,3.5811272000000005,-0.029827405,0.096939065,0.14807177,10.62,-39.96,-39.42
1554879584177,-8.7771435,0.82779527,3.5236663999999998,0.047936900000000005,0.096939065,0.13315806,10.44,-40.32,-39.24
1554879584196,-8.695741,0.9427169,3.3225534,0.068176925,0.09161274,0.13422333,10.38,-40.38,-39.18
1554879584217,-8.872911,1.4215573000000001,3.293823,0.06285059999999999,0.094808534,0.112918034,10.2,-40.56,-39.18
1554879584236,-9.016563,1.311424,3.7535098,0.03195793,0.1107875,0.10652645,10.08,-40.62,-39.12
1554879584257,-8.805874000000001,1.3257892,3.8157589999999995,0.12037488,-0.024501082,0.046871635999999994,9.84,-40.74,-39.12
1554879584276,-8.781932000000001,1.5939398,3.5619736000000004,0.17896444,-0.07776430000000001,-0.002130529,9.78,-40.8,-39.06
1554879584297,-8.662222,1.6897078999999997,3.2555158,0.09054748,-0.058589544,-0.007456851,9.6,-40.86,-39.06
1554879584317,-8.552089,1.8860323,3.2555158,0.007456851,-0.023435817999999997,-0.002130529,9.42,-40.98,-39.0
1554879584336,-8.801085,2.0201077,3.7295678,-0.054328485999999995,-0.008522116,0.029827405,9.3,-41.1,-39.0
1554879584357,-9.155427,1.2826935,3.6721067,-0.03195793,-0.022370555,0.054328485999999995,9.24,-41.16,-38.94
1554879584377,-9.404425,1.5077485000000002,3.4231097999999998,-0.033023197000000004,-0.046871635999999994,0.07989483,9.24,-41.28,-38.94
1554879584397,-9.375694000000001,1.9434932,3.4422636,-0.047936900000000005,-0.037284255,0.06604639400000001,9.3,-41.34,-38.88
1554879584417,-9.457097000000001,1.9195513,3.6050692000000004,-0.06285059999999999,0.01917476,0.17257284,9.36,-41.4,-38.88
1554879584437,-9.548077000000001,1.9482816000000003,3.614646,-0.011717908999999999,0.099069595,0.24394555,9.36,-41.46,-38.88
1554879584457,-9.308656,2.0201077,3.9546227,0.010652645,0.12570119999999999,0.30892670000000005,9.42,-41.64,-38.88
1554879584476,-8.8777,1.9434932,3.9881415000000002,-0.036218993,0.12037488,0.39840892,9.42,-41.7,-38.94
1554879584496,-8.6813755,2.154183,3.767875,-0.0010652645,0.12037488,0.4314321,9.36,-41.88,-39.0
1554879584517,-8.408437,2.1493945,3.8157589999999995,0.08628642,0.11504856,0.42397526,9.3,-41.94,-39.06
1554879584537,-8.456321,1.9434932,3.54282,0.07776430000000001,0.13954964,0.4016047,9.3,-42.06,-39.12
1554879584556,-8.628703,2.0153193,3.4662056000000003,-0.02876214,0.17789917,0.350472,9.24,-42.18,-39.18
1554879584576,-8.623915,2.0153193,3.5571851999999997,-0.15233281,0.18535602,0.31105720000000003,9.12,-42.36,-39.24
1554879584597,-8.508992999999998,2.130241,3.6242227999999996,-0.13422333,0.16724652,0.29507825,8.88,-42.6,-39.3
1554879584616,-8.255207,2.2212207000000004,3.164536,-0.07030745599999999,0.16085494,0.29827404,8.58,-43.08,-39.36
1554879584636,-8.365341,2.40318,3.020884,-0.039414786,0.16405073,0.28868666,8.22,-43.56,-39.36
1554879584656,-8.360553,2.379238,2.9538465,-0.09161274,0.18642128,0.27057716,7.86,-44.04,-39.36
1554879584677,-8.580819,2.1637597,3.3273417999999997,-0.13954964,0.14594123,0.22264028,7.5,-44.64,-39.36
1554879584696,-8.451532,2.0201077,3.3033997999999998,-0.1470065,0.06178534,0.17896444,7.2,-45.18,-39.36
1554879584716,-8.360553,1.9434932,3.1022868,-0.14061491,0.0031957934000000003,0.082025364,6.84,-45.66,-39.36
1554879584736,-8.513782,2.1062990000000004,3.4757824,-0.13848437,-0.014913702,0.024501082,6.54,-46.14,-39.36
1554879584756,-8.504205,2.2307975,3.1214404,-0.13954964,-0.03834952,0.058589544,6.42,-46.44,-39.36
1554879584778,-8.839393,2.1110873,3.3512837999999996,-0.18961707,-0.015978966,0.022370555,6.36,-46.56,-39.3
1554879584796,-8.944737,2.0201077,3.5619736000000004,-0.22796659,0.011717908999999999,0.053263225,6.36,-46.56,-39.3
1554879584816,-8.925583999999999,2.2260091,3.365649,-0.17044231,0.00958738,0.051132694000000006,6.36,-46.56,-39.36
1554879584837,-8.7292595,2.2212207000000004,3.4039562000000005,-0.10013486,0.0053263223,0.05752428,6.36,-46.5,-39.42
1554879584857,-8.710106,2.2882583,3.221997,-0.04580637,-0.012783173500000002,0.05006743,6.36,-46.38,-39.48
1554879584876,-9.040505,2.1062990000000004,3.2555158,-0.0063915867,-0.01917476,0.037284255,6.36,-46.32,-39.6
1554879584896,-8.853758000000001,1.6753427,3.5093012000000003,0.0,-0.053263225,-0.0031957934000000003,6.3,-46.2,-39.78
1554879584916,-8.714894000000001,1.7136499,3.7343562000000006,0.07350325,-0.06711166,-0.03834952,6.3,-46.14,-39.9
1554879584937,-8.585608,1.9626468000000001,3.3081882000000005,0.08522116,-0.027696876000000002,-0.035153727999999995,6.3,-46.02,-40.08
1554879584956,-8.762777999999999,1.9722236000000002,2.9682117000000003,0.07989483,0.0063915867,-0.056459017,6.3,-45.96,-40.2
1554879584977,-8.791509,1.8620903000000002,3.2794578000000003,0.08841695,0.008522116,-0.07563378,6.3,-45.84,-40.32
1554879584996,-8.7532015,1.9387047999999998,3.0160956000000003,0.09054748,0.011717908999999999,-0.082025364,6.3,-45.72,-40.44
1554879585018,-8.647857,1.8142063999999998,3.0831332000000002,0.1438107,0.043675844000000005,-0.09587380000000001,6.36,-45.54,-40.5
1554879585036,-8.571242,1.9099745,3.2267854,0.1438107,0.039414786,-0.11504856,6.36,-45.48,-40.5
1554879585056,-8.619126,1.9243397,3.2507273999999997,0.07243799,0.034088463,-0.13315806,6.36,-45.3,-40.5
1554879585076,-8.863335000000001,1.8860323,3.1262288,0.056459017,0.03834952,-0.13209279,6.42,-45.12,-40.5
1554879585097,-8.930372,1.9482816000000003,3.221997,0.012783173500000002,0.015978966,-0.128897,6.42,-44.94,-40.44
1554879585116,-8.839393,2.1350293,3.293823,0.002130529,-0.025566347000000003,-0.15126756,6.54,-44.82,-40.38
1554879585136,-8.695741,2.0632033,3.4183214,0.04261058,-0.049002163,-0.12250541,6.66,-44.7,-40.38
1554879585157,-8.935161,2.0967221,3.566762,0.07030745599999999,-0.017044231,-0.11824436,6.72,-44.64,-40.26
1554879585176,-9.040505,2.1733365,3.3129766000000003,0.11717909,-0.008522116,-0.13635385,6.84,-44.52,-40.2
1554879585197,-9.131485000000001,2.0105310000000003,3.1597476,0.16618125,-0.010652645,-0.14807177,6.96,-44.4,-40.14
1554879585217,-9.179369,1.9626468000000001,2.9059622000000003,0.15659387,-0.0063915867,-0.13102753,7.08,-44.28,-39.96
1554879585236,-9.121908,1.6657659,3.1884782000000005,0.111852765,-0.013848438000000001,-0.12783173,7.14,-44.22,-39.78
1554879585256,-9.121908,1.7280151000000001,3.0591912,0.15552860000000002,-0.017044231,-0.13528858,7.26,-44.16,-39.54
1554879585276,-8.8777,1.9578583999999999,2.819771,0.25353295,-0.02876214,-0.14168017,7.32,-44.1,-39.36
1554879585297,-8.810661999999999,2.297835,2.8341362,0.23861924,-0.05539375,-0.15339808,7.32,-44.04,-39.18
1554879585317,-8.844180999999999,2.1110873,3.0113072,0.14594123,-0.07350325,-0.16724652,7.32,-43.98,-39.06
1554879585337,-8.815451,1.7806876,3.2890346,-0.00958738,-0.07137272,-0.15552860000000002,7.38,-43.98,-38.88
1554879585356,-8.7771435,1.8429368000000002,3.2172085999999998,-0.0063915867,-0.07776430000000001,-0.14594123,7.38,-43.98,-38.76
1554879585377,-8.968679,1.8429368000000002,3.3369186,0.058589544,-0.07882957,-0.1438107,7.38,-43.98,-38.7
1554879585396,-8.954314,1.9147629000000002,3.2076318,0.06178534,-0.094808534,-0.13422333,7.44,-43.92,-38.7
1554879585416,-8.848969,1.9913772,3.1118636000000004,0.041545313,-0.10333065,-0.14807177,7.5,-43.86,-38.76
1554879585436,-9.035717,2.0392613,3.2028434,0.0031957934000000003,-0.082025364,-0.16405073,7.56,-43.74,-38.76
1554879585456,-9.011775,1.9195513,3.3608606,-0.0053263223,-0.06498113,-0.15126756,7.68,-43.74,-38.76
1554879585477,-9.040505,1.9722236000000002,3.116652,-0.007456851,-0.051132694000000006,-0.13422333,7.74,-43.68,-38.76
1554879585497,-8.911219000000001,1.977012,3.2986114,-0.037284255,-0.051132694000000006,-0.1438107,7.86,-43.62,-38.76
1554879585517,-9.050082000000002,1.7806876,3.4087446000000003,-0.05539375,-0.035153727999999995,-0.14913702,7.92,-43.56,-38.82
1554879585536,-9.050082000000002,1.6178818000000001,3.245939,-0.018109497,-0.024501082,-0.14594123,8.04,-43.56,-38.88
1554879585556,-9.02614,1.5173253,3.317765,-0.01917476,-0.024501082,-0.11611383,8.1,-43.56,-38.94
1554879585577,-8.892064999999999,1.7663223000000001,3.164536,-0.06498113,-0.02130529,-0.12357068,8.16,-43.5,-39.0
1554879585597,-8.939949,1.9099745,3.1070752,-0.08948222,-0.014913702,-0.13528858,8.16,-43.44,-39.06
1554879585616,-8.992621,1.5747862,3.4326867999999995,-0.10333065,-0.0010652645,-0.10013486,8.22,-43.38,-39.12
1554879585637,-9.030928999999999,1.4885948999999998,3.3560722000000003,-0.06498113,0.010652645,-0.08841695,8.28,-43.32,-39.12
1554879585657,-8.935161,1.9387047999999998,3.2507273999999997,-0.046871635999999994,0.0053263223,-0.1107875,8.28,-43.26,-39.18
1554879585676,-8.700529,1.9722236000000002,2.9682117000000003,-0.020240024,-0.012783173500000002,-0.10013486,8.34,-43.2,-39.24
1554879585697,-8.293514,1.311424,3.2698810000000003,-0.06391586,0.0031957934000000003,0.07137272,8.4,-43.14,-39.18
1554879585717,-8.959103,2.2691047,3.4805707999999997,-0.26525086,-0.018109497,-0.040480047000000005,8.52,-43.08,-39.12
1554879585737,-9.184157,2.0632033,4.1557355000000005,-0.4708469,-0.004261058,-0.094808534,8.64,-42.96,-39.06
1554879585757,-8.949525999999999,1.9003976999999999,4.1413703,-0.28442562,0.03834952,-0.13741912,8.7,-42.96,-39.0
1554879585777,-8.887277000000001,1.6705543,3.6242227999999996,0.12144015,0.07776430000000001,-0.26631612,8.76,-42.9,-39.0
1554879585796,-8.863335000000001,1.4933833,3.1214404,0.406931,0.10013486,-0.29188246,8.82,-42.84,-38.94
1554879585816,-8.422802,1.3976152,3.0160956000000003,0.27164245,0.10333065,-0.2908172,8.88,-42.78,-38.88
1554879585836,-8.51857,1.5077485000000002,3.494936,0.022370555,0.13848437,-0.3685815,9.0,-42.66,-38.88
1554879585856,-8.470686,1.5795746000000002,3.2986114,-0.10546118,0.07456851,-0.39095205,9.06,-42.6,-38.82
1554879585876,-7.987056699999999,1.7184383,3.3704373999999997,-0.26631612,0.012783173500000002,-0.40266997,9.12,-42.42,-38.82
1554879585897,-8.149861999999999,1.7854759999999998,3.4326867999999995,-0.3206446,-0.080960095,-0.55287224,9.18,-42.36,-38.82
1554879585917,-8.585608,1.5077485000000002,3.5140896,-0.221575,-0.19281286,-0.7350325,9.36,-42.24,-38.76
1554879585937,-8.422802,0.88525605,3.2507273999999997,-0.05752428,-0.3653857,-0.84155893,9.6,-41.76,-38.76
1554879585957,-8.39886,0.40641573,3.6433763999999997,0.08628642,-0.44208476,-0.8362325999999999,9.72,-41.58,-38.76
1554879585976,-8.39886,0.0664391,3.7966053,0.30679616,-0.58909124,-0.79042625,9.96,-40.92,-38.76
1554879585997,-8.331821000000001,0.42556936,3.6337996,0.3898868,-0.6775081999999999,-0.77125144,10.08,-40.68,-38.76
1554879586017,-8.331821000000001,0.85173726,3.1358056,0.43782368,-0.81918836,-0.7286409,10.44,-39.9,-38.76
1554879586037,-8.595184,0.6410475,2.9634232999999996,0.36645097,-0.93423694,-0.68176925,10.74,-39.42,-38.76
1554879586057,-8.346188,-0.010175358,3.7487214,0.33555830000000003,-1.1345067,-0.67963874,10.98,-38.94,-38.82
1554879586077,-7.9822683,-0.15382746,3.7822402000000004,0.37603834,-1.3507552999999999,-0.6945524000000001,11.16,-38.52,-38.88
1554879586097,-7.6949644,-0.05327099,4.11264,0.41225734,-1.5361114,-0.7307714,11.34,-38.28,-39.0
1554879586117,-7.833828,0.46387658,4.256292,0.39734364,-1.6745956999999998,-0.74781567,11.52,-38.1,-39.12
1554879586136,-7.8146744,0.3776853,4.6680946,0.37710363,-1.7640778999999998,-0.74248934,11.7,-37.98,-39.24
1554879586157,-7.2592196,-0.24001873,5.01286,0.3717773,-1.8642128,-0.7052050999999999,11.82,-37.86,-39.36
1554879586176,-7.101202000000001,-0.5033809,5.252279799999999,0.4048005,-1.9238676,-0.70840085,11.76,-37.62,-39.54
1554879586196,-6.9623384,-0.95827925,4.941033999999999,0.43782368,-2.0453076,-0.7574029999999999,11.64,-37.44,-39.72
1554879586217,-6.7851677,-1.1019313,5.6257753,0.41119209999999995,-2.118811,-0.8245146999999999,11.58,-37.26,-40.02
1554879586236,-6.411672,-1.0827777,6.0567317,0.42184472,-2.1848574,-0.89162636,11.46,-37.08,-40.32
1554879586256,-6.0525417,-1.0779893,6.4637459999999995,0.5251754,-2.163552,-0.87990844,11.22,-36.9,-40.62
1554879586277,-6.05733,-0.82899237,7.08145,0.5944176,-2.1049626,-0.77444726,10.98,-36.72,-40.92
1554879586297,-6.114791,-0.6278794,7.148487599999999,0.53263223,-2.0378509,-0.69668293,10.68,-36.6,-41.28
1554879586316,-5.9280434,-0.53689975,7.038354400000001,0.26312032,-1.9579561,-0.6593986999999999,10.32,-36.48,-41.7
1554879586337,-5.319916200000001,-0.86729956,7.7183075,-0.043675844000000005,-1.8769958999999998,-0.68816084,9.84,-36.54,-42.06
1554879586358,-4.9464207,-0.87687635,8.398261,-0.111852765,-1.8141453,-0.6679208000000001,9.3,-36.66,-42.54
1554879586377,-4.4915223,-1.4802152,8.944139,-0.008522116,-1.7214673999999999,-0.63383234,8.76,-36.78,-43.02
1554879586397,-4.7165775000000005,-0.694917,8.3408,0.15126756,-1.6117451,-0.6146576,8.28,-36.9,-43.38
1554879586416,-4.3287168,-0.84814596,9.015965,0.12144015,-1.5435683,-0.5699165,7.92,-37.08,-43.74
1554879586437,-3.5482068,-1.0013748,9.6767645,0.07882957,-1.4721955,-0.47723848,7.44,-37.26,-44.16
1554879586456,-3.1986535,-1.2791021999999999,10.213066,0.17470337,-1.3763216999999999,-0.45380265,6.9,-37.44,-44.52
1554879586477,-3.0933087,-0.99179804,9.638457,0.24501082,-1.3006879,-0.43569317,6.3,-37.62,-44.94
1554879586496,-3.145981,-0.54168814,9.159616999999999,0.2876214,-1.1920309,-0.42290998,5.76,-37.86,-45.42
1554879586517,-2.7246015,-0.6183026,9.322422999999999,0.24607609,-1.1387677,-0.38562572,5.16,-38.04,-45.72
1554879586536,-2.4037786,-0.7140707,10.23222,0.14274544,-1.0780476,-0.34408042,4.56,-38.22,-45.96
1554879586557,-2.2697031,-0.9008184000000001,9.877877,0.017044231,-1.0524813,-0.32277513,3.96,-38.4,-46.32
1554879586576,-2.2170308,-0.83856916,9.523536,-0.10865697,-0.9768475000000001,-0.3206446,3.36,-38.46,-46.56
1554879586596,-2.2505496,-0.44592008,8.905831,-0.24927188,-0.85540736,-0.30999196,2.88,-38.58,-46.8
1554879586617,-2.2984335,-0.3645172,8.508394000000001,-0.48149952,-0.76272935,-0.29188246,2.46,-38.64,-47.04
1554879586636,-1.7286136000000003,-0.9247603999999999,9.284116000000001,-0.67324716,-0.7595335999999999,-0.32170987,2.16,-38.7,-47.16
1554879586656,-1.3503298000000001,-1.6238673000000001,9.5570545,-0.6306366,-0.7861651999999999,-0.42397526,1.98,-38.76,-47.22
1554879586676,-1.0390834999999998,-1.5568296999999998,9.073426,-0.34621096,-0.7797736,-0.5954828000000001,1.86,-38.7,-47.4
1554879586696,-0.81881696,-1.2838906,8.508394000000001,-0.054328485999999995,-0.7797736,-0.7584683000000001,1.62,-38.46,-47.7
1554879586717,-0.6895300999999999,-0.8098387,7.545925,-0.00958738,-0.7914915,-0.91186637,1.32,-38.1,-48.18
1554879586737,-0.5410896,-0.9247603999999999,8.211513499999999,-0.14807177,-0.8202536,-1.0226538,1.26,-37.98,-48.36
1554879586757,-0.23463176,-1.0157399999999999,7.6943655,-0.37284255,-0.9321064,-1.1217233999999998,1.08,-37.56,-48.84
1554879586776,-0.12449849,-0.98222125,7.4070616,-0.6583334,-1.0141318000000001,-1.2772521000000001,0.84,-37.14,-49.14
1554879586796,0.02873042,-1.0013748,8.565855,-0.91186637,-1.1377025,-1.3912354,0.72,-36.6,-49.44
1554879586817,0.93852705,-2.4474726,9.724648,-0.96406436,-1.3411678999999999,-1.4615428,0.6,-35.94,-49.74
1554879586836,1.0726023999999998,-2.5959132,9.466075,-0.8298409999999999,-1.3901701000000002,-1.5009576,0.6,-35.64,-49.86
1554879586857,0.78050977,-1.9159599999999999,7.9864583,-0.59228706,-1.3859091000000001,-1.6096146,0.6,-34.5,-50.16
1554879586877,0.5650316,-0.7380127,6.865972,-0.62531024,-1.4136058999999999,-1.6490293999999999,0.6,-33.72,-50.34
1554879586897,1.283292,-0.64703304,8.273763,-0.8064051999999999,-1.4977618000000001,-1.6437031000000002,0.54,-32.94,-50.52
1554879586916,2.6048915,-1.8154035,8.656835000000001,-0.8149273,-1.5648735,-1.6266588,0.54,-32.1,-50.82
1554879586936,2.8155810000000003,-2.380435,8.561067,-0.69668293,-1.5691346000000002,-1.6777915,0.48,-31.68,-50.94
1554879586957,3.3087866000000004,-1.9015948,8.460510000000001,-0.55287224,-1.6500946,-1.8972360000000001,0.3,-30.3,-51.42
1554879586977,4.213794999999999,-1.9111716,8.661622999999999,-0.57417756,-1.7076189999999998,-1.9632823,0.0,-29.4,-51.84
1554879586996,5.3103394999999995,-2.9071592999999996,9.648033999999999,-0.61572284,-1.7587515999999999,-1.9100191999999998,-0.18,-28.56,-52.2
1554879587017,5.8322754,-2.9167361,8.79091,-0.62104917,-1.7257284,-1.8642128,-0.42,-27.72,-52.62
1554879587037,5.7700260000000005,-2.1601684,7.948150999999999,-0.73609775,-1.6458336,-1.8801918000000002,-0.72,-26.82,-52.98
1554879587057,6.1195793,-2.1266496,7.8475947,-1.1824435,-1.5606124,-1.7182716,-0.96,-25.86,-53.28
1554879587076,6.4068837,-2.5240872000000003,8.197148,-1.4072143999999998,-1.5393071000000003,-1.6053536,-1.14,-25.32,-53.46
1554879587097,7.110779300000001,-3.4147300000000005,8.508394000000001,-1.9281287,-1.4583471000000001,-1.4306501,-1.74,-23.7,-53.82
1554879587116,7.7428484,-4.291008000000001,8.666411,-2.150769,-1.2410331000000001,-1.3187973,-2.28,-22.62,-54.06
1554879587137,7.896077,-4.994903,8.508394000000001,-2.0442424,-0.95447695,-1.1685951,-2.82,-21.48,-54.36
1554879587157,7.513005000000001,-5.3636102999999995,8.747814,-1.7736653000000002,-0.66365975,-0.98856544,-3.3,-20.22,-54.6
1554879587176,7.038953,-5.66528,8.546700999999999,-1.454086,-0.44315,-0.83516735,-3.84,-18.72,-54.84
1554879587197,6.7372837,-5.6748567,7.838017999999999,-1.216532,-0.25566345,-0.69987875,-4.32,-16.98,-55.02
1554879587217,6.129156,-5.5982423,7.450157000000001,-0.9832390999999999,-0.09054748,-0.6040049,-4.8,-15.18,-55.2
1554879587237,5.8179099999999995,-5.3061495,7.282563000000001,-0.8330368,0.008522116,-0.46125950000000004,-5.16,-13.44,-55.44
1554879587257,5.559336,-5.239112,7.091027,-0.6870956,0.05539375,-0.3174488,-5.46,-11.64,-55.62
1554879587276,5.3725886,-5.2008047,6.971317,-0.5187838,0.05752428,-0.22690132,-5.52,-9.9,-55.68
1554879587297,5.2863975,-5.1816510000000005,6.4685345000000005,-0.3653857,0.05219796,-0.1438107,-5.64,-8.34,-55.62
1554879587316,5.444414599999999,-4.956596,6.1094040000000005,-0.26738137,0.04261058,-0.047936900000000005,-5.82,-6.96,-55.56
1554879587337,5.4970870000000005,-4.827309,6.0184245,-0.1949434,0.015978966,0.029827405,-6.0,-5.94,-55.5
1554879587357,5.568912999999999,-4.745906400000001,6.0806737,-0.10759171,-0.03195793,0.09587380000000001,-6.24,-5.22,-55.38
1554879587377,5.8322754,-4.664503599999999,6.023213,-0.05219796,-0.068176925,0.12144015,-6.42,-4.56,-55.26
1554879587396,6.009446,-4.520851,5.8891377,0.004261058,-0.113983296,0.13635385,-6.6,-4.08,-55.2
1554879587416,6.042965000000001,-4.5016975,5.869984,0.017044231,-0.14913702,0.15020229,-6.72,-3.72,-55.08
1554879587436,6.411672,-4.267066000000001,5.692813,-0.0031957934000000003,-0.18429075,0.16937704,-6.84,-3.48,-54.96
1554879587457,6.5218053,-4.3388919999999995,5.620987,-0.023435817999999997,-0.16724652,0.16192019,-6.9,-3.3,-54.9
1554879587477,6.564901,-4.2718544000000005,5.4390279999999995,-0.06178534,-0.15765914,0.13741912,-6.9,-3.12,-54.9
1554879587497,6.531382,-4.123414,5.4007206,-0.13422333,-0.15446335,0.13315806,-6.84,-3.0,-54.96
1554879587516,6.4068837,-4.061165,5.453393,-0.24714136,-0.17363810000000002,0.15446335,-6.84,-3.0,-54.96
1554879587536,6.531382,-4.185663,5.6018333,-0.31851408,-0.20133498,0.19281286,-6.84,-2.88,-55.08
1554879587557,6.564901,-4.2814309999999995,5.817312,-0.31212249999999997,-0.23009712,0.20559604,-6.9,-2.82,-55.14
1554879587577,6.4547677000000006,-4.31495,6.1716533,-0.16831179,-0.25672874,0.19813919,-7.08,-2.7,-55.2
1554879587597,6.6989765,-4.252701,6.1955953,-0.0010652645,-0.24927188,0.18216023,-7.08,-2.64,-55.26
1554879587616,6.593631299999999,-4.152144399999999,6.2769985,0.23648871,-0.23329292,0.1470065,-7.26,-2.52,-55.26
1554879587636,6.6415157,-4.0084919999999995,6.0280013,0.406931,-0.23222765,0.128897,-7.38,-2.4,-55.26
1554879587657,6.459556,-3.7786489000000003,5.975329,0.44847634,-0.221575,0.1107875,-7.56,-2.28,-55.26
1554879587676,6.5457472999999995,-3.8073792,5.8747725,0.37071204,-0.2066613,0.12037488,-7.86,-2.1,-55.26
1554879587697,6.564901,-3.8313212,5.8412538,0.2876214,-0.19068234,0.12783173,-7.98,-2.1,-55.26
1554879587716,6.5601125,-3.8935703999999998,5.994482499999999,0.17044231,-0.17257284,0.13635385,-8.16,-2.1,-55.2
1554879587737,6.564901,-3.9318779000000004,6.0327897,0.09161274,-0.16937704,0.13528858,-8.28,-2.28,-55.2
1554879587757,6.6415157,-4.013280399999999,6.1477113,0.12037488,-0.16724652,0.128897,-8.46,-2.46,-55.26
1554879587777,6.6989765,-4.0994720000000004,6.114192500000001,0.18748654,-0.16298546,0.096939065,-8.58,-2.64,-55.26
1554879587797,6.612785000000001,-4.1329910000000005,5.9801173,0.27164245,-0.13528858,0.049002163,-8.64,-2.94,-55.26
1554879587816,6.6989765,-3.8839936,5.769428,0.29507825,-0.08841695,0.024501082,-8.82,-3.24,-55.32
1554879587836,6.655881,-3.8504747999999998,5.644929,0.23542345,-0.037284255,0.0031957934000000003,-9.0,-3.6,-55.32
1554879587857,6.497863300000001,-3.86484,5.7215432999999996,0.12996227,-0.020240024,-0.01917476,-9.24,-3.9,-55.32
1554879587877,6.325481,-3.912724,5.6401405,-0.020240024,-0.049002163,0.0010652645,-9.48,-4.2,-55.38
1554879587896,6.3350577,-3.9175123999999997,5.5204306,-0.1107875,-0.083090626,0.008522116,-9.72,-4.44,-55.32
1554879587916,6.2871737,-3.888782,5.458181400000001,-0.21624869,-0.13741912,0.027696876000000002,-9.96,-4.62,-55.32
1554879587937,6.3350577,-3.9893386,5.6545057,-0.2727077,-0.20985709,0.05219796,-10.14,-4.8,-55.32
1554879587957,6.5361705,-4.123414,5.7119665,-0.26205507,-0.25885928,0.039414786,-10.38,-4.86,-55.32
1554879587976,6.603208,-4.1904516,5.2810106,-0.19600865,-0.27590349999999997,-0.010652645,-10.5,-4.98,-55.26
1554879587996,6.828263300000001,-4.429871599999999,5.156512,-0.17896444,-0.25353295,-0.040480047000000005,-10.56,-4.98,-55.26
1554879588016,6.9048777,-4.630985,5.075108999999999,-0.19600865,-0.22583607,-0.07882957,-10.5,-4.92,-55.26
1554879588037,6.885724000000001,-4.420294999999999,4.9984946,-0.24394555,-0.16085494,-0.1587244,-10.5,-4.86,-55.26
1554879588057,6.95755,-4.578312400000001,5.237914599999999,-0.2609898,-0.111852765,-0.16405073,-10.5,-4.74,-55.26
1554879588077,7.0581064,-4.8320975,5.3288946,-0.24714136,-0.094808534,-0.12037488,-10.5,-4.56,-55.32
1554879588097,7.0245875999999985,-4.745906400000001,5.3863554,-0.1768339,-0.10226539,-0.099069595,-10.5,-4.38,-55.32
1554879588117,6.8569937,-4.8656163,5.2810106,-0.06711166,-0.10652645,-0.08841695,-10.56,-4.14,-55.32
1554879588137,6.9096660000000005,-4.7123876,5.204396,0.06498113,-0.094808534,-0.068176925,-10.62,-3.9,-55.32
1554879588157,6.708553299999999,-4.6261964,5.1613,0.1768339,-0.09374327,-0.05752428,-10.62,-3.66,-55.32
1554879588177,6.622362,-4.520851,5.1996074,0.20559604,-0.12037488,-0.054328485999999995,-10.74,-3.42,-55.32
1554879588196,6.5792660000000005,-4.5352163,5.1613,0.21198763,-0.13635385,-0.04580637,-10.8,-3.24,-55.32
1554879588216,6.6367273,-4.4681787,5.0942625999999995,0.20453078,-0.15233281,-0.03834952,-10.92,-3.12,-55.32
1554879588237,6.861782000000001,-4.3676224,4.89315,0.16831179,-0.16085494,-0.040480047000000005,-11.04,-3.0,-55.32
1554879588257,6.8426285,-4.439448400000001,5.127781400000001,0.13635385,-0.15339808,-0.039414786,-11.1,-3.0,-55.32
1554879588277,6.981492,-4.463390400000001,5.132569999999999,0.08628642,-0.12570119999999999,-0.04474111,-11.16,-3.06,-55.32
1554879588297,6.895301,-4.4059295999999994,5.113416,0.07030745599999999,-0.10759171,-0.060720075,-11.28,-3.06,-55.32
1554879588316,6.919242999999999,-4.362833999999999,5.1660886,0.07243799,-0.09267801,-0.039414786,-11.4,-3.18,-55.32
1554879588337,6.8761472999999995,-4.362833999999999,5.137358,0.058589544,-0.07669904,-0.025566347000000003,-11.52,-3.24,-55.32
1554879588357,6.900089299999999,-4.3676224,5.0224366,0.017044231,-0.06711166,-0.012783173500000002,-11.58,-3.36,-55.32
1554879588377,6.885724000000001,-4.3819875999999995,5.099051,-0.03089267,-0.06924219,0.0063915867,-11.7,-3.48,-55.32
1554879588397,6.8809357,-4.386776,5.132569999999999,-0.039414786,-0.07882957,0.018109497,-11.82,-3.6,-55.32
1554879588417,6.9383965,-4.4921207,5.2810106,-0.011717908999999999,-0.09054748,0.014913702,-11.88,-3.72,-55.32
1554879588437,6.9383965,-4.3724110000000005,5.2474914,0.060720075,-0.113983296,0.00958738,-12.0,-3.84,-55.38
1554879588456,7.005433999999999,-4.300585,5.151723400000001,0.12250541,-0.11717909,-0.0053263223,-12.06,-3.96,-55.38
1554879588476,6.947973299999999,-4.2622776,4.9745526,0.15339808,-0.12144015,-0.020240024,-12.12,-4.14,-55.38
1554879588496,6.9383965,-4.1760864,5.237914599999999,0.13209279,-0.13209279,-0.013848438000000001,-12.12,-4.38,-55.38
1554879588517,7.0724716,-4.200028400000001,5.146935,0.07030745599999999,-0.14061491,-0.024501082,-12.18,-4.74,-55.38
1554879588536,7.0820484,-4.209605000000001,5.194819,0.047936900000000005,-0.14274544,-0.035153727999999995,-12.18,-4.86,-55.38
1554879588557,7.1969705,-4.200028400000001,5.3384714,0.05219796,-0.12783173,-0.04474111,-12.3,-5.16,-55.38
1554879588577,7.1826053,-4.1665095999999995,5.1900306,0.08628642,-0.12357068,-0.056459017,-12.36,-5.34,-55.44
1554879588597,7.168239999999999,-4.085107,5.367202,0.12144015,-0.12357068,-0.049002163,-12.48,-5.46,-55.44
1554879588617,7.2352777,-4.1760864,5.266645,0.13848437,-0.12996227,-0.049002163,-12.6,-5.58,-55.44
1554879588637,7.177817,-4.0755300000000005,5.257068,0.14913702,-0.12996227,-0.049002163,-12.72,-5.64,-55.44
1554879588656,7.2113357,-4.0037036,5.252279799999999,0.14487597,-0.12357068,-0.039414786,-12.9,-5.58,-55.44
1554879588676,7.254431200000001,-4.0372224,5.1613,0.15126756,-0.12996227,-0.037284255,-13.02,-5.58,-55.5
1554879588696,7.278373200000001,-3.9414546,5.357625,0.16937704,-0.13422333,-0.041545313,-13.14,-5.58,-55.5
1554879588717,7.225700999999999,-3.9414546,5.132569999999999,0.19174760000000002,-0.1438107,-0.06498113,-13.26,-5.64,-55.44
1554879588737,7.240066000000001,-3.7882257000000004,5.319318,0.18642128,-0.13741912,-0.096939065,-13.32,-5.82,-55.44
1554879588756,7.201759,-3.7547068999999995,5.142146599999999,0.15659387,-0.14168017,-0.099069595,-13.38,-5.94,-55.44
1554879588777,7.077260000000001,-3.7163997,5.276222,0.084155895,-0.13528858,-0.096939065,-13.44,-6.12,-55.44
1554879588796,7.216124000000001,-3.793014,5.3288946,0.040480047000000005,-0.13954964,-0.096939065,-13.44,-6.36,-55.44
1554879588817,7.153875,-3.8839936,5.252279799999999,0.011717908999999999,-0.14274544,-0.099069595,-13.5,-6.54,-55.44
1554879588837,7.28795,-3.8073792,5.5347957999999995,0.03195793,-0.13954964,-0.10226539,-13.56,-6.84,-55.44
1554879588857,7.177817,-3.8313212,5.635351999999999,0.06498113,-0.1438107,-0.10652645,-13.68,-7.08,-55.44
1554879588876,7.1586633,-3.7163997,5.34326,0.10333065,-0.1470065,-0.07563378,-13.8,-7.26,-55.44
1554879588896,7.2927384,-3.8361096,5.501277,0.12463594,-0.14168017,-0.05539375,-13.86,-7.44,-55.44
1554879588916,7.278373200000001,-3.6924577000000003,5.5204306,0.13741912,-0.13209279,-0.039414786,-13.98,-7.62,-55.44
1554879588937,7.168239999999999,-3.6349967000000003,5.587468,0.18322548,-0.12570119999999999,-0.023435817999999997,-14.1,-7.8,-55.38
1554879588957,7.077260000000001,-3.5488055,5.472546599999999,0.20879184,-0.11930962,-0.008522116,-14.16,-7.98,-55.32
1554879588976,7.0102224,-3.4961330000000004,5.5826797,0.22370553,-0.10333065,0.0053263223,-14.28,-8.1,-55.26
1554879588997,6.861782000000001,-3.5104983,5.228338,0.21518342,-0.09587380000000001,0.03089267,-14.34,-8.28,-55.2
1554879589017,6.828263300000001,-3.5296519,5.37199,0.20772657,-0.08841695,0.041545313,-14.34,-8.46,-55.14
1554879589037,6.742072,-3.520075,5.467758,0.21092236,-0.083090626,0.053263225,-14.34,-8.64,-55.08
1554879589056,6.756437299999999,-3.6302083,5.357625,0.19174760000000002,-0.08628642,0.07776430000000001,-14.46,-8.82,-55.02
1554879589077,6.6415157,-3.6302083,5.357625,0.165116,-0.09374327,0.09587380000000001,-14.52,-9.06,-54.96
1554879589096,6.670246000000001,-3.6780925000000004,5.4342394,0.165116,-0.10759171,0.12996227,-14.58,-9.24,-55.02
1554879589117,6.684611299999999,-3.86484,5.415086,0.20240025,-0.128897,0.18216023,-14.7,-9.48,-55.02
1554879589137,6.7851677,-3.9414546,5.3384714,0.257794,-0.14807177,0.23542345,-14.76,-9.66,-55.02
1554879589156,6.9623384,-4.0994720000000004,5.5922565,0.386691,-0.16405073,0.29827404,-15.0,-9.96,-55.14
1554879589177,7.091625,-4.0994720000000004,5.309741000000001,0.48469532,-0.18642128,0.32597092,-15.24,-10.26,-55.26
1554879589196,7.2065472999999995,-4.0707417,5.137358,0.5123922000000001,-0.2066613,0.31851408,-15.42,-10.68,-55.32
1554879589216,7.249642999999999,-3.8983587999999996,5.0846860000000005,0.49002165,-0.21518342,0.314253,-15.6,-11.04,-55.38
1554879589236,7.1586633,-3.9797617999999995,4.988918,0.45806372,-0.21198763,0.3291667,-15.72,-11.28,-55.38
1554879589257,7.1586633,-4.123414,4.988918,0.38349520000000004,-0.20559604,0.37923414,-15.96,-11.94,-55.44
1554879589276,7.1969705,-4.200028400000001,5.0559554,0.38456047,-0.21092236,0.4101268,-16.14,-12.36,-55.5
1554879589296,7.1969705,-4.2383356,4.8739963,0.44208476,-0.20133498,0.4708469,-16.32,-12.84,-55.5
1554879589317,7.1155677,-4.109049,4.89315,0.52837116,-0.20453078,0.49215218,-16.44,-13.26,-55.5
1554879589337,7.0964136,-4.171298,4.8165355000000005,0.5752428,-0.221575,0.49428272,-16.5,-13.38,-55.5
1554879589356,7.240066000000001,-4.109049,4.9218802,0.6061354999999999,-0.25992453,0.48149952,-16.56,-13.5,-55.44
1554879589376,7.335833999999999,-3.9223008000000004,4.5914803,0.62531024,-0.29294774,0.43569317,-16.68,-13.8,-55.26
1554879589397,7.4028716,-3.9223008000000004,4.6393642,0.6178534000000001,-0.28122982,0.4101268,-16.74,-13.92,-55.14
1554879589416,7.4842744,-3.9558197999999996,4.577115,0.5837649,-0.23648871,0.3749731,-16.86,-14.1,-55.02
1554879589436,7.4124484,-3.8265328000000003,4.524442700000001,0.49321744,-0.1949434,0.33875409999999995,-16.98,-14.28,-54.9
1554879589458,7.345411,-3.86484,4.5962687,0.36751625,-0.16937704,0.32170987,-17.1,-14.52,-54.84
1554879589478,7.28795,-3.9318779000000004,4.5819035,0.23755397,-0.16724652,0.32597092,-17.28,-14.94,-54.72
1554879589496,7.278373200000001,-4.0372224,4.7159786,0.18642128,-0.15978967,0.3323625,-17.4,-15.42,-54.6
1554879589516,7.268796400000001,-4.147355999999999,4.821324,0.23009712,-0.14594123,0.33875409999999995,-17.58,-15.9,-54.6
1554879589536,7.28795,-4.204817,5.151723400000001,0.34194988,-0.14487597,0.34301516,-17.76,-16.32,-54.6
1554879589557,7.2113357,-4.1186256000000006,4.759074,0.4644553,-0.13635385,0.33662358,-17.88,-16.74,-54.6
1554879589577,7.168239999999999,-3.9893386,4.538808,0.48043427,-0.12676647,0.3334278,-18.06,-17.16,-54.6
1554879589596,7.28795,-4.013280399999999,4.56275,0.44847634,-0.11930962,0.330232,-18.24,-17.52,-54.54
1554879589617,7.359775999999999,-4.013280399999999,4.4717703,0.3749731,-0.10865697,0.31851408,-18.42,-17.82,-54.54
1554879589637,7.393294999999999,-4.2862196,4.672883000000001,0.30253512,-0.099069595,0.30360037,-18.6,-18.0,-54.48
1554879589657,7.4028716,-4.3436804,4.6920366,0.27803403,-0.10652645,0.2727077,-18.78,-18.12,-54.42
1554879589677,7.455544000000001,-4.4538136,4.869208,0.314253,-0.12037488,0.22903186,-18.96,-18.24,-54.36
1554879589697,7.359775999999999,-4.3819875999999995,4.8021703,0.3568636,-0.13315806,0.20985709,-19.2,-18.48,-54.3
1554879589716,7.2592196,-4.439448400000001,4.5819035,0.37603834,-0.13102753,0.20453078,-19.38,-18.66,-54.18
1554879589736,7.144297999999999,-4.3197384,4.706402,0.37071204,-0.1107875,0.20985709,-19.56,-18.9,-54.12
1554879589757,7.038953,-4.214393599999999,4.6441526,0.31638354,-0.07563378,0.21944448,-19.74,-19.2,-54.12
1554879589776,6.9383965,-4.233547,4.7303440000000005,0.27483824,-0.056459017,0.21624869,-19.86,-19.5,-54.06
1554879589797,6.991069,-4.401141,4.5435963,0.25566345,-0.051132694000000006,0.19174760000000002,-20.04,-19.74,-54.06
1554879589817,6.9767036,-4.252701,4.768651,0.24074976,-0.056459017,0.15446335,-20.16,-19.98,-54.06
1554879589837,6.919242999999999,-4.3388919999999995,4.634576,0.21518342,-0.06604639400000001,0.12676647,-20.34,-20.22,-54.0
1554879589857,6.9862804,-4.420294999999999,4.696825,0.18216023,-0.07456851,0.11504856,-20.52,-20.4,-54.0
1554879589877,7.101202000000001,-4.5160627,4.7734394,0.1470065,-0.06391586,0.09054748,-20.64,-20.52,-53.94
1554879589896,7.1155677,-4.487332299999999,5.0463786,0.1438107,-0.05006743,0.080960095,-20.76,-20.7,-53.88
1554879589917,7.249642999999999,-4.607043,5.113416,0.14594123,-0.04580637,0.08948222,-20.82,-20.82,-53.76
1554879589937,7.273585000000001,-4.630985,5.156512,0.16192019,-0.039414786,0.082025364,-20.94,-20.88,-53.7
1554879589957,7.2352777,-4.520851,5.151723400000001,0.1768339,-0.024501082,0.083090626,-21.06,-21.0,-53.64
1554879589978,6.981492,-4.482544,5.151723400000001,0.15978967,-0.007456851,0.10226539,-21.12,-21.24,-53.58
1554879589997,6.837839999999999,-4.3676224,5.127781400000001,0.1107875,0.012783173500000002,0.13315806,-21.12,-21.36,-53.58
1554879590016,6.7612257,-4.362833999999999,5.290587400000001,0.07669904,0.014913702,0.16831179,-21.12,-21.66,-53.58
1554879590037,6.703765,-4.2622776,5.462969999999999,0.084155895,0.013848438000000001,0.17470337,-21.12,-21.72,-53.52
1554879590056,6.71813,-4.233547,5.348048,0.12144015,0.025566347000000003,0.16831179,-21.12,-21.9,-53.52
1554879590077,6.631939,-4.1904516,5.391144000000001,0.15765914,0.040480047000000005,0.15659387,-21.06,-22.08,-53.52
1554879590096,6.6893997,-4.0755300000000005,5.348048,0.1587244,0.037284255,0.12783173,-21.06,-22.2,-53.52
1554879590117,6.8522053,-4.1138372,5.290587400000001,0.14274544,0.041545313,0.099069595,-21.12,-22.26,-53.52
1554879590137,6.756437299999999,-4.0372224,5.204396,0.11611383,0.068176925,0.07456851,-21.12,-22.32,-53.58
1554879590157,6.789956,-4.1138372,5.3049526,0.040480047000000005,0.098004326,0.06498113,-21.12,-22.32,-53.64
1554879590176,6.6750345,-4.200028400000001,5.300164,-0.033023197000000004,0.099069595,0.04580637,-21.18,-22.32,-53.7
1554879590197,6.6750345,-4.252701,5.3815669999999995,-0.07776430000000001,0.08522116,0.049002163,-21.18,-22.32,-53.7
1554879590216,6.646304,-4.386776,5.3863554,-0.07563378,0.09054748,0.05219796,-21.18,-22.32,-53.76
1554879590236,6.531382,-4.4059295999999994,5.458181400000001,-0.03089267,0.10546118,0.06178534,-21.24,-22.38,-53.76
1554879590257,6.6367273,-4.429871599999999,5.333683000000001,-0.0053263223,0.09374327,0.07563378,-21.3,-22.38,-53.7
1554879590276,6.655881,-4.4921207,5.486912,-0.004261058,0.06711166,0.058589544,-21.3,-22.38,-53.64
1554879590297,6.6510925,-4.520851,5.510854,0.0,0.051132694000000006,0.033023197000000004,-21.36,-22.38,-53.58
1554879590316,6.622362,-4.496909,5.453393,0.0063915867,0.047936900000000005,0.010652645,-21.36,-22.38,-53.52
1554879590336,6.6079965,-4.554370400000001,5.319318,-0.002130529,0.056459017,-0.002130529,-21.36,-22.38,-53.46
1554879590357,6.5601125,-4.3676224,5.6018333,-0.011717908999999999,0.056459017,-0.017044231,-21.36,-22.38,-53.4
1554879590376,6.617573299999999,-4.4921207,5.367202,-0.029827405,0.039414786,-0.033023197000000004,-21.36,-22.38,-53.4
1554879590397,6.6893997,-4.425083,5.4055089999999995,-0.094808534,0.00958738,-0.05752428,-21.36,-22.32,-53.34
1554879590416,6.5840545,-4.3819875999999995,5.462969999999999,-0.13741912,0.004261058,-0.05752428,-21.3,-22.26,-53.28
1554879590436,6.459556,-4.4538136,5.4486045999999995,-0.16405073,-0.010652645,-0.027696876000000002,-21.24,-22.2,-53.28
1554879590457,6.459556,-4.554370400000001,5.486912,-0.13848437,-0.017044231,-0.002130529,-21.18,-22.14,-53.28
1554879590476,6.4404025,-4.554370400000001,5.635351999999999,-0.04580637,-0.02130529,0.017044231,-21.18,-22.02,-53.28
1554879590497,6.555324000000001,-4.587889,5.788581400000001,0.053263225,-0.036218993,0.012783173500000002,-21.12,-21.96,-53.34
1554879590517,6.670246000000001,-4.540005000000001,5.635351999999999,0.12144015,-0.060720075,0.0,-21.12,-21.84,-53.34
1554879590537,6.7468604999999995,-4.587889,5.620987,0.13422333,-0.083090626,-0.017044231,-21.12,-21.78,-53.34
1554879590556,6.813898,-4.429871599999999,5.798158,0.13528858,-0.080960095,-0.024501082,-21.12,-21.72,-53.4
1554879590576,6.861782000000001,-4.4681787,5.7263317,0.14913702,-0.035153727999999995,0.0031957934000000003,-21.18,-21.66,-53.4
1554879590597,6.828263300000001,-4.1760864,5.472546599999999,0.14594123,0.07243799,0.06498113,-21.18,-21.6,-53.4
1554879590617,6.947973299999999,-4.200028400000001,5.34326,0.11504856,0.13635385,0.11717909,-21.18,-21.48,-53.46
1554879590637,6.919242999999999,-4.2718544000000005,5.146935,0.034088463,0.14168017,0.113983296,-21.24,-21.48,-53.46
1554879590656,6.742072,-4.1760864,5.3815669999999995,-0.036218993,0.08522116,0.060720075,-21.24,-21.42,-53.52
1554879590677,6.631939,-4.1329910000000005,5.276222,-0.06285059999999999,0.026631612000000002,0.023435817999999997,-21.18,-21.36,-53.58
1554879590697,6.5457472999999995,-4.147355999999999,5.3528366,-0.053263225,-0.011717908999999999,-0.03089267,-21.12,-21.36,-53.58
1554879590716,6.277597,-4.228758999999999,5.453393,-0.022370555,-0.034088463,-0.07669904,-21.12,-21.36,-53.58
1554879590736,6.191406,-4.013280399999999,5.563526,0.013848438000000001,-0.07137272,-0.07456851,-21.12,-21.36,-53.58
1554879590757,6.1866174,-4.223970400000001,5.5347957999999995,0.043675844000000005,-0.111852765,-0.083090626,-21.12,-21.36,-53.52
1554879590777,6.2009826,-4.1425676,5.5826797,0.09587380000000001,-0.14594123,-0.08735169,-21.12,-21.36,-53.52
1554879590797,6.4547677000000006,-4.200028400000001,5.6640825,0.1438107,-0.15659387,-0.07776430000000001,-21.18,-21.36,-53.52
1554879590817,6.5840545,-4.2862196,5.6880245,0.15233281,-0.13848437,-0.099069595,-21.18,-21.3,-53.46
1554879590837,6.766014,-4.204817,5.462969999999999,0.11824436,-0.10652645,-0.13102753,-21.18,-21.3,-53.4
1554879590856,6.6654577,-4.3388919999999995,5.391144000000001,0.011717908999999999,-0.06391586,-0.15765914,-21.24,-21.36,-53.34
1554879590877,6.7851677,-4.31495,5.61141,-0.10972224,-0.034088463,-0.165116,-21.18,-21.36,-53.34
1554879590896,6.7133417,-4.4538136,5.644929,-0.2066613,-0.008522116,-0.14487597,-21.18,-21.42,-53.34
1554879590916,6.7133417,-4.5352163,5.769428,-0.23755397,0.0063915867,-0.1107875,-21.12,-21.48,-53.34
1554879590938,6.5840545,-4.587889,5.8891377,-0.15659387,0.0031957934000000003,-0.06604639400000001,-21.06,-21.6,-53.34
1554879590956,6.531382,-4.520851,5.9130797,-0.07776430000000001,-0.00958738,-0.046871635999999994,-21.06,-21.66,-53.34
1554879590976,6.5457472999999995,-4.5016975,5.817312,0.049002163,-0.03089267,-0.027696876000000002,-21.06,-21.72,-53.34
1554879590997,6.6367273,-4.482544,5.6161985,0.17257284,-0.041545313,-0.018109497,-21.06,-21.72,-53.4
1554879591016,6.6510925,-4.3101616,5.4964886,0.19707392,-0.040480047000000005,-0.03195793,-21.12,-21.72,-53.4
1554879591036,6.593631299999999,-4.3388919999999995,5.319318,0.17789917,-0.029827405,-0.043675844000000005,-21.12,-21.66,-53.4
1554879591057,6.631939,-4.171298,5.453393,0.111852765,-0.011717908999999999,-0.04580637,-21.18,-21.66,-53.4
1554879591076,6.6606693,-4.2957964,5.467758,0.03089267,0.0031957934000000003,-0.04261058,-21.18,-21.66,-53.4
1554879591096,6.655881,-4.2957964,5.486912,-0.05006743,0.007456851,-0.033023197000000004,-21.24,-21.66,-53.4
1554879591116,6.742072,-4.329315,5.558737799999999,-0.043675844000000005,0.0031957934000000003,-0.03089267,-21.3,-21.66,-53.46
1554879591136,6.742072,-4.3388919999999995,5.5347957999999995,0.023435817999999997,-0.0010652645,-0.017044231,-21.36,-21.72,-53.46
1554879591157,6.780379300000001,-4.257489,5.6401405,0.113983296,-0.011717908999999999,-0.004261058,-21.36,-21.78,-53.46
1554879591176,6.8330517,-4.147355999999999,5.4342394,0.13741912,-0.014913702,-0.004261058,-21.42,-21.84,-53.4
1554879591196,6.8761472999999995,-4.0084919999999995,5.467758,0.13315806,-0.0031957934000000003,-0.00958738,-21.42,-21.96,-53.4
1554879591217,6.766014,-3.9797617999999995,5.429451,0.10439592,0.027696876000000002,-0.022370555,-21.42,-22.08,-53.4
1554879591238,6.6941880000000005,-4.089895200000001,5.587468,0.05219796,0.058589544,-0.03834952,-21.48,-22.2,-53.4
1554879591256,6.780379300000001,-3.888782,5.458181400000001,-0.012783173500000002,0.068176925,-0.047936900000000005,-21.42,-22.38,-53.4
1554879591276,6.627150500000001,-3.9558197999999996,5.568314599999999,-0.05965481,0.06498113,-0.051132694000000006,-21.42,-22.5,-53.4
1554879591297,6.646304,-4.109049,5.573103,-0.068176925,0.049002163,-0.054328485999999995,-21.42,-22.68,-53.34
1554879591317,6.531382,-4.061165,5.606621700000001,-0.049002163,0.033023197000000004,-0.058589544,-21.36,-22.86,-53.34
1554879591337,6.5984197,-4.305373,5.5826797,0.007456851,0.008522116,-0.06391586,-21.3,-22.98,-53.34
1554879591356,6.6510925,-4.1760864,5.501277,0.06178534,-0.00958738,-0.07030745599999999,-21.24,-23.04,-53.34
1554879591377,6.6654577,-4.257489,5.6161985,0.09054748,-0.02130529,-0.07137272,-21.18,-23.16,-53.34
1554879591397,6.6989765,-4.233547,5.395932,0.060720075,-0.025566347000000003,-0.06178534,-21.06,-23.16,-53.34
1554879591416,6.655881,-4.1904516,5.5922565,0.020240024,-0.013848438000000001,-0.053263225,-21.0,-23.1,-53.4
1554879591436,6.627150500000001,-4.2622776,5.7023897,0.0,-0.00958738,-0.049002163,-20.94,-23.1,-53.4
1554879591457,6.612785000000001,-4.252701,5.635351999999999,0.0,0.0,-0.04474111,-20.82,-23.1,-53.4
1554879591476,6.6893997,-4.243124,5.5347957999999995,0.0063915867,0.007456851,-0.04474111,-20.76,-23.04,-53.4
1554879591497,6.684611299999999,-4.300585,5.6880245,-0.004261058,0.013848438000000001,-0.036218993,-20.76,-23.04,-53.4
1554879591517,6.5984197,-4.2814309999999995,5.6640825,-0.018109497,0.020240024,-0.029827405,-20.7,-23.04,-53.4
1554879591536,6.71813,-4.252701,5.668871,-0.01917476,0.027696876000000002,-0.018109497,-20.7,-23.04,-53.4
1554879591556,6.5505357,-4.2957964,5.620987,-0.00958738,0.03195793,-0.0063915867,-20.7,-22.98,-53.34
1554879591577,6.6654577,-4.252701,5.7215432999999996,0.011717908999999999,0.025566347000000003,-0.0010652645,-20.64,-22.98,-53.34
1554879591596,6.655881,-4.147355999999999,5.5922565,0.027696876000000002,0.023435817999999997,-0.0063915867,-20.64,-22.92,-53.34
1554879591617,6.6367273,-4.0420110000000005,5.573103,0.039414786,0.03195793,-0.014913702,-20.64,-22.92,-53.34
1554879591637,6.6367273,-4.0803185,5.4390279999999995,0.033023197000000004,0.039414786,-0.01917476,-20.64,-22.92,-53.4
1554879591657,6.622362,-4.013280399999999,5.6497173,-0.0010652645,0.040480047000000005,-0.018109497,-20.64,-22.86,-53.4
1554879591677,6.6367273,-4.180875,5.7502737,-0.037284255,0.03195793,-0.022370555,-20.64,-22.8,-53.4
1554879591697,6.670246000000001,-4.1760864,5.6545057,-0.025566347000000003,0.020240024,-0.041545313,-20.64,-22.74,-53.4
1554879591717,6.670246000000001,-4.204817,5.644929,0.018109497,0.03195793,-0.03834952,-20.64,-22.74,-53.46
1554879591737,6.6941880000000005,-4.1282024,5.6018333,0.043675844000000005,0.037284255,-0.025566347000000003,-20.58,-22.68,-53.46
1554879591757,6.603208,-4.109049,5.606621700000001,0.026631612000000002,0.037284255,-0.027696876000000002,-20.58,-22.62,-53.52
1554879591777,6.6415157,-4.1329910000000005,5.620987,-0.0063915867,0.033023197000000004,-0.026631612000000002,-20.58,-22.62,-53.58
1554879591797,6.6510925,-4.147355999999999,5.692813,-0.0053263223,0.033023197000000004,-0.025566347000000003,-20.52,-22.56,-53.64
1554879591817,6.593631299999999,-4.147355999999999,5.668871,0.011717908999999999,0.034088463,-0.026631612000000002,-20.52,-22.56,-53.7
1554879591836,6.612785000000001,-4.051588,5.668871,0.011717908999999999,0.035153727999999995,-0.02876214,-20.52,-22.56,-53.76
1554879591856,6.603208,-4.0563765,5.668871,0.00958738,0.027696876000000002,-0.027696876000000002,-20.52,-22.56,-53.82
1554879591877,6.631939,-4.152144399999999,5.802946599999999,-0.0031957934000000003,0.025566347000000003,-0.03834952,-20.52,-22.56,-53.82
1554879591897,6.7133417,-4.1329910000000005,5.6736593,-0.011717908999999999,0.037284255,-0.04580637,-20.52,-22.56,-53.88
1554879591916,6.655881,-4.065953299999999,5.7263317,-0.004261058,0.04474111,-0.05006743,-20.52,-22.56,-53.88
1554879591937,6.6367273,-4.180875,5.8412538,0.0053263223,0.056459017,-0.056459017,-20.52,-22.56,-53.76
1554879591957,6.5601125,-4.171298,5.692813,0.00958738,0.053263225,-0.05752428,-20.52,-22.56,-53.7
1554879591976,6.593631299999999,-4.051588,5.587468,-0.004261058,0.05219796,-0.05539375,-20.52,-22.56,-53.64
1554879591996,6.5265937,-4.171298,5.597045,-0.040480047000000005,0.054328485999999995,-0.05006743,-20.4,-22.62,-53.46
1554879592017,6.5792660000000005,-4.2383356,5.740697,-0.05219796,0.056459017,-0.049002163,-20.34,-22.62,-53.34
1554879592037,6.493075,-4.233547,5.597045,-0.027696876000000002,0.051132694000000006,-0.046871635999999994,-20.28,-22.68,-53.22
1554879592057,6.6941880000000005,-4.171298,5.6880245,0.0,0.04474111,-0.04580637,-20.16,-22.74,-53.1
1554879592076,6.5744777,-4.1138372,5.659294,0.013848438000000001,0.040480047000000005,-0.043675844000000005,-20.1,-22.8,-53.1
1554879592097,6.4787097000000005,-4.0994720000000004,5.5204306,0.0063915867,0.04261058,-0.037284255,-19.98,-22.86,-53.22
1554879592116,6.5984197,-4.109049,5.620987,-0.02130529,0.05219796,-0.033023197000000004,-19.92,-22.92,-53.34
1554879592137,6.612785000000001,-4.1282024,5.6018333,-0.036218993,0.058589544,-0.039414786,-19.86,-22.98,-53.52
1554879592156,6.483498,-4.1425676,5.573103,-0.047936900000000005,0.05006743,-0.049002163,-19.8,-22.98,-53.76
1554879592178,6.5505357,-4.228758999999999,5.6401405,-0.05965481,0.04580637,-0.04261058,-19.8,-22.98,-53.88
1554879592196,6.4212489999999995,-4.200028400000001,5.960963700000001,-0.06178534,0.053263225,-0.05219796,-19.8,-22.98,-54.06
1554879592216,6.4643445,-4.2622776,5.7646394,-0.06711166,0.060720075,-0.05006743,-19.8,-22.92,-54.24
1554879592237,6.50744,-4.2622776,5.807735,-0.06285059999999999,0.06178534,-0.041545313,-19.74,-22.86,-54.3
1554879592256,6.5792660000000005,-4.2622776,5.740697,-0.06285059999999999,0.06178534,-0.040480047000000005,-19.74,-22.8,-54.24
1554879592277,6.5792660000000005,-4.2814309999999995,5.7646394,-0.053263225,0.06711166,-0.037284255,-19.74,-22.74,-54.18
1554879592297,6.564901,-4.3580456,5.8604074,-0.03195793,0.07776430000000001,-0.035153727999999995,-19.74,-22.62,-54.12
1554879592317,6.540959,-4.2622776,5.807735,-0.02130529,0.08841695,-0.033023197000000004,-19.68,-22.5,-54.06
1554879592336,6.617573299999999,-4.243124,5.755062000000001,-0.024501082,0.099069595,-0.039414786,-19.68,-22.38,-54.06
1554879592356,6.5457472999999995,-4.243124,5.8604074,-0.041545313,0.11504856,-0.027696876000000002,-19.68,-22.26,-54.06
1554879592377,6.5744777,-4.3436804,6.114192500000001,-0.05219796,0.13102753,0.002130529,-19.68,-22.14,-54.06
1554879592396,6.5265937,-4.496909,6.329671,-0.022370555,0.13741912,0.011717908999999999,-19.62,-22.02,-54.12
1554879592417,6.517017,-4.587889,6.3392477,0.060720075,0.165116,0.046871635999999994,-19.62,-21.96,-54.12
1554879592437,6.5840545,-4.6261964,6.3823433,0.17150758,0.21198763,0.07137272,-19.62,-21.9,-54.12
1554879592457,6.3302693,-4.520851,6.3584013,0.26418558,0.25246766,0.099069595,-19.5,-21.9,-54.12
1554879592477,6.2632318,-4.3963529999999995,6.4398040000000005,0.30040458,0.28655612,0.13422333,-19.38,-21.9,-54.18
1554879592496,6.081272,-4.247912400000001,6.3823433,0.26418558,0.30360037,0.16085494,-19.32,-21.96,-54.18
1554879592516,6.114791,-4.257489,6.2865753,0.21624869,0.31638354,0.17470337,-19.2,-21.96,-54.18
1554879592536,6.0764837,-4.223970400000001,6.4350157,0.19174760000000002,0.34408042,0.19068234,-19.08,-22.02,-54.18
1554879592556,5.942408599999999,-4.3580456,6.640917,0.19174760000000002,0.38136467,0.19707392,-19.02,-22.02,-54.18
1554879592576,5.913678,-4.410718,6.684012400000001,0.21731395,0.39627838,0.19068234,-18.9,-22.02,-54.18
1554879592596,5.813122,-4.377199,6.578667599999999,0.23861924,0.40266997,0.19707392,-18.78,-22.08,-54.24
1554879592617,5.707777,-4.228758999999999,6.545148999999999,0.23009712,0.40906155,0.2066613,-18.78,-22.08,-54.24
1554879592637,5.707777,-4.2957964,6.569091,0.20453078,0.42397526,0.22264028,-18.72,-22.14,-54.3
1554879592657,5.717354,-4.3101616,6.51163,0.18642128,0.42717105,0.22903186,-18.6,-22.14,-54.3
1554879592677,5.60722,-4.3388919999999995,6.559514,0.18429075,0.43888897,0.23755397,-18.42,-22.14,-54.3
1554879592696,5.511451999999999,-4.223970400000001,6.880337,0.18748654,0.44741106,0.2545982,-18.18,-22.2,-54.36
1554879592717,5.401319,-4.2957964,6.6217630000000005,0.19174760000000002,0.44421527,0.24501082,-17.58,-22.38,-54.42
1554879592737,5.3103394999999995,-4.267066000000001,6.741472999999999,0.18961707,0.43995422,0.23968449999999997,-17.4,-22.44,-54.42
1554879592756,5.233725,-4.137779,6.6983776,0.17363810000000002,0.4282363,0.25033715,-17.04,-22.56,-54.42
1554879592776,5.085284,-4.243124,6.545148999999999,0.13315806,0.42290998,0.2545982,-16.68,-22.68,-54.48
1554879592797,4.9895163,-4.123414,6.6361284,0.07563378,0.39521313,0.25033715,-16.26,-22.8,-54.48
1554879592817,4.8458643,-4.1282024,6.755839,0.043675844000000005,0.37284255,0.23755397,-16.02,-22.92,-54.54
1554879592836,4.8123455,-4.147355999999999,6.664859,0.03089267,0.34301516,0.21944448,-15.84,-22.98,-54.54
1554879592857,4.7357309999999995,-4.0563765,6.6600703999999995,0.037284255,0.32490566,0.2066613,-15.78,-23.04,-54.6
1554879592876,4.697424,-4.152144399999999,6.669647,0.04580637,0.2972088,0.18961707,-15.72,-22.98,-54.6
1554879592897,4.7165775000000005,-4.1282024,6.774992500000001,0.05219796,0.25672874,0.16298546,-15.66,-22.98,-54.66
1554879592917,4.6591167,-4.013280399999999,6.554725599999999,0.06285059999999999,0.20985709,0.13528858,-15.54,-22.86,-54.72
1554879592937,4.635174299999999,-4.018069000000001,6.4828997,0.084155895,0.165116,0.11930962,-15.3,-22.8,-54.78
1554879592956,4.6208089999999995,-3.9749733999999997,6.564302400000001,0.08522116,0.10652645,0.09054748,-15.0,-22.74,-54.84
1554879592977,4.7165775000000005,-4.0372224,6.7606273,0.07350325,0.047936900000000005,0.06285059999999999,-14.7,-22.62,-54.9
1554879592997,4.7788267,-3.9606082000000002,6.7941460000000005,0.06711166,-0.033023197000000004,0.020240024,-14.46,-22.56,-54.96
1554879593017,4.7500963,-4.0372224,6.827665,0.07456851,-0.07456851,-0.004261058,-14.22,-22.56,-55.02
1554879593036,4.6686935,-3.9989154,6.9425864,0.08522116,-0.1107875,-0.025566347000000003,-14.22,-22.5,-55.02
1554879593057,4.8506527,-4.022857,6.9521630000000005,0.08522116,-0.14168017,-0.043675844000000005,-14.22,-22.5,-55.02
1554879593076,4.7931919999999995,-3.888782,7.071872999999999,0.029827405,-0.15446335,-0.06178534,-14.28,-22.5,-55.02
1554879593096,4.8267107000000005,-4.013280399999999,7.1867948,-0.017044231,-0.15978967,-0.06711166,-14.46,-22.56,-54.96
1554879593117,4.817133999999999,-4.0994720000000004,7.0527196,-0.046871635999999994,-0.16618125,-0.07456851,-14.7,-22.62,-54.96
1554879593137,4.7884035,-4.185663,7.330447,-0.05539375,-0.16192019,-0.09374327,-14.88,-22.62,-54.9
1554879593156,4.8745947,-4.228758999999999,7.373543,-0.034088463,-0.14913702,-0.10439592,-15.12,-22.62,-54.9
1554879593177,4.879383,-4.228758999999999,7.378331,-0.0053263223,-0.13422333,-0.10546118,-15.24,-22.62,-54.84
1554879593197,4.8698063,-4.089895200000001,7.3208704,-0.012783173500000002,-0.1107875,-0.10865697,-15.24,-22.62,-54.84
1554879593217,4.879383,-4.257489,7.229890299999999,-0.04580637,-0.08841695,-0.10439592,-15.18,-22.62,-54.9
1554879593236,4.817133999999999,-4.19524,7.086238400000001,-0.07563378,-0.05965481,-0.10652645,-15.12,-22.62,-54.9
1554879593257,4.8267107000000005,-4.291008000000001,7.234678999999999,-0.084155895,-0.037284255,-0.10226539,-15.12,-22.68,-54.9
1554879593277,4.841076,-4.3197384,7.2729864,-0.094808534,-0.012783173500000002,-0.10652645,-15.06,-22.62,-54.9
1554879593297,4.7548847,-4.2957964,7.2969284,-0.101200126,-0.002130529,-0.111852765,-15.06,-22.62,-54.9
1554879593316,4.783615,-4.2957964,7.282563000000001,-0.09374327,0.010652645,-0.098004326,-15.0,-22.68,-54.96
1554879593336,4.7453080000000005,-4.420294999999999,7.349601,-0.08841695,0.026631612000000002,-0.07989483,-15.06,-22.68,-54.96
1554879593357,4.76925,-4.5256395,7.253833,-0.08522116,0.043675844000000005,-0.06711166,-15.06,-22.62,-54.96
1554879593377,4.912902,-4.578312400000001,7.253833,-0.06498113,0.07137272,-0.049002163,-15.06,-22.56,-54.96
1554879593396,4.879383,-4.520851,7.1724296,-0.06391586,0.098004326,-0.036218993,-15.12,-22.5,-54.96
1554879593417,4.8458643,-4.425083,7.301717,-0.068176925,0.111852765,-0.039414786,-15.12,-22.44,-54.96
1554879593436,4.7931919999999995,-4.487332299999999,7.282563000000001,-0.05539375,0.12144015,-0.027696876000000002,-15.12,-22.44,-54.96
1554879593456,4.7979803,-4.458602,7.0766615999999996,-0.035153727999999995,0.12357068,-0.018109497,-15.12,-22.38,-54.96
1554879593476,4.707000700000001,-4.420294999999999,7.325659,-0.020240024,0.128897,-0.00958738,-15.12,-22.26,-54.96
1554879593497,4.7357309999999995,-4.573524,7.277775,0.0,0.12570119999999999,0.004261058,-15.12,-22.2,-54.96
1554879593517,4.7740383,-4.511274299999999,7.282563000000001,0.014913702,0.11930962,0.0053263223,-15.06,-22.14,-54.96
1554879593537,4.711789,-4.463390400000001,7.2059484,0.035153727999999995,0.11504856,0.00958738,-15.0,-22.08,-54.96
1554879593557,4.721366000000001,-4.607043,7.354389,0.06604639400000001,0.11930962,0.03195793,-14.88,-22.02,-54.96
1554879593576,4.6591167,-4.544793599999999,7.4645224,0.08948222,0.12463594,0.05219796,-14.82,-21.96,-54.96
1554879593597,4.692635500000001,-4.520851,7.354389,0.10013486,0.14487597,0.09267801,-14.7,-21.84,-54.96
1554879593617,4.644751,-4.5352163,7.3831196,0.10226539,0.16192019,0.12357068,-14.64,-21.78,-54.96
1554879593637,4.635174299999999,-4.5016975,7.402272999999999,0.08735169,0.19281286,0.14807177,-14.52,-21.72,-54.96
1554879593657,4.5298295,-4.3963529999999995,7.4310035999999995,0.07350325,0.21837921,0.15446335,-14.46,-21.66,-54.96
1554879593676,4.582502,-4.530428,7.268198,0.05752428,0.24074976,0.15978967,-14.4,-21.66,-54.96
1554879593696,4.3718123,-4.43466,7.354389,0.0031957934000000003,0.27057716,0.17150758,-14.4,-21.6,-54.96
1554879593717,4.261679,-4.530428,7.387908,-0.05219796,0.29507825,0.18642128,-14.4,-21.6,-54.96
1554879593737,4.1946416,-4.544793599999999,7.493252799999999,-0.06498113,0.31318775,0.21092236,-14.4,-21.66,-54.96
1554879593757,4.1180267,-4.654927,7.6847887,-0.06178534,0.32277513,0.21411815,-14.34,-21.66,-54.9
1554879593777,4.0462008,-4.7219644,7.7087307,-0.046871635999999994,0.34940675,0.22583607,-14.22,-21.66,-54.9
1554879593797,4.098873,-4.717176,7.756614999999999,-0.037284255,0.37710363,0.25140239999999997,-14.1,-21.66,-54.9
1554879593816,3.9408559999999997,-4.7602715,7.747038400000001,-0.03089267,0.4101268,0.26312032,-13.98,-21.66,-54.96
1554879593836,3.7924154000000003,-4.803367,7.756614999999999,-0.03834952,0.45273739999999996,0.28655612,-13.86,-21.6,-54.96
1554879593856,3.6248214,-4.779425,7.713519,-0.022370555,0.48149952,0.31851408,-13.62,-21.54,-55.02
1554879593877,3.6200330000000003,-4.88477,8.000824,0.02130529,0.49854377,0.31638354,-13.44,-21.48,-55.14
1554879593897,3.6774937999999993,-4.956596,8.139688,0.09161274,0.51665324,0.31957933,-13.2,-21.36,-55.26
1554879593916,3.4476504,-4.923076999999999,7.766192,0.19813919,0.5592638000000001,0.32490566,-13.02,-21.24,-55.38
1554879593937,3.2944214,-4.8704047,7.943362700000001,0.30146983,0.59122175,0.3270362,-12.84,-21.12,-55.44
1554879593957,3.3758245000000002,-4.841674299999999,8.16363,0.350472,0.6125271,0.34088463,-12.6,-21.0,-55.56
1554879593976,3.064578,-4.630985,7.8428062999999995,0.34834146,0.6423545,0.3536678,-12.3,-20.88,-55.68
1554879593996,3.0454244999999998,-4.5352163,7.861960000000001,0.2790993,0.6508765999999999,0.37923414,-12.06,-20.82,-55.68
1554879594016,2.8538885,-4.5016975,7.814075999999999,0.22370553,0.65726817,0.39521313,-11.76,-20.76,-55.74
1554879594037,2.681506,-4.5016975,7.9912467000000005,0.19068234,0.6711166000000001,0.4079963,-11.4,-20.7,-55.68
1554879594056,2.480393,-4.607043,8.096592,0.14487597,0.67324716,0.43036684,-11.1,-20.7,-55.62
1554879594077,2.2505496,-4.4777555,7.967304700000001,0.12357068,0.6849651,0.43569317,-10.8,-20.7,-55.56
1554879594096,2.0973208,-4.4921207,8.106169,0.10546118,0.6775081999999999,0.44101948,-10.44,-20.7,-55.5
1554879594117,1.9201498,-4.472967,8.22109,0.10546118,0.6764429,0.44741106,-10.14,-20.7,-55.44
1554879594137,1.8770541,-4.659715,8.187572,0.11717909,0.67218184,0.45380265,-9.9,-20.76,-55.44
1554879594157,1.7525556,-4.482544,8.144476,0.12570119999999999,0.6625945,0.44315,-9.72,-20.76,-55.44
1554879594176,1.4508862,-4.4442368,8.019978,0.13954964,0.6679208000000001,0.43995422,-9.48,-20.82,-55.44
1554879594196,1.3024458,-4.487332299999999,8.158841,0.12783173,0.6498113,0.46019423,-9.12,-20.82,-55.44
1554879594217,1.2066777,-4.291008000000001,8.019978,0.12037488,0.65194184,0.45167214,-8.7,-20.88,-55.5
1554879594237,0.93852705,-4.429871599999999,8.096592,0.09161274,0.6444850000000001,0.4708469,-8.58,-20.94,-55.5
1554879594256,0.79487497,-4.5160627,8.316858,0.03089267,0.6018744,0.48363006,-8.28,-21.0,-55.56
1554879594277,0.7134720999999999,-4.5256395,8.16363,0.00958738,0.572047,0.46552056,-7.98,-21.06,-55.62
1554879594296,0.5506664000000001,-4.5352163,8.168417999999999,0.033023197000000004,0.5592638000000001,0.47191215,-7.62,-21.12,-55.62
1554879594316,0.4261679,-4.544793599999999,8.173206,0.060720075,0.55287224,0.49321744,-7.2,-21.18,-55.62
1554879594337,0.36391866,-4.563947,8.383896,0.083090626,0.5432849000000001,0.5028047999999999,-6.9,-21.18,-55.62
1554879594357,0.07182605,-4.4921207,8.426991000000001,0.068176925,0.5539375,0.5230448000000001,-6.66,-21.24,-55.56
1554879594377,-0.009576807,-4.520851,8.292916,0.02130529,0.55074173,0.55074173,-6.48,-21.24,-55.5
1554879594397,-0.26815059999999996,-4.597466000000001,8.398261,-0.017044231,0.5571333,0.5656554,-6.24,-21.24,-55.44
1554879594417,-0.4357447,-4.597466000000001,8.460510000000001,-0.04261058,0.5603291,0.59228706,-6.06,-21.24,-55.32
1554879594436,-0.49799395,-4.7219644,8.474875,-0.06178534,0.56459016,0.6178534000000001,-5.94,-21.24,-55.26
1554879594457,-0.770933,-4.6932339999999995,8.623316,-0.041545313,0.5784385999999999,0.6402239000000001,-5.76,-21.18,-55.2
1554879594477,-0.91458505,-4.611831,8.561067,-0.015978966,0.59761333,0.6689861,-5.46,-21.12,-55.2
1554879594497,-1.0821792,-4.755483,8.685564999999999,0.03834952,0.6242449999999999,0.7052050999999999,-5.16,-21.06,-55.2
1554879594517,-1.2785037000000001,-4.860828,9.083003,0.10439592,0.6263755,0.7190535,-4.92,-20.94,-55.26
1554879594536,-1.5370774999999999,-4.7842135,8.843582000000001,0.15233281,0.6540724,0.7520766999999999,-4.62,-20.82,-55.32
1554879594557,-1.7525556,-4.6980224,8.762179,0.21518342,0.67963874,0.78083885,-4.32,-20.76,-55.38
1554879594577,-1.8579005000000002,-4.6884456,8.6712,0.22903186,0.71159667,0.8149273,-4.08,-20.7,-55.38
1554879594596,-2.1260512,-4.597466000000001,8.675988,0.23116238,0.7595335999999999,0.8745821,-3.72,-20.64,-55.44
1554879594616,-2.4277205000000004,-4.4777555,8.786121000000001,0.18642128,0.7914915,0.90973586,-3.42,-20.58,-55.44
1554879594636,-2.6192567,-4.540005000000001,8.886678,0.07243799,0.84155893,0.9832390999999999,-3.12,-20.52,-55.44
1554879594657,-2.9209259999999997,-4.415506400000001,8.814852,-0.01917476,0.9171927,1.0684601999999999,-2.76,-20.52,-55.38
1554879594677,-3.2130187,-4.429871599999999,8.6712,-0.049002163,0.9832390999999999,1.1377025,-2.4,-20.64,-55.32
1554879594696,-3.5434184,-4.200028400000001,8.738237,-0.09374327,1.0695255,1.2314457,-2.1,-20.7,-55.26
1554879594717,-3.9121256,-3.9079356,8.675988,-0.1587244,1.1419635000000001,1.2911005,-1.74,-20.88,-55.08
1554879594737,-4.271256,-4.1329910000000005,8.805275,-0.19600865,1.2144015,1.3560816,-1.44,-21.06,-54.9
1554879594756,-4.525041000000001,-4.0037036,8.403049000000001,-0.14061491,1.2697952,1.4285196000000002,-1.26,-21.24,-54.72
1554879594776,-4.8985367,-3.7403417,8.16363,0.0053263223,1.3496901000000001,1.4966966,-1.08,-21.42,-54.6
1554879594797,-5.094861,-3.481768,8.04392,0.16618125,1.4093448999999998,1.603223,-0.96,-21.6,-54.42
1554879594816,-5.171476,-3.1992521000000003,7.756614999999999,0.26418558,1.4050837999999999,1.627724,-0.66,-21.72,-54.3
1554879594837,-5.1762643,-2.8592752999999997,7.3352356,0.31318775,1.4061489999999999,1.6394419999999998,-0.42,-21.78,-54.18
1554879594857,-5.363012,-2.5767596,7.091027,0.28122982,1.4061489999999999,1.6682042000000001,-0.12,-21.84,-54.06
1554879594877,-5.645528,-2.3900118,6.746262,0.27057716,1.3923006000000002,1.675661,0.18,-21.78,-53.94
1554879594896,-5.9041014,-2.48578,6.5259953,0.31957933,1.3646038,1.663943,0.48,-21.84,-53.88
1554879594917,-5.851429,-2.212841,6.449381,0.386691,1.3326459,1.6394419999999998,0.9,-22.08,-53.76
1554879594937,-6.0764837,-1.8728642,6.415862000000001,0.45806372,1.3187973,1.6202673,1.32,-22.44,-53.58
1554879594956,-6.244078,-1.6190788999999999,6.2099605,0.5518069999999999,1.3049488999999999,1.5691346000000002,1.74,-22.8,-53.4
1554879594976,-6.3925184999999995,-1.2503718000000001,5.9322333,0.6508765999999999,1.2676646999999999,1.5030881,1.98,-23.28,-53.22
1554879594997,-6.627150500000001,-0.7811083000000001,5.8508306,0.7307714,1.2218584,1.4221281000000001,2.22,-23.88,-52.98
1554879595017,-6.588842999999999,-0.43634325,5.482123400000001,0.79681784,1.1696603,1.3198626,2.4,-24.72,-52.74
1554879595037,-6.6510925,-0.13467385,5.036802,0.83942837,1.1100056,1.2175972,2.58,-25.68,-52.44
1554879595057,-6.766014,0.43035775,4.395156,0.773382,1.055677,1.1249193000000002,2.76,-26.7,-52.08
1554879595077,-6.71813,0.7032967,4.174889,0.60293967,0.98430437,1.0290455,2.88,-27.66,-51.6
1554879595098,-7.005433999999999,1.0672153999999998,3.9881415000000002,0.39414784,0.89801794,0.9395633,2.94,-29.16,-50.76
1554879595117,-7.153875,1.1246762,3.9211037,0.14913702,0.8000136,0.8479504999999999,3.06,-29.64,-50.46
1554879595137,-7.0006455999999995,1.1198878,4.0216603,-0.040480047000000005,0.6689861,0.74675035,3.18,-30.6,-49.98
1554879595156,-7.120356,0.9427169,4.1844660000000005,-0.06391586,0.57311225,0.6444850000000001,3.3,-31.38,-49.5
1554879595176,-7.3406224,1.0672153999999998,4.160524,-0.0010652645,0.46552056,0.535828,3.48,-31.98,-49.08
1554879595197,-7.675811,1.407192,3.9402574999999995,0.07776430000000001,0.37071204,0.4101268,3.72,-32.46,-48.48
1554879595217,-7.699753,1.4790181,4.447828299999999,0.10439592,0.30146983,0.30679616,3.9,-32.82,-48.36
1554879595236,-7.6518690000000005,1.1294646000000002,4.3568487000000005,0.12676647,0.24607609,0.22477080000000002,4.08,-33.12,-48.24
1554879595258,-7.987056699999999,1.1294646000000002,4.5148660000000005,0.13954964,0.2428803,0.13315806,4.2,-33.3,-48.3
1554879595277,-8.1881695,1.2731166999999999,4.2371383,0.13102753,0.23648871,0.08735169,4.26,-33.54,-48.3
1554879595297,-8.336611,1.2826935,4.2898107,0.06178534,0.23755397,0.056459017,4.38,-33.84,-48.24
1554879595317,-8.532935,1.4454993,4.313753,-0.04261058,0.24607609,0.05219796,4.32,-34.02,-48.24
1554879595336,-8.528147,1.3640964,4.4765587,-0.099069595,0.25353295,0.07776430000000001,4.32,-34.14,-48.24
1554879595357,-8.556877,1.38325,4.4957123,-0.082025364,0.24714136,0.08948222,4.26,-34.32,-48.18
1554879595376,-8.39886,1.4263457,4.4143095,0.033023197000000004,0.21944448,0.10439592,4.2,-34.5,-48.12
1554879595396,-8.6574335,1.6849195,4.2275615,0.07776430000000001,0.21411815,0.10652645,4.26,-34.56,-48.12
1554879595417,-8.734048,1.6705543,4.280234,0.040480047000000005,0.19174760000000002,0.10865697,4.32,-34.62,-48.06
1554879595437,-8.499416,1.5652093999999999,4.1461587,0.010652645,0.18429075,0.10013486,4.38,-34.74,-48.0
1554879595457,-8.590396,1.6705543,4.088698,-0.018109497,0.17363810000000002,0.099069595,4.5,-34.8,-47.94
1554879595477,-8.700529,1.7423803,3.887585,-0.05219796,0.16405073,0.10013486,4.5,-34.8,-47.88
1554879595496,-8.355764,1.4502877,4.0743327,-0.046871635999999994,0.12570119999999999,0.101200126,4.56,-34.92,-47.82
1554879595517,-8.494628,1.3640964,4.079121,0.06924219,0.08841695,0.07669904,4.56,-35.04,-47.76
1554879595536,-8.51857,1.6370354,3.7726634,0.1470065,0.058589544,0.054328485999999995,4.62,-35.1,-47.76
1554879595557,-8.585608,1.8860323,3.8253357000000006,0.11504856,0.046871635999999994,0.049002163,4.56,-35.22,-47.7
1554879595577,-8.418014,1.8477252,3.8492777,0.008522116,0.03089267,0.035153727999999995,4.56,-35.28,-47.7
1554879595597,-8.623915,1.5364790000000002,4.031237,-0.096939065,0.07243799,0.029827405,4.5,-35.34,-47.7
1554879595617,-8.556877,1.3928268,4.0264487,-0.19387813,0.10865697,0.053263225,4.5,-35.4,-47.7
1554879595636,-8.5473,1.6370354,3.9163153,-0.16724652,0.09054748,0.020240024,4.5,-35.46,-47.64
1554879595656,-8.590396,1.5699978,4.1078515,-0.09374327,0.07563378,0.0010652645,4.56,-35.52,-47.64
1554879595677,-8.561666,1.6178818000000001,4.064756,0.01917476,0.03195793,-0.0031957934000000003,4.62,-35.52,-47.58
1554879595696,-8.537724,1.6274586000000002,3.7487214,0.068176925,0.01917476,-0.020240024,4.68,-35.46,-47.58
1554879595716,-8.51857,1.6897078999999997,3.7774517999999997,0.022370555,0.03089267,-0.011717908999999999,4.74,-35.4,-47.52
1554879595736,-8.6574335,1.7328035,3.9067385000000003,-0.084155895,0.029827405,-0.024501082,4.8,-35.34,-47.46
1554879595756,-8.523358,1.6609775000000002,3.7630866000000003,-0.1470065,0.027696876000000002,-0.022370555,4.8,-35.28,-47.46
1554879595777,-8.561666,1.5795746000000002,3.9067385000000003,-0.11824436,0.03834952,-0.023435817999999997,4.86,-35.22,-47.52
1554879595796,-8.772355000000001,1.4119805,4.2275615,-0.060720075,0.046871635999999994,-0.02876214,4.86,-35.16,-47.52
1554879595817,-8.7292595,1.584363,4.016872,0.017044231,0.034088463,-0.026631612000000002,4.92,-35.04,-47.52
1554879595837,-8.48984,1.7184383,3.863643,0.10972224,0.024501082,-0.037284255,4.98,-34.98,-47.58
1554879595857,-8.571242,1.7806876,3.7487214,0.17470337,0.025566347000000003,-0.037284255,4.98,-34.98,-47.58
1554879595876,-8.6095495,1.6705543,3.8109705000000003,0.12037488,0.0,-0.02130529,4.98,-34.92,-47.58
1554879595897,-8.667010000000001,1.5939398,3.8540661,0.058589544,-0.014913702,-0.018109497,5.04,-34.92,-47.58
1554879595916,-8.528147,1.6753427,3.8061821000000005,0.0,-0.035153727999999995,-0.010652645,5.04,-34.86,-47.52
1554879595937,-8.590396,1.7184383,3.9641995000000003,-0.007456851,-0.022370555,-0.027696876000000002,5.04,-34.86,-47.52
1554879595957,-8.580819,1.6178818000000001,3.9546227,0.033023197000000004,-0.013848438000000001,-0.041545313,5.04,-34.86,-47.46
1554879595977,-8.6095495,1.7232267,3.9881415000000002,0.046871635999999994,-0.017044231,-0.051132694000000006,5.04,-34.86,-47.46
1554879595996,-8.748413000000001,1.5604209999999998,3.9402574999999995,0.05539375,-0.0010652645,-0.06391586,5.04,-34.92,-47.4
1554879596016,-8.743625,1.5747862,3.9594111000000005,0.08841695,0.007456851,-0.06604639400000001,5.04,-34.92,-47.4
1554879596038,-8.63828,1.5747862,3.9019501000000005,0.11504856,-0.007456851,-0.054328485999999995,4.98,-34.98,-47.4
1554879596057,-8.734048,1.6609775000000002,3.9306807999999998,0.128897,0.004261058,-0.05539375,4.98,-35.04,-47.4
1554879596076,-8.791509,1.7184383,3.8588544999999996,0.06178534,0.002130529,-0.051132694000000006,4.98,-35.04,-47.4
1554879596097,-8.762777999999999,1.7375918999999997,3.9929300000000003,-0.039414786,0.008522116,-0.05219796,4.98,-35.1,-47.4
1554879596116,-8.7771435,1.5747862,4.0599675,-0.043675844000000005,0.004261058,-0.014913702,4.98,-35.1,-47.4
1554879596136,-8.619126,1.7711107,3.743933,0.029827405,-0.02130529,-0.0053263223,4.98,-35.1,-47.34
1554879596156,-8.628703,1.8477252,3.6194344,0.04261058,-0.05539375,-0.0031957934000000003,4.92,-35.1,-47.34
1554879596177,-8.6095495,1.5173253,3.9211037,-0.043675844000000005,-0.05539375,0.004261058,4.92,-35.1,-47.28
1554879596197,-8.5473,1.5412674,4.2036195,-0.082025364,-0.05965481,0.00958738,4.92,-35.1,-47.28
1554879596216,-8.6574335,1.5364790000000002,3.9737763,-0.07989483,-0.060720075,0.013848438000000001,4.92,-35.04,-47.28
1554879596237,-8.6813755,1.5125369,3.6625300000000003,-0.047936900000000005,-0.06498113,0.0063915867,4.92,-35.04,-47.28
1554879596256,-8.671799,1.6561891,3.9211037,-0.053263225,-0.043675844000000005,0.0010652645,4.92,-35.04,-47.34
1554879596277,-8.403648,1.3688848,4.217984700000001,-0.12037488,0.015978966,-0.014913702,4.86,-34.98,-47.4
1554879596297,-8.710106,1.2826935,4.2898107,0.025566347000000003,0.04261058,-0.03195793,4.86,-34.98,-47.52
1554879596317,-8.628703,1.7998412,3.7774517999999997,0.1587244,0.00958738,-0.049002163,4.86,-34.98,-47.58
1554879596337,-8.580819,1.8860323,3.5619736000000004,0.10013486,0.022370555,-0.046871635999999994,4.86,-34.98,-47.64
1554879596358,-8.7292595,1.6753427,3.7295678,-0.010652645,0.036218993,-0.041545313,4.86,-34.98,-47.7
1554879596376,-8.781932000000001,1.7136499,3.9115269999999995,-0.05752428,0.02876214,-0.056459017,4.86,-34.98,-47.76
1554879596397,-8.853758000000001,1.4454993,3.9211037,-0.046871635999999994,0.014913702,-0.033023197000000004,4.86,-34.98,-47.76
1554879596416,-8.628703,1.4502877,3.8397010000000003,-0.036218993,0.011717908999999999,-0.020240024,4.8,-34.98,-47.76
1554879596436,-8.566454,1.4694413,3.7726634,0.0031957934000000003,0.0053263223,-0.06711166,4.86,-34.98,-47.76
1554879596457,-8.7532015,1.5747862,3.9402574999999995,0.01917476,0.02130529,-0.036218993,4.86,-34.98,-47.76
1554879596476,-8.796297000000001,1.6130934,3.8492777,0.00958738,0.007456851,-0.046871635999999994,4.86,-34.98,-47.82
1554879596496,-8.805874000000001,1.6657659,3.8013937000000007,0.015978966,0.00958738,-0.046871635999999994,4.86,-34.98,-47.88
1554879596517,-8.494628,1.5795746000000002,4.0216603,-0.0031957934000000003,-0.0063915867,-0.04474111,4.86,-34.98,-47.94
1554879596536,-8.6574335,1.5747862,4.007295,0.007456851,0.013848438000000001,-0.05752428,4.86,-34.98,-48.0
1554879596557,-8.427589999999999,1.5269021,3.863643,0.08735169,-0.012783173500000002,-0.056459017,4.86,-34.98,-48.06
1554879596577,-8.408437,1.5173253,3.5859156000000003,0.084155895,-0.054328485999999995,-0.06391586,4.86,-35.04,-48.18
1554879596596,-8.901641999999999,1.6705543,3.6577415,-0.029827405,-0.022370555,-0.07137272,4.86,-35.04,-48.24
1554879596616,-8.90643,1.6992846999999998,4.0025067000000005,-0.15659387,-0.023435817999999997,-0.058589544,4.86,-35.04,-48.3
1554879596637,-8.647857,1.4454993,4.160524,-0.10865697,-0.013848438000000001,-0.03195793,4.86,-35.04,-48.3
1554879596657,-8.5473,1.5364790000000002,4.2419267,0.05006743,0.004261058,-0.05965481,4.86,-35.04,-48.3
1554879596677,-8.590396,1.6035166,3.7774517999999997,0.12250541,0.041545313,-0.09054748,4.86,-35.04,-48.24
1554879596700,-8.6334915,1.311424,3.7199910000000003,0.08735169,0.049002163,-0.083090626,4.86,-35.04,-48.18
1554879596717,-8.916007,2.1972785,4.040814,0.041545313,0.049002163,-0.083090626,4.86,-35.04,-48.18
1554879596736,-7.278373200000001,0.37289690000000003,2.8341362,0.10333065,-0.13848437,0.05219796,4.92,-35.04,-48.12
1554879596757,-8.379706,2.4271219,4.055179,-0.112918034,-0.09267801,-0.083090626,4.92,-35.1,-48.0
1554879596777,-8.5473,1.5652093999999999,2.7287915000000003,-0.06924219,-0.31851408,-0.22583607,4.92,-35.1,-47.94
1554879596796,-8.786719999999999,1.2204443,3.9689879999999995,-0.051132694000000006,-0.23968449999999997,0.06285059999999999,4.92,-35.1,-47.88
1554879596816,-8.504205,2.0153193,3.6673183,-0.19387813,-0.33555830000000003,-0.26312032,4.92,-35.22,-47.82
1554879596837,-8.595184,1.3784616000000003,4.2850223,-0.38349520000000004,-0.25140239999999997,-0.20985709,4.92,-35.4,-47.82
1554879596856,-8.298303,0.88525605,5.01286,-0.37603834,-0.20133498,-0.1949434,4.86,-35.58,-47.82
1554879596877,-8.259995,0.5931635000000001,5.510854,-0.14807177,-0.1768339,-0.23116238,4.86,-35.7,-47.82
1554879596896,-8.154651,1.407192,4.8261123,0.19707392,-0.23009712,-0.23435818,4.8,-35.88,-47.88
1554879596917,-8.049306,2.0057424999999998,3.9833531000000004,0.44208476,-0.31318775,-0.3153183,4.8,-35.94,-47.94
1554879596936,-8.063671000000001,2.3600842999999996,3.8397010000000003,0.40053943,-0.36964676,-0.27377295,4.8,-35.88,-47.94
1554879596957,-8.078036,1.584363,3.767875,0.19174760000000002,-0.41225734,-0.23542345,4.8,-35.82,-48.0
1554879596976,-7.905653999999999,1.6561891,4.0216603,0.015978966,-0.5336975,-0.34408042,4.8,-35.7,-48.06
1554879596997,-7.417236999999999,1.5652093999999999,3.9067385000000003,-0.07669904,-0.6583334,-0.41225734,4.8,-35.52,-48.06
1554879597017,-7.4268136,1.3736732,3.9737763,-0.080960095,-0.76059884,-0.45273739999999996,4.8,-35.28,-48.12
1554879597037,-7.455544000000001,1.3545196000000002,4.1796775,0.053263225,-0.96939063,-0.5496765,4.62,-34.98,-48.18
1554879597056,-6.9767036,1.2012907,4.447828299999999,0.13528858,-1.164334,-0.66152924,4.56,-34.92,-48.24
1554879597076,-6.789956,1.2970588,4.2275615,0.19813919,-1.3464943,-0.7882956999999999,4.44,-34.92,-48.36
1554879597097,-6.497863300000001,1.0959458,4.1317935,0.24394555,-1.5094798,-0.8117314999999999,4.32,-34.92,-48.48
1554879597117,-6.5792660000000005,1.0911574,4.208408,0.2130529,-1.6841831000000003,-0.9800433000000001,4.14,-35.04,-48.6
1554879597136,-6.272808599999999,1.2060791000000002,4.481347,0.12037488,-1.8642128,-1.1217233999999998,3.84,-35.04,-48.72
1554879597157,-5.995081,0.85173726,5.0320134,0.068176925,-2.0357203,-1.2367721,3.54,-35.1,-48.9
1554879597177,-5.3007627,0.43514615,5.242703,0.022370555,-2.2402509999999998,-1.3997575,3.18,-35.16,-49.02
1554879597196,-5.248090299999999,0.14305355,5.903503,0.024501082,-2.3489082000000003,-1.562743,2.88,-35.16,-49.14
1554879597217,-4.88896,-0.24001873,5.855619,0.07669904,-2.4469125,-1.6543556000000001,2.52,-35.1,-49.26
1554879597237,-4.663905000000001,-0.30705637,5.549161,0.041545313,-2.5268072999999998,-1.7278589,2.1,-35.04,-49.5
1554879597256,-4.4723687000000005,-0.22565351,6.640917,-0.094808534,-2.6290727,-1.8386464,1.56,-34.86,-49.74
1554879597277,-3.4572272000000006,-1.2264298,7.0287776,-0.25033715,-2.7409256,-1.8556907,0.96,-34.74,-49.92
1554879597299,-3.6487634,-1.4323312,7.41185,-0.21198763,-2.7079022,-1.8674085999999999,0.66,-34.62,-50.04
1554879597317,-3.193865,-1.3317747,7.2059484,-0.04474111,-2.8144287999999995,-1.8674085999999999,-0.42,-34.38,-50.28
1554879597337,-2.5043349999999998,-1.2838906,7.402272999999999,-0.18429075,-2.8666267000000003,-1.892975,-1.08,-34.26,-50.52
1554879597357,-1.8914193,-1.963844,8.450933000000001,-0.35579833,-2.8591697,-1.856756,-1.68,-34.14,-50.76
1554879597377,-1.1300632,-2.2750902,9.236232000000001,-0.51984906,-2.8410604,-1.7896442,-2.28,-34.02,-50.94
1554879597396,-0.94810385,-2.5384523999999997,9.09258,-0.515588,-2.8165592999999998,-1.8301243999999999,-2.88,-33.9,-51.12
1554879597416,-0.20590134,-2.7443538,8.915408,-0.386691,-2.860235,-1.861017,-3.6,-33.9,-51.24
1554879597437,0.35913026,-2.9071592999999996,8.982447,-0.20453078,-2.8730182999999996,-1.8237327,-4.44,-33.84,-51.36
1554879597456,1.3455413999999999,-2.7682957999999998,9.030331,-0.12250541,-2.8293424,-1.6618125,-5.1,-33.84,-51.54
1554879597476,1.9153613999999999,-2.4666264,8.532336,-0.32170987,-2.799515,-1.5978967,-5.82,-33.84,-51.72
1554879597497,2.5570072999999995,-2.3517046,8.077438,-0.8788431999999999,-2.7334685000000003,-1.5574166999999999,-6.66,-33.84,-51.84
1554879597516,3.241749,-2.3133974,8.379107000000001,-1.3113406,-2.6652918,-1.4668691,-7.56,-33.84,-51.96
1554879597537,4.1659107,-2.9406781000000004,8.527548,-1.5723303999999998,-2.6003106,-1.3827133,-8.64,-33.78,-52.02
1554879597557,4.8985367,-3.6206315000000004,9.063849000000001,-1.8194717,-2.4756746,-1.3518206,-9.9,-33.78,-52.14
1554879597576,5.6407394,-4.089895200000001,8.982447,-1.8301243999999999,-2.4309335,-1.4253238000000001,-11.04,-33.72,-52.26
1554879597596,5.841851999999999,-3.8696284,7.8954787,-1.7470337,-2.3158847999999996,-1.4849787,-11.94,-33.54,-52.38
1554879597616,6.1578870000000006,-4.123414,7.780557000000001,-1.6969663000000001,-2.1539648,-1.5116103,-12.84,-33.18,-52.56
1554879597637,6.6750345,-4.291008000000001,8.16363,-1.7821875,-2.0314593,-1.5041533999999999,-13.8,-32.58,-52.74
1554879597657,7.2209125,-4.587889,8.039131,-1.8769958999999998,-1.9984361000000002,-1.5233282,-14.7,-31.92,-52.92
1554879597677,7.608772999999999,-4.7219644,7.344812400000001,-1.9600866000000001,-1.9430424,-1.5403723999999999,-15.54,-31.08,-53.1
1554879597696,8.159439,-5.0667295,7.234678999999999,-2.0186759999999997,-1.7694043000000002,-1.526524,-16.26,-30.18,-53.28
1554879597716,8.456321,-5.497685400000001,7.095814999999999,-1.9664781999999998,-1.5488945,-1.4945661,-16.92,-29.1,-53.4
1554879597738,8.499416,-5.430648000000001,6.5738792,-1.8216022,-1.3475596,-1.4391723,-17.46,-27.9,-53.46
1554879597756,8.432379,-5.382764,6.3584013,-1.6575514999999998,-1.1739215,-1.3848438,-18.18,-26.88,-53.52
1554879597778,8.264783999999999,-5.0236335,5.8412538,-1.5393071000000003,-1.0365024,-1.3283848,-18.96,-25.92,-53.52
1554879597798,8.269572,-4.707599,5.146935,-1.4253238000000001,-0.90973586,-1.3060142,-19.92,-24.54,-53.52
1554879597817,8.178593,-4.482544,5.0942625999999995,-1.3837786,-0.83942837,-1.2889700000000002,-20.58,-23.7,-53.4
1554879597836,8.374918,-4.4777555,4.7494974,-1.3709954,-0.8213189000000001,-1.2719258,-20.88,-23.34,-53.4
1554879597856,8.619126,-4.204817,4.447828299999999,-1.3677995,-0.8042746999999999,-1.2761868,-21.6,-22.32,-53.28
1554879597876,8.7532015,-4.19524,4.160524,-1.3486248,-0.76059884,-1.3060142,-21.78,-22.02,-53.22
1554879597897,8.949525999999999,-4.051588,3.8205473,-1.3454291,-0.70200926,-1.2942963,-22.2,-21.54,-53.16
1554879597916,9.121908,-3.8935703999999998,3.4422636,-1.4072143999999998,-0.6018744,-1.2346416,-22.62,-20.4,-53.04
1554879597936,9.121908,-3.9414546,3.2746694,-1.4647386,-0.5390238,-1.1664646,-22.68,-20.04,-53.04
1554879597957,9.390058999999999,-3.9318779000000004,3.3081882000000005,-1.5435683,-0.41758367,-1.0141318000000001,-22.98,-19.08,-53.04
1554879597976,9.232041,-3.7020345,2.9586349,-1.5712651000000002,-0.28122982,-0.86499476,-23.16,-18.42,-52.98
1554879597997,9.313444,-4.061165,2.843713,-1.5712651000000002,-0.15659387,-0.7105314,-23.34,-17.76,-52.98
1554879598017,9.289502,-4.19524,2.8389246,-1.5744608999999998,-0.06391586,-0.61891866,-23.52,-16.98,-52.92
1554879598037,9.064447,-3.9079356,2.6234465,-1.5339808000000001,0.02130529,-0.5209143,-23.7,-16.08,-52.92
1554879598057,9.016563,-3.912724,2.5420437000000002,-1.4572818,0.10013486,-0.3717773,-23.82,-15.0,-52.86
1554879598076,9.050082000000002,-4.0084919999999995,2.5420437000000002,-1.3560816,0.16831179,-0.2790993,-24.0,-14.04,-52.86
1554879598096,8.863335000000001,-3.8456864,2.532467,-1.2623383999999997,0.19707392,-0.22690132,-24.12,-12.96,-52.86
1554879598116,8.896853,-3.9318779000000004,2.3696610000000002,-1.1632688,0.19600865,-0.19281286,-24.24,-11.7,-52.8
1554879598136,8.868122999999999,-3.816956,2.130241,-1.0610034,0.18109496,-0.17789917,-24.36,-10.44,-52.8
1554879598157,8.892064999999999,-3.7259765,1.6849195,-0.9310411,0.19387813,-0.17576863,-24.42,-9.06,-52.8
1554879598177,8.767567,-3.6924577000000003,1.6226702,-0.87351686,0.19387813,-0.17789917,-24.48,-7.8,-52.74
1554879598197,8.896853,-3.7547068999999995,1.5747862,-0.79894835,0.18748654,-0.17150758,-24.48,-6.66,-52.74
1554879598217,8.8777,-3.7211879999999997,1.3257892,-0.74035877,0.15765914,-0.19920446,-24.42,-5.58,-52.68
1554879598236,8.892064999999999,-3.7834373,1.5699978,-0.7254451,0.13209279,-0.22050974,-24.24,-4.68,-52.68
1554879598257,8.868122999999999,-3.7211879999999997,1.1438298,-0.7137272,0.09587380000000001,-0.22370553,-24.06,-3.72,-52.62
1554879598277,8.839393,-3.7978023999999997,1.2731166999999999,-0.69774824,0.054328485999999995,-0.21092236,-23.88,-2.82,-52.5
1554879598297,8.954314,-3.7116113,1.2204443,-0.69029135,0.025566347000000003,-0.20559604,-23.7,-2.04,-52.38
1554879598316,8.916007,-3.7834373,1.0911574,-0.6540724,-0.004261058,-0.18642128,-23.52,-1.26,-52.26
1554879598337,9.050082000000002,-3.74513,1.0672153999999998,-0.60080916,-0.023435817999999997,-0.165116,-23.4,-0.42,-52.14
1554879598357,8.90643,-3.6924577000000003,1.1150993999999999,-0.5603291,-0.037284255,-0.15339808,-23.34,0.36,-52.02
1554879598376,8.839393,-3.840898,1.1150993999999999,-0.54435015,-0.04474111,-0.128897,-23.28,1.14,-51.9
1554879598396,8.801085,-3.8839936,1.2491747,-0.5475459,-0.07882957,-0.10759171,-23.28,1.8,-51.78
1554879598416,8.829816000000001,-3.8696284,1.2300211,-0.49747851,-0.11930962,-0.10865697,-23.28,2.34,-51.66
1554879598437,8.848969,-3.8456864,1.407192,-0.42717105,-0.14913702,-0.09267801,-23.34,2.76,-51.6
1554879598457,8.772355000000001,-3.912724,1.6035166,-0.330232,-0.18109496,-0.082025364,-23.34,3.18,-51.48
1554879598477,9.054871,-3.970185,1.4742297,-0.21624869,-0.19387813,-0.06285059999999999,-23.4,3.6,-51.36
1554879598497,8.987833,-3.8839936,1.7040731,-0.09374327,-0.18535602,-0.046871635999999994,-23.4,4.02,-51.24
1554879598516,8.925583999999999,-3.7738605000000005,2.0153193,0.029827405,-0.17789917,-0.012783173500000002,-23.46,4.38,-51.06
1554879598536,9.107543,-3.6110547,2.144606,0.112918034,-0.18429075,0.034088463,-23.52,4.68,-50.94
1554879598557,9.208099,-3.5583823,2.28347,0.16831179,-0.15978967,0.051132694000000006,-23.52,4.98,-50.76
1554879598577,9.327810000000001,-3.5296519,2.2499511,0.22583607,-0.12250541,0.054328485999999995,-23.58,5.22,-50.7
1554879598598,9.490616000000001,-3.6637269999999997,1.8381484000000001,0.29188246,-0.037284255,0.039414786,-23.64,5.46,-50.58
1554879598616,9.289502,-3.4674027,1.8046296000000002,0.34301516,0.068176925,0.002130529,-23.76,5.52,-50.58
1554879598637,9.045294,-3.3045970000000002,1.407192,0.36751625,0.113983296,-0.010652645,-23.88,5.58,-50.58
1554879598657,8.978256,-3.328539,1.3305776000000002,0.3270362,0.1107875,-0.008522116,-24.0,5.46,-50.58
1554879598677,9.050082000000002,-3.342904,0.9379284999999999,0.23755397,0.07137272,-0.012783173500000002,-24.12,5.28,-50.58
1554879598697,8.911219000000001,-3.4290953,1.0049661,0.12783173,0.00958738,-0.022370555,-24.24,4.98,-50.7
1554879598717,8.99741,-3.5583823,0.96665895,0.111852765,-0.034088463,-0.033023197000000004,-24.36,4.8,-50.76
1554879598736,9.002198,-3.5057099999999997,1.0480618,0.18216023,-0.060720075,-0.046871635999999994,-24.36,4.68,-50.76
1554879598756,8.901641999999999,-3.520075,0.9139864999999999,0.34408042,-0.07776430000000001,-0.05006743,-24.42,4.5,-50.82
1554879598777,8.968679,-3.4626143,1.0049661,0.44741106,-0.11824436,-0.05219796,-24.36,4.26,-50.88
1554879598797,9.059659,-3.4386723,0.98102415,0.44954160000000004,-0.16937704,-0.060720075,-24.36,4.08,-50.94
1554879598816,8.930372,-3.4099417,1.0049661,0.42930159999999995,-0.20453078,-0.05539375,-24.36,3.9,-50.94
1554879598837,8.930372,-3.3764230000000004,1.1150993999999999,0.40373522,-0.21944448,-0.043675844000000005,-24.48,3.66,-51.0
1554879598857,8.99741,-3.4290953,1.2300211,0.37390783,-0.23542345,-0.023435817999999997,-24.6,3.3,-51.0
1554879598877,9.160214999999999,-3.3716345000000003,1.4981716999999999,0.36112466,-0.25353295,-0.007456851,-24.66,2.88,-51.0
1554879598898,9.045294,-3.1657330000000004,1.7088615000000003,0.3653857,-0.25566345,0.0031957934000000003,-24.78,2.46,-51.0
1554879598916,9.222465,-3.2710779999999997,1.7615339,0.37603834,-0.23861924,-0.0031957934000000003,-24.9,1.86,-51.06
1554879598937,9.232041,-3.3572693,1.929128,0.4016047,-0.19174760000000002,-0.015978966,-25.08,1.26,-51.06
1554879598957,9.323022,-3.4434607,1.929128,0.46978164,-0.13422333,-0.046871635999999994,-25.26,0.78,-51.12
1554879598976,9.160214999999999,-3.2902317,1.5604209999999998,0.5475459,-0.07456851,-0.07456851,-25.38,0.24,-51.18
1554879598997,9.002198,-3.3572693,1.2539631000000002,0.58909124,-0.047936900000000005,-0.07137272,-25.38,-0.18,-51.18
1554879599016,9.074024,-3.2375592999999996,1.2683283,0.58483016,-0.04580637,-0.06178534,-25.44,-0.36,-51.18
1554879599037,9.006986999999999,-3.3045970000000002,1.0576386,0.535828,-0.08841695,-0.051132694000000006,-25.5,-0.96,-51.24
1554879599056,8.978256,-3.2854433,1.0289081,0.5028047999999999,-0.113983296,-0.04261058,-25.56,-1.26,-51.3
1554879599076,9.121908,-3.1226375,0.88046765,0.47617322,-0.14487597,-0.041545313,-25.56,-1.62,-51.3
1554879599096,9.179369,-3.0651767000000003,1.0528502,0.50387007,-0.14594123,-0.051132694000000006,-25.5,-2.1,-51.24
1554879599117,9.203311,-3.0843303,1.1198878,0.4889564,-0.13528858,-0.024501082,-25.5,-2.64,-51.24
1554879599136,9.198523,-2.926313,1.4119805,0.4314321,-0.12996227,0.0,-25.44,-3.18,-51.24
1554879599157,9.212888000000001,-2.7922377999999997,1.4359225,0.35792887,-0.12250541,0.011717908999999999,-25.38,-3.72,-51.3
1554879599177,9.26556,-2.8113914,1.5173253,0.2876214,-0.099069595,0.018109497,-25.38,-4.2,-51.3
1554879599196,9.217675999999999,-2.8496985,1.6035166,0.23222765,-0.06711166,0.0010652645,-25.38,-4.8,-51.36
1554879599217,9.26556,-2.8880057,1.6418238,0.2130529,-0.04261058,-0.018109497,-25.44,-5.4,-51.36
1554879599237,9.188946000000001,-2.7874494,1.3449427999999999,0.17257284,-0.014913702,-0.039414786,-25.5,-5.82,-51.36
1554879599257,9.212888000000001,-2.9071592999999996,1.4263457,0.12144015,-0.004261058,-0.05752428,-25.56,-6.12,-51.36
1554879599277,9.165004,-2.9550436,1.2491747,0.07137272,-0.004261058,-0.056459017,-25.68,-6.36,-51.42
1554879599297,9.136273,-3.0508115,1.1677719,0.034088463,-0.017044231,-0.05965481,-25.8,-6.6,-51.42
1554879599316,9.150639,-3.031658,1.3162124,0.0053263223,-0.027696876000000002,-0.05006743,-25.92,-6.78,-51.42
1554879599337,9.217675999999999,-3.103484,1.2826935,0.004261058,-0.034088463,-0.049002163,-25.98,-6.96,-51.42
1554879599357,9.337387,-3.0891187,1.2491747,0.018109497,-0.03834952,-0.039414786,-25.98,-7.02,-51.42
1554879599377,9.112331,-3.0843303,1.4598645000000001,0.056459017,-0.034088463,-0.049002163,-25.98,-7.08,-51.42
1554879599396,9.126697,-2.959832,1.4359225,0.080960095,-0.039414786,-0.04474111,-25.98,-7.2,-51.42
1554879599416,9.179369,-3.0460230999999998,1.5699978,0.09587380000000001,-0.02876214,-0.039414786,-25.92,-7.32,-51.42
1554879599436,9.26556,-3.0508115,1.5747862,0.10652645,-0.02130529,-0.040480047000000005,-25.92,-7.44,-51.48
1554879599456,9.203311,-3.103484,1.4838065,0.13209279,-0.015978966,-0.037284255,-25.92,-7.62,-51.48
1554879599477,9.160214999999999,-3.0412347,1.4263457,0.16192019,-0.02130529,-0.04261058,-25.92,-7.92,-51.54
1554879599498,9.198523,-2.9502552000000004,1.2779051000000001,0.18322548,-0.02130529,-0.041545313,-25.98,-8.1,-51.54
1554879599516,9.160214999999999,-2.8927941,1.407192,0.17789917,-0.01917476,-0.03089267,-25.98,-8.28,-51.54
1554879599536,9.203311,-2.8880057,1.407192,0.13954964,-0.026631612000000002,-0.022370555,-26.04,-8.4,-51.6
1554879599556,9.131485000000001,-2.8927941,1.311424,0.101200126,-0.029827405,-0.01917476,-26.04,-8.52,-51.6
1554879599577,9.203311,-2.9406781000000004,1.4167688999999999,0.06178534,-0.027696876000000002,-0.022370555,-26.04,-8.58,-51.6
1554879599597,9.188946000000001,-2.8161798,1.5221136999999998,0.027696876000000002,-0.018109497,-0.025566347000000003,-26.04,-8.64,-51.54
1554879599617,9.23683,-2.9167361,1.4311341,-0.0031957934000000003,-0.015978966,-0.026631612000000002,-26.04,-8.64,-51.54
1554879599637,9.160214999999999,-2.9837740000000004,1.5412674,-0.0031957934000000003,-0.012783173500000002,-0.03834952,-25.98,-8.7,-51.54
1554879599656,9.141062,-2.9358897,1.4215573000000001,0.008522116,-0.002130529,-0.040480047000000005,-25.92,-8.7,-51.48
1554879599676,9.169792,-2.9789855,1.5221136999999998,0.013848438000000001,0.004261058,-0.03089267,-25.92,-8.7,-51.48
1554879599697,9.179369,-2.9837740000000004,1.4646529,0.014913702,0.0053263223,-0.022370555,-25.86,-8.76,-51.42
1554879599717,9.208099,-3.031658,1.3880384,0.020240024,0.0063915867,-0.018109497,-25.86,-8.76,-51.42
1554879599737,9.150639,-2.9885623,1.4215573000000001,0.025566347000000003,0.0063915867,-0.010652645,-25.86,-8.76,-51.42
1554879599756,9.279925,-2.9311013,1.4119805,0.03089267,0.0063915867,-0.011717908999999999,-25.8,-8.76,-51.42
1554879599776,9.14585,-2.9454667999999997,1.3640964,0.026631612000000002,0.0031957934000000003,-0.014913702,-25.74,-8.82,-51.42
1554879599797,9.203311,-3.0508115,1.5316905,0.025566347000000003,0.008522116,-0.01917476,-25.74,-8.82,-51.42
1554879599817,9.222465,-2.8975825,1.6897078999999997,0.02876214,0.01917476,-0.023435817999999997,-25.74,-8.82,-51.42
1554879599837,9.26556,-2.9311013,1.4311341,0.026631612000000002,0.02130529,-0.017044231,-25.74,-8.88,-51.42
1554879599857,9.255983,-2.9837740000000004,1.4167688999999999,0.0053263223,0.024501082,-0.012783173500000002,-25.8,-8.88,-51.42
1554879599877,9.174581,-3.031658,1.4694413,-0.01917476,0.02130529,-0.011717908999999999,-25.8,-8.94,-51.36
1554879599896,9.198523,-3.0268695,1.3688848,-0.023435817999999997,0.020240024,-0.013848438000000001,-25.8,-8.94,-51.36
1554879599917,9.203311,-2.9694088,1.5891514,-0.029827405,0.02130529,-0.020240024,-25.8,-9.0,-51.36
1554879599937,9.222465,-2.9837740000000004,1.4024036,-0.035153727999999995,0.017044231,-0.017044231,-25.86,-9.0,-51.36
1554879599957,9.184157,-3.0268695,1.6130934,-0.04261058,0.008522116,-0.02130529,-25.86,-9.06,-51.36
1554879599976,9.184157,-3.0412347,1.5939398,-0.036218993,0.0,-0.026631612000000002,-25.92,-9.06,-51.36
1554879599996,9.227253,-2.9789855,1.5173253,-0.020240024,-0.0010652645,-0.025566347000000003,-25.92,-9.06,-51.36
1554879600017,9.179369,-2.9789855,1.5556326,-0.0063915867,0.011717908999999999,-0.024501082,-25.92,-9.12,-51.42
1554879600037,9.251195,-3.0172927000000005,1.5556326,-0.004261058,0.025566347000000003,-0.012783173500000002,-25.86,-9.12,-51.42
1554879600056,9.179369,-2.9550436,1.6178818000000001,-0.012783173500000002,0.029827405,-0.002130529,-25.86,-9.12,-51.36
1554879600076,9.184157,-3.0125043,1.5269021,-0.012783173500000002,0.025566347000000003,0.0031957934000000003,-25.92,-9.12,-51.36
1554879600096,9.054871,-3.007716,1.4167688999999999,-0.0063915867,0.013848438000000001,-0.002130529,-25.92,-9.12,-51.36
1554879600116,9.251195,-2.926313,1.4598645000000001,-0.008522116,0.010652645,-0.0031957934000000003,-25.92,-9.18,-51.36
1554879600143,9.184157,-2.9885623,1.5029601000000001,0.0063915867,0.0031957934000000003,-0.020240024,-25.92,-9.36,-51.36
1554879600157,9.232041,-2.9981391,1.5747862,0.008522116,0.0010652645,-0.023435817999999997,-25.98,-9.42,-51.36
1554879600176,9.126697,-3.0412347,1.5891514,0.012783173500000002,-0.0031957934000000003,-0.025566347000000003,-25.98,-9.54,-51.36
1554879600198,9.188946000000001,-2.9933507,1.584363,0.008522116,-0.002130529,-0.03195793,-26.04,-9.66,-51.36
1554879600216,9.102755,-2.9694088,1.4885948999999998,0.013848438000000001,0.0,-0.03195793,-26.16,-9.78,-51.42
1554879600236,9.107543,-2.9502552000000004,1.5269021,0.007456851,0.0,-0.02876214,-26.22,-9.96,-51.42
1554879600260,9.050082000000002,-3.093907,1.5316905,-0.004261058,-0.002130529,-0.02876214,-26.4,-10.44,-51.48
1554879600276,9.088389,-3.0556,1.5699978,-0.0053263223,-0.0063915867,-0.022370555,-26.46,-10.62,-51.54
1554879600296,9.136273,-3.0508115,1.4167688999999999,0.0031957934000000003,-0.0031957934000000003,-0.024501082,-26.7,-11.1,-51.54
1554879600317,9.141062,-3.0364463,1.5029601000000001,-0.007456851,-0.002130529,-0.014913702,-26.82,-11.46,-51.6
1554879600336,9.112331,-3.103484,1.5173253,-0.015978966,0.002130529,-0.012783173500000002,-26.94,-11.82,-51.6
1554879600356,9.14585,-3.0172927000000005,1.5077485000000002,-0.029827405,0.0031957934000000003,-0.00958738,-27.06,-12.18,-51.66
1554879600376,9.251195,-3.0268695,1.5125369,-0.03089267,0.0031957934000000003,-0.0063915867,-27.18,-12.48,-51.66
1554879600396,9.260772,-3.0508115,1.4215573000000001,-0.01917476,0.008522116,-0.014913702,-27.3,-12.72,-51.72
1554879600416,9.083601,-3.0747535,1.5891514,-0.008522116,0.00958738,-0.014913702,-27.36,-12.84,-51.66
1554879600436,9.136273,-2.9071592999999996,1.5412674,-0.010652645,0.017044231,-0.01917476,-27.42,-12.9,-51.66
1554879600457,9.083601,-2.9502552000000004,1.5652093999999999,-0.035153727999999995,0.018109497,-0.015978966,-27.42,-12.9,-51.66
1554879600476,9.14585,-2.9981391,1.2779051000000001,-0.060720075,0.017044231,-0.012783173500000002,-27.42,-12.96,-51.66
1554879600496,9.208099,-3.0125043,1.4550761,-0.07030745599999999,0.014913702,-0.020240024,-27.42,-12.96,-51.66
1554879600516,9.23683,-3.0651767000000003,1.4885948999999998,-0.06391586,0.0063915867,-0.025566347000000003,-27.42,-12.96,-51.66
1554879600536,9.26556,-3.0460230999999998,1.584363,-0.047936900000000005,0.0063915867,-0.03089267,-27.42,-13.02,-51.6
1554879600557,9.155427,-3.1226375,1.6705543,-0.029827405,0.012783173500000002,-0.026631612000000002,-27.42,-13.02,-51.48
1554879600576,9.155427,-3.1322143,1.5508442,-0.014913702,0.022370555,-0.015978966,-27.36,-12.96,-51.36
1554879600596,9.184157,-2.9741971,1.5891514,-0.008522116,0.03195793,-0.013848438000000001,-27.3,-12.78,-51.3
1554879600616,9.217675999999999,-3.0508115,1.5077485000000002,-0.007456851,0.035153727999999995,-0.004261058,-27.24,-12.54,-51.24
1554879600636,9.198523,-3.0508115,1.4119805,-0.004261058,0.03195793,-0.0031957934000000003,-27.18,-12.3,-51.24
1554879600656,9.112331,-2.9837740000000004,1.4742297,-0.0031957934000000003,0.034088463,-0.002130529,-27.06,-12.06,-51.18
1554879600676,9.107543,-2.9311013,1.6561891,-0.007456851,0.022370555,-0.013848438000000001,-26.88,-11.82,-51.18
1554879600696,9.179369,-2.9550436,1.5412674,-0.029827405,0.013848438000000001,-0.024501082,-26.76,-11.58,-51.24
1554879600716,9.069236,-3.103484,1.4790181,-0.05752428,0.011717908999999999,-0.041545313,-26.64,-11.34,-51.36
1554879600737,9.150639,-3.007716,1.5269021,-0.07137272,0.017044231,-0.03834952,-26.58,-11.16,-51.42
1554879600756,9.150639,-3.0029275,1.4885948999999998,-0.09161274,0.018109497,-0.034088463,-26.52,-11.16,-51.48
1554879600776,9.136273,-3.0986955000000003,1.6418238,-0.11611383,0.024501082,-0.036218993,-26.52,-11.22,-51.48
1554879600797,9.165004,-2.9741971,1.6083049999999999,-0.14168017,0.02876214,-0.033023197000000004,-26.46,-11.34,-51.48
1554879600816,9.11712,-3.1082723,1.3880384,-0.16085494,0.039414786,-0.01917476,-26.52,-11.46,-51.48
1554879600836,9.198523,-3.0412347,1.3976152,-0.18109496,0.047936900000000005,-0.00958738,-26.58,-11.52,-51.48
1554879600856,9.193734,-3.2184057,1.4790181,-0.18961707,0.04261058,-0.011717908999999999,-26.58,-11.64,-51.54
1554879600876,9.23683,-3.2279825,1.5795746000000002,-0.165116,0.037284255,-0.01917476,-26.58,-11.7,-51.48
1554879600897,9.169792,-3.2375592999999996,1.6944963,-0.11611383,0.027696876000000002,-0.02876214,-26.52,-11.64,-51.48
1554879600916,9.126697,-3.2950199999999996,1.7471686999999998,-0.06924219,0.01917476,-0.035153727999999995,-26.46,-11.64,-51.48
1554879600936,9.112331,-3.1465794999999996,1.6274586000000002,-0.03834952,0.015978966,-0.043675844000000005,-26.4,-11.52,-51.48
1554879600956,9.083601,-3.2375592999999996,1.5747862,-0.025566347000000003,0.015978966,-0.03834952,-26.34,-11.4,-51.42
1554879600976,9.045294,-3.1800982999999996,1.632247,-0.013848438000000001,0.011717908999999999,-0.034088463,-26.28,-11.28,-51.42
1554879600996,9.016563,-3.2231941,1.5699978,0.008522116,0.008522116,-0.03195793,-26.22,-11.16,-51.42
1554879601017,9.088389,-3.208829,1.5125369,0.03834952,0.0063915867,-0.029827405,-26.16,-11.04,-51.36
1554879601036,9.083601,-3.0843303,1.4885948999999998,0.049002163,-0.0010652645,-0.029827405,-26.16,-10.92,-51.36
1554879601057,9.054871,-3.0412347,1.5604209999999998,0.02876214,-0.004261058,-0.023435817999999997,-26.22,-10.92,-51.36
1554879601076,9.059659,-3.093907,1.4359225,0.0053263223,0.0,-0.018109497,-26.22,-10.92,-51.36
1554879601097,9.126697,-3.1226375,1.4502877,-0.02130529,0.0053263223,-0.007456851,-26.34,-11.04,-51.36
1554879601116,9.141062,-3.0412347,1.5652093999999999,-0.015978966,0.012783173500000002,-0.00958738,-26.4,-11.1,-51.36
1554879601136,9.160214999999999,-3.1322143,1.5891514,-0.002130529,0.0031957934000000003,-0.013848438000000001,-26.52,-11.28,-51.3
1554879601156,9.102755,-2.9885623,1.5891514,0.0053263223,-0.0063915867,-0.025566347000000003,-26.58,-11.4,-51.3
1554879601176,9.097966,-3.0699651,1.6657659,-0.015978966,-0.004261058,-0.039414786,-26.64,-11.58,-51.36
1554879601197,9.112331,-3.0891187,1.4598645000000001,-0.040480047000000005,-0.0010652645,-0.043675844000000005,-26.7,-11.7,-51.36
1554879601216,9.088389,-3.0747535,1.5939398,-0.051132694000000006,0.007456851,-0.04580637,-26.7,-11.82,-51.36
1554879601236,9.112331,-3.1609447,1.5412674,-0.05539375,0.013848438000000001,-0.037284255,-26.64,-11.88,-51.36
1554879601256,9.083601,-3.2710779999999997,1.4790181,-0.051132694000000006,0.015978966,-0.039414786,-26.64,-11.94,-51.36
1554879601277,9.121908,-3.141791,1.5747862,-0.060720075,0.014913702,-0.040480047000000005,-26.58,-11.82,-51.36
1554879601296,9.030928999999999,-3.1082723,1.5412674,-0.07456851,0.017044231,-0.035153727999999995,-26.52,-11.7,-51.42
1554879601316,9.045294,-3.2279825,1.4502877,-0.09267801,0.01917476,-0.02876214,-26.46,-11.4,-51.48
1554879601337,9.126697,-3.2423477000000003,1.5795746000000002,-0.08735169,0.014913702,-0.027696876000000002,-26.4,-11.1,-51.6
1554879601356,9.035717,-3.2902317,1.6035166,-0.07776430000000001,0.0,-0.033023197000000004,-26.4,-10.86,-51.66
1554879601376,9.121908,-3.2902317,1.4024036,-0.051132694000000006,-0.00958738,-0.039414786,-26.34,-10.62,-51.78
1554879601396,9.02614,-3.3859997,1.5891514,-0.01917476,-0.0063915867,-0.029827405,-26.34,-10.32,-51.78
1554879601416,9.02614,-3.2423477000000003,1.5747862,0.0010652645,-0.010652645,-0.023435817999999997,-26.34,-10.08,-51.84
1554879601436,9.102755,-3.1992521000000003,1.6178818000000001,0.011717908999999999,-0.018109497,-0.02130529,-26.34,-9.9,-51.78
1554879601456,9.059659,-3.2710779999999997,1.5029601000000001,0.023435817999999997,-0.022370555,-0.012783173500000002,-26.34,-9.66,-51.72
1554879601476,9.11712,-3.1322143,1.5077485000000002,0.041545313,-0.026631612000000002,-0.018109497,-26.34,-9.54,-51.6
1554879601496,9.155427,-3.151368,1.5891514,0.049002163,-0.036218993,-0.02876214,-26.34,-9.42,-51.48
1554879601517,9.14585,-3.103484,1.4885948999999998,0.047936900000000005,-0.034088463,-0.029827405,-26.34,-9.3,-51.36
1554879601536,9.23683,-3.127426,1.4215573000000001,0.03834952,-0.036218993,-0.035153727999999995,-26.34,-9.18,-51.24
1554879601556,9.059659,-3.1848867000000003,1.4502877,0.022370555,-0.025566347000000003,-0.033023197000000004,-26.34,-9.12,-51.18
1554879601576,9.184157,-3.1226375,1.5508442,-0.0010652645,-0.02130529,-0.029827405,-26.34,-9.0,-51.12
1554879601596,9.203311,-3.1130607000000006,1.5699978,-0.018109497,-0.013848438000000001,-0.035153727999999995,-26.4,-8.88,-51.06
1554879601617,9.165004,-3.2231941,1.4119805,-0.0031957934000000003,-0.023435817999999997,-0.047936900000000005,-26.4,-8.82,-51.06
1554879601636,9.251195,-3.1609447,1.3976152,0.024501082,-0.027696876000000002,-0.06178534,-26.34,-8.76,-51.0
1554879601656,9.083601,-3.0843303,1.5891514,0.022370555,-0.025566347000000003,-0.06604639400000001,-26.28,-8.64,-51.0
1554879601676,9.097966,-3.0460230999999998,1.4694413,0.0031957934000000003,-0.025566347000000003,-0.05539375,-26.28,-8.52,-51.06
1554879601696,9.169792,-3.2806550000000003,1.5316905,-0.0010652645,-0.025566347000000003,-0.04261058,-26.16,-8.34,-51.06
1554879601716,9.150639,-3.2231941,1.4790181,0.0063915867,-0.023435817999999997,-0.04474111,-26.1,-8.1,-51.06
1554879601736,9.179369,-3.0268695,1.5221136999999998,0.018109497,-0.023435817999999997,-0.04261058,-25.98,-7.92,-51.06
1554879601756,9.097966,-3.0747535,1.335366,0.014913702,-0.020240024,-0.026631612000000002,-25.86,-7.74,-51.12
1554879601776,9.150639,-3.1896752999999998,1.584363,0.002130529,-0.017044231,-0.023435817999999997,-25.74,-7.5,-51.12
1554879601796,9.088389,-3.0986955000000003,1.4311341,-0.0063915867,-0.020240024,-0.025566347000000003,-25.62,-7.38,-51.12
1554879601816,9.102755,-3.0556,1.4407108999999998,0.0010652645,-0.020240024,-0.022370555,-25.62,-7.26,-51.12
1554879601836,9.107543,-3.0172927000000005,1.4790181,0.0010652645,-0.013848438000000001,-0.020240024,-25.56,-7.2,-51.12
1554879601856,9.23683,-3.0986955000000003,1.5747862,0.018109497,-0.018109497,-0.017044231,-25.5,-7.14,-51.12
1554879601877,9.179369,-3.031658,1.4598645000000001,0.03195793,-0.025566347000000003,-0.027696876000000002,-25.56,-7.14,-51.12
1554879601896,9.160214999999999,-2.9981391,1.5508442,0.05006743,-0.040480047000000005,-0.03834952,-25.56,-7.26,-51.12
1554879601916,9.160214999999999,-2.9885623,1.3640964,0.04261058,-0.041545313,-0.049002163,-25.62,-7.38,-51.18
1554879601936,9.121908,-3.0603882999999996,1.335366,0.002130529,-0.047936900000000005,-0.06604639400000001,-25.68,-7.5,-51.18
1554879601956,9.198523,-3.0508115,1.4024036,-0.060720075,-0.03195793,-0.068176925,-25.74,-7.62,-51.18
1554879601976,9.184157,-3.1800982999999996,1.5604209999999998,-0.06711166,-0.029827405,-0.07350325,-25.8,-7.74,-51.18
1554879601997,9.141062,-3.1609447,1.4742297,-0.036218993,-0.027696876000000002,-0.07669904,-25.86,-7.8,-51.24
1554879602016,9.155427,-3.3045970000000002,1.6418238,0.0063915867,-0.029827405,-0.07882957,-25.92,-7.86,-51.24
1554879602036,9.078813,-3.1896752999999998,1.6561891,0.046871635999999994,-0.034088463,-0.07563378,-25.98,-7.92,-51.24
1554879602056,9.045294,-3.256713,1.6274586000000002,0.09161274,-0.035153727999999995,-0.058589544,-26.04,-8.04,-51.3
1554879602076,9.088389,-3.3141737,1.4598645000000001,0.12996227,-0.036218993,-0.04261058,-26.1,-8.22,-51.3
1554879602096,9.040505,-3.2279825,1.407192,0.165116,-0.04474111,-0.034088463,-26.16,-8.46,-51.36
1554879602117,9.126697,-3.2184057,1.5604209999999998,0.19920446,-0.054328485999999995,-0.02130529,-26.22,-8.7,-51.36
1554879602136,9.141062,-3.141791,1.407192,0.2428803,-0.05965481,-0.013848438000000001,-26.34,-9.0,-51.42
1554879602156,9.141062,-3.031658,1.335366,0.26844665,-0.060720075,-0.00958738,-26.4,-9.3,-51.42
1554879602176,9.26556,-2.8975825,1.2443863000000002,0.25566345,-0.05965481,-0.0010652645,-26.46,-9.54,-51.48
1554879602197,9.275136999999999,-3.0125043,1.3018471999999999,0.21731395,-0.05752428,-0.0031957934000000003,-26.58,-9.72,-51.48
1554879602216,9.14585,-2.9933507,1.3736732,0.18002969,-0.047936900000000005,-0.00958738,-26.64,-9.78,-51.54
1554879602236,9.26556,-2.9071592999999996,1.335366,0.13954964,-0.037284255,-0.017044231,-26.64,-9.6,-51.54
1554879602256,9.227253,-2.8832173,1.3640964,0.10972224,-0.02876214,-0.022370555,-26.64,-9.54,-51.48
1554879602276,9.26556,-2.9741971,1.3640964,0.10013486,-0.025566347000000003,-0.01917476,-26.58,-9.42,-51.54
1554879602296,9.193734,-2.9502552000000004,1.4167688999999999,0.10226539,-0.01917476,-0.024501082,-26.52,-9.3,-51.54
1554879602316,9.212888000000001,-2.8496985,1.4790181,0.098004326,-0.022370555,-0.01917476,-26.46,-9.3,-51.54
1554879602336,9.303867,-2.8927941,1.4215573000000001,0.07776430000000001,-0.018109497,-0.018109497,-26.4,-9.24,-51.54
1554879602356,9.356541,-2.8975825,1.3880384,0.036218993,-0.011717908999999999,-0.03089267,-26.34,-9.24,-51.54
1554879602376,9.299078999999999,-2.8880057,1.3640964,-0.013848438000000001,0.004261058,-0.040480047000000005,-26.22,-9.3,-51.6
1554879602396,9.241617999999999,-2.9071592999999996,1.5364790000000002,-0.041545313,0.020240024,-0.04261058,-26.16,-9.42,-51.6
1554879602417,9.150639,-2.9789855,1.5316905,-0.06498113,0.025566347000000003,-0.04261058,-26.16,-9.42,-51.66
1554879602436,9.208099,-2.9981391,1.4742297,-0.07776430000000001,0.025566347000000003,-0.037284255,-26.16,-9.36,-51.66
1554879602456,9.222465,-3.0364463,1.4167688999999999,-0.06498113,0.026631612000000002,-0.034088463,-26.16,-9.24,-51.66
1554879602476,9.188946000000001,-3.0747535,1.5556326,-0.026631612000000002,0.02876214,-0.037284255,-26.16,-9.12,-51.66
1554879602497,9.208099,-2.8832173,1.5125369,0.01917476,0.022370555,-0.039414786,-26.1,-8.94,-51.72
1554879602516,9.112331,-2.9741971,1.4359225,0.024501082,0.013848438000000001,-0.041545313,-25.98,-8.76,-51.72
1554879602536,9.169792,-3.0268695,1.5795746000000002,0.013848438000000001,0.0010652645,-0.046871635999999994,-25.92,-8.58,-51.72
1554879602557,9.136273,-3.0268695,1.4694413,0.017044231,-0.0010652645,-0.047936900000000005,-25.86,-8.46,-51.72
1554879602576,9.11712,-3.0364463,1.5939398,0.022370555,0.0031957934000000003,-0.047936900000000005,-25.8,-8.34,-51.66
1554879602597,9.040505,-2.9837740000000004,1.4694413,0.024501082,0.004261058,-0.046871635999999994,-25.8,-8.22,-51.66
1554879602616,9.155427,-3.0125043,1.4790181,0.015978966,-0.002130529,-0.040480047000000005,-25.74,-8.16,-51.66
1554879602636,9.188946000000001,-3.0508115,1.5077485000000002,0.015978966,0.0053263223,-0.036218993,-25.68,-8.16,-51.66
1554879602656,9.141062,-3.0029275,1.5125369,0.02130529,0.008522116,-0.037284255,-25.74,-8.16,-51.66
1554879602677,9.040505,-3.0172927000000005,1.5891514,0.034088463,0.008522116,-0.039414786,-25.8,-8.16,-51.66
1554879602696,9.131485000000001,-2.9406781000000004,1.5891514,0.027696876000000002,0.004261058,-0.041545313,-25.8,-8.16,-51.66
1554879602716,9.102755,-3.0508115,1.6274586000000002,0.027696876000000002,0.0063915867,-0.047936900000000005,-25.86,-8.16,-51.66
1554879602737,9.160214999999999,-3.0843303,1.5891514,0.043675844000000005,0.004261058,-0.03834952,-25.86,-8.16,-51.66
1554879602757,9.126697,-3.0651767000000003,1.7328035,0.07243799,-0.0010652645,-0.034088463,-25.86,-8.22,-51.6
1554879602777,9.188946000000001,-3.1226375,1.8956091,0.10865697,0.008522116,-0.01917476,-25.86,-8.22,-51.6
1554879602797,9.251195,-3.2279825,1.7088615000000003,0.14913702,0.011717908999999999,-0.007456851,-25.86,-8.22,-51.6
1554879602817,9.26556,-3.2136172999999997,1.9674352,0.21837921,0.025566347000000003,0.008522116,-25.86,-8.28,-51.54
1554879602836,9.279925,-3.4338839999999995,2.0775685,0.29614353,0.05539375,0.040480047000000005,-25.86,-8.28,-51.48
1554879602856,9.255983,-3.4147300000000005,2.0536265,0.350472,0.12463594,0.11930962,-25.86,-8.34,-51.48
1554879602877,9.14585,-3.4338839999999995,2.1637597,0.35260254,0.18642128,0.20879184,-25.86,-8.34,-51.48
1554879602897,9.112331,-3.4530375,2.1924900000000003,0.27377295,0.21624869,0.28442562,-25.8,-8.46,-51.42
1554879602916,8.90643,-3.5248635000000004,2.2643162999999995,0.17044231,0.22583607,0.34088463,-25.74,-8.58,-51.48
1554879602936,8.978256,-3.7116113,2.2451627,0.09267801,0.24927188,0.41119209999999995,-25.62,-8.76,-51.48
1554879602958,9.059659,-3.8313212,2.345719,0.068176925,0.29294774,0.4878911,-25.56,-8.94,-51.54
1554879602976,8.901641999999999,-3.9175123999999997,2.3936029999999997,0.05752428,0.3323625,0.5273059,-25.5,-9.06,-51.6
1554879602997,8.8777,-3.9031472000000003,2.1972785,0.03834952,0.35792887,0.54648066,-25.38,-9.24,-51.66
1554879603017,8.690952000000001,-4.013280399999999,2.2786815,0.058589544,0.36645097,0.54648066,-25.2,-9.42,-51.78
1554879603036,8.628703,-3.9893386,2.6042929,0.12676647,0.35473305,0.5475459,-25.02,-9.36,-51.9
1554879603057,8.7053175,-4.156933,2.6138697,0.20879184,0.34301516,0.535828,-24.96,-9.24,-51.96
1554879603076,8.695741,-4.233547,2.594716,0.33875409999999995,0.330232,0.5219796,-24.84,-8.94,-52.02
1554879603097,8.643068,-4.0755300000000005,2.6138697,0.45486793,0.30466563,0.50813115,-24.6,-8.4,-52.14
1554879603116,8.619126,-4.214393599999999,2.4271219,0.5049353,0.294013,0.51665324,-24.54,-8.22,-52.2
1554879603137,8.499416,-4.3388919999999995,2.5995044999999997,0.51026165,0.27057716,0.55606806,-24.24,-7.8,-52.26
1554879603157,8.532935,-4.4538136,2.8101943,0.5049353,0.26418558,0.5965481,-24.12,-7.56,-52.32
1554879603177,8.532935,-4.6022544000000005,3.0639796,0.53795856,0.28229508,0.66579026,-24.0,-7.38,-52.38
1554879603196,8.571242,-4.836886,3.0735563999999997,0.60293967,0.30999196,0.72437984,-23.88,-7.26,-52.38
1554879603216,8.494628,-4.8895583,3.0496144,0.67218184,0.33555830000000003,0.7584683000000001,-23.88,-7.32,-52.38
1554879603236,8.355764,-5.1146135,3.2028434,0.7850999,0.36751625,0.8223841999999999,-23.58,-7.44,-52.38
1554879603256,8.236053,-5.1146135,3.5284547999999996,0.86179894,0.38136467,0.84688526,-23.34,-7.56,-52.38
1554879603277,8.034941,-5.310938,3.6194344,0.9289106,0.40586576,0.8863,-23.1,-7.8,-52.38
1554879603297,7.996633500000001,-5.3636102999999995,3.6768951000000003,0.9672601000000001,0.4282363,0.94275904,-22.86,-8.1,-52.38
1554879603317,7.876923599999999,-5.325303,4.1078515,1.0162623,0.45912898,0.99495703,-22.62,-8.4,-52.44
1554879603336,7.8577699999999995,-5.5503583,4.1413703,1.0439591000000001,0.49002165,1.0450244,-22.44,-8.7,-52.56
1554879603356,7.728483,-5.607819,4.3807906999999995,1.0908308,0.51452273,1.0812434,-22.14,-9.06,-52.62
1554879603376,7.565677,-5.631761,4.5914803,1.1856394,0.54435015,1.0929613,-21.84,-9.42,-52.8
1554879603397,7.398083,-5.507262,4.490924,1.2751216,0.567786,1.1014834999999998,-21.42,-9.84,-52.98
1554879603416,7.225700999999999,-5.33488,4.8165355000000005,1.3283848,0.5901565,1.0961571,-21.18,-10.38,-53.16
1554879603437,7.015011,-5.0523643,4.7159786,1.3475596,0.6263755,1.0769824,-20.88,-10.98,-53.34
1554879603456,6.8426285,-5.0667295,4.9745526,1.3731258999999998,0.64555025,1.0535465,-20.58,-11.46,-53.52
1554879603476,6.5505357,-4.918288700000001,4.9984946,1.4008228,0.6562029,1.0141318000000001,-20.28,-12.06,-53.7
1554879603497,6.4068837,-4.635773,5.0463786,1.3422332000000001,0.6498113,0.98750013,-19.98,-12.78,-53.82
1554879603516,6.1483099999999995,-4.4921207,5.2474914,1.2144015,0.64555025,0.9555421999999999,-19.74,-13.5,-53.94
1554879603537,6.0860605,-4.3388919999999995,5.3145294000000005,1.0823087,0.6221144000000001,0.9225190000000001,-19.62,-14.4,-54.06
1554879603556,5.7843914000000005,-4.1665095999999995,5.137358,0.95128113,0.59761333,0.87990844,-19.5,-15.24,-54.18
1554879603576,5.57849,-3.9797617999999995,5.295376,0.8117314999999999,0.5656554,0.8298409999999999,-19.38,-15.96,-54.24
1554879603597,5.4779334,-4.0276456,5.506065400000001,0.67005134,0.5209143,0.7840345999999999,-19.14,-16.56,-54.36
1554879603617,5.511451999999999,-4.123414,5.7933699999999995,0.5539375,0.47723848,0.74248934,-18.9,-17.16,-54.48
1554879603637,5.2863975,-4.267066000000001,6.0663085,0.5187838,0.44421527,0.6764429,-18.66,-17.76,-54.54
1554879603657,5.1810527,-4.291008000000001,6.1381345000000005,0.54648066,0.386691,0.6125271,-18.42,-18.3,-54.66
1554879603677,5.104438,-4.305373,6.238691,0.6018744,0.32810146,0.5454154,-18.24,-18.78,-54.66
1554879603696,5.0996494000000006,-4.348469000000001,6.4302273,0.6178534000000001,0.27483824,0.49641323,-18.0,-19.02,-54.66
1554879603717,4.9943047,-4.3101616,6.4350157,0.56245965,0.25353295,0.4825648,-17.82,-19.32,-54.72
1554879603736,4.912902,-4.3580456,6.774992500000001,0.5091964,0.25033715,0.46552056,-17.7,-19.62,-54.66
1554879603757,4.8506527,-4.425083,6.870760400000001,0.44634579999999996,0.24074976,0.44101948,-17.64,-19.98,-54.66
1554879603777,4.817133999999999,-4.5687356,7.239467599999999,0.39521313,0.25566345,0.43036684,-17.64,-20.4,-54.66
1554879603796,4.663905000000001,-4.6501384,7.402272999999999,0.30999196,0.31105720000000003,0.44208476,-17.58,-20.82,-54.66
1554879603817,4.4196963,-4.64535,7.7997108,0.20559604,0.38562572,0.48469532,-17.52,-21.42,-54.66
