TimeStamp,Ax,Ay,Az,Gx,Gy,Gz,Mx,My,Mz
1554880178676,-7.225700999999999,-4.252701,3.0017304,0.07776430000000001,-0.056459017,0.4825648,2.04,23.4,-45.0
1554880178695,-7.359775999999999,-4.123414,3.0400376000000002,0.07137272,-0.04474111,0.43036684,2.1,23.1,-45.0
1554880178716,-7.3645644,-4.19524,2.9682117000000003,0.010652645,-0.036218993,0.37603834,2.16,22.86,-45.06
1554880178736,-7.417236999999999,-4.267066000000001,3.2603042,-0.051132694000000006,-0.035153727999999995,0.32277513,2.22,22.62,-45.06
1554880178755,-7.4603324,-4.200028400000001,3.2698810000000003,-0.06924219,-0.033023197000000004,0.28868666,2.28,22.44,-45.06
1554880178775,-7.565677,-4.2862196,3.2698810000000003,-0.037284255,-0.051132694000000006,0.26205507,2.28,22.26,-45.06
1554880178796,-7.61835,-4.0707417,3.245939,0.004261058,-0.035153727999999995,0.25246766,2.34,22.02,-45.06
1554880178816,-7.5608889999999995,-4.0276456,3.5859156000000003,0.010652645,-0.015978966,0.23648871,2.34,21.78,-45.12
1554880178836,-7.704541000000001,-3.9558197999999996,3.413533,0.020240024,-0.020240024,0.2066613,2.34,21.6,-45.18
1554880178856,-7.513005000000001,-4.0372224,3.2986114,0.0010652645,-0.02130529,0.1587244,2.34,21.36,-45.24
1554880178876,-7.7907324000000004,-3.74513,3.413533,0.018109497,0.015978966,0.07989483,2.34,21.18,-45.3
1554880178895,-7.5273699999999995,-3.7738605000000005,3.317765,0.020240024,0.026631612000000002,0.05219796,2.28,21.0,-45.36
1554880178915,-7.9391727,-4.214393599999999,2.8580782000000005,-0.017044231,0.022370555,0.022370555,2.28,20.76,-45.48
1554880178936,-7.953538000000001,-4.386776,3.2890346,-0.026631612000000002,0.026631612000000002,-0.002130529,2.28,20.58,-45.54
1554880178956,-8.121132000000001,-4.348469000000001,3.3369186,-0.058589544,0.03195793,-0.015978966,2.28,20.58,-45.54
1554880178976,-8.173803999999999,-4.6022544000000005,3.6721067,-0.03089267,0.018109497,-0.0031957934000000003,2.28,20.52,-45.6
1554880178996,-8.231264999999999,-4.472967,3.518878,0.08841695,0.027696876000000002,0.027696876000000002,2.34,20.52,-45.6
1554880179015,-8.1881695,-4.3819875999999995,3.6337996,0.1768339,0.024501082,0.060720075,2.34,20.46,-45.6
1554880179036,-8.173803999999999,-4.362833999999999,3.2650926,0.16192019,0.02876214,0.080960095,2.4,20.46,-45.66
1554880179056,-8.212111,-4.401141,3.518878,0.17789917,0.07350325,0.10226539,2.4,20.4,-45.66
1554880179076,-8.212111,-4.2862196,3.6290112,0.257794,0.08948222,0.12144015,2.28,20.4,-45.66
1554880179096,-8.106767,-4.200028400000001,3.5045127999999997,0.3270362,0.07776430000000001,0.11611383,2.22,20.4,-45.66
1554880179116,-7.996633500000001,-4.123414,3.447052,0.37816888,0.07243799,0.10972224,2.16,20.34,-45.66
1554880179136,-8.006210000000001,-3.8121676,3.341707,0.36645097,0.07776430000000001,0.10546118,2.04,20.22,-45.72
1554880179156,-7.9583262999999995,-3.9893386,3.4087446000000003,0.36751625,0.11717909,0.12250541,1.92,20.1,-45.72
1554880179175,-8.054094000000001,-3.9893386,3.7199910000000003,0.44315,0.11717909,0.101200126,1.86,19.8,-45.78
1554880179196,-7.97748,-3.5775358999999995,3.3225534,0.5518069999999999,0.101200126,0.08628642,1.86,19.5,-45.84
1554880179216,-8.09719,-3.6541502,3.4183214,0.57417756,0.112918034,0.07669904,1.86,19.08,-45.9
1554880179235,-8.135497,-3.6254199000000003,3.4039562000000005,0.51452273,0.098004326,0.068176925,1.98,18.72,-45.96
1554880179255,-8.212111,-3.4674027,3.413533,0.39840892,0.07669904,0.040480047000000005,2.16,18.36,-46.02
1554880179276,-8.255207,-3.5583823,3.2267854,0.30146983,0.07563378,0.014913702,2.34,17.52,-46.14
1554880179296,-8.384495,-3.520075,3.470994,0.26631612,0.043675844000000005,0.007456851,2.52,16.92,-46.2
1554880179315,-8.169016000000001,-3.74513,2.867655,0.25246766,-0.004261058,0.007456851,2.58,16.62,-46.26
1554880179336,-7.776367,-4.1186256000000006,4.0695443,0.34408042,0.06498113,-0.004261058,2.76,15.9,-46.26
1554880179356,-8.240842,-2.0069396,3.2172085999999998,0.63915867,0.039414786,-0.08841695,2.88,15.42,-46.32
1554880179375,-8.303091,-3.4386723,3.2124202,0.23968449999999997,0.020240024,-0.023435817999999997,2.94,15.0,-46.32
1554880179395,-8.317456,-3.7211879999999997,3.3512837999999996,0.13954964,0.0053263223,-0.025566347000000003,3.0,14.58,-46.38
1554880179416,-8.307879,-3.5727474999999997,3.6864722000000003,0.15978967,0.04474111,-0.054328485999999995,3.06,14.16,-46.38
1554880179436,-8.293514,-3.5057099999999997,3.8588544999999996,0.34621096,0.082025364,-0.056459017,3.18,13.92,-46.38
1554880179456,-8.178593,-3.2710779999999997,3.7343562000000006,0.43036684,0.06711166,-0.07137272,3.24,13.68,-46.38
1554880179475,-8.197746,-3.256713,3.5140896,0.46019423,0.05219796,-0.10652645,3.3,13.44,-46.38
1554880179495,-8.087613000000001,-2.9311013,3.3512837999999996,0.41971418,0.05965481,-0.15020229,3.3,13.2,-46.44
1554880179515,-7.991845,-3.031658,3.1597476,0.36005938,0.09054748,-0.19281286,3.36,12.9,-46.44
1554880179536,-8.082825,-3.0843303,3.116652,0.27803403,0.13848437,-0.23968449999999997,3.42,12.48,-46.44
1554880179555,-8.020576,-3.0603882999999996,3.3081882000000005,0.18535602,0.18748654,-0.2790993,3.48,12.0,-46.44
1554880179576,-7.967903,-2.9215245,3.2172085999999998,0.10972224,0.20240025,-0.30146983,3.54,11.46,-46.44
1554880179595,-8.207322999999999,-3.1753099999999996,3.2650926,-0.026631612000000002,0.22690132,-0.32277513,3.6,11.04,-46.44
1554880179616,-8.360553,-3.2950199999999996,3.2794578000000003,-0.16192019,0.25566345,-0.33768883,3.72,10.62,-46.44
1554880179635,-8.384495,-3.4338839999999995,3.2172085999999998,-0.20453078,0.2609898,-0.33129725,3.84,10.32,-46.38
1554880179655,-8.283937,-3.7499184999999997,3.0879216,-0.20240025,0.2695119,-0.28975195,3.96,10.14,-46.38
1554880179676,-8.528147,-3.8600516000000002,3.2986114,-0.15339808,0.23542345,-0.23755397,4.08,10.14,-46.38
1554880179695,-8.556877,-3.9079356,2.9107506,-0.068176925,0.20985709,-0.17150758,4.26,10.26,-46.32
1554880179718,-8.552089,-3.86484,2.8963853999999998,-0.02876214,0.20879184,-0.12250541,4.38,10.5,-46.26
1554880179735,-8.504205,-3.6302083,3.2698810000000003,0.008522116,0.16192019,-0.09054748,4.5,10.74,-46.14
1554880179756,-8.298303,-3.4051532999999994,3.2267854,0.082025364,0.11611383,-0.07563378,4.62,10.98,-46.08
1554880179775,-8.073248,-3.2998084999999997,2.9825767999999995,0.13315806,0.07137272,-0.099069595,4.68,11.22,-45.96
1554880179796,-8.231264999999999,-3.342904,3.0113072,0.15446335,0.05006743,-0.13528858,4.86,11.46,-45.9
1554880179816,-8.274361,-3.232771,2.7670987,0.10865697,0.06178534,-0.17363810000000002,4.98,11.58,-45.78
1554880179836,-8.221688,-3.4147300000000005,2.9299042,0.014913702,0.08841695,-0.19920446,5.1,11.7,-45.72
1554880179856,-8.082825,-3.6206315000000004,2.8772318,-0.024501082,0.08948222,-0.221575,5.22,11.76,-45.66
1554880179876,-7.843405000000001,-3.5057099999999997,3.0352492,-0.014913702,0.082025364,-0.25566345,5.34,11.88,-45.66
1554880179896,-7.666233999999999,-3.4290953,3.0160956000000003,0.03195793,0.07989483,-0.29827404,5.46,12.0,-45.6
1554880179916,-7.5944076,-3.5679589999999997,2.9634232999999996,0.06178534,0.07456851,-0.34301516,5.64,12.06,-45.54
1554880179936,-7.666233999999999,-3.5871127,3.0017304,0.06285059999999999,0.060720075,-0.406931,5.76,12.18,-45.48
1554880179956,-7.3645644,-3.697246,2.9682117000000003,0.046871635999999994,0.07882957,-0.47404268,5.76,12.24,-45.36
1554880179976,-7.129933,-3.4147300000000005,2.9969419999999998,0.036218993,0.09054748,-0.55287224,5.82,12.36,-45.24
1554880179996,-6.71813,-3.4386723,2.8389246,0.049002163,0.113983296,-0.66152924,5.82,12.54,-45.18
1554880180016,-6.603208,-3.2758665000000002,2.7910407000000004,0.084155895,0.12570119999999999,-0.7914915,5.88,12.66,-45.12
1554880180036,-6.1578870000000006,-3.3141737,2.594716,0.14594123,0.14061491,-0.9491506,5.88,12.78,-45.0
1554880180055,-6.0381765,-3.5057099999999997,2.4558525,0.15126756,0.12250541,-1.139833,5.94,12.96,-44.94
1554880180076,-5.861006,-3.5775358999999995,2.2643162999999995,0.09161274,0.10865697,-1.3539511,5.94,13.2,-44.94
1554880180096,-5.707777,-3.5966894999999997,2.082357,-0.013848438000000001,0.12783173,-1.5520903,6.0,13.56,-44.94
1554880180115,-5.4539914000000005,-4.1425676,1.7711107,-0.17150758,0.16085494,-1.7544906000000002,6.06,14.16,-44.88
1554880180135,-5.449203,-4.8320975,1.9961656000000003,-0.33768883,0.16937704,-1.9398465,6.12,14.82,-44.76
1554880180156,-5.5018754,-5.607819,1.6753427,-0.49428272,0.17363810000000002,-2.1241374,6.3,16.08,-44.4
1554880180176,-5.295974299999999,-6.321291,1.7615339,-0.6583334,0.18855181,-2.2370553,6.36,16.98,-44.1
1554880180196,-5.21936,-6.891111,1.5221136999999998,-0.7946873000000001,0.22796659,-2.3094932999999997,6.42,17.52,-43.92
1554880180216,-5.104438,-7.389105000000001,1.6178818000000001,-0.8404937,0.27696875,-2.3531692000000004,6.66,19.32,-43.38
1554880180235,-5.027823400000001,-8.121731,1.7902644,-0.8064051999999999,0.28442562,-2.3563650000000003,6.72,20.7,-43.08
1554880180256,-4.9943047,-8.495225999999999,1.7663223000000001,-0.67218184,0.28442562,-2.347843,6.84,22.26,-42.72
1554880180276,-4.8841715,-8.57184,1.4215573000000001,-0.59122175,0.2876214,-2.3116237999999996,6.84,23.94,-42.42
1554880180297,-4.6782703,-8.930971000000001,1.6897078999999997,-0.5400891,0.2972088,-2.2295985000000003,6.78,25.74,-42.12
1554880180316,-4.5154643,-9.577405,1.4167688999999999,-0.5294364,0.294013,-2.1720743,6.72,27.54,-41.76
1554880180336,-4.405330999999999,-9.156025999999999,1.4646529,-0.5518069999999999,0.3174488,-2.0943098,6.54,29.64,-41.28
1554880180355,-4.1132383,-8.480861,1.3784616000000003,-0.5635249,0.32597092,-2.0325246,6.42,31.68,-40.8
1554880180376,-3.7253778,-8.839992,1.4646529,-0.6593986999999999,0.3536678,-1.965413,6.18,33.6,-40.32
1554880180395,-3.2130187,-9.7641535,1.2060791000000002,-0.69987875,0.35579833,-1.9185413,5.94,35.46,-39.78
1554880180415,-2.906561,-10.10413,1.2826935,-0.6593986999999999,0.39201729999999996,-1.8887137999999999,5.7,37.14,-39.24
1554880180435,-2.5953147,-10.630854,1.1294646000000002,-0.5656554,0.41864893,-1.8216022,5.52,38.76,-38.7
1554880180456,-2.432509,-10.037092,0.9139864999999999,-0.43356264,0.43249738,-1.73212,5.28,40.5,-38.1
1554880180475,-2.1404164,-10.391434,0.7224503999999999,-0.41438788,0.43249738,-1.6330504,5.04,42.06,-37.62
1554880180496,-1.7094599999999998,-10.721834,0.741604,-0.44847634,0.38349520000000004,-1.5435683,4.68,43.38,-37.2
1554880180515,-1.3455413999999999,-11.176732000000001,0.55964464,-0.39734364,0.34727620000000003,-1.4519554,4.2,44.64,-36.78
1554880180535,-1.2354081000000001,-10.927735,0.54049104,-0.36112466,0.3057309,-1.3837786,3.66,45.96,-36.42
1554880180556,-0.92895025,-10.58297,0.52133745,-0.25566345,0.24607609,-1.2538162,3.12,47.28,-35.94
1554880180576,-0.9576806999999999,-10.051457000000001,0.6745663000000001,-0.19387813,0.20559604,-1.176052,2.58,48.54,-35.4
1554880180596,-0.58418524,-10.123283,0.40162733,-0.10972224,0.13315806,-1.1504856,2.04,49.56,-34.92
1554880180615,-0.39743748,-9.86471,0.41599256,-0.010652645,0.10546118,-1.1515508999999997,1.5,50.28,-34.5
1554880180636,-0.009576807,-9.701903999999999,0.43035775,0.024501082,0.04474111,-1.1611383,1.02,51.0,-34.2
1554880180656,-0.009576807,-8.672397,0.29628247,0.07669904,0.0,-1.2069446000000001,0.66,51.66,-33.9
1554880180676,0.17238252,-7.944559599999999,0.3824737,0.10439592,-0.03089267,-1.2474246999999998,0.36,52.26,-33.72
1554880180696,0.5410896,-7.6285253,0.66020113,0.15020229,-0.07137272,-1.3390374,0.06,52.8,-33.48
1554880180716,1.4317327,-8.595782,0.6697779,0.15126756,-0.11504856,-1.4753913,-0.36,53.1,-33.36
1554880180735,2.054225,-8.610147,0.56443304,0.26418558,-0.12996227,-1.6437031000000002,-0.72,53.4,-33.36
1554880180755,2.2840683,-7.891887,0.7224503999999999,0.38136467,-0.1107875,-1.7832526999999998,-1.26,53.58,-33.42
1554880180775,2.7629087,-7.7386584,0.9091981,0.57098174,-0.082025364,-1.8599516999999999,-1.8,53.88,-33.54
1554880180797,3.0550013,-7.5758529999999995,1.0911574,0.6860303000000001,-0.08628642,-1.9281287,-2.4,54.06,-33.66
1554880180816,3.371036,-7.173627000000001,1.4598645000000001,0.716923,-0.11930962,-2.0751352,-3.12,54.24,-33.9
1554880180835,4.2999864,-7.1305312999999995,1.0528502,0.7307714,-0.15765914,-2.2828617,-3.9,54.36,-34.08
1554880180855,5.568912999999999,-8.025963,0.7080852,0.67324716,-0.17044231,-2.5033715,-4.68,54.3,-34.32
1554880180876,6.612785000000001,-8.859145,0.65541273,0.5933523,-0.128897,-2.6482474999999996,-5.46,54.12,-34.62
1554880180896,6.9383965,-8.341997000000001,1.4407108999999998,0.608266,-0.05752428,-2.6450517000000002,-6.84,53.58,-35.22
1554880180916,7.0102224,-8.069058,1.7375918999999997,0.6380934,-0.024501082,-2.5672874,-7.32,53.34,-35.46
1554880180936,7.168239999999999,-7.5183919999999995,1.6801311,0.5997439,-0.023435817999999997,-2.5470474,-8.46,52.68,-35.88
1554880180955,7.852981599999999,-7.0730705,1.3162124,0.5518069999999999,-0.06285059999999999,-2.6205506,-10.32,51.36,-36.48
1554880180975,8.475474,-6.881533999999999,1.2204443,0.45593318,-0.07669904,-2.7036412,-11.52,50.34,-36.9
1554880180995,9.107543,-7.154473299999999,1.2970588,0.40586576,-0.07882957,-2.7398603,-12.12,49.8,-37.08
1554880181015,9.41879,-6.977302000000001,1.6944963,0.29614353,-0.047936900000000005,-2.7590348999999996,-13.32,48.72,-37.62
1554880181036,9.562441999999999,-6.7187285,1.8620903000000002,0.25033715,-0.007456851,-2.6855316000000005,-14.88,47.16,-38.58
1554880181056,9.921572,-6.6469026,2.1733365,0.20559604,-0.0053263223,-2.5885925,-15.78,45.96,-39.06
1554880181076,10.0748005,-6.656479400000001,1.929128,0.20240025,-0.025566347000000003,-2.4873924,-16.5,44.76,-39.42
1554880181096,10.189722,-6.330868,1.929128,0.23861924,-0.02876214,-2.3915186,-17.34,43.56,-39.84
1554880181116,10.333375,-6.14412,1.8381484000000001,0.29188246,-0.020240024,-2.251969,-18.12,42.54,-40.2
1554880181136,10.1226845,-6.0770826,2.1110873,0.2972088,-0.015978966,-2.058091,-18.84,41.4,-40.68
1554880181156,9.92636,-5.899911400000001,2.3600842999999996,0.2876214,-0.029827405,-1.8226674999999999,-19.5,40.08,-41.16
1554880181176,9.801862,-5.4258595000000005,1.9099745,0.25140239999999997,-0.029827405,-1.5350461000000002,-20.22,38.7,-41.52
1554880181196,9.586383999999999,-5.061941,1.7663223000000001,0.16085494,-0.004261058,-1.2314457,-20.94,37.38,-41.82
1554880181215,9.26556,-4.9757495,1.6226702,-0.01917476,0.014913702,-0.9171927,-21.66,36.3,-42.12
1554880181235,9.093178,-4.918288700000001,1.7711107,-0.24820662,0.012783173500000002,-0.6530071,-22.26,35.28,-42.48
1554880181256,8.892064999999999,-4.923076999999999,1.9387047999999998,-0.4314321,-0.015978966,-0.43675843,-22.62,34.38,-42.78
1554880181276,8.762777999999999,-4.9278655,1.929128,-0.5230448000000001,-0.05752428,-0.27377295,-22.86,33.6,-43.08
1554880181296,8.75799,-4.9278655,2.1254525,-0.49215218,-0.09374327,-0.14807177,-23.04,33.0,-43.26
1554880181316,8.595184,-4.836886,1.9434932,-0.35579833,-0.096939065,-0.04474111,-23.22,32.64,-43.32
1554880181336,8.566454,-4.7267528,1.8860323,-0.19281286,-0.07350325,0.027696876000000002,-23.34,32.52,-43.38
1554880181355,8.432379,-4.6932339999999995,1.9865887999999998,-0.060720075,-0.049002163,0.06711166,-23.52,32.4,-43.38
1554880181376,8.676587,-4.420294999999999,1.8429368000000002,0.023435817999999997,-0.041545313,0.08735169,-23.76,32.34,-43.32
1554880181396,8.75799,-4.2383356,1.5173253,0.034088463,-0.037284255,0.10972224,-24.0,32.34,-43.26
1554880181415,8.604761,-4.094683600000001,1.5077485000000002,0.00958738,-0.029827405,0.14274544,-24.24,32.34,-43.2
1554880181435,8.7053175,-3.9893386,1.7040731,-0.02876214,-0.02130529,0.18216023,-24.42,32.4,-43.14
1554880181456,8.801085,-4.0276456,1.6753427,-0.054328485999999995,-0.033023197000000004,0.22903186,-24.6,32.46,-43.08
1554880181475,8.801085,-4.0994720000000004,1.5508442,-0.04261058,-0.05539375,0.27377295,-24.78,32.52,-43.02
1554880181495,8.829816000000001,-4.085107,1.4502877,0.017044231,-0.07989483,0.30360037,-24.84,32.58,-42.96
1554880181515,8.690952000000001,-3.9989154,1.5556326,0.096939065,-0.11611383,0.33449304,-24.9,32.64,-42.96
1554880181536,8.7053175,-3.8696284,1.4407108999999998,0.17896444,-0.15233281,0.3568636,-24.78,32.76,-42.96
1554880181556,8.839393,-3.9414546,1.7567455,0.2727077,-0.19600865,0.36645097,-24.66,32.82,-42.96
1554880181576,8.853758000000001,-3.9414546,1.584363,0.39308259999999995,-0.23542345,0.36112466,-24.54,32.88,-42.96
1554880181596,9.02614,-3.9223008000000004,1.5795746000000002,0.50387007,-0.2609898,0.35260254,-24.42,33.0,-42.96
1554880181615,9.141062,-3.6876693,1.5269021,0.57417756,-0.27803403,0.34408042,-24.36,33.06,-43.02
1554880181635,9.078813,-3.5966894999999997,1.3640964,0.6061354999999999,-0.28122982,0.34514567,-24.3,33.12,-43.02
1554880181656,9.021352,-3.5679589999999997,1.3066356000000001,0.5997439,-0.27483824,0.3568636,-24.3,33.18,-43.02
1554880181677,9.083601,-3.4721910000000005,1.3210008,0.56672066,-0.26738137,0.36218992,-24.24,33.24,-43.08
1554880181695,9.002198,-3.4147300000000005,1.5221136999999998,0.5251754,-0.26312032,0.35899413,-24.18,33.18,-43.08
1554880181716,9.097966,-3.3333273,1.2587515,0.4857606,-0.25672874,0.35473305,-24.18,32.94,-43.14
1554880181736,9.112331,-3.4530375,1.3210008,0.45060685,-0.24714136,0.34408042,-24.18,32.58,-43.2
1554880181756,9.069236,-3.5248635000000004,1.4359225,0.4261058,-0.23222765,0.32277513,-24.18,32.1,-43.26
1554880181776,9.059659,-3.4051532999999994,1.4694413,0.4133226,-0.22050974,0.29507825,-24.24,31.62,-43.32
1554880181795,9.193734,-3.2950199999999996,1.4550761,0.39840892,-0.21092236,0.2609898,-24.3,31.08,-43.38
1554880181816,9.136273,-3.3381157,1.4598645000000001,0.38456047,-0.18748654,0.23542345,-24.42,30.6,-43.44
1554880181844,9.11712,-3.3955764999999998,1.3210008,0.35260254,-0.16618125,0.20879184,-24.54,30.12,-43.5
1554880181855,9.016563,-3.2375592999999996,1.407192,0.2972088,-0.15233281,0.16831179,-24.72,29.64,-43.56
1554880181876,8.983044999999999,-3.2471360000000002,1.3066356000000001,0.26631612,-0.13848437,0.14061491,-24.84,29.4,-43.56
1554880181895,8.935161,-3.2471360000000002,1.407192,0.23861924,-0.12144015,0.111852765,-24.96,29.22,-43.62
1554880181916,8.959103,-3.3189620000000004,1.4359225,0.2066613,-0.10652645,0.07989483,-25.02,28.98,-43.74
1554880181935,8.939949,-3.2710779999999997,1.5173253,0.17257284,-0.09267801,0.043675844000000005,-25.02,28.62,-43.86
1554880181955,8.992621,-3.3381157,1.5029601000000001,0.15233281,-0.083090626,0.008522116,-25.02,28.2,-43.98
1554880181976,8.911219000000001,-3.3045970000000002,1.3305776000000002,0.10972224,-0.06711166,-0.014913702,-24.96,27.78,-44.1
1554880181995,8.925583999999999,-3.2662897,1.4215573000000001,0.047936900000000005,-0.04474111,-0.04474111,-24.96,27.42,-44.22
1554880182015,8.939949,-3.3764230000000004,1.4263457,-0.012783173500000002,-0.018109497,-0.07669904,-24.9,27.06,-44.28
1554880182035,8.872911,-3.5823242999999994,1.4263457,-0.06178534,-0.002130529,-0.11611383,-24.9,26.82,-44.46
1554880182056,8.949525999999999,-3.6206315000000004,1.4694413,-0.07030745599999999,0.0031957934000000003,-0.1438107,-24.84,26.7,-44.52
1554880182076,8.868122999999999,-3.615843,1.5891514,-0.047936900000000005,0.014913702,-0.17789917,-24.9,26.7,-44.58
1554880182095,9.011775,-3.6828809000000002,1.6705543,-0.026631612000000002,0.023435817999999997,-0.2034655,-24.96,26.76,-44.58
1554880182115,9.016563,-3.6589386,1.5077485000000002,-0.013848438000000001,0.026631612000000002,-0.23222765,-25.02,26.94,-44.58
1554880182136,8.8777,-3.816956,1.5412674,-0.011717908999999999,0.025566347000000003,-0.24927188,-25.08,27.06,-44.58
1554880182156,8.925583999999999,-3.7786489000000003,1.5269021,0.0053263223,0.027696876000000002,-0.25672874,-25.14,27.18,-44.64
1554880182176,8.8777,-3.7978023999999997,1.5508442,0.013848438000000001,0.03089267,-0.25566345,-25.14,27.3,-44.64
1554880182196,8.825027,-3.8983587999999996,1.5269021,0.0031957934000000003,0.039414786,-0.2428803,-25.14,27.24,-44.64
1554880182216,8.887277000000001,-3.8361096,1.5029601000000001,-0.002130529,0.040480047000000005,-0.22903186,-25.08,27.18,-44.64
1554880182235,8.901641999999999,-3.9749733999999997,1.3545196000000002,-0.012783173500000002,0.035153727999999995,-0.21731395,-25.08,27.18,-44.64
1554880182256,8.882488,-3.8600516000000002,1.5221136999999998,-0.022370555,0.03089267,-0.21092236,-24.96,27.18,-44.64
1554880182276,8.887277000000001,-3.970185,1.3976152,-0.02130529,0.026631612000000002,-0.2034655,-24.9,27.12,-44.64
1554880182296,8.858546,-3.8600516000000002,1.3976152,-0.014913702,0.023435817999999997,-0.19281286,-24.84,27.06,-44.64
1554880182316,8.863335000000001,-3.86484,1.38325,-0.011717908999999999,0.026631612000000002,-0.17363810000000002,-24.72,27.0,-44.64
1554880182336,8.796297000000001,-3.9270894999999997,1.3976152,-0.0053263223,0.020240024,-0.15339808,-24.72,26.88,-44.64
1554880182356,8.848969,-3.9175123999999997,1.4024036,-0.012783173500000002,0.015978966,-0.13422333,-24.72,26.76,-44.64
1554880182377,8.863335000000001,-3.912724,1.38325,-0.0063915867,0.015978966,-0.11824436,-24.66,26.7,-44.64
1554880182396,8.858546,-3.9414546,1.3449427999999999,-0.0053263223,0.015978966,-0.09267801,-24.66,26.58,-44.64
1554880182416,8.911219000000001,-3.7882257000000004,1.3257892,-0.017044231,0.00958738,-0.06924219,-24.66,26.46,-44.58
1554880182436,8.8777,-3.8361096,1.2539631000000002,-0.036218993,0.014913702,-0.04474111,-24.66,26.4,-44.58
1554880182455,8.892064999999999,-3.8504747999999998,1.38325,-0.054328485999999995,0.022370555,-0.010652645,-24.66,26.34,-44.52
1554880182475,8.872911,-3.7738605000000005,1.2491747,-0.07137272,0.018109497,0.017044231,-24.66,26.28,-44.52
1554880182495,8.738836000000001,-3.6541502,1.3545196000000002,-0.080960095,0.0063915867,0.03195793,-24.72,26.28,-44.46
1554880182516,8.7532015,-3.7020345,1.2443863000000002,-0.09374327,-0.007456851,0.040480047000000005,-24.78,26.28,-44.46
1554880182536,8.844180999999999,-3.6924577000000003,1.38325,-0.09374327,-0.017044231,0.03834952,-24.84,26.28,-44.46
1554880182556,8.959103,-3.6828809000000002,1.3784616000000003,-0.07669904,-0.026631612000000002,0.02876214,-24.9,26.28,-44.46
1554880182576,8.963891,-3.7499184999999997,1.4981716999999999,-0.046871635999999994,-0.03195793,0.010652645,-25.02,26.28,-44.52
1554880182596,8.896853,-3.6733038000000002,1.5412674,-0.015978966,-0.039414786,-0.010652645,-25.08,26.28,-44.52
1554880182615,9.064447,-3.6014779000000003,1.4598645000000001,0.013848438000000001,-0.04261058,-0.018109497,-25.14,26.34,-44.52
1554880182636,9.198523,-3.7499184999999997,1.632247,0.035153727999999995,-0.046871635999999994,-0.013848438000000001,-25.2,26.46,-44.52
1554880182656,9.188946000000001,-3.6014779000000003,1.5652093999999999,0.023435817999999997,-0.040480047000000005,-0.011717908999999999,-25.2,26.52,-44.52
1554880182675,9.246407000000001,-3.6541502,1.4981716999999999,0.007456851,-0.039414786,-0.0031957934000000003,-25.26,26.64,-44.52
1554880182696,9.193734,-3.5248635000000004,1.4598645000000001,-0.014913702,-0.039414786,0.0063915867,-25.26,26.7,-44.46
1554880182715,9.179369,-3.5871127,1.5316905,-0.024501082,-0.036218993,0.018109497,-25.32,26.82,-44.46
1554880182735,9.059659,-3.5440169999999998,1.5316905,-0.022370555,-0.036218993,0.026631612000000002,-25.32,26.88,-44.4
1554880182756,8.916007,-3.4626143,1.4981716999999999,-0.027696876000000002,-0.03834952,0.035153727999999995,-25.32,26.94,-44.4
1554880182776,8.8777,-3.4051532999999994,1.6130934,-0.04474111,-0.040480047000000005,0.035153727999999995,-25.38,26.94,-44.4
1554880182796,8.892064999999999,-3.4147300000000005,1.4885948999999998,-0.060720075,-0.03195793,0.027696876000000002,-25.38,27.0,-44.4
1554880182816,8.848969,-3.4530375,1.5173253,-0.07563378,-0.020240024,0.013848438000000001,-25.38,27.0,-44.4
1554880182836,8.829816000000001,-3.4626143,1.6035166,-0.07350325,0.002130529,-0.011717908999999999,-25.38,27.0,-44.4
1554880182856,8.863335000000001,-3.5488055,1.5077485000000002,-0.05752428,0.014913702,-0.039414786,-25.38,27.06,-44.4
1554880182875,8.829816000000001,-3.6110547,1.5029601000000001,-0.05539375,0.027696876000000002,-0.06178534,-25.38,27.06,-44.34
1554880182896,8.939949,-3.6541502,1.3018471999999999,-0.06604639400000001,0.035153727999999995,-0.08735169,-25.38,27.18,-44.34
1554880182916,8.868122999999999,-3.6828809000000002,1.3976152,-0.05006743,0.03089267,-0.10865697,-25.38,27.3,-44.34
1554880182936,8.858546,-3.6780925000000004,1.5508442,-0.023435817999999997,0.024501082,-0.12250541,-25.38,27.36,-44.34
1554880182955,8.858546,-3.6828809000000002,1.5699978,0.0053263223,0.018109497,-0.13102753,-25.38,27.48,-44.34
1554880182976,8.949525999999999,-3.7834373,1.5508442,0.04580637,0.01917476,-0.12996227,-25.32,27.54,-44.34
1554880182996,9.035717,-3.7594953,1.4742297,0.07137272,0.01917476,-0.12144015,-25.32,27.66,-44.34
1554880183016,9.107543,-3.6685154000000004,1.5029601000000001,0.06711166,0.03195793,-0.10652645,-25.32,27.72,-44.34
1554880183036,9.030928999999999,-3.639785,1.1725603,0.02130529,0.054328485999999995,-0.07563378,-25.32,27.72,-44.34
1554880183055,9.040505,-3.6589386,1.287482,-0.046871635999999994,0.06604639400000001,-0.04580637,-25.32,27.78,-44.4
1554880183075,8.99741,-3.6780925000000004,1.4838065,-0.10226539,0.068176925,-0.02876214,-25.32,27.72,-44.4
1554880183096,9.035717,-3.7499184999999997,1.3880384,-0.13209279,0.068176925,-0.012783173500000002,-25.32,27.72,-44.4
1554880183116,8.949525999999999,-3.8121676,1.4838065,-0.12463594,0.06498113,-0.00958738,-25.32,27.72,-44.4
1554880183136,8.901641999999999,-3.793014,1.3497312,-0.099069595,0.05539375,-0.008522116,-25.32,27.66,-44.4
1554880183156,8.911219000000001,-3.7882257000000004,1.3640964,-0.07030745599999999,0.051132694000000006,-0.0063915867,-25.32,27.66,-44.4
1554880183176,8.892064999999999,-3.7594953,1.407192,-0.06711166,0.043675844000000005,-0.004261058,-25.26,27.66,-44.4
1554880183196,8.930372,-3.7211879999999997,1.3066356000000001,-0.07456851,0.034088463,0.0,-25.2,27.66,-44.34
1554880183216,8.944737,-3.6254199000000003,1.3257892,-0.07243799,0.024501082,0.0,-25.14,27.72,-44.34
1554880183236,8.896853,-3.816956,1.4790181,-0.054328485999999995,0.024501082,0.008522116,-25.08,27.72,-44.34
1554880183256,8.901641999999999,-3.7355532999999994,1.4502877,-0.027696876000000002,0.013848438000000001,0.011717908999999999,-25.02,27.84,-44.34
1554880183275,9.011775,-3.6685154000000004,1.584363,-0.012783173500000002,0.0063915867,0.00958738,-24.96,27.9,-44.34
1554880183296,8.920795,-3.7403417,1.4646529,-0.0031957934000000003,0.0010652645,0.007456851,-24.9,28.02,-44.34
1554880183316,8.90643,-3.6637269999999997,1.4311341,0.004261058,0.0010652645,0.010652645,-24.78,28.14,-44.28
1554880183336,8.796297000000001,-3.7882257000000004,1.7423803,0.018109497,0.007456851,0.015978966,-24.72,28.2,-44.22
1554880183356,8.834603999999999,-3.8839936,1.7375918999999997,0.04580637,0.015978966,0.020240024,-24.6,28.32,-44.16
1554880183376,8.7771435,-3.8600516000000002,1.7280151000000001,0.08948222,0.02130529,0.024501082,-24.54,28.38,-44.1
1554880183397,8.815451,-3.8552632000000004,1.7567455,0.13954964,0.029827405,0.03195793,-24.48,28.5,-43.98
1554880183415,8.834603999999999,-3.8504747999999998,1.5699978,0.15552860000000002,0.03834952,0.04580637,-24.48,28.5,-43.92
1554880183435,8.834603999999999,-3.8456864,1.6753427,0.15446335,0.03834952,0.053263225,-24.48,28.62,-43.86
1554880183456,8.772355000000001,-3.86484,1.7567455,0.101200126,0.043675844000000005,0.080960095,-24.48,28.68,-43.8
1554880183475,9.006986999999999,-3.946243,1.5747862,0.0,0.06285059999999999,0.11611383,-24.48,28.74,-43.8
1554880183495,8.978256,-4.243124,1.5939398,-0.18109496,0.11504856,0.16405073,-24.48,28.8,-43.8
1554880183516,8.925583999999999,-4.597466000000001,1.8620903000000002,-0.44954160000000004,0.17257284,0.2695119,-24.54,28.86,-43.86
1554880183535,8.892064999999999,-4.8081555,1.8956091,-0.69029135,0.19174760000000002,0.37923414,-24.54,28.86,-43.92
1554880183556,8.978256,-5.713164,2.2882583,-1.0641992,0.22903186,0.61572284,-24.54,28.98,-43.98
1554880183576,9.308656,-6.4266357,2.2786815,-1.2048141,0.26844665,0.8447546999999999,-24.48,29.22,-43.98
1554880183596,9.26556,-7.0970125,1.857302,-1.2623383999999997,0.3270362,1.0961571,-24.48,29.88,-43.92
1554880183616,9.337387,-7.781753999999999,1.5077485000000002,-1.3869743,0.38562572,1.4242586000000002,-24.42,30.72,-43.86
1554880183636,9.3182335,-8.576628999999999,1.3497312,-1.4562165,0.4165184,1.7598169,-24.24,31.86,-43.62
1554880183656,9.102755,-8.796896,1.4167688999999999,-1.5361114,0.39308259999999995,2.038916,-24.12,33.3,-43.26
1554880183675,8.930372,-9.371504,1.3976152,-1.5755261,0.3153183,2.292449,-23.76,35.16,-42.66
1554880183695,8.959103,-9.879075,1.2156559,-1.4764565,0.22903186,2.5268072999999998,-23.34,37.26,-42.0
1554880183716,8.695741,-10.161591,0.53570265,-1.3081448,0.16618125,2.7601001,-22.74,39.48,-41.22
1554880183735,8.413225,-10.530297000000001,0.29628247,-1.1526161,0.12996227,3.0253509999999997,-22.02,41.76,-40.26
1554880183756,7.8050976,-10.64043,0.12389994,-1.0823087,0.06498113,3.2330775000000003,-21.18,43.98,-39.24
1554880183775,7.350199000000001,-10.721834,0.061650693,-1.0578076,-0.026631612000000002,3.3449303999999995,-20.1,46.14,-38.1
1554880183796,6.555324000000001,-10.554239,-0.32621,-1.0024139,-0.12250541,3.3768883,-18.84,48.3,-37.14
1554880183816,5.6790465999999995,-10.290877,-0.4890157,-0.95128113,-0.25353295,3.4226947,-17.46,50.46,-36.18
1554880183835,4.7500963,-10.061034,-0.39803603,-0.87138635,-0.31957933,3.4653053,-15.9,52.32,-35.4
1554880183856,4.31914,-10.061034,-0.374094,-0.61678815,-0.39095205,3.5153727999999997,-14.34,53.94,-34.56
1554880183876,3.6727053999999995,-9.529521,-0.38367084,-0.41225734,-0.45912898,3.4812841,-12.66,55.44,-33.6
1554880183895,3.2992098,-8.940548,-0.694917,-0.20453078,-0.52411014,3.347061,-10.98,56.64,-32.76
1554880183915,2.7389667,-8.701127,-1.2455834,-0.080960095,-0.5635249,3.2096417,-9.24,57.72,-32.04
1554880183935,2.4708161,-8.782531,-1.0684125,-0.094808534,-0.5784385999999999,3.0658312000000003,-7.56,58.5,-31.44
1554880183956,1.7525556,-8.595782,-0.5847838000000001,-0.002130529,-0.6135923000000001,2.9166942000000002,-6.0,59.1,-30.9
1554880183975,1.0007763,-8.653243,-0.4985925,0.1768339,-0.66365975,2.8272119,-4.5,59.34,-30.42
1554880183996,0.59855044,-8.389880999999999,-0.45549688,0.40053943,-0.7052050999999999,2.7462517999999996,-3.18,59.28,-30.0
1554880184016,0.18674773,-8.212710000000001,-0.623091,0.56459016,-0.7499462,2.6237464,-1.86,58.98,-29.7
1554880184036,-0.2777274,-8.169615,-0.6853402,0.5954828000000001,-0.7797736,2.4788704,-0.66,58.62,-29.76
1554880184056,-0.92416185,-7.963713,-0.7140707,0.55287224,-0.80107886,2.340386,0.48,57.96,-30.0
1554880184075,-1.6759412,-7.8009076,-0.27832595,0.50387007,-0.78936094,2.2572954,1.5,57.12,-30.3
1554880184095,-2.2840683,-7.934983,0.12868834,0.46765109999999993,-0.8000136,2.1763353,2.58,55.98,-30.72
1554880184115,-2.585738,-8.279748,0.28191724,0.4878911,-0.8223841999999999,2.0698087,3.6,54.54,-31.14
1554880184135,-3.2848446000000004,-7.9876556,0.56443304,0.5368933000000001,-0.8330368,1.965413,4.5,53.1,-31.56
1554880184155,-3.7780502,-7.834426400000001,0.75118077,0.65513766,-0.85540736,1.8972360000000001,5.34,51.54,-32.04
1554880184176,-4.156333999999999,-7.944559599999999,0.6937199000000001,0.74675035,-0.86179894,1.8642128,6.0,49.92,-32.64
1554880184196,-4.55856,-7.7769656000000005,0.82779527,0.8021441,-0.8383630999999999,1.8311896,6.48,48.06,-33.3
1554880184216,-4.936844000000001,-7.599794999999999,1.1055226,0.81066626,-0.8223841999999999,1.7928401000000003,6.78,46.32,-34.02
1554880184236,-5.257667,-7.3268557,1.1917138999999999,0.7755125,-0.809601,1.7811221999999998,7.02,44.64,-34.74
1554880184256,-5.57849,-7.2071457,1.1773487,0.74781567,-0.7946873000000001,1.7608821,7.02,42.96,-35.4
1554880184277,-6.009446,-7.0347633,1.5316905,0.7126619000000001,-0.78083885,1.7491642,6.9,40.56,-36.48
1554880184296,-6.0285997,-6.7187285,1.9099745,0.70200926,-0.7882956999999999,1.7502294999999999,6.9,39.72,-36.84
1554880184316,-6.1866174,-6.4793080000000005,2.0201077,0.67963874,-0.7978831000000001,1.7406421000000003,6.84,37.86,-37.56
1554880184336,-6.1530986,-6.3548098,1.9913772,0.69774824,-0.8021441,1.7182716,6.78,35.94,-38.34
1554880184356,-6.229712999999999,-5.66528,1.8189948,0.6668556,-0.7552725,1.6969663000000001,6.78,34.14,-39.0
1554880184376,-6.3063273,-5.172074299999999,2.0536265,0.5049353,-0.6892261,1.6671387999999998,6.78,31.14,-40.02
1554880184395,-6.354211299999999,-5.047576,2.273893,0.39734364,-0.6583334,1.6170714,6.72,29.34,-40.62
1554880184415,-6.459556,-4.6980224,2.7048495,0.30466563,-0.61678815,1.5499597999999999,6.42,27.6,-41.22
1554880184436,-6.5026517,-4.4442368,2.843713,0.27590349999999997,-0.5773733,1.4583471000000001,6.12,26.1,-41.82
1554880184455,-6.459556,-3.9510313999999997,2.9203273999999997,0.26418558,-0.5411543000000001,1.3560816,5.76,24.78,-42.48
1554880184475,-6.5026517,-3.9653966,2.9921536,0.25246766,-0.49428272,1.2452941000000002,5.4,23.64,-43.08
1554880184496,-6.6989765,-3.5823242999999994,3.2411506,0.2428803,-0.43995422,1.1323761,5.04,22.44,-43.56
1554880184515,-6.7468604999999995,-3.232771,3.365649,0.25566345,-0.386691,1.0056095999999999,4.74,21.3,-43.92
1554880184535,-6.794744500000001,-3.2040405,3.4039562000000005,0.23648871,-0.330232,0.87351686,4.44,20.22,-44.28
1554880184556,-7.015011,-3.1657330000000004,3.2794578000000003,0.19920446,-0.27696875,0.7350325,4.2,19.14,-44.58
1554880184575,-7.077260000000001,-3.0556,3.4039562000000005,0.12676647,-0.22477080000000002,0.60507023,4.14,18.12,-44.82
1554880184595,-7.2448545,-3.0125043,3.413533,0.03834952,-0.18748654,0.49215218,4.08,17.16,-45.06
1554880184616,-7.3166804,-3.103484,3.5140896,-0.06178534,-0.16724652,0.40266997,4.02,16.26,-45.24
1554880184635,-7.398083,-3.2375592999999996,3.4614172,-0.14594123,-0.13954964,0.3270362,3.9,15.6,-45.42
1554880184655,-7.522581599999999,-3.5535938999999996,3.4805707999999997,-0.16085494,-0.098004326,0.2695119,3.72,15.18,-45.6
1554880184676,-7.6375036,-3.4051532999999994,3.7343562000000006,-0.15978967,-0.047936900000000005,0.21411815,3.54,14.82,-45.72
1554880184696,-7.7189064,-3.2184057,3.5619736000000004,-0.14487597,-0.012783173500000002,0.165116,3.3,14.64,-45.9
1554880184716,-7.8625584,-3.6349967000000003,3.5236663999999998,-0.19387813,0.015978966,0.15552860000000002,3.12,14.46,-46.02
1554880184735,-7.991845,-3.6445735,3.6577415,-0.2790993,0.035153727999999995,0.13635385,2.88,14.22,-46.08
1554880184756,-8.1402855,-3.769072,3.7870286,-0.3334278,0.036218993,0.12783173,2.64,14.04,-46.2
1554880184776,-8.1163435,-4.013280399999999,3.8492777,-0.25033715,0.02876214,0.13209279,2.46,13.92,-46.32
1554880184795,-8.130709,-3.8313212,4.103063,-0.13848437,0.026631612000000002,0.13528858,2.4,13.8,-46.44
1554880184816,-8.063671000000001,-3.5583823,3.5715504,-0.011717908999999999,0.012783173500000002,0.13848437,2.34,13.74,-46.56
1554880184836,-8.039729,-3.2998084999999997,3.6768951000000003,0.0031957934000000003,0.022370555,0.128897,2.28,13.86,-46.62
1554880184855,-8.006210000000001,-3.4386723,3.8301241000000004,-0.040480047000000005,0.029827405,0.10759171,2.28,14.04,-46.74
1554880184875,-8.231264999999999,-3.4626143,3.7630866000000003,-0.05539375,0.018109497,0.09054748,2.22,14.22,-46.74
1554880184896,-8.236053,-3.6349967000000003,3.5859156000000003,-0.024501082,0.014913702,0.084155895,2.22,14.4,-46.8
1554880184915,-8.221688,-3.697246,3.7056258,0.03834952,0.026631612000000002,0.07882957,2.22,14.52,-46.86
1554880184936,-8.130709,-3.232771,3.6242227999999996,0.12250541,0.013848438000000001,0.06604639400000001,2.22,14.64,-46.92
1554880184956,-8.09719,-3.2950199999999996,3.5571851999999997,0.08735169,-0.011717908999999999,0.060720075,2.22,14.76,-46.92
1554880184976,-8.135497,-3.2902317,3.3369186,0.025566347000000003,-0.029827405,0.039414786,2.22,14.76,-46.92
1554880184996,-8.159439,-3.3476925000000004,3.3129766000000003,-0.040480047000000005,-0.027696876000000002,0.02130529,2.28,14.76,-46.92
1554880185017,-8.279149,-3.5488055,3.2890346,-0.11930962,-0.039414786,0.02876214,2.34,14.7,-46.86
1554880185036,-8.322245,-3.6014779000000003,3.6242227999999996,-0.12676647,-0.040480047000000005,0.040480047000000005,2.4,14.64,-46.92
1554880185055,-8.202535000000001,-3.3764230000000004,3.6050692000000004,-0.09161274,-0.03834952,0.04580637,2.46,14.64,-46.86
1554880185075,-8.169016000000001,-3.0891187,3.8540661,-0.068176925,-0.015978966,0.036218993,2.58,14.58,-46.86
1554880185095,-8.207322999999999,-3.2998084999999997,3.8253357000000006,-0.07137272,-0.027696876000000002,0.02876214,2.64,14.58,-46.92
1554880185116,-8.1881695,-3.2854433,3.5763388,-0.06924219,-0.025566347000000003,0.013848438000000001,2.7,14.64,-46.92
1554880185135,-8.145074000000001,-3.4626143,3.3129766000000003,-0.084155895,-0.01917476,0.010652645,2.76,14.64,-46.92
1554880185155,-8.183380999999999,-3.5009214999999996,3.4518404,-0.10972224,-0.0063915867,0.017044231,2.76,14.64,-46.92
1554880185176,-8.240842,-3.4578260000000003,3.4757824,-0.12783173,0.0063915867,0.024501082,2.76,14.7,-46.98
1554880185195,-8.288725999999999,-3.6014779000000003,3.6337996,-0.11717909,0.018109497,0.029827405,2.7,14.7,-46.98
1554880185215,-8.403648,-3.4482489999999997,3.6768951000000003,-0.05752428,0.00958738,0.03089267,2.58,14.76,-46.98
1554880185236,-8.389283,-3.3907879999999997,3.4183214,-0.046871635999999994,-0.008522116,0.039414786,2.52,14.82,-47.04
1554880185255,-8.331821000000001,-3.3955764999999998,3.4757824,-0.039414786,-0.0031957934000000003,0.03834952,2.4,14.88,-47.04
1554880185275,-8.240842,-3.4434607,3.3560722000000003,-0.06498113,-0.017044231,0.047936900000000005,2.34,14.94,-47.04
1554880185295,-8.341399000000001,-3.4674027,3.4231097999999998,-0.056459017,-0.012783173500000002,0.049002163,2.22,15.12,-47.04
1554880185316,-8.274361,-3.2710779999999997,3.3512837999999996,-0.024501082,-0.040480047000000005,0.039414786,2.16,15.42,-47.04
1554880185336,-8.154651,-2.9406781000000004,3.5811272000000005,0.0053263223,0.0053263223,0.012783173500000002,2.1,15.6,-46.98
1554880185355,-8.250419,-3.4913447,3.5476084,-0.11930962,0.012783173500000002,0.0063915867,2.1,15.78,-46.98
1554880185375,-8.149861999999999,-3.4290953,3.341707,-0.12996227,-0.034088463,-0.0010652645,2.1,15.96,-46.92
1554880185395,-8.025364,-3.5775358999999995,3.447052,-0.07350325,0.0010652645,-0.013848438000000001,2.1,16.08,-46.92
1554880185415,-8.111555000000001,-3.4290953,3.7247794,-0.05006743,0.037284255,-0.013848438000000001,2.1,16.2,-46.92
1554880185435,-8.101977999999999,-3.3045970000000002,3.2603042,-0.017044231,0.0031957934000000003,-0.025566347000000003,2.1,16.38,-46.86
1554880185458,-8.09719,-3.3524809999999996,3.2650926,-0.06604639400000001,0.01917476,-0.029827405,2.1,16.38,-46.86
1554880185475,-8.212111,-3.1992521000000003,3.2076318,-0.10226539,0.025566347000000003,-0.05006743,2.1,16.5,-46.8
1554880185495,-8.283937,-3.151368,3.3129766000000003,-0.14487597,0.023435817999999997,-0.058589544,2.04,16.56,-46.8
1554880185516,-8.307879,-3.3572693,3.293823,-0.18322548,0.010652645,-0.07456851,2.1,16.62,-46.8
1554880185535,-8.307879,-3.5583823,3.5093012000000003,-0.17150758,0.0053263223,-0.083090626,2.1,16.68,-46.8
1554880185556,-8.365341,-3.6541502,3.494936,-0.06178534,0.0,-0.082025364,2.1,16.74,-46.8
1554880185576,-8.437167,-3.5440169999999998,3.4757824,-0.010652645,0.0053263223,-0.07030745599999999,2.1,16.86,-46.74
1554880185595,-8.374918,-3.5871127,3.3608606,-0.018109497,0.013848438000000001,-0.04580637,2.1,16.92,-46.74
1554880185616,-8.422802,-3.5440169999999998,3.4231097999999998,-0.049002163,0.012783173500000002,-0.03089267,2.1,16.98,-46.74
1554880185636,-8.355764,-3.5871127,3.413533,-0.056459017,0.012783173500000002,-0.023435817999999997,2.16,16.98,-46.68
1554880185655,-8.322245,-3.4338839999999995,3.2124202,-0.05219796,0.014913702,-0.022370555,2.16,17.04,-46.56
1554880185676,-8.283937,-3.3907879999999997,3.2650926,-0.07243799,0.026631612000000002,-0.018109497,2.22,17.1,-46.44
1554880185695,-8.101977999999999,-3.342904,3.2507273999999997,-0.08735169,0.03195793,-0.02876214,2.22,17.1,-46.38
1554880185716,-8.073248,-3.3812113,3.293823,-0.09054748,0.037284255,-0.053263225,2.28,17.1,-46.32
1554880185736,-8.063671000000001,-3.1609447,3.2555158,-0.09374327,0.046871635999999994,-0.07456851,2.28,17.16,-46.2
1554880185756,-8.073248,-3.4386723,3.2746694,-0.11611383,0.083090626,-0.12144015,2.34,17.16,-46.14
1554880185775,-8.111555000000001,-3.2662897,3.1836896,-0.111852765,0.098004326,-0.16192019,2.4,17.22,-46.02
1554880185795,-8.250419,-3.4865562999999993,3.0974984,-0.1470065,0.098004326,-0.20026971,2.4,17.34,-46.02
1554880185816,-8.394072,-3.5488055,3.0496144,-0.24714136,0.10865697,-0.20772657,2.46,17.46,-45.96
1554880185836,-8.504205,-3.9175123999999997,3.1741127999999996,-0.36005938,0.096939065,-0.19068234,2.46,17.58,-45.96
1554880185857,-8.475474,-4.156933,3.0304607999999997,-0.39947417,0.082025364,-0.15552860000000002,2.46,17.76,-45.9
1554880185875,-8.379706,-4.0563765,3.1214404,-0.3568636,0.07882957,-0.12357068,2.46,17.94,-45.9
1554880185895,-8.365341,-3.9223008000000004,3.3225534,-0.2545982,0.083090626,-0.08522116,2.52,18.24,-45.84
1554880185915,-8.336611,-3.8744167999999997,3.5045127999999997,-0.11824436,0.07456851,-0.07669904,2.52,18.66,-45.84
1554880185936,-8.0684595,-3.5583823,3.293823,0.051132694000000006,0.06391586,-0.080960095,2.58,18.96,-45.84
1554880185957,-7.953538000000001,-3.3381157,3.0591912,0.15020229,0.07669904,-0.12250541,2.64,19.32,-45.78
1554880185975,-7.905653999999999,-3.2710779999999997,2.8963853999999998,0.12996227,0.09587380000000001,-0.18109496,2.7,19.62,-45.78
1554880185995,-8.015787,-3.3381157,2.843713,0.041545313,0.10439592,-0.24820662,2.76,19.98,-45.78
1554880186016,-7.963114699999999,-3.5488055,2.7240029999999997,-0.054328485999999995,0.10972224,-0.2876214,2.88,20.28,-45.72
1554880186036,-8.020576,-3.840898,2.7766755,-0.14594123,0.10333065,-0.31318775,2.94,20.52,-45.72
1554880186055,-8.078036,-4.089895200000001,2.9107506,-0.17044231,0.082025364,-0.32597092,3.0,20.76,-45.72
1554880186075,-8.09719,-4.1904516,2.7623102999999998,-0.14168017,0.07882957,-0.32597092,3.06,20.94,-45.66
1554880186096,-7.881711999999999,-4.094683600000001,2.9634232999999996,-0.056459017,0.084155895,-0.3291667,3.12,21.12,-45.66
1554880186115,-7.6949644,-3.7594953,3.1214404,0.07669904,0.10759171,-0.33129725,3.12,21.24,-45.6
1554880186135,-7.1873937,-3.5966894999999997,3.1932666000000003,0.19600865,0.13102753,-0.3749731,3.18,21.42,-45.6
1554880186156,-6.2584434,-3.232771,2.9538465,0.31957933,0.15765914,-0.52411014,3.12,21.66,-45.48
1554880186176,-5.592855,-3.2902317,2.2643162999999995,0.28975195,0.19281286,-0.7126619000000001,3.18,21.84,-45.42
1554880186196,-5.353435,-3.2710779999999997,1.9865887999999998,0.05965481,0.24927188,-0.96299905,3.18,21.96,-45.3
1554880186216,-5.094861,-3.5631707,2.2691047,-0.13741912,0.30679616,-1.1547466999999998,3.24,22.02,-45.3
1554880186236,-4.783615,-4.0755300000000005,2.1637597,-0.37390783,0.41758367,-1.4498249,3.36,22.2,-45.18
1554880186255,-4.5441947,-4.43466,1.9913772,-0.38456047,0.5028047999999999,-1.6777915,3.48,22.44,-45.12
1554880186275,-4.2425256,-4.458602,2.0440497,-0.26525086,0.60720074,-1.9249328,3.6,22.74,-44.94
1554880186295,-3.8738184,-3.9558197999999996,1.881244,-0.054328485999999995,0.7233145999999999,-2.194445,3.72,23.16,-44.7
1554880186315,-3.2034418999999996,-4.659715,0.95229375,0.080960095,0.7978831000000001,-2.4213462000000003,3.84,23.7,-44.46
1554880186336,-3.0310593,-4.630985,1.1294646000000002,0.07563378,0.9139969000000001,-2.7643614,3.96,24.42,-44.16
1554880186356,-3.040636,-4.209605000000001,0.8900445,0.05539375,1.0322412,-3.1127027999999997,4.02,25.44,-43.86
1554880186376,-2.6431987,-4.200028400000001,1.0480618,-0.025566347000000003,1.1526161,-3.4631748,4.14,26.64,-43.56
1554880186395,-2.0159178,-4.7985787,1.0528502,-0.08522116,1.2357068000000002,-3.8072553,4.26,28.08,-43.14
1554880186415,-1.5705963,-6.1967926,1.0720038,-0.15126756,1.2559468,-4.1065946,4.44,29.7,-42.6
1554880186435,-1.3790601,-7.029975,1.0384849,-0.22264028,1.2250541000000001,-4.327104,4.56,31.5,-42.06
1554880186456,-0.8619126,-6.508039,0.9187749,-0.21837921,1.2069446000000001,-4.5050035,4.68,33.42,-41.4
1554880186476,0.076614454,-7.6045833,1.0480618,-0.25992453,1.1377025,-4.539092,4.74,35.46,-40.68
1554880186496,1.0151415000000001,-9.946113,0.789488,-0.4016047,1.0407634,-4.541222599999999,4.74,37.56,-39.96
1554880186515,1.484405,-10.214263,1.110311,-0.38882150000000004,0.9491506,-4.644553,4.68,39.66,-39.24
1554880186535,2.6623523,-10.745776,0.8996213,-0.22477080000000002,0.8671253000000001,-4.697816400000001,4.26,41.88,-38.52
1554880186556,3.7349546,-12.110471,0.96665895,0.14061491,0.7669904000000001,-4.5667887,3.54,43.98,-37.74
1554880186576,4.76925,-13.063363,1.0528502,0.38775626,0.61572284,-4.3920856,2.7,45.96,-37.14
1554880186595,5.1235914000000005,-12.847885,1.4838065,0.5187838,0.41545314,-4.3164515,1.62,47.7,-36.6
1554880186615,6.1818290000000005,-12.637196000000001,1.2252326999999998,0.7946873000000001,0.22583607,-4.1832933,0.48,49.26,-36.18
1554880186636,6.8186865,-11.63163,1.2779051000000001,1.0641992,0.14594123,-4.0448093,-0.84,50.46,-35.94
1554880186656,7.374141000000001,-11.502343,1.4024036,1.2282499,0.09374327,-3.7955372000000005,-2.28,51.42,-35.76
1554880186676,7.6470804,-10.13286,1.2731166999999999,1.1238540000000001,-0.0010652645,-3.7209687000000007,-3.84,52.02,-35.64
1554880186696,8.236053,-9.361927,1.3688848,0.8404937,-0.083090626,-3.6890108999999995,-5.4,52.08,-35.7
1554880186716,9.188946000000001,-8.806473,1.359308,0.4857606,-0.1438107,-3.6922066,-6.9,51.66,-36.12
1554880186735,9.706094,-8.365939,1.7854759999999998,0.22583607,-0.13741912,-3.5867455,-8.52,50.88,-36.6
1554880186755,10.13705,-8.337209,2.0488381,0.08948222,-0.08948222,-3.3747578000000003,-10.08,49.8,-37.2
1554880186777,10.5919485,-8.169615,1.9434932,-0.06285059999999999,-0.07350325,-3.2245555,-11.7,48.72,-37.92
1554880186795,10.821792,-7.7626004,1.8620903000000002,-0.16618125,-0.025566347000000003,-3.0796794999999997,-13.26,47.34,-38.58
1554880186815,10.778696,-7.3938932,1.8860323,-0.27696875,0.03195793,-2.871953,-14.76,45.84,-39.24
1554880186837,10.630256,-6.9246297000000006,1.8860323,-0.43249738,0.082025364,-2.610963,-16.14,44.46,-39.84
1554880186856,10.448297,-6.7426705,1.9961656000000003,-0.60080916,0.11611383,-2.2839270000000003,-17.4,43.2,-40.26
1554880186876,10.189722,-6.7043633,1.9387047999999998,-0.753142,0.12463594,-1.9132148999999998,-18.54,42.24,-40.5
1554880186896,9.734824,-6.407482,1.8142063999999998,-0.8724516,0.11504856,-1.5329156000000002,-19.62,41.46,-40.68
1554880186915,9.308656,-6.215946,1.9722236000000002,-0.9235843,0.06924219,-1.1664646,-20.52,40.86,-40.74
1554880186936,9.002198,-6.000468,1.9722236000000002,-0.86392945,0.012783173500000002,-0.8362325999999999,-21.3,40.32,-40.8
1554880186955,8.686164,-5.880758,1.9434932,-0.71585774,-0.06391586,-0.51665324,-22.02,40.02,-40.86
1554880186975,8.523358,-5.9477954,2.0727801,-0.39734364,-0.16085494,-0.22264028,-22.8,39.78,-40.86
1554880186996,8.537724,-5.7466826,2.0105310000000003,-0.08735169,-0.21837921,-0.07563378,-23.1,39.72,-40.86
1554880187015,8.508992999999998,-5.521628,1.6274586000000002,0.128897,-0.23329292,0.004261058,-23.28,39.72,-40.86
1554880187036,8.465898,-5.1529207,1.5173253,0.37284255,-0.22903186,0.096939065,-23.46,39.66,-40.74
1554880187056,8.389283,-4.9901147,1.5125369,0.43569317,-0.20240025,0.13741912,-23.52,39.72,-40.62
1554880187076,8.494628,-4.7506948,1.38325,0.4133226,-0.17470337,0.16937704,-23.58,39.84,-40.5
1554880187096,8.51857,-4.597466000000001,1.3162124,0.33449304,-0.1438107,0.20985709,-23.64,39.9,-40.38
1554880187115,8.576031,-4.5352163,1.2587515,0.25140239999999997,-0.12676647,0.26738137,-23.7,39.96,-40.26
1554880187135,8.6813755,-4.530428,1.2635399,0.1949434,-0.11824436,0.3323625,-23.82,40.02,-40.2
1554880187155,8.959103,-4.621408,1.6083049999999999,0.18322548,-0.13954964,0.40373522,-23.88,39.9,-40.2
1554880187180,8.973467999999999,-4.3724110000000005,1.4981716999999999,0.23329292,-0.17363810000000002,0.46978164,-23.94,39.84,-40.2
1554880187195,8.983044999999999,-4.377199,1.4407108999999998,0.31957933,-0.20026971,0.5518069999999999,-24.0,39.72,-40.26
1554880187216,8.892064999999999,-4.051588,1.2156559,0.3685815,-0.21624869,0.6263755,-24.06,39.6,-40.38
1554880187235,9.112331,-3.9318779000000004,1.1629834,0.38775626,-0.2428803,0.6775081999999999,-24.06,39.48,-40.44
1554880187255,9.093178,-3.8073792,1.38325,0.39095205,-0.2695119,0.69774824,-24.06,39.42,-40.5
1554880187276,8.983044999999999,-3.7116113,1.359308,0.42717105,-0.30679616,0.7030744999999999,-24.0,39.24,-40.56
1554880187296,8.992621,-3.697246,1.4263457,0.46871635,-0.32277513,0.6785734,-23.88,39.12,-40.56
1554880187315,8.848969,-3.697246,1.4119805,0.5049353,-0.3174488,0.6487460999999999,-23.76,39.06,-40.5
1554880187335,8.8777,-3.5823242999999994,1.3736732,0.5496765,-0.294013,0.58056915,-23.64,39.0,-40.44
1554880187356,8.896853,-3.4961330000000004,1.2779051000000001,0.5613944000000001,-0.27590349999999997,0.5134575,-23.52,38.94,-40.38
1554880187375,8.896853,-3.5296519,1.287482,0.5550028,-0.24927188,0.45167214,-23.4,38.82,-40.38
1554880187396,8.892064999999999,-3.3381157,1.3305776000000002,0.53476274,-0.23542345,0.40586576,-23.34,38.76,-40.38
1554880187416,8.892064999999999,-3.3620577000000003,1.4024036,0.5028047999999999,-0.21411815,0.34514567,-23.28,38.64,-40.38
1554880187436,9.074024,-3.4195184999999997,1.359308,0.47297743,-0.18216023,0.28868666,-23.22,38.52,-40.44
1554880187455,9.035717,-3.4386723,1.2491747,0.43356264,-0.15765914,0.23542345,-23.22,38.22,-40.56
1554880187476,9.160214999999999,-3.3381157,1.2348095,0.39627838,-0.13209279,0.19387813,-23.22,37.92,-40.74
1554880187497,9.069236,-3.3764230000000004,1.311424,0.350472,-0.112918034,0.15552860000000002,-23.28,37.5,-40.98
1554880187515,9.016563,-3.4099417,1.311424,0.30466563,-0.10439592,0.12570119999999999,-23.28,37.14,-41.28
1554880187536,8.939949,-3.5009214999999996,1.2635399,0.2695119,-0.098004326,0.09374327,-23.28,36.78,-41.52
1554880187556,8.925583999999999,-3.2998084999999997,1.287482,0.24394555,-0.10226539,0.05752428,-23.28,36.42,-41.76
1554880187576,8.949525999999999,-3.3333273,1.1917138999999999,0.22264028,-0.10652645,0.00958738,-23.34,36.06,-41.94
1554880187595,8.978256,-3.4051532999999994,1.2970588,0.22796659,-0.12250541,-0.05006743,-23.34,35.76,-42.12
1554880187615,8.987833,-3.5488055,1.2156559,0.23542345,-0.12783173,-0.1107875,-23.34,35.52,-42.24
1554880187636,8.853758000000001,-3.6254199000000003,1.335366,0.24074976,-0.13635385,-0.18109496,-23.34,35.34,-42.36
1554880187655,8.944737,-3.6206315000000004,1.4359225,0.24714136,-0.13848437,-0.24501082,-23.34,35.16,-42.42
1554880187675,8.987833,-3.8025907999999995,1.4646529,0.2727077,-0.13102753,-0.29507825,-23.34,34.92,-42.48
1554880187696,8.973467999999999,-3.9031472000000003,1.4598645000000001,0.28229508,-0.12037488,-0.32277513,-23.4,34.62,-42.54
1554880187716,9.040505,-3.7594953,1.5604209999999998,0.2908172,-0.099069595,-0.33129725,-23.46,34.38,-42.66
1554880187736,8.968679,-3.7403417,1.3545196000000002,0.27803403,-0.07563378,-0.30892670000000005,-23.58,34.14,-42.72
1554880187755,8.868122999999999,-3.8744167999999997,1.5652093999999999,0.21411815,-0.043675844000000005,-0.24501082,-23.76,33.66,-42.84
1554880187776,8.791509,-3.9031472000000003,1.7232267,0.15978967,-0.036218993,-0.19920446,-23.88,33.24,-42.9
1554880187795,8.647857,-3.8025907999999995,1.7663223000000001,0.14594123,-0.023435817999999997,-0.15339808,-24.0,32.82,-42.9
1554880187816,8.446744,-3.9175123999999997,2.0488381,0.17576863,-0.022370555,-0.08948222,-24.12,32.4,-42.96
1554880187835,8.394072,-4.032433999999999,2.2691047,0.26312032,-0.040480047000000005,-0.02130529,-24.18,31.98,-42.96
1554880187855,8.561666,-4.0994720000000004,2.130241,0.36751625,-0.054328485999999995,0.026631612000000002,-24.24,31.62,-43.02
1554880187875,9.121908,-3.9558197999999996,2.0727801,0.49215218,-0.05539375,0.056459017,-24.18,31.2,-43.08
1554880187896,9.600749,-4.109049,2.1350293,0.60720074,-0.04474111,0.027696876000000002,-24.18,30.84,-43.14
1554880187916,9.734824,-4.061165,2.0201077,0.6785734,-0.017044231,-0.013848438000000001,-24.18,30.36,-43.2
1554880187935,9.533711,-3.8025907999999995,1.8429368000000002,0.6924219,0.039414786,-0.054328485999999995,-24.18,30.06,-43.2
1554880187955,9.370906,-3.6014779000000003,1.3976152,0.5954828000000001,0.13635385,-0.09054748,-24.18,29.64,-43.26
1554880187975,9.294291000000001,-3.2902317,1.3210008,0.36432046,0.24501082,-0.111852765,-24.18,29.28,-43.32
1554880187995,9.150639,-3.2375592999999996,1.2156559,0.036218993,0.33449304,-0.128897,-24.18,28.86,-43.44
1554880188015,9.136273,-3.328539,1.2635399,-0.3153183,0.39627838,-0.15020229,-24.18,28.44,-43.56
1554880188036,9.074024,-3.4721910000000005,1.3545196000000002,-0.58056915,0.43356264,-0.16937704,-24.18,28.02,-43.8
1554880188056,8.901641999999999,-3.5057099999999997,1.2683283,-0.75633776,0.46978164,-0.16618125,-24.12,27.66,-44.04
1554880188076,8.858546,-3.6206315000000004,1.2204443,-0.87032104,0.50173956,-0.13954964,-24.12,27.42,-44.34
1554880188095,8.418014,-3.6110547,1.311424,-0.9406285,0.49854377,-0.10333065,-24.06,27.3,-44.58
1554880188115,8.1402855,-3.7834373,1.8381484000000001,-0.9470200999999999,0.43462790000000007,-0.05006743,-24.06,27.36,-44.82
1554880188135,7.9487495,-3.8744167999999997,2.4319102999999997,-0.8543421,0.314253,0.034088463,-23.94,27.78,-44.94
1554880188156,8.145074000000001,-4.0420110000000005,2.6138697,-0.5592638000000001,0.11824436,0.10759171,-23.76,28.26,-45.0
1554880188176,8.255207,-4.257489,2.475006,-0.17576863,-0.007456851,0.12144015,-23.52,28.92,-44.94
1554880188196,8.39886,-4.247912400000001,2.5372553,0.28336033,-0.07137272,0.09267801,-23.34,29.64,-44.7
1554880188216,8.786719999999999,-4.3197384,2.460641,0.6487460999999999,-0.099069595,0.040480047000000005,-23.16,30.42,-44.46
1554880188236,9.174581,-4.022857,2.144606,0.8245146999999999,-0.10972224,-0.035153727999999995,-22.92,31.14,-44.22
1554880188255,9.193734,-3.816956,2.0392613,0.84155893,-0.08628642,-0.10759171,-22.68,31.8,-43.92
1554880188275,9.030928999999999,-3.7594953,1.6609775000000002,0.74461985,-0.036218993,-0.18109496,-22.5,32.34,-43.74
1554880188295,8.892064999999999,-3.5727474999999997,1.6705543,0.5454154,0.02876214,-0.24714136,-22.32,32.46,-43.62
1554880188315,8.676587,-3.3907879999999997,1.4502877,0.25885928,0.10652645,-0.29827404,-22.26,32.4,-43.62
1554880188336,8.643068,-3.5679589999999997,1.5508442,-0.06498113,0.17044231,-0.34194988,-22.2,32.04,-43.74
1554880188356,8.571242,-3.7259765,1.5795746000000002,-0.32170987,0.23435818,-0.39521313,-22.14,31.62,-43.86
1554880188376,8.585608,-3.9031472000000003,1.5125369,-0.47404268,0.2876214,-0.44847634,-22.08,31.14,-44.04
1554880188396,8.585608,-4.022857,1.5316905,-0.55074173,0.34621096,-0.49747851,-22.08,30.66,-44.16
1554880188416,8.5473,-4.1282024,1.3880384,-0.6040049,0.39201729999999996,-0.51452273,-22.08,30.24,-44.34
1554880188435,8.585608,-4.0563765,1.2348095,-0.65513766,0.41758367,-0.49747851,-22.08,29.88,-44.46
1554880188455,8.576031,-4.013280399999999,1.2300211,-0.75420725,0.42930159999999995,-0.43036684,-22.02,29.58,-44.58
1554880188475,8.63828,-3.9797617999999995,1.311424,-0.86179894,0.41438788,-0.3536678,-21.9,29.58,-44.64
1554880188496,8.614338,-4.0803185,1.5221136999999998,-1.0098706,0.37284255,-0.23542345,-21.78,29.88,-44.64
1554880188516,8.643068,-4.2862196,1.7806876,-1.1004181999999998,0.29827404,-0.10865697,-21.6,30.24,-44.58
1554880188535,8.6095495,-4.530428,2.082357,-1.0812434,0.22264028,0.0053263223,-21.48,30.78,-44.4
1554880188555,8.556877,-4.458602,2.1158757,-0.9491506,0.15020229,0.11504856,-21.36,31.32,-44.22
1554880188576,8.561666,-4.463390400000001,2.3600842999999996,-0.773382,0.08522116,0.20879184,-21.12,31.92,-44.1
1554880188595,8.446744,-4.252701,2.2164322999999997,-0.6295713000000001,0.020240024,0.2790993,-20.88,32.7,-43.86
1554880188616,8.51857,-4.2862196,2.1924900000000003,-0.50387007,-0.043675844000000005,0.31851408,-20.7,33.54,-43.68
1554880188636,8.475474,-4.1138372,2.3600842999999996,-0.37071204,-0.10439592,0.3323625,-20.58,34.5,-43.38
1554880188655,8.485051,-3.912724,2.0919337,-0.24394555,-0.15233281,0.33129725,-20.52,35.82,-42.72
1554880188676,8.590396,-3.8361096,2.2547395,-0.16085494,-0.18429075,0.31851408,-20.46,36.24,-42.54
1554880188695,8.614338,-3.7499184999999997,2.082357,-0.12676647,-0.2066613,0.2790993,-20.4,37.02,-42.24
1554880188716,8.781932000000001,-3.6254199000000003,2.0679917000000003,-0.13209279,-0.23222765,0.19068234,-20.4,38.16,-41.76
1554880188736,8.734048,-3.7163997,2.0440497,-0.13209279,-0.2545982,0.096939065,-20.4,38.82,-41.46
1554880188756,8.585608,-3.7594953,2.144606,-0.12144015,-0.27057716,0.0010652645,-20.46,39.36,-41.22
1554880188776,8.6813755,-3.8073792,2.202067,-0.06711166,-0.28868666,-0.080960095,-20.46,39.78,-40.98
1554880188795,8.719683,-3.888782,2.2068555,0.014913702,-0.29827404,-0.15020229,-20.58,40.02,-40.92
1554880188815,8.825027,-3.8504747999999998,2.1206641,0.096939065,-0.29933932,-0.20985709,-20.76,40.26,-40.92
1554880188836,8.892064999999999,-3.840898,2.0440497,0.15552860000000002,-0.30253512,-0.25885928,-20.94,40.38,-40.92
1554880188856,8.805874000000001,-3.8361096,2.0679917000000003,0.18748654,-0.30999196,-0.30786142,-21.12,40.5,-40.86
1554880188876,8.781932000000001,-3.8073792,1.9434932,0.21837921,-0.314253,-0.34408042,-21.3,40.5,-40.8
1554880188896,8.748413000000001,-3.8600516000000002,2.0488381,0.2428803,-0.31212249999999997,-0.36432046,-21.48,40.5,-40.68
1554880188915,8.786719999999999,-3.86484,2.0105310000000003,0.25033715,-0.30360037,-0.3717773,-21.72,40.44,-40.62
1554880188936,8.939949,-3.9845502,1.9195513,0.25033715,-0.29188246,-0.36751625,-21.9,40.32,-40.56
1554880188955,8.8777,-3.946243,1.8477252,0.24820662,-0.2695119,-0.34940675,-22.08,40.14,-40.56
1554880188975,8.973467999999999,-3.8552632000000004,1.7854759999999998,0.21411815,-0.23861924,-0.31638354,-22.2,39.9,-40.62
1554880188996,8.959103,-3.8552632000000004,1.7088615000000003,0.15126756,-0.21092236,-0.27057716,-22.38,39.54,-40.68
1554880189016,8.896853,-3.9510313999999997,1.7184383,0.09267801,-0.20559604,-0.24501082,-22.56,39.06,-40.8
1554880189036,8.935161,-3.8696284,1.6083049999999999,0.07243799,-0.2066613,-0.23648871,-22.74,38.64,-40.98
1554880189055,8.925583999999999,-4.032433999999999,1.6897078999999997,0.07030745599999999,-0.2130529,-0.23435818,-22.92,38.22,-41.16
1554880189076,8.920795,-4.109049,1.7040731,0.14061491,-0.2066613,-0.2428803,-23.1,37.8,-41.28
1554880189097,9.045294,-4.013280399999999,1.5604209999999998,0.18216023,-0.18748654,-0.24394555,-23.28,37.38,-41.4
1554880189117,9.160214999999999,-3.9510313999999997,1.4981716999999999,0.16298546,-0.17576863,-0.2428803,-23.52,37.02,-41.52
1554880189136,9.016563,-4.022857,1.6657659,0.09267801,-0.16192019,-0.24074976,-23.7,36.72,-41.52
1554880189155,8.690952000000001,-3.9845502,1.4167688999999999,0.033023197000000004,-0.13954964,-0.23861924,-23.88,36.48,-41.52
1554880189175,8.662222,-3.9414546,1.2443863000000002,-0.0031957934000000003,-0.11611383,-0.21092236,-24.12,36.24,-41.46
1554880189196,8.738836000000001,-3.9893386,1.3162124,-0.06498113,-0.10013486,-0.1470065,-24.42,36.06,-41.4
1554880189216,8.614338,-4.0372224,1.3210008,-0.09267801,-0.10865697,-0.10865697,-24.66,35.82,-41.34
1554880189236,8.542512,-4.19524,1.311424,-0.041545313,-0.15446335,-0.09374327,-24.84,35.64,-41.34
1554880189256,8.532935,-4.223970400000001,1.3210008,0.10865697,-0.2034655,-0.08948222,-25.02,35.4,-41.34
1554880189276,8.686164,-4.291008000000001,1.5604209999999998,0.34194988,-0.24074976,-0.06924219,-25.2,35.22,-41.34
1554880189296,8.944737,-4.300585,1.2779051000000001,0.6061354999999999,-0.24714136,-0.039414786,-25.32,35.1,-41.34
1554880189316,9.150639,-4.0994720000000004,1.1534066,0.81918836,-0.22050974,-0.0031957934000000003,-25.38,34.98,-41.34
1554880189336,9.26556,-3.9558197999999996,0.96187055,0.89801794,-0.18322548,0.033023197000000004,-25.38,34.86,-41.34
1554880189356,9.217675999999999,-3.8121676,0.8948328999999999,0.8692558000000001,-0.13315806,0.08735169,-25.44,34.68,-41.34
1554880189376,9.332599,-3.7403417,0.64583594,0.7755125,-0.07989483,0.15446335,-25.44,34.26,-41.4
1554880189396,9.299078999999999,-3.7259765,0.3585317,0.6359629,-0.020240024,0.21944448,-25.44,33.84,-41.64
1554880189416,9.370906,-3.7020345,0.5835866999999999,0.5070659000000001,0.034088463,0.28655612,-25.5,33.3,-41.82
1554880189436,9.481038999999999,-3.6349967000000003,0.5835866999999999,0.40586576,0.07456851,0.34514567,-25.5,32.76,-42.06
1554880189455,9.447519999999999,-3.6589386,0.24361002,0.33129725,0.10546118,0.38775626,-25.56,32.1,-42.36
1554880189475,9.461885,-3.4626143,0.3776853,0.27377295,0.12357068,0.42184472,-25.62,31.5,-42.6
1554880189495,9.437942999999999,-3.5488055,0.3345897,0.21731395,0.13209279,0.43995422,-25.62,30.9,-42.9
1554880189515,9.41879,-3.3955764999999998,0.45908818,0.17896444,0.12570119999999999,0.44421527,-25.68,30.42,-43.14
1554880189535,9.409213000000001,-3.4482489999999997,0.23403321,0.15765914,0.10865697,0.43888897,-25.74,30.12,-43.38
1554880189556,9.41879,-3.4913447,0.3537433,0.15446335,0.08841695,0.41971418,-25.74,29.76,-43.5
1554880189576,9.490616000000001,-3.5631707,0.44951138,0.19387813,0.05539375,0.3898868,-25.74,29.64,-43.56
1554880189595,9.370906,-3.4961330000000004,0.5165489999999999,0.28122982,0.022370555,0.35579833,-25.62,29.64,-43.56
1554880189616,9.361329,-3.4721910000000005,0.41120413,0.3749731,0.0,0.34194988,-25.32,29.64,-43.56
1554880189636,9.323022,-3.342904,0.44951138,0.406931,-0.015978966,0.33129725,-25.2,29.7,-43.56
1554880189656,9.452309,-3.481768,0.5165489999999999,0.40266997,-0.041545313,0.32277513,-24.78,29.82,-43.62
1554880189676,9.667786999999999,-3.4386723,0.8038531999999999,0.37603834,-0.060720075,0.31638354,-24.54,29.94,-43.68
1554880189695,9.811439,-3.4051532999999994,0.74639237,0.350472,-0.07989483,0.30999196,-24.3,30.0,-43.86
1554880189715,9.715671,-3.4147300000000005,0.97623575,0.32810146,-0.09267801,0.3174488,-24.06,30.0,-43.98
1554880189736,9.600749,-3.2375592999999996,0.9427169,0.28229508,-0.10439592,0.33768883,-23.82,30.0,-44.16
1554880189756,9.595961,-3.2806550000000003,0.8996213,0.22264028,-0.111852765,0.35260254,-23.7,29.88,-44.28
1554880189775,9.447519999999999,-3.2950199999999996,1.2108675,0.15126756,-0.128897,0.3536678,-23.7,29.76,-44.4
1554880189795,9.193734,-3.1705215,1.38325,0.094808534,-0.1587244,0.33981937,-23.76,29.58,-44.46
1554880189816,8.820239,-3.2710779999999997,1.4502877,0.06711166,-0.18429075,0.3291667,-23.7,29.4,-44.52
1554880189836,8.475474,-3.3476925000000004,1.5316905,0.07243799,-0.20772657,0.30040458,-23.7,29.28,-44.52
1554880189855,8.0924015,-3.328539,1.7328035,0.13209279,-0.23542345,0.257794,-23.64,29.16,-44.52
1554880189875,7.953538000000001,-3.3189620000000004,1.8285716,0.24074976,-0.25885928,0.21198763,-23.64,29.1,-44.46
1554880189896,8.078036,-3.4674027,1.9243397,0.3717773,-0.25885928,0.14274544,-23.58,29.04,-44.4
1554880189915,8.365341,-3.5775358999999995,1.9913772,0.5049353,-0.23755397,0.05752428,-23.58,28.98,-44.34
1554880189935,8.690952000000001,-3.6637269999999997,2.0679917000000003,0.6114618,-0.18429075,-0.04261058,-23.58,28.92,-44.4
1554880189956,8.954314,-3.5775358999999995,2.0632033,0.65726817,-0.08735169,-0.15978967,-23.64,28.8,-44.4
1554880189975,8.901641999999999,-3.4386723,1.8908207,0.59228706,-0.0010652645,-0.23116238,-23.76,28.56,-44.52
1554880189995,8.7771435,-3.2375592999999996,1.8429368000000002,0.43888897,0.07563378,-0.25992453,-23.88,28.26,-44.64
1554880190016,8.738836000000001,-3.2615013,1.9482816000000003,0.21731395,0.15446335,-0.24181503,-24.0,27.78,-44.76
1554880190036,8.384495,-3.2998084999999997,2.0201077,-0.011717908999999999,0.21624869,-0.19813919,-24.12,27.3,-44.88
1554880190055,8.212111,-3.4434607,2.297835,-0.18322548,0.257794,-0.13528858,-24.24,26.76,-45.06
1554880190075,8.374918,-3.5631707,2.3600842999999996,-0.23861924,0.27377295,-0.07669904,-24.36,26.28,-45.18
1554880190096,8.719683,-3.7499184999999997,2.4271219,-0.20026971,0.27164245,-0.058589544,-24.42,25.86,-45.36
1554880190116,9.212888000000001,-3.888782,2.441487,-0.101200126,0.25885928,-0.08628642,-24.42,25.5,-45.42
1554880190136,9.509769,-3.8313212,2.441487,-0.00958738,0.25033715,-0.1470065,-24.3,25.2,-45.48
1554880190155,9.528922999999999,-3.8744167999999997,2.1493945,0.03195793,0.24820662,-0.22796659,-24.18,25.02,-45.54
1554880190175,9.303867,-3.7594953,2.1350293,0.007456851,0.25033715,-0.29933932,-24.06,25.02,-45.6
1554880190195,8.920795,-3.7116113,2.2260091,-0.06178534,0.25033715,-0.34514567,-23.94,25.08,-45.6
1554880190216,8.710106,-3.697246,2.1206641,-0.14807177,0.24927188,-0.37071204,-23.82,25.14,-45.66
1554880190235,8.379706,-3.9175123999999997,2.0536265,-0.20559604,0.25033715,-0.386691,-23.7,25.2,-45.66
1554880190255,8.202535000000001,-3.9414546,2.154183,-0.22370553,0.23542345,-0.40906155,-23.58,25.26,-45.72
1554880190276,8.145074000000001,-3.9653966,2.2212207000000004,-0.20879184,0.22050974,-0.42930159999999995,-23.46,25.32,-45.72
1554880190295,8.0445175,-4.094683600000001,2.2882583,-0.18535602,0.21518342,-0.44421527,-23.4,25.38,-45.78
1554880190316,8.010999,-4.018069000000001,1.8860323,-0.18216023,0.20453078,-0.45806372,-23.22,25.44,-45.78
1554880190336,7.920019,-4.1186256000000006,2.1158757,-0.18961707,0.18855181,-0.47297743,-23.04,25.5,-45.84
1554880190356,7.953538000000001,-4.2814309999999995,2.1733365,-0.19068234,0.15233281,-0.47404268,-22.92,25.5,-45.9
1554880190375,8.1163435,-4.2957964,2.1158757,-0.17150758,0.10546118,-0.46765109999999993,-22.8,25.56,-45.96
1554880190396,8.336611,-4.43466,2.331354,-0.08841695,0.04580637,-0.44954160000000004,-22.62,25.56,-46.02
1554880190416,8.437167,-4.741118,2.5899277,0.029827405,-0.002130529,-0.4079963,-22.5,25.62,-46.02
1554880190435,8.441956,-4.908712,2.5851393,0.12676647,-0.034088463,-0.36218992,-22.44,25.62,-46.02
1554880190455,8.350976,-4.7602715,2.7431567,0.24501082,-0.06285059999999999,-0.26205507,-22.38,25.62,-46.02
1554880190476,8.384495,-4.578312400000001,2.690484,0.31318775,-0.07350325,-0.12144015,-22.38,25.62,-46.02
1554880190495,8.710106,-4.6501384,2.6617537000000002,0.28549087,-0.05965481,0.05539375,-22.38,25.62,-46.02
1554880190516,9.14585,-4.702811,3.020884,0.22477080000000002,-0.036218993,0.15765914,-22.38,25.56,-46.02
1554880190535,9.169792,-4.654927,2.949058,0.18216023,-0.007456851,0.22264028,-22.38,25.44,-46.02
1554880190556,8.973467999999999,-4.463390400000001,2.9394810000000002,0.15233281,0.037284255,0.29933932,-22.44,25.32,-46.08
1554880190577,8.710106,-4.214393599999999,2.5133132999999996,0.09161274,0.09054748,0.39734364,-22.38,25.14,-46.14
1554880190596,8.6095495,-3.9606082000000002,2.4079683,-0.040480047000000005,0.13315806,0.49534798,-22.38,24.96,-46.2
1554880190616,8.63828,-3.9175123999999997,2.484583,-0.17150758,0.15126756,0.56672066,-22.32,24.78,-46.26
1554880190636,8.968679,-3.8744167999999997,2.6473885,-0.22477080000000002,0.14807177,0.5933523,-22.32,24.66,-46.26
1554880190655,9.107543,-4.0372224,2.508525,-0.221575,0.13102753,0.58696073,-22.26,24.54,-46.32
1554880190675,9.083601,-3.9749733999999997,2.5995044999999997,-0.12996227,0.112918034,0.5571333,-22.26,24.42,-46.32
1554880190696,8.724471000000001,-3.6924577000000003,2.1637597,0.00958738,0.11611383,0.5411543000000001,-22.2,24.54,-46.32
1554880190716,8.623915,-3.4290953,1.8764555,0.017044231,0.12144015,0.5411543000000001,-22.14,24.78,-46.26
1554880190735,8.456321,-3.2806550000000003,1.7232267,-0.03834952,0.11717909,0.5294364,-22.08,25.02,-46.26
1554880190755,8.389283,-3.208829,1.8046296000000002,-0.15126756,0.09161274,0.49960902,-21.96,25.32,-46.26
1554880190776,8.513782,-3.2950199999999996,1.8860323,-0.22477080000000002,0.036218993,0.42717105,-21.84,25.68,-46.26
1554880190796,8.298303,-3.3907879999999997,1.9339164,-0.20453078,0.010652645,0.37284255,-21.66,25.98,-46.2
1554880190816,8.384495,-3.4434607,2.0775685,-0.10759171,-0.02130529,0.25566345,-21.48,26.34,-46.2
1554880190835,8.394072,-3.5009214999999996,2.1158757,-0.017044231,-0.029827405,0.14061491,-21.3,26.64,-46.2
1554880190855,8.485051,-3.6014779000000003,2.235586,0.03195793,-0.041545313,0.02130529,-21.06,26.88,-46.2
1554880190875,8.528147,-3.5727474999999997,2.2930467,0.024501082,-0.051132694000000006,-0.07882957,-20.94,27.0,-46.2
1554880190896,8.494628,-3.7738605000000005,2.1398177000000005,-0.03195793,-0.033023197000000004,-0.113983296,-20.82,27.24,-46.14
1554880190915,8.394072,-3.9749733999999997,2.2930467,-0.165116,0.010652645,-0.11930962,-20.7,27.42,-46.14
1554880190936,8.403648,-3.9845502,2.2786815,-0.28975195,0.056459017,-0.10652645,-20.7,27.6,-46.08
1554880190957,8.485051,-4.1186256000000006,2.1493945,-0.40266997,0.08948222,-0.084155895,-20.7,27.84,-46.02
1554880190976,8.485051,-4.061165,2.0967221,-0.4878911,0.07882957,-0.08841695,-20.76,28.08,-45.9
1554880190996,8.408437,-4.223970400000001,2.4319102999999997,-0.5006742999999999,0.04580637,-0.12037488,-20.82,28.32,-45.84
1554880191016,8.317456,-4.377199,2.5755625,-0.39734364,0.002130529,-0.17257284,-20.82,28.62,-45.72
1554880191036,8.360553,-4.6261964,2.7287915000000003,-0.20133498,-0.014913702,-0.23116238,-20.82,28.92,-45.6
1554880191056,8.427589999999999,-4.458602,2.5516205000000003,-0.022370555,-0.017044231,-0.30040458,-20.82,29.1,-45.54
1554880191076,8.413225,-4.3436804,2.379238,0.07669904,-0.004261058,-0.34940675,-20.88,29.34,-45.42
1554880191096,8.355764,-4.204817,2.498948,0.07776430000000001,0.04474111,-0.35260254,-20.88,29.76,-45.24
1554880191115,8.327033,-4.0755300000000005,2.2786815,0.02130529,0.084155895,-0.34727620000000003,-20.88,29.88,-45.18
1554880191137,8.283937,-4.018069000000001,2.2643162999999995,-0.099069595,0.12037488,-0.3334278,-20.88,30.06,-45.06
1554880191155,8.365341,-4.051588,2.3744495,-0.25353295,0.12144015,-0.3291667,-20.88,30.24,-44.94
1554880191176,8.485051,-4.156933,2.2930467,-0.32597092,0.1107875,-0.33555830000000003,-20.88,30.42,-44.82
1554880191196,8.513782,-4.4059295999999994,2.6042929,-0.3323625,0.111852765,-0.3536678,-20.94,30.48,-44.7
1554880191216,8.585608,-4.6022544000000005,2.6665419999999997,-0.22796659,0.10333065,-0.3749731,-21.0,30.48,-44.64
1554880191236,8.671799,-4.6932339999999995,2.7096379,-0.16085494,0.08948222,-0.4016047,-21.0,30.48,-44.58
1554880191256,8.743625,-4.7219644,2.570774,-0.113983296,0.07243799,-0.39095205,-21.06,30.48,-44.58
1554880191275,8.75799,-4.707599,2.3409307,-0.1470065,0.10546118,-0.3323625,-21.06,30.54,-44.52
1554880191296,8.719683,-4.717176,2.3026235,-0.27164245,0.14807177,-0.21518342,-21.06,30.6,-44.52
1554880191316,8.858546,-4.9135003,2.2260091,-0.46232477,0.17470337,-0.09054748,-21.12,30.72,-44.52
1554880191335,8.556877,-5.105036699999999,2.297835,-0.60293967,0.19600865,0.040480047000000005,-21.12,30.84,-44.46
1554880191355,8.604761,-5.109825,2.355296,-0.6593986999999999,0.19920446,0.16298546,-21.12,31.02,-44.46
1554880191375,8.595184,-5.2103815,2.4941597,-0.6530071,0.1949434,0.27696875,-21.24,31.32,-44.4
1554880191396,8.676587,-5.2726307,2.235586,-0.6444850000000001,0.17576863,0.39840892,-21.3,31.68,-44.4
1554880191416,8.714894000000001,-5.7418942,1.9674352,-0.68816084,0.16724652,0.5273059,-21.36,32.28,-44.22
1554880191435,8.6095495,-5.7754129999999995,1.8956091,-0.76485986,0.16937704,0.67218184,-21.36,32.88,-44.04
1554880191455,8.580819,-6.0866594,1.9243397,-0.85327685,0.16298546,0.8127968000000001,-21.36,33.48,-43.74
1554880191475,8.643068,-6.469731299999999,1.8956091,-0.87351686,0.1470065,0.93636745,-21.3,34.2,-43.44
1554880191495,8.499416,-6.5942300000000005,1.8860323,-0.83516735,0.14168017,1.0663296999999998,-21.12,35.04,-43.14
1554880191515,8.350976,-6.785766000000001,1.4838065,-0.8213189000000001,0.14168017,1.2016183,-20.94,36.06,-42.84
1554880191536,8.063671000000001,-6.8671690000000005,1.3066356000000001,-0.8852348,0.1438107,1.3401027,-20.64,37.26,-42.54
1554880191555,8.058883,-7.211933999999999,1.1534066,-1.0013485999999998,0.13315806,1.4626081,-20.28,38.58,-42.18
1554880191575,7.675811,-7.398681599999999,1.2156559,-1.0940266,0.10013486,1.5883093000000001,-19.92,39.72,-41.82
1554880191596,7.5561004,-7.820061,0.97623575,-1.1515508999999997,0.036218993,1.7267936000000002,-19.56,41.1,-41.28
1554880191615,7.3789296,-8.217499,1.0672153999999998,-1.1377025,-0.01917476,1.7757957999999998,-19.08,42.66,-40.68
1554880191635,7.268796400000001,-8.801684,0.717662,-0.9853696,-0.096939065,1.8237327,-18.54,44.22,-40.02
1554880191656,6.895301,-8.859145,0.8182184,-0.6402239000000001,-0.15020229,1.9345202000000001,-17.94,45.9,-39.36
1554880191676,6.4499793,-8.705916,0.7032967,-0.43569317,-0.22690132,2.0165455000000003,-17.28,47.46,-38.64
1554880191696,6.229712999999999,-8.873510000000001,0.45429978,-0.27803403,-0.30786142,2.0857878,-16.56,49.02,-37.92
1554880191717,5.8705826,-8.811261,0.22924481,-0.22370553,-0.36005938,2.1177456,-15.78,50.34,-37.14
1554880191736,5.511451999999999,-8.763377,0.08559271,-0.18748654,-0.40266997,2.1283984,-14.94,51.6,-36.42
1554880191756,5.21936,-8.614936,0.17178397,-0.22583607,-0.44208476,2.118811,-13.98,52.62,-35.94
1554880191776,4.817133999999999,-8.610147,0.17178397,-0.29294774,-0.49108690000000005,2.0676782,-13.08,53.34,-35.58
1554880191796,4.534618,-8.509591,0.43035775,-0.28229508,-0.53476274,2.0026971999999996,-12.24,54.0,-35.16
1554880191816,4.0845080000000005,-8.643666,0.42078096,-0.19281286,-0.5699165,1.9238676,-11.46,54.6,-34.74
1554880191836,3.8786068,-8.859145,0.38726214,-0.07243799,-0.59761333,1.8237327,-10.74,55.02,-34.32
1554880191856,3.4811692,-8.825626,0.43514615,0.043675844000000005,-0.608266,1.7097494999999998,-9.96,55.2,-33.96
1554880191876,2.954445,-8.480861,0.30585927,0.15552860000000002,-0.58909124,1.6298546,-9.12,55.44,-33.72
1554880191896,2.60968,-8.614936,0.44951138,0.22690132,-0.58483016,1.562743,-8.4,55.68,-33.48
1554880191916,2.5139117000000004,-8.54311,0.34895490000000007,0.25992453,-0.59867865,1.5020228999999998,-7.74,55.86,-33.36
1554880191936,2.2505496,-8.677185,0.20530279,0.25672874,-0.5954828000000001,1.4572818,-7.26,56.04,-33.24
1554880191956,1.8339584999999998,-8.883087,0.43993455,0.21198763,-0.57417756,1.4285196000000002,-6.78,56.16,-33.24
1554880191976,1.6998832,-8.911817999999998,0.3298013,0.15552860000000002,-0.5571333,1.3869743,-6.3,56.1,-33.18
1554880191995,1.5897499,-9.266159,0.061650693,0.084155895,-0.53263223,1.3369069,-5.88,55.86,-33.24
1554880192016,1.3072342,-9.548675,0.04249708,0.040480047000000005,-0.4889564,1.3102753,-5.46,55.56,-33.3
1554880192036,0.94810385,-9.519944,0.14784196,0.03089267,-0.44954160000000004,1.2974921,-5.16,55.26,-33.48
1554880192056,0.39743748,-9.610924,0.18614918,0.04474111,-0.43782368,1.2911005,-4.56,54.72,-33.66
1554880192076,0.12928689,-9.539098,0.090381116,-0.015978966,-0.45380265,1.2921658,-4.2,54.42,-33.84
1554880192095,-0.34955344,-9.476849000000001,0.22445641,-0.041545313,-0.47510794,1.2836437,-4.02,54.24,-33.9
1554880192115,-0.60812724,-9.826402999999999,0.17657238,-0.049002163,-0.53263223,1.2591426000000001,-3.42,53.7,-34.14
1554880192136,-0.9816226999999998,-9.701903999999999,0.14305355,-0.010652645,-0.5656554,1.2538162,-3.0,53.46,-34.32
1554880192155,-1.3215994,-9.721058,0.22924481,0.011717908999999999,-0.5944176,1.2580773,-2.58,53.28,-34.44
1554880192176,-1.7094599999999998,-9.6923275,0.28670564,0.06604639400000001,-0.6412892,1.2761868,-2.22,53.1,-34.62
1554880192196,-2.0398598000000003,-9.788095,0.30585927,0.1107875,-0.7126619000000001,1.3070794,-1.8,52.86,-34.74
1554880192216,-2.1212628,-10.041881,0.26755205,0.113983296,-0.7861651999999999,1.3432984,-1.44,52.56,-34.86
1554880192236,-2.327164,-10.022727,0.11432313,0.12996227,-0.8404937,1.3741912,-1.08,52.26,-34.98
1554880192255,-2.528277,-10.017939,0.08080431,0.1949434,-0.87990844,1.4114753999999998,-0.72,51.84,-35.16
1554880192275,-2.8682537,-9.807249,0.25318682,0.24714136,-0.8990832000000001,1.4658038999999998,-0.48,51.3,-35.4
1554880192296,-3.0262709,-10.041881,0.54049104,0.3174488,-0.9331716999999998,1.5211976999999999,-0.36,50.7,-35.76
1554880192316,-3.3039982000000006,-10.113707000000002,0.53570265,0.350472,-0.96939063,1.5797871,-0.24,50.04,-36.12
1554880192335,-3.7110126000000005,-9.845556,0.7272388000000001,0.41758367,-1.0120013,1.6373115,-0.18,49.32,-36.48
1554880192356,-3.9073372,-9.524733,0.8038531999999999,0.43462790000000007,-1.0535465,1.7150756999999999,-0.24,48.6,-36.78
1554880192376,-4.0845080000000005,-9.44333,0.75596917,0.43249738,-1.0823087,1.7939054,-0.3,47.82,-37.14
1554880192395,-4.4580035,-9.218275,1.4119805,0.47510794,-1.099353,1.8492991,-0.36,46.92,-37.44
1554880192415,-4.4580035,-9.098564999999999,1.4646529,0.57311225,-1.1089402,1.8993665000000002,-0.36,45.96,-37.74
1554880192436,-4.582502,-8.696339,1.8860323,0.6870956,-1.0855045,1.9409119,-0.36,44.94,-38.04
1554880192455,-4.6016555,-8.485649,1.7184383,0.7435546,-1.0684601999999999,1.9728698,-0.42,43.86,-38.34
1554880192475,-4.8602295,-7.839214999999999,1.8046296000000002,0.7392935,-1.0120013,1.9963056000000001,-0.42,42.66,-38.76
1554880192496,-5.046977,-6.713939999999999,1.8908207,0.6125271,-0.9193232,2.0250678,-0.48,41.34,-39.36
1554880192516,-5.0517654,-6.536769400000001,2.0536265,0.38136467,-0.83516735,2.0208068,-0.54,39.84,-40.02
1554880192536,-5.3103394999999995,-6.4505777,2.1158757,0.15765914,-0.75101143,1.965413,-0.6,38.4,-40.86
1554880192556,-5.386954,-6.2542534000000005,2.5228900000000003,0.025566347000000003,-0.68176925,1.9004318,-0.66,37.08,-41.64
1554880192575,-5.3390699999999995,-6.0387754000000005,2.6665419999999997,0.035153727999999995,-0.628506,1.8184064999999998,-0.72,35.94,-42.48
1554880192596,-5.430049400000001,-5.727529,3.0879216,0.14168017,-0.567786,1.7406421000000003,-0.78,34.92,-43.2
1554880192617,-5.396530599999999,-5.3683987,3.0065188,0.36112466,-0.51665324,1.6468988999999998,-0.9,34.08,-43.8
1554880192635,-5.3007627,-5.33488,3.0544027999999996,0.54435015,-0.44954160000000004,1.5371766000000002,-1.02,33.12,-44.22
1554880192656,-5.592855,-4.5926776,3.198055,0.60933125,-0.38456047,1.3933659,-1.14,32.1,-44.52
1554880192676,-5.635950599999999,-4.1904516,3.2076318,0.58056915,-0.3270362,1.2346416,-1.2,31.32,-44.7
1554880192696,-5.7700260000000005,-4.085107,3.1597476,0.50173956,-0.2790993,1.0801781000000001,-1.26,30.6,-44.82
1554880192716,-6.0956373,-4.018069000000001,3.3081882000000005,0.43782368,-0.23648871,0.9108011,-1.32,29.76,-45.12
1554880192736,-6.2392898,-3.8456864,3.5045127999999997,0.36218992,-0.20133498,0.753142,-1.44,28.8,-45.36
1554880192756,-6.430825700000001,-3.8552632000000004,3.6625300000000003,0.23755397,-0.16831179,0.6199839,-1.5,27.84,-45.6
1554880192777,-6.71813,-4.085107,3.5140896,0.08522116,-0.13741912,0.5070659000000001,-1.56,26.76,-45.9
1554880192796,-6.9623384,-4.1425676,3.6721067,-0.0053263223,-0.10652645,0.43995422,-1.56,25.92,-46.14
1554880192816,-7.177817,-4.147355999999999,3.5523968,-0.101200126,-0.051132694000000006,0.38349520000000004,-1.62,25.38,-46.44
1554880192836,-7.177817,-4.267066000000001,3.6625300000000003,-0.17470337,-0.004261058,0.34940675,-1.62,24.84,-46.68
1554880192856,-7.311891999999999,-4.621408,3.8349125,-0.2066613,0.03089267,0.30360037,-1.68,24.18,-46.92
1554880192876,-7.345411,-4.487332299999999,3.5811272000000005,-0.18002969,0.037284255,0.28655612,-1.68,23.88,-46.92
1554880192895,-7.3645644,-4.252701,3.5476084,-0.12570119999999999,0.043675844000000005,0.27057716,-1.8,23.64,-46.92
1554880192917,-7.345411,-4.123414,3.7535098,-0.080960095,0.05219796,0.26525086,-1.86,23.58,-46.98
1554880192935,-7.5082164,-4.2718544000000005,3.614646,-0.04580637,0.058589544,0.23329292,-1.98,23.58,-46.98
1554880192955,-7.5321584,-4.156933,3.7822402000000004,-0.04261058,0.068176925,0.19387813,-2.1,23.52,-46.98
1554880192975,-7.7093296,-4.0707417,3.8349125,-0.047936900000000005,0.07350325,0.16831179,-2.22,23.52,-46.98
1554880192995,-7.6470804,-3.9653966,4.079121,-0.04474111,0.06178534,0.13102753,-2.28,23.52,-46.98
1554880193016,-7.7093296,-3.9893386,4.088698,-0.013848438000000001,0.046871635999999994,0.10439592,-2.34,23.52,-46.92
1554880193036,-7.7189064,-3.9175123999999997,4.040814,0.043675844000000005,0.025566347000000003,0.07137272,-2.28,23.52,-46.92
1554880193056,-7.8050976,-4.209605000000001,3.8492777,0.08841695,0.010652645,0.035153727999999995,-2.22,23.52,-46.86
1554880193076,-7.891288799999999,-4.247912400000001,3.8827964999999995,0.13528858,0.008522116,0.017044231,-2.1,23.58,-46.86
1554880193096,-8.039729,-4.032433999999999,3.9211037,0.14807177,0.008522116,0.01917476,-1.92,23.58,-46.8
1554880193116,-7.943961,-3.9558197999999996,3.8397010000000003,0.14913702,0.0,0.014913702,-1.8,23.58,-46.74
1554880193136,-7.991845,-3.9749733999999997,3.8971617,0.18109496,-0.008522116,0.011717908999999999,-1.68,23.52,-46.74
1554880193157,-8.025364,-3.9223008000000004,3.9594111000000005,0.25140239999999997,-0.0010652645,0.012783173500000002,-1.56,23.52,-46.68
1554880193177,-7.953538000000001,-3.7594953,3.7343562000000006,0.27164245,0.0053263223,0.015978966,-1.5,23.46,-46.62
1554880193195,-8.010999,-3.9893386,3.887585,0.294013,0.010652645,0.022370555,-1.5,23.4,-46.56
1554880193217,-7.967903,-3.8121676,3.6673183,0.35579833,0.0031957934000000003,0.02130529,-1.5,23.4,-46.56
1554880193235,-8.082825,-3.6206315000000004,3.7056258,0.38136467,0.007456851,0.023435817999999997,-1.44,23.28,-46.62
1554880193256,-8.001422,-3.4674027,3.54282,0.3898868,0.017044231,0.02876214,-1.44,23.16,-46.62
1554880193276,-8.073248,-3.3955764999999998,3.6864722000000003,0.330232,0.023435817999999997,0.04261058,-1.44,22.8,-46.68
1554880193295,-8.020576,-3.5152867,3.4997244,0.22583607,0.020240024,0.05965481,-1.38,22.38,-46.74
1554880193315,-8.039729,-3.7307648999999996,3.767875,0.14487597,0.035153727999999995,0.05752428,-1.38,21.84,-46.8
1554880193335,-7.991845,-3.4003648999999996,3.7966053,0.22583607,0.040480047000000005,0.025566347000000003,-1.38,21.36,-46.92
1554880193355,-8.039729,-3.2662897,3.7104141999999998,0.25885928,-0.0063915867,0.026631612000000002,-1.32,20.82,-47.1
1554880193376,-7.9248075,-3.1896752999999998,3.3895910000000002,0.24820662,-0.03834952,0.015978966,-1.32,20.28,-47.22
1554880193395,-8.010999,-3.1896752999999998,3.6098576,0.16192019,-0.037284255,0.002130529,-1.32,19.74,-47.34
1554880193416,-7.896077,-3.5152867,3.4326867999999995,0.06178534,-0.054328485999999995,-0.010652645,-1.26,19.26,-47.4
1554880193435,-8.1163435,-3.3237504999999996,3.9306807999999998,0.023435817999999997,0.0031957934000000003,-0.027696876000000002,-1.26,18.84,-47.46
1554880193455,-8.231264999999999,-3.6637269999999997,3.9594111000000005,0.015978966,0.0010652645,-0.017044231,-1.26,18.48,-47.52
1554880193477,-8.130709,-3.5535938999999996,3.6194344,0.035153727999999995,-0.010652645,-0.0010652645,-1.32,18.12,-47.58
1554880193495,-8.149861999999999,-3.5057099999999997,3.9258924,0.039414786,0.010652645,0.02130529,-1.38,17.7,-47.58
1554880193516,-8.034941,-3.4290953,3.7152026,0.07882957,0.0031957934000000003,0.033023197000000004,-1.38,17.34,-47.58
1554880193536,-7.987056699999999,-3.1322143,3.7870286,0.06498113,0.014913702,0.029827405,-1.5,16.98,-47.58
1554880193556,-8.001422,-3.103484,3.6337996,0.03834952,0.024501082,0.00958738,-1.56,16.62,-47.58
1554880193576,-8.0445175,-3.141791,3.9689879999999995,0.0031957934000000003,0.05219796,-0.011717908999999999,-1.62,16.26,-47.58
1554880193596,-8.106767,-3.3572693,3.8301241000000004,-0.046871635999999994,0.036218993,-0.025566347000000003,-1.62,16.08,-47.52
1554880193616,-8.130709,-3.5823242999999994,3.8492777,-0.06391586,0.037284255,-0.014913702,-1.68,15.96,-47.52
1554880193635,-7.967903,-3.0651767000000003,3.7726634,0.06604639400000001,0.06285059999999999,-0.04261058,-1.68,15.96,-47.52
1554880193655,-8.063671000000001,-3.328539,3.6673183,0.0,0.06711166,-0.036218993,-1.62,15.96,-47.52
1554880193676,-8.09719,-3.2710779999999997,3.8013937000000007,-0.027696876000000002,0.051132694000000006,-0.035153727999999995,-1.62,15.96,-47.52
1554880193695,-8.101977999999999,-3.4530375,3.5236663999999998,-0.07137272,0.043675844000000005,-0.027696876000000002,-1.56,16.14,-47.52
1554880193716,-8.145074000000001,-3.4195184999999997,3.7487214,-0.12783173,0.026631612000000002,-0.029827405,-1.56,16.32,-47.52
1554880193736,-7.9343843,-3.6302083,3.5476084,-0.16724652,0.007456851,-0.033023197000000004,-1.5,16.62,-47.52
1554880193755,-8.0684595,-3.4865562999999993,3.9115269999999995,-0.128897,0.004261058,-0.039414786,-1.44,16.98,-47.52
1554880193776,-8.121132000000001,-3.6062663,3.8971617,-0.08841695,-0.007456851,-0.037284255,-1.38,17.28,-47.52
1554880193795,-8.0924015,-3.5775358999999995,3.7870286,-0.036218993,-0.020240024,-0.036218993,-1.32,17.64,-47.46
1554880193815,-8.125919999999999,-3.5966894999999997,3.8061821000000005,-0.008522116,-0.015978966,-0.043675844000000005,-1.2,18.0,-47.46
1554880193835,-8.030152000000001,-3.5583823,3.9402574999999995,0.0053263223,-0.004261058,-0.046871635999999994,-1.08,18.3,-47.46
1554880193856,-8.015787,-3.3524809999999996,3.8732197,0.02876214,-0.011717908999999999,-0.060720075,-0.96,18.54,-47.46
1554880193876,-8.010999,-3.2375592999999996,3.6816837999999996,0.05752428,-0.007456851,-0.06924219,-0.84,18.66,-47.46
1554880193896,-7.915230800000001,-2.9694088,3.7487214,0.025566347000000003,0.013848438000000001,-0.098004326,-0.72,18.72,-47.46
1554880193915,-7.9343843,-3.0029275,3.767875,-0.060720075,0.04261058,-0.13209279,-0.66,18.84,-47.4
1554880193935,-7.785944000000001,-3.0891187,3.7104141999999998,-0.13315806,0.054328485999999995,-0.18109496,-0.54,18.9,-47.4
1554880193955,-7.8386164,-3.1609447,3.8827964999999995,-0.17257284,0.084155895,-0.24394555,-0.42,18.96,-47.28
1554880193978,-7.7093296,-3.0172927000000005,3.7008373999999997,-0.16937704,0.101200126,-0.294013,-0.42,19.02,-47.22
1554880193995,-7.5944076,-2.9885623,3.8301241000000004,-0.15765914,0.113983296,-0.330232,-0.42,19.08,-47.16
1554880194015,-7.4699089999999995,-2.8113914,3.9019501000000005,-0.10546118,0.12250541,-0.40586576,-0.42,19.14,-47.1
1554880194037,-7.038953,-3.0508115,3.5763388,-0.10546118,0.13422333,-0.50173956,-0.42,19.32,-47.04
1554880194056,-6.6415157,-2.8161798,3.5859156000000003,-0.112918034,0.14168017,-0.63383234,-0.42,19.44,-46.98
1554880194075,-6.2823853,-2.4474726,3.5140896,-0.099069595,0.13848437,-0.7819041,-0.42,19.62,-46.98
1554880194096,-5.8801594,-1.9686323000000001,3.6625300000000003,-0.13422333,0.13422333,-0.9981528000000001,-0.42,19.86,-46.92
1554880194116,-5.329493,-1.7052702000000002,3.6864722000000003,-0.07030745599999999,0.12570119999999999,-1.2431636000000001,-0.42,20.16,-46.98
1554880194136,-4.807557,-1.8201918999999998,3.8492777,0.113983296,0.08948222,-1.5339808000000001,-0.36,20.58,-46.98
1554880194156,-4.036624,-2.5384523999999997,2.9730000000000003,0.30253512,0.04261058,-1.8620822,-0.36,21.12,-47.04
1554880194176,-3.7828386,-2.2511482000000003,2.5755625,0.35792887,0.04580637,-2.183792,-0.36,21.66,-47.04
1554880194195,-3.6822822,-2.179322,2.5228900000000003,0.26525086,0.07563378,-2.4778051,-0.3,22.14,-47.04
1554880194215,-3.2321722999999998,-2.6725276,2.5133132999999996,0.11824436,0.07669904,-2.743056,-0.3,22.62,-46.98
1554880194236,-2.7150247000000003,-4.185663,2.28347,-0.07563378,0.053263225,-3.0296119999999997,-0.24,23.04,-46.98
1554880194255,-2.3223755,-5.00448,2.0392613,-0.27483824,0.056459017,-3.3044502999999996,-0.24,23.4,-46.92
1554880194277,-1.9680338,-5.382764,1.6226702,-0.5763081,0.084155895,-3.5111117,-0.3,23.82,-46.92
1554880194297,-1.6041151000000002,-6.187216,1.6897078999999997,-0.91825795,0.16085494,-3.6016589999999997,-0.48,24.3,-46.86
1554880194317,-1.0869676000000001,-7.451353999999999,1.9147629000000002,-1.1579423999999998,0.20985709,-3.6602487999999997,-0.66,25.08,-46.74
1554880194337,-0.90021986,-8.227076,2.1015105,-1.2612731000000001,0.25566345,-3.717773,-0.96,26.1,-46.56
1554880194357,-0.48362875,-9.309255,2.0679917000000003,-1.1472898999999999,0.2972088,-3.7838193999999996,-1.32,27.3,-46.26
1554880194377,0.21547815,-10.616488,1.7280151000000001,-0.92464954,0.35473305,-3.8860848,-1.8,28.86,-45.84
1554880194397,0.2777274,-10.49199,1.9961656000000003,-0.5901565,0.44421527,-3.9521309999999996,-2.28,30.54,-45.42
1554880194417,0.7086836999999999,-10.664372,2.1829132999999996,-0.23435818,0.46019423,-3.9340217000000006,-2.82,32.34,-45.0
1554880194436,1.1731589,-10.879850999999999,2.2451627,-0.034088463,0.38349520000000004,-3.9244342000000003,-3.42,34.32,-44.58
1554880194456,1.9297266,-10.894217,2.3505075,0.10546118,0.30679616,-3.8775625,-3.96,36.0,-44.16
1554880194476,2.7772740000000002,-11.483189999999999,2.5755625,0.28655612,0.257794,-3.7252297,-5.04,37.92,-43.62
1554880194496,3.2896330000000003,-11.837532000000001,2.8628666000000003,0.4825648,0.20879184,-3.6677055,-5.46,38.4,-43.5
1554880194515,4.156333999999999,-11.780071000000001,2.273893,0.664725,0.08735169,-3.6464002,-6.24,39.24,-43.32
1554880194535,4.9224787,-10.956466,1.9387047999999998,0.69029135,0.039414786,-3.5952675000000003,-7.02,39.66,-43.26
1554880194556,5.487509999999999,-11.267712,2.3026235,0.56885123,0.082025364,-3.2927324999999996,-8.4,39.6,-43.2
1554880194575,6.100425700000001,-11.406575,2.7287915000000003,0.42290998,0.025566347000000003,-3.1329427000000005,-9.36,39.06,-43.32
1554880194595,6.191406,-11.12406,3.0831332000000002,0.27164245,-0.034088463,-3.0423953999999997,-9.84,38.76,-43.44
1554880194615,6.7229185,-10.008362,2.9586349,0.20879184,-0.101200126,-2.8687572,-11.34,37.38,-43.68
1554880194635,6.9719152,-9.644442999999999,2.9921536,0.22903186,-0.07563378,-2.6525084999999997,-12.12,36.54,-43.92
1554880194656,6.981492,-9.199121,3.116652,0.22690132,-0.068176925,-2.453304,-12.84,35.58,-44.1
1554880194676,7.2831616,-8.5383215,3.0304607999999997,0.16085494,-0.098004326,-2.3446472000000003,-13.56,34.68,-44.34
1554880194696,7.3071036,-7.724292999999999,2.8006175,0.08948222,-0.10546118,-2.2913837000000004,-14.28,33.78,-44.64
1554880194716,7.599196000000001,-7.140108000000001,2.8868085999999997,0.05539375,-0.099069595,-2.218946,-15.0,32.88,-44.88
1554880194736,7.7811556,-6.9485717000000005,3.1501707999999997,0.008522116,-0.10013486,-2.1742048,-15.6,31.98,-45.0
1554880194756,8.178593,-6.8623804999999996,3.3225534,-0.037284255,-0.12357068,-2.1326593999999996,-16.14,31.2,-45.24
1554880194775,8.532935,-6.713939999999999,3.413533,-0.05219796,-0.13741912,-2.0889835,-16.68,30.48,-45.42
1554880194795,8.99741,-6.579865,3.1932666000000003,-0.0063915867,-0.13102753,-2.010154,-17.34,29.64,-45.66
1554880194815,9.107543,-6.3021374,2.9825767999999995,0.033023197000000004,-0.08841695,-1.8727348999999998,-17.94,28.86,-45.9
1554880194835,9.289502,-6.139332,2.795829,-0.0031957934000000003,-0.049002163,-1.6724651999999998,-18.42,27.96,-46.14
1554880194855,9.160214999999999,-5.737106,2.6330232999999996,-0.15659387,-0.017044231,-1.4434333000000001,-18.9,27.18,-46.32
1554880194875,9.136273,-5.842450599999999,2.441487,-0.46339005,-0.023435817999999997,-1.1547466999999998,-19.26,26.58,-46.44
1554880194895,9.064447,-5.751471,2.2786815,-0.7978831000000001,-0.04474111,-0.89588743,-19.68,26.1,-46.62
1554880194916,8.820239,-5.837662,2.1829132999999996,-1.0695255,-0.05965481,-0.60080916,-19.98,25.68,-46.68
1554880194936,8.470686,-5.861604,2.3888147,-1.1515508999999997,-0.07243799,-0.40373522,-20.16,25.26,-46.68
1554880194955,8.212111,-5.990891,2.7910407000000004,-1.1110708999999999,-0.101200126,-0.2790993,-20.28,24.96,-46.68
1554880194975,8.106767,-5.799355,2.8149827000000003,-0.99282646,-0.12463594,-0.18429075,-20.4,24.84,-46.62
1554880194996,7.991845,-5.6940102999999995,2.7527334999999997,-0.7392935,-0.15446335,-0.07989483,-20.46,24.96,-46.5
1554880195016,7.905653999999999,-5.5647235,2.6569653,-0.40266997,-0.16192019,0.007456851,-20.46,25.32,-46.32
1554880195035,7.8386164,-5.277419,2.6617537000000002,-0.19600865,-0.17470337,0.027696876000000002,-20.52,25.8,-46.14
1554880195055,7.987056699999999,-5.172074299999999,2.7335799,-0.07563378,-0.19813919,0.049002163,-20.52,26.4,-45.96
1554880195075,8.030152000000001,-5.105036699999999,2.7431567,0.014913702,-0.20879184,0.083090626,-20.64,27.12,-45.72
1554880195096,8.121132000000001,-4.970961,2.6617537000000002,0.082025364,-0.19174760000000002,0.128897,-20.7,27.78,-45.54
1554880195116,8.288725999999999,-4.894346700000001,2.6952724,0.11611383,-0.16298546,0.15765914,-20.82,28.44,-45.36
1554880195136,8.350976,-4.7698483,2.6473885,0.12996227,-0.14487597,0.19281286,-21.0,28.92,-45.24
1554880195156,8.494628,-4.7698483,2.5995044999999997,0.13848437,-0.13315806,0.23755397,-21.12,29.34,-45.18
1554880195175,8.6813755,-4.6884456,2.6042929,0.13848437,-0.13422333,0.27803403,-21.24,29.52,-45.18
1554880195195,8.714894000000001,-4.587889,2.5611973,0.15339808,-0.13102753,0.32384038,-21.42,29.58,-45.18
1554880195216,8.75799,-4.4442368,2.5420437000000002,0.17044231,-0.12570119999999999,0.3685815,-21.66,29.52,-45.24
1554880195236,8.676587,-4.463390400000001,2.3744495,0.17470337,-0.10759171,0.39521313,-21.78,29.4,-45.3
1554880195256,8.667010000000001,-4.214393599999999,2.441487,0.18961707,-0.10652645,0.4133226,-21.9,29.28,-45.3
1554880195276,8.571242,-4.243124,2.345719,0.20772657,-0.10865697,0.41438788,-22.02,29.16,-45.24
1554880195295,8.628703,-4.0563765,2.28347,0.23116238,-0.10865697,0.41225734,-22.08,29.1,-45.24
1554880195316,8.623915,-4.0276456,2.0967221,0.24181503,-0.09374327,0.39095205,-22.2,28.92,-45.24
1554880195335,8.590396,-3.946243,1.9865887999999998,0.24820662,-0.07243799,0.36964676,-22.2,28.86,-45.18
1554880195355,8.676587,-3.9079356,2.0009542000000002,0.22264028,-0.053263225,0.34194988,-22.26,28.8,-45.12
1554880195376,8.7532015,-3.9510313999999997,2.0201077,0.17470337,-0.03195793,0.294013,-22.26,28.86,-45.06
1554880195396,8.695741,-3.9653966,2.0679917000000003,0.14168017,-0.012783173500000002,0.24181503,-22.2,28.86,-45.06
1554880195415,8.690952000000001,-3.9989154,1.9003976999999999,0.13315806,0.0010652645,0.19813919,-22.14,28.86,-45.0
1554880195435,8.6813755,-3.8456864,1.9674352,0.12783173,0.023435817999999997,0.15339808,-22.14,28.86,-45.0
1554880195456,8.652645,-3.816956,1.8381484000000001,0.096939065,0.054328485999999995,0.10972224,-22.08,28.86,-45.0
1554880195476,8.537724,-3.86484,1.7854759999999998,0.037284255,0.06924219,0.082025364,-22.02,28.86,-45.0
1554880195496,8.451532,-3.8313212,1.8908207,-0.00958738,0.06924219,0.04580637,-21.96,28.92,-45.0
1554880195515,8.561666,-3.7834373,1.9913772,-0.036218993,0.068176925,0.012783173500000002,-21.9,28.86,-45.06
1554880195535,8.6095495,-3.8696284,1.8189948,-0.060720075,0.06391586,-0.024501082,-21.84,28.92,-45.06
1554880195557,8.6095495,-3.9606082000000002,1.9961656000000003,-0.084155895,0.05752428,-0.07137272,-21.78,28.98,-45.12
1554880195576,8.499416,-3.8983587999999996,2.0440497,-0.08735169,0.05752428,-0.12463594,-21.66,28.98,-45.18
1554880195596,8.513782,-4.0276456,2.0201077,-0.09587380000000001,0.056459017,-0.18429075,-21.6,29.04,-45.24
1554880195616,8.576031,-3.9989154,2.0009542000000002,-0.10546118,0.05965481,-0.24394555,-21.54,29.04,-45.3
1554880195635,8.427589999999999,-4.022857,1.9195513,-0.12570119999999999,0.06498113,-0.29294774,-21.48,29.1,-45.36
1554880195656,8.269572,-4.147355999999999,2.0201077,-0.14274544,0.07563378,-0.32810146,-21.48,29.16,-45.42
1554880195676,8.039729,-4.1329910000000005,2.1877017000000003,-0.14807177,0.07776430000000001,-0.35260254,-21.42,29.16,-45.42
1554880195695,8.149861999999999,-4.1904516,2.273893,-0.14807177,0.07563378,-0.36645097,-21.42,29.16,-45.42
1554880195717,8.250419,-4.214393599999999,2.1398177000000005,-0.1470065,0.068176925,-0.37603834,-21.42,29.16,-45.42
1554880195736,8.341399000000001,-4.300585,2.202067,-0.12463594,0.058589544,-0.39095205,-21.42,29.16,-45.42
1554880195755,8.312667999999999,-4.401141,2.2786815,-0.09374327,0.058589544,-0.406931,-21.42,29.16,-45.36
1554880195775,8.341399000000001,-4.410718,2.28347,-0.06604639400000001,0.060720075,-0.4250405,-21.48,29.16,-45.36
1554880195796,8.542512,-4.463390400000001,2.3026235,-0.041545313,0.07243799,-0.44847634,-21.48,29.1,-45.36
1554880195816,8.643068,-4.4442368,2.1110873,-0.058589544,0.083090626,-0.45593318,-21.54,29.1,-45.36
1554880195835,8.662222,-4.511274299999999,2.144606,-0.098004326,0.09054748,-0.44741106,-21.54,29.1,-45.36
1554880195856,8.647857,-4.5256395,2.2260091,-0.1470065,0.10226539,-0.43036684,-21.6,29.1,-45.36
1554880195876,8.7532015,-4.496909,2.154183,-0.18535602,0.101200126,-0.40586576,-21.66,29.1,-45.36
1554880195895,8.647857,-4.7123876,2.1829132999999996,-0.18855181,0.096939065,-0.37390783,-21.66,29.1,-45.36
1554880195915,8.647857,-4.702811,2.3505075,-0.18002969,0.09054748,-0.33768883,-21.72,29.1,-45.3
1554880195935,8.599973,-4.664503599999999,2.3505075,-0.14913702,0.08735169,-0.30466563,-21.78,29.1,-45.36
1554880195956,8.599973,-4.7602715,2.3600842999999996,-0.10652645,0.08522116,-0.26631612,-21.78,29.1,-45.3
1554880195978,8.494628,-4.664503599999999,2.235586,-0.07243799,0.09054748,-0.22050974,-21.84,29.1,-45.3
1554880195996,8.408437,-4.472967,2.0919337,-0.09054748,0.10439592,-0.15978967,-21.9,29.1,-45.3
1554880196017,8.446744,-4.463390400000001,2.0201077,-0.165116,0.12463594,-0.09374327,-21.9,29.16,-45.3
1554880196037,8.499416,-4.425083,2.2212207000000004,-0.22796659,0.12996227,-0.05219796,-21.9,29.22,-45.24
1554880196057,8.48984,-4.4538136,2.2068555,-0.28549087,0.128897,-0.0063915867,-21.9,29.28,-45.24
1554880196076,8.437167,-4.511274299999999,2.168548,-0.28336033,0.12783173,0.027696876000000002,-21.96,29.34,-45.18
1554880196096,8.48984,-4.3388919999999995,1.977012,-0.26631612,0.12463594,0.05965481,-21.96,29.46,-45.18
1554880196116,8.513782,-4.267066000000001,2.0248961,-0.2609898,0.12463594,0.080960095,-21.96,29.52,-45.12
1554880196135,8.51857,-4.2957964,2.0344729999999998,-0.257794,0.12037488,0.08628642,-21.96,29.64,-45.06
1554880196156,8.552089,-4.300585,2.1254525,-0.23329292,0.09374327,0.07776430000000001,-21.96,29.76,-45.0
1554880196175,8.48984,-4.324527,2.0967221,-0.19707392,0.07030745599999999,0.07030745599999999,-21.96,29.88,-45.0
1554880196195,8.39886,-4.2814309999999995,2.168548,-0.113983296,0.041545313,0.06391586,-21.9,30.18,-44.82
1554880196215,8.432379,-4.247912400000001,2.1254525,-0.06391586,0.024501082,0.06391586,-21.9,30.3,-44.82
1554880196236,8.441956,-4.156933,2.2212207000000004,-0.012783173500000002,0.007456851,0.06285059999999999,-21.84,30.6,-44.7
1554880196255,8.51857,-4.180875,2.1158757,0.015978966,0.0,0.058589544,-21.78,30.84,-44.64
1554880196276,8.470686,-4.1665095999999995,1.9339164,0.018109497,-0.00958738,0.043675844000000005,-21.72,31.14,-44.52
1554880196295,8.283937,-3.970185,2.0105310000000003,0.011717908999999999,-0.013848438000000001,0.035153727999999995,-21.66,31.38,-44.46
1554880196316,8.307879,-4.0755300000000005,2.0344729999999998,-0.007456851,-0.017044231,0.039414786,-21.6,31.68,-44.34
1554880196336,8.394072,-4.0803185,1.8716671000000003,-0.027696876000000002,-0.022370555,0.040480047000000005,-21.54,31.92,-44.34
1554880196356,8.528147,-4.089895200000001,2.0488381,-0.03834952,-0.026631612000000002,0.034088463,-21.48,32.04,-44.28
1554880196376,8.590396,-4.0755300000000005,2.0488381,-0.022370555,-0.035153727999999995,0.020240024,-21.48,32.16,-44.22
1554880196395,8.523358,-4.085107,2.0632033,0.0031957934000000003,-0.04261058,0.007456851,-21.48,32.22,-44.22
1554880196416,8.499416,-4.094683600000001,2.1398177000000005,0.020240024,-0.05539375,-0.0053263223,-21.48,32.22,-44.16
1554880196436,8.51857,-4.022857,2.0871453,0.020240024,-0.06285059999999999,-0.010652645,-21.48,32.28,-44.16
1554880196456,8.6334915,-4.061165,2.0344729999999998,0.01917476,-0.068176925,-0.013848438000000001,-21.48,32.28,-44.16
1554880196476,8.671799,-4.1760864,2.0344729999999998,0.029827405,-0.068176925,-0.025566347000000003,-21.48,32.34,-44.1
1554880196496,8.6334915,-4.109049,2.0871453,0.037284255,-0.07030745599999999,-0.039414786,-21.48,32.4,-44.04
1554880196515,8.6095495,-4.0707417,2.0536265,0.041545313,-0.05965481,-0.049002163,-21.48,32.4,-44.04
1554880196535,8.647857,-4.085107,2.0105310000000003,0.023435817999999997,-0.049002163,-0.047936900000000005,-21.48,32.46,-44.1
1554880196555,8.690952000000001,-4.094683600000001,2.0967221,-0.004261058,-0.043675844000000005,-0.054328485999999995,-21.48,32.46,-44.1
1554880196576,8.580819,-4.109049,2.0392613,-0.020240024,-0.039414786,-0.06285059999999999,-21.48,32.52,-44.1
1554880196596,8.791509,-4.1904516,2.1158757,-0.03089267,-0.033023197000000004,-0.07137272,-21.48,32.52,-44.1
1554880196616,9.016563,-4.329315,2.2691047,-0.04261058,-0.022370555,-0.096939065,-21.48,32.58,-44.1
1554880196635,9.227253,-4.3436804,2.3840263,-0.049002163,0.0,-0.12250541,-21.48,32.58,-44.1
1554880196657,9.3182335,-4.420294999999999,2.3169887000000005,-0.07563378,0.022370555,-0.14487597,-21.42,32.58,-44.1
1554880196675,9.097966,-4.482544,2.3409307,-0.10439592,0.035153727999999995,-0.16192019,-21.42,32.58,-44.1
1554880196696,8.580819,-4.329315,2.2260091,-0.13954964,0.05219796,-0.14594123,-21.36,32.58,-44.04
1554880196716,8.078036,-4.257489,2.297835,-0.20559604,0.07350325,-0.112918034,-21.36,32.58,-44.04
1554880196735,7.953538000000001,-4.348469000000001,2.3744495,-0.28336033,0.08522116,-0.07776430000000001,-21.36,32.52,-43.98
1554880196758,7.915230800000001,-4.4777555,2.460641,-0.3057309,0.080960095,-0.06711166,-21.36,32.52,-43.98
1554880196775,7.8673470000000005,-4.43466,2.6473885,-0.22690132,0.060720075,-0.07243799,-21.42,32.46,-43.92
1554880196795,7.943961,-4.425083,2.556409,-0.11504856,0.035153727999999995,-0.07243799,-21.48,32.52,-43.92
1554880196816,7.896077,-4.5016975,2.4462755,-0.047936900000000005,0.020240024,-0.06391586,-21.54,32.52,-43.92
1554880196837,7.987056699999999,-4.420294999999999,2.5276785,-0.035153727999999995,0.007456851,-0.056459017,-21.6,32.64,-43.92
1554880196855,8.054094000000001,-4.511274299999999,2.5037365,-0.033023197000000004,0.0,-0.058589544,-21.66,32.76,-43.86
1554880196875,8.173803999999999,-4.5687356,2.7527334999999997,-0.023435817999999997,-0.0031957934000000003,-0.060720075,-21.72,32.88,-43.86
1554880196896,8.350976,-4.654927,2.6378117000000003,-0.004261058,0.0031957934000000003,-0.05752428,-21.72,33.06,-43.86
1554880196916,8.293514,-4.573524,2.6234465,0.010652645,0.015978966,-0.043675844000000005,-21.78,33.24,-43.8
1554880196935,8.09719,-4.578312400000001,2.4366987,0.0063915867,0.03089267,-0.02130529,-21.72,33.42,-43.8
1554880196956,8.063671000000001,-4.5687356,2.532467,-0.014913702,0.040480047000000005,0.0063915867,-21.6,33.54,-43.74
1554880196976,8.226477000000001,-4.6261964,2.484583,-0.040480047000000005,0.049002163,0.029827405,-21.54,33.6,-43.74
1554880196996,8.422802,-4.7123876,2.4271219,-0.040480047000000005,0.049002163,0.034088463,-21.42,33.6,-43.74
1554880197015,8.446744,-4.7842135,2.3840263,0.002130529,0.047936900000000005,0.036218993,-21.36,33.6,-43.74
1554880197035,8.336611,-4.573524,2.2882583,0.047936900000000005,0.06285059999999999,0.058589544,-21.24,33.6,-43.74
1554880197055,8.1881695,-4.415506400000001,2.1015105,0.018109497,0.07456851,0.09267801,-21.18,33.6,-43.74
1554880197076,8.236053,-4.410718,2.0009542000000002,-0.09587380000000001,0.07882957,0.13848437,-21.06,33.6,-43.74
1554880197095,8.255207,-4.530428,1.8764555,-0.13528858,0.07350325,0.15233281,-21.06,33.66,-43.74
1554880197116,8.379706,-4.5926776,2.1015105,-0.17363810000000002,0.05752428,0.17150758,-21.06,33.72,-43.8
1554880197135,8.508992999999998,-4.530428,1.8716671000000003,-0.15765914,0.023435817999999997,0.18429075,-21.06,33.78,-43.8
1554880197156,8.456321,-4.425083,1.7854759999999998,-0.084155895,-0.022370555,0.18855181,-21.0,34.08,-43.8
1554880197176,8.446744,-4.520851,1.8956091,-0.039414786,-0.05752428,0.18748654,-21.0,34.2,-43.8
1554880197196,8.236053,-4.429871599999999,2.1350293,0.02876214,-0.12037488,0.17896444,-20.94,34.56,-43.74
1554880197215,8.087613000000001,-4.425083,2.235586,0.10439592,-0.1768339,0.17576863,-20.88,34.8,-43.74
1554880197237,8.173803999999999,-4.540005000000001,2.379238,0.20985709,-0.22796659,0.18109496,-20.82,35.04,-43.68
1554880197257,8.240842,-4.540005000000001,2.4702177000000005,0.32490566,-0.26525086,0.18535602,-20.82,35.22,-43.62
1554880197276,8.298303,-4.664503599999999,2.4271219,0.44528055,-0.28655612,0.18961707,-20.76,35.34,-43.5
1554880197296,8.427589999999999,-4.6405616,2.345719,0.54648066,-0.27696875,0.19707392,-20.7,35.46,-43.44
1554880197316,8.576031,-4.401141,2.1254525,0.58909124,-0.23222765,0.21411815,-20.64,35.46,-43.32
1554880197336,8.437167,-4.252701,1.8333599999999999,0.51984906,-0.17470337,0.24714136,-20.64,35.34,-43.2
1554880197356,8.647857,-4.1904516,1.6753427,0.32277513,-0.12357068,0.28122982,-20.64,35.22,-43.2
1554880197376,8.576031,-4.31495,1.6753427,0.099069595,-0.10972224,0.29507825,-20.7,34.86,-43.2
1554880197395,8.418014,-4.487332299999999,2.0344729999999998,-0.007456851,-0.11824436,0.29933932,-20.82,34.56,-43.32
1554880197415,8.374918,-4.425083,1.9482816000000003,0.004261058,-0.12570119999999999,0.30679616,-21.0,34.2,-43.5
1554880197436,8.307879,-4.401141,1.5173253,0.024501082,-0.111852765,0.30360037,-21.18,33.84,-43.62
1554880197456,8.288725999999999,-4.329315,1.7232267,0.0010652645,-0.12463594,0.28975195,-21.3,33.54,-43.8
1554880197476,8.312667999999999,-4.463390400000001,1.6561891,-0.027696876000000002,-0.16192019,0.2609898,-21.42,33.24,-43.92
1554880197496,8.350976,-4.544793599999999,1.7567455,-0.022370555,-0.20772657,0.22370553,-21.6,33.18,-44.04
1554880197515,8.212111,-4.7267528,1.9147629000000002,0.1107875,-0.25885928,0.14061491,-21.72,33.18,-44.04
1554880197536,8.164227499999999,-4.554370400000001,1.8237831999999998,0.27377295,-0.27164245,0.09587380000000001,-21.72,33.3,-43.98
1554880197556,8.207322999999999,-4.324527,1.6130934,0.32810146,-0.25566345,0.060720075,-21.6,33.42,-43.86
1554880197576,8.101977999999999,-4.180875,1.3976152,0.25566345,-0.22370553,0.04474111,-21.54,33.6,-43.74
1554880197596,7.987056699999999,-4.018069000000001,1.3449427999999999,0.10226539,-0.18216023,0.035153727999999995,-21.42,33.72,-43.62
1554880197616,8.0445175,-4.0372224,1.4598645000000001,-0.07563378,-0.14274544,0.018109497,-21.36,33.84,-43.5
1554880197636,8.025364,-4.0994720000000004,1.5364790000000002,-0.20240025,-0.11717909,-0.014913702,-21.3,33.84,-43.44
1554880197655,8.010999,-4.257489,1.4167688999999999,-0.24394555,-0.10439592,-0.049002163,-21.24,33.78,-43.38
1554880197675,8.135497,-4.291008000000001,1.4502877,-0.24394555,-0.094808534,-0.082025364,-21.36,33.72,-43.38
1554880197695,8.1402855,-4.267066000000001,1.3305776000000002,-0.221575,-0.09161274,-0.10865697,-21.48,33.72,-43.38
1554880197717,8.413225,-4.482544,1.4359225,-0.18642128,-0.08948222,-0.13954964,-21.54,33.66,-43.38
1554880197737,8.599973,-4.635773,1.3497312,-0.13102753,-0.08841695,-0.18429075,-21.66,33.66,-43.38
1554880197757,9.040505,-4.6932339999999995,1.407192,-0.06285059999999999,-0.07456851,-0.22903186,-21.78,33.6,-43.38
1554880197778,9.380483,-4.817732299999999,1.4598645000000001,0.0031957934000000003,-0.06391586,-0.28229508,-21.96,33.66,-43.38
1554880197796,9.504980999999999,-4.970961,1.4215573000000001,0.024501082,-0.049002163,-0.30892670000000005,-22.02,33.72,-43.38
1554880197816,9.533711,-4.8704047,1.1821371,0.023435817999999997,-0.02130529,-0.330232,-22.14,33.72,-43.38
1554880197836,9.390058999999999,-4.6980224,1.1007341999999998,-0.046871635999999994,0.02130529,-0.32490566,-22.2,33.78,-43.38
1554880197856,9.126697,-4.717176,0.8996213,-0.17896444,0.060720075,-0.30253512,-22.2,33.84,-43.38
1554880197876,8.896853,-4.76506,0.9139864999999999,-0.33129725,0.084155895,-0.25246766,-22.26,33.84,-43.38
1554880197895,8.432379,-4.841674299999999,1.1198878,-0.4282363,0.09161274,-0.1949434,-22.38,33.9,-43.32
1554880197916,8.240842,-4.7506948,1.0289081,-0.48149952,0.080960095,-0.15020229,-22.44,33.96,-43.32
1554880197936,8.049306,-4.860828,1.0767921999999999,-0.47617322,0.06391586,-0.12357068,-22.5,34.02,-43.32
1554880197955,8.101977999999999,-4.9853263,1.2252326999999998,-0.4079963,0.049002163,-0.13315806,-22.56,34.14,-43.26
1554880197976,8.001422,-4.980538,1.2060791000000002,-0.24820662,0.040480047000000005,-0.18109496,-22.62,34.44,-43.2
1554880197996,8.121132000000001,-4.8704047,0.99060094,-0.10333065,0.049002163,-0.22264028,-22.62,34.68,-43.08
1554880198016,8.805874000000001,-5.143344,0.85652566,-0.014913702,0.06178534,-0.27483824,-22.62,34.86,-42.96
1554880198039,9.294291000000001,-5.3061495,0.86131406,-0.007456851,0.06285059999999999,-0.34621096,-22.62,34.98,-42.96
1554880198055,9.251195,-5.3923407,0.7368156,-0.01917476,0.040480047000000005,-0.46019423,-22.62,35.22,-42.78
1554880198076,8.930372,-5.253476999999999,0.5979519,-0.06391586,0.013848438000000001,-0.46765109999999993,-22.62,35.34,-42.66
1554880198095,8.303091,-5.2917843,0.53091425,-0.17470337,-0.014913702,-0.42184472,-22.62,35.46,-42.6
1554880198115,7.7907324000000004,-5.2199583,0.87567925,-0.2876214,-0.039414786,-0.32170987,-22.56,35.52,-42.48
1554880198137,7.7189064,-5.310938,1.0528502,-0.31957933,-0.08841695,-0.20772657,-22.56,35.46,-42.42
1554880198157,7.747636999999999,-5.478532,1.3545196000000002,-0.24714136,-0.13635385,-0.128897,-22.56,35.46,-42.36
1554880198176,7.896077,-5.5407815000000005,1.5699978,-0.022370555,-0.21518342,-0.03834952,-22.62,35.46,-42.36
1554880198196,8.1881695,-5.4402246,1.6561891,0.2908172,-0.27483824,0.03834952,-22.62,35.46,-42.3
1554880198216,8.528147,-5.263054,1.5125369,0.5635249,-0.29933932,0.11504856,-22.68,35.46,-42.3
1554880198236,8.853758000000001,-5.0906715,1.2300211,0.6892261,-0.28655612,0.17576863,-22.74,35.46,-42.24
1554880198256,9.069236,-4.8895583,1.0193313,0.68176925,-0.23861924,0.22690132,-22.86,35.52,-42.18
1554880198275,8.896853,-4.5352163,0.88046765,0.53263223,-0.15978967,0.26844665,-23.04,35.46,-42.18
1554880198296,8.7292595,-4.223970400000001,0.7368156,0.24820662,-0.08628642,0.30999196,-23.16,35.34,-42.18
1554880198315,8.580819,-4.051588,0.86610246,-0.09267801,-0.037284255,0.33449304,-23.28,35.04,-42.18
1554880198335,8.700529,-4.3388919999999995,1.0049661,-0.3291667,-0.022370555,0.34621096,-23.4,34.74,-42.12
1554880198356,8.643068,-4.463390400000001,1.4550761,-0.39414784,-0.041545313,0.2908172,-23.52,34.5,-42.12
1554880198376,8.7532015,-4.683657,1.632247,-0.25566345,-0.07563378,0.21198763,-23.64,34.26,-42.18
1554880198396,8.801085,-4.88477,1.9147629000000002,-0.05539375,-0.098004326,0.1470065,-23.76,34.08,-42.18
1554880198416,8.7292595,-4.630985,1.6083049999999999,0.30892670000000005,-0.10865697,0.06711166,-23.82,33.9,-42.24
1554880198436,8.628703,-4.3436804,1.4311341,0.44741106,-0.09054748,0.05219796,-23.88,33.72,-42.24
1554880198455,8.51857,-4.252701,1.2970588,0.4016047,-0.07456851,0.06391586,-23.94,33.72,-42.24
1554880198475,8.456321,-4.2622776,1.5891514,0.26205507,-0.06604639400000001,0.080960095,-24.0,33.84,-42.3
1554880198495,8.820239,-4.5016975,1.7088615000000003,0.15659387,-0.056459017,0.08948222,-24.0,33.96,-42.3
1554880198516,9.064447,-4.549582,1.8716671000000003,0.15765914,-0.03195793,0.09374327,-24.06,34.02,-42.3
1554880198536,8.868122999999999,-4.472967,1.5604209999999998,0.21411815,-0.0031957934000000003,0.112918034,-24.06,34.08,-42.3
1554880198556,8.671799,-4.300585,1.311424,0.21944448,0.02130529,0.1438107,-24.06,34.08,-42.36
1554880198576,8.508992999999998,-4.1760864,1.3784616000000003,0.14274544,0.03089267,0.16831179,-24.06,34.08,-42.42
1554880198597,8.207322999999999,-4.1282024,1.3162124,0.046871635999999994,0.015978966,0.18109496,-24.0,34.08,-42.48
1554880198617,7.876923599999999,-4.1329910000000005,1.4838065,-0.022370555,0.007456851,0.19174760000000002,-24.0,34.08,-42.54
1554880198637,7.876923599999999,-4.233547,1.5604209999999998,-0.053263225,0.00958738,0.20240025,-24.0,34.08,-42.6
1554880198656,8.020576,-4.329315,1.407192,-0.05752428,0.024501082,0.17789917,-24.0,34.02,-42.66
1554880198676,8.283937,-4.3197384,1.3976152,-0.008522116,0.054328485999999995,0.12357068,-23.94,34.02,-42.72
1554880198696,8.480263,-4.228758999999999,1.4550761,0.02876214,0.084155895,0.034088463,-23.94,34.02,-42.78
1554880198717,8.580819,-4.3388919999999995,1.158195,0.012783173500000002,0.11824436,-0.060720075,-23.94,34.02,-42.84
1554880198736,8.805874000000001,-4.300585,1.1486181999999998,-0.06711166,0.15765914,-0.1470065,-23.94,34.08,-42.84
1554880198756,8.796297000000001,-4.415506400000001,1.062427,-0.16085494,0.19068234,-0.21837921,-23.94,34.08,-42.78
1554880198776,8.465898,-4.463390400000001,1.1677719,-0.21944448,0.22477080000000002,-0.257794,-23.94,34.14,-42.78
1554880198795,8.312667999999999,-4.458602,1.0815806000000001,-0.28336033,0.23968449999999997,-0.26525086,-23.88,34.26,-42.78
1554880198815,8.336611,-4.5926776,0.88046765,-0.35153726,0.23755397,-0.257794,-23.82,34.26,-42.78
1554880198836,8.226477000000001,-4.597466000000001,1.0001777,-0.40373522,0.21518342,-0.26312032,-23.76,34.38,-42.72
1554880198856,8.446744,-4.717176,1.0528502,-0.39947417,0.16085494,-0.28229508,-23.64,34.44,-42.72
1554880198876,8.39886,-4.918288700000001,1.1534066,-0.3270362,0.10865697,-0.30146983,-23.58,34.5,-42.66
1554880198896,8.322245,-5.085883,1.1150993999999999,-0.20026971,0.06391586,-0.3174488,-23.46,34.62,-42.66
1554880198916,8.37013,-5.00448,0.96665895,-0.051132694000000006,0.026631612000000002,-0.3174488,-23.4,34.74,-42.66
1554880198937,8.360553,-4.9374423,1.0528502,0.09587380000000001,-0.0063915867,-0.3174488,-23.34,34.8,-42.6
1554880198957,8.528147,-4.9374423,1.1294646000000002,0.19174760000000002,-0.043675844000000005,-0.31638354,-23.28,34.98,-42.6
1554880198977,8.700529,-4.947019,1.0672153999999998,0.2545982,-0.084155895,-0.31957933,-23.28,35.1,-42.54
1554880198997,8.949525999999999,-5.133767,1.2491747,0.30360037,-0.113983296,-0.31851408,-23.28,35.16,-42.54
1554880199016,9.045294,-5.1385555,1.2108675,0.35260254,-0.128897,-0.30360037,-23.28,35.28,-42.48
1554880199036,8.791509,-5.1146135,1.3305776000000002,0.38882150000000004,-0.12037488,-0.26205507,-23.28,35.22,-42.48
1554880199056,8.6574335,-4.9661726999999996,1.2826935,0.38242993,-0.09374327,-0.20026971,-23.28,35.04,-42.48
1554880199076,8.576031,-4.7602715,1.3210008,0.30892670000000005,-0.068176925,-0.13102753,-23.34,34.74,-42.54
1554880199096,8.671799,-4.803367,1.3688848,0.19174760000000002,-0.05219796,-0.07243799,-23.34,34.38,-42.54
1554880199116,8.75799,-4.894346700000001,1.4167688999999999,0.12037488,-0.041545313,-0.029827405,-23.4,34.02,-42.6
1554880199137,9.040505,-4.9757495,1.5125369,0.10865697,-0.025566347000000003,0.008522116,-23.46,33.66,-42.66
1554880199156,9.011775,-4.9757495,1.359308,0.11824436,-0.0010652645,0.05539375,-23.52,33.3,-42.72
1554880199176,8.901641999999999,-4.6692919999999996,1.3497312,0.06285059999999999,0.025566347000000003,0.13848437,-23.58,32.94,-42.78
1554880199195,8.75799,-4.5352163,1.2300211,-0.0063915867,0.02876214,0.1949434,-23.7,32.7,-42.78
1554880199215,8.221688,-4.329315,1.3976152,-0.099069595,0.0031957934000000003,0.26631612,-23.76,32.52,-42.84
1554880199236,7.943961,-4.415506400000001,1.5652093999999999,-0.13209279,-0.039414786,0.32490566,-23.82,32.52,-42.9
1554880199256,7.833828,-4.420294999999999,1.6035166,-0.07243799,-0.08735169,0.36751625,-23.88,32.52,-42.96
1554880199276,7.7093296,-4.420294999999999,1.6130934,0.068176925,-0.12037488,0.386691,-23.94,32.52,-43.02
1554880199296,7.680599000000001,-4.171298,1.4263457,0.20985709,-0.13102753,0.40053943,-23.94,32.58,-43.08
1554880199315,7.9343843,-3.9893386,1.2539631000000002,0.26738137,-0.12144015,0.40586576,-23.94,32.64,-43.14
1554880199335,8.331821000000001,-3.8983587999999996,1.0480618,0.20240025,-0.101200126,0.37390783,-23.94,32.7,-43.14
1554880199356,8.523358,-3.8456864,1.158195,0.084155895,-0.08522116,0.2972088,-23.88,32.76,-43.2
1554880199376,8.863335000000001,-3.9510313999999997,1.0289081,-0.0053263223,-0.07882957,0.18002969,-23.82,32.82,-43.2
1554880199396,9.016563,-4.0755300000000005,1.134253,-0.039414786,-0.07350325,0.041545313,-23.76,32.88,-43.2
1554880199418,8.901641999999999,-4.257489,1.1007341999999998,-0.02130529,-0.07882957,-0.10013486,-23.7,33.06,-43.14
1554880199435,8.734048,-4.386776,1.335366,0.029827405,-0.08841695,-0.21944448,-23.58,33.18,-43.14
1554880199457,8.528147,-4.554370400000001,1.4502877,0.10759171,-0.101200126,-0.29933932,-23.46,33.24,-43.2
1554880199477,8.303091,-4.578312400000001,1.5891514,0.20879184,-0.112918034,-0.34301516,-23.34,33.36,-43.2
1554880199497,8.37013,-4.76506,1.6178818000000001,0.31105720000000003,-0.10546118,-0.350472,-23.28,33.42,-43.26
1554880199517,8.413225,-4.6692919999999996,1.4550761,0.37603834,-0.08628642,-0.32384038,-23.22,33.42,-43.26
1554880199537,8.418014,-4.664503599999999,1.1677719,0.33555830000000003,-0.05965481,-0.27803403,-23.28,33.36,-43.32
1554880199556,8.643068,-4.635773,1.0959458,0.2066613,-0.023435817999999997,-0.23222765,-23.34,33.24,-43.38
1554880199576,8.700529,-4.664503599999999,0.97144735,0.02130529,0.013848438000000001,-0.19068234,-23.34,33.0,-43.44
1554880199596,9.016563,-4.621408,1.0672153999999998,-0.16618125,0.04261058,-0.14913702,-23.4,32.7,-43.44
1554880199616,9.174581,-4.779425,1.0767921999999999,-0.28975195,0.056459017,-0.10439592,-23.52,32.46,-43.44
1554880199636,9.222465,-4.947019,1.1821371,-0.32810146,0.037284255,-0.06711166,-23.64,32.16,-43.44
1554880199655,8.987833,-4.8560395,1.359308,-0.28549087,-0.008522116,-0.041545313,-23.76,31.86,-43.44
1554880199675,8.427589999999999,-4.923076999999999,1.3736732,-0.16405073,-0.06178534,-0.007456851,-23.82,31.62,-43.44
1554880199700,7.824250999999999,-4.587889,1.2635399,-0.002130529,-0.10865697,0.07669904,-23.82,31.38,-43.44
1554880199716,8.202535000000001,-4.5256395,1.3736732,0.03089267,-0.13528858,0.094808534,-23.82,31.26,-43.44
1554880199735,8.212111,-4.88477,1.6514006,0.128897,-0.16831179,0.054328485999999995,-23.76,31.2,-43.44
1554880199756,8.360553,-4.956596,1.6226702,0.3334278,-0.18642128,-0.002130529,-23.76,31.32,-43.44
1554880199775,8.461109,-4.707599,1.4119805,0.49534798,-0.15659387,-0.039414786,-23.82,31.38,-43.44
1554880199796,8.595184,-4.578312400000001,0.7990648,0.45486793,-0.094808534,-0.04580637,-23.94,31.44,-43.44
1554880199816,8.738836000000001,-4.583101,0.9091981,0.22903186,-0.041545313,-0.036218993,-24.0,31.5,-43.44
1554880199835,8.552089,-4.8895583,1.1294646000000002,-0.035153727999999995,-0.022370555,-0.017044231,-24.12,31.56,-43.44
1554880199855,8.504205,-5.282207499999999,1.2156559,-0.17896444,-0.014913702,0.05006743,-24.24,31.56,-43.44
1554880199875,8.331821000000001,-5.492897,1.2539631000000002,-0.2130529,-0.011717908999999999,0.16724652,-24.36,31.56,-43.5
1554880199895,8.451532,-5.521628,1.2826935,-0.22264028,-0.010652645,0.31638354,-24.48,31.56,-43.5
1554880199917,8.791509,-5.9238534000000005,1.2012907,-0.21411815,-0.039414786,0.46552056,-24.6,31.5,-43.56
1554880199936,9.040505,-6.172850599999999,1.2252326999999998,-0.19920446,-0.07563378,0.6221144000000001,-24.66,31.44,-43.56
1554880199955,9.279925,-6.632537400000001,1.1917138999999999,-0.20240025,-0.099069595,0.79894835,-24.6,31.38,-43.56
1554880199975,9.294291000000001,-6.656479400000001,0.9283517,-0.23009712,-0.10333065,1.0066749,-24.6,31.38,-43.56
1554880199996,9.160214999999999,-6.785766000000001,0.6985083000000001,-0.34834146,-0.07776430000000001,1.2186625,-24.54,31.5,-43.56
1554880200015,9.050082000000002,-7.044339999999999,0.83737206,-0.5070659000000001,-0.06924219,1.4050837999999999,-24.48,31.8,-43.56
1554880200035,9.002198,-7.1592617,0.7751228,-0.5432849000000001,-0.07030745599999999,1.442368,-24.48,31.8,-43.56
1554880200056,8.978256,-8.073847,0.6841431,-0.66152924,-0.060720075,1.7193368999999998,-24.24,33.0,-43.5
1554880200075,8.743625,-8.409035000000001,0.65541273,-0.7137272,-0.05006743,1.8631475,-24.12,33.78,-43.38
1554880200096,8.379706,-8.533533,0.6314706999999999,-0.76485986,-0.033023197000000004,1.9995013,-23.94,34.8,-43.2
1554880200118,7.9583262999999995,-8.883087,0.55485624,-0.81918836,-0.03089267,2.130529,-23.64,36.06,-42.84
1554880200135,7.589619,-9.266159,0.54527944,-0.8788431999999999,-0.046871635999999994,2.2540996,-23.34,37.32,-42.36
1554880200155,7.101202000000001,-9.448118,0.45429978,-0.8873653,-0.07776430000000001,2.3627564999999997,-22.92,38.64,-41.88
1554880200175,6.6654577,-9.663596,0.3776853,-0.8522116,-0.10652645,2.4511735,-22.44,39.9,-41.28
1554880200196,6.0860605,-9.749788,0.16220717,-0.7978831000000001,-0.14594123,2.5118935000000002,-21.96,41.16,-40.68
1554880200215,5.592855,-9.768942,0.24361002,-0.70200926,-0.17896444,2.5331987999999996,-21.42,42.54,-40.08
1554880200235,5.0374002,-10.041881,0.22924481,-0.5539375,-0.2130529,2.5555694,-20.7,43.98,-39.36
1554880200256,4.3478703,-9.879075,0.05207389,-0.3685815,-0.24074976,2.5811357000000004,-19.8,45.48,-38.58
1554880200275,4.012682,-9.816825999999999,-0.08200141,-0.23861924,-0.24820662,2.5917885,-18.84,46.86,-37.8
