TimeStamp,Ax,Ay,Az,Gx,Gy,Gz,Mx,My,Mz
1554880770341,-9.299078999999999,0.86610246,3.0639796,-0.36005938,0.16937704,0.16831179,16.56,7.86,-24.42
1554880770360,-9.131485000000001,0.81343,3.2603042,-0.26525086,0.19174760000000002,0.2066613,16.74,7.92,-24.36
1554880770380,-9.203311,0.7128736,3.2650926,-0.16831179,0.18429075,0.18642128,16.92,8.16,-24.18
1554880770401,-9.351752000000001,0.5835866999999999,3.2794578000000003,0.0,0.12570119999999999,0.165116,17.04,8.52,-24.0
1554880770421,-9.208099,0.8948328999999999,3.1501707999999997,0.16618125,0.07137272,0.19281286,17.16,8.82,-23.76
1554880770441,-8.99741,0.9475053,2.6426,0.31105720000000003,0.06178534,0.23755397,17.28,9.12,-23.52
1554880770460,-9.02614,0.97623575,2.6952724,0.4282363,0.14061491,0.24501082,17.46,9.42,-23.28
1554880770480,-9.327810000000001,1.287482,2.417545,0.45593318,0.19174760000000002,0.20772657,17.7,9.54,-22.98
1554880770501,-9.356541,1.4885948999999998,2.2307975,0.32597092,0.18322548,0.18216023,17.94,9.48,-22.68
1554880770520,-9.184157,1.4550761,2.2451627,0.12783173,0.14487597,0.13848437,18.24,9.36,-22.44
1554880770541,-9.370906,1.4263457,2.273893,-0.04580637,0.11611383,0.10759171,18.48,9.06,-22.26
1554880770561,-9.495403999999999,1.4933833,2.355296,-0.13848437,0.128897,0.12250541,18.72,8.7,-22.26
1554880770580,-9.390058999999999,1.3305776000000002,2.4941597,-0.07350325,0.13635385,0.16192019,18.9,8.28,-22.26
1554880770600,-9.346964,1.2539631000000002,2.8628666000000003,0.096939065,0.12570119999999999,0.18748654,19.14,7.98,-22.26
1554880770620,-9.495403999999999,1.3736732,2.9873652,0.30892670000000005,0.041545313,0.17896444,19.32,7.62,-22.32
1554880770640,-9.270349000000001,1.4933833,2.498948,0.45060685,-0.047936900000000005,0.18855181,19.44,7.44,-22.38
1554880770662,-9.246407000000001,1.6130934,2.5037365,0.44421527,-0.035153727999999995,0.19174760000000002,19.44,7.38,-22.44
1554880770681,-8.963891,1.5699978,2.4319102999999997,0.34834146,0.03195793,0.1587244,19.5,7.32,-22.44
1554880770700,-9.155427,1.5987281999999998,2.4510639,0.19387813,0.07137272,0.13422333,19.56,7.26,-22.56
1554880770721,-9.188946000000001,1.5652093999999999,2.3840263,0.040480047000000005,0.07669904,0.12037488,19.68,7.08,-22.56
1554880770740,-9.02614,1.3976152,2.5372553,-0.06924219,0.07563378,0.128897,19.74,6.78,-22.62
1554880770761,-9.02614,1.5077485000000002,2.417545,-0.10439592,0.07563378,0.1107875,19.92,6.48,-22.68
1554880770781,-9.093178,1.4933833,2.2164322999999997,-0.06498113,0.08735169,0.111852765,20.04,6.12,-22.74
1554880770800,-9.059659,1.5077485000000002,2.321777,-0.025566347000000003,0.12250541,0.11611383,20.16,5.82,-22.74
1554880770821,-9.270349000000001,1.6083049999999999,2.2786815,0.058589544,0.098004326,0.07882957,20.28,5.4,-22.86
1554880770840,-9.3182335,1.7998412,2.3840263,0.17044231,0.035153727999999995,0.05219796,20.4,5.22,-22.86
1554880770860,-9.275136999999999,1.8381484000000001,2.082357,0.21092236,-0.040480047000000005,0.05219796,20.46,5.16,-22.86
1554880770881,-9.016563,1.8429368000000002,1.9387047999999998,0.17150758,-0.03195793,0.051132694000000006,20.7,5.04,-22.86
1554880770901,-9.141062,1.8381484000000001,2.3505075,0.10226539,0.0,0.041545313,20.82,5.1,-22.86
1554880770920,-9.279925,1.8046296000000002,2.6042929,0.051132694000000006,-0.01917476,0.029827405,20.82,5.1,-22.86
1554880770941,-9.208099,1.7471686999999998,2.5276785,0.018109497,-0.049002163,0.040480047000000005,21.0,5.16,-22.86
1554880770961,-9.270349000000001,1.857302,2.4366987,-0.010652645,-0.043675844000000005,0.05752428,21.06,5.16,-22.92
1554880770980,-9.155427,1.8429368000000002,2.3983915000000002,-0.024501082,-0.036218993,0.06924219,21.18,5.16,-22.98
1554880771002,-9.083601,1.881244,2.307412,0.03834952,-0.023435817999999997,0.053263225,21.3,5.1,-23.1
1554880771020,-9.227253,1.8333599999999999,2.3026235,0.111852765,-0.037284255,0.03195793,21.3,5.04,-23.22
1554880771040,-9.093178,1.9626468000000001,2.1924900000000003,0.05752428,-0.07243799,0.04474111,21.36,4.98,-23.34
1554880771060,-9.203311,2.0392613,2.4558525,-0.020240024,-0.023435817999999997,0.039414786,21.36,4.92,-23.46
1554880771081,-9.160214999999999,2.0009542000000002,2.5276785,-0.01917476,-0.015978966,0.0063915867,21.42,4.86,-23.52
1554880771100,-9.327810000000001,1.7471686999999998,1.8860323,0.0063915867,-0.03089267,-0.0031957934000000003,21.42,4.86,-23.58
1554880771120,-9.299078999999999,2.1206641,2.6378117000000003,0.09161274,0.058589544,-0.011717908999999999,21.42,4.8,-23.64
1554880771141,-9.002198,1.9722236000000002,2.7814639,0.14061491,-0.013848438000000001,0.024501082,21.36,4.8,-23.7
1554880771160,-8.920795,1.8477252,2.3936029999999997,0.112918034,-0.029827405,0.013848438000000001,21.3,4.74,-23.64
1554880771180,-8.796297000000001,1.7998412,2.154183,0.041545313,-0.026631612000000002,-0.008522116,21.24,4.74,-23.64
1554880771201,-9.059659,2.0057424999999998,2.297835,-0.04261058,0.018109497,-0.027696876000000002,21.12,4.68,-23.64
1554880771221,-9.275136999999999,2.0057424999999998,2.6042929,-0.007456851,0.039414786,-0.05219796,21.06,4.68,-23.64
1554880771241,-9.447519999999999,1.8237831999999998,2.5228900000000003,0.02876214,-0.025566347000000003,-0.03195793,21.0,4.68,-23.64
1554880771260,-9.002198,1.881244,2.2451627,0.024501082,-0.07882957,-0.035153727999999995,21.0,4.62,-23.58
1554880771281,-9.179369,1.8908207,2.441487,0.05219796,-0.06604639400000001,-0.10546118,21.0,4.62,-23.58
1554880771301,-9.11712,1.8525136000000002,2.5899277,0.0063915867,-0.06604639400000001,-0.04474111,21.06,4.62,-23.58
1554880771321,-9.064447,1.809418,2.556409,0.010652645,-0.07243799,-0.0031957934000000003,21.12,4.62,-23.58
1554880771341,-9.203311,1.881244,2.6330232999999996,0.051132694000000006,-0.08841695,-0.043675844000000005,21.12,4.56,-23.58
1554880771361,-8.973467999999999,2.0679917000000003,2.3983915000000002,0.02876214,-0.07456851,-0.051132694000000006,21.18,4.56,-23.58
1554880771381,-8.916007,2.2307975,2.4893713,-0.022370555,-0.06178534,-0.07776430000000001,21.18,4.5,-23.58
1554880771401,-8.834603999999999,2.1924900000000003,2.7096379,-0.080960095,-0.08628642,-0.15446335,21.12,4.5,-23.64
1554880771421,-8.6813755,2.082357,2.7862522999999997,-0.14061491,-0.11611383,-0.2695119,21.12,4.44,-23.76
1554880771440,-8.762777999999999,1.7902644,2.9203273999999997,-0.20240025,-0.12996227,-0.36005938,21.06,4.38,-23.88
1554880771460,-8.590396,1.7375918999999997,2.6569653,-0.12570119999999999,-0.18429075,-0.43888897,21.0,4.38,-23.94
1554880771480,-8.652645,1.6514006,2.5803509,-0.053263225,-0.15233281,-0.4825648,20.94,4.38,-24.06
1554880771502,-8.643068,1.2970588,3.020884,-0.06604639400000001,-0.099069595,-0.48363006,20.88,4.5,-24.18
1554880771520,-8.690952000000001,1.0432734000000001,3.2698810000000003,-0.037284255,-0.10865697,-0.55074173,20.82,4.56,-24.24
1554880771541,-8.738836000000001,1.0720038,3.1741127999999996,0.06498113,-0.15552860000000002,-0.63383234,20.64,4.74,-24.36
1554880771561,-8.7292595,0.84216046,3.09271,0.19174760000000002,-0.20026971,-0.6221144000000001,20.46,4.86,-24.36
1554880771580,-8.628703,0.6171055000000001,3.4087446000000003,0.3174488,-0.2545982,-0.6061354999999999,20.22,5.1,-24.36
1554880771601,-8.590396,0.49739540000000004,3.5571851999999997,0.4825648,-0.32170987,-0.65513766,20.1,5.22,-24.36
1554880771621,-8.647857,0.5835866999999999,3.54282,0.6380934,-0.41545314,-0.7392935,19.8,5.34,-24.3
1554880771641,-8.6813755,0.6123171,3.413533,0.71585774,-0.47191215,-0.79042625,19.5,5.52,-24.3
1554880771660,-8.671799,0.47345337,3.5763388,0.7137272,-0.47617322,-0.83516735,19.02,5.58,-24.42
1554880771680,-8.700529,0.42078096,3.5811272000000005,0.700944,-0.49534798,-0.89162636,18.6,5.58,-24.54
1554880771701,-8.269572,0.18136078,3.8301241000000004,0.69029135,-0.52411014,-0.9672601000000001,17.94,5.58,-24.9
1554880771722,-8.255207,0.018555064,3.743933,0.70840085,-0.5613944000000001,-1.0492854999999999,17.52,5.58,-25.2
1554880771741,-8.508992999999998,-0.08200141,3.6529531000000004,0.6956177,-0.5752428,-1.1100056,16.98,5.58,-25.56
1554880771761,-8.652645,-0.22086509999999998,3.8492777,0.6562029,-0.5773733,-1.1419635000000001,16.44,5.46,-25.98
1554880771781,-8.408437,-0.38845924,3.8780080999999997,0.6849651,-0.6178534000000001,-1.1739215,15.84,5.34,-26.46
1554880771801,-8.1402855,-0.4794389,3.7870286,0.7094661,-0.6540724,-1.2442288000000001,15.3,5.16,-26.94
1554880771821,-8.054094000000001,-0.7044938000000001,3.6768951000000003,0.7052050999999999,-0.67005134,-1.3219931999999999,14.7,4.98,-27.54
1554880771841,-7.9583262999999995,-1.1210848999999998,3.8301241000000004,0.69987875,-0.7105314,-1.417867,14.1,4.68,-28.14
1554880771861,-8.159439,-1.46585,3.8205473,0.6956177,-0.7041398,-1.530785,13.26,4.32,-28.86
1554880771881,-8.0924015,-1.3988123,3.8061821000000005,0.73290193,-0.6775081999999999,-1.603223,12.36,3.96,-29.52
1554880771901,-7.8386164,-1.9111716,3.9258924,0.79681784,-0.61572284,-1.6415724999999999,11.58,3.54,-30.24
1554880771920,-7.6470804,-2.356493,3.7822402000000004,0.75420725,-0.57311225,-1.7789917000000002,10.8,3.06,-30.96
1554880771940,-7.771578999999999,-2.533664,4.0360255,0.6199839,-0.5454154,-1.8844528000000003,10.02,2.46,-31.74
1554880771961,-7.762002000000001,-2.60549,4.500500700000001,0.47191215,-0.5400891,-1.9803267,9.12,1.8,-32.52
1554880771980,-7.5944076,-2.677316,4.524442700000001,0.35153726,-0.6466155,-2.062352,8.04,1.02,-33.3
1554880772000,-6.8522053,-2.806603,4.687248,0.31957933,-0.65194184,-2.0208068,6.9,0.3,-33.96
1554880772020,-6.900089299999999,-3.5440169999999998,4.936245400000001,0.43675843,-0.63915867,-2.05383,5.82,-0.36,-34.5
1554880772041,-7.134721300000001,-3.1848867000000003,5.0224366,0.5368933000000001,-0.6956177,-2.1955101000000004,4.74,-1.02,-35.04
1554880772061,-7.0102224,-3.4195184999999997,5.185242,0.58696073,-0.7339671999999999,-2.2221417000000003,3.72,-1.68,-35.52
1554880772081,-6.622362,-3.8744167999999997,4.9506106,0.56245965,-0.74248934,-2.2019017000000005,2.58,-2.34,-35.94
1554880772101,-6.143522,-3.970185,4.8739963,0.5123922000000001,-0.67324716,-2.2530343999999998,1.44,-3.06,-36.24
1554880772120,-6.0046577,-4.3436804,4.9937059999999995,0.43675843,-0.54648066,-2.3073627999999995,0.24,-3.84,-36.48
1554880772141,-5.8226986,-4.707599,5.4917,0.28016454,-0.45060685,-2.3158847999999996,-0.9,-4.8,-36.78
1554880772160,-5.631162000000001,-5.1624975,5.6784476999999995,0.12570119999999999,-0.44421527,-2.328668,-1.98,-5.88,-37.02
1554880772180,-5.3247046,-5.0763063,5.443816,-0.025566347000000003,-0.47617322,-2.3691482999999995,-2.94,-6.96,-37.26
1554880772200,-4.9703627,-4.9757495,5.036802,-0.13209279,-0.47404268,-2.4000409,-3.9,-8.04,-37.5
1554880772220,-4.707000700000001,-5.6940102999999995,4.9937059999999995,-0.32170987,-0.41119209999999995,-2.4074976,-4.98,-9.12,-37.74
1554880772241,-4.4723687000000005,-5.952584,5.6018333,-0.5336975,-0.4250405,-2.4735441000000002,-6.06,-10.14,-37.98
1554880772260,-4.295198,-5.8041434,5.1900306,-0.65194184,-0.5049353,-2.5726137000000002,-7.08,-11.16,-38.22
1554880772280,-3.5721489999999996,-5.9142766,4.5819035,-0.73822826,-0.35473305,-2.5566347,-7.86,-12.0,-38.4
1554880772300,-3.169923,-6.6947865,4.634576,-0.79894835,-0.05006743,-2.4351945,-8.52,-12.72,-38.46
1554880772321,-3.1316159,-7.614160000000001,5.391144000000001,-0.85966843,0.18109496,-2.4277377,-9.6,-13.5,-38.46
1554880772340,-3.1794999,-7.791331,5.549161,-0.8064051999999999,0.13102753,-2.4703484,-10.08,-13.8,-38.46
1554880772360,-2.8107927000000004,-7.527969000000001,4.9218802,-0.71585774,0.07456851,-2.3893880000000003,-11.34,-14.7,-38.52
1554880772380,-2.3702598,-8.567052,4.8165355000000005,-0.6359629,0.14913702,-2.1411815,-12.18,-15.3,-38.58
1554880772400,-1.9201498,-9.558251,4.9745526,-0.5613944000000001,0.23435818,-1.9164108,-12.96,-15.84,-38.64
1554880772420,-1.8004397,-10.266935,5.4007206,-0.47191215,0.21092236,-1.9036276,-13.74,-16.32,-38.64
1554880772441,-1.9536686,-10.008362,5.587468,-0.32170987,0.10972224,-1.9153455000000001,-14.4,-16.74,-38.7
1554880772461,-1.6567876,-10.118495,5.099051,-0.18642128,-0.007456851,-1.6809874,-14.94,-17.16,-38.7
1554880772481,-1.3982137,-10.295666,4.9506106,-0.14274544,-0.05219796,-1.3827133,-15.36,-17.64,-38.76
1554880772500,-0.93852705,-10.448894500000002,4.8261123,-0.1107875,0.008522116,-1.1451592,-15.6,-18.18,-38.82
1554880772520,-1.1444284,-10.606912,4.8261123,-0.13315806,0.101200126,-0.9406285,-15.78,-18.66,-38.88
1554880772540,-1.4796166000000002,-10.266935,5.180454,-0.17257284,0.08841695,-0.7755125,-15.84,-19.2,-38.94
1554880772562,-1.6136919,-9.917382,5.027225,-0.14594123,0.004261058,-0.64341974,-15.84,-19.62,-39.0
1554880772583,-1.5083469999999999,-9.44333,4.577115,-0.112918034,-0.07350325,-0.42930159999999995,-15.9,-20.1,-39.06
1554880772601,-1.3599066,-9.242217,4.3903675,-0.096939065,-0.06604639400000001,-0.29933932,-15.96,-20.52,-39.12
1554880772621,-1.1827357,-8.959702,4.447828299999999,-0.1107875,-0.027696876000000002,-0.14168017,-15.96,-20.94,-39.18
1554880772641,-1.2976573999999998,-9.141661000000001,4.696825,-0.15446335,0.018109497,-0.037284255,-16.14,-21.3,-39.18
1554880772661,-1.4700398000000001,-9.017161999999999,4.6776714,-0.18961707,-0.022370555,0.012783173500000002,-16.38,-21.6,-39.18
1554880772680,-1.3311761999999998,-8.911817999999998,4.6680946,-0.23435818,-0.05752428,0.09161274,-16.56,-21.78,-39.18
1554880772700,-1.043872,-8.940548,4.696825,-0.23329292,-0.07563378,0.21518342,-16.68,-21.96,-39.18
1554880772720,-0.9720459000000001,-9.093777000000001,4.8021703,-0.20453078,-0.068176925,0.3174488,-16.86,-22.08,-39.18
1554880772741,-0.9816226999999998,-8.983644,4.8500543,-0.17896444,-0.07669904,0.4016047,-17.04,-22.14,-39.12
1554880772761,-0.9720459000000001,-8.873510000000001,4.7734394,-0.11717909,-0.10865697,0.43995422,-17.22,-22.14,-39.06
1554880772780,-0.842759,-8.835203,4.7399206,0.004261058,-0.1768339,0.48469532,-17.34,-21.9,-39.06
1554880772801,-0.60333884,-8.787319,4.768651,0.12783173,-0.25353295,0.5123922000000001,-17.4,-21.66,-39.0
1554880772820,-0.5506664000000001,-8.729858,4.6154222,0.21518342,-0.3153183,0.50387007,-17.34,-21.36,-38.94
1554880772840,-0.4309563,-8.614936,4.586692,0.26418558,-0.33449304,0.49108690000000005,-17.28,-21.06,-38.88
1554880772861,-0.5267244000000001,-8.341997000000001,4.624999,0.33981937,-0.3685815,0.48682585,-17.22,-20.7,-38.82
1554880772881,-0.4309563,-8.164826,4.538808,0.37603834,-0.41864893,0.5091964,-17.1,-20.4,-38.76
1554880772901,-0.5506664000000001,-8.083424,4.3185415,0.42930159999999995,-0.44954160000000004,0.49002165,-16.98,-20.1,-38.76
1554880772920,-0.6703765,-8.227076,4.5435963,0.47617322,-0.49960902,0.42077947,-16.92,-19.86,-38.7
1554880772943,-0.33997664,-8.370728,4.6393642,0.53476274,-0.5997439,0.29294774,-16.86,-19.8,-38.64
1554880772961,-0.08619126,-8.380303999999999,4.4717703,0.56672066,-0.6785734,0.19920446,-16.92,-19.74,-38.52
1554880772980,0.22505496,-8.5862055,4.7830167,0.53795856,-0.71798825,0.13102753,-16.92,-19.74,-38.46
1554880773000,0.50278234,-8.461707,4.68246,0.43782368,-0.7574029999999999,0.11717909,-16.98,-19.8,-38.46
1554880773021,0.50278234,-8.002021000000001,4.5196543,0.30679616,-0.7669904000000001,0.20026971,-17.1,-20.04,-38.4
1554880773040,0.39264908,-7.844003,4.6393642,0.20240025,-0.72651035,0.35260254,-17.34,-20.4,-38.34
1554880773061,0.16759412,-7.441777,4.553173,0.14594123,-0.700944,0.46019423,-17.64,-20.76,-38.28
1554880773081,0.0047884034,-7.2646065,4.821324,0.16405073,-0.7137272,0.50600064,-18.06,-21.12,-38.22
1554880773101,0.0047884034,-7.4992385,5.242703,0.23755397,-0.78723043,0.5336975,-18.48,-21.42,-38.1
1554880773121,0.08140286,-7.542333999999999,5.443816,0.34834146,-0.8905610999999999,0.52837116,-18.84,-21.72,-37.92
1554880773140,0.25378537,-7.729081599999999,5.9801173,0.47191215,-0.9779128,0.4016047,-19.26,-22.02,-37.74
1554880773160,0.61770403,-7.877522,6.0280013,0.55287224,-0.98856544,0.20772657,-19.68,-22.26,-37.56
1554880773181,0.8714894,-7.839214999999999,6.2099605,0.5475459,-0.92997587,0.046871635999999994,-20.16,-22.32,-37.32
1554880773201,0.8475474000000001,-7.743447,6.329671,0.43995422,-0.8628642,-0.013848438000000001,-20.64,-22.32,-37.14
1554880773220,0.9528923,-7.5375457,5.999271,0.15446335,-0.7435546,-0.051132694000000006,-21.36,-22.44,-36.78
1554880773240,0.7326256999999999,-6.8528037,6.1716533,-0.002130529,-0.6114618,-0.112918034,-21.6,-22.56,-36.66
1554880773261,0.17717093,-6.536769400000001,6.2195373,-0.128897,-0.49215218,-0.15765914,-21.96,-22.86,-36.3
1554880773281,-0.2825158,-6.1345434,6.545148999999999,-0.24714136,-0.45273739999999996,-0.10226539,-22.26,-23.1,-36.0
1554880773301,-0.47405192,-6.1345434,6.84203,-0.34194988,-0.5635249,-0.094808534,-22.62,-23.34,-35.7
1554880773320,-0.4165911,-6.172850599999999,6.9808936,-0.39201729999999996,-0.6945524000000001,-0.16724652,-22.98,-23.58,-35.28
1554880773340,-0.62249243,-6.0770826,6.7366850000000005,-0.45593318,-0.81705785,-0.25246766,-23.28,-23.76,-34.86
1554880773361,-0.45968673,-6.488885,6.612186400000001,-0.46339005,-0.9139969000000001,-0.28975195,-23.82,-24.0,-34.32
1554880773381,-0.062249242999999996,-6.6852098,6.0184245,-0.43782368,-0.9044095,-0.34621096,-24.18,-24.06,-33.96
1554880773400,0.14844051,-6.8144965,5.8221,-0.45593318,-0.8213189000000001,-0.40266997,-24.36,-24.0,-33.84
1554880773421,0.15322891,-7.0395517000000005,5.7215432999999996,-0.5006742999999999,-0.5944176,-0.4282363,-24.9,-23.88,-33.54
1554880773441,0.04309563,-7.614160000000001,6.3584013,-0.5209143,-0.46871635,-0.41545314,-25.32,-23.76,-33.18
1554880773461,-0.11971009,-8.4425535,6.6600703999999995,-0.42930159999999995,-0.5294364,-0.40373522,-25.74,-23.7,-32.82
1554880773481,-0.033518825,-8.461707,6.3392477,-0.23648871,-0.6508765999999999,-0.37923414,-26.22,-23.76,-32.46
1554880773501,-0.10534488,-8.519167999999999,6.095039,0.034088463,-0.67963874,-0.29188246,-26.7,-23.88,-32.1
1554880773521,-0.13407529999999998,-8.399458000000001,5.8891377,0.29614353,-0.7105314,-0.17257284,-27.12,-24.0,-31.74
1554880773541,0.16759412,-8.557475,5.587468,0.45273739999999996,-0.700944,-0.05752428,-27.48,-24.18,-31.38
1554880773561,0.25378537,-8.552686999999999,5.587468,0.48682585,-0.6412892,-0.034088463,-27.84,-24.42,-31.08
1554880773580,0.07182605,-8.227076,5.573103,0.5795039000000001,-0.5795039000000001,-0.00958738,-28.2,-24.66,-30.72
1554880773600,0.17238252,-8.284536,5.668871,0.6295713000000001,-0.5049353,0.15233281,-28.5,-24.9,-30.54
1554880773621,0.48841715,-8.523956,5.7933699999999995,0.6221144000000001,-0.45699844,0.29614353,-28.8,-25.14,-30.42
1554880773640,0.6703765,-8.619724,6.2482677,0.5422196,-0.45060685,0.35792887,-29.04,-25.32,-30.24
1554880773661,0.89064306,-8.365939,6.2195373,0.47830373,-0.44421527,0.4079963,-29.1,-25.5,-30.12
1554880773681,1.0582372,-8.136096,6.0519433,0.42717105,-0.41545314,0.5113269,-29.22,-25.68,-29.82
1554880773701,1.1923125,-8.097789,6.18123,0.37284255,-0.31638354,0.6530071,-29.4,-25.86,-29.46
1554880773721,1.1109096,-7.781753999999999,6.2099605,0.33662358,-0.23009712,0.7946873000000001,-29.46,-25.92,-29.16
1554880773740,1.1731589,-7.872733599999999,6.095039,0.35792887,-0.17044231,0.8969527,-29.52,-25.98,-28.92
1554880773761,1.7717092,-8.040328,6.114192500000001,0.36751625,-0.06498113,0.9214538000000001,-29.58,-25.98,-28.62
1554880773781,1.6567876,-7.743447,6.3727665,0.33662358,0.035153727999999995,0.79894835,-29.64,-25.8,-28.38
1554880773800,1.3120226000000001,-7.5950065,6.267421700000001,0.32277513,0.113983296,0.80533993,-29.7,-25.5,-28.14
1554880773820,1.292869,-7.5375457,6.238691,0.31212249999999997,0.14487597,0.87032104,-29.76,-25.08,-27.96
1554880773841,1.364695,-7.705139599999999,6.63134,0.30892670000000005,0.1768339,0.8362325999999999,-29.82,-24.54,-27.9
1554880773861,1.2593501,-7.671621000000001,7.033566,0.32597092,0.12996227,0.7584683000000001,-29.7,-23.94,-27.84
1554880773881,1.3215994,-7.3124905,6.502053299999999,0.39095205,0.06711166,0.6593986999999999,-29.52,-23.34,-27.78
1554880773900,1.3503298000000001,-7.1688385,6.377555,0.43462790000000007,0.12996227,0.6295713000000001,-29.4,-22.68,-27.78
1554880773920,1.412579,-6.9820905,5.951387,0.47404268,0.28442562,0.6562029,-29.28,-22.08,-27.72
1554880773941,1.1683705,-6.8719573,6.1955953,0.44421527,0.43675843,0.68176925,-29.1,-21.6,-27.72
1554880773961,0.7565677,-6.6852098,6.5068417,0.39095205,0.5763081,0.6146576,-28.98,-21.18,-27.72
1554880773981,0.4309563,-6.407482,6.353613,0.31212249999999997,0.5837649,0.54435015,-28.74,-20.7,-27.78
1554880774001,0.19632454,-6.517616,6.0663085,0.23116238,0.5699165,0.515588,-28.44,-20.22,-27.78
1554880774020,0.01436521,-6.508039,6.18123,0.14487597,0.60080916,0.5006742999999999,-28.14,-19.74,-27.84
1554880774040,-0.37828386,-6.5846534,6.291363700000001,0.10226539,0.63383234,0.47617322,-27.9,-19.32,-27.9
1554880774061,-0.7134720999999999,-6.7426705,6.2195373,0.08841695,0.60720074,0.43888897,-27.6,-18.84,-28.02
1554880774081,-0.8619126,-6.8671690000000005,6.2195373,0.099069595,0.57098174,0.43569317,-27.24,-18.36,-28.2
1554880774100,-1.0342950999999998,-6.8144965,6.2817870000000005,0.094808534,0.5454154,0.46871635,-26.94,-17.76,-28.5
1554880774121,-1.3359646,-6.8049197,6.3009405,0.08841695,0.5432849000000001,0.5123922000000001,-26.52,-17.16,-28.86
1554880774140,-1.2880806,-6.900687700000001,6.4206505,0.02876214,0.51026165,0.52624065,-26.1,-16.68,-29.28
1554880774160,-1.7142484,-6.848015299999999,6.4062852999999995,-0.06285059999999999,0.5049353,0.5209143,-25.74,-16.2,-29.64
1554880774181,-1.8722657,-6.938994999999999,6.205172,-0.17257284,0.56245965,0.5699165,-25.38,-15.66,-30.0
1554880774201,-2.0829554,-7.2023573,6.4302273,-0.32490566,0.65194184,0.60933125,-24.96,-15.12,-30.3
1554880774221,-2.3989902,-7.2741833,6.612186400000001,-0.38349520000000004,0.6849651,0.6380934,-24.12,-14.28,-30.72
1554880774241,-2.6192567,-7.140108000000001,6.118981,-0.30892670000000005,0.6956177,0.74461985,-23.64,-13.68,-30.9
1554880774261,-2.7485435000000003,-7.504027000000001,6.118981,-0.20453078,0.7552725,0.8745821,-23.1,-13.02,-30.96
1554880774281,-3.1316159,-7.374739599999999,6.554725599999999,-0.12996227,0.7701861999999999,0.91612744,-22.62,-12.42,-30.96
1554880774300,-3.466804,-7.231087700000001,6.4062852999999995,-0.05006743,0.7041398,0.90014845,-22.44,-12.06,-30.96
1554880774320,-3.6296098,-6.905475999999999,6.0184245,0.07563378,0.60293967,0.9171927,-21.66,-10.8,-30.96
1554880774341,-3.4093432,-6.464943,5.8508306,0.18216023,0.6359629,1.026915,-21.0,-10.02,-30.96
1554880774360,-3.6918589999999996,-6.330868,5.8651957999999995,0.24181503,0.7307714,1.0929613,-20.4,-9.3,-30.96
1554880774380,-3.9312792,-5.957372,6.1046157,0.23861924,0.7456851,1.0865698000000001,-19.92,-8.64,-30.96
1554880774400,-4.223372,-5.7706246,6.0327897,0.2545982,0.6508765999999999,1.0205233,-19.26,-7.92,-31.02
1554880774421,-4.2521024,-5.837662,5.692813,0.25992453,0.5901565,0.9864349,-18.54,-7.2,-31.02
1554880774440,-4.228160400000001,-5.981314,5.807735,0.23009712,0.6178534000000001,0.9587379999999999,-17.76,-6.54,-31.14
1554880774461,-4.43885,-5.8328739999999994,5.8412538,0.12570119999999999,0.60507023,0.89375687,-16.86,-6.0,-31.26
1554880774481,-4.8267107000000005,-5.631761,5.573103,-0.06285059999999999,0.5123922000000001,0.8926915999999999,-16.14,-5.52,-31.38
1554880774501,-4.7644614999999995,-5.7418942,5.290587400000001,-0.16831179,0.535828,0.9896306999999999,-15.42,-4.98,-31.56
1554880774520,-4.903325,-6.019622,5.4342394,-0.2695119,0.6199839,1.0865698000000001,-14.58,-4.38,-31.68
1554880774541,-5.449203,-6.1106014,5.549161,-0.25885928,0.58269966,1.0812434,-13.74,-3.66,-31.74
1554880774561,-5.5162406,-5.7945666,5.7119665,-0.18109496,0.49108690000000005,1.0652645,-12.96,-3.0,-31.74
1554880774581,-5.645528,-5.66528,5.5347957999999995,-0.03834952,0.45273739999999996,1.0524813,-12.12,-2.22,-31.68
1554880774601,-5.746084,-5.3971290000000005,5.525219,0.08522116,0.43036684,1.0386329,-11.4,-1.44,-31.62
1554880774622,-5.750872599999999,-5.191228,5.319318,0.18642128,0.4708469,1.0460896000000002,-10.74,-0.66,-31.5
1554880774641,-5.8705826,-5.0284224,5.252279799999999,0.24927188,0.57098174,1.0929613,-10.02,0.18,-31.38
1554880774661,-6.1578870000000006,-4.894346700000001,5.3815669999999995,0.26205507,0.6221144000000001,1.0791129,-9.3,1.02,-31.2
1554880774681,-6.4643445,-4.530428,5.0559554,0.25672874,0.5581986,0.99282646,-8.64,1.74,-31.08
1554880774701,-6.603208,-4.243124,4.8021703,0.24394555,0.5134575,0.9502159,-7.98,2.34,-31.02
1554880774721,-6.684611299999999,-4.156933,4.854842700000001,0.21624869,0.49534798,0.96086854,-7.38,2.82,-31.02
1554880774741,-6.631939,-3.86484,5.122993,0.17150758,0.4857606,0.93849796,-6.72,3.12,-31.02
1554880774761,-6.813898,-3.8265328000000003,4.888361499999999,0.14061491,0.4889564,0.8724516,-6.0,3.3,-31.02
1554880774781,-7.0006455999999995,-3.5535938999999996,5.0798974,0.09267801,0.46871635,0.80107886,-5.28,3.36,-31.02
1554880774800,-7.168239999999999,-3.4674027,4.969764,0.014913702,0.40373522,0.7499462,-4.32,3.36,-31.02
1554880774820,-7.2592196,-3.4099417,4.577115,-0.080960095,0.34301516,0.7254451,-3.54,3.36,-31.02
1554880774840,-7.1634517,-3.4961330000000004,4.3903675,-0.17896444,0.34621096,0.700944,-2.76,3.42,-30.96
1554880774860,-7.4507556,-3.3237504999999996,4.5723267,-0.21198763,0.37710363,0.67218184,-2.04,3.42,-30.96
1554880774880,-7.5608889999999995,-3.2710779999999997,4.601057,-0.18535602,0.38136467,0.680704,-1.26,3.54,-30.96
1554880774900,-7.675811,-3.1848867000000003,4.4286747,-0.14274544,0.39308259999999995,0.71479243,-0.48,3.84,-30.96
1554880774921,-8.0445175,-3.3045970000000002,4.5819035,-0.07137272,0.39201729999999996,0.7222493000000001,0.18,4.08,-30.9
1554880774941,-8.020576,-3.2231941,4.529230999999999,0.015978966,0.33129725,0.67537767,0.9,4.38,-30.84
1554880774961,-8.049306,-2.9311013,4.371214,0.07456851,0.26525086,0.6295713000000001,1.38,4.68,-30.78
1554880774980,-7.9822683,-2.8209682000000003,4.170100700000001,0.08948222,0.21944448,0.6327670999999999,1.92,5.04,-30.72
1554880775000,-7.920019,-2.830545,4.1844660000000005,0.07137272,0.2066613,0.6423545,2.46,5.28,-30.6
1554880775021,-8.030152000000001,-2.7443538,4.0934862999999995,0.06391586,0.17150758,0.60293967,2.94,5.58,-30.48
1554880775041,-8.159439,-2.5528176,3.9402574999999995,0.11717909,0.13422333,0.5486112,3.36,5.76,-30.36
1554880775061,-8.0924015,-2.2559366,3.8971617,0.20240025,0.17576863,0.5411543000000001,3.72,5.88,-30.24
1554880775080,-8.221688,-2.1984756,4.160524,0.30360037,0.22796659,0.5699165,3.96,5.94,-30.12
1554880775101,-8.207322999999999,-2.0931308,4.23235,0.44847634,0.221575,0.515588,4.26,6.0,-30.0
1554880775121,-8.379706,-1.7818846999999998,4.064756,0.5816344,0.21198763,0.4644553,4.56,6.06,-30.0
1554880775141,-8.556877,-1.7483658,4.064756,0.7286409,0.20879184,0.45273739999999996,4.86,6.0,-30.0
1554880775161,-8.279149,-1.513734,3.6577415,0.81918836,0.19387813,0.42077947,5.28,5.88,-30.06
1554880775181,-8.274361,-1.3030443,3.5332432000000003,0.8383630999999999,0.23009712,0.39521313,5.76,5.7,-30.18
1554880775201,-8.470686,-0.95349085,3.5859156000000003,0.7946873000000001,0.2790993,0.38136467,6.18,5.28,-30.3
1554880775220,-8.652645,-0.7332243,3.6290112,0.7137272,0.25033715,0.3749731,6.6,4.62,-30.42
1554880775241,-8.576031,-0.6757634,3.8588544999999996,0.58483016,0.17044231,0.33555830000000003,7.02,3.96,-30.54
1554880775261,-8.542512,-0.670975,3.7295678,0.44954160000000004,0.049002163,0.27164245,7.44,3.24,-30.72
1554880775280,-8.437167,-0.45070848,3.3512837999999996,0.24927188,-0.011717908999999999,0.23755397,7.74,2.52,-30.9
1554880775300,-8.446744,-0.42197806,3.5284547999999996,0.02130529,0.027696876000000002,0.23542345,7.98,1.86,-31.14
1554880775321,-8.690952000000001,-0.5129577000000001,3.9594111000000005,-0.18002969,0.08522116,0.20240025,8.1,1.26,-31.38
1554880775340,-8.825027,-0.6422445999999999,4.0599675,-0.28122982,0.07137272,0.16192019,8.16,0.78,-31.62
1554880775361,-8.781932000000001,-0.7332243,3.7822402000000004,-0.30999196,0.051132694000000006,0.14913702,8.34,0.42,-31.8
1554880775380,-8.6334915,-0.7667431,3.7822402000000004,-0.294013,0.07030745599999999,0.13315806,8.46,0.36,-32.04
1554880775400,-8.791509,-0.56084174,3.9737763,-0.22370553,0.083090626,0.10013486,8.7,0.24,-32.22
1554880775421,-8.839393,-0.7236475,3.9689879999999995,-0.112918034,0.03834952,0.12144015,8.94,0.18,-32.4
1554880775441,-8.762777999999999,-0.98700964,4.11264,-0.04474111,0.027696876000000002,0.15552860000000002,9.12,0.12,-32.46
1554880775460,-8.791509,-0.9439139999999999,4.1078515,0.025566347000000003,0.023435817999999997,0.14594123,9.3,0.12,-32.52
1554880775481,-8.7532015,-0.5129577000000001,3.9833531000000004,0.05752428,-0.0053263223,0.08522116,9.48,0.12,-32.52
1554880775501,-8.662222,-0.5991489999999999,3.7247794,0.053263225,-0.018109497,0.13528858,9.6,0.18,-32.46
1554880775521,-8.542512,-0.43155485,3.6816837999999996,0.01917476,0.05539375,0.18855181,9.78,0.3,-32.46
1554880775541,-8.834603999999999,-0.42676646,3.9881415000000002,-0.013848438000000001,0.12037488,0.18642128,9.9,0.36,-32.4
1554880775560,-8.935161,-0.43155485,3.8732197,-0.018109497,0.10652645,0.165116,9.96,0.42,-32.4
1554880775581,-9.006986999999999,-0.29747957,3.8684312999999997,0.02130529,0.04580637,0.13422333,9.96,0.48,-32.34
1554880775601,-9.078813,-0.22565351,3.8013937000000007,0.080960095,0.02876214,0.14807177,10.02,0.6,-32.34
1554880775620,-9.165004,-0.05327099,3.8540661,0.1470065,0.0063915867,0.16937704,10.08,0.66,-32.28
1554880775640,-9.193734,-0.19692309,3.8780080999999997,0.18216023,-0.012783173500000002,0.17044231,10.14,0.72,-32.28
1554880775660,-9.246407000000001,-0.0724246,3.8971617,0.15339808,-0.034088463,0.13422333,10.32,0.78,-32.22
1554880775681,-9.193734,0.032920275,3.9258924,0.10865697,-0.05219796,0.07350325,10.44,0.78,-32.22
1554880775701,-8.920795,0.0041898529999999995,3.8061821000000005,0.05006743,-0.06498113,0.04474111,10.62,0.78,-32.22
1554880775721,-8.647857,-0.25917232,4.055179,0.023435817999999997,-0.011717908999999999,0.06391586,10.74,0.72,-32.22
1554880775740,-8.647857,-0.32621,4.11264,0.040480047000000005,0.036218993,0.043675844000000005,10.92,0.66,-32.22
1554880775761,-8.676587,-0.35494040000000004,3.8061821000000005,0.1107875,0.040480047000000005,0.02876214,11.04,0.6,-32.22
1554880775780,-8.643068,-0.23044191,3.8013937000000007,0.17470337,0.05006743,0.025566347000000003,11.1,0.54,-32.22
1554880775801,-8.930372,-0.0005985504,3.696049,0.25140239999999997,0.06498113,0.036218993,11.22,0.42,-32.22
1554880775821,-8.882488,0.023343466,3.8301241000000004,0.24714136,0.07669904,0.07243799,11.28,0.3,-32.22
1554880775842,-8.916007,-0.08200141,3.4997244,0.2130529,0.053263225,0.05006743,11.22,0.06,-32.22
1554880775860,-8.8777,0.11911154,3.6625300000000003,0.1107875,0.022370555,0.004261058,11.28,-0.12,-32.22
1554880775880,-8.762777999999999,0.14784196,3.566762,-0.022370555,0.010652645,-0.017044231,11.34,-0.3,-32.28
1554880775901,-8.719683,0.076015905,3.7630866000000003,-0.13209279,0.07989483,0.011717908999999999,11.4,-0.48,-32.28
1554880775921,-8.825027,-0.0005985504,4.103063,-0.23755397,0.11930962,0.01917476,11.52,-0.66,-32.28
1554880775941,-8.987833,-0.02932897,4.0120835,-0.24820662,0.06924219,0.00958738,11.64,-0.84,-32.28
1554880775960,-8.796297000000001,0.0664391,4.0025067000000005,-0.19068234,0.020240024,0.04261058,11.76,-0.96,-32.34
1554880775980,-8.561666,0.14305355,3.5954924,-0.12144015,0.046871635999999994,0.08948222,11.88,-1.02,-32.4
1554880776001,-8.667010000000001,-0.17298107,4.079121,-0.051132694000000006,0.128897,0.09587380000000001,12.06,-1.08,-32.46
1554880776021,-8.734048,-0.19692309,4.0934862999999995,0.0,0.12144015,0.05539375,12.12,-1.02,-32.52
1554880776041,-8.585608,-0.31184477,3.8061821000000005,0.06604639400000001,0.094808534,0.011717908999999999,12.18,-0.96,-32.52
1554880776061,-8.566454,-0.10115502,3.614646,0.10972224,0.12037488,-0.00958738,12.24,-0.84,-32.52
1554880776081,-8.595184,-0.25917232,3.6721067,0.10546118,0.16192019,0.0053263223,12.24,-0.66,-32.58
1554880776101,-8.6813755,-0.30226797,3.6050692000000004,0.07882957,0.19387813,0.0063915867,12.24,-0.54,-32.58
1554880776121,-8.825027,-0.26874915,3.6577415,0.040480047000000005,0.21518342,-0.02130529,12.24,-0.42,-32.52
1554880776140,-8.781932000000001,-0.21128829999999998,3.4662056000000003,0.02876214,0.20453078,-0.06924219,12.24,-0.3,-32.52
1554880776160,-8.848969,-0.23044191,3.2698810000000003,0.083090626,0.20453078,-0.09374327,12.3,-0.24,-32.46
1554880776180,-8.949525999999999,-0.18255788,3.5571851999999997,0.15233281,0.20453078,-0.07989483,12.3,-0.18,-32.46
1554880776200,-9.23683,-0.27832595,3.6768951000000003,0.17789917,0.18322548,-0.08841695,12.48,-0.24,-32.4
1554880776221,-9.313444,-0.25917232,3.8253357000000006,0.12996227,0.11717909,-0.10759171,12.66,-0.36,-32.34
1554880776241,-9.179369,-0.22565351,3.696049,0.06391586,0.07137272,-0.101200126,12.72,-0.42,-32.28
1554880776261,-9.02614,-0.42676646,3.6577415,0.037284255,0.09161274,-0.03089267,12.96,-0.54,-32.22
1554880776281,-9.136273,-0.30226797,3.7822402000000004,0.15659387,0.084155895,-0.03089267,13.14,-0.6,-32.16
1554880776301,-9.222465,-0.52253455,3.5811272000000005,0.24074976,0.07669904,-0.029827405,13.26,-0.66,-32.04
1554880776320,-9.241617999999999,-0.26874915,3.5284547999999996,0.27057716,0.07243799,-0.033023197000000004,13.32,-0.72,-31.98
1554880776341,-9.136273,-0.110731825,3.4662056000000003,0.3057309,0.080960095,-0.0063915867,13.38,-0.78,-31.92
1554880776361,-8.983044999999999,-0.21128829999999998,3.2124202,0.35260254,0.05006743,0.015978966,13.38,-0.78,-31.92
1554880776381,-8.7771435,-0.26874915,2.9730000000000003,0.29294774,0.012783173500000002,0.05539375,13.38,-0.78,-31.92
1554880776401,-8.815451,-0.42197806,2.9586349,0.25033715,0.015978966,0.06604639400000001,13.32,-0.84,-31.98
1554880776421,-8.844180999999999,-0.27353755,2.9921536,0.25566345,0.014913702,0.043675844000000005,13.26,-0.96,-32.1
1554880776440,-8.872911,-0.3788824,2.8532897999999998,0.2545982,0.002130529,0.04580637,13.26,-1.14,-32.22
1554880776460,-8.925583999999999,-0.66618663,2.5611973,0.18535602,0.004261058,0.06391586,13.26,-1.26,-32.4
1554880776481,-9.217675999999999,0.008978256,3.6481647000000006,0.19068234,0.06604639400000001,0.0053263223,13.26,-1.44,-32.52
1554880776501,-8.5473,-0.3405752,3.6002807999999997,0.14061491,-0.015978966,0.07137272,13.26,-1.74,-32.64
1554880776521,-8.724471000000001,-0.28311434,3.1836896,0.10972224,-0.0031957934000000003,0.07243799,13.26,-2.1,-32.76
1554880776541,-8.882488,-0.374094,2.7527334999999997,0.09267801,-0.06285059999999999,0.07776430000000001,13.32,-2.46,-32.88
1554880776560,-8.8777,-0.4794389,2.3696610000000002,0.026631612000000002,-0.049002163,0.046871635999999994,13.38,-2.82,-32.94
1554880776580,-9.370906,-0.25917232,2.843713,-0.023435817999999997,0.029827405,-0.040480047000000005,13.44,-3.18,-32.94
1554880776600,-9.289502,-0.19213470000000002,3.1836896,-0.01917476,0.015978966,-0.033023197000000004,13.56,-3.42,-32.94
1554880776621,-9.035717,0.04249708,3.0974984,0.022370555,-0.03089267,0.0063915867,13.68,-3.6,-32.94
1554880776640,-9.332599,0.16220717,3.4614172,0.08628642,0.056459017,-0.06498113,13.74,-3.78,-33.0
1554880776660,-9.404425,0.32022446,3.1453824,0.04261058,0.024501082,-0.041545313,13.86,-3.78,-33.0
1554880776681,-9.370906,-0.077213004,3.0065188,-0.05219796,0.033023197000000004,-0.002130529,13.92,-3.66,-33.0
1554880776701,-9.399636,-0.0005985504,3.1836896,-0.11611383,0.020240024,0.018109497,14.04,-3.6,-33.0
1554880776720,-9.299078999999999,-0.0724246,3.1884782000000005,-0.082025364,-0.0063915867,0.03089267,14.04,-3.48,-33.06
1554880776741,-9.246407000000001,0.047285482000000004,3.245939,-0.043675844000000005,-0.03089267,0.011717908999999999,14.1,-3.36,-33.06
1554880776761,-9.088389,-0.05327099,3.0591912,-0.07989483,-0.03195793,0.027696876000000002,14.04,-3.3,-33.06
1554880776781,-8.963891,0.0041898529999999995,3.1262288,-0.13422333,-0.036218993,0.027696876000000002,14.04,-3.3,-33.06
1554880776802,-8.901641999999999,0.090381116,3.1884782000000005,-0.15978967,-0.054328485999999995,0.008522116,14.04,-3.3,-33.06
1554880776820,-8.643068,0.11911154,3.3608606,-0.17576863,-0.06498113,-0.0053263223,13.98,-3.3,-33.0
1554880776841,-8.623915,0.0712275,3.1693244,-0.113983296,-0.06924219,-0.054328485999999995,13.98,-3.3,-33.0
1554880776860,-8.643068,-0.02932897,3.2028434,-0.05965481,-0.05539375,-0.09161274,13.98,-3.3,-32.94
1554880776880,-8.734048,-0.11552023,3.1501707999999997,-0.053263225,-0.07137272,-0.13422333,13.98,-3.3,-32.82
1554880776900,-8.772355000000001,-0.048482585999999994,3.0735563999999997,-0.13528858,-0.098004326,-0.17789917,13.98,-3.3,-32.76
1554880776920,-8.887277000000001,-0.14425065,3.09271,-0.18002969,-0.10972224,-0.20240025,13.92,-3.3,-32.7
1554880776940,-8.916007,-0.20649989,3.198055,-0.21411815,-0.08522116,-0.18535602,13.92,-3.24,-32.64
1554880776960,-8.983044999999999,-0.39324763,3.341707,-0.25033715,-0.06178534,-0.20240025,13.92,-3.18,-32.58
1554880776980,-8.978256,-0.44592008,3.518878,-0.26205507,-0.06498113,-0.25885928,13.92,-3.06,-32.52
1554880777001,-8.978256,-0.36930559999999996,3.5093012000000003,-0.24607609,-0.03834952,-0.2908172,13.92,-2.94,-32.46
1554880777021,-8.959103,-0.4985925,3.5284547999999996,-0.1768339,-0.020240024,-0.28122982,13.86,-2.64,-32.46
1554880777041,-8.882488,-0.55605334,3.3081882000000005,-0.09267801,0.0031957934000000003,-0.26738137,13.86,-2.28,-32.4
1554880777060,-8.939949,-0.5033809,3.4231097999999998,-0.024501082,-0.0010652645,-0.2727077,13.8,-1.86,-32.34
1554880777080,-8.944737,-0.39803603,3.245939,0.00958738,-0.03195793,-0.28336033,13.68,-1.5,-32.28
1554880777102,-8.6813755,-0.6135142,3.2746694,0.00958738,-0.05219796,-0.2972088,13.56,-1.14,-32.16
1554880777121,-8.552089,-0.56084174,3.1693244,-0.036218993,-0.037284255,-0.32277513,13.44,-0.78,-32.1
1554880777141,-8.992621,-0.53689975,3.1693244,-0.07882957,-0.0063915867,-0.37710363,13.26,-0.54,-32.04
1554880777160,-9.016563,-0.8242039000000001,3.4901476000000002,-0.13528858,0.002130529,-0.3270362,13.14,-0.3,-31.98
1554880777181,-8.882488,-0.8960299999999999,3.1932666000000003,-0.15978967,-0.04580637,-0.34088463,12.96,-0.18,-31.86
1554880777201,-8.968679,-1.1019313,3.1932666000000003,-0.16405073,-0.05965481,-0.38136467,12.66,-0.24,-31.86
1554880777221,-8.987833,-1.1162965,3.09271,-0.15659387,-0.049002163,-0.39627838,12.42,-0.24,-31.86
1554880777241,-8.930372,-1.1546037,3.1549592,-0.14061491,-0.026631612000000002,-0.38882150000000004,12.24,-0.24,-31.86
1554880777260,-8.686164,-1.2743138,3.2698810000000003,-0.10546118,-0.02876214,-0.39734364,12.06,-0.24,-31.86
1554880777280,-8.815451,-1.1785458,3.116652,-0.07669904,-0.04474111,-0.43249738,11.88,-0.18,-31.8
1554880777302,-8.772355000000001,-1.240795,3.2890346,-0.06498113,-0.10546118,-0.47404268,11.7,-0.06,-31.74
1554880777320,-8.63828,-1.2838906,2.9682117000000003,-0.07137272,-0.18002969,-0.5113269,11.58,0.12,-31.74
1554880777340,-8.700529,-1.3269863000000002,3.0831332000000002,-0.10759171,-0.22796659,-0.5432849000000001,11.4,0.3,-31.68
1554880777360,-8.724471000000001,-1.4227544,3.1932666000000003,-0.14487597,-0.27590349999999997,-0.57098174,11.28,0.48,-31.68
1554880777381,-8.643068,-1.6765398,3.5476084,-0.18748654,-0.3206446,-0.6327670999999999,11.1,0.66,-31.62
1554880777400,-8.446744,-1.8584990000000001,3.696049,-0.22583607,-0.37390783,-0.69135666,10.74,0.84,-31.62
1554880777421,-8.09719,-2.2463598,3.566762,-0.28122982,-0.39201729999999996,-0.69348717,10.14,1.08,-31.68
1554880777440,-8.145074000000001,-2.2319946,3.6816837999999996,-0.32490566,-0.3749731,-0.7094661,9.96,1.14,-31.68
1554880777460,-7.972691499999999,-2.4474726,3.3895910000000002,-0.39414784,-0.38242993,-0.7318366999999999,9.54,1.2,-31.74
1554880777480,-7.9008656,-2.782661,3.4662056000000003,-0.49215218,-0.39521313,-0.74035877,9.12,1.26,-31.68
1554880777500,-7.896077,-2.8736405,3.3560722000000003,-0.5901565,-0.42397526,-0.78296936,8.7,1.38,-31.68
1554880777520,-7.7811556,-2.9741971,3.2890346,-0.6775081999999999,-0.45380265,-0.8213189000000001,8.28,1.68,-31.62
1554880777541,-7.608772999999999,-3.117849,3.4278982000000005,-0.74781567,-0.49747851,-0.8767126000000001,7.74,2.16,-31.5
1554880777561,-7.541735000000001,-3.2758665000000002,3.5140896,-0.7861651999999999,-0.5411543000000001,-0.9331716999999998,7.32,2.7,-31.38
1554880777580,-7.5034279999999995,-3.4721910000000005,3.614646,-0.8000136,-0.5635249,-0.94595486,6.84,3.24,-31.26
1554880777601,-7.680599000000001,-3.912724,3.887585,-0.79042625,-0.58909124,-0.99495703,6.24,3.84,-31.02
1554880777621,-7.479486,-3.9653966,3.6050692000000004,-0.7755125,-0.6380934,-1.1217233999999998,5.52,4.62,-30.72
1554880777641,-7.326257000000001,-3.970185,3.6242227999999996,-0.7552725,-0.6593986999999999,-1.2229236,4.74,5.4,-30.48
1554880777660,-7.28795,-4.013280399999999,3.7247794,-0.7307714,-0.65726817,-1.220793,3.9,6.18,-30.3
1554880777680,-7.062895,-4.171298,3.8684312999999997,-0.68389976,-0.69668293,-1.1984226,2.7,7.14,-29.88
1554880777701,-6.6941880000000005,-4.5016975,4.1413703,-0.63383234,-0.7595335999999999,-1.2250541000000001,1.86,7.68,-29.64
1554880777721,-6.38773,-4.9422307,4.0839095,-0.58056915,-0.8149273,-1.3262542,0.84,8.16,-29.4
1554880777740,-6.1243677000000005,-4.932654,4.0503907,-0.5571333,-0.82877576,-1.4242586000000002,-0.12,8.64,-28.98
1554880777760,-5.995081,-5.3396683,3.8205473,-0.5773733,-0.8085357,-1.4626081,-1.08,9.06,-28.62
1554880777780,-5.707777,-5.4881085999999994,3.8061821000000005,-0.6860303000000001,-0.7680557,-1.4956313,-2.04,9.3,-28.26
1554880777801,-5.3678,-5.885546,3.8061821000000005,-0.8745821,-0.77870834,-1.567004,-3.0,9.48,-27.84
1554880777821,-5.1762643,-6.1345434,3.8157589999999995,-1.1249193000000002,-0.80747044,-1.6660736,-4.02,9.66,-27.48
1554880777840,-4.8219223,-6.6852098,3.4326867999999995,-1.401888,-0.809601,-1.7246631000000001,-5.22,9.78,-27.12
1554880777861,-4.6591167,-7.2406645,2.9730000000000003,-1.6895093999999997,-0.76272935,-1.7353158,-6.54,9.84,-26.76
1554880777881,-4.5394063,-7.6189485,2.9059622000000003,-1.9803267,-0.6764429,-1.7598169,-7.86,9.9,-26.28
1554880777901,-4.189853,-8.389880999999999,2.7383683,-2.2050973999999997,-0.60720074,-1.7608821,-9.0,9.96,-25.74
1554880777920,-3.8259343999999995,-8.916606,2.7240029999999997,-2.3350596,-0.54648066,-1.7715348000000002,-10.32,9.96,-25.08
1554880777940,-3.5865142,-9.768942,2.8054059,-2.295645,-0.49854377,-1.7502294999999999,-11.76,10.08,-24.12
1554880777961,-3.3183637000000004,-10.01315,2.5228900000000003,-2.126268,-0.46125950000000004,-1.6777915,-13.2,10.32,-22.98
1554880777980,-3.1603463,-10.152014,2.2882583,-1.8279938000000002,-0.4101268,-1.591505,-14.64,10.44,-21.72
1554880778000,-3.0214825000000003,-10.453683,2.345719,-1.4721955,-0.35579833,-1.4871092,-15.96,10.56,-20.34
1554880778021,-2.9400797,-10.626064999999999,2.1206641,-1.0503508,-0.33768883,-1.3539511,-17.16,10.68,-18.96
1554880778041,-2.9113493,-10.798449,2.1972785,-0.7137272,-0.33555830000000003,-1.2261194,-18.18,10.68,-17.64
1554880778060,-2.6767175,-10.707469,1.9722236000000002,-0.4016047,-0.34834146,-1.1419635000000001,-19.32,10.62,-16.5
1554880778080,-2.6623523,-10.34355,1.8716671000000003,-0.14061491,-0.37071204,-1.051416,-20.34,10.38,-15.48
1554880778101,-2.3319526,-10.329185,1.7423803,0.03089267,-0.38136467,-0.9235843,-21.3,9.84,-14.82
1554880778121,-1.9871874,-10.501567,1.6130934,0.10013486,-0.34940675,-0.76059884,-22.14,9.0,-14.28
1554880778141,-1.8339584999999998,-10.34355,1.5939398,0.039414786,-0.32277513,-0.6625945,-22.74,8.16,-13.92
1554880778161,-1.8148049,-10.041881,1.4598645000000001,-0.084155895,-0.33129725,-0.5550028,-23.34,7.26,-13.62
1554880778181,-1.6903063999999999,-9.950901,1.3784616000000003,-0.24394555,-0.32384038,-0.41971418,-23.88,6.36,-13.44
1554880778201,-1.6280571000000001,-9.950901,1.3210008,-0.3717773,-0.3206446,-0.33449304,-24.36,5.46,-13.32
1554880778221,-1.541866,-10.008362,1.3497312,-0.4101268,-0.31638354,-0.28442562,-24.78,4.68,-13.32
1554880778241,-1.4891934,-9.903017,1.1294646000000002,-0.350472,-0.29614353,-0.23648871,-25.08,4.02,-13.32
1554880778261,-1.4508862,-10.108918,1.1965023000000001,-0.23861924,-0.23755397,-0.2034655,-25.32,3.54,-13.32
1554880778280,-1.4556746,-10.156802,1.3210008,-0.12357068,-0.21624869,-0.20879184,-25.56,3.3,-13.32
1554880778300,-1.3838485,-10.175956,1.2635399,-0.027696876000000002,-0.20879184,-0.20240025,-25.8,3.12,-13.2
1554880778321,-1.1827357,-10.094553,1.2204443,0.020240024,-0.18961707,-0.21198763,-26.04,2.94,-13.02
1554880778341,-1.13964,-9.926959,1.2252326999999998,0.02130529,-0.14913702,-0.20026971,-26.28,2.82,-12.84
1554880778361,-1.13964,-9.673173,1.2204443,-0.007456851,-0.083090626,-0.1438107,-26.46,2.7,-12.6
1554880778381,-1.1109096,-9.47206,1.4215573000000001,-0.05752428,-0.039414786,-0.06924219,-26.64,2.58,-12.36
1554880778400,-1.0247183000000002,-9.218275,1.3018471999999999,-0.12783173,-0.036218993,-0.0063915867,-26.76,2.46,-12.12
1554880778420,-0.9959879,-9.218275,1.6609775000000002,-0.18429075,-0.05219796,0.023435817999999997,-26.88,2.4,-11.94
1554880778441,-0.9816226999999998,-9.088988,1.6370354,-0.20879184,-0.05965481,0.053263225,-27.0,2.28,-11.7
1554880778460,-0.8523358,-9.227852,1.7806876,-0.20133498,-0.053263225,0.07669904,-27.18,2.16,-11.52
1554880778481,-0.80924016,-9.266159,1.8046296000000002,-0.17257284,-0.053263225,0.08735169,-27.24,2.22,-11.52
1554880778500,-0.79487497,-9.548675,1.8956091,-0.083090626,-0.037284255,0.07243799,-27.36,2.22,-11.46
1554880778521,-0.80445176,-9.577405,1.8142063999999998,-0.0053263223,-0.02876214,0.03834952,-27.42,2.28,-11.4
1554880778540,-0.6991069000000001,-9.654019,1.6178818000000001,0.043675844000000005,-0.012783173500000002,0.02876214,-27.54,2.34,-11.4
1554880778560,-0.5650316,-9.567828,1.4838065,0.060720075,0.012783173500000002,0.00958738,-27.6,2.34,-11.34
1554880778581,-0.59855044,-9.735422999999999,1.5556326,0.084155895,0.112918034,0.036218993,-27.66,2.46,-11.28
1554880778601,-0.6751649000000001,-9.654019,1.7280151000000001,0.080960095,0.16192019,0.040480047000000005,-27.66,2.52,-11.22
1554880778621,-0.81402856,-9.701903999999999,1.632247,0.09267801,0.14487597,-0.010652645,-27.66,2.58,-11.1
1554880778640,-0.58897364,-9.59177,1.5939398,0.111852765,0.11717909,-0.054328485999999995,-27.6,2.64,-11.04
1554880778661,-0.59376204,-9.711481,1.7136499,0.12463594,0.12357068,-0.080960095,-27.6,2.64,-10.92
1554880778681,-0.5506664000000001,-9.462483,1.4359225,0.113983296,0.14594123,-0.098004326,-27.54,2.64,-10.86
1554880778700,-0.7182605,-9.270947,1.5221136999999998,0.098004326,0.19813919,-0.083090626,-27.48,2.58,-10.8
1554880778720,-0.7517793,-9.223063,1.4359225,0.068176925,0.22050974,-0.05539375,-27.36,2.58,-10.8
1554880778741,-0.8379706,-9.242217,1.5747862,0.03089267,0.19387813,-0.07989483,-27.3,2.52,-10.8
1554880778761,-1.0007763,-9.280524,1.5556326,0.05006743,0.13315806,-0.09161274,-27.24,2.46,-10.8
1554880778781,-0.94331545,-9.476849000000001,1.3976152,0.094808534,0.09587380000000001,-0.07350325,-27.18,2.46,-10.86
1554880778801,-0.93852705,-9.649231,1.4838065,0.16298546,0.06604639400000001,-0.060720075,-27.18,2.4,-10.98
1554880778821,-0.8571242,-9.524733,1.4024036,0.20879184,0.04474111,-0.05752428,-27.18,2.34,-11.1
1554880778841,-0.90500826,-9.716269500000001,1.3688848,0.22050974,0.036218993,-0.046871635999999994,-27.18,2.34,-11.28
1554880778860,-0.89064306,-9.534309,1.407192,0.21092236,0.047936900000000005,-0.05219796,-27.24,2.34,-11.46
1554880778881,-0.8379706,-9.481637,1.3497312,0.17576863,0.099069595,-0.026631612000000002,-27.3,2.28,-11.64
1554880778901,-0.8475474000000001,-9.491214,1.359308,0.10865697,0.14168017,-0.024501082,-27.36,2.28,-11.82
1554880778920,-0.89543146,-9.357139,1.4311341,0.041545313,0.15339808,-0.020240024,-27.48,2.28,-12.0
1554880778940,-1.0486604,-9.357139,1.6274586000000002,-0.010652645,0.15339808,-0.0031957934000000003,-27.48,2.22,-12.12
1554880778961,-0.9672575000000001,-9.314043,1.4550761,-0.040480047000000005,0.13848437,-0.035153727999999995,-27.54,2.22,-12.36
1554880778981,-0.9672575000000001,-9.357139,1.4263457,-0.023435817999999997,0.13209279,-0.080960095,-27.48,2.22,-12.48
1554880779001,-0.92895025,-9.424176,1.6083049999999999,0.00958738,0.13848437,-0.10439592,-27.48,2.16,-12.6
1554880779021,-0.90500826,-9.395446000000002,1.4263457,0.026631612000000002,0.12463594,-0.10759171,-27.42,2.1,-12.78
1554880779041,-0.94810385,-9.539098,1.4263457,0.03089267,0.10972224,-0.10439592,-27.3,2.04,-12.9
1554880779061,-0.9816226999999998,-9.481637,1.632247,0.033023197000000004,0.082025364,-0.10439592,-27.24,1.92,-13.08
1554880779081,-0.9624690999999999,-9.519944,1.4742297,0.039414786,0.04261058,-0.10759171,-27.18,1.8,-13.2
1554880779101,-0.8858546,-9.548675,1.4598645000000001,0.05219796,0.027696876000000002,-0.07882957,-27.12,1.62,-13.32
1554880779120,-0.842759,-9.481637,1.4790181,0.07030745599999999,0.034088463,-0.068176925,-27.06,1.44,-13.38
1554880779140,-0.89543146,-9.452907000000002,1.6753427,0.068176925,0.026631612000000002,-0.08841695,-27.12,1.26,-13.44
1554880779161,-1.0055646999999999,-9.505579,1.5269021,0.04580637,0.008522116,-0.094808534,-27.12,1.14,-13.44
1554880779181,-0.92895025,-9.419388,1.287482,0.017044231,-0.007456851,-0.096939065,-27.12,0.96,-13.5
1554880779201,-0.7422025,-9.577405,1.2348095,0.010652645,0.014913702,-0.09374327,-27.12,0.9,-13.5
1554880779220,-0.8714894,-9.654019,1.311424,-0.015978966,0.05219796,-0.083090626,-27.12,0.78,-13.5
1554880779241,-0.8571242,-9.788095,1.4790181,-0.049002163,0.041545313,-0.068176925,-27.12,0.78,-13.56
1554880779261,-0.94331545,-9.701903999999999,1.4646529,-0.07669904,0.0031957934000000003,-0.07456851,-27.18,0.78,-13.56
1554880779281,-0.8571242,-9.644442999999999,1.3880384,-0.051132694000000006,-0.008522116,-0.080960095,-27.24,0.84,-13.62
1554880779301,-0.8283938,-9.634866,1.4550761,0.008522116,-0.014913702,-0.036218993,-27.36,0.84,-13.68
1554880779321,-0.93373865,-9.668385,1.4646529,0.03089267,-0.02876214,-0.043675844000000005,-27.42,0.9,-13.74
1554880779341,-0.93852705,-9.428965,1.3688848,0.043675844000000005,-0.046871635999999994,-0.06285059999999999,-27.54,0.9,-13.74
1554880779361,-0.90500826,-9.333197,1.2635399,0.033023197000000004,-0.054328485999999995,-0.053263225,-27.6,0.96,-13.86
1554880779381,-0.9576806999999999,-9.333197,1.5173253,0.0010652645,-0.07989483,-0.07563378,-27.72,0.96,-13.92
1554880779401,-0.8714894,-9.390657000000001,1.5364790000000002,-0.033023197000000004,-0.13315806,-0.06178534,-27.84,0.96,-14.04
1554880779420,-0.79966336,-9.424176,1.311424,-0.025566347000000003,-0.14807177,-0.060720075,-27.84,0.9,-14.04
1554880779440,-0.60812724,-9.59177,1.4119805,0.017044231,-0.1470065,-0.046871635999999994,-27.84,0.84,-14.1
1554880779461,-0.58897364,-9.663596,1.335366,0.03089267,-0.13209279,-0.040480047000000005,-27.84,0.78,-14.1
1554880779480,-0.60812724,-9.716269500000001,1.4694413,0.02876214,-0.1587244,-0.04474111,-27.84,0.66,-14.04
1554880779500,-0.6703765,-9.610924,1.3497312,0.034088463,-0.16618125,-0.027696876000000002,-27.84,0.6,-13.98
1554880779520,-0.62249243,-9.596559,1.3305776000000002,0.039414786,-0.15020229,-0.04474111,-27.84,0.54,-13.92
1554880779540,-0.641646,-9.524733,1.584363,0.04261058,-0.12037488,-0.029827405,-27.84,0.48,-13.86
1554880779561,-0.60812724,-9.601347,1.6514006,0.041545313,-0.11717909,-0.025566347000000003,-27.84,0.42,-13.74
1554880779581,-0.5506664000000001,-9.634866,1.5077485000000002,0.04580637,-0.10439592,-0.04474111,-27.84,0.42,-13.68
1554880779601,-0.51235914,-9.539098,1.5795746000000002,0.01917476,-0.03834952,-0.012783173500000002,-27.9,0.42,-13.62
1554880779620,-0.59855044,-9.644442999999999,1.7184383,-0.010652645,-0.039414786,0.010652645,-27.9,0.42,-13.56
1554880779640,-0.6751649000000001,-9.658808,1.5747862,-0.023435817999999997,-0.056459017,-0.012783173500000002,-27.96,0.42,-13.56
1554880779660,-0.6703765,-9.548675,1.5508442,-0.0063915867,-0.034088463,-0.0031957934000000003,-28.02,0.42,-13.5
1554880779681,-0.6847416999999999,-9.596559,1.5891514,0.02876214,-0.0010652645,0.007456851,-28.08,0.36,-13.44
1554880779701,-0.61770403,-9.452907000000002,1.5604209999999998,0.056459017,0.00958738,-0.041545313,-28.14,0.3,-13.38
1554880779721,-0.58897364,-9.543886,1.5221136999999998,0.04261058,0.018109497,-0.060720075,-28.14,0.3,-13.38
1554880779743,-0.59376204,-9.524733,1.4694413,-0.012783173500000002,0.023435817999999997,-0.04474111,-28.14,0.24,-13.32
1554880779761,-0.5506664000000001,-9.697116000000001,1.4167688999999999,-0.033023197000000004,0.03089267,-0.05006743,-28.14,0.24,-13.32
1554880779781,-0.6368576,-9.610924,1.5412674,-0.04580637,0.06285059999999999,-0.054328485999999995,-28.08,0.18,-13.38
1554880779801,-0.6655880999999999,-9.649231,1.4502877,-0.041545313,0.060720075,-0.05219796,-28.02,0.18,-13.44
1554880779820,-0.60812724,-9.563039999999999,1.5125369,-0.01917476,0.02876214,-0.060720075,-28.02,0.18,-13.5
1554880779840,-0.62249243,-9.452907000000002,1.5125369,0.018109497,0.023435817999999997,-0.080960095,-27.96,0.18,-13.56
1554880779860,-0.7086836999999999,-9.433753,1.335366,0.037284255,0.036218993,-0.09054748,-27.96,0.18,-13.56
1554880779881,-0.81402856,-9.376292,1.6657659,0.04474111,0.015978966,-0.08628642,-28.02,0.18,-13.56
1554880779901,-0.7278373,-9.285313,1.4790181,0.037284255,-0.007456851,-0.060720075,-28.08,0.18,-13.5
1554880779920,-0.80445176,-9.381081,1.4502877,0.014913702,-0.007456851,-0.053263225,-28.14,0.18,-13.44
1554880779941,-0.7278373,-9.462483,1.5173253,0.010652645,-0.011717908999999999,-0.06711166,-28.2,0.12,-13.38
1554880779961,-0.62249243,-9.505579,1.4119805,0.025566347000000003,-0.010652645,-0.07137272,-28.26,0.06,-13.32
1554880779980,-0.49799395,-9.606135,1.4981716999999999,0.018109497,0.029827405,-0.03834952,-28.2,0.0,-13.32
1554880780000,-0.48841715,-9.783307,1.5604209999999998,-0.010652645,0.035153727999999995,-0.04261058,-28.2,0.0,-13.32
1554880780021,-0.45968673,-9.577405,1.5556326,-0.02876214,0.04474111,-0.047936900000000005,-28.14,-0.06,-13.32
1554880780041,-0.47405192,-9.716269500000001,1.5891514,-0.04580637,0.07030745599999999,0.0063915867,-28.08,-0.12,-13.38
1554880780060,-0.50757074,-9.668385,1.6801311,-0.06391586,0.046871635999999994,0.0,-28.02,-0.12,-13.44
1554880780080,-0.61770403,-9.697116000000001,1.5747862,-0.029827405,0.034088463,-0.041545313,-27.9,-0.12,-13.5
1554880780102,-0.5554548,-9.467272,1.6035166,0.0063915867,0.036218993,-0.037284255,-27.84,-0.12,-13.56
1554880780121,-0.46447513,-9.529521,1.5125369,0.046871635999999994,0.041545313,-0.053263225,-27.78,-0.06,-13.62
1554880780141,-0.5315128,-9.433753,1.5795746000000002,0.04580637,0.06604639400000001,-0.058589544,-27.84,-0.06,-13.62
1554880780160,-0.6847416999999999,-9.371504,1.7184383,0.022370555,0.05965481,-0.083090626,-27.84,-0.06,-13.62
1554880780180,-0.6464345,-9.314043,1.6418238,0.002130529,0.023435817999999997,-0.10972224,-27.9,0.0,-13.62
1554880780201,-0.521936,-9.35235,1.4024036,0.0,0.013848438000000001,-0.11717909,-27.96,0.0,-13.56
1554880780220,-0.49799395,-9.366715,1.4167688999999999,0.010652645,0.024501082,-0.12570119999999999,-27.96,0.0,-13.56
1554880780240,-0.60812724,-9.361927,1.6226702,0.013848438000000001,0.043675844000000005,-0.12783173,-28.02,0.06,-13.56
1554880780261,-0.6368576,-9.405023,1.6274586000000002,0.0010652645,0.04474111,-0.12250541,-28.02,0.06,-13.5
1554880780281,-0.50757074,-9.409811,1.6130934,-0.012783173500000002,0.023435817999999997,-0.111852765,-28.08,0.06,-13.5
1554880780301,-0.4213795,-9.563039999999999,1.4981716999999999,0.002130529,0.03195793,-0.10865697,-28.14,0.06,-13.5
1554880780321,-0.521936,-9.567828,1.4311341,0.017044231,0.07669904,-0.10226539,-28.2,0.06,-13.44
1554880780341,-0.49320555,-9.634866,1.5077485000000002,0.025566347000000003,0.09161274,-0.10013486,-28.26,0.06,-13.44
1554880780361,-0.59376204,-9.634866,1.3640964,0.027696876000000002,0.08735169,-0.08841695,-28.32,0.06,-13.44
1554880780380,-0.47884035,-9.639654,1.6178818000000001,0.023435817999999997,0.07989483,-0.07882957,-28.38,0.06,-13.5
1554880780401,-0.5363011999999999,-9.701903999999999,1.4359225,0.033023197000000004,0.07669904,-0.07030745599999999,-28.38,0.0,-13.5
1554880780420,-0.51714754,-9.543886,1.4167688999999999,0.051132694000000006,0.07456851,-0.05006743,-28.44,-0.12,-13.56
1554880780440,-0.5746084,-9.582193,1.4502877,0.06498113,0.06498113,-0.039414786,-28.44,-0.3,-13.62
1554880780460,-0.641646,-9.448118,1.4838065,0.07776430000000001,0.04580637,-0.033023197000000004,-28.44,-0.48,-13.74
1554880780481,-0.60333884,-9.47206,1.3688848,0.06924219,0.02876214,-0.010652645,-28.44,-0.66,-13.86
1554880780501,-0.45968673,-9.505579,1.3880384,0.043675844000000005,0.023435817999999997,-0.0031957934000000003,-28.44,-0.9,-14.04
1554880780520,-0.44532153,-9.35235,1.4742297,0.03195793,0.01917476,-0.0053263223,-28.44,-1.08,-14.1
1554880780540,-0.58897364,-9.428965,1.3305776000000002,0.02130529,0.01917476,0.00958738,-28.44,-1.32,-14.22
1554880780561,-0.5410896,-9.342773,1.5699978,0.012783173500000002,0.002130529,-0.008522116,-28.5,-1.5,-14.34
1554880780581,-0.4357447,-9.390657000000001,1.4981716999999999,0.012783173500000002,-0.013848438000000001,-0.012783173500000002,-28.5,-1.62,-14.46
1554880780601,-0.545878,-9.476849000000001,1.4167688999999999,0.014913702,-0.010652645,-0.017044231,-28.5,-1.62,-14.52
1554880780620,-0.47884035,-9.529521,1.6178818000000001,0.018109497,0.008522116,0.0,-28.44,-1.62,-14.52
1554880780640,-0.5506664000000001,-9.529521,1.5556326,0.00958738,0.0053263223,0.020240024,-28.44,-1.56,-14.58
1554880780660,-0.45489833,-9.610924,1.4550761,0.008522116,-0.013848438000000001,0.018109497,-28.44,-1.5,-14.58
1554880780680,-0.45968673,-9.505579,1.3545196000000002,0.035153727999999995,-0.004261058,0.012783173500000002,-28.44,-1.44,-14.58
1554880780701,-0.45010993,-9.486425,1.584363,0.04474111,0.008522116,0.011717908999999999,-28.38,-1.32,-14.58
1554880780721,-0.56982,-9.496002,1.4215573000000001,0.047936900000000005,0.01917476,0.012783173500000002,-28.32,-1.26,-14.58
1554880780741,-0.5506664000000001,-9.467272,1.4407108999999998,0.029827405,0.02876214,0.014913702,-28.32,-1.2,-14.52
1554880780761,-0.545878,-9.558251,1.4646529,0.03089267,0.027696876000000002,-0.0063915867,-28.26,-1.14,-14.52
1554880780781,-0.7134720999999999,-9.47206,1.5891514,0.020240024,0.018109497,-0.007456851,-28.26,-1.08,-14.52
1554880780801,-0.5746084,-9.505579,1.5699978,0.022370555,0.0010652645,-0.022370555,-28.2,-1.08,-14.52
1554880780820,-0.5602431999999999,-9.524733,1.6753427,0.01917476,-0.011717908999999999,-0.025566347000000003,-28.26,-1.02,-14.52
1554880780840,-0.61770403,-9.539098,1.6944963,0.033023197000000004,-0.027696876000000002,-0.027696876000000002,-28.32,-1.02,-14.52
1554880780861,-0.4261679,-9.639654,1.5508442,0.05539375,-0.00958738,0.004261058,-28.38,-1.02,-14.58
1554880780881,-0.6464345,-9.524733,1.6178818000000001,0.043675844000000005,0.0053263223,0.033023197000000004,-28.38,-1.02,-14.58
1554880780900,-0.62728083,-9.59177,1.6226702,0.05006743,-0.007456851,0.011717908999999999,-28.5,-1.14,-14.7
1554880780920,-0.5363011999999999,-9.625289,1.6370354,0.051132694000000006,0.0,0.0,-28.5,-1.14,-14.7
1554880780940,-0.46926352,-9.505579,1.7711107,0.06604639400000001,0.024501082,-0.015978966,-28.56,-1.26,-14.76
1554880780960,-0.5363011999999999,-9.505579,1.5939398,0.083090626,0.05965481,0.0,-28.62,-1.32,-14.82
1554880780981,-0.5506664000000001,-9.505579,1.6897078999999997,0.083090626,0.099069595,0.026631612000000002,-28.62,-1.44,-14.88
1554880781000,-0.61291564,-9.337985,1.6705543,0.07137272,0.10652645,0.023435817999999997,-28.62,-1.5,-14.88
1554880781021,-0.60333884,-9.366715,1.6849195,0.056459017,0.10226539,0.01917476,-28.56,-1.56,-14.88
1554880781041,-0.7326256999999999,-9.419388,1.7232267,0.040480047000000005,0.10759171,0.00958738,-28.56,-1.62,-14.88
1554880781061,-0.58897364,-9.414599,1.7854759999999998,0.03195793,0.10226539,0.008522116,-28.5,-1.68,-14.88
1554880781080,-0.56982,-9.510367,1.5508442,0.025566347000000003,0.098004326,0.00958738,-28.44,-1.62,-14.82
1554880781101,-0.50278234,-9.476849000000001,1.7567455,0.029827405,0.11504856,-0.007456851,-28.32,-1.5,-14.88
1554880781121,-0.61770403,-9.467272,1.8189948,0.024501082,0.111852765,-0.0053263223,-28.2,-1.44,-14.94
1554880781141,-0.6655880999999999,-9.510367,1.9578583999999999,0.022370555,0.082025364,-0.0010652645,-28.14,-1.38,-14.94
1554880781160,-0.6560113000000001,-9.524733,1.857302,0.040480047000000005,0.06498113,0.0053263223,-28.02,-1.26,-15.06
1554880781180,-0.6464345,-9.452907000000002,1.6657659,0.07563378,0.07669904,0.007456851,-27.9,-1.14,-15.12
1554880781201,-0.62728083,-9.500791,1.7758990000000001,0.07563378,0.07350325,-0.011717908999999999,-27.84,-1.02,-15.18
1554880781220,-0.78050977,-9.395446000000002,1.8429368000000002,0.05965481,0.025566347000000003,-0.027696876000000002,-27.78,-0.84,-15.24
1554880781242,-0.7422025,-9.448118,1.809418,0.037284255,-0.01917476,-0.023435817999999997,-27.78,-0.66,-15.3
1554880781260,-0.58897364,-9.500791,1.4981716999999999,0.03834952,-0.029827405,-0.0063915867,-27.72,-0.54,-15.3
1554880781281,-0.5554548,-9.601347,1.7423803,0.047936900000000005,-0.002130529,0.00958738,-27.66,-0.36,-15.3
1554880781301,-0.6464345,-9.543886,1.8716671000000003,0.06391586,0.002130529,0.002130529,-27.6,-0.3,-15.36
1554880781321,-0.59855044,-9.505579,1.7663223000000001,0.06391586,-0.017044231,0.0031957934000000003,-27.6,-0.18,-15.36
1554880781341,-0.5650316,-9.452907000000002,1.809418,0.049002163,-0.03195793,0.0063915867,-27.6,-0.12,-15.36
1554880781361,-0.6751649000000001,-9.481637,1.5604209999999998,0.029827405,-0.03089267,0.0,-27.6,-0.12,-15.36
1554880781381,-0.770933,-9.59177,1.7615339,0.027696876000000002,-0.022370555,-0.011717908999999999,-27.54,-0.12,-15.36
1554880781400,-0.7086836999999999,-9.44333,1.6083049999999999,0.00958738,-0.035153727999999995,-0.03834952,-27.54,-0.18,-15.36
1554880781420,-0.7230489,-9.500791,1.7280151000000001,0.010652645,-0.037284255,-0.02876214,-27.54,-0.24,-15.42
1554880781441,-0.7374141,-9.68275,1.7040731,0.034088463,-0.008522116,0.037284255,-27.54,-0.3,-15.42
1554880781461,-0.7661445,-9.567828,1.9626468000000001,0.04580637,-0.002130529,0.06711166,-27.54,-0.42,-15.48
1554880781481,-0.79487497,-9.534309,1.7567455,0.05219796,-0.0063915867,0.098004326,-27.48,-0.48,-15.48
1554880781501,-0.81881696,-9.405023,1.7280151000000001,0.05006743,-0.008522116,0.10333065,-27.42,-0.54,-15.54
1554880781520,-0.81881696,-9.261371,1.8860323,0.053263225,0.0,0.08628642,-27.36,-0.6,-15.54
1554880781540,-0.8283938,-9.1512375,1.7902644,0.07030745599999999,0.022370555,0.06924219,-27.3,-0.6,-15.6
1554880781560,-0.6991069000000001,-9.184756,1.7280151000000001,0.08628642,0.039414786,0.053263225,-27.18,-0.66,-15.66
1554880781581,-0.7422025,-9.1512375,1.8429368000000002,0.082025364,0.05219796,0.026631612000000002,-27.12,-0.66,-15.72
1554880781601,-0.6751649000000001,-9.32362,1.8285716,0.07669904,0.07137272,-0.013848438000000001,-27.06,-0.66,-15.72
1554880781620,-0.770933,-9.318831,1.9674352,0.068176925,0.08628642,-0.058589544,-27.0,-0.6,-15.78
1554880781641,-0.7517793,-9.476849000000001,1.9099745,0.04474111,0.082025364,-0.06924219,-26.94,-0.54,-15.84
1554880781661,-0.6751649000000001,-9.577405,1.7711107,0.01917476,0.07456851,-0.06604639400000001,-26.94,-0.42,-15.84
1554880781681,-0.7086836999999999,-9.577405,1.8477252,-0.008522116,0.101200126,-0.056459017,-26.94,-0.36,-15.84
1554880781700,-0.842759,-9.496002,1.8668787,-0.034088463,0.12144015,-0.043675844000000005,-26.94,-0.24,-15.84
1554880781720,-0.94331545,-9.496002,1.8716671000000003,-0.046871635999999994,0.07350325,-0.058589544,-26.94,-0.18,-15.84
1554880781741,-0.91458505,-9.505579,1.7758990000000001,-0.040480047000000005,0.00958738,-0.053263225,-27.0,-0.12,-15.84
1554880781761,-0.94331545,-9.519944,1.7902644,-0.011717908999999999,-0.029827405,-0.047936900000000005,-27.0,0.0,-15.84
1554880781780,-0.8475474000000001,-9.558251,1.8381484000000001,0.011717908999999999,-0.056459017,-0.049002163,-27.0,0.06,-15.84
1554880781801,-0.8619126,-9.639654,1.8333599999999999,0.020240024,-0.09587380000000001,-0.049002163,-27.0,0.0,-15.9
1554880781821,-0.78529817,-9.428965,1.8429368000000002,0.022370555,-0.08948222,-0.025566347000000003,-27.06,-0.06,-15.96
1554880781841,-0.79966336,-9.424176,1.9243397,0.008522116,-0.07030745599999999,0.0010652645,-27.06,-0.12,-16.02
1554880781860,-0.93852705,-9.361927,1.7854759999999998,-0.018109497,-0.084155895,-0.0031957934000000003,-27.06,-0.18,-16.14
1554880781880,-0.8762778,-9.405023,1.7758990000000001,-0.02876214,-0.094808534,-0.0031957934000000003,-27.06,-0.3,-16.2
1554880781901,-0.8523358,-9.419388,1.8620903000000002,-0.02130529,-0.082025364,-0.02876214,-27.06,-0.42,-16.32
1554880781921,-0.8523358,-9.47206,1.9099745,-0.004261058,-0.058589544,-0.023435817999999997,-27.06,-0.48,-16.44
1554880781940,-0.8331822,-9.376292,1.929128,-0.007456851,-0.043675844000000005,-0.010652645,-27.12,-0.48,-16.44
1554880781961,-0.6991069000000001,-9.381081,1.8860323,-0.027696876000000002,-0.039414786,-0.017044231,-27.12,-0.54,-16.44
1554880781980,-0.7422025,-9.256582,1.8333599999999999,-0.03834952,-0.024501082,-0.035153727999999995,-27.12,-0.54,-16.44
1554880782000,-0.7469909,-9.342773,1.7088615000000003,-0.039414786,0.0010652645,-0.06498113,-27.18,-0.54,-16.38
1554880782021,-0.770933,-9.357139,1.8189948,-0.040480047000000005,0.014913702,-0.07456851,-27.18,-0.48,-16.38
1554880782041,-0.7757214,-9.496002,1.8860323,-0.04580637,0.01917476,-0.068176925,-27.24,-0.54,-16.32
1554880782060,-0.7086836999999999,-9.586982,1.7806876,-0.041545313,0.01917476,-0.05539375,-27.24,-0.54,-16.26
1554880782080,-0.6655880999999999,-9.582193,1.7184383,-0.036218993,0.029827405,-0.046871635999999994,-27.3,-0.54,-16.2
1554880782102,-0.770933,-9.543886,1.929128,-0.03195793,0.037284255,-0.056459017,-27.3,-0.54,-16.2
1554880782120,-0.80445176,-9.606135,1.7663223000000001,-0.022370555,0.037284255,-0.04261058,-27.36,-0.54,-16.14
1554880782141,-0.7757214,-9.59177,1.7567455,-0.0063915867,0.018109497,-0.035153727999999995,-27.36,-0.54,-16.08
1554880782160,-0.7038953,-9.448118,1.6801311,0.0031957934000000003,0.018109497,-0.025566347000000003,-27.3,-0.54,-16.02
1554880782181,-0.8571242,-9.438541,1.7854759999999998,0.008522116,0.035153727999999995,-0.013848438000000001,-27.3,-0.54,-15.96
1554880782201,-0.8283938,-9.610924,1.8477252,0.010652645,0.026631612000000002,-0.0010652645,-27.24,-0.54,-15.96
1554880782221,-0.81881696,-9.481637,1.8046296000000002,0.007456851,0.004261058,0.002130529,-27.24,-0.54,-15.9
1554880782241,-0.79487497,-9.438541,1.8285716,0.024501082,-0.008522116,0.0063915867,-27.24,-0.48,-15.84
1554880782260,-0.6607997,-9.476849000000001,1.7328035,0.053263225,-0.0053263223,0.0053263223,-27.24,-0.48,-15.84
1554880782281,-0.80924016,-9.510367,1.8381484000000001,0.06604639400000001,0.0053263223,-0.049002163,-27.3,-0.48,-15.84
1554880782301,-0.7422025,-9.414599,1.809418,0.05539375,0.00958738,-0.05539375,-27.3,-0.48,-15.84
1554880782321,-0.6895300999999999,-9.539098,1.8189948,0.018109497,0.022370555,-0.022370555,-27.3,-0.48,-15.84
1554880782341,-0.7374141,-9.553463,1.7184383,-0.014913702,0.04474111,-0.002130529,-27.3,-0.48,-15.9
1554880782360,-0.842759,-9.567828,1.8333599999999999,-0.00958738,0.056459017,0.013848438000000001,-27.3,-0.48,-15.9
1554880782381,-0.8858546,-9.476849000000001,1.8142063999999998,0.024501082,0.039414786,0.020240024,-27.3,-0.48,-15.96
1554880782401,-0.9720459000000001,-9.395446000000002,1.9578583999999999,0.053263225,0.008522116,0.022370555,-27.3,-0.42,-15.96
1554880782421,-0.94810385,-9.385869,1.6514006,0.07030745599999999,-0.008522116,0.011717908999999999,-27.3,-0.42,-16.02
1554880782440,-0.8571242,-9.438541,1.6083049999999999,0.07350325,-0.0053263223,-0.007456851,-27.3,-0.42,-16.08
1554880782460,-0.92416185,-9.333197,1.6897078999999997,0.049002163,0.020240024,0.002130529,-27.3,-0.36,-16.08
1554880782480,-0.8810662,-9.414599,1.8333599999999999,0.011717908999999999,0.00958738,0.0031957934000000003,-27.3,-0.36,-16.02
1554880782500,-0.91937345,-9.438541,1.6944963,-0.017044231,-0.00958738,0.0031957934000000003,-27.3,-0.3,-16.02
1554880782521,-0.78529817,-9.500791,1.7184383,-0.015978966,-0.027696876000000002,0.014913702,-27.3,-0.3,-16.02
1554880782540,-0.81881696,-9.409811,1.881244,0.014913702,-0.03089267,-0.002130529,-27.3,-0.3,-15.96
1554880782561,-0.8571242,-9.47206,1.7280151000000001,0.03195793,-0.013848438000000001,0.017044231,-27.24,-0.36,-15.96
1554880782580,-0.8379706,-9.428965,1.809418,0.04261058,-0.037284255,0.02130529,-27.24,-0.42,-15.9
1554880782601,-0.78050977,-9.405023,1.7328035,0.040480047000000005,-0.060720075,0.013848438000000001,-27.18,-0.48,-15.9
1554880782620,-0.7757214,-9.275736,1.6561891,0.012783173500000002,-0.039414786,0.034088463,-27.18,-0.48,-15.9
1554880782641,-0.91458505,-9.35235,1.9195513,-0.02130529,-0.033023197000000004,0.02876214,-27.12,-0.54,-15.84
1554880782661,-0.78529817,-9.381081,1.881244,-0.033023197000000004,-0.049002163,0.004261058,-27.12,-0.48,-15.84
1554880782681,-0.89543146,-9.529521,1.9387047999999998,-0.025566347000000003,-0.035153727999999995,0.002130529,-27.12,-0.48,-15.84
1554880782700,-0.842759,-9.577405,1.9913772,-0.0063915867,-0.023435817999999997,0.0031957934000000003,-27.12,-0.36,-15.84
1554880782720,-0.7757214,-9.433753,1.7567455,0.017044231,-0.036218993,-0.011717908999999999,-27.12,-0.24,-15.84
1554880782741,-0.866701,-9.462483,1.9482816000000003,0.01917476,-0.025566347000000003,-0.002130529,-27.12,-0.12,-15.84
1554880782762,-0.90500826,-9.419388,1.9818004,0.0,-0.029827405,0.007456851,-27.12,0.12,-15.78
1554880782781,-0.842759,-9.409811,1.809418,0.0053263223,-0.043675844000000005,-0.011717908999999999,-27.12,0.24,-15.78
1554880782800,-0.91937345,-9.428965,1.8285716,0.011717908999999999,-0.03089267,-0.027696876000000002,-27.12,0.3,-15.72
1554880782821,-0.94331545,-9.294889,1.977012,0.022370555,-0.026631612000000002,-0.027696876000000002,-27.18,0.42,-15.72
1554880782841,-0.81402856,-9.381081,1.9147629000000002,0.033023197000000004,-0.029827405,-0.02876214,-27.18,0.42,-15.72
1554880782861,-0.92416185,-9.419388,1.6609775000000002,0.024501082,-0.014913702,-0.03195793,-27.18,0.42,-15.66
1554880782880,-0.9528923,-9.376292,1.881244,0.014913702,0.002130529,-0.022370555,-27.18,0.42,-15.66
1554880782901,-0.8619126,-9.524733,1.7806876,0.008522116,0.002130529,-0.017044231,-27.18,0.42,-15.72
1554880782921,-0.8619126,-9.500791,1.857302,0.017044231,0.00958738,-0.033023197000000004,-27.12,0.42,-15.78
1554880782941,-0.842759,-9.424176,1.8046296000000002,0.023435817999999997,0.015978966,-0.03834952,-27.12,0.42,-15.84
1554880782961,-0.80924016,-9.366715,1.6130934,0.012783173500000002,0.012783173500000002,-0.04261058,-27.06,0.42,-15.96
1554880782981,-0.90021986,-9.371504,1.6657659,-0.0031957934000000003,0.018109497,-0.05006743,-27.06,0.36,-16.08
1554880783001,-0.94810385,-9.390657000000001,1.7806876,-0.023435817999999997,0.02130529,-0.033023197000000004,-27.06,0.36,-16.14
1554880783020,-0.9624690999999999,-9.428965,1.8429368000000002,-0.024501082,0.014913702,-0.056459017,-27.0,0.36,-16.26
1554880783040,-0.9624690999999999,-9.395446000000002,1.6849195,-0.017044231,0.007456851,-0.047936900000000005,-27.0,0.36,-16.32
1554880783061,-0.8810662,-9.462483,1.7615339,-0.004261058,-0.0031957934000000003,-0.036218993,-27.0,0.36,-16.32
1554880783081,-0.94331545,-9.448118,1.6753427,0.012783173500000002,-0.0031957934000000003,-0.04580637,-26.94,0.3,-16.32
1554880783101,-0.89543146,-9.491214,1.6801311,-0.002130529,0.0031957934000000003,-0.03834952,-26.94,0.3,-16.32
1554880783121,-0.90979666,-9.491214,1.6753427,-0.014913702,-0.007456851,-0.049002163,-26.94,0.3,-16.26
1554880783141,-0.80445176,-9.529521,1.7423803,-0.029827405,-0.0063915867,-0.04261058,-26.94,0.3,-16.2
1554880783161,-0.94810385,-9.491214,1.7423803,-0.033023197000000004,0.002130529,-0.022370555,-26.88,0.3,-16.14
1554880783181,-0.93852705,-9.486425,1.7328035,-0.018109497,0.0010652645,-0.02130529,-26.82,0.3,-16.14
1554880783200,-0.8858546,-9.371504,1.8716671000000003,-0.00958738,-0.004261058,-0.007456851,-26.82,0.3,-16.08
1554880783220,-0.8714894,-9.529521,1.9003976999999999,-0.004261058,-0.020240024,-0.014913702,-26.76,0.3,-16.02
1554880783240,-0.90500826,-9.500791,1.7136499,0.0063915867,-0.01917476,-0.012783173500000002,-26.7,0.24,-16.02
1554880783261,-0.8283938,-9.596559,1.8429368000000002,0.011717908999999999,-0.0010652645,-0.012783173500000002,-26.64,0.24,-15.96
1554880783281,-0.90979666,-9.476849000000001,1.9387047999999998,0.00958738,0.008522116,-0.025566347000000003,-26.64,0.24,-15.9
1554880783301,-0.8858546,-9.414599,1.6801311,0.002130529,0.0031957934000000003,-0.014913702,-26.58,0.18,-15.9
1554880783321,-0.8858546,-9.405023,1.7711107,-0.0053263223,0.0063915867,-0.015978966,-26.52,0.12,-15.9
1554880783341,-0.8810662,-9.462483,1.8668787,-0.004261058,0.015978966,-0.015978966,-26.52,0.06,-15.96
1554880783361,-0.92416185,-9.534309,1.8956091,0.0031957934000000003,0.02130529,-0.0063915867,-26.52,0.06,-15.96
1554880783381,-0.90021986,-9.500791,1.8620903000000002,0.008522116,0.020240024,-0.0010652645,-26.58,0.0,-15.96
1554880783401,-0.90979666,-9.47206,1.8477252,0.0053263223,0.012783173500000002,-0.007456851,-26.58,0.0,-15.96
1554880783421,-0.92416185,-9.476849000000001,1.7280151000000001,0.0063915867,0.0031957934000000003,-0.00958738,-26.58,0.0,-15.96
1554880783441,-0.8571242,-9.467272,1.7232267,0.020240024,0.010652645,-0.0053263223,-26.58,0.0,-15.96
1554880783461,-0.8571242,-9.519944,1.6801311,0.023435817999999997,0.033023197000000004,0.0031957934000000003,-26.58,0.0,-15.96
1554880783480,-0.93373865,-9.385869,1.7375918999999997,-0.0010652645,0.037284255,-0.0063915867,-26.58,0.06,-15.96
1554880783500,-0.9768343,-9.524733,1.8142063999999998,-0.014913702,0.018109497,-0.008522116,-26.58,0.12,-15.9
1554880783521,-0.8714894,-9.529521,1.881244,0.0,0.0031957934000000003,0.008522116,-26.64,0.18,-15.9
1554880783541,-0.93373865,-9.534309,1.8285716,0.017044231,0.0010652645,0.008522116,-26.7,0.24,-15.9
1554880783561,-0.9528923,-9.505579,1.7471686999999998,0.035153727999999995,0.00958738,0.014913702,-26.7,0.3,-15.9
1554880783581,-0.9624690999999999,-9.543886,1.6705543,0.026631612000000002,0.012783173500000002,0.03089267,-26.76,0.36,-15.9
1554880783601,-1.1779473,-9.586982,1.8189948,0.012783173500000002,-0.0031957934000000003,0.029827405,-26.88,0.36,-15.9
1554880783621,-1.0726023999999998,-9.500791,1.6897078999999997,0.010652645,-0.02876214,0.034088463,-26.88,0.42,-15.96
1554880783640,-1.1587936,-9.486425,1.7615339,0.029827405,-0.04580637,0.04474111,-26.94,0.36,-15.96
1554880783661,-1.1923125,-9.519944,1.8381484000000001,0.051132694000000006,-0.054328485999999995,0.05752428,-27.0,0.36,-15.96
1554880783681,-1.1540052,-9.524733,1.8477252,0.05539375,-0.053263225,0.07669904,-26.94,0.36,-16.02
1554880783701,-1.2497733,-9.529521,2.0105310000000003,0.05752428,-0.040480047000000005,0.09161274,-26.94,0.36,-16.08
1554880783721,-1.2880806,-9.452907000000002,2.130241,0.07137272,-0.05752428,0.10759171,-26.94,0.48,-16.08
1554880783740,-1.3455413999999999,-9.553463,2.2786815,0.10439592,-0.068176925,0.16192019,-26.88,0.54,-16.08
1554880783760,-1.5610195,-9.654019,2.3409307,0.16831179,-0.04474111,0.22477080000000002,-26.88,0.66,-16.08
1554880783781,-1.7142484,-9.462483,2.0727801,0.26205507,-0.0053263223,0.27164245,-26.82,0.84,-16.08
1554880783801,-2.0590134,-9.783307,2.3936029999999997,0.3057309,0.051132694000000006,0.36005938,-26.82,0.96,-16.08
1554880783820,-2.27928,-9.98442,2.6569653,0.32277513,0.04261058,0.4261058,-26.76,1.14,-16.08
1554880783841,-2.528277,-10.195109,2.891597,0.30040458,-0.024501082,0.47723848,-26.7,1.26,-16.08
1554880783861,-2.456451,-10.429741,2.6282349,0.32810146,-0.043675844000000005,0.5432849000000001,-26.64,1.38,-16.08
1554880783881,-2.4708161,-10.573393,2.297835,0.38562572,0.07669904,0.71159667,-26.52,1.44,-16.02
1554880783902,-2.791639,-10.970831,2.8868085999999997,0.41545314,0.33555830000000003,0.96299905,-26.34,1.68,-16.02
1554880783921,-2.96881,-10.760141,3.164536,0.39734364,0.36432046,1.0897655000000002,-26.16,1.98,-16.02
1554880783940,-3.3327288999999998,-10.477625,3.1070752,0.38775626,0.32170987,1.1749867,-25.86,2.4,-16.08
1554880783961,-3.3135752999999997,-10.190321,2.8580782000000005,0.45593318,0.23222765,1.3592775,-25.5,2.94,-16.08
1554880783981,-3.1268275,-9.941324,2.5899277,0.49747851,0.23648871,1.4966966,-25.02,3.54,-16.02
1554880784001,-3.3087866000000004,-9.558251,2.5851393,0.5336975,0.26844665,1.6000272,-24.36,4.32,-16.08
1554880784021,-3.5769374,-9.318831,2.5133132999999996,0.5400891,0.2790993,1.6628778000000002,-23.64,5.16,-16.14
1554880784040,-3.5673605999999998,-9.065046,2.4462755,0.5187838,0.28122982,1.700162,-22.92,6.06,-16.2
1554880784061,-3.7493198,-8.614936,2.28347,0.45060685,0.3057309,1.7299895,-22.14,7.08,-16.32
1554880784081,-4.0270470000000005,-8.519167999999999,2.28347,0.36432046,0.34514567,1.780057,-21.36,8.04,-16.44
1554880784101,-4.10845,-8.15525,2.355296,0.30146983,0.36964676,1.7949706000000003,-20.46,8.88,-16.56
1554880784121,-4.209007,-7.944559599999999,2.178125,0.294013,0.37923414,1.8024273999999998,-19.32,9.78,-16.68
1554880784141,-4.3574470000000005,-7.963713,2.331354,0.31851408,0.38242993,1.7694043000000002,-18.06,10.68,-16.86
1554880784160,-4.635174299999999,-7.5566993,2.3600842999999996,0.35473305,0.34621096,1.6884441000000003,-16.92,11.58,-17.04
1554880784181,-4.903325,-7.0826473,2.40318,0.42290998,0.28975195,1.6064188,-15.72,12.6,-17.16
1554880784201,-5.334281400000001,-6.637326,2.3983915000000002,0.5091964,0.23968449999999997,1.5488945,-14.52,13.56,-17.28
1554880784221,-5.750872599999999,-6.4218473,2.3361422999999997,0.5475459,0.22690132,1.5350461000000002,-13.2,14.34,-17.4
1554880784240,-5.923255,-6.330868,2.5228900000000003,0.55606806,0.1949434,1.510545,-11.82,15.18,-17.46
1554880784261,-6.105214,-6.0244102,2.7144263,0.58483016,0.16192019,1.4839133999999998,-10.62,15.9,-17.52
1554880784280,-6.349423000000001,-5.6844335,2.9442697,0.6114618,0.13422333,1.4594122999999999,-9.6,16.56,-17.58
1554880784300,-6.38773,-5.4498014,2.8054059,0.62104917,0.08948222,1.3923006000000002,-8.7,17.22,-17.7
1554880784320,-6.885724000000001,-4.9996915,2.8868085999999997,0.57417756,0.1107875,1.2985574,-7.74,17.76,-17.88
1554880784340,-7.134721300000001,-4.741118,2.9538465,0.47297743,0.1438107,1.320928,-6.72,18.0,-18.18
1554880784361,-7.168239999999999,-4.659715,3.068768,0.36218992,0.1587244,1.3038836999999999,-5.58,18.24,-18.48
1554880784381,-7.019799000000001,-4.300585,2.9825767999999995,0.34088463,0.16724652,1.220793,-4.56,18.36,-18.84
1554880784400,-7.091625,-4.200028400000001,3.1118636000000004,0.38456047,0.17257284,1.1302456,-3.66,18.48,-19.2
1554880784420,-7.1969705,-3.8361096,3.293823,0.44741106,0.15339808,1.051416,-2.76,18.6,-19.56
1554880784441,-7.4842744,-3.6589386,3.1501707999999997,0.5091964,0.1470065,0.99708754,-1.92,18.6,-19.92
1554880784461,-7.513005000000001,-3.6206315000000004,3.164536,0.531567,0.111852765,0.8841694999999999,-1.14,18.54,-20.22
1554880784480,-7.4507556,-3.3859997,3.2124202,0.5028047999999999,0.07030745599999999,0.7488809000000001,-0.42,18.48,-20.4
1554880784501,-7.431602000000001,-3.4865562999999993,3.2555158,0.42397526,0.04580637,0.63915867,0.72,18.3,-20.64
1554880784521,-7.4507556,-3.4147300000000005,3.221997,0.34727620000000003,0.05006743,0.55074173,1.38,18.12,-20.82
1554880784541,-7.752425,-3.2662897,3.2028434,0.28868666,0.07243799,0.47830373,2.04,17.94,-20.94
1554880784561,-7.771578999999999,-3.3237504999999996,3.2650926,0.24607609,0.10333065,0.4261058,2.64,17.7,-21.12
1554880784581,-8.058883,-3.2998084999999997,3.221997,0.19920446,0.128897,0.39308259999999995,3.12,17.46,-21.24
1554880784600,-8.106767,-3.0125043,3.2890346,0.14807177,0.10652645,0.38136467,3.6,17.22,-21.42
1554880784620,-8.207322999999999,-2.926313,3.1836896,0.11824436,0.080960095,0.40053943,4.08,16.98,-21.54
1554880784640,-8.307879,-2.830545,3.245939,0.1107875,0.07776430000000001,0.39734364,4.44,16.68,-21.72
1554880784660,-8.585608,-2.7778726000000002,3.5715504,0.12570119999999999,0.039414786,0.35792887,4.68,16.5,-21.78
1554880784680,-8.307879,-2.6629508,3.7487214,0.21518342,-0.05539375,0.28336033,5.04,16.26,-21.78
1554880784700,-8.494628,-2.5576060000000003,3.470994,0.35579833,-0.12250541,0.22370553,5.4,16.02,-21.78
1554880784721,-8.39886,-2.260725,3.4757824,0.46658584,-0.15233281,0.1949434,5.82,15.84,-21.84
1554880784741,-8.437167,-2.15538,3.4566288,0.5070659000000001,-0.15126756,0.16192019,6.18,15.66,-21.9
1554880784761,-8.480263,-2.107496,3.7870286,0.46552056,-0.11717909,0.16405073,6.48,15.54,-22.14
1554880784781,-8.470686,-2.2319946,3.6481647000000006,0.33449304,-0.101200126,0.17044231,6.84,15.36,-22.5
1554880784801,-8.403648,-2.1745335999999997,3.3895910000000002,0.16831179,-0.07030745599999999,0.13315806,7.02,15.24,-22.8
1554880784820,-8.341399000000001,-2.1649568,3.447052,-0.002130529,-0.029827405,0.101200126,7.2,15.06,-23.1
1554880784841,-8.413225,-2.3612813999999998,3.5236663999999998,-0.094808534,0.022370555,0.10333065,7.2,14.94,-23.4
1554880784860,-8.494628,-2.6007016,3.7487214,-0.1107875,0.051132694000000006,0.11717909,7.2,14.88,-23.7
1554880784880,-8.6334915,-2.5863364,3.7487214,-0.094808534,0.05006743,0.13528858,7.2,14.76,-23.94
1554880784901,-8.652645,-2.6916811000000003,3.614646,-0.004261058,0.023435817999999997,0.112918034,7.2,14.7,-24.18
1554880784922,-8.523358,-2.5049335999999998,3.7152026,0.07989483,0.015978966,0.099069595,7.2,14.58,-24.24
1554880784941,-8.576031,-2.4283189999999997,3.5715504,0.18961707,0.035153727999999995,0.12037488,7.26,14.34,-24.18
1554880784961,-8.7771435,-2.332551,3.7582982000000005,0.30679616,0.07456851,0.17896444,7.32,14.16,-24.18
1554880784981,-8.714894000000001,-2.4426842,3.8109705000000003,0.37710363,0.08948222,0.24181503,7.32,13.98,-24.18
1554880785001,-8.6334915,-2.1936872000000003,3.8205473,0.35792887,0.054328485999999995,0.20240025,7.38,13.8,-24.18
1554880785020,-8.829816000000001,-1.9782091,3.3369186,0.34514567,0.007456851,0.14913702,7.5,13.62,-24.12
1554880785040,-8.815451,-1.7675193999999999,3.5476084,0.30360037,0.010652645,0.18642128,7.62,13.5,-24.12
1554880785061,-8.8777,-1.7196354,3.4183214,0.25992453,0.047936900000000005,0.21837921,7.74,13.32,-24.12
1554880785081,-8.853758000000001,-1.6765398,3.5093012000000003,0.19707392,0.06391586,0.21837921,7.86,13.2,-24.18
1554880785102,-8.743625,-1.5520413,3.6194344,0.13741912,0.03834952,0.19813919,7.98,13.2,-24.18
1554880785120,-8.662222,-1.4802152,3.3943794,0.10546118,0.0010652645,0.15765914,8.16,13.08,-24.24
1554880785140,-8.671799,-1.4802152,3.6864722000000003,0.13209279,-0.029827405,0.12996227,8.34,12.9,-24.36
1554880785160,-8.604761,-1.3557166999999999,3.4087446000000003,0.1470065,-0.029827405,0.13209279,8.46,12.66,-24.42
1554880785181,-8.686164,-1.4227544,3.5619736000000004,0.11717909,-0.037284255,0.11930962,8.58,12.42,-24.54
1554880785201,-8.566454,-1.4754268,3.4087446000000003,0.05539375,-0.06391586,0.07882957,8.76,12.12,-24.72
1554880785221,-8.556877,-1.5185224,3.494936,-0.049002163,-0.05539375,0.06711166,8.88,11.82,-24.9
1554880785240,-8.585608,-1.6238673000000001,3.696049,-0.12357068,-0.02130529,0.054328485999999995,9.0,11.58,-25.08
1554880785260,-8.700529,-1.6430208999999998,3.7822402000000004,-0.13848437,0.03195793,0.039414786,9.06,11.34,-25.2
1554880785281,-8.690952000000001,-1.7100586,3.6577415,-0.10865697,0.051132694000000006,0.018109497,9.18,11.22,-25.32
1554880785301,-8.825027,-1.5855601000000001,3.8157589999999995,-0.035153727999999995,0.03834952,-0.004261058,9.24,11.1,-25.44
1554880785321,-8.8777,-1.5280992,3.5954924,0.06391586,0.022370555,-0.0063915867,9.3,11.04,-25.5
1554880785340,-8.7532015,-1.4466964,3.614646,0.10759171,0.004261058,0.012783173500000002,9.42,11.1,-25.56
1554880785360,-8.748413000000001,-1.4514848,3.6290112,0.07137272,0.0053263223,0.026631612000000002,9.42,11.22,-25.56
1554880785381,-8.858546,-1.4466964,3.6002807999999997,0.02130529,-0.0053263223,0.024501082,9.54,11.34,-25.5
1554880785401,-8.7532015,-1.4610616,3.6768951000000003,-0.015978966,-0.013848438000000001,0.02876214,9.6,11.4,-25.5
1554880785421,-8.805874000000001,-1.4371196000000002,3.5476084,-0.02130529,-0.010652645,0.020240024,9.66,11.46,-25.5
1554880785441,-8.848969,-1.6095021,3.7008373999999997,-0.015978966,-0.002130529,0.00958738,9.72,11.52,-25.44
1554880785461,-8.786719999999999,-1.441908,3.6194344,0.0,0.0031957934000000003,0.014913702,9.78,11.58,-25.44
1554880785481,-8.738836000000001,-1.5759833,3.6577415,0.007456851,0.0,0.024501082,9.84,11.58,-25.44
1554880785501,-8.686164,-1.441908,3.6194344,0.008522116,-0.008522116,0.015978966,9.9,11.58,-25.38
1554880785521,-8.791509,-1.4083891000000002,3.6337996,0.017044231,-0.015978966,-0.002130529,9.9,11.58,-25.38
1554880785541,-8.810661999999999,-1.3652935,3.6768951000000003,0.018109497,-0.010652645,-0.012783173500000002,9.9,11.52,-25.26
1554880785560,-8.7532015,-1.4562732,3.4757824,0.004261058,-0.010652645,-0.017044231,9.9,11.52,-25.2
1554880785581,-8.767567,-1.5280992,3.5332432000000003,-0.023435817999999997,-0.020240024,-0.023435817999999997,9.9,11.46,-25.2
1554880785601,-8.643068,-1.6861166,3.6481647000000006,-0.03195793,-0.012783173500000002,-0.040480047000000005,9.9,11.4,-25.2
1554880785621,-8.7292595,-1.489792,3.6337996,-0.02876214,-0.00958738,-0.05219796,9.9,11.4,-25.2
1554880785640,-8.75799,-1.4323312,3.5236663999999998,-0.03089267,0.002130529,-0.026631612000000002,9.84,11.34,-25.14
1554880785660,-8.719683,-1.4610616,3.6337996,-0.014913702,-0.002130529,0.0,9.78,11.34,-25.2
1554880785681,-8.6813755,-1.441908,3.5619736000000004,-0.00958738,-0.012783173500000002,-0.036218993,9.78,11.34,-25.2
1554880785700,-8.834603999999999,-1.4514848,3.5093012000000003,-0.046871635999999994,0.004261058,-0.05006743,9.78,11.34,-25.26
1554880785721,-8.8777,-1.5520413,3.6433763999999997,-0.05965481,-0.0031957934000000003,-0.049002163,9.78,11.34,-25.26
1554880785740,-8.844180999999999,-1.6430208999999998,3.566762,-0.058589544,0.0063915867,-0.04580637,9.78,11.4,-25.32
1554880785761,-8.8777,-1.6861166,3.7582982000000005,-0.03089267,0.012783173500000002,-0.03195793,9.78,11.46,-25.32
1554880785781,-8.8777,-1.5807717,3.8588544999999996,0.012783173500000002,0.010652645,-0.02130529,9.84,11.46,-25.26
1554880785801,-8.810661999999999,-1.5855601000000001,3.7056258,0.04261058,0.002130529,-0.011717908999999999,9.84,11.52,-25.26
1554880785821,-8.6574335,-1.5855601000000001,3.5093012000000003,0.029827405,0.0010652645,-0.020240024,9.84,11.52,-25.26
1554880785841,-8.690952000000001,-1.6765398,3.5954924,0.0063915867,0.008522116,-0.02876214,9.9,11.52,-25.2
1554880785860,-8.815451,-1.7052702000000002,3.5332432000000003,0.0,0.00958738,-0.027696876000000002,9.9,11.52,-25.2
1554880785880,-8.786719999999999,-1.4945803999999998,3.5476084,-0.0063915867,0.012783173500000002,-0.020240024,9.84,11.52,-25.14
1554880785901,-8.8777,-1.4131776000000003,3.6529531000000004,0.015978966,0.011717908999999999,-0.015978966,9.84,11.58,-25.14
1554880785921,-8.791509,-1.6525976999999998,3.494936,0.023435817999999997,0.002130529,-0.014913702,9.84,11.58,-25.08
1554880785941,-8.839393,-1.4466964,3.6721067,0.027696876000000002,0.025566347000000003,-0.03195793,9.9,11.64,-25.08
1554880785960,-8.772355000000001,-1.6095021,3.5571851999999997,0.0010652645,0.014913702,-0.0031957934000000003,9.9,11.7,-25.08
1554880785981,-8.786719999999999,-1.6286557,3.4087446000000003,-0.029827405,0.013848438000000001,-0.004261058,9.9,11.76,-25.08
1554880786001,-8.810661999999999,-1.6956933999999997,3.0879216,-0.018109497,0.0031957934000000003,-0.015978966,9.96,11.82,-25.14
1554880786020,-9.035717,-1.4466964,3.9594111000000005,0.11504856,0.10226539,-0.08628642,9.96,11.88,-25.14
1554880786041,-8.839393,-1.4323312,3.7056258,0.039414786,0.043675844000000005,-0.027696876000000002,10.02,11.94,-25.14
1554880786060,-8.75799,-1.7675193999999999,3.3464954,-0.027696876000000002,0.033023197000000004,-0.013848438000000001,10.02,11.94,-25.2
1554880786080,-8.643068,-1.738789,3.3560722000000003,-0.07137272,0.010652645,-0.020240024,10.02,12.0,-25.2
1554880786101,-8.719683,-1.6478093,3.7247794,-0.068176925,0.02130529,-0.008522116,10.02,12.0,-25.26
1554880786121,-8.8777,-1.4514848,3.341707,0.083090626,0.014913702,-0.05006743,10.02,12.0,-25.32
1554880786141,-8.810661999999999,-1.4466964,3.4662056000000003,0.082025364,0.00958738,-0.034088463,10.02,12.0,-25.32
1554880786161,-8.872911,-1.4945803999999998,3.5093012000000003,-0.018109497,0.00958738,-0.029827405,10.02,12.0,-25.26
1554880786181,-8.872911,-1.5185224,3.6721067,-0.04580637,0.010652645,-0.036218993,10.02,12.0,-25.26
1554880786201,-8.868122999999999,-1.489792,3.5476084,0.043675844000000005,0.0,-0.043675844000000005,10.02,12.0,-25.2
1554880786220,-8.901641999999999,-1.4945803999999998,3.3129766000000003,0.09161274,-0.010652645,-0.05006743,10.08,11.94,-25.14
1554880786241,-8.887277000000001,-1.4993688,3.4662056000000003,0.017044231,-0.008522116,-0.03834952,10.08,11.94,-25.08
1554880786260,-8.767567,-1.6956933999999997,3.4518404,-0.09374327,-0.018109497,-0.011717908999999999,10.08,11.94,-25.08
1554880786280,-8.619126,-1.6861166,3.7295678,-0.10759171,-0.023435817999999997,-0.014913702,10.08,11.88,-25.08
1554880786301,-8.844180999999999,-1.5759833,3.3704373999999997,-0.0063915867,-0.023435817999999997,-0.037284255,10.08,11.88,-25.08
1554880786321,-8.710106,-1.2934675,3.5619736000000004,0.15978967,-0.02876214,-0.10013486,10.08,11.82,-25.08
1554880786340,-8.8777,-1.2120646000000002,3.4087446000000003,0.12783173,-0.020240024,-0.10226539,10.08,11.82,-25.08
1554880786360,-8.63828,-1.6525976999999998,3.6816837999999996,-0.10013486,0.013848438000000001,-0.039414786,10.08,11.82,-25.14
1554880786381,-8.7532015,-1.9207484000000001,3.54282,-0.12676647,0.007456851,-0.04474111,10.08,11.82,-25.2
1554880786402,-8.6813755,-1.6765398,3.6529531000000004,0.039414786,0.007456851,-0.05006743,10.08,11.76,-25.2
1554880786420,-8.743625,-1.441908,3.518878,0.14061491,-0.020240024,-0.06711166,10.02,11.76,-25.2
1554880786441,-8.801085,-1.2743138,3.2507273999999997,0.11611383,-0.03195793,-0.08841695,9.96,11.76,-25.14
1554880786461,-8.523358,-1.4131776000000003,3.5093012000000003,-0.07669904,-0.040480047000000005,-0.11504856,9.9,11.76,-25.08
1554880786481,-8.537724,-1.4227544,3.4422636,-0.18535602,-0.024501082,-0.18855181,9.9,11.76,-25.02
1554880786501,-8.734048,-1.441908,3.566762,-0.19068234,-0.008522116,-0.22796659,9.84,11.76,-24.96
1554880786520,-8.576031,-1.7675193999999999,3.6433763999999997,-0.1949434,-0.04261058,-0.23009712,9.84,11.76,-24.9
1554880786541,-8.585608,-1.7340006000000001,3.4757824,-0.21411815,-0.04474111,-0.2609898,9.84,11.76,-24.84
1554880786560,-8.671799,-2.0644004000000002,3.4805707999999997,-0.24181503,-0.037284255,-0.28122982,9.78,11.88,-24.78
1554880786581,-8.585608,-2.0787656,3.5571851999999997,-0.27377295,-0.025566347000000003,-0.29188246,9.72,11.94,-24.78
1554880786601,-8.623915,-2.1745335999999997,3.767875,-0.27590349999999997,-0.027696876000000002,-0.30040458,9.66,12.12,-24.78
1554880786621,-8.504205,-2.0883423999999997,3.4662056000000003,-0.23968449999999997,-0.05219796,-0.2876214,9.42,12.24,-24.72
1554880786641,-8.508992999999998,-2.107496,3.4757824,-0.19281286,-0.046871635999999994,-0.2972088,9.18,12.42,-24.72
1554880786661,-8.264783999999999,-2.0021513,3.5476084,-0.13635385,-0.05965481,-0.34301516,8.94,12.54,-24.6
1554880786681,-8.259995,-1.8537107,3.7774517999999997,-0.08628642,-0.09054748,-0.39414784,8.7,12.72,-24.54
1554880786700,-8.2169,-2.0787656,3.3800142,-0.026631612000000002,-0.19068234,-0.4250405,8.46,12.84,-24.42
1554880786720,-8.0684595,-2.2080526000000003,3.1741127999999996,-0.013848438000000001,-0.25885928,-0.4644553,8.28,12.96,-24.36
1554880786741,-8.030152000000001,-2.1649568,3.4326867999999995,-0.046871635999999994,-0.2609898,-0.5592638000000001,8.1,13.08,-24.24
1554880786761,-8.164227499999999,-2.3469162,3.5140896,-0.12570119999999999,-0.27483824,-0.63915867,7.98,13.32,-24.12
1554880786781,-8.010999,-2.4474726,3.3704373999999997,-0.23222765,-0.28442562,-0.680704,7.86,13.44,-24.06
1554880786801,-7.7907324000000004,-2.7491422,3.6194344,-0.34194988,-0.28549087,-0.71798825,7.8,13.62,-24.0
1554880786820,-7.704541000000001,-3.0268695,3.7008373999999997,-0.42077947,-0.28975195,-0.7637946,7.68,13.74,-24.0
1554880786840,-7.8290396,-3.127426,3.9785647000000006,-0.41971418,-0.29933932,-0.8319715,7.44,13.92,-23.94
1554880786860,-7.852981599999999,-3.0603882999999996,3.8157589999999995,-0.38349520000000004,-0.3153183,-0.8863,7.02,14.1,-23.94
1554880786881,-7.4268136,-3.1705215,3.6194344,-0.33662358,-0.3334278,-0.93849796,6.48,14.34,-23.88
1554880786901,-7.374141000000001,-3.2950199999999996,3.6768951000000003,-0.28549087,-0.33981937,-1.0205233,5.94,14.52,-23.82
1554880786920,-7.278373200000001,-3.7403417,3.7774517999999997,-0.26738137,-0.3568636,-1.1217233999999998,5.28,14.7,-23.64
1554880786940,-7.1873937,-3.9414546,3.9929300000000003,-0.2727077,-0.4079963,-1.1930962,4.56,14.88,-23.46
1554880786963,-6.8522053,-4.137779,3.6721067,-0.2876214,-0.44421527,-1.2271847,3.42,15.18,-23.22
1554880786981,-6.9144545,-4.305373,3.9354692000000004,-0.28442562,-0.4250405,-1.2591426000000001,2.94,15.3,-23.16
1554880787000,-7.077260000000001,-4.324527,3.9402574999999995,-0.257794,-0.4261058,-1.3092101,2.04,15.48,-22.98
1554880787021,-6.780379300000001,-4.8799815,4.007295,-0.23648871,-0.4644553,-1.3315805,1.14,15.66,-22.8
1554880787041,-6.373365,-5.1146135,3.696049,-0.21944448,-0.50813115,-1.3944311000000003,0.18,15.72,-22.74
1554880787060,-6.1866174,-5.492897,3.7343562000000006,-0.2130529,-0.48682585,-1.4476944,-1.32,15.84,-22.56
1554880787080,-6.0333879999999995,-5.66528,3.7247794,-0.28122982,-0.47191215,-1.4796523000000001,-2.28,15.78,-22.56
1554880787101,-5.985504,-5.8328739999999994,3.8205473,-0.44101948,-0.44528055,-1.4977618000000001,-3.3,15.72,-22.56
1554880787121,-5.722142,-6.0866594,3.7535098,-0.60720074,-0.44421527,-1.4892397,-4.38,15.66,-22.5
1554880787141,-5.315128,-6.589442,3.6768951000000003,-0.7765778,-0.44208476,-1.4796523000000001,-5.4,15.54,-22.38
1554880787160,-5.1810527,-6.795342999999999,3.5811272000000005,-0.93849796,-0.41864893,-1.4668691,-6.42,15.36,-22.26
1554880787180,-5.080496,-7.2502413,3.5715504,-1.0322412,-0.38349520000000004,-1.454086,-7.32,15.24,-22.08
1554880787200,-4.8985367,-7.6764092,3.4518404,-1.091896,-0.36218992,-1.4306501,-8.28,15.12,-21.96
1554880787221,-4.7261543,-8.078635,3.8013937000000007,-1.1579423999999998,-0.34301516,-1.3859091000000001,-9.24,15.0,-21.72
1554880787241,-4.4723687000000005,-8.131308,3.6002807999999997,-1.1185277,-0.34088463,-1.3923006000000002,-10.2,14.82,-21.36
1554880787261,-4.343082,-8.590994,3.5284547999999996,-0.95128113,-0.3153183,-1.3337111000000001,-11.16,14.64,-20.82
1554880787281,-4.156333999999999,-8.715492999999999,3.4326867999999995,-0.7882956999999999,-0.29507825,-1.2942963,-12.12,14.46,-20.16
1554880787300,-4.0174704,-8.835203,3.2124202,-0.61572284,-0.28336033,-1.284709,-13.14,14.28,-19.56
1554880787320,-3.8355112,-9.007586,3.2555158,-0.44634579999999996,-0.24820662,-1.2250541000000001,-14.1,13.98,-19.02
1554880787341,-3.7780502,-9.208698,3.0304607999999997,-0.25140239999999997,-0.18216023,-1.1142666,-15.06,13.74,-18.42
1554880787360,-3.6870705999999998,-9.136872,3.0591912,-0.21518342,-0.16831179,-1.0588728,-15.84,13.38,-17.88
1554880787380,-3.7014358,-8.993219999999999,2.9586349,-0.21518342,-0.17470337,-0.9129315999999998,-16.56,13.02,-17.4
1554880787401,-3.6583402,-9.069835000000001,3.0735563999999997,-0.26205507,-0.18535602,-0.8543421,-17.28,12.6,-16.98
1554880787421,-3.3375172999999996,-9.275736,3.1118636000000004,-0.29294774,-0.18748654,-0.78296936,-17.88,12.06,-16.74
1554880787441,-3.2130187,-9.280524,3.2746694,-0.314253,-0.165116,-0.72970617,-18.42,11.46,-16.74
1554880787461,-3.040636,-9.357139,3.1262288,-0.3174488,-0.13848437,-0.6444850000000001,-18.96,10.74,-16.62
1554880787480,-2.9879637000000003,-9.414599,3.1549592,-0.33129725,-0.09267801,-0.57098174,-19.32,10.08,-16.56
1554880787501,-2.9113493,-9.486425,2.9682117000000003,-0.32810146,-0.07563378,-0.5070659000000001,-19.74,9.24,-16.56
1554880787520,-2.9161377,-9.424176,3.164536,-0.3057309,-0.06924219,-0.46125950000000004,-20.22,8.46,-16.5
1554880787541,-2.7485435000000003,-9.452907000000002,3.1597476,-0.23435818,-0.09161274,-0.3898868,-20.76,7.74,-16.44
1554880787560,-2.6384103,-9.266159,3.2363622000000003,-0.16937704,-0.10759171,-0.34194988,-21.36,7.14,-16.38
1554880787581,-2.456451,-9.32362,3.1070752,-0.08522116,-0.11504856,-0.30040458,-22.02,6.66,-16.32
1554880787600,-2.5043349999999998,-9.419388,3.044826,0.002130529,-0.08948222,-0.23648871,-22.56,6.3,-16.26
1554880787621,-2.3175871,-9.409811,3.2172085999999998,0.07563378,-0.07989483,-0.19068234,-22.98,6.06,-16.14
1554880787641,-2.336741,-9.304466,3.1693244,0.13422333,-0.1107875,-0.15126756,-23.4,5.88,-16.08
1554880787660,-2.1021092,-9.098564999999999,3.1262288,0.16405073,-0.13209279,-0.112918034,-23.76,5.82,-15.96
1554880787681,-2.0446482,-9.050680999999999,3.0735563999999997,0.16085494,-0.13528858,-0.09054748,-24.0,5.82,-15.9
1554880787700,-2.0159178,-9.021951,2.9059622000000003,0.111852765,-0.10333065,-0.07456851,-24.18,5.76,-15.78
1554880787720,-1.9536686,-8.978855000000001,2.9203273999999997,0.040480047000000005,-0.07030745599999999,-0.05965481,-24.18,5.7,-15.72
1554880787740,-1.9776106,-8.930971000000001,2.9011737999999996,-0.022370555,-0.06391586,-0.053263225,-24.18,5.7,-15.66
1554880787761,-2.0398598000000003,-9.045893,2.9059622000000003,-0.05219796,-0.07989483,-0.083090626,-24.18,5.7,-15.66
1554880787780,-2.006341,-8.921394,2.9538465,-0.03834952,-0.083090626,-0.112918034,-24.24,5.7,-15.66
1554880787800,-1.8387468999999996,-9.036316000000001,2.8772318,0.002130529,-0.07456851,-0.098004326,-24.24,5.64,-15.6
1554880787821,-1.9345150000000002,-9.012374000000001,2.690484,0.03089267,-0.06285059999999999,-0.09267801,-24.24,5.64,-15.66
1554880787840,-1.9871874,-8.81605,2.6856956000000003,0.04261058,-0.068176925,-0.10226539,-24.18,5.52,-15.66
1554880787860,-2.0111293999999997,-9.0315275,2.6761188999999996,0.017044231,-0.07776430000000001,-0.07776430000000001,-24.18,5.4,-15.66
1554880787881,-1.8914193,-9.069835000000001,2.5995044999999997,-0.018109497,-0.098004326,-0.083090626,-24.18,5.16,-15.72
1554880787901,-1.9536686,-9.170391,3.044826,-0.04580637,-0.11930962,-0.101200126,-24.18,4.98,-15.72
1554880787920,-1.8148049,-8.940548,2.5372553,-0.012783173500000002,-0.19281286,-0.12570119999999999,-24.18,4.8,-15.72
1554880787940,-1.6711528000000002,-9.0794115,2.6042929,-0.02876214,-0.14061491,-0.10546118,-24.18,4.68,-15.72
1554880787961,-1.8483237000000001,-9.098564999999999,2.9969419999999998,-0.128897,-0.084155895,-0.06711166,-24.24,4.38,-15.72
1554880787981,-1.8722657,-9.065046,2.8580782000000005,-0.16085494,-0.101200126,-0.06285059999999999,-24.3,4.2,-15.72
1554880788001,-1.8387468999999996,-8.978855000000001,2.8006175,-0.15126756,-0.080960095,-0.04261058,-24.42,4.14,-15.66
1554880788020,-1.9536686,-8.993219999999999,2.795829,-0.14487597,-0.025566347000000003,-0.024501082,-24.54,4.14,-15.6
1554880788041,-2.0254946,-9.132083999999999,2.9442697,-0.2034655,-0.02130529,-0.0063915867,-24.6,4.14,-15.6
1554880788061,-1.8722657,-9.11293,2.8293478,-0.23542345,-0.049002163,0.0010652645,-24.72,4.14,-15.54
1554880788080,-1.8435352999999999,-9.170391,2.9394810000000002,-0.19920446,-0.05752428,0.0,-24.84,4.08,-15.48
1554880788101,-1.6711528000000002,-9.251794,2.7383683,-0.099069595,-0.053263225,-0.007456851,-24.84,4.08,-15.42
1554880788121,-1.7094599999999998,-9.304466,2.6378117000000003,-0.011717908999999999,-0.041545313,0.015978966,-24.9,4.08,-15.36
1554880788141,-1.7908629,-9.189544999999999,2.747945,0.07137272,-0.046871635999999994,0.015978966,-24.9,4.14,-15.3
1554880788160,-1.9009962,-9.108141999999999,2.8149827000000003,0.09374327,-0.07456851,-0.007456851,-24.9,4.26,-15.12
1554880788180,-1.7525556,-8.998009,2.4797945,0.07563378,-0.10013486,0.0053263223,-24.84,4.38,-15.0
1554880788201,-1.7908629,-8.902241,2.475006,0.014913702,-0.043675844000000005,0.05752428,-24.84,4.44,-14.88
1554880788221,-1.7860744999999998,-9.017161999999999,2.460641,-0.046871635999999994,-0.018109497,0.07989483,-24.78,4.56,-14.76
1554880788241,-1.9201498,-9.026739,3.3943794,-0.03089267,0.049002163,0.06498113,-24.78,4.62,-14.7
1554880788260,-2.0398598000000003,-8.930971000000001,2.8772318,0.12676647,-0.05219796,0.02130529,-24.84,4.62,-14.58
1554880788280,-1.7046716,-9.055469500000001,2.6569653,0.17470337,-0.040480047000000005,0.039414786,-24.84,4.62,-14.52
1554880788301,-1.8291701,-8.897452000000001,2.6042929,0.18748654,0.013848438000000001,-0.02876214,-24.84,4.62,-14.46
1554880788320,-1.8674773,-9.0315275,2.7910407000000004,0.15020229,0.025566347000000003,-0.03195793,-24.84,4.5,-14.46
1554880788340,-1.6807296000000003,-9.0315275,2.417545,0.04261058,0.013848438000000001,-0.004261058,-24.78,4.44,-14.52
1554880788361,-1.7812861,-9.050680999999999,2.6330232999999996,-0.096939065,0.027696876000000002,0.0010652645,-24.72,4.44,-14.52
1554880788381,-1.8674773,-9.165602999999999,2.6665419999999997,-0.16192019,0.01917476,0.013848438000000001,-24.72,4.44,-14.52
1554880788401,-1.9201498,-9.213486999999999,2.867655,-0.15659387,0.0031957934000000003,0.023435817999999997,-24.66,4.44,-14.46
1554880788420,-1.7238252,-9.108141999999999,2.498948,-0.05006743,-0.05006743,0.0053263223,-24.66,4.5,-14.46
1554880788440,-1.8674773,-9.170391,2.7000610000000003,-0.004261058,-0.002130529,0.011717908999999999,-24.66,4.62,-14.4
1554880788461,-1.9632453999999997,-9.093777000000001,2.7910407000000004,0.0063915867,-0.036218993,0.0031957934000000003,-24.72,4.68,-14.4
1554880788480,-1.8770541,-9.0842,2.7144263,0.039414786,-0.098004326,-0.007456851,-24.84,4.8,-14.34
1554880788502,-1.6424223000000002,-8.907029,2.2307975,0.07456851,-0.049002163,0.002130529,-24.9,4.86,-14.34
1554880788520,-1.9057846,-8.93576,2.7575218999999995,-0.07243799,0.05006743,0.034088463,-25.02,4.92,-14.28
1554880788540,-2.0733786,-9.088988,2.8485014,-0.10546118,0.018109497,0.017044231,-25.14,4.98,-14.28
1554880788560,-1.8866308999999997,-9.160814,2.7670987,-0.027696876000000002,-0.058589544,-0.004261058,-25.2,4.98,-14.28
1554880788581,-1.7046716,-8.839992,2.570774,0.12463594,-0.027696876000000002,-0.05006743,-25.26,4.98,-14.28
1554880788600,-1.9488802,-8.796896,2.8054059,0.14168017,0.047936900000000005,-0.039414786,-25.32,5.04,-14.28
1554880788621,-1.9728221999999997,-8.974067,2.5611973,0.08735169,0.037284255,-0.036218993,-25.32,5.04,-14.28
1554880788641,-1.9776106,-8.921394,2.4941597,-0.015978966,0.010652645,-0.04261058,-25.26,5.1,-14.28
1554880788660,-1.8866308999999997,-9.0315275,2.7431567,-0.09054748,0.00958738,-0.058589544,-25.26,5.1,-14.28
1554880788680,-1.8243817,-9.0794115,2.5995044999999997,-0.09161274,0.027696876000000002,-0.058589544,-25.2,5.16,-14.28
1554880788701,-1.9249381999999997,-9.165602999999999,2.8293478,-0.09587380000000001,0.034088463,-0.02876214,-25.2,5.16,-14.34
1554880788721,-1.8387468999999996,-9.309255,2.594716,-0.07776430000000001,0.018109497,-0.027696876000000002,-25.26,5.22,-14.34
1554880788741,-1.8148049,-9.1033535,2.594716,-0.05219796,0.022370555,-0.046871635999999994,-25.32,5.22,-14.4
1554880788760,-1.9776106,-9.136872,2.6809072,-0.054328485999999995,0.05006743,-0.043675844000000005,-25.32,5.22,-14.4
1554880788780,-2.0925324,-9.136872,2.6761188999999996,-0.09054748,0.04474111,-0.018109497,-25.32,5.22,-14.4
1554880788801,-2.0350714,-9.280524,2.6042929,-0.07137272,0.022370555,-0.011717908999999999,-25.26,5.22,-14.46
1554880788821,-1.9297266,-9.11293,2.5276785,0.008522116,-0.002130529,-0.011717908999999999,-25.26,5.22,-14.46
1554880788840,-2.0159178,-9.11293,2.6138697,0.05965481,0.026631612000000002,0.00958738,-25.2,5.22,-14.46
1554880788860,-1.9728221999999997,-9.050680999999999,2.6378117000000003,0.06178534,0.040480047000000005,0.015978966,-25.08,5.22,-14.4
1554880788880,-2.0398598000000003,-9.055469500000001,2.6330232999999996,0.03195793,0.058589544,0.033023197000000004,-25.02,5.28,-14.4
1554880788901,-2.0350714,-8.930971000000001,2.5995044999999997,0.022370555,0.047936900000000005,0.014913702,-24.9,5.34,-14.34
1554880788921,-1.9632453999999997,-8.974067,2.5372553,-0.015978966,0.027696876000000002,0.018109497,-24.78,5.34,-14.34
1554880788940,-1.9536686,-9.1033535,2.3983915000000002,-0.051132694000000006,0.020240024,0.022370555,-24.66,5.4,-14.28
1554880788960,-1.9871874,-8.993219999999999,2.5420437000000002,-0.054328485999999995,0.03195793,0.013848438000000001,-24.54,5.4,-14.28
1554880788981,-2.0207062,-9.036316000000001,2.5755625,-0.058589544,0.02876214,0.0053263223,-24.48,5.46,-14.28
1554880789002,-1.9967641999999999,-9.007586,2.3600842999999996,-0.039414786,-0.018109497,-0.010652645,-24.42,5.46,-14.22
1554880789021,-2.0925324,-9.036316000000001,2.484583,-0.017044231,-0.037284255,-0.03195793,-24.36,5.46,-14.16
1554880789040,-1.8962077000000002,-9.045893,2.1924900000000003,0.0010652645,-0.05219796,-0.046871635999999994,-24.3,5.46,-14.16
1554880789060,-1.9871874,-9.055469500000001,2.3169887000000005,-0.00958738,-0.011717908999999999,-0.033023197000000004,-24.3,5.46,-14.1
1554880789081,-2.0398598000000003,-9.050680999999999,2.4797945,-0.040480047000000005,-0.026631612000000002,-0.05219796,-24.3,5.46,-14.1
1554880789101,-2.0398598000000003,-9.108141999999999,2.3026235,-0.09374327,-0.05539375,-0.04580637,-24.3,5.52,-14.04
1554880789120,-2.0015526,-9.20391,2.3505075,-0.13315806,-0.05752428,-0.014913702,-24.36,5.52,-13.98
1554880789140,-2.0590134,-9.156025999999999,2.417545,-0.14061491,-0.056459017,0.01917476,-24.36,5.52,-13.98
1554880789161,-2.0254946,-9.213486999999999,2.321777,-0.12570119999999999,-0.058589544,0.04261058,-24.36,5.58,-13.98
1554880789181,-1.9536686,-9.055469500000001,2.441487,-0.13954964,-0.04580637,0.04474111,-24.36,5.58,-13.98
1554880789201,-2.0350714,-9.098564999999999,2.5468319999999998,-0.10972224,-0.051132694000000006,0.023435817999999997,-24.36,5.58,-13.92
1554880789220,-1.9728221999999997,-9.055469500000001,2.5228900000000003,-0.05965481,-0.047936900000000005,0.010652645,-24.36,5.64,-13.92
1554880789240,-2.1404164,-9.007586,2.460641,-0.020240024,-0.051132694000000006,0.0010652645,-24.42,5.64,-13.92
1554880789260,-2.111686,-9.045893,2.0727801,-0.06711166,-0.08522116,0.008522116,-24.42,5.64,-13.86
1554880789281,-2.0446482,-9.261371,2.1637597,-0.13848437,-0.084155895,-0.0031957934000000003,-24.42,5.64,-13.74
1554880789301,-1.9871874,-9.108141999999999,2.0679917000000003,-0.17363810000000002,-0.06604639400000001,-0.036218993,-24.42,5.7,-13.62
1554880789321,-2.0254946,-9.165602999999999,2.0967221,-0.18961707,-0.05539375,-0.017044231,-24.48,5.7,-13.44
1554880789341,-1.9297266,-9.146449,2.4462755,-0.1470065,-0.03089267,-0.013848438000000001,-24.48,5.76,-13.32
1554880789361,-1.9967641999999999,-9.270947,2.3888147,-0.05539375,-0.02876214,-0.029827405,-24.48,5.82,-13.2
1554880789381,-1.9967641999999999,-9.247005,2.4366987,0.017044231,-0.03834952,-0.03195793,-24.48,5.94,-13.08
1554880789401,-1.8962077000000002,-9.146449,2.273893,0.015978966,-0.039414786,-0.027696876000000002,-24.48,6.06,-12.96
1554880789421,-1.9153613999999999,-9.261371,2.1493945,0.023435817999999997,-0.020240024,-0.03834952,-24.48,6.18,-12.84
1554880789441,-1.9680338,-9.251794,2.3169887000000005,0.082025364,-0.011717908999999999,-0.05539375,-24.48,6.3,-12.78
1554880789460,-1.8722657,-9.194333,2.3361422999999997,0.1438107,-0.0031957934000000003,-0.068176925,-24.48,6.42,-12.78
1554880789481,-1.8770541,-9.179967999999999,2.3744495,0.17470337,0.020240024,-0.07456851,-24.54,6.54,-12.72
1554880789500,-2.1021092,-9.098564999999999,2.154183,0.19068234,0.039414786,-0.08841695,-24.6,6.54,-12.72
1554880789520,-1.8770541,-9.122507,2.2307975,0.14061491,0.06711166,-0.04474111,-24.66,6.6,-12.66
1554880789542,-1.9919758,-9.136872,2.3361422999999997,0.07882957,0.08522116,-0.041545313,-24.78,6.54,-12.66
1554880789561,-2.054225,-9.266159,2.417545,0.06178534,0.08948222,-0.06178534,-24.84,6.48,-12.72
1554880789581,-1.9297266,-9.055469500000001,2.3936029999999997,0.09374327,0.084155895,-0.06604639400000001,-24.9,6.42,-12.72
1554880789601,-1.8962077000000002,-9.088988,2.28347,0.14487597,0.10865697,-0.046871635999999994,-24.9,6.3,-12.78
1554880789621,-1.9057846,-9.055469500000001,2.3409307,0.17896444,0.12676647,-0.06391586,-24.96,6.24,-12.78
1554880789641,-1.8914193,-9.146449,2.345719,0.20026971,0.09374327,-0.083090626,-24.96,6.18,-12.84
1554880789660,-1.8579005000000002,-8.988432000000001,2.3840263,0.22370553,0.07563378,-0.111852765,-24.96,6.12,-12.9
1554880789681,-1.6998832,-9.136872,2.5899277,0.25353295,0.09587380000000001,-0.10865697,-24.9,6.06,-12.96
1554880789701,-1.8962077000000002,-9.098564999999999,2.5995044999999997,0.25672874,0.06711166,-0.10333065,-24.9,6.06,-13.02
1554880789721,-1.8387468999999996,-8.921394,2.5372553,0.19707392,0.06285059999999999,-0.08628642,-24.84,6.06,-13.2
1554880789741,-1.7956512999999998,-9.045893,2.475006,0.046871635999999994,0.06178534,-0.05752428,-24.84,6.0,-13.38
1554880789761,-1.8674773,-8.916606,2.3983915000000002,-0.03089267,0.060720075,-0.07456851,-24.84,6.0,-13.56
1554880789780,-1.958457,-8.998009,2.5228900000000003,-0.15446335,0.07989483,-0.053263225,-24.84,5.94,-13.74
1554880789801,-1.8674773,-8.993219999999999,2.2691047,-0.2034655,0.068176925,-0.068176925,-24.84,5.88,-13.92
1554880789821,-1.8866308999999997,-9.132083999999999,2.3744495,-0.22903186,0.06285059999999999,-0.07563378,-24.84,5.82,-14.1
1554880789841,-1.8483237000000001,-9.0842,2.3169887000000005,-0.27696875,0.05006743,-0.084155895,-24.78,5.76,-14.28
1554880789861,-1.8914193,-9.0842,2.178125,-0.31851408,0.04580637,-0.12570119999999999,-24.78,5.7,-14.34
1554880789881,-1.8770541,-9.026739,2.0967221,-0.31105720000000003,0.049002163,-0.12250541,-24.78,5.64,-14.4
1554880789900,-1.9009962,-9.247005,2.0727801,-0.2790993,0.06391586,-0.094808534,-24.78,5.58,-14.4
1554880789920,-1.7286136000000003,-9.237428999999999,2.235586,-0.2972088,0.040480047000000005,-0.084155895,-24.78,5.52,-14.4
1554880789941,-1.7621324,-9.227852,2.2164322999999997,-0.29614353,0.03834952,-0.09267801,-24.78,5.52,-14.34
1554880789961,-1.7764976000000003,-9.32362,2.202067,-0.22690132,0.041545313,-0.07350325,-24.78,5.46,-14.34
1554880789981,-1.8387468999999996,-9.318831,2.1398177000000005,-0.16192019,0.025566347000000003,-0.080960095,-24.78,5.46,-14.28
1554880790001,-1.7525556,-9.251794,2.1015105,-0.16831179,0.002130529,-0.07456851,-24.78,5.46,-14.22
1554880790021,-1.7621324,-9.462483,2.0440497,-0.20133498,-0.03195793,-0.07989483,-24.78,5.46,-14.1
1554880790041,-1.6950948000000001,-9.357139,1.9722236000000002,-0.29188246,-0.04474111,-0.096939065,-24.78,5.46,-13.98
1554880790063,-1.7477672,-9.156025999999999,1.6370354,-0.3685815,-0.04580637,-0.12357068,-24.78,5.46,-13.86
1554880790081,-1.7812861,-9.285313,1.6944963,-0.37816888,-0.017044231,-0.10226539,-24.78,5.46,-13.74
1554880790100,-1.8004397,-9.304466,1.6753427,-0.30679616,-0.0053263223,-0.07243799,-24.78,5.46,-13.56
1554880790120,-1.7142484,-9.328408,1.5269021,-0.22796659,-0.015978966,-0.084155895,-24.84,5.46,-13.38
1554880790140,-1.6711528000000002,-9.476849000000001,1.6418238,-0.16085494,-0.010652645,-0.07989483,-24.84,5.52,-13.14
1554880790161,-1.685518,-9.553463,1.6514006,-0.098004326,0.00958738,-0.084155895,-24.9,5.52,-12.9
1554880790181,-1.7717092,-9.563039999999999,1.7663223000000001,-0.026631612000000002,0.029827405,-0.08948222,-24.9,5.52,-12.66
1554880790202,-1.7238252,-9.390657000000001,1.6657659,0.0053263223,-0.0031957934000000003,-0.082025364,-24.96,5.58,-12.42
1554880790220,-1.7860744999999998,-9.342773,2.2691047,-0.002130529,0.013848438000000001,-0.056459017,-25.02,5.64,-12.24
1554880790240,-1.5705963,-9.625289,1.929128,-0.09374327,-0.012783173500000002,-0.037284255,-25.02,5.64,-12.06
1554880790260,-1.5849615,-9.409811,1.7136499,-0.08948222,0.034088463,-0.07563378,-25.08,5.7,-11.94
1554880790280,-1.5801731,-9.328408,1.4407108999999998,-0.084155895,0.043675844000000005,-0.07030745599999999,-25.14,5.7,-11.88
1554880790301,-1.5610195,-9.44333,1.5652093999999999,-0.040480047000000005,0.06178534,-0.043675844000000005,-25.14,5.76,-11.82
1554880790320,-1.7908629,-9.529521,1.7471686999999998,0.02876214,0.033023197000000004,-0.05965481,-25.2,5.76,-11.76
1554880790340,-1.8195933000000002,-9.357139,1.4550761,0.03834952,-0.07669904,-0.09587380000000001,-25.2,5.76,-11.82
1554880790361,-1.6280571000000001,-9.333197,1.0097545,-0.04474111,-0.18855181,-0.080960095,-25.2,5.76,-11.82
1554880790381,-1.4221559,-9.371504,0.95229375,-0.15765914,-0.14061491,-0.013848438000000001,-25.26,5.7,-11.88
1554880790400,-1.5466543,-9.395446000000002,1.1725603,-0.22370553,-0.00958738,0.013848438000000001,-25.26,5.64,-11.94
1554880790420,-1.7238252,-9.414599,1.4119805,-0.22903186,-0.022370555,0.002130529,-25.38,5.64,-11.94
1554880790440,-1.5466543,-9.385869,1.6657659,-0.21624869,-0.040480047000000005,0.026631612000000002,-25.44,5.58,-11.94
1554880790461,-1.6567876,-9.596559,1.3688848,-0.12570119999999999,-0.029827405,0.011717908999999999,-25.56,5.52,-11.94
1554880790480,-1.7764976000000003,-9.59177,1.5508442,0.02876214,-0.00958738,-0.0053263223,-25.68,5.52,-11.88
1554880790501,-1.7764976000000003,-9.486425,1.3976152,0.17363810000000002,-0.034088463,-0.017044231,-25.74,5.58,-11.76
1554880790520,-1.6232687,-9.481637,1.5795746000000002,0.22903186,-0.00958738,0.0,-25.8,5.7,-11.64
1554880790541,-1.8339584999999998,-9.371504,1.4981716999999999,0.20985709,0.007456851,0.041545313,-25.8,5.76,-11.46
1554880790561,-1.6950948000000001,-9.625289,1.1246762,-0.014913702,-0.029827405,0.12250541,-25.8,5.82,-11.34
1554880790581,-1.6472107,-9.428965,1.2635399,-0.08735169,-0.020240024,0.060720075,-25.68,5.94,-11.22
1554880790601,-1.9249381999999997,-9.376292,1.3257892,-0.03089267,-0.047936900000000005,0.051132694000000006,-25.56,6.06,-11.16
1554880790620,-1.685518,-9.567828,1.1486181999999998,0.04261058,-0.06391586,0.09374327,-25.5,6.12,-11.04
1554880790641,-1.7477672,-9.409811,1.2779051000000001,0.08841695,-0.029827405,0.099069595,-25.44,6.18,-10.98
1554880790661,-1.8387468999999996,-9.424176,1.6514006,0.09054748,-0.024501082,0.094808534,-25.44,6.06,-10.92
1554880790681,-1.8818424999999999,-9.366715,1.6370354,0.08841695,-0.015978966,0.08522116,-25.44,6.0,-10.92
1554880790700,-1.733402,-9.462483,1.5077485000000002,0.060720075,-0.02130529,0.11824436,-25.44,6.0,-10.92
1554880790720,-1.7669207999999998,-9.548675,1.8764555,0.025566347000000003,-0.0010652645,0.13422333,-25.44,5.94,-10.86
1554880790741,-2.0302830000000003,-9.433753,1.4790181,0.06285059999999999,-0.00958738,0.11504856,-25.38,5.94,-10.86
1554880790760,-1.8818424999999999,-9.47206,1.6944963,0.07137272,0.011717908999999999,0.14274544,-25.38,5.94,-10.86
1554880790781,-2.0590134,-9.615712,1.9339164,0.11930962,0.034088463,0.18748654,-25.32,6.0,-10.86
1554880790800,-2.054225,-9.385869,1.6226702,0.1470065,-0.025566347000000003,0.18535602,-25.26,6.12,-10.86
1554880790820,-2.111686,-9.247005,1.5269021,0.14594123,-0.041545313,0.1768339,-25.2,6.24,-10.92
1554880790841,-2.0350714,-9.156025999999999,1.5029601000000001,0.19174760000000002,-0.034088463,0.14913702,-25.14,6.36,-10.98
1554880790861,-1.9967641999999999,-9.1033535,1.6083049999999999,0.24074976,-0.03195793,0.12250541,-25.08,6.48,-11.1
1554880790881,-2.006341,-9.0315275,1.6418238,0.25885928,-0.043675844000000005,0.083090626,-25.08,6.66,-11.16
1554880790901,-2.0111293999999997,-9.055469500000001,1.7328035,0.25992453,-0.027696876000000002,0.07456851,-25.02,6.84,-11.28
1554880790920,-2.135628,-8.998009,1.6897078999999997,0.19600865,-0.035153727999999995,0.07669904,-24.96,6.96,-11.34
1554880790940,-2.0973208,-8.998009,1.6561891,0.09587380000000001,-0.018109497,0.06285059999999999,-24.9,7.08,-11.4
1554880790961,-2.0302830000000003,-9.1512375,1.6849195,-0.017044231,-0.002130529,0.07243799,-24.78,7.14,-11.46
1554880790980,-2.2122424,-9.270947,1.8620903000000002,-0.10226539,0.002130529,0.080960095,-24.72,7.2,-11.52
1554880791001,-2.2457612,-9.337985,1.9243397,-0.11717909,-0.002130529,0.099069595,-24.6,7.26,-11.52
1554880791020,-2.2649147999999997,-9.505579,1.8477252,-0.096939065,0.012783173500000002,0.13528858,-24.48,7.32,-11.52
1554880791041,-2.384625,-9.620500999999999,1.9339164,-0.037284255,0.033023197000000004,0.15765914,-24.42,7.32,-11.52
1554880791061,-2.6479871,-9.668385,1.9003976999999999,0.051132694000000006,0.039414786,0.20453078,-24.3,7.38,-11.58
1554880791081,-2.7724855,-9.7641535,1.7663223000000001,0.10226539,0.034088463,0.28229508,-24.24,7.44,-11.58
1554880791101,-2.8682537,-9.788095,2.2260091,0.10865697,0.047936900000000005,0.3153183,-24.06,7.5,-11.58
1554880791120,-3.0023289,-9.816825999999999,2.28347,0.12250541,0.017044231,0.35899413,-23.94,7.62,-11.64
1554880791140,-3.083732,-9.625289,2.0153193,0.15659387,-0.0063915867,0.4133226,-23.7,7.8,-11.64
1554880791160,-3.241749,-9.855133,2.0679917000000003,-0.020240024,0.13422333,0.57311225,-23.52,7.98,-11.58
1554880791181,-3.4093432,-9.778519000000001,2.0967221,-0.12996227,0.18535602,0.664725,-23.28,8.28,-11.58
1554880791201,-3.5098996,-9.615712,2.144606,-0.21837921,0.2130529,0.7499462,-23.04,8.64,-11.58
1554880791220,-3.6248214,-9.529521,2.0440497,-0.22050974,0.27483824,0.8511463,-22.8,9.06,-11.52
1554880791242,-3.6822822,-9.654019,2.1493945,-0.17363810000000002,0.34727620000000003,0.94595486,-22.44,9.54,-11.52
1554880791261,-3.8929720000000003,-9.601347,2.297835,-0.06604639400000001,0.34621096,1.0130665,-22.14,10.2,-11.46
1554880791280,-4.003105000000001,-9.596559,2.0344729999999998,0.09587380000000001,0.32490566,1.0663296999999998,-21.78,10.86,-11.46
1554880791300,-4.0845080000000005,-9.371504,1.857302,0.25992453,0.30040458,1.1334413,-21.42,11.52,-11.4
1554880791321,-4.232949,-9.32362,1.7758990000000001,0.38562572,0.30466563,1.1973573,-21.0,12.24,-11.34
1554880791341,-4.405330999999999,-8.93576,1.7232267,0.46658584,0.32277513,1.2559468,-20.52,12.9,-11.22
1554880791360,-4.5394063,-8.768166,1.8333599999999999,0.49534798,0.3174488,1.2857742,-19.92,13.62,-11.16
1554880791381,-4.783615,-8.519167999999999,1.7471686999999998,0.49534798,0.26312032,1.3273195,-18.6,14.64,-10.98
1554880791401,-4.879383,-8.270171000000001,1.7136499,0.5251754,0.27164245,1.3837786,-17.76,15.3,-10.92
1554880791422,-5.104438,-7.944559599999999,1.8285716,0.57098174,0.30999196,1.3997575,-16.86,15.9,-10.86
1554880791441,-5.410896,-7.6524673,1.8333599999999999,0.6221144000000001,0.30786142,1.397627,-16.08,16.62,-10.8
1554880791460,-5.631162000000001,-7.451353999999999,1.881244,0.66152924,0.28336033,1.3944311000000003,-15.66,16.98,-10.8
1554880791481,-5.726930599999999,-7.2741833,1.9674352,0.72437984,0.26205507,1.3912354,-14.34,18.0,-11.04
1554880791501,-5.899312999999999,-6.905475999999999,2.0009542000000002,0.7488809000000001,0.23755397,1.3709954,-13.32,18.6,-11.22
1554880791522,-6.0046577,-6.637326,1.9147629000000002,0.7595335999999999,0.17896444,1.3198626,-12.36,19.2,-11.46
1554880791540,-6.0381765,-6.306926,1.9578583999999999,0.76059884,0.15659387,1.2697952,-11.4,19.68,-11.88
1554880791561,-6.1866174,-6.005256,1.9818004,0.7456851,0.15446335,1.1994878,-10.5,20.1,-12.24
1554880791580,-6.3063273,-5.689222,2.0967221,0.73822826,0.16192019,1.171791,-9.48,20.52,-12.66
1554880791601,-6.4499793,-5.7658362,2.1398177000000005,0.73290193,0.20453078,1.128115,-8.34,20.76,-13.14
1554880791621,-6.7468604999999995,-5.502473999999999,2.1493945,0.71585774,0.23648871,1.0727214,-7.14,20.94,-13.56
1554880791641,-6.9958572,-5.239112,2.4079683,0.6711166000000001,0.23435818,1.0024139,-6.06,21.06,-14.1
1554880791661,-7.0724716,-5.1624975,2.4271219,0.63383234,0.19920446,0.9576728000000001,-5.1,21.12,-14.64
1554880791680,-7.2065472999999995,-5.105036699999999,2.2164322999999997,0.6018744,0.14807177,0.8788431999999999,-4.26,21.18,-15.06
1554880791700,-7.278373200000001,-4.970961,2.3361422999999997,0.59761333,0.15659387,0.84368944,-3.42,21.24,-15.48
1554880791721,-7.513005000000001,-4.76506,2.4702177000000005,0.6114618,0.21624869,0.8149273,-2.58,21.18,-15.9
1554880791740,-7.728483,-4.64535,2.5037365,0.65194184,0.26738137,0.809601,-1.8,21.12,-16.26
1554880791761,-7.6135616,-4.4921207,2.5516205000000003,0.6743124,0.27377295,0.753142,-1.08,21.0,-16.62
1554880791781,-7.881711999999999,-4.3676224,2.7623102999999998,0.69348717,0.2428803,0.6956177,-0.48,20.94,-16.92
1554880791801,-7.972691499999999,-4.291008000000001,2.9011737999999996,0.716923,0.23755397,0.71479243,0.06,20.82,-17.16
1554880791820,-8.101977999999999,-4.200028400000001,2.8149827000000003,0.7318366999999999,0.23968449999999997,0.74781567,0.6,20.76,-17.46
1554880791840,-8.135497,-3.970185,2.7240029999999997,0.72970617,0.23861924,0.74461985,1.14,20.52,-17.7
