TimeStamp,Ax,Ay,Az,Gx,Gy,Gz,Mx,My,Mz
1554103088520,-8.1881695,-7.1353197,2.5899277,-0.3749731,0.026631612000000002,-0.034088463,23.34,4.86,-26.7
1554103088541,-8.0445175,-6.9246297000000006,2.8772318,-0.039414786,0.0,0.08522116,23.4,5.82,-26.64
1554103088560,-7.991845,-6.8623804999999996,3.0304607999999997,0.32810146,-0.011717908999999999,0.17150758,23.46,6.54,-26.52
1554103088581,-7.9487495,-6.7043633,3.2076318,0.6444850000000001,-0.033023197000000004,0.24501082,23.46,7.26,-26.46
1554103088601,-7.771578999999999,-6.3883285999999995,3.3464954,0.8873653,-0.07350325,0.34408042,23.52,7.86,-26.34
1554103088621,-7.824250999999999,-5.852027400000001,3.1549592,1.0162623,-0.084155895,0.43995422,23.52,8.1,-26.28
1554103088640,-8.135497,-5.655703,3.0304607999999997,0.9044095,-0.10013486,0.5230448000000001,23.52,7.98,-26.16
1554103088661,-8.1881695,-5.612607499999999,3.1884782000000005,0.68176925,-0.11824436,0.5997439,23.52,7.68,-26.04
1554103088681,-8.327033,-5.631761,3.3752258,0.43249738,-0.12144015,0.660464,23.46,6.96,-26.04
1554103088701,-8.408437,-5.7083755,3.566762,0.33449304,-0.10759171,0.71585774,23.34,6.18,-26.16
1554103088720,-8.652645,-5.8328739999999994,3.9546227,0.2972088,-0.07776430000000001,0.7701861999999999,23.28,5.4,-26.22
1554103088740,-8.6574335,-5.6700683,3.9306807999999998,0.3153183,-0.06391586,0.82877576,23.22,4.62,-26.46
1554103088760,-8.336611,-5.2917843,3.8684312999999997,0.28336033,-0.05752428,0.9416938,23.1,3.78,-26.64
1554103088780,-8.432379,-5.430648000000001,4.117428299999999,0.22690132,-0.049002163,1.0077401,23.04,3.06,-26.88
1554103088800,-8.523358,-5.0810947,4.4717703,0.25140239999999997,-0.06285059999999999,1.0492854999999999,22.92,2.34,-27.12
1554103088821,-8.226477000000001,-4.659715,4.1557355000000005,0.3334278,-0.083090626,1.1302456,22.86,1.5,-27.36
1554103088841,-8.341399000000001,-4.420294999999999,4.1653123,0.36964676,-0.094808534,1.1749867,22.86,0.78,-27.48
1554103088861,-8.39886,-4.109049,4.031237,0.46658584,-0.12996227,1.144094,22.86,-0.12,-27.6
1554103088881,-8.384495,-4.0372224,4.1222167,0.54435015,-0.15552860000000002,1.1121361,22.86,-1.26,-27.66
1554103088900,-8.1163435,-3.8313212,4.2754455,0.65726817,-0.18002969,1.0812434,22.8,-2.58,-27.72
1554103088920,-8.121132000000001,-3.4530375,4.1222167,0.82557994,-0.2130529,1.031176,22.68,-3.9,-27.72
1554103088941,-8.346188,-3.0125043,4.2371383,0.9619338,-0.24181503,0.99069595,22.56,-5.16,-27.78
1554103088960,-8.48984,-2.8161798,3.6864722000000003,1.031176,-0.27483824,0.95234644,22.44,-6.36,-27.84
1554103088980,-8.350976,-2.3229742,3.9737763,0.96086854,-0.3323625,0.9353021999999999,22.26,-7.5,-27.9
1554103089001,-8.355764,-2.4570496,3.9163153,0.9235843,-0.37816888,0.8905610999999999,22.02,-8.64,-28.02
1554103089021,-8.422802,-2.356493,4.0216603,1.0002834,-0.41864893,0.8543421,21.72,-10.02,-28.08
1554103089040,-8.274361,-2.15538,3.9881415000000002,1.0641992,-0.46765109999999993,0.8309063,21.36,-11.46,-28.2
1554103089060,-8.063671000000001,-1.8201918999999998,3.9067385000000003,1.1036139999999999,-0.5219796,0.7701861999999999,20.76,-12.72,-28.26
1554103089081,-7.8290396,-1.6142905,4.3424835,1.0982877,-0.5571333,0.71479243,20.22,-14.1,-28.32
1554103089101,-7.6135616,-1.4562732,4.371214,1.1259845,-0.58909124,0.67537767,19.68,-15.6,-28.38
1554103089121,-7.4603324,-1.0827777,4.174889,1.1739215,-0.59761333,0.6242449999999999,19.02,-17.16,-28.38
1554103089141,-7.747636999999999,-0.7140707,3.9546227,1.139833,-0.5858955,0.5603291,18.48,-18.9,-28.38
1554103089161,-7.953538000000001,-0.52253455,4.1461587,1.0428939,-0.58909124,0.45486793,17.76,-21.48,-28.32
1554103089181,-8.255207,-0.5129577000000001,4.1413703,0.9108011,-0.5539375,0.34621096,17.52,-22.26,-28.32
1554103089201,-8.145074000000001,-0.32142156,4.6441526,0.7499462,-0.5134575,0.26844665,17.04,-23.76,-28.32
1554103089221,-7.680599000000001,-0.0005985504,4.696825,0.67218184,-0.48043427,0.20026971,16.74,-25.32,-28.32
1554103089241,-7.541735000000001,0.52133745,4.7542860000000005,0.5954828000000001,-0.43569317,0.21837921,16.38,-26.7,-28.32
1554103089261,-7.1490865,0.47345337,4.7303440000000005,0.53476274,-0.42184472,0.27057716,15.84,-28.02,-28.26
1554103089280,-6.631939,0.41599256,4.936245400000001,0.48043427,-0.4133226,0.26631612,15.36,-29.16,-28.2
1554103089301,-6.8905125,0.5931635000000001,5.1086279999999995,0.49215218,-0.3717773,0.23861924,14.58,-30.48,-27.78
1554103089321,-6.8809357,0.53570265,4.7830167,0.5336975,-0.330232,0.22477080000000002,14.1,-31.14,-27.54
1554103089340,-6.8905125,0.56922144,5.209184,0.5571333,-0.27377295,0.15233281,13.68,-31.86,-27.3
1554103089360,-6.9288197,0.88046765,4.931457,0.57311225,-0.20559604,0.06285059999999999,13.32,-32.46,-27.06
1554103089380,-6.981492,0.88046765,5.113416,0.51452273,-0.14594123,-0.012783173500000002,12.96,-33.12,-26.82
1554103089401,-7.0724716,1.1725603,5.1038394,0.42717105,-0.10226539,-0.06604639400000001,12.72,-33.84,-26.58
1554103089421,-7.4028716,1.0815806000000001,5.300164,0.3174488,-0.05539375,-0.08522116,12.6,-34.5,-26.4
1554103089441,-7.489063000000001,0.95229375,5.5539494000000005,0.22583607,-0.043675844000000005,-0.06604639400000001,12.42,-35.16,-26.34
1554103089460,-7.5608889999999995,1.1821371,5.807735,0.2545982,-0.04474111,-0.043675844000000005,12.18,-35.82,-26.34
1554103089480,-7.8386164,1.5125369,6.114192500000001,0.30679616,-0.04261058,0.011717908999999999,12.0,-36.42,-26.28
1554103089500,-7.675811,1.5699978,6.2243257000000005,0.30146983,-0.05752428,0.084155895,11.76,-36.9,-26.22
1554103089521,-7.4363904000000005,1.95307,6.3727665,0.28442562,-0.023435817999999997,0.07776430000000001,11.52,-37.32,-26.16
1554103089540,-7.5608889999999995,1.6801311,6.2626333,0.22583607,-0.008522116,0.036218993,11.34,-37.74,-26.1
1554103089561,-7.359775999999999,1.2300211,6.4206505,0.16085494,-0.011717908999999999,0.058589544,11.22,-38.16,-25.92
1554103089581,-7.2352777,0.87089086,6.4876879999999995,0.17576863,0.008522116,0.07350325,11.1,-38.58,-25.8
1554103089601,-7.3549875999999985,0.9475053,6.564302400000001,0.24394555,0.007456851,0.06498113,11.04,-38.94,-25.68
1554103089621,-7.2065472999999995,1.0911574,6.3823433,0.45060685,-0.0031957934000000003,0.11824436,10.98,-39.24,-25.56
1554103089640,-6.9958572,1.38325,6.4062852999999995,0.56885123,0.012783173500000002,0.12570119999999999,10.98,-39.48,-25.44
1554103089661,-7.019799000000001,1.6514006,6.0423665,0.7552725,0.01917476,0.05219796,10.98,-39.66,-25.38
1554103089680,-7.1490865,2.168548,5.6401405,0.7339671999999999,0.0063915867,0.05006743,10.98,-39.84,-25.26
1554103089701,-7.1826053,2.144606,5.0846860000000005,0.41119209999999995,-0.03089267,0.07776430000000001,10.98,-40.02,-25.08
1554103089720,-7.5034279999999995,1.9482816000000003,5.6976013,0.14913702,-0.07137272,0.03089267,10.98,-40.2,-24.96
1554103089740,-7.522581599999999,1.8620903000000002,5.9082913,0.08948222,-0.09267801,0.03834952,10.98,-40.5,-24.78
1554103089760,-7.546523599999999,1.6944963,5.9082913,0.19813919,-0.09267801,0.08841695,10.98,-40.92,-24.48
1554103089781,-7.656657000000001,2.0344729999999998,6.0280013,0.25566345,-0.083090626,0.10439592,10.98,-41.34,-24.24
1554103089800,-7.2065472999999995,1.7328035,5.204396,0.26844665,-0.10013486,0.111852765,10.8,-41.82,-23.94
1554103089821,-7.5082164,2.1110873,5.740697,0.17896444,-0.10333065,0.10439592,10.68,-42.3,-23.64
1554103089840,-7.608772999999999,2.3122002999999998,5.467758,0.22477080000000002,-0.10759171,0.111852765,10.56,-42.84,-23.4
1554103089860,-7.4986396,2.532467,5.3624134,0.2428803,-0.12783173,0.07030745599999999,10.44,-43.32,-23.22
1554103089880,-7.2448545,2.4510639,5.4342394,0.15552860000000002,-0.15126756,0.04261058,10.26,-43.68,-23.04
1554103089900,-7.417236999999999,2.3026235,5.6161985,0.046871635999999994,-0.15233281,0.047936900000000005,10.08,-43.92,-22.98
1554103089920,-7.4699089999999995,2.1733365,5.453393,-0.083090626,-0.16192019,0.06178534,9.9,-44.16,-23.04
1554103089941,-7.5082164,2.0727801,5.6401405,-0.16192019,-0.18748654,0.047936900000000005,9.72,-44.34,-23.04
1554103089961,-7.3549875999999985,2.0105310000000003,6.071097,-0.06498113,-0.19920446,0.05006743,9.66,-44.52,-23.16
1554103089980,-7.2592196,2.0632033,6.095039,0.06924219,-0.18002969,0.020240024,9.54,-44.64,-23.22
1554103090000,-6.9288197,2.0871453,6.023213,0.040480047000000005,-0.16618125,0.013848438000000001,9.48,-44.76,-23.28
1554103090021,-6.8761472999999995,2.0679917000000003,5.644929,0.06498113,-0.15659387,0.024501082,9.36,-44.82,-23.34
1554103090040,-7.005433999999999,2.3122002999999998,5.7790045999999995,0.014913702,-0.16405073,-0.0053263223,9.3,-44.88,-23.4
1554103090060,-6.9048777,2.0967221,5.8651957999999995,-0.047936900000000005,-0.16405073,-0.011717908999999999,9.24,-44.94,-23.46
1554103090081,-6.981492,2.1158757,6.0423665,-0.10013486,-0.13635385,-0.024501082,9.06,-44.94,-23.46
1554103090100,-7.062895,2.1254525,6.0567317,-0.082025364,-0.12357068,-0.033023197000000004,9.0,-44.94,-23.46
1554103090121,-6.981492,2.1493945,6.118981,-0.05006743,-0.113983296,-0.037284255,8.88,-45.0,-23.46
1554103090140,-6.885724000000001,2.0201077,5.9801173,-0.024501082,-0.09587380000000001,-0.037284255,8.7,-45.06,-23.4
1554103090161,-6.900089299999999,2.0105310000000003,5.9801173,-0.051132694000000006,-0.07350325,-0.033023197000000004,8.64,-45.06,-23.4
1554103090180,-7.120356,2.2643162999999995,6.1477113,-0.06711166,-0.053263225,-0.036218993,8.52,-45.12,-23.46
1554103090200,-7.105990400000001,2.1206641,6.118981,-0.037284255,-0.03834952,-0.05006743,8.34,-45.18,-23.46
1554103090220,-7.005433999999999,2.0727801,6.291363700000001,-0.056459017,-0.034088463,-0.054328485999999995,8.28,-45.18,-23.46
1554103090241,-7.043741000000001,2.0344729999999998,6.2530565000000005,-0.047936900000000005,-0.023435817999999997,-0.056459017,8.22,-45.24,-23.4
1554103090267,-6.947973299999999,1.9099745,6.0280013,-0.035153727999999995,-0.034088463,-0.04474111,8.16,-45.36,-23.4
1554103090281,-6.871359,1.7854759999999998,6.1668650000000005,-0.043675844000000005,-0.04261058,-0.036218993,8.16,-45.36,-23.4
1554103090300,-6.8330517,2.0775685,6.071097,-0.015978966,-0.040480047000000005,-0.024501082,8.1,-45.48,-23.4
1554103090320,-6.885724000000001,2.0248961,6.186018499999999,-0.0053263223,-0.020240024,-0.056459017,8.04,-45.66,-23.34
1554103090341,-7.0102224,2.0727801,6.257845,-0.04474111,0.00958738,-0.06498113,8.04,-45.84,-23.34
1554103090361,-7.029375999999999,2.0009542000000002,6.3344593,-0.06498113,0.015978966,-0.05752428,7.98,-46.02,-23.34
1554103090380,-6.9288197,2.0153193,6.4110737,-0.027696876000000002,0.03195793,-0.07350325,7.92,-46.2,-23.34
1554103090401,-6.363788,2.0296845,6.4541693,0.0,0.039414786,-0.07350325,7.92,-46.38,-23.34
1554103090420,-6.742072,2.7670987,6.545148999999999,0.12570119999999999,0.10652645,-0.15552860000000002,7.92,-46.44,-23.34
1554103090441,-7.3071036,1.3688848,5.716755,0.0010652645,0.14061491,-0.27803403,7.86,-46.44,-23.4
1554103090461,-7.1873937,1.751957,6.205172,-0.15765914,0.10652645,-0.07563378,7.86,-46.32,-23.46
1554103090480,-6.9623384,1.7854759999999998,5.879561,0.06711166,0.10439592,-0.082025364,7.86,-46.14,-23.52
1554103090500,-7.517792999999999,2.0153193,6.0280013,0.00958738,0.112918034,-0.18002969,7.86,-45.84,-23.58
1554103090521,-7.359775999999999,1.9722236000000002,6.085462000000001,-0.094808534,0.09587380000000001,-0.082025364,7.86,-45.6,-23.64
1554103090540,-7.153875,2.1062990000000004,6.2099605,0.002130529,0.08628642,-0.10546118,7.92,-45.3,-23.76
1554103090561,-7.383717999999999,2.2260091,6.1955953,0.053263225,0.07563378,-0.15126756,7.92,-45.12,-23.82
1554103090580,-7.359775999999999,2.0727801,5.960963700000001,-0.03834952,0.05965481,-0.12357068,7.98,-44.94,-23.88
1554103090601,-7.359775999999999,1.9339164,6.1477113,-0.16937704,0.06285059999999999,-0.113983296,8.04,-44.88,-23.88
1554103090620,-7.465121000000001,1.8908207,6.2099605,-0.19387813,0.07030745599999999,-0.10546118,8.1,-44.82,-23.88
1554103090641,-7.465121000000001,1.6418238,6.114192500000001,-0.16724652,0.053263225,-0.07137272,8.16,-44.82,-23.88
1554103090661,-7.2304892999999995,1.6561891,6.0519433,-0.15446335,0.023435817999999997,-0.03834952,8.28,-44.7,-23.88
1554103090681,-7.2831616,1.6609775000000002,6.257845,-0.14913702,0.01917476,-0.035153727999999995,8.34,-44.64,-23.88
1554103090701,-7.350199000000001,1.7375918999999997,6.1333459999999995,-0.12676647,0.0053263223,-0.036218993,8.4,-44.58,-23.88
1554103090720,-7.216124000000001,1.9147629000000002,6.0327897,-0.09161274,-0.015978966,-0.04580637,8.46,-44.4,-23.88
1554103090743,-7.134721300000001,1.857302,6.0567317,-0.06391586,-0.05006743,-0.07776430000000001,8.58,-44.22,-23.88
1554103090760,-7.0341644,1.9434932,5.9705405,-0.07669904,-0.080960095,-0.11717909,8.64,-44.04,-23.88
1554103090783,-7.153875,1.9913772,6.0663085,-0.15233281,-0.10759171,-0.15339808,8.76,-43.86,-23.88
1554103090801,-7.1586633,1.8333599999999999,6.0519433,-0.25672874,-0.11717909,-0.17789917,8.88,-43.74,-23.94
1554103090821,-7.005433999999999,1.7711107,6.128557700000001,-0.33555830000000003,-0.12463594,-0.21837921,8.94,-43.68,-23.94
1554103090840,-6.9527617,1.5508442,6.1955953,-0.39947417,-0.111852765,-0.25353295,8.94,-43.62,-23.94
1554103090860,-6.9527617,1.2635399,6.1237693,-0.4133226,-0.10333065,-0.26738137,9.0,-43.5,-24.0
1554103090880,-6.861782000000001,0.9091981,6.013636,-0.3536678,-0.09267801,-0.29507825,9.06,-43.32,-24.0
1554103090902,-6.6079965,1.2731166999999999,5.740697,-0.23861924,-0.083090626,-0.30679616,9.12,-42.9,-24.06
1554103090920,-6.540959,1.3401544,5.563526,-0.17150758,-0.07563378,-0.32384038,9.18,-42.72,-24.06
1554103090940,-6.2632318,1.4598645000000001,5.252279799999999,-0.19281286,-0.07456851,-0.41438788,9.18,-42.36,-24.12
1554103090961,-6.0956373,1.2300211,5.37199,-0.21837921,-0.07456851,-0.53795856,9.24,-41.94,-24.24
1554103090981,-6.229712999999999,0.97144735,5.3049526,-0.25033715,-0.041545313,-0.664725,9.24,-41.28,-24.42
1554103091000,-6.320692500000001,0.9427169,5.510854,-0.2695119,-0.018109497,-0.74035877,9.3,-41.1,-24.54
1554103091021,-6.105214,0.6075286999999999,5.3528366,-0.31212249999999997,0.0031957934000000003,-0.8724516,9.48,-40.62,-24.9
1554103091043,-6.291962,0.29149407,5.3863554,-0.3898868,0.039414786,-0.95234644,9.66,-40.26,-25.14
1554103091063,-6.459556,-0.0724246,5.544372599999999,-0.47936899999999993,0.09374327,-1.0503508,9.9,-39.96,-25.38
1554103091081,-6.588842999999999,-0.29747957,5.482123400000001,-0.5251754,0.12250541,-1.0929613,10.14,-39.72,-25.62
1554103091100,-6.789956,-0.8194155000000001,5.635351999999999,-0.5273059,0.1470065,-1.1046791999999999,10.44,-39.48,-25.8
1554103091121,-7.0102224,-1.0157399999999999,5.9226565,-0.5049353,0.16724652,-1.0737866000000003,10.74,-39.24,-25.98
1554103091140,-7.2592196,-1.46585,5.798158,-0.46125950000000004,0.19387813,-1.0365024,11.1,-39.0,-26.1
1554103091160,-7.240066000000001,-1.6190788999999999,6.0327897,-0.39308259999999995,0.22796659,-1.0173275,11.52,-38.7,-26.1
1554103091181,-7.398083,-1.8776526000000002,6.118981,-0.2727077,0.24501082,-0.99708754,12.06,-38.34,-26.22
1554103091200,-7.738060000000001,-1.7196354,6.118981,-0.20559604,0.26738137,-0.9235843,12.78,-37.74,-26.28
1554103091220,-7.7189064,-1.7435773999999997,6.0998273,-0.21624869,0.28655612,-0.84155893,13.38,-37.14,-26.4
1554103091241,-7.5800424,-1.8920178,6.118981,-0.26631612,0.3153183,-0.8085357,14.04,-36.36,-26.52
1554103091260,-7.8865004,-1.9494787,6.0567317,-0.33875409999999995,0.3291667,-0.7552725,14.7,-35.58,-26.58
1554103091281,-7.9343843,-2.2703017999999995,6.3727665,-0.39947417,0.32810146,-0.6860303000000001,15.36,-34.62,-26.64
1554103091300,-8.020576,-2.4378957999999997,6.1477113,-0.31638354,0.34727620000000003,-0.66579026,16.02,-33.6,-26.76
1554103091320,-8.015787,-2.4666264,5.917868,-0.24927188,0.34514567,-0.63383234,16.62,-32.52,-26.82
1554103091341,-8.082825,-2.3612813999999998,5.707178,-0.21198763,0.29933932,-0.56245965,16.98,-31.5,-26.82
1554103091360,-8.039729,-2.404377,5.6257753,-0.28655612,0.26525086,-0.52624065,17.28,-30.66,-26.76
1554103091380,-7.809886,-2.8592752999999997,5.846042,-0.4048005,0.23542345,-0.48149952,17.7,-29.88,-26.76
1554103091401,-7.848192999999999,-3.0460230999999998,5.788581400000001,-0.35153726,0.23009712,-0.45167214,18.06,-29.16,-26.7
1554103091421,-8.001422,-2.8880057,5.6640825,-0.23329292,0.21837921,-0.39521313,18.42,-28.5,-26.64
1554103091440,-7.953538000000001,-2.878429,5.563526,-0.16937704,0.19920446,-0.35899413,18.78,-27.84,-26.58
1554103091460,-7.747636999999999,-3.0125043,5.486912,-0.16724652,0.20453078,-0.35153726,19.08,-27.24,-26.52
1554103091481,-7.7907324000000004,-3.0268695,5.5539494000000005,-0.1587244,0.22583607,-0.32597092,19.44,-26.7,-26.46
1554103091501,-7.848192999999999,-3.0891187,5.309741000000001,-0.13528858,0.24820662,-0.28549087,19.86,-26.16,-26.34
1554103091521,-7.8625584,-3.0508115,5.295376,-0.15765914,0.2695119,-0.25885928,20.22,-25.68,-26.22
1554103091540,-7.675811,-2.9741971,5.1660886,-0.19174760000000002,0.29188246,-0.25353295,20.58,-25.2,-26.1
1554103091560,-7.656657000000001,-3.093907,5.113416,-0.21944448,0.30999196,-0.23861924,20.94,-24.84,-25.98
1554103091584,-7.8003089999999995,-3.093907,5.2810106,-0.24181503,0.31638354,-0.21411815,21.24,-24.48,-25.92
1554103091601,-7.896077,-3.151368,4.854842700000001,-0.23861924,0.30999196,-0.18961707,21.54,-24.18,-25.86
1554103091621,-7.632714999999999,-3.1561562999999997,4.907515,-0.22583607,0.2876214,-0.18216023,21.78,-23.94,-25.8
1554103091641,-7.723694999999999,-3.2231941,4.9506106,-0.20240025,0.26631612,-0.16724652,22.02,-23.58,-25.74
1554103091661,-7.881711999999999,-3.1992521000000003,4.7542860000000005,-0.1768339,0.23968449999999997,-0.15446335,22.2,-23.16,-25.74
1554103091681,-7.843405000000001,-3.1896752999999998,4.7016134,-0.16724652,0.2066613,-0.1438107,22.38,-22.74,-25.68
1554103091701,-7.8673470000000005,-3.2231941,4.696825,-0.17576863,0.18109496,-0.15020229,22.5,-22.26,-25.68
1554103091721,-7.905653999999999,-3.4099417,4.6297874000000006,-0.18322548,0.15126756,-0.16085494,22.68,-21.84,-25.62
1554103091741,-7.7428484,-3.4482489999999997,4.5723267,-0.17044231,0.128897,-0.16724652,22.8,-21.42,-25.56
1554103091761,-7.762002000000001,-3.5440169999999998,4.672883000000001,-0.14913702,0.112918034,-0.15446335,22.98,-21.0,-25.5
1554103091781,-7.824250999999999,-3.5440169999999998,4.586692,-0.112918034,0.094808534,-0.15233281,23.16,-20.64,-25.38
1554103091800,-7.848192999999999,-3.5104983,4.68246,-0.07989483,0.084155895,-0.16831179,23.28,-20.34,-25.32
1554103091820,-7.7332716,-3.7116113,4.6633059999999995,-0.068176925,0.07776430000000001,-0.1768339,23.34,-20.04,-25.32
1554103091841,-7.642291999999999,-3.5966894999999997,4.7303440000000005,-0.07030745599999999,0.07456851,-0.19068234,23.46,-19.86,-25.32
1554103091860,-7.6470804,-3.6780925000000004,4.586692,-0.05219796,0.07137272,-0.20453078,23.58,-19.68,-25.38
1554103091881,-7.833828,-3.6589386,4.7255554,-0.039414786,0.05965481,-0.20879184,23.76,-19.5,-25.38
1554103091900,-7.809886,-3.816956,4.7016134,-0.043675844000000005,0.035153727999999995,-0.22690132,23.94,-19.26,-25.44
1554103091920,-7.833828,-3.7882257000000004,4.706402,-0.023435817999999997,0.017044231,-0.2545982,24.06,-19.2,-25.44
1554103091941,-7.8050976,-3.8073792,4.687248,0.0010652645,-0.0010652645,-0.28549087,24.24,-19.02,-25.44
1554103091961,-7.876923599999999,-3.8456864,4.8165355000000005,0.0010652645,-0.023435817999999997,-0.30360037,24.36,-18.9,-25.5
1554103091980,-7.9343843,-3.9606082000000002,4.9506106,0.0063915867,-0.033023197000000004,-0.31318775,24.42,-18.84,-25.44
1554103092001,-7.915230800000001,-3.9749733999999997,4.8452660000000005,0.046871635999999994,-0.054328485999999995,-0.32277513,24.6,-18.66,-25.44
1554103092021,-7.852981599999999,-3.8552632000000004,4.8739963,0.080960095,-0.06391586,-0.32170987,24.66,-18.54,-25.44
1554103092041,-7.7907324000000004,-3.8313212,4.979341000000001,0.099069595,-0.068176925,-0.3057309,24.66,-18.42,-25.38
1554103092061,-7.690175999999999,-3.9223008000000004,4.8787847,0.13102753,-0.07030745599999999,-0.2876214,24.72,-18.3,-25.32
1554103092082,-7.393294999999999,-3.7547068999999995,4.9218802,0.18748654,-0.07243799,-0.26205507,24.72,-18.12,-25.32
1554103092101,-7.513005000000001,-3.7978023999999997,4.7207669999999995,0.21411815,-0.07456851,-0.24927188,24.78,-18.0,-25.26
1554103092121,-7.4699089999999995,-3.7355532999999994,4.7207669999999995,0.19387813,-0.07243799,-0.22690132,24.78,-17.88,-25.26
1554103092141,-7.4268136,-3.7259765,4.7542860000000005,0.11504856,-0.080960095,-0.21944448,24.84,-17.7,-25.26
1554103092160,-7.431602000000001,-3.7978023999999997,4.687248,0.054328485999999995,-0.08841695,-0.22050974,24.84,-17.58,-25.26
1554103092181,-7.4507556,-3.8265328000000003,4.8165355000000005,0.039414786,-0.094808534,-0.20559604,24.84,-17.52,-25.26
1554103092201,-7.441178999999999,-3.7594953,4.7878050000000005,0.051132694000000006,-0.10013486,-0.16618125,24.84,-17.4,-25.26
1554103092221,-7.479486,-3.8313212,4.9027267,0.056459017,-0.094808534,-0.14594123,24.84,-17.34,-25.26
1554103092241,-7.1969705,-3.888782,4.830900700000001,0.07243799,-0.07882957,-0.094808534,24.84,-17.28,-25.26
1554103092261,-7.192182000000001,-3.7882257000000004,4.854842700000001,0.09267801,-0.05965481,-0.06285059999999999,24.84,-17.22,-25.26
1554103092281,-7.1873937,-3.8265328000000003,4.883573,0.11824436,-0.023435817999999997,-0.02876214,24.9,-17.22,-25.26
1554103092300,-7.153875,-3.7020345,4.9458222,0.13954964,0.040480047000000005,0.017044231,25.02,-17.22,-25.26
1554103092321,-7.1634517,-3.639785,4.8165355000000005,0.11504856,0.082025364,0.03834952,25.08,-17.16,-25.26
1554103092341,-7.0245875999999985,-3.6445735,4.7399206,0.06711166,0.113983296,0.05006743,25.14,-17.16,-25.26
1554103092360,-6.991069,-3.7116113,4.744708999999999,0.011717908999999999,0.14168017,0.046871635999999994,25.26,-17.16,-25.26
1554103092380,-6.947973299999999,-3.6445735,4.7782279999999995,-0.033023197000000004,0.16618125,0.043675844000000005,25.32,-17.1,-25.26
1554103092401,-7.1586633,-3.6014779000000003,4.6441526,-0.09054748,0.17470337,0.043675844000000005,25.38,-17.16,-25.2
1554103092420,-7.278373200000001,-3.6589386,4.7542860000000005,-0.11930962,0.17257284,0.040480047000000005,25.44,-17.28,-25.2
1554103092440,-7.2927384,-3.7211879999999997,4.8452660000000005,-0.099069595,0.15978967,0.04261058,25.38,-17.34,-25.14
1554103092461,-7.2352777,-3.6876693,4.8021703,-0.083090626,0.14487597,0.060720075,25.38,-17.46,-25.08
1554103092482,-7.254431200000001,-3.6828809000000002,4.821324,-0.07669904,0.13422333,0.06924219,25.38,-17.52,-24.96
1554103092501,-7.2927384,-3.6206315000000004,4.7782279999999995,-0.07882957,0.11930962,0.06604639400000001,25.32,-17.64,-24.84
1554103092521,-7.3885064,-3.6062663,4.835689,-0.10013486,0.10546118,0.06604639400000001,25.32,-17.7,-24.72
1554103092542,-7.383717999999999,-3.7547068999999995,4.830900700000001,-0.10333065,0.08628642,0.06178534,25.32,-17.76,-24.54
1554103092562,-7.3885064,-3.7882257000000004,4.936245400000001,-0.09374327,0.07669904,0.07350325,25.32,-17.76,-24.42
1554103092580,-7.465121000000001,-3.8552632000000004,4.696825,-0.07137272,0.07456851,0.084155895,25.38,-17.76,-24.36
1554103092601,-7.422025,-3.8121676,4.821324,-0.07243799,0.068176925,0.07669904,25.44,-17.76,-24.24
1554103092621,-7.431602000000001,-3.7978023999999997,4.8787847,-0.07989483,0.05965481,0.07243799,25.5,-17.7,-24.18
1554103092641,-7.5561004,-3.9318779000000004,4.7925935,-0.11611383,0.05965481,0.07030745599999999,25.5,-17.7,-24.18
1554103092661,-7.4986396,-3.9270894999999997,4.835689,-0.12570119999999999,0.051132694000000006,0.082025364,25.56,-17.7,-24.18
1554103092681,-7.690175999999999,-3.9749733999999997,5.027225,-0.099069595,0.040480047000000005,0.07882957,25.62,-17.7,-24.24
1554103092700,-7.675811,-3.9653966,5.027225,-0.07669904,0.022370555,0.058589544,25.62,-17.76,-24.36
1554103092720,-7.642291999999999,-3.8983587999999996,5.0559554,-0.053263225,0.018109497,0.047936900000000005,25.62,-17.76,-24.36
1554103092741,-7.7572136,-3.9175123999999997,4.960187400000001,-0.02876214,0.010652645,0.04580637,25.62,-17.76,-24.42
1554103092760,-7.6518690000000005,-3.8504747999999998,4.969764,-0.024501082,0.0,0.046871635999999994,25.68,-17.76,-24.42
1554103092783,-7.632714999999999,-3.8361096,4.931457,0.033023197000000004,-0.002130529,0.056459017,25.8,-17.76,-24.42
1554103092800,-7.5944076,-3.8456864,4.6297874000000006,0.08841695,-0.0063915867,0.05219796,25.8,-17.76,-24.42
1554103092820,-7.6135616,-3.7547068999999995,4.6393642,0.12250541,-0.023435817999999997,0.03195793,25.92,-17.7,-24.36
1554103092841,-7.5608889999999995,-3.8552632000000004,4.4717703,0.12783173,-0.03834952,0.012783173500000002,25.98,-17.7,-24.3
1554103092861,-7.699753,-3.8504747999999998,4.3760023,0.13209279,-0.06498113,-0.002130529,26.04,-17.64,-24.24
1554103092881,-7.738060000000001,-3.8839936,4.5962687,0.15552860000000002,-0.08841695,0.0010652645,26.1,-17.64,-24.24
1554103092901,-7.565677,-3.7259765,4.3999443,0.19281286,-0.10546118,0.017044231,26.1,-17.58,-24.18
1554103092920,-7.584830800000001,-3.7882257000000004,4.447828299999999,0.21198763,-0.11611383,0.041545313,26.1,-17.58,-24.18
1554103092940,-7.541735000000001,-3.7116113,4.6154222,0.19600865,-0.11611383,0.05752428,26.1,-17.64,-24.18
1554103092960,-7.445967,-3.7594953,4.553173,0.19920446,-0.10972224,0.080960095,26.04,-17.7,-24.12
1554103092981,-7.345411,-3.5823242999999994,4.577115,0.19068234,-0.10226539,0.10439592,25.98,-17.82,-24.12
1554103093001,-7.4603324,-3.5535938999999996,4.3568487000000005,0.20240025,-0.10972224,0.10759171,25.86,-18.0,-24.12
1554103093021,-7.666233999999999,-3.5966894999999997,4.56275,0.17044231,-0.10546118,0.08841695,25.68,-18.24,-24.18
1554103093040,-7.656657000000001,-3.6445735,4.68246,0.05006743,-0.10333065,0.040480047000000005,25.5,-18.48,-24.18
1554103093060,-7.6518690000000005,-3.7978023999999997,4.735132,0.002130529,-0.10226539,-0.0031957934000000003,25.32,-18.84,-24.24
1554103093081,-7.61835,-3.6014779000000003,4.7782279999999995,-0.0053263223,-0.098004326,-0.054328485999999995,25.14,-19.14,-24.24
1554103093100,-7.551311999999999,-3.5057099999999997,4.6058455,0.035153727999999995,-0.09161274,-0.049002163,24.96,-19.38,-24.3
1554103093121,-7.704541000000001,-3.3333273,4.4717703,0.056459017,-0.09374327,-0.04261058,24.84,-19.62,-24.36
1554103093141,-7.6518690000000005,-3.232771,4.222773,0.036218993,-0.098004326,-0.04261058,24.78,-19.86,-24.36
1554103093161,-7.599196000000001,-3.2184057,4.040814,-0.027696876000000002,-0.10865697,-0.04580637,24.72,-20.04,-24.36
1554103093181,-7.5082164,-3.2136172999999997,4.0503907,-0.096939065,-0.11611383,-0.029827405,24.72,-20.16,-24.3
1554103093200,-7.489063000000001,-3.127426,4.0216603,-0.13528858,-0.13422333,-0.023435817999999997,24.66,-20.16,-24.3
1554103093220,-7.479486,-3.256713,3.8971617,-0.15978967,-0.15659387,-0.018109497,24.66,-20.1,-24.3
1554103093241,-7.417236999999999,-3.1848867000000003,3.9594111000000005,-0.20133498,-0.17470337,-0.0053263223,24.6,-20.04,-24.24
1554103093261,-7.350199000000001,-3.1992521000000003,3.9594111000000005,-0.2609898,-0.19281286,-0.00958738,24.6,-19.98,-24.24
1554103093280,-7.4507556,-3.4003648999999996,4.040814,-0.3749731,-0.2034655,-0.027696876000000002,24.54,-19.86,-24.24
1554103093300,-7.6518690000000005,-3.5440169999999998,4.2275615,-0.46871635,-0.21518342,-0.034088463,24.42,-19.8,-24.24
1554103093321,-7.642291999999999,-3.7259765,4.308964700000001,-0.5209143,-0.22903186,-0.026631612000000002,24.3,-19.68,-24.3
1554103093340,-7.4603324,-3.6589386,4.56275,-0.53263223,-0.23861924,-0.013848438000000001,24.18,-19.56,-24.42
1554103093361,-7.2831616,-3.7259765,4.5340195,-0.49215218,-0.24181503,-0.013848438000000001,24.06,-19.44,-24.6
1554103093381,-7.201759,-3.7116113,4.347272,-0.50600064,-0.23861924,-0.0053263223,23.94,-19.26,-24.78
1554103093401,-7.216124000000001,-3.7882257000000004,4.586692,-0.55606806,-0.22477080000000002,0.025566347000000003,23.82,-19.08,-24.96
1554103093420,-7.0102224,-3.7547068999999995,4.481347,-0.60080916,-0.2066613,0.05006743,23.7,-18.84,-25.14
1554103093442,-7.053317999999999,-3.7020345,4.1844660000000005,-0.6295713000000001,-0.19813919,0.051132694000000006,23.46,-18.36,-25.5
1554103093461,-7.383717999999999,-3.6014779000000003,4.0839095,-0.66152924,-0.19281286,0.036218993,23.34,-18.0,-25.68
1554103093480,-7.4124484,-3.6876693,4.0839095,-0.7073356,-0.19707392,0.0063915867,23.28,-17.82,-25.8
1554103093500,-7.546523599999999,-3.840898,3.9546227,-0.79681784,-0.20453078,-0.054328485999999995,23.16,-17.04,-26.22
1554103093520,-7.5273699999999995,-4.0084919999999995,4.208408,-0.83942837,-0.19707392,-0.094808534,23.1,-16.74,-26.34
1554103093540,-7.9391727,-4.1665095999999995,4.1892543,-0.89801794,-0.20026971,-0.16618125,22.98,-15.66,-26.7
1554103093561,-7.9104424,-4.305373,3.9067385000000003,-0.92038846,-0.2034655,-0.18855181,22.92,-15.3,-26.82
1554103093582,-7.943961,-4.496909,4.256292,-0.94808537,-0.20772657,-0.21731395,22.8,-14.52,-27.0
1554103093601,-7.795521000000001,-4.7842135,4.3664255,-0.96619487,-0.19281286,-0.18429075,22.62,-13.74,-27.18
1554103093620,-7.8290396,-4.7698483,4.6537294000000005,-0.94595486,-0.16724652,-0.14061491,22.5,-13.38,-27.3
1554103093640,-7.7428484,-4.745906400000001,4.44304,-0.8522116,-0.1438107,-0.046871635999999994,22.02,-12.12,-27.54
1554103093661,-7.8290396,-4.6501384,4.1844660000000005,-0.7840345999999999,-0.13848437,0.017044231,21.72,-11.46,-27.54
1554103093681,-8.125919999999999,-4.717176,4.170100700000001,-0.73822826,-0.1438107,0.054328485999999995,21.42,-10.74,-27.6
1554103093700,-8.0924015,-4.894346700000001,4.040814,-0.7286409,-0.16937704,0.080960095,21.12,-10.14,-27.72
1554103093720,-7.967903,-5.085883,4.2610803,-0.68816084,-0.17789917,0.09267801,20.88,-9.54,-27.78
1554103093740,-7.953538000000001,-5.253476999999999,3.9594111000000005,-0.58909124,-0.17150758,0.09374327,20.64,-8.76,-27.84
1554103093761,-7.881711999999999,-5.286996,3.8349125,-0.52411014,-0.16192019,0.11717909,20.46,-7.74,-27.9
1554103093781,-7.714117999999999,-5.3779755,3.6673183,-0.46978164,-0.14913702,0.1438107,20.4,-6.84,-27.96
1554103093801,-7.699753,-5.4498014,3.5859156000000003,-0.4048005,-0.1438107,0.17470337,20.34,-6.0,-28.02
1554103093821,-7.6231384,-5.583876999999999,3.7870286,-0.35153726,-0.12996227,0.2066613,20.34,-5.1,-28.08
1554103093841,-7.551311999999999,-5.512050599999999,3.8013937000000007,-0.28442562,-0.1107875,0.23435818,20.34,-4.38,-28.14
1554103093860,-7.4842744,-5.6509147,3.7199910000000003,-0.17789917,-0.10226539,0.2727077,20.28,-3.72,-28.14
1554103093880,-7.4268136,-5.4641665999999995,3.6337996,-0.08948222,-0.098004326,0.28655612,20.28,-3.06,-28.2
1554103093901,-7.4363904000000005,-5.445012999999999,3.6242227999999996,-0.008522116,-0.10759171,0.30253512,20.22,-2.64,-28.26
1554103093920,-7.350199000000001,-5.3444567,3.8013937000000007,0.02130529,-0.096939065,0.3057309,20.16,-2.52,-28.32
1554103093940,-7.3310455999999995,-5.224746700000001,3.9881415000000002,0.084155895,-0.07350325,0.31212249999999997,20.16,-2.4,-28.38
1554103093960,-7.431602000000001,-5.0332108,3.7822402000000004,0.13954964,-0.06285059999999999,0.29294774,20.1,-2.28,-28.44
1554103093981,-7.489063000000001,-4.894346700000001,3.8301241000000004,0.16405073,-0.06498113,0.2695119,20.04,-2.16,-28.44
1554103094000,-7.5561004,-4.7506948,3.8492777,0.16724652,-0.06498113,0.25992453,20.04,-2.04,-28.5
1554103094021,-7.675811,-4.827309,4.0743327,0.17896444,-0.06711166,0.25246766,19.98,-1.98,-28.5
1554103094041,-7.7428484,-4.817732299999999,4.016872,0.2034655,-0.068176925,0.2428803,19.98,-2.04,-28.56
1554103094060,-7.8290396,-4.774636699999999,4.117428299999999,0.2609898,-0.05539375,0.21837921,19.98,-2.16,-28.68
1554103094080,-7.5704656,-4.6932339999999995,3.9594111000000005,0.29933932,-0.054328485999999995,0.17363810000000002,19.86,-2.34,-28.74
1554103094100,-7.4842744,-4.5352163,4.208408,0.30040458,-0.058589544,0.16405073,19.8,-2.52,-28.8
1554103094120,-7.5034279999999995,-4.425083,4.136582,0.29827404,-0.06604639400000001,0.17789917,19.74,-2.82,-28.92
1554103094141,-7.5034279999999995,-4.137779,4.361637,0.3174488,-0.07776430000000001,0.21198763,19.68,-3.12,-28.98
1554103094161,-7.517792999999999,-4.032433999999999,4.347272,0.35792887,-0.09587380000000001,0.23435818,19.56,-3.48,-29.1
1554103094180,-7.632714999999999,-3.9175123999999997,4.3281183,0.36005938,-0.11717909,0.23861924,19.5,-3.84,-29.22
1554103094201,-7.5082164,-4.109049,4.32333,0.3291667,-0.12357068,0.22796659,19.44,-4.2,-29.22
1554103094221,-7.465121000000001,-4.094683600000001,4.2036195,0.32277513,-0.12463594,0.20453078,19.38,-4.5,-29.28
1554103094241,-7.6135616,-4.061165,4.433463,0.36751625,-0.12357068,0.17470337,19.38,-4.86,-29.34
1554103094261,-7.584830800000001,-4.0084919999999995,4.44304,0.39414784,-0.12783173,0.16618125,19.32,-5.22,-29.4
1554103094281,-7.6135616,-4.0563765,4.56275,0.3536678,-0.11504856,0.18109496,19.38,-5.64,-29.46
1554103094301,-7.642291999999999,-3.9606082000000002,4.634576,0.34194988,-0.10226539,0.19174760000000002,19.38,-6.12,-29.46
1554103094320,-7.675811,-3.8935703999999998,4.7159786,0.36325517,-0.10546118,0.18642128,19.38,-6.72,-29.46
1554103094342,-7.493850999999999,-3.5535938999999996,4.409521,0.42077947,-0.12783173,0.19281286,19.38,-7.26,-29.52
1554103094361,-7.3789296,-3.3620577000000003,4.5148660000000005,0.47617322,-0.15126756,0.18535602,19.26,-7.86,-29.58
1554103094381,-7.335833999999999,-3.1226375,4.5340195,0.48363006,-0.14807177,0.17150758,19.14,-8.46,-29.64
1554103094401,-7.345411,-2.9215245,4.4526167,0.40053943,-0.13954964,0.15765914,18.9,-9.18,-29.76
1554103094421,-7.3645644,-3.031658,4.7255554,0.29933932,-0.14274544,0.113983296,18.6,-10.14,-29.82
1554103094441,-7.2448545,-3.0460230999999998,4.7830167,0.23968449999999997,-0.13422333,0.080960095,18.48,-10.44,-29.88
1554103094461,-7.192182000000001,-2.902371,4.8787847,0.18322548,-0.11717909,0.053263225,18.18,-10.98,-29.88
1554103094480,-7.249642999999999,-3.0508115,4.9218802,0.16405073,-0.099069595,0.029827405,17.94,-11.4,-29.88
1554103094501,-7.3166804,-2.8927941,4.854842700000001,0.16405073,-0.10226539,0.008522116,17.7,-11.88,-29.88
1554103094520,-7.1634517,-2.8592752999999997,5.060744000000001,0.15339808,-0.10226539,-0.018109497,17.46,-12.6,-29.82
1554103094540,-7.153875,-3.0364463,5.075108999999999,0.07989483,-0.080960095,-0.041545313,17.46,-12.96,-29.76
1554103094562,-7.2592196,-3.1082723,5.218761,0.037284255,-0.06498113,-0.054328485999999995,17.46,-13.08,-29.7
1554103094581,-7.2448545,-3.1130607000000006,5.237914599999999,0.013848438000000001,-0.041545313,-0.06285059999999999,17.4,-13.5,-29.64
1554103094602,-7.2592196,-3.0843303,5.209184,0.018109497,-0.04261058,-0.05539375,17.4,-13.62,-29.58
1554103094620,-7.3166804,-2.9550436,5.185242,0.043675844000000005,-0.04580637,-0.05965481,17.46,-13.86,-29.52
1554103094640,-7.326257000000001,-3.007716,5.122993,0.027696876000000002,-0.03834952,-0.06391586,17.46,-13.92,-29.58
1554103094660,-7.431602000000001,-3.007716,5.146935,-0.013848438000000001,-0.039414786,-0.06391586,17.46,-13.92,-29.58
1554103094682,-7.4124484,-3.1130607000000006,5.285799,-0.022370555,-0.03834952,-0.07563378,17.46,-13.98,-29.58
1554103094702,-7.369353,-3.2040405,5.333683000000001,-0.015978966,-0.035153727999999995,-0.07563378,17.46,-14.04,-29.58
1554103094721,-7.326257000000001,-3.117849,5.309741000000001,0.012783173500000002,0.007456851,-0.05539375,17.4,-14.04,-29.58
1554103094740,-7.369353,-3.0412347,5.113416,0.008522116,0.01917476,-0.056459017,17.4,-14.1,-29.58
1554103094761,-7.302314999999999,-3.151368,5.218761,-0.004261058,0.026631612000000002,-0.058589544,17.34,-14.16,-29.58
1554103094780,-7.2975270000000005,-3.117849,5.1900306,-0.011717908999999999,0.034088463,-0.06711166,17.34,-14.22,-29.58
1554103094800,-7.345411,-3.127426,5.065532,-0.0010652645,0.041545313,-0.07456851,17.28,-14.28,-29.58
1554103094820,-7.3789296,-3.1609447,5.01286,0.0010652645,0.04474111,-0.08628642,17.28,-14.46,-29.64
1554103094841,-7.268796400000001,-3.232771,5.185242,-0.008522116,0.046871635999999994,-0.08948222,17.28,-14.58,-29.64
1554103094860,-7.2592196,-3.4386723,4.926668599999999,-0.002130529,0.05539375,-0.08522116,17.22,-14.7,-29.64
1554103094880,-7.2448545,-3.3907879999999997,4.969764,0.012783173500000002,0.056459017,-0.08522116,17.22,-14.82,-29.7
1554103094901,-7.1155677,-3.3955764999999998,4.8739963,0.022370555,0.06178534,-0.09587380000000001,17.22,-14.94,-29.7
1554103094920,-7.091625,-3.3907879999999997,4.9458222,0.0053263223,0.06711166,-0.10865697,17.16,-15.06,-29.76
1554103094940,-7.105990400000001,-3.3141737,5.036802,-0.00958738,0.06924219,-0.13102753,17.16,-15.18,-29.76
1554103094960,-7.0102224,-3.3237504999999996,5.113416,-0.004261058,0.07882957,-0.16405073,17.16,-15.24,-29.82
1554103094980,-7.2304892999999995,-3.2471360000000002,5.228338,0.023435817999999997,0.07882957,-0.18429075,17.16,-15.18,-29.82
1554103095000,-7.240066000000001,-3.3716345000000003,5.194819,0.033023197000000004,0.07456851,-0.221575,17.16,-15.18,-29.82
1554103095020,-7.2304892999999995,-3.3237504999999996,5.252279799999999,0.03195793,0.07669904,-0.24714136,17.22,-15.12,-29.88
1554103095040,-7.3166804,-3.5679589999999997,5.156512,0.039414786,0.083090626,-0.27803403,17.22,-15.06,-29.82
1554103095060,-7.1969705,-3.4626143,5.213972599999999,0.053263225,0.08628642,-0.31212249999999997,17.28,-15.0,-29.82
1554103095081,-7.3214690000000004,-3.4434607,5.3049526,0.098004326,0.10013486,-0.34408042,17.34,-15.0,-29.82
1554103095100,-7.551311999999999,-3.4578260000000003,5.1613,0.13315806,0.12570119999999999,-0.37071204,17.4,-14.94,-29.76
1554103095120,-7.7093296,-3.5440169999999998,5.0559554,0.16724652,0.15552860000000002,-0.3898868,17.4,-14.94,-29.76
1554103095140,-7.843405000000001,-3.5248635000000004,5.142146599999999,0.18002969,0.16724652,-0.38882150000000004,17.4,-14.94,-29.76
1554103095160,-7.8625584,-3.840898,5.1038394,0.19174760000000002,0.18748654,-0.3653857,17.52,-14.94,-29.7
1554103095187,-7.824250999999999,-4.051588,5.04159,0.22050974,0.20026971,-0.3323625,17.58,-15.0,-29.7
1554103095200,-7.5369470000000005,-4.0276456,5.0798974,0.25672874,0.20026971,-0.31105720000000003,17.64,-15.0,-29.64
1554103095220,-7.431602000000001,-4.0420110000000005,5.0080714,0.32170987,0.19174760000000002,-0.26631612,17.76,-15.06,-29.64
1554103095240,-7.4699089999999995,-3.9653966,4.8165355000000005,0.350472,0.18322548,-0.23009712,17.94,-15.18,-29.58
1554103095260,-7.5034279999999995,-3.793014,4.797382,0.33875409999999995,0.17257284,-0.21837921,18.12,-15.42,-29.58
1554103095281,-7.517792999999999,-3.5966894999999997,4.706402,0.3057309,0.15765914,-0.20879184,18.3,-15.66,-29.46
1554103095300,-7.5608889999999995,-3.5679589999999997,4.7016134,0.2908172,0.13635385,-0.21198763,18.54,-16.14,-29.34
1554103095320,-7.4746976,-3.4721910000000005,4.696825,0.30360037,0.11930962,-0.22050974,18.72,-16.62,-29.16
1554103095340,-7.4603324,-3.4961330000000004,4.696825,0.32597092,0.11504856,-0.22370553,18.84,-17.1,-29.04
1554103095361,-7.551311999999999,-3.3907879999999997,4.672883000000001,0.3153183,0.111852765,-0.23116238,19.02,-17.58,-28.86
1554103095380,-7.589619,-3.5488055,4.835689,0.28122982,0.112918034,-0.23435818,19.08,-18.0,-28.74
1554103095400,-7.704541000000001,-3.7499184999999997,4.7542860000000005,0.27057716,0.10972224,-0.22583607,19.2,-18.36,-28.56
1554103095421,-7.5944076,-3.7355532999999994,4.821324,0.29933932,0.10013486,-0.21411815,19.26,-18.6,-28.38
1554103095441,-7.5082164,-3.6685154000000004,4.9027267,0.30360037,0.09267801,-0.21198763,19.44,-18.72,-28.26
1554103095460,-7.4363904000000005,-3.6541502,4.854842700000001,0.28336033,0.080960095,-0.19387813,19.62,-18.72,-28.26
1554103095480,-7.5800424,-3.7307648999999996,4.8261123,0.23009712,0.07137272,-0.17257284,19.86,-18.6,-28.2
1554103095501,-7.393294999999999,-3.5823242999999994,4.9218802,0.24074976,0.05219796,-0.16192019,20.04,-18.6,-28.14
1554103095520,-7.3166804,-3.4578260000000003,4.8404775,0.26312032,0.04580637,-0.14807177,20.22,-18.54,-28.08
1554103095540,-7.311891999999999,-3.2662897,4.8069587,0.23542345,0.029827405,-0.15020229,20.4,-18.72,-28.02
1554103095560,-7.3166804,-3.2902317,4.6680946,0.19707392,0.024501082,-0.15020229,20.52,-18.84,-27.96
1554103095580,-7.4603324,-3.3812113,4.7016134,0.16192019,0.023435817999999997,-0.15552860000000002,20.58,-18.9,-27.96
1554103095600,-7.4986396,-3.2615013,4.835689,0.14913702,0.024501082,-0.15978967,20.58,-19.02,-27.9
1554103095621,-7.513005000000001,-3.3045970000000002,4.6680946,0.15233281,0.033023197000000004,-0.14487597,20.58,-19.26,-27.84
1554103095640,-7.584830800000001,-3.2758665000000002,4.6441526,0.13528858,0.03834952,-0.13315806,20.58,-19.44,-27.78
1554103095660,-7.522581599999999,-3.3764230000000004,4.7925935,0.113983296,0.06711166,-0.12783173,20.58,-19.62,-27.66
1554103095680,-7.61835,-3.4482489999999997,4.6776714,0.08522116,0.08735169,-0.11930962,20.64,-19.86,-27.54
1554103095700,-7.5704656,-3.4338839999999995,4.9027267,0.068176925,0.09587380000000001,-0.10439592,20.7,-19.98,-27.36
1554103095721,-7.5704656,-3.5392287000000002,5.0463786,0.07456851,0.096939065,-0.094808534,20.7,-20.1,-27.24
1554103095740,-7.589619,-3.6302083,5.0320134,0.094808534,0.101200126,-0.084155895,20.76,-20.22,-27.12
1554103095760,-7.422025,-3.5535938999999996,5.266645,0.12250541,0.10439592,-0.07776430000000001,20.76,-20.34,-27.0
1554103095780,-7.417236999999999,-3.4386723,5.252279799999999,0.15233281,0.1107875,-0.08948222,20.82,-20.52,-26.88
1554103095800,-7.455544000000001,-3.4434607,5.146935,0.16618125,0.111852765,-0.098004326,20.82,-20.64,-26.76
1554103095820,-7.5321584,-3.3764230000000004,5.0511669999999995,0.15978967,0.09587380000000001,-0.10546118,20.88,-20.7,-26.7
1554103095841,-7.4842744,-3.3381157,5.151723400000001,0.14274544,0.07243799,-0.11824436,20.94,-20.76,-26.64
1554103095861,-7.5082164,-3.4338839999999995,5.075108999999999,0.15339808,0.053263225,-0.12357068,21.0,-20.76,-26.64
1554103095880,-7.6231384,-3.3524809999999996,4.9937059999999995,0.18535602,0.026631612000000002,-0.13209279,21.06,-20.76,-26.7
1554103095901,-7.61835,-3.4386723,4.9984946,0.20559604,0.0010652645,-0.15020229,21.12,-20.76,-26.64
1554103095920,-7.5321584,-3.4338839999999995,4.8069587,0.20240025,-0.015978966,-0.15765914,21.18,-20.76,-26.64
1554103095940,-7.5082164,-3.481768,4.7878050000000005,0.18429075,-0.026631612000000002,-0.15659387,21.24,-20.76,-26.58
1554103095961,-7.5608889999999995,-3.639785,4.9841294000000005,0.19174760000000002,-0.03195793,-0.14807177,21.36,-20.76,-26.52
1554103095980,-7.489063000000001,-3.5488055,4.8452660000000005,0.2034655,-0.01917476,-0.13528858,21.42,-20.76,-26.52
1554103096000,-7.3071036,-3.5871127,4.8021703,0.21518342,0.0,-0.11824436,21.6,-20.88,-26.46
1554103096020,-7.359775999999999,-3.5488055,4.8452660000000005,0.16618125,0.03089267,-0.099069595,21.72,-20.94,-26.4
1554103096040,-7.465121000000001,-3.6254199000000003,4.9027267,0.11611383,0.054328485999999995,-0.08628642,21.84,-21.06,-26.34
1554103096060,-7.422025,-3.6780925000000004,4.955399,0.10865697,0.07137272,-0.08522116,21.9,-21.18,-26.28
1554103096080,-7.2975270000000005,-3.6110547,4.960187400000001,0.12357068,0.07776430000000001,-0.08628642,22.02,-21.3,-26.28
1554103096100,-7.254431200000001,-3.615843,5.0080714,0.12676647,0.09161274,-0.10333065,22.08,-21.48,-26.22
1554103096120,-7.302314999999999,-3.5823242999999994,4.9506106,0.12144015,0.094808534,-0.10759171,22.08,-21.66,-26.16
1554103096140,-7.350199000000001,-3.5727474999999997,4.979341000000001,0.10013486,0.094808534,-0.10439592,22.02,-21.84,-26.16
1554103096160,-7.278373200000001,-3.4338839999999995,5.142146599999999,0.09054748,0.083090626,-0.11717909,22.02,-21.96,-26.1
1554103096181,-7.1873937,-3.4099417,5.242703,0.10865697,0.06498113,-0.13422333,21.96,-22.08,-26.1
1554103096200,-7.168239999999999,-3.3764230000000004,5.1900306,0.14274544,0.05219796,-0.1470065,21.96,-22.2,-26.04
1554103096220,-7.086836999999999,-3.4003648999999996,5.276222,0.17257284,0.05965481,-0.17363810000000002,22.02,-22.32,-26.04
1554103096240,-7.043741000000001,-3.4290953,5.099051,0.22050974,0.07350325,-0.1949434,22.02,-22.38,-25.98
1554103096260,-7.0006455999999995,-3.3812113,4.941033999999999,0.23648871,0.083090626,-0.22690132,22.14,-22.56,-25.98
1554103096281,-6.933608,-3.5440169999999998,4.9506106,0.18109496,0.07137272,-0.25140239999999997,22.2,-22.8,-25.92
1554103096300,-7.043741000000001,-3.6876693,4.9027267,0.13528858,0.049002163,-0.2545982,22.26,-23.1,-25.74
1554103096320,-7.0245875999999985,-3.793014,4.9506106,0.1470065,0.03089267,-0.25246766,22.32,-23.46,-25.56
1554103096340,-7.110779300000001,-3.7882257000000004,5.0224366,0.18216023,0.01917476,-0.23648871,22.44,-23.88,-25.38
1554103096361,-7.2209125,-3.6780925000000004,4.7494974,0.17576863,0.011717908999999999,-0.23329292,22.44,-24.24,-25.2
1554103096380,-7.3645644,-3.639785,4.854842700000001,0.12144015,0.0031957934000000003,-0.23009712,22.44,-24.6,-24.96
1554103096400,-7.369353,-3.7163997,4.9027267,0.07243799,-0.0010652645,-0.22370553,22.44,-24.96,-24.78
1554103096421,-7.575253999999999,-3.6302083,5.0798974,0.07456851,-0.0063915867,-0.21837921,22.44,-25.2,-24.54
1554103096440,-7.4603324,-3.6589386,4.979341000000001,0.07563378,-0.014913702,-0.1949434,22.44,-25.38,-24.42
1554103096460,-7.4699089999999995,-3.6637269999999997,4.941033999999999,0.080960095,-0.01917476,-0.16298546,22.44,-25.44,-24.42
1554103096480,-7.565677,-3.6014779000000003,4.960187400000001,0.07669904,-0.017044231,-0.1438107,22.44,-25.5,-24.42
1554103096501,-7.4268136,-3.5392287000000002,4.830900700000001,0.06285059999999999,-0.014913702,-0.12463594,22.44,-25.5,-24.42
1554103096520,-7.541735000000001,-3.4147300000000005,4.955399,0.036218993,-0.002130529,-0.10972224,22.44,-25.5,-24.48
1554103096540,-7.493850999999999,-3.5248635000000004,5.1613,0.018109497,0.008522116,-0.09374327,22.5,-25.44,-24.54
1554103096560,-7.455544000000001,-3.5152867,4.8261123,0.0053263223,0.022370555,-0.082025364,22.5,-25.44,-24.54
1554103096580,-7.407660000000001,-3.6062663,4.8739963,-0.0063915867,0.035153727999999995,-0.080960095,22.5,-25.38,-24.48
1554103096600,-7.417236999999999,-3.520075,4.759074,-0.010652645,0.043675844000000005,-0.09161274,22.56,-25.38,-24.42
1554103096620,-7.335833999999999,-3.6110547,4.7782279999999995,-0.024501082,0.05006743,-0.10865697,22.56,-25.38,-24.36
1554103096640,-7.273585000000001,-3.5488055,5.027225,-0.05219796,0.046871635999999994,-0.11824436,22.56,-25.32,-24.3
1554103096660,-7.101202000000001,-3.7834373,4.9458222,-0.06498113,0.036218993,-0.113983296,22.56,-25.32,-24.24
1554103096681,-7.067683000000001,-3.7403417,4.936245400000001,-0.068176925,0.020240024,-0.113983296,22.56,-25.32,-24.3
1554103096700,-7.1155677,-3.8025907999999995,5.2474914,-0.07137272,0.0053263223,-0.12463594,22.56,-25.32,-24.36
1554103096720,-7.067683000000001,-3.8265328000000003,5.233126,-0.058589544,-0.01917476,-0.13422333,22.62,-25.32,-24.42
1554103096740,-6.924031299999999,-3.7307648999999996,5.252279799999999,-0.05965481,-0.037284255,-0.13954964,22.62,-25.38,-24.54
1554103096761,-6.9671270000000005,-3.86484,5.429451,-0.07456851,-0.046871635999999994,-0.12250541,22.62,-25.38,-24.66
1554103096780,-7.0341644,-3.9414546,5.367202,-0.07243799,-0.03834952,-0.11930962,22.62,-25.44,-24.72
1554103096800,-7.0245875999999985,-3.8265328000000003,5.295376,-0.051132694000000006,-0.037284255,-0.12996227,22.56,-25.44,-24.84
1554103096820,-6.9671270000000005,-3.793014,5.501277,-0.023435817999999997,-0.018109497,-0.14061491,22.56,-25.44,-24.9
1554103096841,-6.9048777,-3.9175123999999997,5.501277,-0.020240024,0.024501082,-0.14061491,22.5,-25.44,-24.84
1554103096860,-6.871359,-3.888782,5.515642,-0.015978966,0.07030745599999999,-0.16085494,22.5,-25.44,-24.84
1554103096880,-7.134721300000001,-3.9270894999999997,5.462969999999999,-0.0031957934000000003,0.12357068,-0.19813919,22.44,-25.44,-24.84
1554103096900,-7.201759,-3.9223008000000004,5.37199,0.008522116,0.15765914,-0.21731395,22.38,-25.44,-24.78
1554103096920,-7.2113357,-3.9031472000000003,5.3288946,0.03195793,0.18322548,-0.2034655,22.38,-25.44,-24.72
1554103096940,-7.278373200000001,-4.0755300000000005,5.3863554,0.07350325,0.19281286,-0.18429075,22.32,-25.44,-24.6
1554103096961,-7.3071036,-3.8361096,5.137358,0.13528858,0.19387813,-0.16724652,22.38,-25.44,-24.54
1554103096980,-7.3406224,-3.7355532999999994,4.6297874000000006,0.15339808,0.19387813,-0.1587244,22.44,-25.44,-24.42
1554103097000,-7.642291999999999,-3.7259765,4.586692,0.08841695,0.17789917,-0.15446335,22.56,-25.44,-24.3
1554103097020,-7.6135616,-3.9079356,4.634576,0.010652645,0.13528858,-0.15446335,22.74,-25.44,-24.12
1554103097041,-7.517792999999999,-3.9845502,4.7255554,-0.007456851,0.07776430000000001,-0.15126756,22.92,-25.38,-23.94
1554103097060,-7.3789296,-4.0420110000000005,4.7207669999999995,0.047936900000000005,0.01917476,-0.14913702,23.1,-25.2,-23.88
1554103097080,-7.2640080000000005,-4.0037036,4.8069587,0.13635385,-0.020240024,-0.13528858,23.28,-24.78,-23.76
1554103097101,-7.4603324,-4.022857,4.6776714,0.13102753,-0.05006743,-0.12357068,23.52,-24.3,-23.7
1554103097120,-7.374141000000001,-3.9893386,4.969764,0.07350325,-0.07350325,-0.10865697,23.7,-23.7,-23.58
1554103097140,-7.302314999999999,-4.123414,4.821324,0.06391586,-0.08948222,-0.10226539,23.82,-23.16,-23.52
1554103097161,-7.153875,-4.147355999999999,4.8021703,0.07243799,-0.096939065,-0.10759171,23.88,-22.62,-23.52
1554103097180,-7.326257000000001,-4.0803185,5.089474,0.08841695,-0.10439592,-0.13315806,24.06,-22.14,-23.52
1554103097200,-7.268796400000001,-4.0803185,5.122993,0.112918034,-0.11930962,-0.14274544,24.24,-21.66,-23.52
1554103097220,-7.120356,-4.137779,5.0224366,0.14061491,-0.12144015,-0.16298546,24.54,-21.3,-23.52
1554103097240,-7.249642999999999,-4.065953299999999,4.859630999999999,0.14061491,-0.11824436,-0.1768339,24.78,-21.12,-23.52
1554103097260,-7.077260000000001,-4.200028400000001,4.8739963,0.13102753,-0.11824436,-0.18855181,25.02,-21.0,-23.46
1554103097281,-6.991069,-4.085107,4.9027267,0.13209279,-0.10439592,-0.1768339,25.26,-20.94,-23.46
1554103097301,-6.9288197,-3.9989154,4.9841294000000005,0.13635385,-0.07882957,-0.15978967,25.44,-20.82,-23.46
1554103097320,-7.043741000000001,-3.9893386,4.941033999999999,0.10546118,-0.06604639400000001,-0.15659387,25.62,-20.64,-23.46
1554103097340,-6.9767036,-3.9653966,5.1613,0.03834952,-0.054328485999999995,-0.14061491,25.8,-20.52,-23.46
1554103097361,-7.005433999999999,-3.9318779000000004,5.0559554,0.025566347000000003,-0.043675844000000005,-0.10652645,25.86,-20.34,-23.46
1554103097380,-7.091625,-3.7355532999999994,5.1900306,0.022370555,-0.029827405,-0.054328485999999995,25.8,-20.16,-23.46
1554103097401,-7.1873937,-3.6828809000000002,5.156512,0.020240024,-0.022370555,-0.018109497,25.74,-20.04,-23.52
1554103097420,-7.3214690000000004,-3.5871127,5.1660886,0.01917476,-0.014913702,0.004261058,25.74,-19.92,-23.58
1554103097440,-7.3071036,-3.4530375,5.151723400000001,-0.02130529,-0.015978966,0.029827405,25.74,-19.92,-23.64
1554103097460,-7.3885064,-3.6637269999999997,5.34326,-0.07882957,-0.024501082,0.046871635999999994,25.8,-19.92,-23.7
1554103097481,-7.2640080000000005,-3.7259765,5.209184,-0.083090626,-0.035153727999999995,0.05539375,25.8,-19.98,-23.76
1554103097500,-7.216124000000001,-3.7786489000000003,5.099051,-0.06285059999999999,-0.04261058,0.06285059999999999,25.86,-19.98,-23.76
1554103097521,-7.2113357,-3.8025907999999995,5.194819,-0.051132694000000006,-0.056459017,0.06924219,25.92,-19.92,-23.76
1554103097541,-7.2352777,-3.6780925000000004,5.1086279999999995,-0.07243799,-0.07776430000000001,0.082025364,25.92,-19.8,-23.76
1554103097561,-7.1634517,-3.8935703999999998,5.185242,-0.09161274,-0.09267801,0.10972224,25.8,-19.74,-23.76
1554103097581,-7.153875,-4.0084919999999995,5.333683000000001,-0.096939065,-0.098004326,0.10972224,25.74,-19.62,-23.7
1554103097601,-6.991069,-4.0420110000000005,5.510854,-0.07456851,-0.098004326,0.099069595,25.62,-19.5,-23.64
1554103097621,-6.9527617,-4.1904516,5.462969999999999,-0.037284255,-0.09267801,0.083090626,25.5,-19.38,-23.64
1554103097641,-6.9958572,-4.223970400000001,5.4342394,-0.02876214,-0.08948222,0.06604639400000001,25.38,-19.32,-23.7
1554103097661,-6.9527617,-4.1425676,5.458181400000001,-0.037284255,-0.09054748,0.051132694000000006,25.26,-19.26,-23.76
1554103097681,-6.789956,-4.171298,5.429451,-0.035153727999999995,-0.09374327,0.034088463,25.14,-19.2,-23.82
1554103097701,-6.8522053,-4.0803185,5.539584,-0.0010652645,-0.10333065,0.029827405,25.02,-19.26,-23.88
1554103097721,-6.9144545,-4.0755300000000005,5.597045,0.03834952,-0.10972224,0.034088463,25.02,-19.26,-24.0
1554103097741,-6.8330517,-4.152144399999999,5.3624134,0.06391586,-0.10226539,0.034088463,24.96,-19.32,-24.12
1554103097760,-6.900089299999999,-4.065953299999999,5.213972599999999,0.07030745599999999,-0.09374327,0.035153727999999995,24.96,-19.38,-24.18
1554103097781,-7.043741000000001,-3.9510313999999997,5.185242,0.05219796,-0.083090626,0.04474111,24.84,-19.38,-24.24
1554103097800,-7.144297999999999,-3.9318779000000004,5.257068,0.034088463,-0.06924219,0.056459017,24.78,-19.38,-24.3
1554103097820,-7.3166804,-3.946243,5.252279799999999,0.034088463,-0.054328485999999995,0.06178534,24.66,-19.38,-24.36
1554103097841,-7.134721300000001,-3.8935703999999998,5.3624134,0.049002163,-0.04474111,0.07563378,24.54,-19.38,-24.42
1554103097861,-7.091625,-3.840898,5.276222,0.047936900000000005,-0.036218993,0.09267801,24.48,-19.44,-24.42
1554103097881,-7.091625,-3.9079356,5.2474914,0.040480047000000005,-0.027696876000000002,0.112918034,24.42,-19.5,-24.42
1554103097900,-7.0724716,-3.7738605000000005,5.4964886,0.046871635999999994,-0.018109497,0.12037488,24.42,-19.62,-24.42
1554103097921,-7.0245875999999985,-3.7403417,5.285799,0.040480047000000005,-0.01917476,0.12463594,24.36,-19.74,-24.36
1554103097940,-6.9671270000000005,-3.6637269999999997,5.3384714,0.053263225,-0.027696876000000002,0.10865697,24.36,-19.92,-24.3
1554103097961,-6.991069,-3.5823242999999994,5.151723400000001,0.058589544,-0.029827405,0.084155895,24.36,-20.1,-24.3
1554103097981,-7.005433999999999,-3.5823242999999994,5.462969999999999,0.024501082,-0.03089267,0.07563378,24.36,-20.28,-24.24
1554103098000,-6.9862804,-3.6780925000000004,5.300164,0.004261058,-0.029827405,0.05965481,24.3,-20.46,-24.18
1554103098020,-6.9288197,-3.7355532999999994,5.4007206,-0.011717908999999999,-0.029827405,0.029827405,24.3,-20.58,-24.18
1554103098040,-6.871359,-3.7355532999999994,5.506065400000001,-0.017044231,-0.026631612000000002,0.00958738,24.3,-20.76,-24.24
1554103098060,-6.828263300000001,-3.8025907999999995,5.539584,0.0010652645,-0.03089267,-0.011717908999999999,24.24,-20.94,-24.24
1554103098081,-6.8761472999999995,-3.8696284,5.573103,0.020240024,-0.03195793,-0.013848438000000001,24.24,-21.0,-24.3
1554103098101,-6.8186865,-3.888782,5.5922565,0.04474111,-0.015978966,-0.002130529,24.18,-21.06,-24.3
1554103098121,-6.8091097000000005,-3.8935703999999998,5.4390279999999995,0.05752428,-0.004261058,0.007456851,24.12,-21.12,-24.36
1554103098141,-6.895301,-3.5392287000000002,5.3624134,0.06391586,0.004261058,0.002130529,24.06,-21.18,-24.36
1554103098161,-6.9623384,-3.5966894999999997,5.4055089999999995,-0.008522116,0.010652645,0.010652645,23.94,-21.18,-24.42
1554103098181,-6.95755,-3.8121676,5.4007206,-0.07030745599999999,0.022370555,0.00958738,23.82,-21.24,-24.54
1554103098201,-6.9144545,-3.8265328000000003,5.539584,-0.04474111,0.03195793,0.010652645,23.7,-21.3,-24.6
1554103098220,-6.95755,-3.6206315000000004,5.213972599999999,0.047936900000000005,0.034088463,0.010652645,23.64,-21.3,-24.66
1554103098241,-7.0485296,-3.6206315000000004,5.348048,0.07456851,0.034088463,0.0010652645,23.52,-21.42,-24.72
1554103098260,-6.9527617,-3.5248635000000004,5.113416,0.049002163,0.029827405,-0.010652645,23.46,-21.48,-24.78
1554103098281,-6.9719152,-3.6302083,5.237914599999999,0.05539375,0.01917476,-0.007456851,23.34,-21.54,-24.84
1554103098300,-6.991069,-3.5009214999999996,5.4007206,0.07989483,0.014913702,-0.02130529,23.34,-21.66,-24.9
1554103098320,-6.924031299999999,-3.6637269999999997,5.319318,0.07776430000000001,0.017044231,-0.026631612000000002,23.34,-21.72,-24.96
1554103098340,-7.053317999999999,-3.4578260000000003,5.3528366,0.05539375,0.020240024,-0.03195793,23.34,-21.78,-24.9
1554103098360,-6.9958572,-3.520075,5.233126,0.043675844000000005,0.014913702,-0.04261058,23.4,-21.78,-24.9
1554103098381,-7.0581064,-3.5535938999999996,5.3624134,0.04580637,0.011717908999999999,-0.04580637,23.46,-21.78,-24.9
1554103098401,-7.153875,-3.5392287000000002,5.4007206,0.06178534,0.0031957934000000003,-0.046871635999999994,23.46,-21.72,-24.9
1554103098421,-7.029375999999999,-3.5440169999999998,5.34326,0.056459017,-0.0031957934000000003,-0.047936900000000005,23.52,-21.72,-24.9
1554103098441,-7.125144500000001,-3.4434607,5.2618566,0.04474111,-0.004261058,-0.05539375,23.58,-21.72,-24.9
1554103098461,-7.144297999999999,-3.6254199000000003,5.2618566,0.037284255,0.0,-0.047936900000000005,23.64,-21.66,-24.96
1554103098481,-7.1873937,-3.5248635000000004,5.319318,0.024501082,-0.012783173500000002,-0.03834952,23.76,-21.72,-24.96
1554103098501,-7.0724716,-3.5727474999999997,5.3863554,0.0053263223,-0.025566347000000003,-0.02876214,23.82,-21.72,-24.96
1554103098521,-7.0341644,-3.6254199000000003,5.568314599999999,0.029827405,-0.020240024,-0.020240024,23.82,-21.78,-24.96
1554103098540,-7.2065472999999995,-3.4147300000000005,5.415086,0.06924219,-0.008522116,-0.012783173500000002,23.76,-21.84,-24.9
1554103098560,-7.201759,-3.5440169999999998,5.3528366,0.06178534,-0.011717908999999999,-0.0053263223,23.76,-21.84,-24.84
1554103098580,-7.2448545,-3.5727474999999997,5.482123400000001,0.06285059999999999,-0.026631612000000002,-0.022370555,23.7,-21.84,-24.78
1554103098601,-7.2304892999999995,-3.6110547,5.6784476999999995,0.06924219,-0.034088463,-0.01917476,23.64,-21.9,-24.72
1554103098620,-7.2065472999999995,-3.74513,5.692813,0.11824436,-0.015978966,0.008522116,23.58,-21.9,-24.6
1554103098641,-7.2927384,-3.4961330000000004,5.539584,0.2066613,-0.01917476,0.047936900000000005,23.46,-21.96,-24.54
1554103098660,-7.2352777,-3.3955764999999998,5.443816,0.2066613,-0.036218993,0.05752428,23.4,-22.02,-24.48
1554103098680,-7.3071036,-3.3716345000000003,5.7454852999999995,0.16192019,-0.034088463,0.06178534,23.4,-22.14,-24.48
1554103098702,-7.2448545,-3.2758665000000002,5.635351999999999,0.13635385,-0.02130529,0.10652645,23.46,-22.26,-24.48
1554103098721,-7.1155677,-3.2615013,5.453393,0.15978967,-0.027696876000000002,0.113983296,23.46,-22.38,-24.48
1554103098740,-7.1634517,-2.9933507,5.458181400000001,0.1107875,-0.03195793,0.11611383,23.52,-22.56,-24.48
1554103098760,-7.120356,-3.0843303,5.4917,0.111852765,-0.029827405,0.10865697,23.52,-22.74,-24.48
1554103098780,-7.134721300000001,-3.151368,5.544372599999999,0.060720075,-0.033023197000000004,0.10652645,23.52,-22.98,-24.42
1554103098800,-6.9958572,-3.0891187,5.515642,0.06604639400000001,-0.036218993,0.10226539,23.58,-23.22,-24.36
1554103098820,-6.9383965,-2.9789855,5.486912,0.056459017,-0.04580637,0.084155895,23.58,-23.4,-24.3
1554103098847,-6.9144545,-3.0651767000000003,5.587468,0.037284255,-0.025566347000000003,0.083090626,23.58,-23.58,-24.24
1554103098861,-7.1155677,-3.0412347,5.568314599999999,0.018109497,-0.014913702,0.08735169,23.58,-23.82,-24.18
1554103098880,-7.0102224,-3.007716,5.4102974,0.010652645,-0.018109497,0.07882957,23.52,-24.06,-24.12
1554103098901,-6.981492,-2.9406781000000004,5.5347957999999995,0.035153727999999995,-0.024501082,0.047936900000000005,23.52,-24.3,-24.06
1554103098920,-7.067683000000001,-3.0364463,5.443816,0.05539375,-0.024501082,0.05752428,23.46,-24.6,-24.12
1554103098941,-6.981492,-2.9311013,5.606621700000001,0.018109497,-0.018109497,0.06178534,23.46,-24.78,-24.12
1554103098961,-6.9767036,-2.9311013,5.5826797,0.035153727999999995,-0.014913702,0.03834952,23.4,-24.96,-24.12
1554103098980,-7.168239999999999,-2.8449101000000003,5.3863554,0.023435817999999997,-0.02130529,0.029827405,23.28,-25.08,-24.18
1554103099005,-7.201759,-2.8161798,5.458181400000001,-0.024501082,-0.04474111,0.04474111,23.16,-25.2,-24.18
1554103099020,-7.2113357,-2.8496985,5.486912,-0.03834952,-0.043675844000000005,0.012783173500000002,23.04,-25.32,-24.24
1554103099040,-7.273585000000001,-3.1082723,5.4964886,-0.06391586,-0.04474111,0.0031957934000000003,22.92,-25.38,-24.24
1554103099061,-7.1730285,-2.959832,5.6784476999999995,-0.14594123,-0.049002163,0.022370555,22.74,-25.38,-24.24
1554103099080,-7.2304892999999995,-3.1226375,5.659294,-0.08735169,-0.054328485999999995,0.014913702,22.68,-25.38,-24.24
1554103099101,-7.3310455999999995,-2.9550436,5.458181400000001,0.018109497,-0.07350325,0.0053263223,22.56,-25.32,-24.3
1554103099120,-7.240066000000001,-2.8880057,5.606621700000001,0.09267801,-0.08628642,0.0031957934000000003,22.5,-25.32,-24.3
1554103099141,-7.134721300000001,-2.8592752999999997,5.7502737,0.08948222,-0.07456851,-0.013848438000000001,22.56,-25.32,-24.3
1554103099161,-7.1873937,-2.9311013,5.812523400000001,0.07456851,-0.06604639400000001,0.0,22.5,-25.32,-24.3
1554103099180,-7.177817,-2.902371,5.8604074,0.09587380000000001,-0.06285059999999999,0.0063915867,22.56,-25.32,-24.36
1554103099200,-7.0581064,-2.7299886000000004,5.846042,0.10333065,-0.05965481,0.014913702,22.56,-25.32,-24.36
1554103099221,-7.0341644,-2.7682957999999998,5.802946599999999,0.08948222,-0.047936900000000005,0.002130529,22.56,-25.38,-24.42
1554103099241,-7.005433999999999,-2.7443538,5.5204306,0.03089267,-0.04474111,-0.017044231,22.56,-25.44,-24.48
1554103099260,-7.134721300000001,-2.7539306,5.831677,-0.049002163,-0.037284255,-0.017044231,22.5,-25.5,-24.48
1554103099280,-6.9862804,-2.8832173,5.994482499999999,-0.084155895,-0.034088463,-0.0031957934000000003,22.44,-25.5,-24.6
1554103099301,-7.0820484,-3.0843303,5.8221,-0.051132694000000006,-0.040480047000000005,0.004261058,22.38,-25.56,-24.66
1554103099321,-7.120356,-2.8353333,6.071097,-0.012783173500000002,-0.035153727999999995,0.014913702,22.26,-25.62,-24.78
1554103099341,-7.077260000000001,-2.7587189999999997,5.740697,0.03089267,-0.04261058,0.010652645,22.14,-25.68,-24.9
1554103099361,-7.101202000000001,-2.8449101000000003,5.8987145,0.023435817999999997,-0.05006743,-0.013848438000000001,22.02,-25.68,-24.96
1554103099381,-7.2304892999999995,-3.0125043,5.8604074,-0.039414786,-0.03834952,0.0053263223,21.96,-25.68,-24.96
1554103099400,-6.9862804,-3.0651767000000003,5.831677,-0.027696876000000002,-0.024501082,0.023435817999999997,21.84,-25.68,-24.96
1554103099421,-7.062895,-2.9550436,5.9705405,0.012783173500000002,-0.02130529,0.033023197000000004,21.78,-25.68,-24.96
1554103099441,-7.053317999999999,-2.8880057,5.999271,0.049002163,-0.0010652645,0.049002163,21.72,-25.74,-24.96
1554103099460,-7.019799000000001,-2.7778726000000002,5.6880245,0.058589544,0.02130529,0.05539375,21.72,-25.74,-24.96
1554103099481,-7.015011,-2.6868927000000005,5.6784476999999995,0.0,0.020240024,0.060720075,21.72,-25.74,-24.9
1554103099501,-7.005433999999999,-2.9550436,5.6545057,-0.049002163,0.012783173500000002,0.035153727999999995,21.72,-25.86,-24.9
1554103099521,-6.9671270000000005,-2.8592752999999997,5.951387,-0.02130529,0.008522116,0.03089267,21.72,-25.98,-24.84
1554103099542,-6.924031299999999,-2.8018146,5.8221,0.06924219,0.0031957934000000003,0.035153727999999995,21.72,-26.16,-24.9
1554103099561,-7.0245875999999985,-2.5863364,5.7263317,0.07669904,0.0053263223,0.0063915867,21.66,-26.4,-24.9
1554103099581,-7.0006455999999995,-2.629432,5.7933699999999995,0.014913702,0.020240024,0.008522116,21.66,-26.46,-24.9
1554103099601,-7.1395097000000005,-2.6198552000000004,5.510854,-0.024501082,0.013848438000000001,0.0,21.6,-26.58,-24.9
1554103099620,-7.2448545,-2.7778726000000002,5.8412538,-0.012783173500000002,-0.004261058,-0.017044231,21.6,-26.7,-24.9
1554103099642,-7.019799000000001,-2.6916811000000003,5.8651957999999995,0.05539375,-0.01917476,-0.023435817999999997,21.54,-26.88,-24.9
1554103099661,-6.933608,-2.710835,5.644929,0.07456851,-0.0053263223,-0.025566347000000003,21.48,-26.88,-24.84
1554103099681,-6.9719152,-2.581548,5.6401405,0.06711166,0.017044231,-0.025566347000000003,21.42,-26.88,-24.84
1554103099701,-7.038953,-2.6102784,5.61141,0.06604639400000001,0.026631612000000002,-0.024501082,21.42,-26.88,-24.84
1554103099721,-7.0102224,-2.5959132,5.740697,0.051132694000000006,0.03089267,-0.036218993,21.42,-26.94,-24.78
1554103099741,-7.091625,-2.6150667999999997,5.7933699999999995,0.051132694000000006,0.035153727999999995,-0.046871635999999994,21.42,-27.0,-24.78
1554103099761,-7.0485296,-2.5623944,5.644929,0.05219796,0.041545313,-0.04580637,21.42,-27.12,-24.78
1554103099781,-7.1969705,-2.6007016,5.568314599999999,0.06178534,0.029827405,-0.05006743,21.42,-27.18,-24.78
1554103099801,-7.144297999999999,-2.6629508,5.549161,0.07030745599999999,0.02130529,-0.06604639400000001,21.36,-27.18,-24.78
1554103099821,-7.1969705,-2.7443538,5.7502737,0.037284255,0.014913702,-0.06711166,21.36,-27.24,-24.78
1554103099841,-7.177817,-2.8353333,5.893926,0.03834952,0.022370555,-0.054328485999999995,21.36,-27.3,-24.78
1554103099861,-7.0245875999999985,-2.6964695,5.6976013,0.037284255,0.036218993,-0.035153727999999995,21.36,-27.3,-24.78
1554103099880,-6.9958572,-2.629432,5.6640825,0.022370555,0.025566347000000003,-0.026631612000000002,21.36,-27.3,-24.78
1554103099901,-7.3214690000000004,-2.6102784,5.6784476999999995,0.025566347000000003,0.002130529,-0.047936900000000005,21.36,-27.3,-24.78
1554103099920,-7.254431200000001,-2.7443538,5.6401405,0.010652645,-0.024501082,-0.053263225,21.36,-27.36,-24.72
1554103099940,-7.278373200000001,-2.7347770000000002,6.1381345000000005,0.037284255,-0.036218993,-0.060720075,21.36,-27.54,-24.72
1554103099961,-7.268796400000001,-2.7491422,5.8651957999999995,0.05539375,-0.007456851,-0.05006743,21.36,-27.72,-24.72
1554103099980,-7.1730285,-2.5767596,6.0327897,0.0010652645,0.0,-0.017044231,21.36,-27.96,-24.66
1554103100001,-7.129933,-2.6102784,5.7598505,0.0,0.004261058,-0.027696876000000002,21.36,-28.26,-24.66
1554103100020,-7.465121000000001,-2.6437972000000003,5.6880245,-0.027696876000000002,-0.004261058,-0.03089267,21.36,-28.56,-24.66
1554103100040,-7.383717999999999,-2.6342204,5.802946599999999,0.0031957934000000003,-0.012783173500000002,-0.01917476,21.42,-28.86,-24.66
1554103100061,-7.2831616,-2.6437972000000003,5.927445,0.053263225,-0.00958738,-0.035153727999999995,21.36,-29.16,-24.66
1554103100080,-7.2640080000000005,-2.3756466,5.635351999999999,0.056459017,0.0,-0.027696876000000002,21.42,-29.34,-24.66
1554103100101,-7.177817,-2.6533740000000003,5.960963700000001,0.025566347000000003,0.002130529,-0.008522116,21.42,-29.46,-24.66
1554103100120,-7.120356,-2.5480292,5.7598505,-0.056459017,0.004261058,-0.017044231,21.42,-29.58,-24.6
1554103100140,-7.2113357,-2.6677392,5.740697,-0.080960095,-0.002130529,0.004261058,21.42,-29.52,-24.6
1554103100160,-7.134721300000001,-2.4762032000000005,5.740697,-0.056459017,-0.020240024,-0.00958738,21.42,-29.28,-24.6
1554103100181,-7.038953,-2.7682957999999998,5.6545057,-0.036218993,-0.04474111,-0.029827405,21.42,-29.16,-24.6
1554103100200,-7.249642999999999,-2.7587189999999997,5.9226565,0.058589544,-0.051132694000000006,-0.05006743,21.42,-29.04,-24.54
1554103100221,-7.029375999999999,-2.5767596,6.1381345000000005,0.11504856,-0.05006743,-0.04580637,21.48,-28.86,-24.54
1554103100240,-7.177817,-2.6868927000000005,5.692813,0.13102753,-0.01917476,-0.039414786,21.48,-28.68,-24.54
1554103100261,-7.1826053,-2.5480292,5.692813,0.083090626,-0.00958738,-0.011717908999999999,21.48,-28.5,-24.48
1554103100280,-7.2352777,-2.6150667999999997,5.6018333,0.054328485999999995,-0.015978966,-0.0031957934000000003,21.48,-28.44,-24.48
1554103100301,-7.1969705,-2.5911248,5.951387,0.043675844000000005,-0.010652645,0.0010652645,21.48,-28.44,-24.42
1554103100320,-7.1826053,-2.5528176,5.802946599999999,0.05752428,-0.0031957934000000003,0.008522116,21.48,-28.5,-24.42
1554103100341,-7.201759,-2.4809916000000003,5.6640825,0.07882957,0.0063915867,0.023435817999999997,21.48,-28.56,-24.42
1554103100360,-7.177817,-2.3612813999999998,5.6640825,0.025566347000000003,0.0,0.017044231,21.42,-28.68,-24.42
1554103100381,-7.240066000000001,-2.4809916000000003,5.549161,0.0010652645,-0.002130529,0.0063915867,21.42,-28.8,-24.42
1554103100401,-7.2209125,-2.380435,5.8268886,-0.011717908999999999,-0.015978966,0.013848438000000001,21.36,-28.86,-24.42
1554103100420,-7.335833999999999,-2.4187422,5.7215432999999996,0.017044231,-0.025566347000000003,0.007456851,21.3,-28.86,-24.42
1554103100440,-7.240066000000001,-2.3708582000000002,5.893926,0.037284255,-0.00958738,-0.0031957934000000003,21.3,-28.92,-24.42
1554103100460,-7.302314999999999,-2.2798786,5.755062000000001,0.004261058,-0.0063915867,0.011717908999999999,21.24,-28.86,-24.42
1554103100481,-7.2592196,-2.6964695,5.869984,-0.025566347000000003,-0.012783173500000002,0.0053263223,21.24,-28.86,-24.36
1554103100501,-7.2209125,-2.4905684,6.013636,-0.046871635999999994,0.00958738,-0.018109497,21.24,-28.8,-24.3
1554103100521,-7.441178999999999,-2.4905684,5.7023897,0.015978966,-0.004261058,0.008522116,21.18,-28.74,-24.3
1554103100540,-7.216124000000001,-2.3995886000000004,5.9130797,-0.029827405,-0.020240024,0.025566347000000003,21.18,-28.68,-24.3
1554103100561,-7.2209125,-2.461838,6.0519433,-0.015978966,-0.00958738,0.01917476,21.24,-28.62,-24.24
1554103100581,-7.1395097000000005,-2.4331074,5.755062000000001,-0.013848438000000001,0.0,0.034088463,21.24,-28.56,-24.24
1554103100600,-7.2640080000000005,-2.1410147999999998,5.755062000000001,-0.024501082,-0.012783173500000002,0.034088463,21.18,-28.5,-24.24
1554103100620,-7.0820484,-2.2655133999999997,5.893926,-0.010652645,-0.024501082,0.017044231,21.18,-28.44,-24.3
1554103100640,-7.125144500000001,-2.3756466,5.8268886,-0.00958738,-0.026631612000000002,0.008522116,21.12,-28.44,-24.3
1554103100660,-7.029375999999999,-2.3133974,5.903503,0.010652645,-0.020240024,0.002130529,21.0,-28.5,-24.36
1554103100680,-7.1395097000000005,-2.2559366,6.0998273,0.011717908999999999,-0.002130529,-0.0063915867,20.94,-28.62,-24.36
1554103100701,-7.129933,-2.3852234,5.692813,0.0010652645,0.0,-0.0031957934000000003,20.82,-28.74,-24.36
1554103100720,-7.1490865,-2.4235306,5.9465985,0.0053263223,-0.0063915867,-0.013848438000000001,20.76,-28.92,-24.42
1554103100741,-7.201759,-2.3373394,5.7933699999999995,0.040480047000000005,-0.022370555,-0.027696876000000002,20.64,-29.04,-24.36
1554103100760,-7.0820484,-2.3900118,5.817312,0.07563378,-0.03195793,-0.040480047000000005,20.58,-29.22,-24.36
1554103100780,-7.1826053,-2.5145104,5.855619,0.10226539,-0.012783173500000002,-0.027696876000000002,20.46,-29.34,-24.36
1554103100800,-7.2927384,-2.3708582000000002,5.869984,0.14487597,-0.013848438000000001,-0.037284255,20.46,-29.52,-24.36
1554103100821,-7.326257000000001,-2.3708582000000002,5.6976013,0.16724652,-0.010652645,-0.025566347000000003,20.46,-29.58,-24.3
1554103100840,-7.3071036,-2.2463598,5.8221,0.15552860000000002,-0.02130529,-0.0053263223,20.46,-29.64,-24.3
1554103100860,-7.3214690000000004,-2.2798786,5.8508306,0.12144015,-0.015978966,-0.007456851,20.52,-29.64,-24.3
1554103100880,-7.326257000000001,-2.203264,5.8221,0.047936900000000005,-0.014913702,0.00958738,20.52,-29.7,-24.3
1554103100901,-7.177817,-2.3995886000000004,6.0280013,-0.017044231,-0.002130529,0.0031957934000000003,20.58,-29.76,-24.3
1554103100920,-7.3166804,-2.4283189999999997,5.951387,0.037284255,-0.0010652645,0.018109497,20.7,-29.76,-24.24
1554103100940,-7.0964136,-2.212841,5.8747725,0.11611383,-0.018109497,0.026631612000000002,20.76,-29.7,-24.24
1554103100961,-7.2640080000000005,-1.9829974999999997,5.8221,0.09267801,-0.017044231,0.03195793,20.88,-29.64,-24.24
1554103100980,-7.249642999999999,-1.9111716,5.6545057,0.025566347000000003,-0.00958738,0.03089267,20.94,-29.58,-24.24
1554103101000,-7.216124000000001,-1.9829974999999997,5.769428,-0.06498113,-0.010652645,0.010652645,21.0,-29.52,-24.3
1554103101020,-7.2592196,-2.0883423999999997,5.869984,-0.10652645,-0.026631612000000002,0.015978966,21.0,-29.52,-24.36
1554103101041,-7.1586633,-2.0691888,5.8604074,-0.07669904,-0.036218993,0.0031957934000000003,21.0,-29.52,-24.36
1554103101060,-7.268796400000001,-2.2415714,6.095039,-0.03195793,-0.027696876000000002,-0.024501082,20.94,-29.52,-24.42
1554103101081,-7.3071036,-2.1649568,5.7933699999999995,0.0063915867,-0.02130529,-0.00958738,20.76,-29.58,-24.48
1554103101100,-7.302314999999999,-2.2080526000000003,5.9561753,-0.034088463,-0.02130529,0.0,20.7,-29.64,-24.42
1554103101120,-7.225700999999999,-2.179322,5.903503,-0.039414786,-0.013848438000000001,0.012783173500000002,20.58,-29.82,-24.42
1554103101140,-7.3214690000000004,-2.2511482000000003,6.085462000000001,-0.046871635999999994,-0.00958738,0.0,20.46,-30.0,-24.36
1554103101161,-7.2352777,-2.179322,5.812523400000001,-0.05965481,-0.008522116,0.0010652645,20.4,-30.06,-24.3
1554103101180,-7.129933,-2.15538,5.802946599999999,-0.06711166,-0.02130529,0.007456851,20.34,-30.18,-24.24
1554103101200,-7.2065472999999995,-2.3900118,6.0040593,-0.06285059999999999,-0.01917476,-0.0010652645,20.28,-30.24,-24.18
1554103101221,-7.398083,-2.236783,6.013636,-0.029827405,-0.013848438000000001,0.017044231,20.28,-30.3,-24.18
1554103101240,-7.240066000000001,-2.0500352,5.817312,0.034088463,-0.01917476,0.033023197000000004,20.28,-30.42,-24.12
1554103101260,-7.1969705,-2.0500352,5.7263317,0.02130529,-0.027696876000000002,0.007456851,20.28,-30.48,-24.12
1554103101280,-7.3071036,-2.2703017999999995,6.023213,-0.083090626,-0.020240024,0.011717908999999999,20.28,-30.6,-24.12
1554103101300,-7.2304892999999995,-2.2511482000000003,6.1716533,-0.06604639400000001,-0.014913702,0.024501082,20.22,-30.66,-24.12
1554103101320,-7.3214690000000004,-2.2080526000000003,5.7263317,-0.0010652645,-0.012783173500000002,0.024501082,20.22,-30.78,-24.12
1554103101340,-7.3071036,-2.2080526000000003,5.7454852999999995,-0.010652645,-0.018109497,0.05006743,20.16,-30.84,-24.12
1554103101360,-7.278373200000001,-2.179322,5.9322333,0.01917476,-0.025566347000000003,0.05752428,20.16,-30.9,-24.12
1554103101381,-7.359775999999999,-2.0644004000000002,5.8891377,0.037284255,-0.013848438000000001,0.07563378,20.1,-31.02,-24.12
1554103101400,-7.3645644,-2.0739772000000003,6.0327897,0.043675844000000005,-0.015978966,0.084155895,20.04,-31.14,-24.12
1554103101420,-7.3885064,-2.1888987999999996,6.0184245,-0.04474111,-0.0010652645,0.09374327,19.98,-31.26,-24.12
1554103101440,-7.5034279999999995,-2.1410147999999998,5.994482499999999,-0.05219796,0.008522116,0.1438107,19.92,-31.26,-24.12
1554103101460,-7.369353,-2.0308816000000003,6.0519433,0.002130529,-0.010652645,0.14274544,19.86,-31.32,-24.12
1554103101480,-7.465121000000001,-2.0452468,5.9465985,0.00958738,-0.015978966,0.15765914,19.86,-31.38,-24.12
1554103101500,-7.407660000000001,-2.0500352,5.9130797,0.06391586,-0.025566347000000003,0.14487597,19.8,-31.44,-24.12
1554103101520,-7.422025,-1.7962499,6.2530565000000005,0.046871635999999994,-0.03195793,0.165116,19.8,-31.5,-24.18
1554103101540,-7.3310455999999995,-1.8010383,5.9226565,0.024501082,-0.022370555,0.17363810000000002,19.74,-31.56,-24.18
1554103101560,-7.335833999999999,-1.8393455,6.118981,-0.00958738,-0.015978966,0.16831179,19.68,-31.62,-24.24
1554103101581,-7.359775999999999,-1.834557,6.1046157,0.02130529,-0.007456851,0.16192019,19.62,-31.62,-24.36
1554103101600,-7.4746976,-1.738789,5.802946599999999,0.06285059999999999,-0.008522116,0.17470337,19.44,-31.74,-24.42
1554103101620,-7.3071036,-1.762731,6.1237693,0.10546118,-0.011717908999999999,0.19600865,19.32,-31.98,-24.54
1554103101640,-7.3885064,-1.6861166,6.0567317,0.113983296,0.007456851,0.19920446,19.14,-32.22,-24.66
1554103101660,-7.398083,-1.6525976999999998,6.095039,0.039414786,0.014913702,0.22583607,18.96,-32.58,-24.72
1554103101680,-7.422025,-1.6669630000000002,6.291363700000001,0.049002163,0.012783173500000002,0.23009712,18.72,-32.94,-24.84
1554103101700,-7.4746976,-1.6669630000000002,6.1668650000000005,0.08841695,0.012783173500000002,0.26205507,18.6,-33.36,-24.9
1554103101721,-7.5273699999999995,-1.4993688,6.0184245,0.08522116,0.002130529,0.29507825,18.42,-33.84,-24.96
1554103101740,-7.7428484,-1.5233108,5.975329,0.043675844000000005,-0.03195793,0.31212249999999997,18.24,-34.38,-24.96
1554103101760,-7.7907324000000004,-1.6382325,6.118981,0.011717908999999999,-0.06924219,0.36325517,18.18,-34.98,-24.96
1554103101780,-7.843405000000001,-1.6621746,6.2099605,0.010652645,-0.10013486,0.4016047,18.06,-35.7,-25.02
1554103101800,-7.915230800000001,-1.9686323000000001,6.3823433,0.09587380000000001,-0.12037488,0.45912898,18.0,-36.36,-25.02
1554103101820,-8.183380999999999,-1.5951369,6.1524997,0.15233281,-0.14168017,0.5486112,17.94,-36.9,-25.02
1554103101841,-8.020576,-1.5903485000000002,6.3153057,0.14807177,-0.16618125,0.6423545,17.82,-37.44,-25.02
1554103101860,-8.0445175,-1.4562732,6.2339025,0.13848437,-0.17257284,0.700944,17.58,-37.92,-25.02
1554103101880,-7.905653999999999,-1.3030443,6.329671,0.14168017,-0.15765914,0.78296936,17.28,-38.4,-25.02
1554103101900,-7.785944000000001,-1.2120646000000002,6.39192,0.22583607,-0.14807177,0.8948221,16.98,-38.76,-24.96
1554103101920,-7.5321584,-1.1019313,6.2769985,0.28442562,-0.101200126,0.97045594,16.32,-39.06,-24.96
1554103101941,-7.431602000000001,-0.5895722,6.4637459999999995,0.33768883,-0.05752428,1.0024139,15.72,-39.3,-24.96
1554103101960,-7.225700999999999,-0.26396075,6.1668650000000005,0.32384038,-0.022370555,1.0290455,15.18,-39.72,-24.9
1554103101980,-6.919242999999999,0.19572599,6.1094040000000005,0.350472,0.023435817999999997,1.0439591000000001,14.64,-40.32,-24.9
1554103102000,-6.895301,0.47345337,5.893926,0.31851408,0.06285059999999999,1.0226538,14.16,-40.92,-24.9
1554103102020,-6.775591,0.81343,5.817312,0.23329292,0.07669904,0.98110855,13.62,-41.52,-24.9
1554103102041,-6.7133417,0.9331401,5.7359085,0.18642128,0.09267801,0.9235843,13.26,-42.06,-24.9
1554103102060,-6.861782000000001,1.158195,5.9705405,0.112918034,0.099069595,0.87777793,12.9,-42.6,-24.9
1554103102080,-6.794744500000001,1.1677719,5.8508306,0.08735169,0.10439592,0.81918836,12.6,-43.02,-24.9
1554103102100,-6.9862804,1.2970588,5.7215432999999996,0.10226539,0.096939065,0.7435546,12.36,-43.38,-24.84
1554103102120,-6.933608,1.4838065,5.7454852999999995,0.12144015,0.08735169,0.6860303000000001,11.94,-43.56,-24.84
1554103102141,-6.679823,1.5604209999999998,5.8221,0.08628642,0.09054748,0.63702816,11.52,-43.56,-24.84
1554103102160,-6.756437299999999,1.5939398,5.7502737,0.06178534,0.10759171,0.59867865,11.16,-43.68,-24.9
1554103102180,-6.924031299999999,1.809418,5.769428,0.029827405,0.12996227,0.5656554,10.74,-43.86,-24.9
1554103102200,-7.029375999999999,1.7280151000000001,5.846042,0.007456851,0.13209279,0.5230448000000001,10.32,-44.04,-24.9
1554103102221,-6.8905125,1.7471686999999998,5.975329,0.024501082,0.12037488,0.46978164,9.84,-44.22,-24.9
1554103102240,-6.981492,1.8908207,5.917868,0.05219796,0.12570119999999999,0.43249738,9.48,-44.46,-24.9
1554103102260,-7.134721300000001,2.0201077,5.6736593,0.07776430000000001,0.12676647,0.41119209999999995,9.12,-44.76,-24.9
1554103102280,-7.029375999999999,2.0392613,5.6784476999999995,0.06178534,0.10439592,0.36432046,8.88,-45.0,-24.9
1554103102300,-6.924031299999999,2.1062990000000004,5.812523400000001,0.05006743,0.096939065,0.3323625,8.64,-45.18,-24.9
1554103102320,-6.9623384,2.0105310000000003,5.6401405,0.05539375,0.07989483,0.31212249999999997,8.52,-45.3,-24.9
1554103102340,-6.924031299999999,2.1829132999999996,5.755062000000001,0.03834952,0.053263225,0.29614353,8.4,-45.42,-24.9
1554103102360,-7.110779300000001,2.2786815,5.817312,0.04261058,0.051132694000000006,0.26525086,8.22,-45.48,-24.84
1554103102380,-7.120356,2.3122002999999998,5.8508306,0.040480047000000005,0.022370555,0.24074976,8.04,-45.6,-24.84
1554103102400,-6.919242999999999,2.355296,5.94181,0.054328485999999995,0.0,0.22264028,7.86,-45.78,-24.84
1554103102420,-7.029375999999999,2.4654293,5.7933699999999995,0.05219796,0.008522116,0.19813919,7.68,-45.96,-24.78
1554103102440,-6.9958572,2.532467,5.802946599999999,0.046871635999999994,0.007456851,0.16937704,7.38,-46.14,-24.78
1554103102460,-7.125144500000001,2.3840263,5.7598505,0.05006743,0.007456851,0.14061491,7.14,-46.44,-24.72
1554103102480,-7.1586633,2.7144263,5.7023897,0.05965481,-0.010652645,0.10546118,6.84,-46.74,-24.66
1554103102500,-7.0102224,2.7335799,5.6784476999999995,0.047936900000000005,-0.02876214,0.068176925,6.6,-47.04,-24.66
1554103102520,-7.101202000000001,2.5851393,5.716755,-0.013848438000000001,-0.026631612000000002,0.05539375,6.36,-47.34,-24.6
1554103102540,-7.2352777,2.4702177000000005,5.8221,-0.029827405,-0.01917476,0.04474111,6.24,-47.58,-24.6
1554103102560,-7.273585000000001,2.570774,5.798158,-0.020240024,-0.015978966,0.056459017,6.12,-47.7,-24.54
1554103102580,-7.2975270000000005,2.4271219,5.7933699999999995,0.0010652645,-0.023435817999999997,0.06711166,6.12,-47.76,-24.48
1554103102600,-7.2209125,2.6234465,5.951387,0.02130529,-0.023435817999999997,0.060720075,6.06,-47.82,-24.42
1554103102620,-7.225700999999999,2.5851393,5.7933699999999995,0.04261058,-0.00958738,0.07137272,6.0,-47.82,-24.36
1554103102640,-7.225700999999999,2.6952724,5.903503,0.03834952,-0.007456851,0.07456851,6.0,-47.7,-24.3
1554103102660,-7.0245875999999985,2.8101943,6.085462000000001,0.11504856,0.014913702,0.05965481,6.0,-47.52,-24.24
1554103102680,-7.120356,2.9825767999999995,5.812523400000001,0.16831179,0.041545313,0.010652645,6.0,-47.34,-24.24
1554103102700,-7.2113357,2.8485014,5.415086,0.10226539,0.025566347000000003,-0.012783173500000002,6.0,-47.16,-24.18
1554103102720,-7.2592196,2.4941597,5.458181400000001,-0.056459017,0.0010652645,0.0053263223,5.94,-46.98,-24.24
1554103102741,-7.1586633,2.4893713,5.9705405,-0.056459017,-0.027696876000000002,0.034088463,5.94,-46.86,-24.3
1554103102760,-7.0245875999999985,2.4510639,5.917868,0.10439592,-0.035153727999999995,0.039414786,5.94,-46.8,-24.36
1554103102780,-6.947973299999999,2.9059622000000003,5.549161,0.17789917,-0.026631612000000002,0.036218993,5.94,-46.74,-24.42
1554103102801,-7.105990400000001,2.9203273999999997,5.525219,0.07776430000000001,-0.029827405,0.017044231,5.94,-46.86,-24.48
1554103102820,-7.110779300000001,2.8772318,5.597045,0.0053263223,-0.034088463,0.018109497,5.94,-46.92,-24.48
1554103102840,-6.895301,2.8245595000000003,5.8651957999999995,-0.025566347000000003,-0.03834952,-0.008522116,5.88,-47.28,-24.42
1554103102860,-7.086836999999999,2.819771,5.903503,0.024501082,-0.03089267,-0.04580637,5.88,-47.46,-24.36
1554103102880,-7.1826053,2.6426,5.6640825,0.03089267,-0.024501082,-0.035153727999999995,5.82,-47.7,-24.3
1554103102900,-7.374141000000001,2.6330232999999996,5.6497173,0.013848438000000001,-0.022370555,-0.015978966,5.7,-47.82,-24.18
1554103102921,-7.3071036,2.819771,5.597045,-0.037284255,-0.040480047000000005,0.012783173500000002,5.64,-47.94,-24.12
1554103102940,-7.134721300000001,2.6569653,5.6640825,-0.07243799,-0.056459017,-0.0010652645,5.58,-48.0,-24.06
1554103102960,-7.091625,2.484583,5.9226565,-0.025566347000000003,-0.060720075,-0.040480047000000005,5.46,-48.06,-24.06
1554103102980,-6.7851677,2.8820202,5.965751999999999,0.010652645,-0.046871635999999994,-0.014913702,5.4,-48.12,-24.06
1554103103000,-7.029375999999999,2.1110873,4.500500700000001,0.13315806,0.007456851,-0.06285059999999999,5.34,-48.12,-24.12
1554103103020,-7.273585000000001,3.8923733,6.684012400000001,-0.3206446,-0.025566347000000003,-0.05965481,5.28,-48.06,-24.12
1554103103040,-6.9958572,2.202067,5.9801173,-0.14487597,-0.0031957934000000003,-0.049002163,5.22,-48.0,-24.12
1554103103060,-7.1634517,2.8054059,6.4062852999999995,0.0031957934000000003,0.022370555,-0.07776430000000001,5.28,-48.0,-24.12
1554103103080,-6.8330517,2.5181017000000003,5.194819,0.257794,0.07669904,-0.08735169,5.28,-48.0,-24.12
1554103103101,-7.632714999999999,2.9107506,5.3863554,-0.11611383,0.023435817999999997,-0.18109496,5.28,-48.0,-24.18
1554103103120,-7.091625,2.0248961,6.1524997,-0.30360037,-0.04474111,-0.0053263223,5.28,-47.88,-24.18
1554103103140,-6.871359,2.2212207000000004,6.3009405,-0.083090626,-0.04261058,-0.02876214,5.28,-47.76,-24.24
1554103103161,-7.2640080000000005,2.6282349,6.0184245,0.07030745599999999,-0.02876214,-0.02876214,5.28,-47.64,-24.24
1554103103180,-7.0724716,2.8341362,5.879561,0.037284255,-0.02130529,0.020240024,5.34,-47.4,-24.3
1554103103200,-6.981492,2.7383683,5.6976013,-0.025566347000000003,-0.013848438000000001,-0.008522116,5.4,-47.16,-24.3
1554103103220,-7.120356,2.7383683,5.774216,-0.084155895,0.002130529,-0.051132694000000006,5.52,-46.8,-24.36
1554103103240,-7.0724716,2.570774,5.7359085,-0.13635385,0.0010652645,-0.04580637,5.64,-46.38,-24.36
1554103103261,-6.9767036,2.5276785,5.740697,-0.17150758,0.0031957934000000003,-0.035153727999999995,5.76,-45.96,-24.36
1554103103280,-6.9623384,2.5133132999999996,5.831677,-0.15339808,0.004261058,-0.05006743,5.88,-45.6,-24.3
1554103103300,-7.043741000000001,2.6521769,5.9130797,-0.12783173,0.012783173500000002,-0.06604639400000001,6.06,-45.3,-24.36
1554103103320,-6.780379300000001,2.8054059,5.659294,-0.07243799,0.004261058,-0.094808534,6.18,-45.06,-24.42
1554103103340,-6.828263300000001,3.0639796,5.6640825,-0.10759171,-0.014913702,-0.17363810000000002,6.3,-44.82,-24.6
1554103103361,-6.789956,3.0639796,5.5826797,-0.30999196,-0.01917476,-0.22690132,6.3,-44.7,-24.72
1554103103380,-6.6941880000000005,2.5851393,5.9465985,-0.47936899999999993,-0.010652645,-0.31851408,6.3,-44.58,-24.96
1554103103400,-6.6510925,2.1877017000000003,5.9082913,-0.5539375,0.034088463,-0.350472,6.3,-44.58,-25.14
1554103103421,-6.612785000000001,1.9147629000000002,5.9849057,-0.567786,0.07776430000000001,-0.37284255,6.3,-44.52,-25.32
1554103103440,-6.493075,1.8956091,5.917868,-0.43462790000000007,0.082025364,-0.41864893,6.3,-44.28,-25.5
1554103103461,-6.2105594,2.0201077,5.5922565,-0.294013,0.06391586,-0.47510794,6.3,-43.98,-25.62
1554103103480,-6.0285997,1.8620903000000002,5.319318,-0.27803403,0.023435817999999997,-0.567786,6.3,-43.62,-25.74
1554103103500,-5.616797,1.5364790000000002,5.3624134,-0.31851408,-0.01917476,-0.6924219,6.42,-43.26,-25.8
1554103103521,-5.401319,1.3976152,5.127781400000001,-0.330232,-0.04261058,-0.83729786,6.66,-42.9,-25.8
1554103103540,-5.722142,1.2204443,5.3145294000000005,-0.39627838,-0.039414786,-0.99069595,6.96,-42.54,-25.8
1554103103561,-5.995081,0.96665895,5.4917,-0.45167214,-0.03089267,-1.1142666,7.32,-42.12,-25.8
1554103103580,-5.7700260000000005,0.54049104,5.2810106,-0.5028047999999999,-0.027696876000000002,-1.2229236,7.62,-41.46,-25.86
1554103103600,-5.511451999999999,0.13347675,5.391144000000001,-0.57311225,-0.00958738,-1.3347764,7.98,-40.92,-25.92
1554103103621,-5.951985400000001,-0.27832595,5.644929,-0.56245965,-0.0053263223,-1.4508902,8.22,-40.5,-26.04
1554103103640,-6.493075,-0.7284359,5.544372599999999,-0.47191215,0.011717908999999999,-1.5435683,8.58,-39.96,-26.16
1554103103660,-6.291962,-1.0205284,5.8604074,-0.45486793,-0.0053263223,-1.5968314,9.0,-39.24,-26.28
1554103103681,-6.0046577,-1.4514848,5.6257753,-0.4250405,0.0053263223,-1.6394419999999998,9.6,-38.46,-26.4
1554103103700,-6.5505357,-1.5280992,5.8651957999999995,-0.43249738,0.00958738,-1.6916398999999998,10.14,-37.5,-26.52
1554103103721,-7.5082164,-1.7914615000000003,5.9322333,-0.49641323,0.027696876000000002,-1.7257284,10.74,-36.36,-26.7
1554103103741,-7.632714999999999,-2.0787656,6.320094,-0.59122175,-0.0053263223,-1.7235979,11.4,-35.34,-26.88
1554103103760,-7.5704656,-2.4762032000000005,6.1094040000000005,-0.52837116,-0.060720075,-1.6959009999999999,12.06,-34.32,-27.0
1554103103781,-7.4986396,-2.8880057,6.5164184999999994,-0.44528055,-0.11930962,-1.6682042000000001,12.84,-33.18,-27.12
1554103103800,-7.3406224,-3.2375592999999996,6.4637459999999995,-0.30679616,-0.17363810000000002,-1.603223,14.16,-31.62,-27.24
1554103103820,-7.690175999999999,-3.3620577000000003,6.6983776,-0.2034655,-0.17470337,-1.5456988,14.82,-30.48,-27.3
1554103103841,-7.953538000000001,-3.5871127,6.3871317,-0.17044231,-0.17150758,-1.4583471000000001,15.3,-29.52,-27.36
1554103103860,-7.7428484,-3.8073792,6.1764417,-0.17576863,-0.19068234,-1.3571468999999998,15.72,-28.74,-27.42
1554103103881,-7.699753,-4.1904516,6.2530565000000005,-0.19707392,-0.21944448,-1.3092101,16.14,-28.14,-27.42
1554103103900,-7.455544000000001,-4.2622776,6.4110737,-0.13848437,-0.24181503,-1.252751,16.62,-27.54,-27.42
1554103103921,-7.4028716,-4.401141,6.4110737,-0.046871635999999994,-0.24074976,-1.1313108,16.98,-26.88,-27.48
1554103103940,-7.120356,-4.3724110000000005,6.425439,-0.002130529,-0.22903186,-0.9864349,17.4,-26.1,-27.48
1554103103960,-6.8761472999999995,-4.377199,6.655282000000001,0.029827405,-0.22050974,-0.86606,17.64,-25.32,-27.54
1554103103980,-6.847417,-3.946243,6.535572,0.027696876000000002,-0.19920446,-0.7488809000000001,17.94,-24.66,-27.6
1554103104000,-6.71813,-3.8935703999999998,6.449381,-0.05539375,-0.17896444,-0.68176925,18.18,-24.0,-27.66
1554103104021,-6.703765,-3.8983587999999996,6.4685345000000005,-0.21411815,-0.15765914,-0.64555025,18.42,-23.28,-27.72
1554103104041,-6.6654577,-4.1186256000000006,6.559514,-0.31318775,-0.14594123,-0.588026,18.66,-22.56,-27.78
1554103104060,-6.5840545,-4.4681787,6.923433,-0.28868666,-0.13528858,-0.5230448000000001,18.84,-21.84,-27.78
1554103104081,-6.5984197,-4.496909,6.947375,-0.12783173,-0.10865697,-0.41225734,18.96,-21.12,-27.84
1554103104101,-6.655881,-4.458602,6.947375,-0.07030745599999999,-0.09161274,-0.35792887,19.02,-20.52,-27.84
1554103104121,-6.435614,-4.31495,7.0287776,-0.05219796,-0.06391586,-0.28975195,19.02,-19.98,-27.84
1554103104141,-6.493075,-4.3388919999999995,6.889914,-0.07456851,-0.039414786,-0.2066613,19.02,-19.44,-27.84
1554103104161,-6.435614,-4.353257,6.865972,-0.15446335,-0.0053263223,-0.10333065,19.08,-18.9,-27.84
1554103104180,-6.540959,-4.64535,7.019201,-0.18642128,0.020240024,-0.07989483,19.08,-18.48,-27.9
1554103104201,-6.679823,-4.851251,7.129334,-0.16405073,0.053263225,-0.10652645,19.08,-18.12,-27.96
1554103104221,-6.459556,-4.860828,7.1724296,-0.049002163,0.07243799,-0.11611383,19.08,-17.88,-28.02
1554103104240,-5.9280434,-4.741118,6.818088,0.080960095,0.09267801,-0.05752428,19.08,-17.76,-28.08
1554103104261,-5.851429,-4.511274299999999,6.425439,0.13635385,0.10546118,0.043675844000000005,19.08,-17.7,-28.2
1554103104280,-5.923255,-4.4059295999999994,6.2003837,0.14274544,0.10972224,0.082025364,19.08,-17.76,-28.26
1554103104300,-6.0381765,-4.386776,6.06152,0.12250541,0.10972224,0.112918034,19.08,-17.82,-28.38
1554103104321,-6.0142345,-4.578312400000001,6.047155,0.099069595,0.099069595,0.12144015,19.14,-17.88,-28.38
1554103104341,-5.971139,-4.573524,5.855619,0.1587244,0.08735169,0.11717909,19.14,-17.94,-28.38
1554103104361,-5.9567738,-4.482544,5.960963700000001,0.21944448,0.07669904,0.10333065,19.2,-17.94,-28.38
1554103104381,-5.8466406,-4.3436804,5.8747725,0.17257284,0.07456851,0.096939065,19.26,-18.0,-28.44
1554103104400,-5.7700260000000005,-4.573524,6.0040593,0.08948222,0.07030745599999999,0.098004326,19.38,-18.06,-28.38
1554103104421,-5.6407394,-4.415506400000001,6.291363700000001,0.041545313,0.07243799,0.11611383,19.56,-18.06,-28.32
1554103104441,-5.861006,-4.3819875999999995,6.329671,0.053263225,0.06498113,0.12676647,19.68,-18.12,-28.26
1554103104460,-5.779603,-4.085107,6.2865753,0.08628642,0.054328485999999995,0.12463594,19.86,-18.12,-28.14
1554103104481,-5.8562174,-3.9653966,6.238691,0.06498113,0.037284255,0.10439592,20.04,-18.24,-28.02
1554103104500,-5.9184665999999995,-3.9989154,5.9705405,-0.013848438000000001,0.035153727999999995,0.07669904,20.16,-18.36,-27.9
1554103104520,-6.0285997,-4.0037036,6.157287999999999,-0.09374327,0.041545313,0.04474111,20.22,-18.48,-27.78
1554103104540,-6.167464,-4.247912400000001,6.1955953,-0.051132694000000006,0.033023197000000004,0.015978966,20.22,-18.66,-27.66
1554103104561,-6.1530986,-4.247912400000001,6.320094,0.046871635999999994,0.015978966,0.012783173500000002,20.28,-18.78,-27.54
1554103104581,-6.1100025,-4.214393599999999,5.9801173,0.10546118,0.0031957934000000003,0.029827405,20.22,-18.9,-27.42
1554103104602,-6.2823853,-4.1282024,6.095039,0.09161274,-0.00958738,0.034088463,20.1,-19.14,-27.42
1554103104620,-6.1626754,-4.0994720000000004,6.0758852999999995,0.043675844000000005,-0.015978966,0.047936900000000005,20.1,-19.2,-27.42
1554103104640,-6.081272,-4.180875,6.229114,0.011717908999999999,-0.015978966,0.06285059999999999,20.04,-19.26,-27.42
1554103104661,-6.0285997,-4.200028400000001,6.1524997,0.022370555,-0.017044231,0.07669904,19.98,-19.38,-27.42
1554103104681,-6.0333879999999995,-4.013280399999999,6.071097,0.015978966,-0.015978966,0.07563378,19.92,-19.38,-27.42
1554103104701,-6.0860605,-4.1329910000000005,6.0040593,-0.013848438000000001,-0.0010652645,0.068176925,19.86,-19.5,-27.42
1554103104720,-6.0764837,-4.185663,6.1046157,-0.026631612000000002,0.0053263223,0.06711166,19.86,-19.56,-27.42
1554103104740,-5.975927400000001,-4.094683600000001,6.0806737,-0.015978966,0.0063915867,0.06924219,19.8,-19.56,-27.42
1554103104761,-6.0333879999999995,-4.1138372,6.085462000000001,-0.00958738,0.0053263223,0.06498113,19.68,-19.68,-27.48
1554103104781,-6.066907,-4.0994720000000004,5.917868,-0.041545313,0.011717908999999999,0.043675844000000005,19.62,-19.74,-27.48
1554103104801,-6.1100025,-4.0372224,5.9705405,-0.060720075,0.013848438000000001,0.024501082,19.56,-19.74,-27.48
1554103104820,-6.1195793,-4.147355999999999,6.095039,-0.07137272,0.020240024,0.017044231,19.56,-19.74,-27.48
1554103104841,-6.0956373,-4.1329910000000005,6.047155,-0.06711166,0.01917476,0.008522116,19.56,-19.74,-27.48
1554103104861,-6.244078,-4.109049,6.023213,-0.040480047000000005,0.0010652645,-0.014913702,19.5,-19.74,-27.48
1554103104881,-6.1100025,-4.0084919999999995,5.9801173,-0.04580637,-0.00958738,-0.027696876000000002,19.5,-19.74,-27.48
1554103104900,-6.143522,-4.1760864,6.1955953,-0.083090626,-0.013848438000000001,-0.037284255,19.5,-19.8,-27.48
1554103104920,-6.229712999999999,-4.1186256000000006,6.118981,-0.13422333,-0.027696876000000002,-0.049002163,19.56,-19.86,-27.48
1554103104940,-6.315904,-4.223970400000001,6.2003837,-0.11717909,-0.04261058,-0.04580637,19.62,-19.92,-27.42
1554103104960,-6.2153480000000005,-4.1904516,6.415862000000001,-0.07776430000000001,-0.058589544,-0.04261058,19.68,-19.98,-27.42
1554103104981,-6.143522,-4.0755300000000005,6.2817870000000005,-0.024501082,-0.06391586,-0.033023197000000004,19.68,-20.1,-27.54
1554103105001,-6.196194,-4.032433999999999,6.401497,-0.03089267,-0.06178534,-0.025566347000000003,19.62,-20.16,-27.66
1554103105021,-6.26802,-3.8839936,6.238691,-0.043675844000000005,-0.06711166,-0.00958738,19.62,-20.16,-27.72
1554103105041,-6.291962,-3.8361096,6.377555,-0.058589544,-0.07669904,0.002130529,19.62,-20.1,-27.84
1554103105060,-6.196194,-3.8504747999999998,6.4876879999999995,-0.06391586,-0.08948222,0.012783173500000002,19.56,-20.04,-27.96
1554103105081,-6.167464,-3.86484,6.4350157,-0.03834952,-0.096939065,0.06924219,19.56,-19.98,-28.02
1554103105101,-6.042965000000001,-3.7116113,6.6792240000000005,-0.023435817999999997,-0.096939065,0.09587380000000001,19.56,-19.86,-28.14
1554103105124,-6.0908489999999995,-3.6924577000000003,6.607398,-0.04474111,-0.099069595,0.12463594,19.5,-19.8,-28.26
1554103105140,-6.1195793,-3.639785,6.545148999999999,-0.07456851,-0.10652645,0.15020229,19.5,-19.68,-28.26
1554103105161,-5.971139,-3.7403417,6.602609599999999,-0.08841695,-0.11824436,0.17789917,19.44,-19.62,-28.26
1554103105180,-6.0285997,-3.7882257000000004,6.502053299999999,-0.06711166,-0.12676647,0.20772657,19.44,-19.56,-28.26
1554103105200,-5.947197,-3.793014,6.645705,-0.039414786,-0.13528858,0.22690132,19.38,-19.56,-28.26
1554103105220,-5.8226986,-3.8504747999999998,6.545148999999999,-0.024501082,-0.13954964,0.25672874,19.26,-19.62,-28.26
1554103105241,-5.760449400000001,-3.7211879999999997,6.291363700000001,-0.03089267,-0.13635385,0.29827404,19.08,-19.68,-28.32
1554103105260,-5.7029886,-3.639785,6.2482677,-0.068176925,-0.14061491,0.32170987,18.9,-19.68,-28.32
1554103105280,-5.6886234,-3.5488055,6.1955953,-0.111852765,-0.14807177,0.3270362,18.78,-19.8,-28.38
1554103105301,-5.6886234,-3.5488055,6.4206505,-0.14274544,-0.14594123,0.33449304,18.66,-19.86,-28.44
1554103105321,-5.6407394,-3.5104983,6.4541693,-0.13422333,-0.14061491,0.33875409999999995,18.48,-19.98,-28.56
1554103105341,-5.631162000000001,-3.4099417,6.473323000000001,-0.12037488,-0.13209279,0.3536678,18.36,-20.04,-28.62
1554103105361,-5.650316,-3.2471360000000002,6.305729,-0.12463594,-0.12250541,0.36112466,18.18,-20.1,-28.68
1554103105381,-5.674258,-3.3716345000000003,6.229114,-0.14807177,-0.10652645,0.35153726,18.12,-20.1,-28.74
1554103105401,-5.731719,-3.3572693,6.353613,-0.17363810000000002,-0.09161274,0.33981937,18.0,-20.1,-28.8
1554103105420,-5.760449400000001,-3.4051532999999994,6.4876879999999995,-0.20772657,-0.060720075,0.3291667,17.94,-20.04,-28.86
1554103105440,-5.8274870000000005,-3.4961330000000004,6.688801,-0.19174760000000002,-0.034088463,0.3153183,17.82,-20.04,-28.86
1554103105461,-5.8083334,-3.4003648999999996,6.4302273,-0.19813919,-0.013848438000000001,0.314253,17.7,-20.04,-28.86
1554103105481,-5.765238,-3.3955764999999998,6.6265516,-0.23542345,-0.0031957934000000003,0.31212249999999997,17.46,-19.98,-28.92
1554103105501,-5.8083334,-3.4913447,6.458957700000001,-0.27057716,-0.002130529,0.31638354,17.22,-19.92,-28.92
1554103105520,-6.191406,-3.6302083,6.712743,-0.29827404,-0.017044231,0.30892670000000005,16.86,-19.86,-28.92
1554103105540,-6.1818290000000005,-3.6110547,6.664859,-0.2790993,-0.03195793,0.294013,16.68,-19.86,-28.92
1554103105563,-6.172251999999999,-3.6924577000000003,6.63134,-0.24181503,-0.041545313,0.28868666,16.32,-19.86,-29.04
1554103105580,-6.320692500000001,-3.6302083,6.4398040000000005,-0.25140239999999997,-0.04261058,0.27590349999999997,16.2,-19.86,-29.04
1554103105602,-6.622362,-4.032433999999999,6.5212069999999995,-0.31957933,-0.058589544,0.17150758,15.84,-19.74,-29.16
1554103105622,-6.4404025,-4.1425676,6.707954400000001,-0.30786142,-0.06285059999999999,0.08841695,15.72,-19.74,-29.22
1554103105640,-6.0860605,-3.9845502,6.377555,-0.15126756,-0.02876214,0.10652645,15.54,-19.44,-29.28
1554103105661,-6.023811299999999,-3.6637269999999997,6.085462000000001,-0.023435817999999997,0.023435817999999997,0.18109496,15.42,-19.32,-29.34
1554103105680,-5.9807158,-3.5057099999999997,5.755062000000001,0.004261058,0.06498113,0.18535602,15.42,-19.2,-29.4
1554103105701,-6.172251999999999,-3.2662897,5.558737799999999,-0.06391586,0.12250541,0.16298546,15.36,-19.08,-29.46
1554103105720,-6.3111157,-3.4195184999999997,5.573103,-0.17363810000000002,0.16085494,0.10972224,15.3,-19.08,-29.46
1554103105740,-6.4260373,-3.7259765,5.7119665,-0.23222765,0.17150758,0.035153727999999995,15.24,-19.08,-29.46
1554103105760,-6.4643445,-3.6828809000000002,5.855619,-0.19068234,0.17044231,0.010652645,15.18,-19.14,-29.46
1554103105780,-6.493075,-3.5823242999999994,5.879561,-0.128897,0.165116,0.002130529,15.18,-19.26,-29.46
1554103105801,-6.622362,-3.5057099999999997,5.7119665,-0.15659387,0.15446335,0.01917476,15.18,-19.38,-29.46
1554103105820,-6.742072,-3.5440169999999998,5.774216,-0.20879184,0.13315806,0.04580637,15.12,-19.56,-29.46
1554103105841,-6.9288197,-3.5631707,5.659294,-0.20559604,0.10546118,0.07563378,15.12,-19.68,-29.46
1554103105860,-7.029375999999999,-3.6445735,5.7502737,-0.14594123,0.08735169,0.082025364,15.12,-19.68,-29.46
1554103105880,-7.019799000000001,-3.6541502,5.539584,-0.12250541,0.080960095,0.053263225,15.12,-19.38,-29.46
1554103105900,-6.9719152,-3.7307648999999996,5.501277,-0.15446335,0.082025364,0.004261058,15.12,-19.08,-29.46
1554103105923,-7.0102224,-3.86484,5.443816,-0.17576863,0.08735169,-0.014913702,15.12,-18.72,-29.46
1554103105941,-7.0341644,-3.9223008000000004,5.333683000000001,-0.14913702,0.083090626,0.0063915867,15.18,-18.42,-29.46
1554103105961,-6.828263300000001,-3.8935703999999998,5.4007206,-0.112918034,0.07989483,0.029827405,15.24,-18.06,-29.52
1554103105980,-6.828263300000001,-3.7259765,5.319318,-0.098004326,0.082025364,0.053263225,15.36,-17.7,-29.58
1554103106000,-6.9144545,-3.7307648999999996,5.060744000000001,-0.12463594,0.06924219,0.058589544,15.48,-17.4,-29.7
1554103106021,-7.1634517,-3.6445735,5.089474,-0.17576863,0.043675844000000005,0.058589544,15.66,-17.1,-29.76
1554103106040,-7.110779300000001,-3.7163997,5.3288946,-0.17470337,0.013848438000000001,0.06498113,15.78,-16.98,-29.82
1554103106060,-7.0102224,-3.7259765,5.3049526,-0.1470065,-0.008522116,0.05965481,15.96,-16.86,-29.94
1554103106081,-6.9096660000000005,-3.769072,5.4917,-0.15020229,-0.011717908999999999,0.054328485999999995,16.08,-16.68,-30.0
1554103106100,-6.981492,-3.7786489000000003,5.429451,-0.16405073,-0.0063915867,0.060720075,16.2,-16.5,-30.06
1554103106120,-6.9719152,-3.9653966,5.472546599999999,-0.16298546,-0.0010652645,0.060720075,16.26,-16.32,-30.06
1554103106140,-6.9623384,-3.9031472000000003,5.453393,-0.13741912,0.0031957934000000003,0.05965481,16.26,-16.14,-30.06
1554103106161,-6.8330517,-3.769072,5.3049526,-0.112918034,0.017044231,0.05219796,16.2,-15.96,-30.06
1554103106180,-6.7468604999999995,-3.7978023999999997,5.5204306,-0.10333065,0.035153727999999995,0.040480047000000005,16.14,-15.78,-30.06
1554103106200,-6.847417,-3.7978023999999997,5.549161,-0.10865697,0.05752428,0.014913702,16.14,-15.6,-30.06
1554103106220,-6.9048777,-3.9031472000000003,5.573103,-0.098004326,0.068176925,0.008522116,16.14,-15.6,-30.06
1554103106241,-6.828263300000001,-3.7978023999999997,5.462969999999999,-0.06178534,0.07137272,0.007456851,16.14,-15.54,-30.12
1554103106261,-6.9958572,-3.793014,5.3863554,-0.05539375,0.06391586,-0.002130529,16.14,-15.48,-30.12
1554103106281,-6.9288197,-3.615843,5.467758,-0.056459017,0.046871635999999994,-0.0063915867,16.2,-15.3,-30.12
1554103106301,-7.134721300000001,-3.6733038000000002,5.458181400000001,-0.07563378,0.02876214,-0.020240024,16.26,-15.12,-30.12
1554103106321,-7.2352777,-3.769072,5.549161,-0.06711166,0.002130529,-0.03089267,16.26,-15.0,-30.12
1554103106340,-7.1586633,-3.7738605000000005,5.391144000000001,-0.040480047000000005,-0.01917476,-0.027696876000000002,16.32,-14.82,-30.12
1554103106360,-7.0820484,-3.793014,5.3384714,-0.00958738,-0.036218993,-0.014913702,16.32,-14.7,-30.12
1554103106380,-6.991069,-3.6637269999999997,5.367202,0.002130529,-0.04261058,-0.010652645,16.38,-14.52,-30.12
1554103106400,-7.177817,-3.6541502,5.2474914,-0.002130529,-0.03834952,0.0063915867,16.38,-14.4,-30.12
1554103106420,-7.201759,-3.7020345,5.237914599999999,-0.018109497,-0.03195793,0.007456851,16.38,-14.22,-30.06
1554103106441,-7.2065472999999995,-3.6780925000000004,5.204396,-0.015978966,-0.026631612000000002,0.0063915867,16.44,-14.16,-30.06
1554103106461,-7.1490865,-3.8121676,5.257068,-0.012783173500000002,-0.026631612000000002,0.0010652645,16.44,-14.16,-30.06
1554103106481,-6.8761472999999995,-3.816956,5.4007206,-0.011717908999999999,-0.02876214,-0.002130529,16.44,-14.16,-30.0
1554103106501,-7.019799000000001,-3.7307648999999996,5.472546599999999,-0.0063915867,-0.022370555,0.020240024,16.44,-14.1,-30.0
1554103106521,-7.077260000000001,-3.7355532999999994,5.2474914,-0.012783173500000002,-0.013848438000000001,0.029827405,16.44,-14.1,-30.0
1554103106541,-7.1826053,-3.8313212,5.1613,-0.0063915867,-0.0053263223,0.025566347000000003,16.44,-14.04,-29.94
1554103106561,-7.177817,-3.7882257000000004,5.213972599999999,0.0010652645,0.0010652645,0.027696876000000002,16.44,-14.04,-29.94
1554103106581,-7.110779300000001,-3.7403417,4.9218802,0.026631612000000002,0.010652645,0.027696876000000002,16.38,-14.04,-29.88
1554103106601,-7.2448545,-3.5392287000000002,5.1038394,0.036218993,0.017044231,0.029827405,16.38,-14.04,-29.94
1554103106621,-7.302314999999999,-3.5679589999999997,5.0080714,0.01917476,0.025566347000000003,0.035153727999999995,16.32,-14.04,-29.94
1554103106641,-7.398083,-3.6780925000000004,5.04159,-0.0010652645,0.029827405,0.034088463,16.32,-13.98,-29.94
1554103106661,-7.465121000000001,-3.7882257000000004,4.9984946,-0.01917476,0.035153727999999995,0.035153727999999995,16.32,-13.98,-29.94
1554103106681,-7.445967,-3.7020345,4.926668599999999,0.012783173500000002,0.037284255,0.041545313,16.32,-13.98,-29.94
1554103106701,-7.4842744,-3.816956,4.931457,0.039414786,0.037284255,0.054328485999999995,16.32,-13.98,-29.88
1554103106720,-7.5273699999999995,-3.7116113,4.960187400000001,0.05752428,0.04580637,0.07563378,16.32,-13.98,-29.88
1554103106740,-7.383717999999999,-3.7163997,4.7494974,0.058589544,0.05219796,0.07776430000000001,16.38,-13.92,-29.88
1554103106761,-7.4268136,-3.615843,4.8165355000000005,0.03834952,0.06391586,0.06924219,16.38,-13.92,-29.88
1554103106780,-7.369353,-3.8504747999999998,4.835689,0.0,0.082025364,0.06178534,16.44,-13.92,-29.88
1554103106800,-7.3166804,-3.6733038000000002,5.060744000000001,0.002130529,0.08735169,0.058589544,16.44,-13.92,-29.94
1554103106821,-7.240066000000001,-3.6349967000000003,4.8452660000000005,-0.002130529,0.101200126,0.04580637,16.44,-13.92,-29.94
1554103106840,-7.445967,-3.6541502,5.065532,-0.04261058,0.10546118,0.029827405,16.44,-13.92,-29.94
1554103106861,-7.2640080000000005,-3.7547068999999995,5.1900306,-0.06285059999999999,0.101200126,0.020240024,16.5,-13.92,-30.0
1554103106881,-7.2592196,-3.6589386,5.075108999999999,-0.07669904,0.08628642,0.02130529,16.5,-13.92,-29.94
1554103106900,-7.2640080000000005,-3.6876693,5.237914599999999,-0.07456851,0.07350325,0.036218993,16.5,-13.92,-29.94
1554103106920,-7.2592196,-3.6876693,5.1038394,-0.05219796,0.06285059999999999,0.043675844000000005,16.5,-13.86,-29.94
1554103106941,-7.3645644,-3.5057099999999997,5.04159,-0.047936900000000005,0.051132694000000006,0.049002163,16.5,-13.86,-29.88
1554103106960,-7.383717999999999,-3.342904,4.821324,-0.06604639400000001,0.039414786,0.040480047000000005,16.56,-13.86,-29.88
1554103106980,-7.3645644,-3.3237504999999996,4.869208,-0.10972224,0.034088463,0.039414786,16.56,-13.86,-29.88
1554103107001,-7.374141000000001,-3.4338839999999995,4.735132,-0.14061491,0.040480047000000005,0.036218993,16.56,-13.8,-29.88
1554103107020,-7.4124484,-3.4674027,4.797382,-0.14913702,0.04261058,0.02876214,16.56,-13.8,-29.82
1554103107040,-7.848192999999999,-3.5152867,4.941033999999999,-0.1470065,0.033023197000000004,0.037284255,16.62,-13.8,-29.88
1554103107060,-7.833828,-3.7116113,5.127781400000001,-0.14168017,0.0053263223,0.05965481,16.68,-13.8,-29.88
1554103107081,-7.608772999999999,-3.7834373,5.37199,-0.12463594,-0.027696876000000002,0.06924219,16.74,-13.8,-29.88
1554103107100,-7.3406224,-3.9223008000000004,5.644929,-0.098004326,-0.06285059999999999,0.07137272,16.8,-13.68,-29.88
1554103107122,-6.947973299999999,-3.9223008000000004,5.467758,-0.053263225,-0.10226539,0.09054748,16.86,-13.56,-29.88
1554103107141,-7.0485296,-4.0372224,5.367202,-0.011717908999999999,-0.111852765,0.099069595,16.86,-13.5,-29.88
1554103107160,-6.9288197,-3.8839936,5.146935,0.011717908999999999,-0.10972224,0.08841695,16.92,-13.44,-29.88
1554103107181,-7.0341644,-3.8073792,5.04159,0.03089267,-0.10226539,0.07456851,16.92,-13.32,-29.88
1554103107201,-6.9719152,-3.7307648999999996,5.0224366,0.040480047000000005,-0.082025364,0.060720075,16.86,-13.2,-29.94
1554103107220,-7.005433999999999,-3.6780925000000004,4.883573,0.029827405,-0.051132694000000006,0.04261058,16.8,-13.14,-30.0
1554103107240,-7.086836999999999,-3.4961330000000004,4.941033999999999,0.015978966,-0.018109497,0.014913702,16.68,-13.08,-30.06
1554103107261,-7.1155677,-3.3955764999999998,5.113416,-0.0010652645,0.0010652645,-0.008522116,16.62,-13.08,-30.18
1554103107280,-7.192182000000001,-3.342904,4.835689,0.004261058,0.015978966,-0.008522116,16.56,-13.08,-30.3
1554103107301,-7.101202000000001,-3.3045970000000002,4.89315,0.014913702,0.029827405,-0.015978966,16.5,-13.08,-30.36
1554103107320,-7.2640080000000005,-3.2136172999999997,4.8165355000000005,-0.002130529,0.036218993,-0.027696876000000002,16.5,-13.14,-30.48
1554103107340,-7.359775999999999,-3.2471360000000002,5.0080714,-0.022370555,0.03195793,-0.036218993,16.44,-13.2,-30.54
1554103107361,-7.493850999999999,-3.0843303,5.0224366,-0.05539375,0.015978966,-0.047936900000000005,16.44,-13.2,-30.6
1554103107381,-7.5273699999999995,-3.1992521000000003,5.295376,-0.051132694000000006,-0.010652645,-0.05006743,16.44,-13.26,-30.48
1554103107400,-7.565677,-3.232771,5.309741000000001,-0.02876214,-0.035153727999999995,-0.041545313,16.5,-13.32,-30.48
1554103107421,-7.5034279999999995,-3.1561562999999997,5.1996074,0.0031957934000000003,-0.05006743,-0.026631612000000002,16.5,-13.32,-30.42
1554103107442,-7.4746976,-3.2423477000000003,5.228338,0.015978966,-0.053263225,-0.022370555,16.5,-13.38,-30.36
1554103107460,-7.603985000000001,-3.3572693,5.209184,-0.0031957934000000003,-0.051132694000000006,-0.024501082,16.5,-13.38,-30.3
1554103107480,-7.4842744,-3.3764230000000004,5.644929,-0.015978966,-0.046871635999999994,-0.015978966,16.56,-13.38,-30.24
1554103107501,-7.441178999999999,-3.5679589999999997,5.391144000000001,0.014913702,-0.033023197000000004,0.0063915867,16.56,-13.38,-30.18
1554103107521,-7.4028716,-3.520075,5.525219,0.04474111,-0.023435817999999997,0.020240024,16.56,-13.44,-30.18
1554103107540,-7.441178999999999,-3.5727474999999997,5.462969999999999,0.04474111,-0.022370555,0.029827405,16.56,-13.5,-30.3
1554103107560,-7.350199000000001,-3.5679589999999997,5.506065400000001,0.040480047000000005,-0.022370555,0.05006743,16.56,-13.62,-30.3
1554103107581,-7.278373200000001,-3.6110547,5.61141,0.040480047000000005,-0.026631612000000002,0.060720075,16.5,-13.68,-30.3
1554103107600,-7.168239999999999,-3.4099417,5.5347957999999995,0.05219796,-0.040480047000000005,0.07989483,16.44,-13.86,-30.3
1554103107621,-7.0102224,-3.4290953,5.755062000000001,0.06285059999999999,-0.05006743,0.09267801,16.32,-13.98,-30.3
1554103107640,-7.0245875999999985,-3.5440169999999998,5.903503,0.084155895,-0.051132694000000006,0.098004326,16.26,-14.1,-30.3
1554103107661,-6.933608,-3.481768,5.6976013,0.10972224,-0.04580637,0.10546118,16.2,-14.22,-30.3
1554103107681,-6.837839999999999,-3.4913447,5.6784476999999995,0.12357068,-0.036218993,0.094808534,16.14,-14.28,-30.24
1554103107700,-6.813898,-3.4626143,5.7646394,0.12463594,-0.023435817999999997,0.07243799,16.08,-14.34,-30.24
1554103107720,-6.794744500000001,-3.3859997,5.6640825,0.13102753,-0.017044231,0.04261058,16.02,-14.34,-30.24
1554103107741,-6.8091097000000005,-3.1848867000000003,5.7933699999999995,0.14168017,-0.013848438000000001,0.023435817999999997,15.96,-14.4,-30.24
1554103107760,-6.780379300000001,-3.1848867000000003,5.620987,0.14061491,-0.012783173500000002,0.00958738,15.96,-14.46,-30.24
1554103107780,-6.8569937,-3.0412347,5.7646394,0.14487597,-0.011717908999999999,-0.007456851,15.9,-14.76,-30.3
1554103107800,-6.885724000000001,-3.0508115,5.6401405,0.15552860000000002,-0.0053263223,-0.013848438000000001,15.9,-15.12,-30.3
1554103107821,-6.9288197,-2.8736405,5.6018333,0.17044231,-0.0031957934000000003,-0.03089267,15.84,-15.48,-30.36
1554103107841,-7.0102224,-3.0460230999999998,5.549161,0.16831179,0.0010652645,-0.04580637,15.78,-15.84,-30.36
1554103107861,-7.077260000000001,-2.9406781000000004,5.7646394,0.15765914,-0.0010652645,-0.05219796,15.78,-16.2,-30.36
1554103107881,-6.9527617,-2.9502552000000004,5.6497173,0.15552860000000002,-0.008522116,-0.06498113,15.84,-16.56,-30.36
1554103107901,-6.847417,-2.959832,5.7119665,0.13635385,-0.007456851,-0.07563378,15.96,-16.92,-30.36
1554103107921,-7.019799000000001,-3.0172927000000005,5.6736593,0.12996227,-0.008522116,-0.07882957,16.02,-17.16,-30.42
1554103107940,-7.0245875999999985,-2.9981391,5.659294,0.113983296,-0.02130529,-0.07563378,16.08,-17.22,-30.42
1554103107961,-7.0245875999999985,-2.9502552000000004,5.817312,0.10013486,-0.03834952,-0.07669904,16.14,-17.22,-30.42
1554103107980,-6.9383965,-2.8496985,5.7119665,0.10652645,-0.054328485999999995,-0.08628642,16.2,-17.16,-30.42
1554103108002,-7.038953,-2.806603,5.798158,0.10972224,-0.05965481,-0.09267801,16.26,-17.16,-30.36
1554103108021,-7.1969705,-2.8018146,5.6497173,0.10226539,-0.06285059999999999,-0.099069595,16.26,-17.16,-30.36
1554103108042,-7.0341644,-2.830545,5.8987145,0.09587380000000001,-0.06391586,-0.10333065,16.26,-17.16,-30.36
1554103108061,-7.067683000000001,-2.8257565,5.846042,0.10226539,-0.056459017,-0.10865697,16.26,-17.1,-30.3
1554103108080,-7.1586633,-2.8592752999999997,5.855619,0.09587380000000001,-0.051132694000000006,-0.111852765,16.2,-17.1,-30.24
1554103108100,-7.2831616,-2.9789855,5.807735,0.10652645,-0.05006743,-0.1107875,16.14,-17.1,-30.18
1554103108120,-7.3645644,-2.9885623,5.8747725,0.12037488,-0.051132694000000006,-0.099069595,16.08,-17.1,-30.12
1554103108140,-7.1490865,-2.9406781000000004,5.951387,0.15765914,-0.054328485999999995,-0.083090626,16.02,-17.1,-30.06
1554103108162,-7.019799000000001,-2.926313,5.7598505,0.16085494,-0.05006743,-0.06498113,15.96,-17.16,-30.0
1554103108181,-7.019799000000001,-2.8257565,5.7598505,0.1438107,-0.043675844000000005,-0.05219796,15.9,-17.16,-29.94
1554103108201,-7.1826053,-2.8496985,5.620987,0.11504856,-0.04261058,-0.053263225,15.84,-17.28,-29.88
1554103108221,-7.177817,-2.8401217,5.8604074,0.13209279,-0.053263225,-0.05752428,15.78,-17.34,-29.82
1554103108241,-6.9958572,-2.8736405,5.927445,0.15765914,-0.06178534,-0.047936900000000005,15.72,-17.4,-29.82
1554103108261,-6.8809357,-2.6629508,5.927445,0.17257284,-0.060720075,-0.05006743,15.6,-17.46,-29.82
1554103108281,-7.0341644,-2.8018146,5.716755,0.1768339,-0.054328485999999995,-0.056459017,15.48,-17.58,-29.76
1554103108301,-6.991069,-2.7443538,5.817312,0.1768339,-0.04261058,-0.06498113,15.42,-17.82,-29.76
1554103108320,-6.9671270000000005,-2.677316,5.7502737,0.17150758,-0.03195793,-0.07456851,15.3,-18.0,-29.76
1554103108340,-6.9048777,-2.629432,5.6401405,0.15446335,-0.024501082,-0.08841695,15.24,-18.24,-29.76
1554103108360,-6.9144545,-2.629432,5.7646394,0.14061491,-0.014913702,-0.09267801,15.18,-18.48,-29.76
1554103108380,-6.9527617,-2.6437972000000003,5.807735,0.13422333,-0.011717908999999999,-0.098004326,15.12,-18.72,-29.76
1554103108402,-6.900089299999999,-2.5911248,5.6401405,0.12144015,0.0010652645,-0.11611383,15.06,-18.96,-29.76
1554103108421,-6.885724000000001,-2.5432408,5.525219,0.08522116,0.010652645,-0.13528858,15.12,-19.14,-29.76
1554103108441,-7.043741000000001,-2.6916811000000003,5.7454852999999995,0.036218993,0.015978966,-0.1768339,15.18,-19.32,-29.76
1554103108461,-7.019799000000001,-2.926313,5.994482499999999,0.043675844000000005,0.020240024,-0.19813919,15.24,-19.44,-29.7
1554103108481,-6.95755,-3.0508115,5.965751999999999,0.12250541,0.029827405,-0.19281286,15.36,-19.5,-29.7
1554103108501,-7.038953,-2.902371,5.8412538,0.18109496,0.043675844000000005,-0.18216023,15.48,-19.5,-29.64
1554103108521,-7.091625,-2.7874494,5.6784476999999995,0.16618125,0.051132694000000006,-0.17150758,15.54,-19.5,-29.58
1554103108540,-7.177817,-2.8113914,5.879561,0.053263225,0.05006743,-0.16405073,15.6,-19.56,-29.58
1554103108560,-7.1969705,-2.7587189999999997,5.7790045999999995,-0.002130529,0.04580637,-0.14487597,15.66,-19.62,-29.52
1554103108582,-7.1490865,-2.7635074,5.7598505,-0.041545313,0.039414786,-0.12463594,15.66,-19.68,-29.52
1554103108600,-7.129933,-2.8880057,5.879561,-0.060720075,0.035153727999999995,-0.10013486,15.72,-19.74,-29.52
1554103108620,-7.091625,-2.7778726000000002,5.831677,-0.056459017,0.041545313,-0.08522116,15.72,-19.74,-29.46
1554103108640,-7.067683000000001,-2.8209682000000003,5.9849057,-0.06178534,0.05965481,-0.080960095,15.72,-19.8,-29.52
1554103108660,-6.9767036,-2.7682957999999998,5.788581400000001,-0.053263225,0.080960095,-0.083090626,15.72,-19.86,-29.52
1554103108681,-7.067683000000001,-2.8975825,5.7598505,-0.05006743,0.10439592,-0.08628642,15.72,-19.86,-29.52
1554103108700,-7.134721300000001,-2.926313,5.879561,-0.037284255,0.13315806,-0.09161274,15.72,-19.86,-29.52
1554103108722,-7.2113357,-2.9550436,5.7502737,0.0,0.14807177,-0.10226539,15.72,-19.86,-29.58
1554103108741,-7.144297999999999,-2.8496985,5.5826797,0.022370555,0.15765914,-0.10972224,15.72,-19.86,-29.52
1554103108761,-7.134721300000001,-2.8353333,5.6640825,0.023435817999999997,0.15978967,-0.10759171,15.78,-19.8,-29.52
1554103108780,-7.2113357,-2.9311013,5.6736593,-0.00958738,0.16085494,-0.10865697,15.78,-19.8,-29.52
1554103108800,-7.2352777,-2.9837740000000004,5.568314599999999,-0.06391586,0.1587244,-0.101200126,15.78,-19.8,-29.52
1554103108822,-7.326257000000001,-3.2950199999999996,5.6784476999999995,-0.05539375,0.14487597,-0.096939065,15.78,-19.74,-29.46
1554103108840,-7.374141000000001,-3.2136172999999997,5.5922565,0.0010652645,0.12144015,-0.09054748,15.9,-19.74,-29.4
1554103108861,-7.350199000000001,-3.117849,5.6257753,0.040480047000000005,0.10652645,-0.068176925,15.96,-19.68,-29.34
1554103108881,-7.4699089999999995,-3.1848867000000003,5.3815669999999995,0.096939065,0.10013486,-0.046871635999999994,16.08,-19.62,-29.28
1554103108901,-7.493850999999999,-3.151368,5.472546599999999,0.11504856,0.07989483,-0.029827405,16.2,-19.56,-29.22
1554103108920,-7.3406224,-3.007716,5.707178,0.14594123,0.07456851,-0.008522116,16.38,-19.5,-29.16
1554103108940,-7.3310455999999995,-2.878429,5.462969999999999,0.14487597,0.07456851,-0.008522116,16.56,-19.5,-29.1
1554103108960,-7.240066000000001,-2.8161798,5.458181400000001,0.08628642,0.07350325,0.008522116,16.68,-19.62,-29.04
1554103108980,-7.2065472999999995,-2.902371,5.4917,0.07989483,0.07350325,-0.007456851,16.74,-19.62,-29.04
1554103109001,-7.3406224,-2.8880057,5.6545057,0.111852765,0.083090626,-0.029827405,16.8,-19.8,-29.04
1554103109020,-7.374141000000001,-2.9215245,5.4055089999999995,0.17470337,0.10439592,-0.025566347000000003,16.86,-19.92,-28.98
1554103109040,-7.3645644,-2.7060466,5.285799,0.16298546,0.10546118,-0.023435817999999997,16.92,-20.04,-28.98
1554103109060,-7.3406224,-2.8688521000000002,5.156512,0.10972224,0.082025364,-0.025566347000000003,16.98,-20.22,-28.98
1554103109082,-7.2975270000000005,-2.6198552000000004,5.5826797,0.13635385,0.080960095,-0.05219796,16.98,-20.34,-28.98
1554103109101,-7.3549875999999985,-2.7491422,5.242703,0.18535602,0.068176925,-0.05965481,16.98,-20.4,-28.92
1554103109121,-7.374141000000001,-2.6868927000000005,5.237914599999999,0.16405073,0.06178534,-0.036218993,17.04,-20.46,-28.86
1554103109142,-7.4124484,-2.830545,5.357625,0.15233281,0.039414786,-0.041545313,17.1,-20.46,-28.86
1554103109160,-7.4842744,-2.7922377999999997,5.1613,0.07030745599999999,0.008522116,-0.03089267,17.22,-20.52,-28.8
1554103109180,-7.2927384,-2.8640637000000004,5.395932,0.12144015,-0.017044231,-0.02876214,17.34,-20.52,-28.74
1554103109200,-7.493850999999999,-2.7539306,5.563526,0.15552860000000002,-0.020240024,-0.025566347000000003,17.46,-20.58,-28.62
1554103109221,-7.6135616,-2.5384523999999997,5.122993,0.12357068,-0.040480047000000005,-0.010652645,17.58,-20.64,-28.56
1554103109240,-7.4363904000000005,-2.6390088,5.3145294000000005,0.10013486,-0.05752428,-0.013848438000000001,17.64,-20.64,-28.5
1554103109261,-7.326257000000001,-2.6725276,5.544372599999999,0.014913702,-0.05219796,0.007456851,17.76,-20.64,-28.44
1554103109281,-7.383717999999999,-2.5863364,5.635351999999999,0.007456851,-0.051132694000000006,0.017044231,17.82,-20.7,-28.38
1554103109300,-7.4363904000000005,-2.581548,5.367202,-0.07030745599999999,-0.049002163,0.018109497,17.88,-20.76,-28.32
1554103109320,-7.3885064,-2.677316,5.506065400000001,-0.11824436,-0.041545313,0.026631612000000002,17.88,-20.76,-28.32
1554103109341,-7.3310455999999995,-2.9933507,5.7119665,-0.053263225,-0.029827405,0.01917476,17.82,-20.82,-28.26
1554103109361,-7.4603324,-2.7491422,5.893926,0.010652645,-0.018109497,0.015978966,17.76,-20.88,-28.2
1554103109380,-7.3166804,-2.8688521000000002,5.4964886,0.07243799,-0.00958738,0.049002163,17.76,-20.94,-28.2
1554103109402,-7.1969705,-2.3133974,5.544372599999999,0.09054748,-0.017044231,0.05219796,17.7,-21.0,-28.14
1554103109420,-7.2448545,-2.4426842,5.367202,0.07243799,-0.01917476,0.020240024,17.7,-21.0,-28.14
1554103109441,-7.3166804,-2.4809916000000003,5.453393,0.023435817999999997,-0.022370555,0.0063915867,17.64,-21.06,-28.08
1554103109461,-7.254431200000001,-2.581548,5.668871,-0.014913702,-0.023435817999999997,-0.002130529,17.64,-21.18,-28.08
1554103109480,-7.350199000000001,-2.4714148,5.568314599999999,-0.0053263223,-0.03195793,0.0053263223,17.64,-21.24,-28.08
1554103109500,-7.1969705,-2.4570496,5.5347957999999995,-0.06285059999999999,-0.037284255,0.0063915867,17.64,-21.36,-28.08
