TimeStamp,Ax,Ay,Az,Gx,Gy,Gz,Mx,My,Mz
1554880546548,-7.690175999999999,-1.417966,4.68246,0.1587244,0.05752428,-0.0010652645,6.9,68.22,0.54
1554880546568,-7.920019,-1.6190788999999999,4.6680946,0.20772657,0.09374327,-0.03834952,7.08,67.98,0.54
1554880546589,-8.106767,-1.7004818,4.9984946,0.15765914,0.12357068,0.010652645,7.14,67.74,0.6
1554880546609,-8.049306,-1.834557,4.926668599999999,0.06924219,0.10333065,0.098004326,7.2,67.62,0.66
1554880546629,-8.006210000000001,-1.9782091,4.759074,-0.022370555,0.06178534,0.11717909,7.26,67.56,0.78
1554880546648,-8.365341,-1.6430208999999998,4.883573,-0.08948222,0.08948222,0.098004326,7.32,67.44,0.84
1554880546669,-8.39886,-1.2120646000000002,5.1660886,-0.084155895,0.112918034,0.10865697,7.38,67.38,0.84
1554880546690,-8.0445175,-1.2934675,5.276222,0.05006743,0.111852765,0.13209279,7.38,67.32,0.9
1554880546708,-7.97748,-1.1689690000000001,5.367202,0.2034655,0.14168017,0.16937704,7.44,67.2,0.96
1554880546728,-8.001422,-1.0061632,5.228338,0.29507825,0.15446335,0.12250541,7.5,67.08,0.96
1554880546749,-8.101977999999999,-1.1115081,4.735132,0.18642128,0.16724652,0.099069595,7.5,66.84,1.08
1554880546768,-8.1881695,-1.1737574,4.490924,-0.020240024,0.15339808,0.12463594,7.56,66.78,1.08
1554880546789,-8.24563,-1.216853,4.7207669999999995,-0.25992453,0.12463594,0.12037488,7.56,66.66,1.08
1554880546809,-7.9487495,-1.0253168,5.0224366,-0.26312032,0.02876214,0.060720075,7.56,66.54,1.14
1554880546828,-7.929596000000001,-0.8912416,5.0798974,-0.10865697,0.0063915867,0.054328485999999995,7.56,66.42,1.14
1554880546849,-8.015787,-1.2072762,4.936245400000001,-0.010652645,0.011717908999999999,0.07563378,7.62,66.3,1.14
1554880546868,-7.9248075,-1.5328877,4.7782279999999995,-0.12037488,0.049002163,0.08628642,7.68,66.24,1.2
1554880546888,-7.9583262999999995,-1.3844471,4.912303400000001,-0.21837921,0.06178534,0.06285059999999999,7.74,66.18,1.2
1554880546909,-8.001422,-1.1833341999999998,4.6297874000000006,-0.221575,0.023435817999999997,0.020240024,7.98,66.12,1.26
1554880546928,-8.0445175,-0.8098387,4.835689,-0.26738137,-0.004261058,0.01917476,8.1,66.06,1.32
1554880546949,-8.039729,-0.83378077,5.01286,-0.2727077,0.018109497,-0.007456851,8.22,66.06,1.44
1554880546969,-8.130709,-1.3365631000000002,4.7159786,-0.30679616,0.05006743,-0.022370555,8.4,66.06,1.56
1554880546989,-8.384495,-1.4466964,4.7303440000000005,-0.4165184,0.06924219,-0.041545313,8.52,66.06,1.74
1554880547008,-8.475474,-1.4993688,4.5675383,-0.55074173,0.06604639400000001,-0.053263225,8.58,66.06,1.92
1554880547028,-8.312667999999999,-1.4706384,4.7878050000000005,-0.59761333,0.03089267,-0.04580637,8.58,66.06,2.04
1554880547048,-8.001422,-1.3557166999999999,5.209184,-0.48682585,0.00958738,-0.0010652645,8.52,66.06,2.22
1554880547069,-8.034941,-1.5185224,5.1613,-0.23648871,0.027696876000000002,0.008522116,8.52,65.94,2.34
1554880547089,-8.350976,-1.7866731,5.204396,0.012783173500000002,0.02130529,-0.012783173500000002,8.46,65.82,2.58
1554880547108,-8.571242,-1.8968061999999999,4.7830167,-0.012783173500000002,-0.013848438000000001,0.0053263223,8.4,65.7,2.94
1554880547128,-8.317456,-1.8441339,4.7734394,-0.23222765,-0.026631612000000002,0.022370555,8.34,65.58,3.18
1554880547149,-8.106767,-1.6621746,4.835689,-0.40373522,-0.033023197000000004,0.035153727999999995,8.28,65.46,3.48
1554880547168,-8.0924015,-1.46585,5.003283000000001,-0.35153726,-0.03834952,0.033023197000000004,8.22,65.4,3.72
1554880547189,-8.0684595,-1.5376761,4.869208,-0.2130529,-0.06178534,0.023435817999999997,8.22,65.28,3.9
1554880547209,-8.073248,-1.7483658,4.907515,-0.10226539,-0.101200126,0.015978966,8.22,65.16,4.14
1554880547229,-8.288725999999999,-1.8441339,4.7016134,-0.13315806,-0.10333065,0.010652645,8.22,65.1,4.38
1554880547248,-8.24563,-1.5951369,5.060744000000001,-0.18748654,-0.080960095,0.0063915867,8.22,65.04,4.5
1554880547268,-7.929596000000001,-1.7531542000000002,4.5723267,-0.15126756,-0.11504856,0.008522116,8.22,64.98,4.44
1554880547289,-8.154651,-1.8441339,4.6633059999999995,-0.18216023,-0.10546118,0.023435817999999997,8.22,64.92,4.5
1554880547309,-8.504205,-1.7914615000000003,5.003283000000001,-0.17470337,-0.08948222,0.023435817999999997,8.28,64.86,4.5
1554880547329,-8.293514,-1.7292121999999999,4.869208,-0.09161274,-0.06924219,0.05219796,8.28,64.86,4.5
1554880547348,-8.039729,-1.8393455,4.586692,-0.113983296,-0.05965481,0.11824436,8.28,64.8,4.56
1554880547368,-8.259995,-1.9542671000000003,4.4765587,-0.33981937,-0.039414786,0.14807177,8.28,64.74,4.62
1554880547389,-8.173803999999999,-1.5089456,5.027225,-0.49215218,-0.020240024,0.07669904,8.34,64.68,4.68
1554880547409,-8.034941,-1.7100586,5.137358,-0.2876214,-0.02876214,0.0063915867,8.34,64.62,4.68
1554880547429,-8.164227499999999,-2.0260932,4.9027267,-0.053263225,0.0,0.09587380000000001,8.34,64.56,4.74
1554880547449,-8.078036,-1.9063831999999998,4.8979383,0.09161274,0.008522116,0.15552860000000002,8.34,64.44,4.8
1554880547469,-7.963114699999999,-1.8537107,4.4621935,0.2034655,-0.011717908999999999,0.099069595,8.4,64.38,4.86
1554880547489,-8.221688,-1.8441339,4.3185415,0.05965481,-0.06285059999999999,0.068176925,8.46,64.32,4.98
1554880547508,-10.070012,-1.039682,7.9385743,-0.113983296,0.13741912,0.053263225,8.52,64.26,5.1
1554880547528,-9.217675999999999,-0.670975,4.7782279999999995,-0.1949434,0.17789917,0.011717908999999999,8.58,64.2,5.22
1554880547548,-7.7572136,-1.8154035,5.668871,-0.24714136,0.2790993,0.15659387,8.64,64.14,5.34
1554880547568,-7.0102224,-1.9446903000000002,5.9561753,0.09374327,0.44101948,0.2972088,8.76,64.08,5.46
1554880547588,-7.043741000000001,-2.7682957999999998,3.9067385000000003,0.8298409999999999,0.3153183,0.17789917,8.88,63.9,5.58
1554880547608,-7.4124484,-2.3995886000000004,3.1884782000000005,1.0141318000000001,0.18961707,0.07989483,9.0,63.78,5.7
1554880547628,-7.7667904000000005,-2.15538,2.8149827000000003,0.7307714,0.07989483,0.14274544,9.0,63.6,5.76
1554880547648,-7.8003089999999995,-1.3365631000000002,3.413533,0.4133226,0.00958738,0.18109496,9.06,63.48,5.82
1554880547669,-7.752425,-0.21607670000000004,3.0879216,0.2876214,-0.09161274,0.017044231,9.12,63.36,5.82
1554880547689,-7.603985000000001,-0.11552023,3.566762,-0.1107875,-0.10013486,-0.096939065,9.12,63.24,5.7
1554880547708,-7.7811556,0.24361002,4.4382515,-0.5592638000000001,-0.08841695,-0.20985709,9.12,63.06,5.58
1554880547728,-7.9391727,-0.41718966,4.1317935,-0.9331716999999998,-0.112918034,-0.28975195,9.12,63.06,5.46
1554880547749,-7.9487495,-1.5089456,4.490924,-1.4242586000000002,-0.082025364,-0.36218992,9.18,63.06,5.28
1554880547769,-7.666233999999999,-2.236783,5.367202,-1.5297197,-0.013848438000000001,-0.47830373,9.18,63.06,5.22
1554880547789,-7.7189064,-2.8209682000000003,5.7215432999999996,-1.3305153,0.012783173500000002,-0.5028047999999999,9.12,63.06,5.22
1554880547809,-7.493850999999999,-2.6007016,5.5347957999999995,-0.86392945,-0.029827405,-0.49321744,9.12,63.0,5.34
1554880547829,-7.541735000000001,-2.7012582000000003,5.0320134,-0.23755397,-0.07989483,-0.49321744,9.0,63.0,5.52
1554880547849,-7.967903,-2.7252002,4.4765587,0.23648871,-0.16192019,-0.5273059,8.88,63.0,5.94
1554880547869,-8.006210000000001,-2.8209682000000003,4.371214,0.44634579999999996,-0.21624869,-0.55606806,8.76,63.0,6.3
1554880547889,-7.5608889999999995,-2.8449101000000003,4.5196543,0.43249738,-0.28975195,-0.5273059,8.64,63.0,6.66
1554880547909,-7.2352777,-2.8018146,4.44304,0.34088463,-0.31318775,-0.5187838,8.52,63.06,7.02
1554880547929,-7.4986396,-2.9406781000000004,4.907515,0.21092236,-0.31212249999999997,-0.5773733,8.4,63.18,7.32
1554880547949,-7.632714999999999,-2.677316,4.529230999999999,0.099069595,-0.35899413,-0.64768076,8.22,63.42,7.44
1554880547968,-7.4124484,-3.0029275,4.347272,0.04474111,-0.37923414,-0.65513766,8.04,63.66,7.5
1554880547988,-6.9527617,-3.3859997,4.5100775,-0.018109497,-0.36218992,-0.6199839,7.86,63.96,7.44
1554880548009,-6.9623384,-3.3572693,4.926668599999999,-0.10439592,-0.28975195,-0.6679208000000001,7.68,64.26,7.26
1554880548028,-7.249642999999999,-3.5296519,5.089474,-0.29827404,-0.20240025,-0.8021441,7.44,64.62,7.14
1554880548048,-7.3645644,-3.8265328000000003,5.395932,-0.4282363,-0.10013486,-0.809601,7.14,65.04,6.96
1554880548069,-7.2209125,-4.147355999999999,5.462969999999999,-0.3536678,0.025566347000000003,-0.7137272,6.78,65.52,6.84
1554880548089,-7.350199000000001,-4.621408,5.065532,-0.011717908999999999,0.03089267,-0.628506,6.3,66.06,6.72
1554880548109,-7.153875,-4.64535,4.7159786,0.26205507,0.03195793,-0.61678815,5.94,66.48,6.66
1554880548129,-7.153875,-4.252701,4.955399,0.38136467,0.09161274,-0.69029135,5.52,66.96,6.66
1554880548149,-7.120356,-3.9989154,4.706402,0.3291667,0.14807177,-0.72651035,5.16,67.32,6.66
1554880548169,-7.2113357,-4.0372224,4.634576,0.09374327,0.2428803,-0.6668556,4.86,67.68,6.66
1554880548189,-7.3406224,-4.19524,4.735132,-0.23329292,0.35792887,-0.6412892,4.56,68.04,6.66
1554880548208,-7.441178999999999,-4.4921207,4.079121,-0.46232477,0.36432046,-0.69668293,4.26,68.4,6.6
1554880548228,-7.369353,-4.678869000000001,4.2754455,-0.59761333,0.46871635,-0.7041398,4.02,68.76,6.66
1554880548249,-7.4268136,-4.6884456,4.7255554,-0.61572284,0.60507023,-0.6849651,3.66,69.0,6.72
1554880548269,-7.4124484,-4.7842135,4.5148660000000005,-0.6221144000000001,0.7456851,-0.6711166000000001,3.18,69.18,6.96
1554880548289,-7.383717999999999,-4.9422307,4.0599675,-0.7222493000000001,0.8767126000000001,-0.6593986999999999,2.64,69.42,7.26
1554880548309,-7.5369470000000005,-4.9278655,3.7247794,-0.85540736,1.015197,-0.6668556,2.16,69.66,7.62
1554880548328,-7.642291999999999,-4.827309,3.198055,-1.031176,1.0471549,-0.6679208000000001,1.56,69.9,8.04
1554880548349,-7.546523599999999,-4.7937902999999995,2.9107506,-1.2825783000000002,1.019458,-0.6263755,0.96,70.08,8.52
1554880548369,-7.546523599999999,-5.0092683,2.6234465,-1.5222628999999999,0.9491506,-0.59228706,0.36,70.2,9.18
1554880548389,-7.551311999999999,-5.502473999999999,2.3840263,-1.7225326,0.8341021000000001,-0.572047,-0.18,70.14,10.02
1554880548409,-7.771578999999999,-5.8089319999999995,2.6809072,-1.7587515999999999,0.69029135,-0.5336975,-0.72,70.08,10.86
1554880548429,-7.656657000000001,-6.201581,2.594716,-1.6042882,0.56672066,-0.49534798,-1.32,69.72,11.52
1554880548449,-7.5369470000000005,-6.431424,2.7623102999999998,-1.4008228,0.49428272,-0.46978164,-2.04,69.24,12.24
1554880548469,-7.4842744,-6.4026937,2.6569653,-1.0684601999999999,0.41971418,-0.4708469,-2.7,68.7,13.08
1554880548488,-7.4699089999999995,-6.4026937,2.3265655,-0.8064051999999999,0.38456047,-0.44847634,-3.36,68.04,13.92
1554880548508,-7.4746976,-6.541558,1.8429368000000002,-0.6295713000000001,0.34834146,-0.42184472,-4.02,67.32,14.76
1554880548529,-7.4363904000000005,-6.522404,1.4550761,-0.4133226,0.30892670000000005,-0.40373522,-4.68,66.48,15.48
1554880548549,-7.383717999999999,-6.541558,1.2108675,-0.23222765,0.28229508,-0.34727620000000003,-5.28,65.7,16.14
1554880548569,-7.374141000000001,-6.503250599999999,1.0959458,-0.12357068,0.27164245,-0.29507825,-5.82,64.92,16.74
1554880548588,-7.3789296,-6.4457892999999995,0.95708215,-0.098004326,0.2428803,-0.25672874,-6.18,64.44,17.4
1554880548608,-7.5608889999999995,-6.4362125,0.7751228,-0.14061491,0.19707392,-0.21944448,-6.48,64.08,17.94
1554880548629,-7.445967,-6.5990186,0.9091981,-0.20772657,0.14061491,-0.15765914,-7.14,63.66,18.54
1554880548648,-7.3406224,-6.5655,0.99060094,-0.25246766,0.082025364,-0.12037488,-7.56,63.54,18.84
1554880548669,-7.225700999999999,-6.5655,0.81343,-0.24074976,0.026631612000000002,-0.12783173,-7.92,63.48,19.02
1554880548689,-7.0820484,-6.5511346,0.6889314999999999,-0.221575,-0.008522116,-0.14061491,-8.1,63.42,19.08
1554880548709,-7.1634517,-6.680421400000001,1.1821371,-0.22583607,-0.083090626,-0.17363810000000002,-8.64,63.24,19.2
1554880548728,-7.153875,-6.843227000000001,1.2012907,-0.25033715,-0.08735169,-0.20453078,-8.88,63.06,19.2
1554880548749,-7.1395097000000005,-6.8671690000000005,1.1294646000000002,-0.26844665,-0.07243799,-0.21731395,-9.12,62.94,19.2
1554880548769,-7.201759,-6.8863225,1.0097545,-0.28655612,-0.054328485999999995,-0.22050974,-9.24,62.76,19.26
1554880548789,-7.086836999999999,-6.8863225,0.8900445,-0.23755397,-0.049002163,-0.22796659,-9.24,62.58,19.26
1554880548809,-7.015011,-6.8767457,0.9283517,-0.13315806,-0.02876214,-0.19707392,-9.24,62.34,19.32
1554880548829,-7.029375999999999,-6.9581485,0.6697779,-0.054328485999999995,0.024501082,-0.13528858,-9.3,62.04,19.32
1554880548849,-6.9958572,-6.9581485,0.7032967,-0.07776430000000001,0.06391586,-0.07989483,-9.36,61.86,19.38
1554880548869,-6.871359,-6.8528037,0.57400984,-0.16937704,0.05965481,-0.040480047000000005,-9.42,61.74,19.38
1554880548889,-6.7612257,-6.8671690000000005,0.56443304,-0.24927188,0.058589544,-0.007456851,-9.48,61.56,19.44
1554880548909,-6.766014,-6.8049197,0.57400984,-0.23648871,0.05539375,0.013848438000000001,-9.54,61.32,19.44
1554880548929,-6.588842999999999,-6.5271926,0.46866497,-0.20985709,0.053263225,0.036218993,-9.54,61.14,19.5
1554880548948,-6.569689299999999,-6.541558,0.18614918,-0.26205507,0.043675844000000005,0.05006743,-9.6,60.96,19.62
1554880548968,-6.6989765,-6.747458999999999,0.15263036,-0.38136467,0.018109497,0.036218993,-9.66,60.84,19.68
1554880548989,-6.670246000000001,-7.0491285,0.3298013,-0.47297743,-0.029827405,-0.004261058,-9.66,60.78,19.86
1554880549009,-6.555324000000001,-7.1448965,0.5069722,-0.41438788,-0.05965481,-0.049002163,-9.66,60.72,20.04
1554880549028,-6.5218053,-7.140108000000001,0.28670564,-0.2908172,-0.07137272,-0.08948222,-9.66,60.66,20.28
1554880549049,-6.483498,-7.2454529999999995,0.39205053,-0.12783173,-0.08841695,-0.128897,-9.6,60.6,20.52
1554880549069,-6.445191,-7.2741833,0.5835866999999999,0.043675844000000005,-0.10652645,-0.17044231,-9.6,60.54,20.76
1554880549089,-6.3685765,-7.2023573,0.3776853,0.18109496,-0.098004326,-0.18216023,-9.6,60.36,21.0
1554880549109,-6.5792660000000005,-7.149685000000001,0.40641573,0.27803403,-0.07669904,-0.16831179,-9.6,60.18,21.18
1554880549129,-6.5601125,-7.149685000000001,0.43514615,0.34194988,-0.04580637,-0.14807177,-9.6,60.0,21.36
1554880549149,-6.732495299999999,-7.1209545,0.31064767,0.37071204,-0.013848438000000001,-0.11504856,-9.6,59.82,21.48
1554880549169,-6.627150500000001,-7.1353197,0.25797522,0.39308259999999995,0.01917476,-0.084155895,-9.6,59.64,21.48
1554880549189,-6.8330517,-7.140108000000001,0.22924481,0.41758367,0.053263225,-0.047936900000000005,-9.66,59.52,21.42
1554880549208,-6.813898,-7.0251865,0.44472298,0.4165184,0.08522116,-0.00958738,-9.66,59.46,21.3
1554880549228,-6.770802499999999,-7.029975,0.46387658,0.39627838,0.112918034,0.018109497,-9.66,59.58,21.18
1554880549249,-6.799533,-7.044339999999999,0.57400984,0.36325517,0.13209279,0.03834952,-9.66,59.88,21.06
1554880549269,-6.789956,-6.929417999999999,0.66498953,0.3536678,0.13848437,0.051132694000000006,-9.72,60.3,20.94
1554880549288,-6.7612257,-7.029975,0.8182184,0.38242993,0.12463594,0.05752428,-9.72,60.66,20.82
1554880549308,-6.823475,-6.900687700000001,0.8996213,0.44528055,0.12783173,0.07243799,-9.72,61.02,20.64
1554880549329,-6.8426285,-6.9725137,0.7128736,0.5070659000000001,0.13209279,0.07776430000000001,-9.72,61.44,20.46
1554880549349,-6.8426285,-6.824073299999999,0.82779527,0.5049353,0.1107875,0.07137272,-9.72,61.74,20.34
1554880549368,-6.871359,-6.819285000000001,0.8086416000000001,0.46232477,0.07776430000000001,0.053263225,-9.78,62.04,20.16
1554880549388,-6.8091097000000005,-6.800131299999999,0.7368156,0.41119209999999995,0.02876214,0.02876214,-9.78,62.34,20.04
1554880549409,-6.895301,-6.737882000000001,0.6889314999999999,0.3568636,-0.039414786,-0.0053263223,-9.84,62.58,19.8
1554880549428,-6.947973299999999,-6.7187285,0.6889314999999999,0.30040458,-0.099069595,-0.025566347000000003,-9.84,62.64,19.68
1554880549448,-6.871359,-6.7283053,0.9235633,0.22477080000000002,-0.18322548,-0.053263225,-9.9,62.88,19.5
1554880549469,-6.8186865,-6.7666125,1.0049661,0.16618125,-0.27164245,-0.099069595,-9.9,63.3,19.2
1554880549489,-6.8809357,-6.843227000000001,1.2204443,0.15020229,-0.32597092,-0.12463594,-9.96,63.54,19.02
1554880549510,-6.847417,-6.905475999999999,1.4119805,0.19174760000000002,-0.37923414,-0.14594123,-10.02,63.9,18.9
1554880549529,-6.9096660000000005,-6.785766000000001,1.6130934,0.29294774,-0.42717105,-0.15978967,-10.02,64.14,18.72
1554880549549,-6.885724000000001,-6.795342999999999,1.7280151000000001,0.39308259999999995,-0.47297743,-0.16618125,-10.08,64.32,18.66
1554880549568,-6.9288197,-6.7187285,1.9195513,0.48682585,-0.5251754,-0.18216023,-10.08,64.56,18.54
1554880549589,-6.981492,-6.512827400000001,1.9674352,0.5603291,-0.5752428,-0.19707392,-10.02,64.74,18.36
1554880549609,-7.062895,-6.5655,2.0632033,0.5901565,-0.63702816,-0.21411815,-9.96,64.98,18.24
1554880549628,-7.0006455999999995,-6.4362125,2.297835,0.572047,-0.71798825,-0.24714136,-9.84,65.22,18.0
1554880549650,-6.8905125,-6.359598,2.4271219,0.5113269,-0.80533993,-0.26418558,-9.72,65.46,17.7
1554880549668,-6.924031299999999,-6.4601545,2.498948,0.45593318,-0.86606,-0.26738137,-9.48,65.76,17.34
1554880549688,-6.6510925,-6.512827400000001,2.9346926,0.45273739999999996,-0.92038846,-0.2609898,-9.3,66.12,17.1
1554880549709,-6.6367273,-6.570288000000001,2.9873652,0.50173956,-0.9779128,-0.2695119,-9.12,66.42,16.74
1554880549729,-6.459556,-6.407482,3.0639796,0.49747851,-1.031176,-0.29188246,-8.88,66.9,16.44
1554880549749,-6.4164605,-6.335656,3.221997,0.44101948,-1.0535465,-0.28868666,-8.76,67.32,16.08
1554880549768,-6.4068837,-6.330868,3.2650926,0.42290998,-1.0599382,-0.28549087,-8.58,67.8,15.78
1554880549788,-6.3111157,-6.335656,3.5284547999999996,0.43675843,-1.0801781000000001,-0.28975195,-8.4,68.22,15.6
1554880549808,-6.0333879999999995,-6.2925606,3.5715504,0.44741106,-1.0972224,-0.28868666,-8.22,68.7,15.36
1554880549829,-6.0381765,-6.369175,3.470994,0.38775626,-1.0982877,-0.25353295,-8.04,69.12,15.06
1554880549849,-5.7700260000000005,-6.3643866,3.6577415,0.30466563,-1.1025486999999998,-0.22264028,-7.8,69.48,14.64
1554880549869,-5.588066599999999,-6.4601545,3.6242227999999996,0.20240025,-1.0982877,-0.18109496,-7.5,69.96,14.22
1554880549889,-5.506664,-6.4505777,3.767875,0.053263225,-1.0833739,-0.13954964,-7.2,70.32,13.86
1554880549909,-5.3103394999999995,-6.642114,3.7152026,-0.13954964,-1.0546118,-0.10865697,-6.84,70.62,13.5
1554880549929,-5.1475334,-6.881533999999999,3.8253357000000006,-0.33875409999999995,-1.0066749,-0.06178534,-6.54,70.86,13.14
1554880549948,-4.9559975,-7.3460092999999995,3.9785647000000006,-0.45167214,-0.9395633,0.026631612000000002,-6.24,71.1,12.84
1554880549970,-4.6016555,-7.5375457,3.9354692000000004,-0.47936899999999993,-0.8490158000000001,0.11504856,-5.88,71.28,12.6
1554880549988,-4.314351599999999,-7.599794999999999,3.9211037,-0.43888897,-0.753142,0.19174760000000002,-5.52,71.4,12.54
1554880550009,-4.1419687000000005,-7.5758529999999995,3.9163153,-0.36112466,-0.6380934,0.29188246,-5.16,71.46,12.48
1554880550029,-3.9504328,-7.475296000000001,4.1078515,-0.2428803,-0.535828,0.38562572,-4.68,71.34,12.48
1554880550048,-3.8738184,-7.379528,4.217984700000001,-0.10439592,-0.45060685,0.44208476,-4.08,71.16,12.48
1554880550069,-3.8355112,-7.2071457,4.174889,-0.02130529,-0.3717773,0.47936899999999993,-3.6,70.98,12.48
1554880550088,-3.8067808,-7.1975690000000005,4.5196543,-0.046871635999999994,-0.29614353,0.49108690000000005,-3.12,70.8,12.42
1554880550108,-3.7014358,-6.9820905,4.466982,-0.10972224,-0.23648871,0.47404268,-2.58,70.62,12.42
1554880550129,-3.98874,-6.9150529999999995,4.385579,-0.13422333,-0.20879184,0.4314321,-2.16,70.38,12.36
1554880550149,-4.098873,-6.7283053,4.672883000000001,-0.19813919,-0.20985709,0.36112466,-1.5,70.02,12.24
1554880550169,-4.0653543,-6.7426705,4.821324,-0.26631612,-0.2066613,0.31105720000000003,-1.32,69.9,12.24
1554880550188,-4.213794999999999,-6.8049197,4.744708999999999,-0.3568636,-0.19387813,0.21837921,-0.96,69.6,12.12
1554880550209,-4.0557775000000005,-6.6612678,4.955399,-0.43782368,-0.15659387,0.10546118,-0.48,69.12,12.06
1554880550229,-4.2185836,-6.5607114,5.0224366,-0.43675843,-0.12676647,0.05965481,-0.3,68.94,12.0
1554880550249,-4.525041000000001,-6.5607114,4.888361499999999,-0.41119209999999995,-0.09374327,-0.017044231,0.24,68.4,12.0
1554880550268,-4.6255975,-6.618172,4.7255554,-0.45806372,-0.08522116,-0.05965481,0.36,68.22,12.06
1554880550289,-4.783615,-6.785766000000001,4.5340195,-0.60933125,-0.05006743,-0.13848437,0.78,67.68,12.12
1554880550309,-4.8362875,-6.8528037,4.4143095,-0.7574029999999999,-0.03089267,-0.18429075,0.84,67.32,12.24
1554880550328,-5.0038815,-7.2454529999999995,4.0839095,-0.8447546999999999,-0.01917476,-0.18002969,0.9,66.96,12.42
1554880550349,-4.9895163,-7.4896617,3.9594111000000005,-0.9470200999999999,-0.002130529,-0.17363810000000002,0.78,66.6,12.72
1554880550369,-5.080496,-7.767389,3.9067385000000003,-1.0333065000000001,0.014913702,-0.18748654,0.6,66.24,13.08
1554880550388,-5.0134583,-8.06427,3.9929300000000003,-1.0290455,0.025566347000000003,-0.17257284,0.42,65.82,13.32
1554880550410,-5.0421886,-7.992444,3.8971617,-0.9139969000000001,0.02876214,-0.13741912,0.18,65.34,13.62
1554880550428,-4.927267,-7.901464,3.9498343,-0.78296936,0.0063915867,-0.083090626,0.0,64.8,13.86
1554880550448,-4.960786,-7.6907744000000005,3.8301241000000004,-0.6199839,-0.034088463,-0.0031957934000000003,-0.12,64.14,14.16
1554880550468,-4.855441000000001,-7.4705076,3.6481647000000006,-0.49641323,-0.09054748,0.05219796,-0.12,63.48,14.52
1554880550488,-5.0757074,-7.475296000000001,3.6098576,-0.43995422,-0.15552860000000002,0.08735169,-0.12,62.94,14.94
1554880550509,-5.080496,-7.6093717000000005,3.3895910000000002,-0.37816888,-0.2428803,0.12037488,-0.06,62.4,15.18
1554880550528,-5.161899,-7.5471225,3.1453824,-0.32810146,-0.32277513,0.10333065,-0.06,61.98,15.42
1554880550548,-5.2241483,-7.685986,2.9011737999999996,-0.3323625,-0.37071204,0.07882957,0.0,61.56,15.66
1554880550572,-5.1762643,-8.145673,2.6330232999999996,-0.39095205,-0.42077947,0.06178534,0.06,61.14,15.96
1554880550588,-5.1571107000000005,-8.4664955,2.8532897999999998,-0.39095205,-0.44847634,0.035153727999999995,0.18,60.78,16.2
1554880550611,-5.1762643,-8.710705,2.6473885,-0.34514567,-0.47404268,-0.008522116,0.3,60.48,16.38
1554880550629,-5.257667,-8.696339,2.417545,-0.32170987,-0.5091964,-0.03195793,0.48,60.18,16.5
1554880550648,-5.291186,-8.638878,2.3983915000000002,-0.330232,-0.5592638000000001,-0.007456851,0.6,59.82,16.56
1554880550668,-5.291186,-8.610147,2.2643162999999995,-0.3536678,-0.6146576,0.04474111,0.78,59.52,16.68
1554880550689,-5.353435,-8.5622635,2.1637597,-0.4016047,-0.6764429,0.09054748,0.9,59.16,16.74
1554880550709,-5.353435,-8.5862055,2.3409307,-0.43782368,-0.737163,0.11930962,1.08,58.86,16.8
1554880550728,-5.233725,-8.346786,2.4702177000000005,-0.42290998,-0.81066626,0.16831179,1.2,58.62,16.86
1554880550748,-5.0134583,-8.27496,2.4510639,-0.38562572,-0.88949585,0.24927188,1.26,58.5,16.92
1554880550769,-4.7165775000000005,-8.160038,2.6809072,-0.4261058,-0.95128113,0.33981937,1.5,58.32,16.92
1554880550789,-4.606444000000001,-8.107366,2.9299042,-0.48363006,-1.0365024,0.38456047,1.8,58.14,16.92
1554880550808,-4.429273,-8.136096,3.1118636000000004,-0.5070659000000001,-1.1451592,0.42397526,2.16,58.02,16.92
1554880550829,-4.185065,-8.160038,3.3991678,-0.44208476,-1.2623383999999997,0.47723848,2.58,57.78,16.8
1554880550849,-3.7924154000000003,-8.097789,3.5284547999999996,-0.3334278,-1.3550163999999998,0.51665324,3.12,57.48,16.62
1554880550869,-3.6296098,-7.8009076,3.3991678,-0.21944448,-1.4050837999999999,0.48149952,3.66,57.18,16.44
1554880550889,-3.6248214,-7.9876556,3.317765,-0.15978967,-1.4253238000000001,0.41971418,4.26,56.76,16.14
1554880550908,-3.323152,-8.188768,3.5523968,-0.16724652,-1.397627,0.41438788,4.98,56.34,15.84
1554880550929,-3.0214825000000003,-8.251018,3.3800142,-0.16192019,-1.3337111000000001,0.4261058,5.76,55.8,15.54
1554880550949,-3.0885203,-8.193557,3.4183214,-0.12463594,-1.2729911,0.43995422,6.48,55.32,15.12
1554880550969,-2.9209259999999997,-8.083424,3.2650926,-0.099069595,-1.1973573,0.46978164,7.14,54.84,14.7
1554880550989,-3.0262709,-8.054692999999999,3.3752258,-0.12037488,-1.1100056,0.46658584,7.86,54.48,14.1
1554880551009,-3.1890767,-7.973290400000001,3.4087446000000003,-0.18429075,-1.0066749,0.42717105,8.52,54.12,13.56
1554880551028,-3.3039982000000006,-7.8104844,3.5045127999999997,-0.25140239999999997,-0.9406285,0.36751625,9.06,53.82,13.02
1554880551049,-3.5529952000000007,-7.7386584,4.0264487,-0.27164245,-0.9108011,0.36112466,9.9,53.22,12.36
1554880551069,-3.6583402,-7.6428905,3.7870286,-0.2972088,-0.9086706,0.39414784,10.08,53.04,12.12
1554880551090,-3.8450879999999996,-7.6189485,3.8827964999999995,-0.36432046,-0.9395633,0.44954160000000004,10.38,52.74,11.64
1554880551109,-4.0318356,-7.6907744000000005,4.2993879999999995,-0.43782368,-0.9672601000000001,0.5592638000000001,10.62,52.44,11.22
1554880551129,-3.9600096,-7.729081599999999,4.371214,-0.4857606,-0.9736517,0.6562029,10.92,52.14,10.8
1554880551148,-3.9695864000000003,-7.5136037,4.447828299999999,-0.4889564,-0.9214538000000001,0.6785734,11.46,51.66,10.26
1554880551170,-4.036624,-7.413047,4.4526167,-0.45167214,-0.850081,0.6892261,11.64,51.48,10.02
1554880551189,-4.1419687000000005,-7.2741833,4.624999,-0.35792887,-0.71479243,0.660464,12.36,50.7,9.24
1554880551209,-4.228160400000001,-7.077858999999999,4.601057,-0.26525086,-0.6125271,0.60933125,12.72,50.34,8.64
1554880551229,-4.146757,-6.9342065,4.601057,-0.22583607,-0.5368933000000001,0.5699165,13.2,49.86,8.16
1554880551249,-4.0270470000000005,-7.0251865,4.395156,-0.22050974,-0.47936899999999993,0.52411014,13.56,49.38,7.68
1554880551269,-3.8450879999999996,-7.1975690000000005,4.23235,-0.23009712,-0.4282363,0.46978164,13.98,48.84,7.32
1554880551288,-3.643975,-7.5327573,4.174889,-0.23009712,-0.39627838,0.38882150000000004,14.46,48.12,7.02
1554880551308,-3.466804,-7.6093717000000005,4.007295,-0.25992453,-0.35473305,0.22903186,14.82,47.4,6.78
1554880551328,-3.6870705999999998,-7.5519110000000005,4.0934862999999995,-0.31318775,-0.33449304,0.08735169,15.12,46.74,6.6
1554880551348,-3.5338415999999997,-7.355586,4.347272,-0.37603834,-0.30999196,0.029827405,15.42,46.08,6.54
1554880551368,-3.8355112,-7.307702000000001,4.347272,-0.38029942,-0.28549087,0.0053263223,15.66,45.48,6.48
1554880551389,-4.132391999999999,-7.178415299999999,4.524442700000001,-0.39947417,-0.27377295,0.002130529,15.9,44.94,6.24
1554880551409,-4.0797195,-7.389105000000001,4.170100700000001,-0.46765109999999993,-0.25672874,0.03195793,16.08,44.46,6.06
1554880551428,-4.1659107,-7.422623599999999,4.1461587,-0.5294364,-0.20985709,0.07137272,16.2,44.1,5.88
1554880551448,-4.146757,-7.4274119999999995,3.9546227,-0.5475459,-0.15978967,0.10652645,16.26,43.8,5.7
1554880551469,-4.10845,-7.4034699999999996,3.6721067,-0.52411014,-0.09374327,0.1470065,16.26,43.62,5.46
1554880551488,-3.9552212,-7.4561424,3.5715504,-0.43888897,-0.025566347000000003,0.16085494,16.32,43.44,5.28
1554880551509,-3.9839516,-7.590217999999999,3.3800142,-0.3057309,0.07030745599999999,0.17044231,16.38,43.32,5.16
1554880551529,-4.132391999999999,-7.685986,3.2124202,-0.27164245,0.13315806,0.16085494,16.44,43.2,5.1
1554880551549,-4.146757,-7.858368400000001,2.9442697,-0.2972088,0.16937704,0.14061491,16.5,42.96,5.1
1554880551569,-4.156333999999999,-8.145673,3.198055,-0.34940675,0.18429075,0.11930962,16.56,42.72,5.1
1554880551589,-4.209007,-8.073847,3.341707,-0.39734364,0.16724652,0.09161274,16.62,42.42,5.16
1554880551609,-4.290409599999999,-7.85358,3.198055,-0.39095205,0.10333065,0.082025364,16.62,42.06,5.22
1554880551629,-4.3718123,-7.911041,3.4326867999999995,-0.350472,0.047936900000000005,0.12144015,16.68,41.7,5.34
1554880551649,-4.390966000000001,-7.848791599999999,3.6337996,-0.3270362,0.033023197000000004,0.15659387,16.74,41.34,5.4
1554880551669,-4.6016555,-7.872733599999999,3.8540661,-0.23542345,0.04580637,0.14913702,16.74,41.04,5.46
1554880551690,-4.879383,-7.896675599999999,3.6673183,-0.07030745599999999,0.058589544,0.14061491,16.8,40.74,5.52
1554880551709,-5.080496,-8.160038,3.7104141999999998,0.15020229,0.05965481,0.17257284,16.8,40.5,5.58
1554880551728,-5.0421886,-8.279748,3.7774517999999997,0.34194988,0.04474111,0.21411815,16.8,40.2,5.64
1554880551749,-5.118803,-8.160038,3.614646,0.45060685,-0.0031957934000000003,0.23329292,16.8,40.02,5.64
1554880551769,-5.209783,-7.872733599999999,3.3225534,0.46765109999999993,-0.07989483,0.23329292,16.86,39.84,5.64
1554880551789,-5.746084,-7.5950065,3.3512837999999996,0.47191215,-0.19174760000000002,0.25140239999999997,16.92,39.66,5.64
1554880551808,-5.631162000000001,-7.365163000000001,3.3560722000000003,0.5028047999999999,-0.32384038,0.30786142,16.92,39.54,5.7
1554880551828,-5.4396260000000005,-6.986878999999999,3.2746694,0.6114618,-0.41971418,0.4133226,16.98,39.42,5.7
1554880551849,-5.726930599999999,-6.8767457,3.2650926,0.7819041,-0.5134575,0.49428272,17.04,39.36,5.7
1554880551869,-5.899312999999999,-6.9342065,3.6673183,0.86606,-0.58269966,0.53476274,17.04,39.24,5.7
1554880551888,-5.841851999999999,-6.8097080000000005,3.6433763999999997,0.90973586,-0.6508765999999999,0.56885123,17.16,39.12,5.58
1554880551908,-5.2624555,-6.541558,3.6002807999999997,0.8149273,-0.7052050999999999,0.60507023,17.22,39.0,5.4
1554880551928,-4.3287168,-6.311714,4.0120835,0.69668293,-0.69774824,0.60080916,17.34,38.82,4.98
1554880551949,-3.5817258,-6.1632739999999995,4.3329067000000006,0.6221144000000001,-0.56672066,0.6348976,17.46,38.58,4.44
1554880551969,-2.8299465,-5.981314,4.222773,0.7882956999999999,-0.40266997,0.6199839,17.7,38.28,3.84
1554880551989,-1.8483237000000001,-5.842450599999999,4.064756,1.0375676,-0.21092236,0.55606806,17.88,37.92,3.24
1554880552008,-1.3359646,-6.4122705,3.4326867999999995,1.0705907,0.002130529,0.42397526,18.18,37.5,2.7
1554880552028,-1.8531121,-7.2215110000000005,3.1118636000000004,0.87777793,0.22583607,0.09161274,18.48,37.14,2.1
1554880552049,-2.2266076,-7.767389,3.3225534,0.42077947,0.38029942,-0.35153726,18.72,36.72,1.62
1554880552069,-3.1986535,-8.121731,3.8157589999999995,-0.14594123,0.50173956,-0.7307714,19.02,36.3,1.14
1554880552089,-4.2521024,-7.6907744000000005,4.347272,-0.2908172,0.47723848,-0.94595486,19.14,36.06,1.08
1554880552108,-5.396530599999999,-7.2885485,4.553173,-0.30360037,0.36964676,-1.0535465,19.2,35.88,1.02
1554880552128,-6.5601125,-6.7187285,5.276222,-0.43675843,0.20985709,-0.9768475000000001,19.2,35.88,1.02
1554880552149,-7.278373200000001,-6.996455999999999,5.6497173,-0.67218184,0.020240024,-0.7105314,19.08,36.06,1.08
1554880552169,-8.643068,-7.0634937,5.9705405,-0.87351686,-0.10013486,-0.34408042,18.96,36.36,1.14
1554880552189,-8.8777,-6.8719573,5.3049526,-0.7339671999999999,-0.2428803,-0.02876214,18.84,36.84,1.2
1554880552209,-8.834603999999999,-6.9820905,4.385579,-0.36325517,-0.30146983,0.37284255,18.66,37.32,1.26
1554880552228,-8.848969,-7.829638,4.6154222,-0.27696875,-0.2876214,0.54435015,18.48,37.74,1.38
1554880552249,-8.623915,-8.739435,4.979341000000001,-0.18109496,-0.21731395,0.7499462,18.36,38.16,1.56
1554880552268,-7.398083,-8.5622635,4.7782279999999995,-0.08628642,-0.10652645,0.8159926,18.3,38.52,1.68
1554880552288,-6.5984197,-7.1305312999999995,3.6433763999999997,0.05965481,0.10759171,0.8841694999999999,18.18,38.64,1.86
1554880552308,-6.564901,-6.2781954,3.4566288,0.11930962,0.19281286,0.8831041999999999,18.12,38.52,1.98
1554880552329,-6.655881,-5.7466826,3.6721067,0.035153727999999995,0.22050974,0.9576728000000001,18.18,38.16,2.04
1554880552349,-6.71813,-5.535993,3.6721067,-0.13741912,0.22264028,1.0727214,18.3,37.44,2.1
1554880552368,-6.555324000000001,-5.507262,3.5859156000000003,-0.31212249999999997,0.23222765,1.164334,18.42,36.66,2.16
1554880552388,-5.760449400000001,-6.0387754000000005,3.8732197,-0.34301516,0.22903186,1.139833,18.6,35.76,2.1
1554880552409,-5.2385135,-6.4457892999999995,3.8540661,-0.221575,0.20879184,0.9257148000000001,18.78,34.68,1.98
1554880552429,-5.3821654,-6.2446766,4.0216603,-0.10759171,0.18535602,0.65194184,18.96,33.6,1.86
1554880552449,-5.6982,-5.861604,4.23235,-0.16298546,0.12570119999999999,0.47297743,19.08,32.64,1.74
1554880552469,-5.616797,-5.93343,4.797382,-0.31851408,0.014913702,0.41864893,19.26,31.8,1.68
1554880552489,-5.731719,-5.9717374,5.027225,-0.3653857,-0.07030745599999999,0.33129725,19.32,30.96,1.62
1554880552508,-6.244078,-5.943007,5.0511669999999995,-0.22583607,-0.13848437,0.1768339,19.44,30.12,1.62
1554880552528,-6.1483099999999995,-5.689222,5.213972599999999,-0.054328485999999995,-0.18535602,0.058589544,19.5,29.34,1.62
1554880552549,-6.4068837,-5.2678423,4.907515,0.03089267,-0.18322548,-0.020240024,19.5,28.62,1.68
1554880552568,-6.670246000000001,-4.860828,4.883573,0.011717908999999999,-0.17789917,-0.04474111,19.5,28.2,1.74
1554880552588,-6.837839999999999,-4.774636699999999,4.538808,0.018109497,-0.16618125,-0.06285059999999999,19.56,27.72,1.8
1554880552609,-6.708553299999999,-4.956596,4.538808,0.08522116,-0.14168017,-0.053263225,19.62,27.3,1.74
1554880552629,-6.5744777,-5.148132299999999,4.3999443,0.21518342,-0.08841695,-0.022370555,19.68,27.0,1.74
1554880552649,-6.732495299999999,-5.2726307,4.0743327,0.4016047,-0.02130529,-0.023435817999999997,19.74,26.7,1.68
1554880552668,-7.086836999999999,-5.559935,3.8684312999999997,0.5134575,0.011717908999999999,-0.013848438000000001,19.8,26.64,1.56
1554880552688,-6.919242999999999,-5.7466826,3.9115269999999995,0.4708469,0.027696876000000002,0.0,19.86,26.58,1.5
1554880552709,-6.7468604999999995,-5.7418942,3.7104141999999998,0.43782368,0.024501082,0.049002163,19.92,26.58,1.38
1554880552728,-6.770802499999999,-5.8903346,4.23235,0.4079963,-0.014913702,0.10865697,19.98,26.58,1.32
1554880552748,-6.871359,-5.856816,4.5435963,0.30466563,-0.07669904,0.20985709,20.04,26.58,1.32
1554880552769,-6.780379300000001,-5.861604,4.696825,0.21837921,-0.11504856,0.36218992,20.04,26.58,1.32
1554880552788,-6.5218053,-5.66528,4.4861355000000005,0.16298546,-0.12144015,0.41864893,20.04,26.58,1.32
1554880552809,-6.6606693,-5.2008047,4.347272,0.14807177,-0.11824436,0.386691,20.04,26.58,1.32
1554880552829,-6.617573299999999,-4.7602715,4.2993879999999995,0.084155895,-0.113983296,0.32597092,19.98,26.52,1.26
1554880552848,-6.8426285,-4.923076999999999,4.634576,0.036218993,-0.09374327,0.2908172,19.92,26.46,1.26
1554880552869,-6.775591,-5.00448,4.926668599999999,-0.039414786,-0.05219796,0.26525086,19.86,26.4,1.2
1554880552888,-6.837839999999999,-5.105036699999999,5.127781400000001,-0.05006743,-0.0063915867,0.19813919,19.8,26.1,1.08
1554880552909,-7.067683000000001,-4.8656163,5.506065400000001,0.03834952,0.053263225,0.12463594,19.8,25.86,1.02
1554880552930,-7.2065472999999995,-4.4921207,5.34326,0.22903186,0.035153727999999995,0.07137272,19.74,25.62,0.9
1554880552949,-7.1155677,-4.1760864,5.2810106,0.35473305,0.04261058,0.068176925,19.68,25.38,0.78
1554880552968,-7.2113357,-3.8983587999999996,5.2474914,0.3334278,0.098004326,0.06285059999999999,19.68,25.14,0.72
1554880552988,-7.398083,-3.6302083,5.1900306,0.26418558,0.17363810000000002,0.0063915867,19.62,24.9,0.66
1554880553009,-7.5944076,-3.4338839999999995,5.04159,0.27164245,0.21624869,-0.07243799,19.62,24.72,0.72
1554880553028,-7.771578999999999,-3.5057099999999997,4.936245400000001,0.37816888,0.25566345,-0.058589544,19.62,24.6,0.84
1554880553049,-8.039729,-4.022857,4.9218802,0.5336975,0.2727077,0.0,19.62,24.54,1.08
1554880553068,-8.063671000000001,-4.7602715,5.003283000000001,0.58056915,0.2790993,0.06711166,19.62,24.54,1.26
1554880553089,-7.479486,-5.2103815,5.099051,0.5635249,0.29507825,0.17257284,19.56,24.54,1.5
1554880553109,-7.019799000000001,-5.2008047,4.433463,0.6380934,0.26205507,0.23222765,19.56,24.54,1.74
1554880553129,-6.804321300000001,-4.9422307,3.9737763,0.6743124,0.18322548,0.2908172,19.56,24.54,1.92
1554880553148,-6.555324000000001,-4.635773,3.4566288,0.5699165,0.08841695,0.38029942,19.56,24.48,2.04
1554880553169,-6.3589997,-4.4777555,3.0591912,0.42184472,0.0010652645,0.39840892,19.56,24.48,2.1
1554880553189,-6.1100025,-4.204817,2.7527334999999997,0.12144015,-0.13848437,0.39201729999999996,19.56,24.48,2.1
1554880553208,-5.8849480000000005,-4.061165,2.556409,-0.23968449999999997,-0.27483824,0.3685815,19.56,24.42,2.04
1554880553228,-5.861006,-3.3237504999999996,2.7527334999999997,-0.6061354999999999,-0.45273739999999996,0.30999196,19.5,24.3,1.98
1554880553249,-6.0046577,-3.0412347,2.7048495,-0.8607336999999999,-0.608266,0.24820662,19.44,24.18,1.92
1554880553269,-6.1578870000000006,-2.9071592999999996,2.8963853999999998,-1.1664646,-0.7456851,0.16298546,19.44,23.94,1.86
1554880553289,-6.2009826,-3.1226375,3.0639796,-1.4391723,-0.88843054,-0.014913702,19.38,23.7,1.86
1554880553308,-6.143522,-3.4674027,3.6002807999999997,-1.627724,-1.0354371,-0.21198763,19.38,23.46,1.86
1554880553328,-6.143522,-3.8265328000000003,4.4238862999999995,-1.7054884,-1.2133361999999999,-0.3568636,19.38,23.16,1.74
1554880553348,-5.995081,-4.094683600000001,5.003283000000001,-1.6884441000000003,-1.433846,-0.46658584,19.38,22.86,1.5
1554880553369,-6.143522,-4.472967,5.209184,-1.6543556000000001,-1.6660736,-0.515588,19.38,22.5,0.96
1554880553389,-6.612785000000001,-5.105036699999999,5.218761,-1.6618125,-1.8844528000000003,-0.5699165,19.5,22.14,0.36
1554880553409,-6.411672,-5.7802014,5.213972599999999,-1.7363810000000002,-2.0240026,-0.6178534000000001,19.62,21.84,-0.48
1554880553429,-6.26802,-6.172850599999999,5.137358,-1.8013622,-2.1007016,-0.56885123,19.8,21.6,-1.62
1554880553449,-6.4643445,-6.6469026,5.0798974,-1.8034927,-2.1454427000000003,-0.47723848,19.98,21.42,-2.88
1554880553468,-6.3685765,-7.915829,5.142146599999999,-1.6745956999999998,-2.2168152,-0.330232,20.16,21.48,-4.26
1554880553488,-6.0621184999999995,-8.835203,5.3288946,-1.4626081,-2.2008363999999996,-0.17150758,20.4,21.6,-5.7
1554880553510,-5.664681400000001,-9.649231,5.587468,-1.1653993,-2.0985709999999997,0.0,20.64,21.78,-7.32
1554880553528,-4.984728,-9.730635000000001,5.252279799999999,-0.78936094,-1.9217370999999999,0.22796659,20.88,22.08,-8.7
1554880553549,-4.525041000000001,-9.424176,4.5340195,-0.27483824,-1.6990968000000002,0.49215218,21.12,22.38,-10.14
1554880553569,-4.3526587,-8.96449,4.1078515,0.16085494,-1.4476944,0.7222493000000001,21.24,22.68,-11.46
1554880553588,-4.237737,-8.734647,4.246715,0.33662358,-1.1334413,0.8628642,21.42,23.1,-13.26
1554880553608,-3.7828386,-8.519167999999999,4.409521,0.21518342,-0.91186637,0.8586031999999999,21.48,23.16,-14.46
1554880553628,-3.3518825,-8.083424,4.3664255,0.014913702,-0.680704,0.82557994,21.36,22.98,-15.66
1554880553648,-3.2800562000000006,-7.374739599999999,4.3281183,-0.11930962,-0.47936899999999993,0.79681784,21.18,22.56,-16.74
1554880553669,-3.3901896000000002,-6.795342999999999,4.409521,-0.20453078,-0.3749731,0.7882956999999999,21.0,22.02,-17.64
1554880553688,-3.7205894,-6.287772,4.6202106,-0.37923414,-0.39627838,0.77231675,20.82,21.36,-18.48
1554880553708,-4.003105000000001,-6.287772,4.926668599999999,-0.58483016,-0.47297743,0.72970617,20.7,20.94,-18.84
1554880553729,-4.1371803,-6.0483522,5.5204306,-0.9214538000000001,-0.6743124,0.737163,20.46,19.56,-19.74
1554880553748,-4.0940847,-5.957372,5.486912,-1.0215886,-0.8522116,0.8266452,20.28,18.54,-20.28
1554880553769,-4.0318356,-6.019622,5.563526,-0.9619338,-1.0098706,0.9012136999999999,20.16,17.64,-20.82
1554880553789,-3.7732617999999993,-6.330868,5.8987145,-0.8404937,-1.1036139999999999,0.9374326999999999,20.1,16.8,-21.36
1554880553809,-3.4045547999999997,-6.7570357,6.1955953,-0.680704,-1.1121361,0.9353021999999999,20.1,15.96,-21.9
1554880553829,-2.9783869,-7.1305312999999995,6.664859,-0.50600064,-1.0173275,0.88843054,20.04,15.24,-22.56
1554880553849,-2.801216,-7.116166000000001,6.612186400000001,-0.26418558,-0.8543421,0.809601,19.92,14.52,-23.34
1554880553869,-2.9400797,-6.7522473,6.535572,0.002130529,-0.68389976,0.7105314,19.68,13.98,-24.3
1554880553888,-2.944868,-6.4793080000000005,6.755839,0.15020229,-0.5251754,0.63915867,19.32,13.5,-25.2
1554880553909,-2.8778305,-6.0387754000000005,6.593033,0.19281286,-0.42077947,0.5635249,19.02,12.96,-26.1
1554880553929,-3.1268275,-5.5407815000000005,6.4110737,0.13102753,-0.38242993,0.43995422,18.72,12.3,-26.82
1554880553950,-3.5960910000000004,-5.253476999999999,6.5068417,-0.04580637,-0.39201729999999996,0.36645097,18.36,11.58,-27.48
1554880553969,-3.4428620000000003,-5.2726307,6.727108,-0.22903186,-0.38456047,0.40053943,18.12,10.8,-27.96
1554880553988,-3.0119057000000002,-5.521628,6.569091,-0.27696875,-0.31638354,0.46765109999999993,17.82,10.02,-28.44
1554880554009,-2.7820622999999998,-5.823297,6.458957700000001,-0.19068234,-0.16298546,0.43036684,17.64,9.36,-28.74
1554880554029,-2.7485435000000003,-6.1967926,6.401497,-0.098004326,0.054328485999999995,0.31105720000000003,17.52,8.7,-28.98
1554880554049,-2.695871,-6.3883285999999995,6.214748999999999,-0.013848438000000001,0.30360037,0.18855181,17.52,8.04,-29.22
1554880554068,-2.944868,-6.335656,5.855619,0.15446335,0.58056915,0.06178534,17.46,7.56,-29.4
1554880554090,-3.3758245000000002,-6.330868,5.37199,0.25672874,0.7286409,0.04261058,17.34,7.14,-29.52
1554880554108,-4.003105000000001,-6.287772,5.266645,0.29614353,0.77231675,0.06711166,17.28,6.84,-29.7
1554880554128,-4.2999864,-6.4266357,5.0942625999999995,0.30466563,0.753142,0.08841695,17.16,6.66,-29.76
1554880554149,-4.4149080000000005,-6.5607114,5.142146599999999,0.17470337,0.6956177,0.113983296,17.1,6.6,-29.76
1554880554169,-4.175488,-6.5750766,5.1900306,-0.029827405,0.660464,0.08628642,17.04,6.42,-29.64
1554880554188,-4.0222587999999995,-6.7091517000000005,5.290587400000001,-0.19920446,0.67324716,-0.017044231,16.98,6.3,-29.4
1554880554208,-4.261679,-6.6229606,5.348048,-0.25566345,0.7275756,-0.15446335,16.98,6.18,-29.04
1554880554229,-4.5681367,-6.881533999999999,5.180454,-0.3334278,0.7882956999999999,-0.24927188,16.98,6.0,-28.68
1554880554249,-4.5537715,-6.824073299999999,4.7734394,-0.4314321,0.81918836,-0.32810146,17.04,5.82,-28.26
1554880554270,-4.7453080000000005,-6.632537400000001,5.209184,-0.45912898,0.8404937,-0.39947417,17.1,5.76,-27.78
1554880554288,-4.7644614999999995,-6.359598,4.912303400000001,-0.42077947,0.87032104,-0.47830373,17.22,5.82,-27.24
1554880554308,-5.0038815,-5.875969400000001,4.3185415,-0.51771855,0.8863,-0.6018744,17.34,6.0,-26.7
1554880554329,-5.2289367,-5.952584,4.0695443,-0.7552725,0.9331716999999998,-0.7339671999999999,17.52,6.42,-26.1
1554880554349,-5.377377,-6.4505777,4.6154222,-0.9938916999999999,0.99069595,-0.813862,17.88,6.9,-25.5
1554880554369,-5.401319,-6.9246297000000006,4.3760023,-1.0120013,1.0546118,-0.850081,18.24,7.62,-24.96
1554880554389,-5.377377,-7.173627000000001,4.007295,-0.9896306999999999,1.1259845,-0.82877576,18.54,8.58,-24.42
1554880554408,-5.3821654,-7.259817999999999,3.6242227999999996,-1.010936,1.1888351000000001,-0.79042625,18.9,9.72,-23.88
1554880554429,-5.5018754,-7.379528,3.0735563999999997,-0.9076053,1.2495551999999999,-0.7435546,19.26,10.92,-23.22
1554880554448,-5.722142,-7.5183919999999995,3.0496144,-0.91186637,1.3262542,-0.5837649,19.56,12.06,-22.5
1554880554469,-5.7029886,-7.872733599999999,2.5611973,-1.0705907,1.365669,-0.45593318,19.86,13.2,-21.72
1554880554488,-5.693412,-7.8009076,1.8333599999999999,-1.3827133,1.3944311000000003,-0.45060685,20.1,14.22,-20.94
1554880554508,-6.0285997,-7.887099,0.88046765,-1.7406421000000003,1.3283848,-0.49321744,20.16,15.48,-20.16
1554880554529,-6.325481,-7.848791599999999,0.55006784,-1.9739349999999998,1.2868395000000001,-0.4825648,20.28,16.56,-19.38
1554880554549,-6.612785000000001,-8.308478,0.7224503999999999,-2.0229373,1.2218584,-0.28442562,20.4,17.94,-18.18
1554880554568,-6.430825700000001,-8.677185,0.86610246,-1.9078886999999998,1.2048141,-0.12783173,20.52,18.72,-17.46
1554880554588,-5.8849480000000005,-8.667608,0.7990648,-1.6255935,1.2271847,0.054328485999999995,20.76,19.44,-16.68
1554880554609,-5.592855,-8.969278,0.5117606,-1.1227888000000001,1.2410331000000001,0.2034655,20.94,20.1,-15.9
1554880554629,-5.295974299999999,-8.715492999999999,-0.09636662,-0.59867865,1.2133361999999999,0.25033715,21.18,20.76,-14.94
1554880554649,-5.1666875,-8.337209,-0.9247603999999999,-0.051132694000000006,1.1419635000000001,0.28868666,21.42,21.18,-14.04
1554880554669,-5.5976434,-8.385093,-1.3748703000000002,0.42930159999999995,1.0812434,0.34088463,21.6,21.48,-13.14
1554880554689,-5.779603,-7.934983,-1.5903485000000002,0.6743124,1.0386329,0.38775626,21.84,21.72,-12.3
1554880554708,-5.693412,-7.614160000000001,-1.513734,0.8607336999999999,1.019458,0.34834146,21.96,21.84,-11.4
1554880554728,-5.511451999999999,-7.3699512,-1.6525976999999998,0.84155893,1.0056095999999999,0.35260254,22.02,21.96,-10.56
1554880554749,-5.434838,-7.3029137,-1.8872293999999998,0.6679208000000001,0.9683254000000001,0.36964676,22.02,21.96,-9.78
1554880554770,-5.568912999999999,-7.5327573,-1.5089456,0.4314321,0.9171927,0.33449304,21.96,21.78,-9.12
1554880554788,-5.722142,-7.662044,-1.2934675,0.37071204,0.83942837,0.21518342,21.9,21.6,-8.64
1554880554809,-5.813122,-7.2215110000000005,-1.0444705,0.5209143,0.8000136,0.12783173,21.78,21.3,-8.16
1554880554829,-5.923255,-7.1305312999999995,-1.489792,0.6828345,0.75101143,0.12463594,21.66,21.0,-7.56
1554880554848,-5.9807158,-7.6045833,-1.3317747,0.6828345,0.7105314,0.08628642,21.54,20.7,-6.9
1554880554868,-5.9280434,-7.504027000000001,-0.96785605,0.66579026,0.6359629,-0.027696876000000002,21.36,20.4,-6.24
1554880554889,-6.009446,-7.2885485,-0.75716627,0.77125144,0.6487460999999999,-0.053263225,21.24,20.1,-5.52
1554880554909,-6.172251999999999,-6.996455999999999,-0.97743285,1.051416,0.67324716,-0.026631612000000002,21.06,19.86,-4.86
1554880554929,-6.363788,-7.374739599999999,-0.95827925,1.3070794,0.66579026,0.029827405,20.94,19.8,-4.2
1554880554948,-6.2584434,-7.422623599999999,-0.75716627,1.4753913,0.6221144000000001,0.026631612000000002,20.76,19.68,-3.66
1554880554968,-6.435614,-6.996455999999999,-0.6805518,1.4721955,0.5954828000000001,0.04474111,20.64,19.74,-3.18
1554880554988,-6.622362,-7.1879919999999995,-1.1210848999999998,1.1558118999999998,0.5294364,0.082025364,20.52,19.8,-2.76
1554880555009,-6.775591,-7.2789717000000005,-1.3748703000000002,0.77870834,0.44208476,0.082025364,20.46,19.92,-2.4
1554880555029,-6.732495299999999,-7.413047,-0.5847838000000001,0.1768339,0.36964676,0.039414786,20.4,20.04,-1.98
1554880555049,-6.6367273,-7.5136037,-0.6757634,-0.041545313,0.31212249999999997,0.014913702,20.28,20.16,-1.68
1554880555069,-6.4882865,-7.1305312999999995,-0.66618663,-0.19600865,0.31638354,0.03834952,20.22,20.28,-1.32
1554880555089,-6.679823,-7.101800999999999,-0.87687635,-0.17363810000000002,0.31212249999999997,0.024501082,20.1,20.4,-0.96
1554880555109,-6.794744500000001,-7.3603745,-1.5089456,-0.16298546,0.24820662,-0.024501082,19.98,20.52,-0.54
1554880555129,-6.8186865,-7.331644,-1.3796587,-0.16298546,0.15020229,-0.06924219,19.86,20.58,-0.18
1554880555148,-6.4020953,-7.231087700000001,-0.96306765,-0.1438107,0.094808534,-0.051132694000000006,19.74,20.64,0.18
1554880555169,-6.2345014,-7.4322004,-0.99658644,-0.15233281,0.041545313,0.0,19.62,20.64,0.42
1554880555189,-5.995081,-8.116942,-0.5943606,-0.16724652,0.004261058,0.039414786,19.5,20.7,0.6
1554880555209,-5.707777,-8.140884,-0.76195467,-0.053263225,-0.023435817999999997,0.012783173500000002,19.38,20.7,0.78
1554880555229,-5.7987566,-8.016386,-0.9247603999999999,0.2130529,-0.05006743,-0.039414786,19.32,20.7,0.9
1554880555249,-5.932832,-8.222287,-0.83856916,0.46552056,-0.07882957,-0.04580637,19.26,20.76,0.96
1554880555269,-5.7365074,-8.121731,-0.84814596,0.61572284,-0.12144015,-0.039414786,19.2,20.76,0.96
1554880555289,-5.693412,-8.495225999999999,-0.5033809,0.68816084,-0.12250541,-0.036218993,19.2,20.76,0.96
1554880555309,-5.7365074,-8.768166,0.43035775,1.0652645,-0.07456851,0.04261058,19.14,20.82,1.02
1554880555329,-5.6982,-8.576628999999999,0.741604,1.2942963,-0.040480047000000005,0.10439592,19.08,20.82,1.02
1554880555349,-5.741296,-8.614936,1.158195,1.9270633000000001,-0.014913702,0.22050974,19.08,20.94,1.02
1554880555368,-6.1243677000000005,-8.557475,1.5364790000000002,2.5001757000000002,0.037284255,0.3270362,19.02,21.06,1.02
1554880555388,-6.5744777,-8.404246,1.5508442,2.9294772,-0.002130529,0.38562572,18.96,21.24,1.02
1554880555408,-6.828263300000001,-8.361151,1.809418,3.2277513,-0.026631612000000002,0.45060685,18.96,21.42,1.02
1554880555429,-6.8569937,-8.270171000000001,2.9873652,3.814712,-0.09054748,0.60933125,18.9,21.84,1.08
1554880555448,-7.0341644,-7.872733599999999,3.365649,4.377171499999999,-0.25033715,0.71479243,18.96,22.14,1.14
1554880555468,-7.129933,-6.737882000000001,3.2507273999999997,4.7127300000000005,-0.39734364,0.80107886,18.96,22.56,1.14
1554880555489,-7.120356,-5.689222,3.1549592,4.7990165000000005,-0.54435015,0.94595486,18.96,23.04,1.2
1554880555509,-8.1402855,-4.6261964,3.447052,4.5891595,-0.6828345,1.1206582,19.02,23.46,1.2
1554880555529,-8.762777999999999,-3.1322143,4.0216603,4.0618534,-0.87138635,1.2740563,19.02,23.88,1.2
1554880555549,-8.394072,-2.2319946,4.5340195,3.3971282999999994,-1.0705907,1.4498249,19.08,24.24,1.14
1554880555569,-8.236053,-2.1745335999999997,5.1900306,2.7345338,-1.2559468,1.6160061000000001,19.08,24.6,0.9
1554880555594,-7.967903,-2.4139538,5.8508306,2.2370553,-1.381648,1.7204021,19.14,24.72,0.78
1554880555609,-7.479486,-1.9303252,7.062296400000001,1.7662083999999998,-1.6053536,1.8077538,19.2,24.96,0.3
1554880555628,-7.3789296,-1.8776526000000002,7.086238400000001,1.8620822,-1.7726,1.7907095000000002,19.38,24.84,-0.36
1554880555648,-7.129933,-1.8010383,7.454945599999999,1.8759307,-1.9941751,1.881257,19.44,24.24,-1.2
1554880555669,-5.966350599999999,-2.1218612,8.177995,1.9409119,-2.1805964,1.9632823,19.56,23.16,-2.16
1554880555688,-5.023035,-2.2703017999999995,8.656835000000001,1.9781961,-2.23599,2.0431771,19.68,21.78,-3.36
1554880555708,-4.4723687000000005,-1.7052702000000002,8.647258,2.171009,-2.227468,2.0463731,19.74,20.1,-4.68
1554880555729,-3.9073372,-0.7715314999999999,8.216302,2.380866,-2.1763353,2.0559604,19.86,18.12,-6.0
1554880555748,-3.5290532,-0.3788824,8.058285,2.3904533,-2.1124194,2.122007,19.98,15.9,-7.38
1554880555769,-2.8682537,0.3298013,8.503606,2.1805964,-1.9781961,2.2242723,20.04,13.5,-8.64
1554880555789,-2.0733786,1.0289081,8.55149,2.0240026,-1.808819,2.251969,19.98,11.04,-9.84
1554880555809,-1.2449848999999997,2.0105310000000003,8.206725,2.1177456,-1.6415724999999999,2.111354,19.86,8.88,-11.1
1554880555829,-1.0869676000000001,2.8245595000000003,7.8811135,2.2104237,-1.4466291999999998,1.881257,19.62,6.84,-12.48
1554880555849,-0.90500826,3.6529531000000004,7.5507135,2.0453076,-1.1696603,1.6085493999999998,19.26,4.86,-13.68
1554880555868,-1.3072342,4.1413703,7.229890299999999,1.6064188,-0.9139969000000001,1.3592775,18.78,2.82,-14.76
1554880555888,-1.1540052,4.529230999999999,7.0287776,1.0908308,-0.69668293,1.1867046,18.36,0.78,-15.78
1554880555908,-1.2354081000000001,4.797382,6.96174,0.68389976,-0.531567,1.0056095999999999,17.94,-1.26,-16.62
1554880555929,-1.067814,5.0320134,6.913856,0.45486793,-0.45912898,0.7701861999999999,17.46,-3.12,-17.4
1554880555949,-0.7469909,4.8404775,6.928221000000001,0.3749731,-0.386691,0.56245965,17.04,-5.04,-18.06
1554880555969,-0.641646,4.538808,7.2203135,0.23861924,-0.27696875,0.44634579999999996,16.56,-6.78,-18.54
1554880555989,-0.49320555,4.433463,7.675211999999999,0.13209279,-0.19707392,0.3749731,16.14,-8.4,-18.84
1554880556009,-0.545878,4.5100775,7.8715367,0.09587380000000001,-0.10333065,0.26525086,15.84,-9.72,-19.02
1554880556029,-0.58418524,4.960187400000001,7.7949224,0.17257284,-0.03834952,0.23542345,15.54,-10.74,-19.2
1554880556049,-0.30166942,5.357625,7.450157000000001,0.34088463,-0.025566347000000003,0.18855181,15.24,-11.46,-19.38
1554880556069,-0.35434186,5.6497173,7.402272999999999,0.39201729999999996,0.0010652645,0.07882957,15.0,-12.0,-19.5
1554880556089,-0.40701428,5.7646394,7.617750999999999,0.26205507,0.06285059999999999,-0.0063915867,14.7,-12.54,-19.68
1554880556109,-0.48841715,5.620987,7.6608467000000005,0.06498113,0.1107875,-0.06178534,14.46,-12.9,-19.8
1554880556131,-0.79008657,5.6018333,7.8715367,-0.11824436,0.15765914,-0.09161274,14.34,-13.26,-19.92
1554880556149,-0.94331545,5.5300074,7.713519,-0.12357068,0.16085494,-0.10333065,14.28,-13.38,-19.98
1554880556168,-0.8523358,5.525219,7.852383000000001,-0.083090626,0.14594123,-0.12250541,14.28,-13.56,-20.04
1554880556189,-0.9576806999999999,5.510854,7.9912467000000005,-0.07776430000000001,0.15233281,-0.13741912,14.28,-13.8,-20.04
1554880556209,-1.043872,5.4486045999999995,7.9864583,-0.10013486,0.16618125,-0.12037488,14.28,-13.98,-19.98
1554880556229,-1.2880806,5.242703,7.972092999999999,-0.13422333,0.15978967,-0.06711166,14.28,-14.16,-19.86
1554880556249,-1.0726023999999998,5.213972599999999,8.154053,-0.10439592,0.12250541,-0.036218993,14.28,-14.22,-19.68
1554880556269,-0.9528923,5.194819,8.316858,-0.017044231,0.09267801,-0.034088463,14.28,-14.22,-19.56
1554880556289,-0.866701,5.3145294000000005,8.187572,0.026631612000000002,0.09054748,-0.008522116,14.28,-14.22,-19.38
1554880556310,-0.91458505,5.4102974,8.211513499999999,0.07350325,0.06924219,0.022370555,14.34,-14.22,-19.08
1554880556328,-0.8619126,5.458181400000001,7.9098440000000005,0.11930962,0.02876214,0.02876214,14.34,-14.22,-18.96
1554880556348,-0.62249243,5.477335,8.048708,0.15233281,-0.014913702,0.03834952,14.28,-14.22,-18.84
1554880556369,-0.7326256999999999,5.467758,8.04392,0.17150758,-0.033023197000000004,0.0,14.28,-14.16,-18.78
1554880556388,-0.7326256999999999,5.525219,7.5650787,0.14061491,-0.04474111,-0.07669904,14.22,-14.16,-18.72
1554880556408,-0.8762778,5.319318,7.603386,0.06498113,-0.04474111,-0.15446335,14.22,-14.16,-18.72
1554880556429,-0.92895025,5.252279799999999,7.8332295,-0.01917476,-0.051132694000000006,-0.19920446,14.22,-14.16,-18.72
1554880556448,-0.90021986,4.988918,7.74225,-0.060720075,-0.056459017,-0.21198763,14.22,-14.1,-18.72
1554880556468,-0.8379706,5.017648,7.9050555,-0.05006743,-0.06498113,-0.25353295,14.22,-14.1,-18.72
1554880556489,-0.9816226999999998,5.036802,7.814075999999999,-0.026631612000000002,-0.06604639400000001,-0.31318775,14.28,-14.04,-18.72
1554880556509,-1.0151415000000001,5.036802,8.087015,-0.049002163,-0.05965481,-0.30892670000000005,14.34,-13.92,-18.72
1554880556529,-1.0534488000000002,5.027225,7.861960000000001,-0.07456851,-0.06285059999999999,-0.2908172,14.4,-13.86,-18.72
1554880556548,-1.0199299000000002,5.146935,8.015189,-0.09161274,-0.082025364,-0.30253512,14.46,-13.74,-18.78
1554880556569,-1.163582,5.237914599999999,8.115746000000001,-0.10972224,-0.08948222,-0.2908172,14.52,-13.62,-18.78
1554880556588,-1.0342950999999998,5.2810106,8.22109,-0.15552860000000002,-0.09374327,-0.24607609,14.52,-13.5,-18.84
1554880556608,-1.1540052,5.2618566,8.321647,-0.19920446,-0.07350325,-0.18748654,14.58,-13.38,-18.84
1554880556629,-1.0965444,5.132569999999999,8.479664,-0.17576863,-0.06178534,-0.18642128,14.64,-13.14,-18.84
1554880556649,-1.0295067,5.218761,8.350377,-0.09054748,-0.034088463,-0.21837921,14.7,-12.84,-18.84
1554880556668,-0.89543146,5.170877,8.19236,-0.049002163,0.00958738,-0.26205507,14.82,-12.6,-18.84
1554880556689,-1.1683705,5.156512,8.115746000000001,-0.02130529,0.068176925,-0.30679616,14.94,-12.36,-18.84
1554880556709,-1.13964,5.127781400000001,8.005612,-0.046871635999999994,0.12250541,-0.3685815,15.0,-12.12,-18.9
1554880556729,-1.1540052,5.04159,7.747038400000001,-0.12463594,0.18216023,-0.49002165,15.12,-11.88,-18.96
1554880556749,-1.4460978999999998,4.9841294000000005,7.665635000000001,-0.25353295,0.26844665,-0.6018744,15.24,-11.64,-18.96
1554880556768,-1.6711528000000002,4.830900700000001,7.8954787,-0.34940675,0.3206446,-0.6679208000000001,15.36,-11.4,-19.02
1554880556788,-1.9153613999999999,4.7734394,7.924208999999999,-0.35899413,0.33768883,-0.6679208000000001,15.42,-11.16,-19.08
1554880556809,-2.0254946,4.687248,8.077438,-0.29827404,0.3334278,-0.6508765999999999,15.48,-10.8,-19.14
1554880556829,-2.1021092,4.735132,8.120534,-0.25566345,0.32490566,-0.6412892,15.54,-10.32,-19.08
1554880556849,-2.3894134,4.7016134,8.120534,-0.23329292,0.314253,-0.6242449999999999,15.66,-9.66,-19.02
1554880556869,-2.4037786,4.759074,8.254609,-0.21198763,0.28975195,-0.60507023,15.78,-9.06,-18.9
1554880556890,-2.7772740000000002,4.7016134,8.216302,-0.17150758,0.257794,-0.51984906,15.9,-8.4,-18.72
1554880556908,-2.5953147,4.586692,8.292916,-0.113983296,0.19174760000000002,-0.4048005,15.96,-7.74,-18.6
1554880556929,-2.60968,4.3903675,8.216302,-0.046871635999999994,0.14487597,-0.35260254,16.14,-7.08,-18.42
1554880556949,-2.6527755,4.3568487000000005,8.091804,0.004261058,0.098004326,-0.29933932,16.32,-6.54,-18.3
1554880556968,-2.7102362999999996,4.409521,8.216302,0.03834952,0.04474111,-0.23755397,16.44,-6.0,-18.12
1554880556988,-2.6623523,4.3999443,8.139688,0.06924219,-0.011717908999999999,-0.17044231,16.62,-5.58,-18.06
1554880557009,-2.5474305,4.2515035,8.158841,0.041545313,-0.051132694000000006,-0.10333065,16.74,-5.28,-17.94
1554880557029,-2.4708161,4.256292,8.015189,-0.017044231,-0.07030745599999999,-0.07137272,16.86,-4.98,-17.88
1554880557049,-2.4899697,4.1844660000000005,8.173206,-0.060720075,-0.06924219,-0.06924219,16.98,-4.62,-17.76
1554880557068,-2.6288335,4.1892543,8.273763,-0.094808534,-0.058589544,-0.058589544,17.1,-4.32,-17.58
1554880557088,-2.5905263,4.1892543,8.158841,-0.07456851,-0.05752428,-0.03195793,17.16,-4.02,-17.4
1554880557109,-2.4277205000000004,4.2610803,8.04392,-0.011717908999999999,-0.07137272,-0.023435817999999997,17.22,-3.84,-17.28
1554880557128,-2.5043349999999998,4.361637,8.010401,-0.013848438000000001,-0.06711166,-0.018109497,17.28,-3.72,-17.1
1554880557149,-2.3894134,4.419098,8.10138,-0.05539375,-0.051132694000000006,-0.034088463,17.34,-3.66,-16.92
1554880557169,-2.3942018,4.347272,8.058285,-0.094808534,-0.02876214,-0.058589544,17.4,-3.66,-16.92
1554880557189,-2.5139117000000004,4.2515035,8.288128,-0.10972224,-0.020240024,-0.068176925,17.46,-3.66,-16.92
1554880557209,-2.3989902,4.2371383,8.201937,-0.08522116,-0.013848438000000001,-0.09161274,17.52,-3.66,-16.98
1554880557229,-2.2457612,4.385579,8.19236,-0.06391586,0.008522116,-0.14168017,17.58,-3.66,-17.1
1554880557248,-2.2888567,4.5148660000000005,8.211513499999999,-0.11717909,0.049002163,-0.1949434,17.64,-3.72,-17.22
1554880557268,-2.1452047999999997,4.5483847,8.407838,-0.20026971,0.10226539,-0.257794,17.76,-3.72,-17.34
1554880557288,-2.087744,4.56275,8.3312235,-0.27057716,0.15552860000000002,-0.35899413,17.82,-3.66,-17.46
1554880557309,-2.054225,4.759074,8.110957,-0.42184472,0.24607609,-0.4889564,17.88,-3.6,-17.46
1554880557328,-2.2266076,4.648941000000001,7.861960000000001,-0.7126619000000001,0.35579833,-0.63702816,17.94,-3.54,-17.46
1554880557348,-2.2313959999999997,4.217984700000001,7.6608467000000005,-1.2261194,0.44421527,-0.8362325999999999,18.0,-3.36,-17.46
1554880557368,-2.15957,3.863643,7.651269999999999,-1.8993665000000002,0.58269966,-1.0929613,18.18,-3.12,-17.34
1554880557388,-2.3894134,3.0735563999999997,7.239467599999999,-2.6194854,0.80107886,-1.3092101,18.3,-2.58,-17.22
1554880557409,-2.9400797,1.8381484000000001,7.474099000000001,-3.4610442999999997,1.1377025,-1.3997575,18.48,-1.8,-17.1
1554880557428,-3.3423057000000003,0.8182184,7.483675999999999,-4.0064597,1.32945,-1.417867,18.66,-0.84,-16.92
1554880557449,-3.4811692,-0.15861586,6.971317,-4.5710497000000005,1.5371766000000002,-1.4583471000000001,18.84,0.48,-16.74
1554880557469,-3.9504328,-1.1641805,6.0423665,-5.155880000000001,1.7427727,-1.4242586000000002,19.02,2.04,-16.62
1554880557489,-4.1132383,-2.6629508,5.003283000000001,-5.812083,1.9206718,-1.2708606000000002,19.2,3.84,-16.5
1554880557509,-4.663905000000001,-4.257489,4.3329067000000006,-6.5172877,2.1337247,-1.0940266,19.38,5.82,-16.26
1554880557529,-5.9567738,-5.7945666,4.208408,-7.0179625,2.1688783,-0.86606,19.56,7.92,-15.96
1554880557549,-6.708553299999999,-7.0491285,4.103063,-7.093596000000001,1.9430424,-0.6348976,19.74,9.96,-15.42
1554880557569,-6.1387334000000005,-7.839214999999999,3.6050692000000004,-6.764429,1.6884441000000003,-0.45912898,19.98,11.94,-14.82
1554880557588,-5.861006,-8.5383215,2.4223334999999997,-6.269081,1.5339808000000001,-0.26418558,20.22,13.86,-14.16
1554880557608,-6.1626754,-8.868722,1.6753427,-5.667207,1.5243934,0.03834952,20.4,15.48,-13.5
1554880557629,-6.670246000000001,-9.266159,1.4215573000000001,-4.842692400000001,1.4615428,0.29827404,20.58,16.74,-12.78
1554880557649,-6.9048777,-9.136872,1.4694413,-3.8360174,1.3166668,0.37710363,20.82,17.76,-11.94
1554880557669,-6.646304,-8.648455,0.8182184,-3.00085,1.1249193000000002,0.34940675,20.94,18.54,-11.04
1554880557689,-6.5505357,-8.4664955,0.66498953,-2.5204158,0.95234644,0.34194988,21.06,19.02,-10.26
1554880557709,-6.7468604999999995,-8.4664955,0.30107087,-2.091114,0.7776430000000001,0.29188246,21.12,19.2,-9.66
1554880557729,-6.799533,-8.428188,0.02813187,-1.6426378000000001,0.58269966,0.20772657,21.12,19.14,-9.12
1554880557749,-6.684611299999999,-7.949348,-0.39803603,-1.2868395000000001,0.47404268,0.16618125,21.06,18.9,-8.58
1554880557769,-6.9527617,-7.791331,-0.8960299999999999,-1.1313108,0.39840892,0.16831179,21.0,18.66,-8.04
1554880557789,-7.105990400000001,-8.169615,-1.2072762,-1.1206582,0.257794,0.14913702,20.88,18.3,-7.56
1554880557808,-7.0820484,-8.528744999999999,-1.1306617,-1.1451592,0.128897,0.08628642,20.82,18.0,-7.08
1554880557828,-7.1634517,-8.5143795,-1.0444705,-0.9395633,0.03195793,0.049002163,20.7,17.64,-6.84
1554880557849,-7.398083,-8.073847,-1.2551602,-0.6498113,-0.0053263223,0.13848437,20.52,16.92,-6.48
1554880557869,-7.5034279999999995,-8.648455,-1.7483658,-0.13635385,-0.06498113,0.3206446,20.4,16.56,-6.3
1554880557889,-7.575253999999999,-8.921394,-1.3509283,0.12144015,-0.1587244,0.46658584,20.34,16.26,-6.12
1554880557908,-7.7667904000000005,-9.007586,-1.1833341999999998,0.4250405,-0.23435818,0.56885123,20.28,15.9,-6.0
1554880557928,-8.145074000000001,-9.199121,-0.6374562,0.9225190000000001,-0.30146983,0.76912093,20.22,15.6,-5.88
1554880557948,-8.006210000000001,-9.012374000000001,-0.66139823,1.7182716,-0.33981937,1.0130665,20.16,15.12,-5.94
1554880557968,-8.082825,-8.614936,-0.6853402,2.433064,-0.3270362,1.3177321000000002,20.16,14.4,-6.0
1554880557989,-8.346188,-8.270171000000001,-0.08200141,2.6887274,-0.27164245,1.6085493999999998,20.22,13.5,-6.12
1554880558011,-7.809886,-7.1688385,0.032920275,2.8623654999999997,-0.26631612,1.7608821,20.22,12.66,-6.18
1554880558028,-7.771578999999999,-6.4793080000000005,-0.019752163,2.8826056,-0.22903186,1.7896442,20.22,12.18,-6.24
1554880558048,-7.929596000000001,-5.3300915,0.29149407,2.7686224,-0.19281286,1.8418423,20.16,11.1,-6.3
1554880558068,-7.61835,-5.0284224,0.6027403,2.5470474,-0.16405073,1.8780613000000002,20.1,9.78,-6.42
1554880558089,-7.216124000000001,-4.563947,1.3305776000000002,2.4117587000000005,-0.080960095,1.8333201000000001,19.92,8.28,-6.48
1554880558108,-7.393294999999999,-3.9079356,1.2012907,2.3574302000000005,0.008522116,1.6916398999999998,19.56,6.6,-6.48
1554880558128,-7.575253999999999,-3.2902317,1.062427,2.1369205,0.080960095,1.5222628999999999,19.08,4.92,-6.42
1554880558148,-7.5944076,-2.8257565,1.1198878,1.9153455000000001,0.10439592,1.4274544,18.6,3.42,-6.18
1554880558168,-7.891288799999999,-2.3708582000000002,1.1486181999999998,1.5478293,0.15020229,1.216532,18.06,2.04,-5.88
1554880558188,-7.8673470000000005,-2.3612813999999998,1.158195,1.3550163999999998,0.1438107,1.1110708999999999,17.58,0.66,-5.58
1554880558208,-7.872135000000001,-2.236783,1.4167688999999999,1.0972224,0.15765914,1.0002834,17.04,-0.6,-5.22
1554880558229,-8.125919999999999,-1.9877859,1.2012907,0.7882956999999999,0.16085494,0.8309063,16.44,-1.62,-4.8
1554880558248,-8.389283,-1.9351135,1.4359225,0.5400891,0.16298546,0.7488809000000001,16.02,-2.64,-4.44
1554880558269,-8.422802,-1.8537107,1.2443863000000002,0.058589544,0.12144015,0.63702816,15.72,-3.42,-4.08
1554880558289,-8.346188,-1.9159599999999999,1.287482,-0.14594123,0.10013486,0.53795856,15.48,-3.96,-3.78
1554880558308,-8.7532015,-1.9207484000000001,1.6753427,-0.22370553,0.082025364,0.36432046,15.3,-4.44,-3.6
1554880558330,-9.069236,-1.8489223000000001,1.6609775000000002,-0.096939065,0.07989483,0.2790993,15.12,-4.92,-3.48
1554880558348,-9.251195,-1.7818846999999998,1.6561891,-0.034088463,0.09267801,0.25246766,14.94,-5.28,-3.42
1554880558369,-9.078813,-1.9829974999999997,1.9339164,-0.07669904,0.10226539,0.24927188,14.76,-5.7,-3.36
1554880558389,-9.136273,-2.0069396,1.857302,-0.07137272,0.08522116,0.21944448,14.64,-6.12,-3.3
1554880558408,-9.500193,-1.7866731,1.7040731,0.015978966,0.039414786,0.16724652,14.52,-6.48,-3.24
1554880558428,-9.466674000000001,-1.6621746,1.3497312,0.12037488,-0.035153727999999995,0.16618125,14.4,-6.84,-3.24
1554880558448,-9.351752000000001,-1.7100586,1.4024036,0.07776430000000001,-0.05219796,0.21624869,14.28,-7.14,-3.18
1554880558469,-9.222465,-1.8489223000000001,1.7184383,-0.06178534,-0.06391586,0.18109496,14.16,-7.5,-3.18
1554880558489,-8.528147,-1.834557,2.9059622000000003,-0.2034655,-0.018109497,0.10972224,13.92,-7.92,-3.12
1554880558508,-8.614338,-1.1785458,2.6856956000000003,-0.0010652645,0.0053263223,-0.02876214,13.74,-8.34,-3.12
1554880558528,-9.255983,-1.3126211,1.4790181,0.17896444,-0.0063915867,-0.12357068,13.56,-8.76,-3.12
1554880558549,-9.112331,-1.7292121999999999,1.8046296000000002,0.0010652645,0.03089267,-0.082025364,13.44,-9.06,-3.12
1554880558569,-8.99741,-2.1841104,1.7280151000000001,-0.2034655,0.01917476,-0.05752428,13.32,-9.3,-3.18
1554880558588,-9.112331,-2.5240872000000003,1.3210008,-0.35579833,-0.010652645,-0.101200126,13.26,-9.42,-3.3
1554880558609,-9.677363,-2.4283189999999997,1.1055226,-0.47617322,-0.022370555,-0.11717909,13.26,-9.6,-3.36
1554880558629,-10.022128,-2.5959132,1.0720038,-0.5603291,-0.07776430000000001,-0.026631612000000002,13.44,-9.66,-3.48
1554880558649,-9.610325999999999,-2.4666264,1.9674352,-0.43675843,-0.10333065,0.098004326,13.62,-9.72,-3.54
1554880558668,-9.356541,-2.1984756,2.1015105,-0.20879184,-0.10439592,0.128897,13.8,-9.66,-3.66
1554880558689,-9.323022,-1.8537107,2.6234465,0.035153727999999995,-0.04474111,0.07350325,13.98,-9.6,-3.72
1554880558709,-9.481038999999999,-1.4466964,2.3505075,0.19600865,0.027696876000000002,0.026631612000000002,14.1,-9.6,-3.84
1554880558729,-9.509769,-1.5089456,1.6178818000000001,0.10972224,0.03089267,0.023435817999999997,14.22,-9.6,-3.96
1554880558749,-9.078813,-1.5759833,1.1534066,-0.24927188,0.008522116,0.0053263223,14.28,-9.66,-4.08
1554880558768,-9.078813,-2.0021513,1.1486181999999998,-0.71159667,-0.026631612000000002,-0.033023197000000004,14.16,-9.72,-4.2
1554880558789,-9.246407000000001,-2.212841,1.3066356000000001,-1.0279802,-0.027696876000000002,-0.04261058,14.04,-9.78,-4.26
1554880558809,-9.212888000000001,-2.581548,1.3976152,-1.2634037,-0.07243799,-0.035153727999999995,13.86,-9.84,-4.38
1554880558829,-8.987833,-2.6868927000000005,1.8668787,-1.2612731000000001,-0.082025364,-0.018109497,13.74,-9.9,-4.5
1554880558849,-9.11712,-2.6150667999999997,2.3265655,-0.9853696,-0.07137272,-0.040480047000000005,13.62,-9.96,-4.68
1554880558869,-9.299078999999999,-2.5911248,1.8716671000000003,-0.45912898,-0.024501082,-0.04474111,13.5,-10.08,-4.92
1554880558889,-9.370906,-2.5911248,1.8333599999999999,-0.07456851,0.022370555,-0.00958738,13.44,-10.32,-5.22
1554880558909,-9.188946000000001,-2.4283189999999997,1.5795746000000002,0.18535602,0.027696876000000002,0.017044231,13.44,-10.68,-5.7
1554880558929,-9.11712,-2.0500352,1.5556326,0.24394555,0.020240024,0.018109497,13.44,-10.92,-6.0
1554880558949,-9.093178,-1.9111716,1.5699978,0.18429075,0.04474111,-0.022370555,13.44,-11.1,-6.3
1554880558969,-9.457097000000001,-1.7531542000000002,1.8620903000000002,0.08735169,0.08948222,-0.058589544,13.44,-11.34,-6.6
1554880558989,-9.519346,-1.9782091,1.6226702,-0.027696876000000002,0.10226539,-0.049002163,13.5,-11.58,-6.9
1554880559008,-9.323022,-2.3038206000000003,1.3018471999999999,-0.17150758,0.10439592,-0.013848438000000001,13.5,-11.76,-7.02
1554880559028,-9.605537,-2.1888987999999996,1.407192,-0.22903186,0.14061491,-0.017044231,13.5,-11.88,-7.08
1554880559048,-9.797073,-2.2990322,0.98102415,-0.19813919,0.12037488,-0.007456851,13.56,-11.88,-7.08
1554880559069,-9.572019000000001,-2.356493,0.76075757,-0.22690132,0.07669904,0.05219796,13.56,-11.88,-7.14
1554880559089,-9.155427,-2.1362264,1.2012907,-0.19707392,0.041545313,0.07563378,13.62,-11.88,-7.14
1554880559108,-9.404425,-2.0452468,0.56443304,0.05006743,-0.068176925,0.026631612000000002,13.68,-11.94,-7.14
1554880559128,-9.006986999999999,-2.1170728,0.86131406,-0.02876214,-0.11611383,0.04261058,13.74,-11.94,-7.14
1554880559149,-9.112331,-2.0691888,1.2731166999999999,-0.16405073,-0.08735169,0.008522116,13.74,-12.0,-7.2
1554880559169,-9.260772,-2.107496,1.1917138999999999,-0.2908172,-0.06178534,-0.05965481,13.8,-12.06,-7.2
1554880559189,-9.016563,-2.0117279999999997,1.5029601000000001,-0.29507825,-0.01917476,-0.046871635999999994,13.8,-12.12,-7.26
1554880559209,-9.222465,-1.9782091,1.9578583999999999,-0.096939065,0.014913702,-0.068176925,13.86,-12.18,-7.26
1554880559229,-9.485827,-2.3517046,1.3640964,0.014913702,0.02876214,-0.084155895,13.86,-12.18,-7.32
1554880559248,-9.457097000000001,-2.6629508,1.1486181999999998,-0.022370555,0.033023197000000004,-0.05965481,13.8,-12.24,-7.32
1554880559269,-9.289502,-2.7491422,1.0911574,-0.06391586,0.015978966,-0.047936900000000005,13.8,-12.3,-7.38
1554880559289,-9.093178,-2.4905684,1.6609775000000002,0.007456851,-0.002130529,-0.06178534,13.8,-12.3,-7.38
1554880559309,-9.217675999999999,-2.5001452,1.7854759999999998,0.16831179,0.008522116,-0.04580637,13.8,-12.36,-7.44
1554880559328,-9.370906,-2.3229742,1.311424,0.28868666,0.00958738,0.0063915867,13.74,-12.3,-7.44
1554880559349,-9.519346,-2.2703017999999995,1.3640964,0.2908172,0.008522116,0.035153727999999995,13.68,-12.3,-7.5
1554880559369,-9.14585,-2.1027076,1.7806876,0.2428803,-0.010652645,0.025566347000000003,13.62,-12.36,-7.56
1554880559388,-9.23683,-2.1984756,1.7711107,0.15978967,0.0,0.002130529,13.56,-12.36,-7.56
1554880559409,-9.634267999999999,-2.2463598,1.6035166,0.004261058,0.043675844000000005,-0.012783173500000002,13.5,-12.36,-7.62
1554880559429,-9.504980999999999,-2.15538,1.9913772,-0.017044231,0.083090626,0.022370555,13.44,-12.36,-7.62
1554880559448,-9.323022,-2.5192987999999996,1.9913772,0.17470337,0.09267801,0.08522116,13.38,-12.36,-7.62
1554880559468,-9.457097000000001,-2.6342204,1.4646529,0.3323625,0.082025364,0.06391586,13.32,-12.36,-7.62
1554880559489,-9.289502,-2.1745335999999997,1.7136499,0.43995422,0.08522116,0.004261058,13.32,-12.36,-7.62
1554880559509,-9.299078999999999,-2.2942438,1.3976152,0.5944176,0.096939065,0.049002163,13.26,-12.36,-7.62
1554880559529,-9.370906,-2.2415714,0.98102415,0.6018744,0.09161274,0.10972224,13.26,-12.36,-7.56
1554880559549,-9.466674000000001,-1.7914615000000003,1.2539631000000002,0.44315,0.10972224,0.047936900000000005,13.26,-12.36,-7.5
1554880559569,-9.457097000000001,-1.6190788999999999,0.46866497,0.18855181,0.05539375,-0.0063915867,13.26,-12.36,-7.32
1554880559589,-9.672575,-1.6765398,0.3824737,-0.040480047000000005,0.027696876000000002,0.027696876000000002,13.2,-12.36,-7.14
1554880559608,-9.390058999999999,-1.6334441000000002,1.0576386,-0.11717909,-0.025566347000000003,0.041545313,13.2,-12.36,-6.84
1554880559628,-9.275136999999999,-1.6669630000000002,1.0384849,-0.07669904,-0.053263225,-0.00958738,13.14,-12.36,-6.72
1554880559649,-9.619903,-1.8201918999999998,1.1629834,-0.05965481,-0.054328485999999995,-0.024501082,13.08,-12.42,-6.36
1554880559670,-9.457097000000001,-1.9590555,1.5269021,-0.15765914,-0.035153727999999995,0.039414786,13.02,-12.42,-6.12
1554880559689,-9.294291000000001,-2.0404584,1.8956091,-0.17257284,0.00958738,0.07669904,13.02,-12.48,-6.0
1554880559709,-9.136273,-2.1745335999999997,1.7088615000000003,-0.10972224,0.01917476,0.07563378,12.96,-12.54,-5.88
1554880559729,-9.3421755,-2.1362264,1.5077485000000002,0.03195793,0.035153727999999995,0.07137272,12.9,-12.54,-5.76
1554880559749,-9.528922999999999,-1.9686323000000001,1.0001777,0.20240025,0.024501082,0.07563378,12.84,-12.6,-5.76
1554880559769,-9.452309,-1.9015948,0.85173726,0.33981937,0.004261058,0.07563378,12.78,-12.66,-5.82
1554880559788,-9.275136999999999,-1.6142905,1.062427,0.30892670000000005,-0.002130529,0.06604639400000001,12.72,-12.72,-5.94
1554880559809,-9.155427,-1.4371196000000002,0.97623575,0.19174760000000002,-0.014913702,0.040480047000000005,12.72,-12.78,-6.0
1554880559828,-9.23683,-1.4466964,1.1055226,0.068176925,-0.015978966,0.0010652645,12.66,-12.84,-6.12
1554880559848,-9.332599,-1.4945803999999998,0.9044097,-0.07989483,-0.01917476,-0.05006743,12.66,-12.84,-6.18
1554880559869,-9.385271000000001,-1.5951369,0.9475053,-0.22690132,-0.035153727999999995,-0.10333065,12.66,-12.84,-6.24
1554880559888,-9.346964,-1.6478093,1.3210008,-0.39734364,-0.056459017,-0.1107875,12.66,-12.84,-6.3
1554880559908,-9.495403999999999,-1.9686323000000001,1.1534066,-0.48149952,-0.084155895,-0.09054748,12.72,-12.84,-6.3
1554880559929,-9.452309,-2.179322,1.2012907,-0.48149952,-0.111852765,-0.07030745599999999,12.78,-12.84,-6.24
1554880559949,-9.481038999999999,-2.1218612,1.6178818000000001,-0.38562572,-0.10652645,-0.09161274,12.78,-12.84,-6.12
1554880559969,-9.370906,-2.0213048,1.9147629000000002,-0.23755397,-0.084155895,-0.10972224,12.84,-12.9,-6.12
1554880559989,-9.423578,-2.1362264,1.5795746000000002,-0.14807177,-0.041545313,-0.09267801,12.9,-12.96,-6.06
1554880560008,-9.399636,-2.2176294,1.359308,-0.13422333,-0.034088463,-0.082025364,12.9,-13.02,-6.12
1554880560028,-9.303867,-2.404377,1.4359225,-0.06285059999999999,-0.03195793,-0.06498113,12.96,-13.08,-6.36
1554880560048,-9.217675999999999,-2.2703017999999995,1.632247,0.068176925,-0.026631612000000002,-0.06285059999999999,12.96,-13.14,-6.48
1554880560069,-9.375694000000001,-2.1027076,1.7136499,0.16298546,-0.034088463,-0.06604639400000001,13.02,-13.26,-6.66
1554880560088,-9.495403999999999,-2.0691888,1.311424,0.16618125,-0.05752428,-0.05752428,13.02,-13.38,-6.78
1554880560111,-9.404425,-2.0308816000000003,1.287482,0.11504856,-0.07563378,-0.03089267,13.02,-13.5,-6.9
1554880560128,-9.399636,-1.9063831999999998,1.5221136999999998,0.11930962,-0.08841695,-0.037284255,13.02,-13.62,-7.02
1554880560148,-9.255983,-1.8776526000000002,1.3736732,0.06604639400000001,-0.084155895,-0.053263225,13.02,-13.8,-7.14
1554880560168,-9.385271000000001,-1.7914615000000003,1.5077485000000002,-0.03834952,-0.06711166,-0.058589544,12.96,-13.98,-7.26
1554880560188,-9.552864999999999,-1.9015948,1.3257892,-0.09374327,-0.04261058,-0.05219796,12.96,-14.16,-7.32
1554880560208,-9.490616000000001,-2.0308816000000003,1.4502877,-0.058589544,-0.05219796,-0.06391586,12.96,-14.28,-7.32
1554880560228,-9.198523,-2.0452468,1.2683283,-0.054328485999999995,-0.07669904,-0.083090626,12.96,-14.4,-7.38
1554880560249,-9.136273,-2.2559366,1.3066356000000001,-0.10226539,-0.09161274,-0.080960095,13.02,-14.4,-7.44
1554880560269,-9.232041,-2.203264,1.5221136999999998,-0.1470065,-0.06711166,-0.060720075,13.14,-14.28,-7.5
1554880560288,-9.370906,-2.2463598,1.6418238,-0.11930962,-0.041545313,-0.05539375,13.2,-14.04,-7.56
1554880560309,-9.581595,-2.212841,1.4790181,0.020240024,-0.05219796,-0.06391586,13.32,-13.8,-7.56
1554880560328,-9.519346,-2.083554,1.6226702,0.09054748,-0.06285059999999999,-0.03834952,13.38,-13.62,-7.56
1554880560348,-9.289502,-2.0117279999999997,1.6849195,0.083090626,-0.05219796,-0.022370555,13.5,-13.32,-7.56
1554880560369,-9.232041,-2.15538,1.8668787,-0.0063915867,-0.024501082,-0.03195793,13.56,-13.08,-7.56
1554880560389,-9.370906,-2.1362264,1.9147629000000002,-0.07669904,0.010652645,-0.022370555,13.56,-12.84,-7.56
1554880560409,-9.390058999999999,-2.1266496,2.0440497,0.035153727999999995,0.014913702,-0.012783173500000002,13.5,-12.66,-7.56
1554880560428,-9.423578,-2.0739772000000003,1.8237831999999998,0.21624869,0.008522116,-0.03089267,13.44,-12.6,-7.56
1554880560449,-9.3661175,-2.179322,1.2731166999999999,0.20240025,0.0063915867,-0.012783173500000002,13.38,-12.6,-7.56
1554880560469,-9.332599,-2.236783,1.158195,0.12570119999999999,-0.033023197000000004,0.020240024,13.32,-12.6,-7.56
1554880560489,-9.121908,-1.9925743000000002,1.5747862,0.111852765,-0.068176925,-0.0063915867,13.26,-12.66,-7.62
1554880560508,-9.165004,-1.8441339,1.6370354,0.07243799,-0.047936900000000005,-0.07882957,13.2,-12.66,-7.62
1554880560529,-9.3661175,-1.8441339,1.2970588,-0.025566347000000003,-0.03089267,-0.08522116,13.26,-12.72,-7.62
1554880560549,-9.351752000000001,-2.2894554,1.6226702,-0.13741912,-0.025566347000000003,-0.035153727999999995,13.26,-12.72,-7.62
1554880560569,-9.165004,-2.2463598,1.5364790000000002,-0.13635385,-0.015978966,-0.014913702,13.38,-12.78,-7.62
1554880560588,-9.193734,-2.2703017999999995,1.7088615000000003,-0.060720075,-0.024501082,-0.04261058,13.44,-12.78,-7.62
1554880560609,-9.370906,-2.260725,1.4885948999999998,-0.010652645,-0.010652645,-0.04261058,13.56,-12.6,-7.62
1554880560629,-9.404425,-2.3038206000000003,1.6130934,0.041545313,-0.024501082,-0.023435817999999997,13.68,-12.42,-7.62
1554880560648,-9.327810000000001,-2.0213048,1.8764555,0.082025364,-0.024501082,-0.010652645,13.8,-12.24,-7.62
1554880560670,-9.504980999999999,-1.9686323000000001,1.7567455,0.11504856,0.007456851,-0.002130529,13.86,-12.12,-7.62
1554880560689,-9.356541,-2.0644004000000002,1.5795746000000002,0.1107875,0.014913702,-0.004261058,13.92,-11.94,-7.62
1554880560709,-9.26556,-2.2703017999999995,1.4742297,0.09374327,-0.026631612000000002,0.0031957934000000003,13.92,-11.82,-7.62
1554880560728,-9.3661175,-2.0931308,1.6944963,0.09054748,-0.010652645,0.00958738,13.92,-11.82,-7.62
1554880560748,-9.284714,-1.9782091,1.6226702,0.11717909,0.02130529,0.014913702,13.92,-11.94,-7.62
1554880560768,-9.169792,-1.8680758000000002,1.1821371,0.13528858,0.01917476,0.010652645,13.92,-12.12,-7.62
1554880560792,-9.246407000000001,-1.8776526000000002,1.4119805,0.046871635999999994,-0.025566347000000003,-0.024501082,13.86,-12.36,-7.56
1554880560808,-9.433155000000001,-1.9686323000000001,1.6370354,-0.04474111,-0.00958738,-0.041545313,13.86,-12.6,-7.56
1554880560828,-9.548077000000001,-2.0260932,1.8285716,-0.043675844000000005,0.0,-0.037284255,13.8,-12.84,-7.56
1554880560848,-9.323022,-2.236783,1.5508442,0.02876214,-0.017044231,0.0053263223,13.74,-13.02,-7.5
1554880560869,-9.23683,-2.2798786,1.4981716999999999,0.023435817999999997,-0.011717908999999999,0.03834952,13.68,-13.2,-7.56
1554880560890,-9.303867,-2.1984756,1.6657659,-0.022370555,0.0031957934000000003,0.068176925,13.68,-13.26,-7.56
1554880560909,-9.279925,-2.0117279999999997,1.7471686999999998,0.040480047000000005,0.018109497,0.01917476,13.62,-13.26,-7.56
1554880560929,-9.337387,-1.7579426,1.7758990000000001,0.10333065,0.0010652645,-0.026631612000000002,13.62,-13.26,-7.62
1554880560949,-9.088389,-1.3461398999999998,3.2603042,0.05752428,0.004261058,-0.004261058,13.62,-13.26,-7.62
1554880560969,-5.4061074,-3.1609447,0.43993455,0.05752428,-0.27590349999999997,0.060720075,13.62,-13.26,-7.62
1554880560988,-9.993398,-3.0268695,0.86131406,0.16618125,-0.12463594,-0.17363810000000002,13.56,-13.2,-7.62
1554880561008,-10.548853,-1.5472529,2.6665419999999997,0.112918034,-0.25672874,-0.48149952,13.5,-13.2,-7.62
1554880561028,-10.366894,-1.513734,3.2698810000000003,0.7978831000000001,-0.21731395,-0.24181503,13.44,-13.14,-7.62
1554880561049,-11.650186,-1.3317747,2.4893713,1.1952267,-0.16831179,0.0053263223,13.38,-13.14,-7.56
1554880561069,-10.156203,-1.240795,1.881244,0.716923,-0.13848437,0.09161274,13.26,-13.08,-7.56
1554880561089,-10.055647,-1.7004818,2.7766755,0.18642128,-0.0010652645,0.23435818,13.26,-13.02,-7.5
1554880561109,-9.600749,-1.6478093,3.5236663999999998,0.024501082,0.10972224,0.30253512,13.26,-12.9,-7.44
1554880561129,-8.556877,-1.5951369,2.6426,0.20240025,0.22050974,0.26525086,13.32,-12.78,-7.32
1554880561149,-8.556877,-2.1505916000000003,2.7096379,0.46019423,0.36218992,0.23329292,13.38,-12.72,-7.2
1554880561168,-8.207322999999999,-1.9782091,2.2547395,0.680704,0.45593318,0.15126756,13.5,-12.6,-7.02
1554880561189,-8.48984,-1.7052702000000002,1.2539631000000002,0.850081,0.5581986,-0.0053263223,13.56,-12.48,-6.84
1554880561209,-8.901641999999999,-1.3269863000000002,0.7080852,0.8064051999999999,0.6018744,-0.1470065,13.5,-12.36,-6.66
1554880561228,-9.016563,-1.7244238,-0.18255788,0.5518069999999999,0.5123922000000001,-0.18535602,13.38,-12.3,-6.42
1554880561249,-8.892064999999999,-1.762731,0.6410475,0.28016454,0.44847634,-0.19813919,13.26,-12.18,-6.06
1554880561269,-8.695741,-1.6382325,0.82779527,0.07243799,0.38349520000000004,-0.2695119,13.08,-12.12,-5.58
1554880561289,-8.834603999999999,-1.6909049999999999,1.1150993999999999,-0.040480047000000005,0.33981937,-0.32597092,12.9,-11.88,-4.98
1554880561309,-9.021352,-1.9351135,1.632247,0.02130529,0.3174488,-0.31212249999999997,12.72,-11.7,-4.5
1554880561329,-9.064447,-1.8154035,1.4359225,0.21837921,0.28975195,-0.31638354,12.6,-11.46,-4.02
1554880561349,-9.466674000000001,-1.8249803,1.2587515,0.36218992,0.2876214,-0.36325517,12.42,-11.28,-3.54
1554880561369,-9.634267999999999,-1.7052702000000002,1.1246762,0.30679616,0.26312032,-0.4101268,12.48,-11.04,-3.06
1554880561389,-9.557653,-1.9925743000000002,1.1917138999999999,0.18322548,0.24181503,-0.38456047,12.54,-10.8,-2.64
1554880561408,-9.610325999999999,-2.3612813999999998,0.9283517,0.06711166,0.22796659,-0.3153183,12.6,-10.62,-2.34
1554880561428,-9.605537,-2.380435,1.1486181999999998,-0.023435817999999997,0.23542345,-0.28549087,12.6,-10.38,-2.16
1554880561450,-9.77792,-2.2703017999999995,1.2348095,-0.04261058,0.2428803,-0.257794,12.6,-10.14,-1.98
1554880561468,-9.528922999999999,-2.2511482000000003,1.4359225,0.046871635999999994,0.23755397,-0.22477080000000002,12.6,-9.9,-1.8
1554880561489,-9.332599,-2.2798786,1.0720038,0.15552860000000002,0.22477080000000002,-0.1768339,12.66,-9.6,-1.68
1554880561509,-9.452309,-2.4331074,0.96187055,0.26418558,0.23009712,-0.15233281,12.78,-9.3,-1.56
1554880561528,-9.299078999999999,-2.3373394,0.9091981,0.33662358,0.23755397,-0.16724652,12.84,-9.0,-1.38
1554880561548,-9.179369,-2.380435,0.789488,0.34408042,0.24181503,-0.17257284,12.96,-8.7,-1.2
1554880561568,-9.002198,-2.2463598,0.74639237,0.32170987,0.2428803,-0.17257284,13.02,-8.34,-0.96
1554880561589,-9.150639,-2.2703017999999995,0.54527944,0.27164245,0.2428803,-0.2066613,13.14,-7.92,-0.66
1554880561609,-9.279925,-2.1601684,0.46387658,0.21411815,0.24181503,-0.28122982,13.14,-7.5,-0.36
1554880561628,-9.409213000000001,-2.2990322,0.54049104,0.15446335,0.22903186,-0.31957933,13.2,-7.2,-0.12
1554880561649,-9.394848,-2.4187422,0.5883751,0.07456851,0.22370553,-0.3153183,13.14,-6.9,0.12
1554880561668,-9.485827,-2.404377,0.29149407,-0.004261058,0.18855181,-0.32277513,13.08,-6.6,0.36
1554880561688,-9.682152,-2.5959132,0.15263036,-0.080960095,0.15765914,-0.3323625,13.02,-6.36,0.6
1554880561713,-9.643844999999999,-2.6581624,0.17657238,-0.22583607,0.14274544,-0.3153183,12.96,-6.12,0.9
1554880561728,-9.528922999999999,-2.878429,0.21009120000000003,-0.37816888,0.12996227,-0.26738137,12.84,-5.94,1.08
1554880561749,-9.629479,-3.1992521000000003,0.22445641,-0.4889564,0.12996227,-0.21944448,12.78,-5.88,1.14
1554880561769,-9.519346,-3.2040405,0.41120413,-0.5070659000000001,0.13209279,-0.20026971,12.72,-5.82,1.2
1554880561788,-9.390058999999999,-3.0986955000000003,0.39205053,-0.40906155,0.13528858,-0.18002969,12.66,-5.76,1.26
1554880561809,-9.375694000000001,-3.1896752999999998,0.6171055000000001,-0.24501082,0.13848437,-0.15020229,12.6,-5.7,1.32
1554880561828,-9.227253,-3.0603882999999996,0.5021838,-0.027696876000000002,0.1438107,-0.13102753,12.54,-5.58,1.38
1554880561849,-9.030928999999999,-2.9933507,0.55964464,0.21092236,0.14061491,-0.14061491,12.54,-5.58,1.44
1554880561868,-9.102755,-2.806603,0.34895490000000007,0.38456047,0.12570119999999999,-0.18216023,12.54,-5.52,1.44
1554880561889,-9.093178,-2.7204118,-0.048482585999999994,0.43462790000000007,0.12357068,-0.21518342,12.54,-5.4,1.44
1554880561909,-9.23683,-2.7539306,-0.014963761,0.36964676,0.13315806,-0.25140239999999997,12.54,-5.34,1.44
1554880561929,-9.141062,-2.710835,0.17657238,0.25246766,0.15339808,-0.28336033,12.6,-5.22,1.44
1554880561948,-9.198523,-2.8496985,0.22445641,0.17257284,0.16831179,-0.30360037,12.6,-5.04,1.5
1554880561968,-9.251195,-3.0364463,0.21487960000000003,0.13209279,0.16618125,-0.30253512,12.6,-4.74,1.56
1554880561988,-9.394848,-3.2806550000000003,0.090381116,0.12463594,0.16298546,-0.2790993,12.6,-4.44,1.68
1554880562008,-9.308656,-3.6110547,-0.0053869537,0.12250541,0.14594123,-0.25033715,12.6,-4.08,1.86
1554880562028,-9.222465,-3.7738605000000005,0.037708677,0.12783173,0.1438107,-0.22050974,12.6,-3.72,2.1
1554880562048,-9.136273,-3.7499184999999997,0.04249708,0.1587244,0.15233281,-0.19281286,12.6,-3.36,2.34
1554880562068,-9.275136999999999,-3.6589386,-0.010175358,0.19068234,0.15126756,-0.16937704,12.6,-3.0,2.58
1554880562088,-9.246407000000001,-3.6206315000000004,-0.28790274,0.221575,0.13954964,-0.13422333,12.6,-2.7,2.88
1554880562109,-9.107543,-3.4865562999999993,0.0041898529999999995,0.23222765,0.13102753,-0.10333065,12.6,-2.52,3.12
1554880562129,-9.121908,-3.5296519,-0.019752163,0.22477080000000002,0.12463594,-0.09587380000000001,12.6,-2.34,3.36
1554880562148,-9.217675999999999,-3.5152867,0.090381116,0.18429075,0.11930962,-0.09054748,12.6,-2.16,3.54
1554880562169,-9.121908,-3.5104983,-0.12988544,0.13422333,0.10865697,-0.07456851,12.6,-1.98,3.66
1554880562189,-9.160214999999999,-3.4865562999999993,-0.038905777,0.10652645,0.098004326,-0.05219796,12.6,-1.74,3.72
1554880562209,-9.040505,-3.520075,-0.04369418,0.101200126,0.068176925,-0.05539375,12.54,-1.5,3.78
1554880562228,-9.064447,-3.5679589999999997,-0.24480712,0.11930962,0.060720075,-0.06498113,12.54,-1.26,3.84
1554880562248,-9.121908,-3.5583823,-0.06284779,0.128897,0.06711166,-0.06604639400000001,12.54,-1.02,3.9
1554880562269,-9.040505,-3.5057099999999997,-0.0676362,0.128897,0.07243799,-0.05539375,12.48,-0.84,3.96
1554880562288,-9.14585,-3.4195184999999997,-0.16340427,0.12463594,0.06178534,-0.05752428,12.48,-0.66,3.96
1554880562308,-9.102755,-3.4003648999999996,-0.24480712,0.128897,0.043675844000000005,-0.056459017,12.48,-0.48,3.96
1554880562329,-9.11712,-3.3333273,-0.35494040000000004,0.09587380000000001,0.035153727999999995,-0.06178534,12.48,-0.36,4.02
1554880562349,-9.14585,-3.4913447,-0.077213004,0.068176925,0.04580637,-0.05752428,12.48,-0.36,4.08
1554880562368,-9.126697,-3.5152867,-0.09636662,0.025566347000000003,0.056459017,-0.039414786,12.48,-0.3,4.2
1554880562389,-9.14585,-3.5775358999999995,0.018555064,-0.017044231,0.06285059999999999,-0.013848438000000001,12.42,-0.3,4.32
1554880562409,-9.078813,-3.5727474999999997,0.17178397,-0.020240024,0.06924219,-0.010652645,12.42,-0.24,4.38
1554880562428,-9.074024,-3.5248635000000004,-0.05327099,0.017044231,0.06498113,-0.023435817999999997,12.48,-0.18,4.5
1554880562449,-9.131485000000001,-3.4530375,-0.17298107,0.08948222,0.05752428,-0.020240024,12.48,-0.12,4.56
1554880562468,-9.040505,-3.5775358999999995,-0.21607670000000004,0.09374327,0.054328485999999995,-0.008522116,12.48,-0.06,4.62
1554880562488,-9.112331,-3.5823242999999994,-0.0676362,0.080960095,0.051132694000000006,-0.0031957934000000003,12.42,0.0,4.68
1554880562509,-9.11712,-3.5248635000000004,-0.43155485,0.053263225,0.043675844000000005,-0.011717908999999999,12.42,0.06,4.74
1554880562528,-9.064447,-3.5727474999999997,-0.36930559999999996,0.02130529,0.025566347000000003,-0.010652645,12.42,0.12,4.8
1554880562549,-9.136273,-3.5775358999999995,-0.14903906,-0.018109497,0.0,-0.0031957934000000003,12.36,0.12,4.8
1554880562568,-9.069236,-3.5440169999999998,-0.30226797,-0.026631612000000002,-0.014913702,-0.020240024,12.36,0.18,4.86
1554880562589,-9.088389,-3.4338839999999995,-0.09636662,-0.02130529,-0.036218993,-0.05006743,12.36,0.18,4.92
1554880562608,-9.097966,-3.3955764999999998,-0.12030864,0.0053263223,-0.039414786,-0.06604639400000001,12.3,0.18,4.92
1554880562628,-9.069236,-3.3812113,-0.0724246,0.017044231,-0.03195793,-0.06391586,12.3,0.12,4.98
1554880562649,-9.050082000000002,-3.4338839999999995,-0.077213004,0.018109497,-0.027696876000000002,-0.07030745599999999,12.3,0.06,5.04
1554880562669,-9.093178,-3.4338839999999995,-0.038905777,-0.0010652645,-0.018109497,-0.06498113,12.24,0.0,5.1
1554880562688,-9.074024,-3.4913447,0.02813187,-0.015978966,-0.025566347000000003,-0.06391586,12.24,-0.06,5.1
1554880562711,-9.102755,-3.5009214999999996,-0.22086509999999998,-0.035153727999999995,-0.036218993,-0.06924219,12.24,-0.18,5.16
1554880562729,-8.963891,-3.4338839999999995,-0.038905777,-0.024501082,-0.040480047000000005,-0.09161274,12.24,-0.18,5.16
1554880562749,-9.097966,-3.4721910000000005,-0.038905777,-0.025566347000000003,-0.033023197000000004,-0.10013486,12.24,-0.18,5.16
1554880562769,-9.136273,-3.4386723,-0.12988544,-0.047936900000000005,-0.013848438000000001,-0.09374327,12.24,-0.18,5.16
1554880562790,-8.983044999999999,-3.4003648999999996,-0.05327099,-0.10972224,-0.00958738,-0.09161274,12.24,-0.06,5.16
1554880562809,-8.949525999999999,-3.3812113,-0.02932897,-0.16831179,0.0,-0.13528858,12.24,0.0,5.16
1554880562829,-9.006986999999999,-3.256713,-0.077213004,-0.21731395,0.0010652645,-0.165116,12.3,0.06,5.16
1554880562848,-8.925583999999999,-3.3716345000000003,-0.17298107,-0.2727077,-0.0031957934000000003,-0.17257284,12.3,0.18,5.22
1554880562868,-8.944737,-3.4626143,-0.623091,-0.37071204,-0.01917476,-0.20453078,12.3,0.24,5.16
1554880562888,-8.978256,-3.6062663,-0.47465047,-0.49534798,-0.015978966,-0.23968449999999997,12.36,0.24,5.16
1554880562908,-8.901641999999999,-3.5679589999999997,-0.31184477,-0.58483016,-0.00958738,-0.25672874,12.36,0.3,5.16
1554880562929,-8.901641999999999,-3.6014779000000003,-0.4842273,-0.66579026,-0.013848438000000001,-0.26418558,12.36,0.3,5.1
1554880562950,-8.868122999999999,-3.6110547,-0.56084174,-0.9012136999999999,-0.027696876000000002,-0.28549087,12.36,0.3,4.98
1554880562968,-8.844180999999999,-3.5966894999999997,-1.0013748,-1.1014834999999998,-0.035153727999999995,-0.32277513,12.42,0.3,4.92
1554880562988,-8.882488,-3.4913447,-1.0253168,-1.3646038,-0.06498113,-0.38136467,12.42,0.3,4.68
1554880563009,-8.762777999999999,-3.5152867,-0.9199719999999999,-1.5819178,-0.05539375,-0.43036684,12.48,0.24,4.44
1554880563029,-8.700529,-3.7116113,-1.192911,-1.8716697,-0.022370555,-0.44101948,12.54,0.18,4.14
1554880563048,-8.801085,-3.8313212,-1.5807717,-2.324407,0.025566347000000003,-0.4133226,12.6,0.0,3.84
1554880563069,-8.628703,-3.697246,-1.4706384,-2.828277,0.10759171,-0.4165184,12.72,-0.42,3.6
1554880563088,-8.643068,-3.74513,-2.581548,-3.4226947,0.16831179,-0.43675843,12.84,-1.2,2.94
1554880563108,-8.839393,-3.9893386,-3.2806550000000003,-3.8019288,0.1768339,-0.40906155,12.9,-1.56,2.7
1554880563128,-8.595184,-4.1760864,-3.2231941,-4.256797,0.18748654,-0.38456047,12.96,-2.22,2.04
1554880563148,-8.576031,-4.377199,-3.6541502,-4.603008,0.20453078,-0.38882150000000004,13.26,-3.06,1.26
1554880563169,-8.825027,-4.463390400000001,-4.496909,-5.178250299999999,0.18216023,-0.29507825,13.68,-4.56,-0.42
1554880563188,-8.75799,-4.0994720000000004,-5.6221843,-5.643771,0.1438107,-0.22477080000000002,13.98,-5.88,-1.86
1554880563208,-8.805874000000001,-3.7499184999999997,-5.7849900000000005,-5.8078218,0.0031957934000000003,-0.20453078,14.22,-6.96,-3.54
1554880563228,-8.992621,-2.9885623,-5.468955,-5.426457,-0.28229508,-0.28868666,14.52,-7.98,-5.4
1554880563250,-8.916007,-2.9694088,-5.9477954,-4.286624,-0.6114618,-0.39521313,14.76,-8.94,-7.62
1554880563268,-8.887277000000001,-2.5432408,-5.4641665999999995,-3.5270905,-0.7680557,-0.42717105,15.06,-9.78,-9.84
1554880563289,-8.51857,-2.131438,-4.573524,-2.5811357000000004,-0.9129315999999998,-0.49960902,15.24,-10.56,-11.88
1554880563308,-8.834603999999999,-1.5711948999999998,-4.745906400000001,-1.892975,-0.9310411,-0.57311225,15.3,-11.1,-13.92
1554880563328,-9.160214999999999,-1.1019313,-4.789002,-1.5243934,-0.98430437,-0.5613944000000001,15.36,-11.4,-15.78
1554880563349,-9.208099,-1.2838906,-4.7985787,-1.3667343,-1.1334413,-0.56885123,15.48,-11.28,-17.46
1554880563368,-9.097966,-1.4993688,-4.4059295999999994,-1.4434333000000001,-1.2325108999999999,-0.6412892,15.54,-10.98,-19.14
1554880563388,-9.193734,-1.5951369,-3.7834373,-1.6543556000000001,-1.2271847,-0.63915867,15.6,-10.56,-20.76
1554880563409,-8.992621,-1.6717514,-3.591901,-1.8556907,-1.1973573,-0.608266,15.66,-9.9,-21.96
1554880563429,-8.599973,-2.212841,-3.208829,-2.0975057999999995,-1.1653993,-0.6135923000000001,15.72,-9.06,-23.1
1554880563449,-8.307879,-2.7156234,-2.2224178,-2.167813,-1.0929613,-0.700944,15.78,-8.1,-24.24
1554880563468,-8.576031,-2.9837740000000004,-1.9686323000000001,-1.7736653000000002,-0.9800433000000001,-0.7882956999999999,15.84,-6.96,-25.32
1554880563488,-8.844180999999999,-2.7635074,-1.7962499,-1.1781825000000001,-0.81705785,-0.6849651,15.84,-5.76,-26.4
1554880563509,-8.858546,-2.7491422,-2.2224178,-0.567786,-0.56885123,-0.44634579999999996,15.84,-4.44,-27.36
1554880563529,-8.7053175,-2.5432408,-2.356493,-0.27803403,-0.45273739999999996,-0.31318775,15.84,-3.12,-28.26
1554880563548,-8.628703,-2.2990322,-2.3660697999999996,-0.33662358,-0.4048005,-0.32597092,15.78,-1.8,-29.04
1554880563569,-8.7771435,-2.2798786,-2.7635074,-0.5091964,-0.28336033,-0.27164245,15.72,-0.72,-29.76
1554880563589,-9.016563,-2.5192987999999996,-2.5767596,-0.5997439,-0.23861924,-0.17044231,15.6,0.24,-30.36
1554880563609,-8.911219000000001,-2.533664,-2.356493,-0.48043427,-0.21731395,-0.13102753,15.42,1.02,-30.84
1554880563629,-9.002198,-2.2894554,-2.4139538,-0.26418558,-0.15659387,-0.111852765,15.24,1.62,-31.2
1554880563648,-9.323022,-2.236783,-2.533664,-0.04580637,-0.113983296,-0.07456851,15.12,2.16,-31.56
1554880563669,-9.179369,-2.1936872000000003,-2.5528176,0.112918034,-0.13422333,-0.05006743,14.94,2.52,-31.8
1554880563689,-9.327810000000001,-1.9542671000000003,-2.5288756,0.23222765,-0.13315806,-0.05539375,14.82,2.82,-31.92
1554880563708,-9.572019000000001,-1.8632874,-2.8592752999999997,0.21092236,-0.12037488,-0.03195793,14.76,3.06,-31.98
1554880563728,-9.605537,-1.6861166,-2.8688521000000002,0.046871635999999994,-0.17257284,-0.007456851,14.64,3.3,-32.1
1554880563748,-9.361329,-1.7914615000000003,-2.902371,-0.06711166,-0.25885928,-0.023435817999999997,14.64,3.54,-32.16
1554880563768,-9.251195,-1.9063831999999998,-2.3133974,-0.13848437,-0.27057716,-0.05006743,14.64,3.78,-32.22
1554880563788,-9.093178,-1.9303252,-1.9686323000000001,-0.14168017,-0.23329292,-0.040480047000000005,14.64,4.02,-32.28
1554880563809,-8.963891,-2.131438,-2.2080526000000003,-0.03834952,-0.15978967,-0.037284255,14.64,4.14,-32.4
1554880563828,-9.002198,-2.0213048,-2.3756466,0.034088463,-0.084155895,-0.022370555,14.7,4.2,-32.52
1554880563849,-9.121908,-1.8154035,-2.4809916000000003,0.09161274,-0.036218993,-0.00958738,14.7,4.14,-32.58
1554880563868,-9.255983,-1.6430208999999998,-2.356493,0.10652645,-0.015978966,-0.029827405,14.64,4.14,-32.64
1554880563888,-9.303867,-1.7483658,-2.6198552000000004,0.022370555,-0.015978966,-0.040480047000000005,14.58,4.08,-32.76
1554880563909,-9.452309,-1.963844,-2.4283189999999997,-0.08948222,-0.034088463,-0.02876214,14.58,4.02,-32.88
1554880563929,-9.437942999999999,-2.0117279999999997,-2.3660697999999996,-0.10865697,-0.06391586,-0.043675844000000005,14.52,3.96,-33.0
1554880563948,-9.442732000000001,-1.9063831999999998,-2.5192987999999996,-0.053263225,-0.07882957,-0.053263225,14.46,4.02,-33.24
1554880563968,-9.461885,-2.0069396,-2.3708582000000002,-0.026631612000000002,-0.08522116,-0.056459017,14.4,4.08,-33.42
1554880563989,-9.385271000000001,-1.9542671000000003,-2.3995886000000004,-0.046871635999999994,-0.07882957,-0.047936900000000005,14.28,4.14,-33.72
1554880564008,-9.246407000000001,-2.1458032000000005,-2.236783,-0.036218993,-0.07137272,-0.029827405,14.22,4.2,-33.9
1554880564029,-9.155427,-1.9829974999999997,-2.2559366,0.018109497,-0.041545313,-0.010652645,14.16,4.26,-34.08
1554880564049,-9.160214999999999,-2.0165164,-2.5001452,-0.0063915867,-0.018109497,-0.002130529,14.1,4.38,-34.2
1554880564069,-9.3182335,-1.9782091,-2.404377,-0.054328485999999995,-0.00958738,0.02130529,14.1,4.44,-34.32
1554880564089,-9.279925,-2.0691888,-2.1362264,-0.025566347000000003,-0.018109497,0.027696876000000002,14.04,4.44,-34.38
1554880564109,-9.203311,-1.9925743000000002,-2.0500352,0.07563378,-0.013848438000000001,0.014913702,14.04,4.5,-34.38
1554880564129,-9.203311,-1.7579426,-2.1505916000000003,0.14807177,0.024501082,0.018109497,14.04,4.5,-34.32
1554880564148,-9.284714,-1.8728642,-2.2990322,0.09054748,0.047936900000000005,0.024501082,14.04,4.5,-34.32
1554880564169,-9.260772,-2.0117279999999997,-2.0548236,-0.008522116,0.049002163,0.018109497,14.04,4.5,-34.26
1554880564188,-9.107543,-2.212841,-1.9590555,-0.0063915867,0.07030745599999999,0.004261058,14.1,4.5,-34.2
1554880564208,-9.069236,-2.3133974,-1.5616181,0.099069595,0.12996227,0.0063915867,14.1,4.5,-34.14
1554880564229,-8.820239,-2.3852234,-1.0540473,0.23435818,0.257794,0.082025364,14.16,4.44,-34.08
1554880564249,-8.671799,-2.3852234,-0.57041854,0.29933932,0.4165184,0.12570119999999999,14.16,4.44,-34.02
1554880564268,-8.331821000000001,-2.2703017999999995,-0.88645315,0.41758367,0.7137272,0.17150758,14.16,4.32,-33.9
1554880564289,-8.034941,-2.2224178,-1.4610616,0.56672066,0.98110855,0.23116238,14.16,4.2,-33.84
1554880564309,-7.9248075,-2.0931308,-2.1410147999999998,0.7254451,1.1707256000000001,0.23968449999999997,14.22,4.02,-33.66
1554880564328,-8.039729,-2.0691888,-2.5959132,0.8000136,1.2879047,0.24607609,14.28,3.78,-33.42
1554880564349,-8.355764,-1.7579426,-2.6677392,0.7701861999999999,1.4604776000000002,0.25566345,14.4,3.42,-33.06
1554880564369,-8.892064999999999,-1.6334441000000002,-3.2806550000000003,0.7350325,1.5638082,0.26738137,14.52,3.0,-32.52
1554880564389,-9.112331,-1.8584990000000001,-4.362833999999999,0.6785734,1.6010925,0.3057309,14.7,2.58,-31.92
1554880564408,-9.3182335,-2.2463598,-4.6166196,0.6135923000000001,1.5371766000000002,0.34194988,14.94,2.1,-31.02
1554880564428,-9.303867,-2.1888987999999996,-4.980538,0.55074173,1.3933659,0.33129725,15.18,1.62,-30.12
1554880564448,-9.23683,-2.1601684,-4.9901147,0.6061354999999999,1.3028183999999998,0.29294774,15.48,1.2,-29.1
1554880564469,-9.054871,-1.8632874,-5.5407815000000005,0.77444726,1.2016183,0.28549087,15.84,0.78,-28.14
1554880564489,-8.686164,-1.5903485000000002,-5.6269727,0.9651296,1.1046791999999999,0.28868666,16.2,0.42,-27.24
1554880564508,-8.355764,-1.6047136999999998,-6.081871,1.0482203,1.0088054,0.25992453,16.44,0.06,-26.28
1554880564529,-8.283937,-1.4562732,-6.464943,0.9672601000000001,0.92038846,0.23542345,16.68,-0.24,-25.5
1554880564550,-8.255207,-1.4323312,-6.6612678,0.8181231,0.78296936,0.23329292,16.92,-0.6,-24.6
1554880564569,-8.274361,-1.5520413,-6.5511346,0.66152924,0.65513766,0.19600865,17.16,-1.02,-23.88
1554880564588,-8.073248,-1.3892354999999998,-6.4793080000000005,0.50387007,0.5368933000000001,0.11930962,17.28,-1.44,-23.16
1554880564608,-8.111555000000001,-1.2216414,-6.4505777,0.35260254,0.44208476,0.03834952,17.4,-1.86,-22.44
1554880564628,-7.996633500000001,-1.441908,-6.637326,0.18748654,0.3291667,-0.022370555,17.46,-2.28,-21.78
1554880564648,-8.006210000000001,-1.6813281999999998,-6.306926,0.040480047000000005,0.22264028,-0.07350325,17.46,-2.64,-21.06
1554880564670,-8.001422,-1.7340006000000001,-6.249465,-0.058589544,0.16085494,-0.11717909,17.52,-3.0,-20.52
1554880564688,-7.852981599999999,-1.8489223000000001,-6.1153900000000005,-0.10972224,0.12996227,-0.1470065,17.52,-3.3,-19.98
1554880564709,-7.9008656,-1.9207484000000001,-5.81372,-0.10226539,0.10439592,-0.15765914,17.58,-3.48,-19.56
1554880564729,-7.876923599999999,-2.2990322,-5.7323174,-0.011717908999999999,0.07137272,-0.17896444,17.64,-3.6,-19.32
1554880564749,-7.963114699999999,-2.5576060000000003,-5.612607499999999,0.14274544,0.043675844000000005,-0.2034655,17.64,-3.66,-19.08
1554880564769,-8.135497,-2.8688521000000002,-5.349245,0.45912898,0.015978966,-0.2066613,17.7,-3.72,-18.96
1554880564789,-7.920019,-3.3381157,-4.664503599999999,0.96619487,-0.015978966,-0.165116,17.7,-3.72,-18.78
1554880564809,-7.6710224,-3.793014,-4.511274299999999,1.8769958999999998,0.012783173500000002,-0.16085494,17.76,-3.72,-18.66
1554880564828,-7.603985000000001,-4.061165,-4.496909,2.5513084,0.049002163,-0.1587244,17.76,-3.72,-18.66
1554880564848,-7.771578999999999,-4.875193,-4.851251,3.6442697,0.1438107,-0.10865697,17.76,-3.6,-18.48
1554880564869,-7.7428484,-5.0810947,-4.827309,4.3377566,0.19600865,-0.058589544,17.76,-3.54,-18.24
1554880564889,-7.5704656,-5.1146135,-4.9135003,4.9044776,0.22477080000000002,-0.025566347000000003,17.7,-3.48,-17.94
1554880564909,-7.699753,-5.4593782,-4.7937902999999995,5.326322,0.17363810000000002,0.039414786,17.7,-3.36,-17.4
1554880564929,-7.9583262999999995,-5.880758,-4.6980224,5.507417,0.08522116,0.15020229,17.7,-3.3,-16.44
1554880564949,-7.9487495,-5.856816,-4.152144399999999,5.503156,0.013848438000000001,0.27057716,17.7,-3.24,-15.18
1554880564968,-7.795521000000001,-5.8089319999999995,-3.328539,5.3998256,0.0031957934000000003,0.34408042,17.64,-3.06,-13.62
1554880564989,-7.546523599999999,-5.5695120000000005,-3.256713,5.332714,-0.022370555,0.31957933,17.58,-2.7,-11.88
1554880565009,-7.513005000000001,-5.559935,-2.461838,5.2272525000000005,0.18855181,0.30040458,17.46,-2.22,-10.02
1554880565028,-7.8386164,-4.956596,-1.5951369,4.944957700000001,0.55606806,0.41971418,17.28,-1.5,-7.92
1554880565049,-8.499416,-4.9374423,-0.99658644,4.527374,0.5752428,0.6125271,17.16,-0.54,-5.76
1554880565069,-8.422802,-5.239112,-1.1498153,3.7476002999999998,0.34621096,0.6263755,16.92,0.48,-3.72
1554880565088,-8.006210000000001,-4.7363295999999995,-1.264737,2.5545042000000002,0.14807177,0.42930159999999995,16.68,1.68,-2.04
1554880565109,-7.872135000000001,-4.1760864,-1.049259,1.2964269,0.04580637,0.15339808,16.44,3.06,-0.66
1554880565129,-8.2169,-4.051588,-0.84335756,-0.054328485999999995,0.018109497,-0.0031957934000000003,16.14,4.38,0.48
1554880565148,-8.264783999999999,-4.429871599999999,-0.41718966,-0.8362325999999999,0.020240024,0.011717908999999999,15.9,5.58,1.44
1554880565171,-8.183380999999999,-4.8560395,-0.18255788,-1.2974921,-0.002130529,-0.002130529,15.72,6.54,2.22
1554880565188,-8.374918,-5.133767,-0.21128829999999998,-1.4753913,-0.022370555,-0.04474111,15.54,7.08,2.76
1554880565208,-8.360553,-5.4593782,-0.3309984,-1.5947008999999999,-0.07243799,-0.084155895,15.42,7.38,3.0
1554880565229,-8.303091,-5.6748567,-0.47465047,-1.5563513999999998,-0.10865697,-0.07776430000000001,15.3,7.44,3.24
1554880565249,-8.135497,-5.789778,-0.46028528,-1.3933659,-0.12783173,-0.047936900000000005,15.3,7.14,3.36
1554880565269,-8.111555000000001,-5.828085400000001,-0.31663316,-1.0950918,-0.11930962,-0.025566347000000003,15.3,6.66,3.36
1554880565289,-8.130709,-5.7802014,-0.43634325,-0.7105314,-0.096939065,-0.0053263223,15.3,6.12,3.24
1554880565309,-8.054094000000001,-5.7418942,-0.44113165,-0.40373522,-0.084155895,0.010652645,15.3,5.52,3.06
1554880565328,-8.111555000000001,-5.497685400000001,-0.45549688,-0.0010652645,-0.07882957,0.046871635999999994,15.36,4.92,2.64
1554880565348,-8.09719,-5.4258595000000005,-0.66618663,0.3749731,-0.07137272,0.07350325,15.36,4.44,2.22
1554880565369,-8.125919999999999,-5.3923407,-0.47465047,0.6530071,-0.04580637,0.08841695,15.36,4.08,1.8
1554880565389,-8.259995,-5.143344,-0.6422445999999999,0.8266452,-0.041545313,0.06604639400000001,15.36,3.84,1.44
1554880565409,-8.255207,-5.1002483,-0.45549688,0.88203895,-0.03195793,0.06924219,15.36,3.72,1.08
1554880565429,-8.24563,-5.1385555,-0.31663316,0.8681905000000001,-0.02130529,0.08841695,15.36,3.72,0.9
1554880565449,-8.173803999999999,-4.932654,-0.077213004,0.8245146999999999,-0.027696876000000002,0.083090626,15.42,3.66,0.78
1554880565468,-8.183380999999999,-5.0427876,-0.110731825,0.7435546,-0.04580637,0.06178534,15.42,3.66,0.78
1554880565488,-8.207322999999999,-4.9996915,-0.27353755,0.61572284,-0.05539375,0.053263225,15.42,3.72,0.96
1554880565508,-8.1402855,-4.8704047,-0.15861586,0.48682585,-0.07563378,0.023435817999999997,15.48,3.78,1.14
1554880565529,-8.255207,-4.908712,-0.3309984,0.37284255,-0.112918034,-0.011717908999999999,15.48,3.78,1.38
1554880565548,-8.303091,-4.803367,-0.32621,0.28336033,-0.18002969,-0.03089267,15.48,3.84,1.56
1554880565569,-8.37013,-5.0140567,-0.28790274,0.23435818,-0.25672874,-0.06711166,15.48,4.02,1.74
1554880565589,-8.1881695,-5.109825,-0.31663316,0.2066613,-0.35260254,-0.10546118,15.42,4.2,1.8
1554880565609,-8.1402855,-5.133767,-0.15382746,0.20985709,-0.44315,-0.10865697,15.42,4.38,1.8
1554880565628,-8.250419,-5.2965727,-0.18255788,0.257794,-0.5230448000000001,-0.096939065,15.36,4.74,1.8
1554880565648,-8.355764,-5.167286,-0.16340427,0.29294774,-0.6103965,-0.07882957,15.36,4.8,1.8
1554880565668,-8.183380999999999,-5.1768627,0.05207389,0.27164245,-0.6924219,-0.06178534,15.36,5.04,1.8
1554880565689,-7.9104424,-5.0092683,0.26276365,0.16405073,-0.79255676,-0.041545313,15.48,5.4,1.74
1554880565709,-7.8386164,-5.0523643,0.39205053,0.08522116,-0.8426242,-0.033023197000000004,15.48,5.52,1.74
1554880565728,-7.795521000000001,-5.09546,0.6075286999999999,-0.027696876000000002,-0.88203895,-0.041545313,15.6,5.7,1.62
1554880565749,-7.7667904000000005,-4.9996915,0.8230068000000001,-0.20879184,-0.91825795,-0.07350325,15.96,6.06,1.44
1554880565769,-7.8003089999999995,-4.9757495,1.1629834,-0.37071204,-0.9225190000000001,-0.11824436,16.2,6.36,1.2
1554880565789,-7.752425,-5.061941,1.1917138999999999,-0.51984906,-0.9267801,-0.1587244,16.5,6.6,0.84
1554880565809,-7.7572136,-5.205593,1.5795746000000002,-0.628506,-0.9150621999999999,-0.18429075,16.86,6.84,0.36
1554880565829,-7.680599000000001,-5.3540335,1.6657659,-0.6988135,-0.8948221,-0.20026971,17.16,7.02,-0.24
1554880565848,-7.771578999999999,-5.478532,2.1158757,-0.7126619000000001,-0.82877576,-0.20559604,17.46,7.26,-0.84
1554880565869,-7.876923599999999,-5.559935,2.4462755,-0.69668293,-0.70840085,-0.18322548,17.7,7.44,-1.56
1554880565889,-7.963114699999999,-5.5647235,2.4797945,-0.6956177,-0.64555025,-0.15978967,17.94,7.5,-2.28
1554880565908,-7.915230800000001,-5.593454,2.5037365,-0.67218184,-0.5496765,-0.11611383,18.18,7.5,-2.94
1554880565929,-7.896077,-5.617396,2.7000610000000003,-0.6380934,-0.48682585,-0.096939065,18.36,7.5,-3.6
1554880565948,-7.6853875999999985,-5.679645,2.5372553,-0.5933523,-0.38562572,-0.07456851,18.54,7.44,-4.26
1554880565968,-7.608772999999999,-5.823297,2.5133132999999996,-0.5752428,-0.29614353,-0.06604639400000001,18.66,7.32,-4.68
1554880565989,-7.4699089999999995,-5.981314,2.3983915000000002,-0.5539375,-0.2130529,-0.06498113,18.78,7.14,-5.16
1554880566008,-7.240066000000001,-6.033987000000001,2.5803509,-0.4857606,-0.13635385,-0.07137272,18.9,6.9,-5.46
1554880566028,-7.311891999999999,-5.919065,2.3744495,-0.36751625,-0.05965481,-0.07776430000000001,19.02,6.66,-5.7
1554880566049,-7.3406224,-5.8903346,2.0919337,-0.2727077,-0.002130529,-0.083090626,19.08,6.48,-5.94
1554880566069,-7.311891999999999,-5.880758,2.1110873,-0.21092236,0.035153727999999995,-0.09374327,19.14,6.3,-6.12
1554880566089,-7.3789296,-5.952584,1.8956091,-0.15446335,0.06924219,-0.099069595,19.2,6.18,-6.3
1554880566108,-7.3789296,-5.9621606,2.0009542000000002,-0.08628642,0.10652645,-0.10333065,19.26,6.06,-6.42
1554880566128,-7.4603324,-5.966949,1.7758990000000001,-0.010652645,0.13209279,-0.10546118,19.32,6.06,-6.6
1554880566149,-7.465121000000001,-5.9956794,1.632247,0.046871635999999994,0.15126756,-0.10226539,19.32,6.12,-6.84
1554880566168,-7.5034279999999995,-5.9717374,1.7136499,0.08628642,0.15659387,-0.10333065,19.38,6.24,-7.02
1554880566189,-7.465121000000001,-6.0148335,1.5939398,0.112918034,0.16405073,-0.08735169,19.38,6.3,-7.26
1554880566208,-7.4603324,-6.129755,1.6178818000000001,0.14061491,0.17470337,-0.07669904,19.44,6.42,-7.44
1554880566229,-7.5800424,-6.139332,1.4646529,0.14807177,0.17896444,-0.07030745599999999,19.44,6.54,-7.62
1554880566249,-7.5369470000000005,-6.005256,1.4646529,0.1470065,0.17896444,-0.06604639400000001,19.44,6.6,-7.74
1554880566269,-7.546523599999999,-5.93343,1.3736732,0.1470065,0.16937704,-0.05965481,19.44,6.72,-7.74
1554880566289,-7.5561004,-5.8663926,1.4694413,0.13528858,0.16831179,-0.043675844000000005,19.44,6.78,-7.56
1554880566309,-7.603985000000001,-5.880758,1.4359225,0.111852765,0.16405073,-0.036218993,19.44,6.9,-7.44
1554880566329,-7.6614455999999995,-5.847239,1.38325,0.08841695,0.15659387,-0.034088463,19.44,6.96,-7.26
1554880566349,-7.728483,-5.8185085999999995,1.5508442,0.05539375,0.1587244,-0.014913702,19.44,7.08,-7.08
1554880566369,-7.589619,-5.703587000000001,1.4885948999999998,0.035153727999999995,0.15765914,-0.010652645,19.44,7.14,-6.9
1554880566389,-7.551311999999999,-5.6269727,1.3497312,0.025566347000000003,0.16724652,-0.03195793,19.5,7.2,-6.72
1554880566409,-7.5321584,-5.2008047,1.311424,-0.05965481,0.18535602,-0.049002163,19.5,7.26,-6.6
1554880566428,-7.383717999999999,-4.7506948,0.53091425,-0.29614353,0.099069595,-0.15233281,19.5,7.32,-6.48
1554880566450,-7.278373200000001,-4.6501384,0.39205053,-1.099353,0.12570119999999999,-0.35260254,19.56,7.5,-6.36
1554880566469,-7.632714999999999,-4.994903,0.40162733,-1.6106798999999998,0.12357068,-0.40586576,19.56,7.62,-6.3
1554880566489,-7.359775999999999,-5.3396683,0.5117606,-2.171009,0.06924219,-0.47404268,19.56,7.74,-6.24
1554880566509,-7.3406224,-5.861604,0.13826515,-2.6269422000000002,0.07563378,-0.54648066,19.56,7.86,-6.18
1554880566528,-7.723694999999999,-6.9198413,-0.13467385,-2.9944584,0.09587380000000001,-0.5273059,19.5,8.04,-6.12
1554880566548,-7.7572136,-7.527969000000001,-0.41718966,-3.1606395,0.082025364,-0.40906155,19.44,8.22,-6.06
1554880566569,-7.393294999999999,-7.844003,-1.049259,-2.8985846,0.22264028,-0.19068234,19.32,8.46,-6.12
1554880566589,-7.1826053,-7.85358,-1.5376761,-2.4224113999999997,0.33449304,0.06498113,19.26,8.46,-6.24
1554880566609,-7.1826053,-7.9301944,-1.8441339,-1.8322549,0.39734364,0.26418558,19.2,8.52,-6.48
1554880566629,-7.254431200000001,-7.7386584,-1.8632874,-1.2815131000000002,0.38136467,0.350472,19.2,8.52,-6.78
1554880566648,-7.2975270000000005,-7.504027000000001,-1.6813281999999998,-0.7350325,0.2876214,0.38775626,19.2,8.46,-7.08
1554880566668,-7.254431200000001,-7.5519110000000005,-1.5233108,-0.09161274,0.20026971,0.44101948,19.2,8.34,-7.38
1554880566688,-7.077260000000001,-7.671621000000001,-1.2503718000000001,0.76592517,0.18109496,0.49321744,19.26,8.04,-7.68
1554880566709,-6.861782000000001,-7.5566993,-1.417966,1.9824572,0.23755397,0.5496765,19.26,7.56,-7.98
1554880566729,-7.120356,-7.2981253,-1.4562732,2.7441212999999998,0.330232,0.6317018,19.26,7.14,-8.28
1554880566749,-7.3789296,-7.0874357,-1.3748703000000002,3.1489217000000003,0.38136467,0.6711166000000001,19.26,6.66,-8.46
1554880566768,-7.627927000000001,-6.689997999999999,-1.2503718000000001,3.4706316,0.42184472,0.7052050999999999,19.2,6.24,-8.4
1554880566789,-7.680599000000001,-5.990891,-1.2503718000000001,3.6293559999999996,0.47936899999999993,0.7307714,19.14,5.82,-8.1
1554880566808,-7.7093296,-5.497685400000001,-0.99658644,3.5973980000000005,0.5091964,0.7435546,19.02,5.4,-7.56
1554880566828,-7.809886,-5.0523643,-1.073201,3.3949977999999996,0.49641323,0.7094661,18.96,5.1,-6.84
1554880566849,-7.896077,-4.7698483,-0.85772276,3.0306773,0.4261058,0.5997439,18.84,4.86,-5.94
1554880566869,-7.943961,-4.377199,-0.56563014,2.501241,0.38562572,0.4889564,18.72,4.86,-5.04
1554880566889,-8.025364,-4.123414,-0.16819267,1.9185413,0.38349520000000004,0.4101268,18.54,4.8,-4.08
1554880566908,-8.250419,-4.051588,0.31064767,1.3859091000000001,0.38882150000000004,0.3536678,18.36,4.86,-3.12
1554880566928,-8.293514,-3.9031472000000003,0.4878186,0.93849796,0.34940675,0.29827404,18.12,4.98,-2.1
1554880566948,-8.413225,-4.0755300000000005,0.30585927,0.53795856,0.31957933,0.25992453,17.82,5.1,-1.2
1554880566969,-8.451532,-4.214393599999999,0.3441665,0.11930962,0.29188246,0.22903186,17.58,5.28,-0.48
1554880566989,-8.293514,-4.324527,0.3345897,-0.23648871,0.2545982,0.18322548,17.28,5.46,0.12
1554880567009,-8.240842,-4.420294999999999,0.3298013,-0.47297743,0.21837921,0.1438107,16.92,5.64,0.6
1554880567029,-8.322245,-4.496909,0.40641573,-0.5635249,0.19920446,0.08948222,16.62,5.82,1.02
1554880567048,-8.379706,-4.458602,0.17657238,-0.5795039000000001,0.16192019,0.058589544,16.26,5.94,1.44
1554880567068,-8.504205,-4.511274299999999,0.43035775,-0.5070659000000001,0.14168017,0.068176925,15.96,5.94,1.74
1554880567088,-8.48984,-4.654927,0.17657238,-0.37390783,0.13635385,0.06391586,15.72,5.82,1.98
1554880567109,-8.5473,-4.717176,0.28191724,-0.25885928,0.10759171,0.046871635999999994,15.54,5.64,2.1
1554880567129,-8.528147,-4.597466000000001,0.21009120000000003,-0.1587244,0.10865697,0.012783173500000002,15.3,5.46,2.16
1554880567149,-8.504205,-4.4921207,-0.010175358,-0.06924219,0.080960095,-0.011717908999999999,15.18,5.16,2.16
1554880567170,-8.461109,-4.5256395,-0.0005985504,-0.011717908999999999,0.07669904,-0.01917476,15.06,4.92,2.16
1554880567189,-8.418014,-4.463390400000001,-0.11552023,0.025566347000000003,0.06604639400000001,-0.043675844000000005,15.0,4.74,2.16
1554880567208,-8.336611,-4.659715,-0.10115502,0.036218993,0.039414786,-0.083090626,15.0,4.56,2.16
1554880567229,-8.374918,-4.554370400000001,-0.21607670000000004,0.014913702,0.029827405,-0.10226539,15.0,4.5,2.1
1554880567249,-8.422802,-4.7985787,-0.11552023,-0.02130529,0.004261058,-0.1107875,15.0,4.38,2.04
1554880567268,-8.1402855,-4.980538,0.23403321,-0.098004326,-0.023435817999999997,-0.11504856,15.0,4.32,1.86
1554880567288,-8.221688,-5.0667295,0.24839842,-0.14061491,-0.034088463,-0.13315806,15.0,4.32,1.74
1554880567308,-8.255207,-4.980538,0.25318682,-0.07137272,-0.033023197000000004,-0.13741912,15.06,4.32,1.62
1554880567329,-8.350976,-4.947019,0.12389994,-0.020240024,-0.024501082,-0.12144015,15.06,4.32,1.5
1554880567349,-8.384495,-5.0140567,-0.024540568,-0.025566347000000003,-0.04261058,-0.11930962,15.06,4.32,1.38
1554880567369,-8.437167,-5.00448,0.17178397,-0.07989483,-0.04580637,-0.12676647,15.12,4.32,1.32
1554880567389,-8.523358,-4.970961,0.20530279,-0.10865697,-0.053263225,-0.14594123,15.12,4.32,1.32
1554880567409,-8.470686,-4.8895583,0.25318682,-0.09267801,-0.05006743,-0.14594123,15.18,4.38,1.32
1554880567429,-8.48984,-4.9757495,0.18136078,-0.08735169,-0.03834952,-0.12783173,15.18,4.38,1.38
1554880567449,-8.523358,-5.105036699999999,0.12868834,-0.09587380000000001,-0.036218993,-0.10972224,15.18,4.44,1.38
1554880567469,-8.432379,-5.172074299999999,0.25318682,-0.06604639400000001,-0.02876214,-0.098004326,15.18,4.44,1.38
1554880567489,-8.475474,-5.0571527000000005,0.13347675,0.0010652645,-0.025566347000000003,-0.080960095,15.18,4.5,1.32
1554880567509,-8.288725999999999,-5.0523643,0.05207389,0.083090626,-0.039414786,-0.06285059999999999,15.18,4.56,1.32
1554880567529,-8.374918,-5.1002483,-0.05805939,0.12463594,-0.043675844000000005,-0.053263225,15.24,4.68,1.26
1554880567549,-8.303091,-5.037999,0.04249708,0.11930962,-0.051132694000000006,-0.05965481,15.24,4.68,1.26
1554880567569,-8.226477000000001,-4.9661726999999996,0.18614918,0.10226539,-0.05752428,-0.07350325,15.24,4.74,1.2
1554880567589,-8.240842,-4.9278655,0.12868834,0.10333065,-0.06285059999999999,-0.08735169,15.3,4.74,1.2
1554880567609,-8.192958,-5.037999,0.19093758,0.1107875,-0.06924219,-0.10013486,15.3,4.74,1.2
1554880567630,-8.1881695,-4.9422307,0.032920275,0.14594123,-0.080960095,-0.10226539,15.3,4.74,1.2
1554880567649,-8.197746,-4.817732299999999,0.10474633,0.19281286,-0.098004326,-0.12037488,15.36,4.74,1.26
1554880567669,-8.24563,-4.9374423,0.08559271,0.21624869,-0.12037488,-0.1438107,15.48,4.68,1.26
1554880567688,-8.173803999999999,-4.9996915,0.28191724,0.19813919,-0.12783173,-0.15020229,15.6,4.68,1.32
1554880567708,-8.130709,-5.0284224,0.3585317,0.18535602,-0.13741912,-0.14807177,15.78,4.68,1.38
1554880567729,-8.164227499999999,-5.1960163,0.56443304,0.21198763,-0.14807177,-0.15552860000000002,15.9,4.92,1.44
1554880567749,-8.236053,-5.224746700000001,0.66498953,0.26205507,-0.13635385,-0.15978967,16.02,5.16,1.44
1554880567769,-8.231264999999999,-5.2582655,0.65541273,0.31851408,-0.12570119999999999,-0.13422333,16.02,5.4,1.5
1554880567789,-8.169016000000001,-5.133767,0.6123171,0.37284255,-0.12357068,-0.096939065,15.96,5.64,1.56
1554880567809,-8.231264999999999,-5.3444567,0.6937199000000001,0.4101268,-0.113983296,-0.07563378,15.9,5.94,1.56
1554880567828,-8.269572,-5.205593,0.6985083000000001,0.4250405,-0.10546118,-0.06498113,15.84,6.18,1.56
1554880567848,-8.307879,-5.2678423,0.8900445,0.40266997,-0.083090626,-0.05219796,15.66,6.42,1.56
1554880567869,-8.264783999999999,-5.1624975,0.9475053,0.35899413,-0.068176925,-0.03089267,15.54,6.66,1.62
1554880567889,-8.135497,-5.21517,0.9235633,0.3057309,-0.05219796,-0.013848438000000001,15.48,6.78,1.62
1554880567909,-8.063671000000001,-5.1002483,0.9044097,0.23222765,-0.05006743,-0.015978966,15.48,6.9,1.68
1554880567929,-8.015787,-5.133767,1.0097545,0.14061491,-0.043675844000000005,-0.033023197000000004,15.6,7.02,1.74
1554880567949,-7.987056699999999,-5.047576,0.8900445,0.022370555,-0.046871635999999994,-0.049002163,15.72,7.2,1.8
1554880567968,-7.967903,-5.157709,1.0480618,-0.101200126,-0.051132694000000006,-0.06498113,15.84,7.44,1.86
1554880567988,-8.039729,-5.2726307,0.9044097,-0.21518342,-0.053263225,-0.06604639400000001,15.9,7.68,1.92
1554880568008,-8.082825,-5.2726307,1.0815806000000001,-0.25672874,-0.05539375,-0.07776430000000001,16.02,7.92,1.92
1554880568029,-8.101977999999999,-5.2199583,1.0145429,-0.24820662,-0.046871635999999994,-0.096939065,16.08,8.1,1.92
1554880568049,-8.154651,-5.191228,0.9187749,-0.26418558,-0.04580637,-0.10439592,16.14,8.28,1.86
1554880568069,-8.173803999999999,-5.2199583,0.8996213,-0.28336033,-0.041545313,-0.09374327,16.14,8.4,1.86
1554880568089,-8.101977999999999,-5.3923407,0.99538934,-0.26844665,-0.03089267,-0.07243799,16.14,8.52,1.86
1554880568108,-8.145074000000001,-5.4402246,1.0241197,-0.19813919,-0.018109497,-0.053263225,16.14,8.52,1.8
1554880568128,-8.231264999999999,-5.406706,0.9091981,-0.10013486,-0.011717908999999999,-0.04474111,16.14,8.52,1.8
1554880568149,-7.987056699999999,-5.3540335,0.95229375,0.00958738,0.010652645,-0.03195793,16.2,8.46,1.74
1554880568169,-8.006210000000001,-5.1816510000000005,0.8038531999999999,0.07243799,0.020240024,-0.026631612000000002,16.2,8.34,1.74
1554880568189,-7.97748,-5.1960163,0.84694886,0.09374327,0.037284255,-0.035153727999999995,16.26,8.28,1.74
1554880568211,-8.010999,-5.2678423,0.7080852,0.04474111,0.04261058,-0.04474111,16.32,8.22,1.74
1554880568229,-8.073248,-5.253476999999999,0.7224503999999999,-0.022370555,0.03834952,-0.05539375,16.32,8.16,1.62
1554880568250,-8.015787,-5.282207499999999,0.8900445,-0.06924219,0.04580637,-0.05752428,16.38,8.1,1.5
1554880568268,-8.0684595,-5.3300915,0.6985083000000001,-0.06498113,0.035153727999999995,-0.05006743,16.38,7.98,1.38
1554880568290,-8.063671000000001,-5.282207499999999,0.6697779,-0.06391586,0.03834952,-0.053263225,16.32,7.92,1.32
1554880568311,-8.0445175,-5.263054,0.86131406,-0.06285059999999999,0.039414786,-0.060720075,16.32,7.86,1.26
1554880568329,-8.078036,-5.3636102999999995,0.55485624,-0.06178534,0.02876214,-0.05752428,16.32,7.8,1.2
1554880568348,-8.130709,-5.2965727,0.6889314999999999,-0.1107875,0.047936900000000005,-0.03834952,16.26,7.86,1.14
1554880568368,-8.169016000000001,-5.382764,0.7272388000000001,-0.15978967,0.058589544,-0.022370555,16.26,7.92,1.14
1554880568389,-8.154651,-5.406706,0.84694886,-0.17363810000000002,0.058589544,-0.004261058,16.2,7.98,1.2
1554880568408,-8.09719,-5.4258595000000005,0.84694886,-0.18216023,0.056459017,0.02130529,16.14,8.1,1.26
1554880568429,-8.125919999999999,-5.3300915,0.44472298,-0.21411815,0.034088463,0.011717908999999999,16.2,8.16,1.32
1554880568449,-8.106767,-5.3300915,0.44951138,-0.23542345,0.023435817999999997,0.0031957934000000003,16.26,8.28,1.38
1554880568468,-8.006210000000001,-5.2965727,0.32501290000000005,-0.23329292,0.015978966,0.0053263223,16.32,8.34,1.38
1554880568488,-8.001422,-5.310938,0.3824737,-0.21518342,0.018109497,-0.0063915867,16.38,8.34,1.44
1554880568509,-8.125919999999999,-5.3779755,0.47824179999999994,-0.19920446,0.013848438000000001,-0.024501082,16.44,8.34,1.44
