TimeStamp,Ax,Ay,Az,Gx,Gy,Gz,Mx,My,Mz
1554877895973,-9.753978,-0.7380127,0.5931635000000001,0.8213189000000001,0.06711166,0.15233281,7.56,48.6,7.8
1554877895992,-9.715671,-0.6374562,0.66020113,0.7190535,0.053263225,0.14807177,7.62,48.96,7.44
1554877896012,-9.662998,-0.4938041,0.40641573,0.6040049,0.041545313,0.14061491,7.62,49.32,7.14
1554877896031,-9.471461999999999,-0.45070848,0.64583594,0.44315,0.03089267,0.13528858,7.68,49.68,6.78
1554877896051,-9.442732000000001,-0.43634325,0.53570265,0.28549087,0.029827405,0.09374327,7.74,50.04,6.42
1554877896072,-9.543288,-0.4985925,0.6075286999999999,0.13315806,-0.0010652645,0.046871635999999994,7.8,50.4,6.0
1554877896091,-9.533711,-0.39803603,0.5979519,0.05539375,-0.037284255,0.015978966,7.8,50.46,5.88
1554877896111,-9.481038999999999,-0.5033809,0.29149407,-0.03089267,-0.07243799,-0.012783173500000002,7.8,50.64,5.7
1554877896131,-9.428367,-0.42197806,0.56443304,-0.11930962,-0.07669904,-0.051132694000000006,7.86,50.76,5.64
1554877896151,-9.610325999999999,-0.6183026,0.87089086,-0.20772657,-0.08522116,-0.083090626,7.86,50.94,5.52
1554877896172,-9.619903,-0.88645315,1.0193313,-0.23861924,-0.080960095,-0.08628642,7.92,51.06,5.4
1554877896192,-9.56723,-0.95349085,0.9235633,-0.21198763,-0.060720075,-0.084155895,7.98,51.12,5.28
1554877896212,-9.504980999999999,-0.9391255999999999,0.76075757,-0.20879184,-0.008522116,-0.07669904,8.1,51.18,5.16
1554877896231,-9.595961,-0.84335756,0.64583594,-0.23009712,0.02130529,-0.07882957,8.1,51.12,5.1
1554877896252,-9.615114,-0.87687635,0.7224503999999999,-0.22050974,0.02130529,-0.07243799,8.16,51.0,5.04
1554877896272,-9.639056,-0.8912416,0.64583594,-0.13102753,0.010652645,-0.06178534,8.22,50.82,4.98
1554877896292,-9.543288,-0.9103952,0.7751228,-0.036218993,-0.0010652645,-0.07137272,8.22,50.58,4.92
1554877896311,-9.744401,-0.7667431,0.6841431,-0.01917476,-0.0063915867,-0.082025364,8.22,50.4,4.92
1554877896331,-9.864111,-0.7332243,0.6362591,-0.07669904,-0.04474111,-0.07243799,8.22,50.16,4.92
1554877896352,-9.792285000000001,-0.7332243,0.84216046,-0.18002969,-0.08628642,-0.06498113,8.16,50.04,4.92
1554877896371,-9.715671,-0.7140707,1.1917138999999999,-0.2428803,-0.096939065,-0.09374327,8.1,49.86,4.98
1554877896391,-9.624691,-0.7188591,1.2252326999999998,-0.25140239999999997,-0.094808534,-0.10652645,8.04,49.86,5.1
1554877896412,-9.572019000000001,-1.0588357,1.2348095,-0.22796659,-0.07137272,-0.07669904,7.98,49.86,5.28
1554877896432,-9.629479,-1.1019313,1.1246762,-0.17576863,-0.041545313,-0.06711166,7.92,49.92,5.4
1554877896452,-9.619903,-0.99179804,1.1055226,-0.13635385,-0.015978966,-0.04474111,7.86,49.98,5.52
1554877896472,-9.562441999999999,-1.1019313,0.9475053,-0.12463594,-0.007456851,-0.018109497,7.86,50.04,5.64
1554877896492,-9.605537,-1.039682,0.97623575,-0.099069595,0.0053263223,-0.01917476,7.92,50.1,5.76
1554877896512,-9.619903,-0.98222125,0.86131406,-0.041545313,-0.0031957934000000003,-0.0063915867,7.92,50.1,5.88
1554877896531,-9.677363,-0.88645315,0.85173726,0.0031957934000000003,-0.015978966,0.0031957934000000003,7.92,50.16,5.94
1554877896551,-9.758766,-1.073201,0.6841431,-0.040480047000000005,-0.046871635999999994,0.046871635999999994,7.92,50.1,5.94
1554877896572,-9.562441999999999,-1.0348936,0.6841431,-0.17896444,-0.09587380000000001,0.083090626,7.86,50.1,5.94
1554877896592,-9.610325999999999,-0.7858967,0.7080852,-0.11824436,-0.09587380000000001,-0.022370555,7.86,50.1,5.94
1554877896612,-9.370906,-0.87208796,1.1725603,-0.14913702,-0.09587380000000001,0.00958738,7.8,50.04,5.94
1554877896632,-9.279925,-0.8194155000000001,1.3449427999999999,-0.12250541,-0.07563378,-0.040480047000000005,7.8,50.04,6.0
1554877896652,-9.701305,-0.65660983,1.1007341999999998,-0.12037488,-0.02130529,-0.094808534,7.8,50.04,6.06
1554877896671,-9.68694,-0.75716627,0.86131406,-0.22050974,-0.041545313,-0.07669904,7.74,50.1,6.06
1554877896692,-9.662998,-0.65660983,0.6218939,-0.30360037,-0.06604639400000001,-0.10333065,7.74,50.1,6.12
1554877896712,-9.715671,-0.9487024,0.96187055,-0.2876214,-0.07243799,-0.09587380000000001,7.8,50.1,6.24
1554877896731,-9.677363,-1.0253168,1.2252326999999998,-0.16085494,-0.084155895,-0.07882957,7.8,50.04,6.3
1554877896752,-9.873688000000001,-1.1641805,1.0193313,-0.04474111,-0.04580637,-0.06178534,7.86,50.04,6.42
1554877896772,-9.442732000000001,-1.0588357,1.1198878,-0.025566347000000003,-0.007456851,-0.06178534,7.92,49.92,6.54
1554877896791,-9.643844999999999,-0.9008184000000001,0.8086416000000001,-0.058589544,-0.013848438000000001,-0.07563378,7.92,49.86,6.54
1554877896812,-9.677363,-0.87208796,0.7990648,-0.18002969,-0.027696876000000002,-0.040480047000000005,7.92,49.8,6.6
1554877896832,-9.600749,-1.0588357,0.88046765,-0.26418558,-0.06711166,-0.03195793,7.98,49.62,6.66
1554877896852,-9.528922999999999,-0.9391255999999999,1.110311,-0.25140239999999997,-0.080960095,-0.05219796,7.98,49.56,6.72
1554877896871,-9.548077000000001,-1.0588357,1.1629834,-0.17470337,-0.094808534,-0.046871635999999994,7.98,49.5,6.72
1554877896891,-9.552864999999999,-1.073201,1.134253,-0.11930962,-0.10013486,-0.047936900000000005,8.04,49.38,6.72
1554877896912,-9.667786999999999,-0.86729956,1.0049661,-0.15446335,-0.08841695,-0.07030745599999999,8.04,49.14,6.66
1554877896931,-9.682152,-0.84335756,0.97144735,-0.221575,-0.09374327,-0.07350325,8.1,49.14,6.66
1554877896951,-9.548077000000001,-0.9103952,1.1007341999999998,-0.3174488,-0.094808534,-0.07137272,8.16,49.02,6.66
1554877896971,-9.605537,-0.96785605,0.96187055,-0.38456047,-0.08628642,-0.07776430000000001,8.16,48.96,6.66
1554877896992,-9.725247,-0.96785605,0.9283517,-0.4708469,-0.083090626,-0.084155895,8.22,48.9,6.72
1554877897012,-9.811439,-1.0157399999999999,1.0145429,-0.5613944000000001,-0.09161274,-0.082025364,8.28,48.84,6.78
1554877897032,-9.643844999999999,-1.2886791000000002,0.6218939,-0.62531024,-0.14487597,-0.046871635999999994,8.34,48.84,6.84
1554877897052,-9.375694000000001,-1.3078326999999998,1.158195,-0.6295713000000001,-0.12357068,-0.040480047000000005,8.34,48.78,6.9
1554877897072,-9.375694000000001,-1.264737,1.2826935,-0.5858955,-0.11611383,-0.11611383,8.4,48.54,6.96
1554877897092,-9.442732000000001,-1.4993688,1.2683283,-0.5550028,-0.11504856,-0.10865697,8.4,48.3,7.08
1554877897112,-9.414000999999999,-1.6717514,1.2731166999999999,-0.5091964,-0.10759171,-0.09054748,8.46,48.06,7.2
1554877897131,-9.581595,-1.6956933999999997,1.2156559,-0.45699844,-0.08948222,-0.099069595,8.46,47.82,7.38
1554877897151,-9.619903,-1.6717514,1.110311,-0.36751625,-0.07350325,-0.08735169,8.46,47.52,7.5
1554877897172,-9.500193,-1.6621746,1.3545196000000002,-0.16618125,-0.05006743,-0.06498113,8.46,47.28,7.74
1554877897193,-9.490616000000001,-1.7435773999999997,1.158195,0.03834952,-0.047936900000000005,-0.05539375,8.52,46.98,7.98
1554877897211,-9.495403999999999,-1.5711948999999998,1.2491747,0.1438107,-0.035153727999999995,-0.049002163,8.52,46.74,8.22
1554877897231,-9.572019000000001,-1.4466964,1.2060791000000002,0.19813919,-0.017044231,-0.026631612000000002,8.52,46.56,8.46
1554877897251,-9.572019000000001,-1.5328877,1.0001777,0.19068234,-0.0063915867,-0.012783173500000002,8.52,46.44,8.7
1554877897272,-9.591172,-1.2695253999999998,1.1629834,0.13954964,0.004261058,-0.017044231,8.46,46.26,8.82
1554877897291,-9.595961,-1.192911,0.96187055,0.09587380000000001,0.0010652645,-0.013848438000000001,8.46,46.14,9.0
1554877897311,-9.504980999999999,-1.1737574,1.2779051000000001,0.037284255,-0.015978966,-0.012783173500000002,8.46,46.02,9.06
1554877897331,-9.485827,-1.1737574,1.0528502,-0.04474111,-0.04261058,-0.03195793,8.46,45.9,9.06
1554877897352,-9.591172,-1.1833341999999998,1.1725603,-0.12463594,-0.068176925,-0.03834952,8.46,45.9,8.94
1554877897372,-9.629479,-1.216853,0.9475053,-0.21411815,-0.10546118,-0.053263225,8.4,45.96,8.88
1554877897392,-9.68694,-1.2216414,1.0576386,-0.31318775,-0.13422333,-0.068176925,8.4,46.02,8.76
1554877897412,-9.591172,-1.192911,1.1965023000000001,-0.4261058,-0.14807177,-0.07350325,8.34,46.14,8.64
1554877897432,-9.504980999999999,-1.2886791000000002,1.2300211,-0.49108690000000005,-0.14807177,-0.07243799,8.34,46.26,8.52
1554877897452,-9.552864999999999,-1.3652935,1.4263457,-0.49534798,-0.14061491,-0.083090626,8.34,46.38,8.46
1554877897472,-9.65821,-1.4754268,1.4167688999999999,-0.45380265,-0.13209279,-0.09161274,8.28,46.38,8.34
1554877897492,-9.514558000000001,-1.489792,1.3066356000000001,-0.4250405,-0.13315806,-0.094808534,8.28,46.38,8.34
1554877897512,-9.586383999999999,-1.5328877,1.2012907,-0.4016047,-0.11611383,-0.09267801,8.22,46.2,8.34
1554877897531,-9.433155000000001,-1.441908,1.1725603,-0.40373522,-0.08841695,-0.08735169,8.22,45.9,8.34
1554877897552,-9.351752000000001,-1.6286557,1.1294646000000002,-0.42184472,-0.10333065,-0.07137272,8.22,45.66,8.4
1554877897572,-9.404425,-1.8537107,1.2060791000000002,-0.39201729999999996,-0.096939065,-0.06285059999999999,8.28,45.36,8.46
1554877897591,-9.452309,-1.7914615000000003,1.1629834,-0.34834146,-0.08948222,-0.084155895,8.28,45.12,8.64
1554877897612,-9.495403999999999,-1.7770962,1.1917138999999999,-0.31851408,-0.10865697,-0.10013486,8.34,44.82,8.76
1554877897632,-9.548077000000001,-1.8728642,1.1534066,-0.30679616,-0.11717909,-0.09161274,8.34,44.64,8.94
1554877897652,-9.572019000000001,-1.8058267,1.0384849,-0.33129725,-0.13848437,-0.08522116,8.4,44.4,9.06
1554877897672,-9.476251,-1.9255368000000002,1.3976152,-0.3334278,-0.14061491,-0.07882957,8.46,44.28,9.24
1554877897692,-9.452309,-2.0500352,1.5604209999999998,-0.2876214,-0.13635385,-0.035153727999999995,8.52,44.22,9.42
1554877897712,-9.3182335,-1.9494787,1.6274586000000002,-0.18429075,-0.10652645,-0.018109497,8.58,44.1,9.54
1554877897732,-9.399636,-2.0452468,1.4646529,-0.06498113,-0.07030745599999999,-0.022370555,8.64,44.04,9.66
1554877897752,-9.370906,-1.8968061999999999,1.4885948999999998,0.039414786,-0.05006743,-0.0053263223,8.76,43.86,9.72
1554877897772,-9.495403999999999,-1.8010383,1.3066356000000001,0.05752428,-0.033023197000000004,-0.004261058,8.76,43.74,9.72
1554877897792,-9.552864999999999,-1.6669630000000002,1.3976152,0.05006743,-0.037284255,0.0010652645,8.82,43.56,9.72
1554877897811,-9.457097000000001,-1.7244238,1.2539631000000002,0.03834952,-0.046871635999999994,0.0063915867,8.88,43.38,9.72
1554877897831,-9.557653,-1.6717514,1.2731166999999999,0.01917476,-0.058589544,0.010652645,8.88,43.32,9.72
1554877897852,-9.610325999999999,-1.5472529,1.3210008,-0.007456851,-0.08522116,0.022370555,8.94,43.08,9.66
1554877897872,-9.524135000000001,-1.5664065,1.3018471999999999,-0.056459017,-0.113983296,0.01917476,8.94,43.02,9.66
1554877897892,-9.514558000000001,-1.4466964,1.359308,-0.17576863,-0.14594123,0.0031957934000000003,8.94,42.9,9.66
1554877897912,-9.370906,-1.441908,1.4263457,-0.33768883,-0.15978967,-0.014913702,8.94,42.9,9.66
1554877897931,-9.323022,-1.5233108,1.3880384,-0.50813115,-0.17576863,-0.034088463,8.94,42.84,9.66
1554877897951,-9.198523,-1.513734,1.5364790000000002,-0.65726817,-0.18002969,-0.054328485999999995,8.94,42.9,9.66
1554877897972,-9.332599,-1.6190788999999999,1.5795746000000002,-0.79255676,-0.17470337,-0.06498113,9.0,42.9,9.66
1554877897992,-9.428367,-1.6621746,1.38325,-0.9353021999999999,-0.19600865,-0.07669904,9.12,42.84,9.66
1554877898011,-9.481038999999999,-1.6334441000000002,1.6226702,-1.0823087,-0.20559604,-0.09267801,9.18,42.72,9.66
1554877898032,-9.351752000000001,-1.8010383,1.6083049999999999,-1.1483551,-0.20772657,-0.10333065,9.3,42.54,9.66
1554877898052,-9.370906,-1.963844,1.6849195,-1.1270498,-0.19920446,-0.11504856,9.36,42.12,9.66
1554877898072,-9.313444,-1.9351135,1.6897078999999997,-1.0141318000000001,-0.1949434,-0.11930962,9.48,41.58,9.72
1554877898092,-9.323022,-2.083554,1.5173253,-0.8990832000000001,-0.18855181,-0.12357068,9.6,40.92,9.78
1554877898111,-9.275136999999999,-2.308609,1.6178818000000001,-0.85327685,-0.1949434,-0.11930962,9.66,40.08,9.9
1554877898131,-9.23683,-2.3708582000000002,1.6130934,-0.8159926,-0.18642128,-0.10759171,9.72,39.3,10.02
1554877898151,-9.155427,-2.3852234,1.5364790000000002,-0.81066626,-0.17044231,-0.10759171,9.78,38.46,10.2
1554877898171,-9.227253,-2.3133974,1.4838065,-0.8064051999999999,-0.15339808,-0.11717909,9.78,37.74,10.38
1554877898191,-9.179369,-2.4283189999999997,1.2970588,-0.8042746999999999,-0.15978967,-0.12783173,9.84,37.14,10.62
1554877898212,-9.078813,-2.48578,1.2635399,-0.77444726,-0.16085494,-0.13102753,9.9,36.6,10.8
1554877898232,-9.136273,-2.4187422,1.3449427999999999,-0.7318366999999999,-0.16192019,-0.14274544,9.96,36.18,10.98
1554877898252,-9.270349000000001,-2.5001452,1.134253,-0.72651035,-0.14807177,-0.14913702,10.08,35.76,11.16
1554877898272,-9.212888000000001,-2.6581624,1.1821371,-0.737163,-0.15659387,-0.13848437,10.14,35.34,11.34
1554877898292,-9.351752000000001,-2.6485856,1.4167688999999999,-0.680704,-0.15339808,-0.14061491,10.26,34.98,11.46
1554877898312,-9.433155000000001,-2.878429,1.2539631000000002,-0.6593986999999999,-0.17363810000000002,-0.111852765,10.32,34.56,11.52
1554877898332,-9.332599,-3.1705215,1.5891514,-0.57417756,-0.19281286,-0.06391586,10.38,34.14,11.64
1554877898352,-9.193734,-3.1848867000000003,1.9674352,-0.27483824,-0.1470065,-0.07456851,10.44,33.72,11.7
1554877898372,-9.169792,-3.0268695,2.0248961,0.12144015,-0.10759171,-0.06498113,10.5,33.36,11.88
1554877898392,-9.088389,-2.9981391,2.3265655,0.50600064,-0.03089267,-0.03195793,10.56,33.12,12.06
1554877898412,-9.011775,-3.0412347,2.1877017000000003,0.8511463,0.05219796,-0.004261058,10.62,32.88,12.18
1554877898432,-9.059659,-2.9454667999999997,2.0536265,1.1590078000000001,0.13209279,0.010652645,10.68,32.82,12.36
1554877898452,-9.078813,-2.8257565,1.7567455,1.3859091000000001,0.18961707,0.018109497,10.74,32.76,12.48
1554877898471,-9.093178,-2.5432408,1.7088615000000003,1.5446335,0.23435818,0.00958738,10.74,32.76,12.6
1554877898491,-9.121908,-2.4953567999999997,1.3066356000000001,1.5947008999999999,0.25246766,-0.004261058,10.8,32.88,12.66
1554877898512,-9.121908,-2.308609,1.1246762,1.4349113000000002,0.22370553,0.02130529,10.86,33.06,12.66
1554877898532,-9.169792,-2.260725,1.0049661,1.1515508999999997,0.20559604,0.037284255,10.86,33.42,12.66
1554877898552,-9.332599,-2.1841104,1.1246762,0.86392945,0.15552860000000002,0.017044231,10.74,34.02,12.54
1554877898571,-9.385271000000001,-1.9351135,1.1725603,0.67537767,0.1107875,0.012783173500000002,10.56,35.16,12.36
1554877898591,-9.361329,-1.9111716,1.3305776000000002,0.43036684,0.06391586,0.015978966,10.5,35.58,12.18
1554877898612,-9.428367,-1.8106151000000001,1.407192,0.19068234,0.011717908999999999,-0.015978966,10.32,36.78,11.94
1554877898632,-9.404425,-1.8489223000000001,1.5316905,0.040480047000000005,-0.043675844000000005,-0.029827405,10.2,37.5,11.64
1554877898652,-9.346964,-1.9590555,1.4359225,-0.07989483,-0.09374327,-0.033023197000000004,10.02,38.1,11.4
1554877898672,-9.275136999999999,-2.1745335999999997,1.7950528000000001,-0.16937704,-0.14274544,-0.041545313,9.9,38.64,11.22
1554877898691,-9.222465,-2.1649568,1.7711107,-0.23009712,-0.17257284,-0.053263225,9.84,38.94,11.04
1554877898711,-9.3182335,-2.2176294,1.8046296000000002,-0.26418558,-0.16831179,-0.05539375,9.84,39.12,10.86
1554877898731,-9.255983,-2.2942438,1.9099745,-0.28868666,-0.16085494,-0.043675844000000005,9.9,39.12,10.74
1554877898752,-9.165004,-2.2080526000000003,1.9099745,-0.32277513,-0.15765914,-0.04474111,10.02,39.12,10.68
1554877898772,-9.385271000000001,-2.2511482000000003,1.5652093999999999,-0.3685815,-0.16405073,-0.022370555,10.14,39.12,10.68
1554877898791,-9.112331,-2.5480292,1.8046296000000002,-0.3536678,-0.10972224,0.03834952,10.32,39.06,10.68
1554877898811,-8.939949,-2.2894554,2.1398177000000005,-0.29933932,-0.082025364,-0.026631612000000002,10.44,39.06,10.74
1554877898832,-9.112331,-2.2463598,2.1924900000000003,-0.23009712,-0.046871635999999994,-0.03834952,10.5,39.06,10.74
1554877898851,-9.069236,-2.4331074,2.1015105,-0.084155895,-0.0031957934000000003,-0.014913702,10.74,39.06,10.74
1554877898871,-9.279925,-2.2703017999999995,1.7423803,-0.007456851,0.013848438000000001,-0.05539375,10.86,39.0,10.74
1554877898892,-9.3182335,-2.3852234,1.7328035,0.020240024,0.00958738,-0.034088463,10.92,38.88,10.74
1554877898911,-9.198523,-2.3756466,1.6753427,-0.03089267,-0.0063915867,-0.014913702,10.92,38.7,10.74
1554877898931,-9.270349000000001,-2.260725,1.6274586000000002,-0.094808534,-0.010652645,-0.024501082,10.86,38.52,10.8
1554877898952,-9.241617999999999,-2.1601684,1.7184383,-0.14274544,-0.027696876000000002,-0.002130529,10.74,38.34,10.8
1554877898971,-9.165004,-2.203264,1.8668787,-0.15446335,-0.020240024,-0.008522116,10.68,38.16,10.86
1554877898991,-9.241617999999999,-2.2319946,1.7806876,-0.15020229,-0.013848438000000001,-0.023435817999999997,10.68,37.92,10.92
1554877899011,-9.284714,-2.2224178,1.8620903000000002,-0.17470337,-0.013848438000000001,-0.026631612000000002,10.62,37.74,11.04
1554877899031,-9.203311,-2.1601684,1.6657659,-0.2428803,-0.017044231,-0.03195793,10.62,37.56,11.1
1554877899052,-9.251195,-2.203264,1.4981716999999999,-0.32384038,-0.0010652645,-0.039414786,10.62,37.5,11.16
1554877899071,-9.188946000000001,-2.179322,1.4790181,-0.40906155,-0.011717908999999999,-0.04474111,10.62,37.5,11.16
1554877899093,-9.102755,-2.1027076,1.3497312,-0.5699165,-0.041545313,-0.054328485999999995,10.68,37.5,11.22
1554877899112,-9.208099,-2.0787656,1.6130934,-0.7520766999999999,-0.05965481,-0.06924219,10.74,37.26,11.22
1554877899132,-9.217675999999999,-2.1362264,1.5604209999999998,-0.8671253000000001,-0.07563378,-0.07669904,10.8,37.02,11.22
1554877899152,-9.246407000000001,-2.308609,1.6035166,-0.97258645,-0.10333065,-0.09054748,10.86,36.78,11.22
1554877899172,-9.303867,-2.461838,1.4885948999999998,-1.0365024,-0.12783173,-0.113983296,10.98,36.48,11.22
1554877899192,-9.136273,-2.5719712,1.5652093999999999,-1.0290455,-0.13954964,-0.13102753,11.04,36.24,11.16
1554877899212,-9.011775,-2.830545,1.4742297,-0.9864349,-0.1438107,-0.14061491,11.16,35.88,11.16
1554877899232,-9.035717,-3.0029275,1.632247,-0.9470200999999999,-0.12357068,-0.13741912,11.22,35.46,11.22
1554877899252,-9.107543,-3.0364463,1.6514006,-0.87777793,-0.10546118,-0.13315806,11.22,34.8,11.28
1554877899272,-8.978256,-3.2423477000000003,1.7040731,-0.7339671999999999,-0.094808534,-0.11824436,11.22,34.26,11.28
1554877899292,-9.002198,-3.5583823,1.5939398,-0.52624065,-0.084155895,-0.08628642,11.16,33.84,11.4
1554877899312,-9.121908,-3.481768,1.8668787,-0.26205507,-0.03089267,-0.098004326,11.1,33.24,11.52
1554877899332,-9.198523,-3.5104983,1.7711107,0.007456851,-0.0053263223,-0.10865697,11.04,32.64,11.64
1554877899351,-9.126697,-3.3859997,1.8429368000000002,0.221575,0.029827405,-0.07137272,10.92,32.1,11.76
1554877899372,-9.299078999999999,-3.2423477000000003,1.7806876,0.37284255,0.054328485999999995,-0.05752428,10.8,31.38,11.94
1554877899391,-9.260772,-3.0508115,1.6657659,0.48149952,0.05219796,-0.02876214,10.74,31.14,12.06
1554877899411,-9.270349000000001,-2.926313,1.5891514,0.5209143,0.04474111,-0.025566347000000003,10.74,31.02,12.18
1554877899431,-9.303867,-2.806603,1.8285716,0.53263223,0.03834952,-0.026631612000000002,10.8,30.9,12.24
1554877899452,-9.23683,-2.7299886000000004,1.7423803,0.5305017,0.027696876000000002,-0.011717908999999999,10.8,30.84,12.24
1554877899472,-9.217675999999999,-2.7156234,1.7902644,0.51026165,0.025566347000000003,-0.010652645,10.8,30.84,12.3
1554877899492,-9.260772,-2.5432408,1.6178818000000001,0.46658584,0.011717908999999999,-0.014913702,10.86,30.96,12.36
1554877899512,-9.088389,-2.6102784,1.4646529,0.39840892,0.0,-0.022370555,10.86,31.14,12.36
1554877899532,-9.184157,-2.7204118,1.4263457,0.32277513,-0.020240024,-0.034088463,10.86,31.38,12.42
1554877899552,-8.99741,-2.7491422,1.4838065,0.24501082,-0.03834952,-0.02876214,10.92,31.68,12.42
1554877899572,-9.006986999999999,-2.8018146,1.5747862,0.20240025,-0.02876214,-0.02876214,10.92,31.98,12.48
1554877899591,-8.901641999999999,-2.8018146,1.6561891,0.2066613,-0.023435817999999997,-0.037284255,10.98,32.28,12.48
1554877899612,-9.011775,-2.8257565,1.7088615000000003,0.27696875,0.008522116,-0.039414786,10.98,32.64,12.48
1554877899632,-9.016563,-2.9406781000000004,1.5508442,0.34408042,0.02130529,-0.03195793,10.98,33.06,12.42
1554877899652,-8.963891,-2.9933507,1.6753427,0.43675843,0.05006743,-0.02130529,10.98,33.48,12.36
1554877899671,-8.99741,-3.0891187,1.6657659,0.49641323,0.07137272,-0.0053263223,10.98,33.78,12.3
1554877899691,-9.078813,-2.959832,1.809418,0.5837649,0.10759171,0.013848438000000001,10.98,34.14,12.18
1554877899712,-9.054871,-2.8018146,1.7040731,0.67537767,0.12783173,0.026631612000000002,10.98,34.5,12.06
1554877899732,-8.987833,-2.7443538,1.7423803,0.73290193,0.14913702,0.02130529,10.98,34.86,11.94
1554877899751,-9.14585,-2.5240872000000003,1.6561891,0.793622,0.16085494,-0.0031957934000000003,10.92,35.22,11.76
1554877899771,-9.131485000000001,-2.4905684,1.5939398,0.8223841999999999,0.15339808,-0.014913702,10.92,35.58,11.64
1554877899792,-9.208099,-2.356493,1.632247,0.80533993,0.15552860000000002,-0.03089267,10.92,35.88,11.52
1554877899812,-9.184157,-2.2319946,1.4790181,0.7318366999999999,0.12996227,-0.05539375,10.98,36.24,11.46
1554877899832,-9.14585,-1.9829974999999997,1.4790181,0.608266,0.08735169,-0.08522116,10.98,36.6,11.4
1554877899852,-9.337387,-1.9782091,1.4885948999999998,0.41119209999999995,0.04580637,-0.099069595,10.92,37.02,11.34
1554877899872,-9.246407000000001,-2.0021513,1.4359225,0.1768339,0.00958738,-0.099069595,10.92,37.44,11.28
1554877899892,-9.179369,-2.1410147999999998,1.6705543,-0.06924219,-0.02130529,-0.09374327,10.86,37.8,11.22
1554877899911,-9.299078999999999,-2.2703017999999995,1.5364790000000002,-0.27377295,-0.02876214,-0.096939065,10.8,38.1,11.16
1554877899931,-9.394848,-2.3660697999999996,1.7663223000000001,-0.41225734,-0.049002163,-0.07776430000000001,10.68,38.4,11.04
1554877899951,-8.939949,-2.6868927000000005,2.0009542000000002,-0.46125950000000004,-0.047936900000000005,-0.07989483,10.62,38.7,10.98
1554877899973,-9.126697,-2.4091654,2.2260091,-0.30466563,0.0031957934000000003,-0.18855181,10.5,38.82,10.86
1554877899993,-9.313444,-2.3181857999999997,1.9578583999999999,-0.15339808,0.002130529,-0.1949434,10.32,38.94,10.74
1554877900013,-9.323022,-2.7252002,1.4838065,-0.113983296,-0.0010652645,-0.10759171,10.2,38.94,10.68
1554877900033,-9.255983,-2.878429,1.3784616000000003,-0.21731395,-0.024501082,-0.06604639400000001,10.08,38.88,10.62
1554877900052,-9.150639,-2.9502552000000004,1.3545196000000002,-0.30040458,-0.04580637,-0.05752428,10.02,38.82,10.62
1554877900072,-9.246407000000001,-2.6916811000000003,1.2443863000000002,-0.3270362,-0.056459017,-0.05752428,9.9,38.82,10.56
1554877900092,-9.23683,-2.6198552000000004,1.4119805,-0.350472,-0.07030745599999999,-0.05752428,9.9,38.76,10.56
1554877900112,-9.203311,-2.581548,1.6178818000000001,-0.36645097,-0.10013486,-0.056459017,9.84,38.7,10.62
1554877900132,-9.126697,-2.6868927000000005,1.5412674,-0.32597092,-0.15020229,-0.041545313,9.84,38.58,10.68
1554877900151,-9.002198,-2.6390088,1.3545196000000002,-0.20879184,-0.165116,-0.07243799,9.84,38.4,10.74
1554877900171,-9.074024,-2.3229742,1.4838065,-0.1768339,-0.165116,-0.111852765,9.84,38.28,10.8
1554877900192,-9.121908,-2.2655133999999997,1.4694413,-0.23116238,-0.17789917,-0.128897,9.9,38.04,10.92
1554877900212,-8.944737,-2.5240872000000003,1.6514006,-0.50813115,-0.2130529,-0.13315806,9.9,37.74,11.04
1554877900231,-9.069236,-2.677316,1.7040731,-0.7392935,-0.20879184,-0.14274544,9.96,37.56,11.1
1554877900252,-9.208099,-2.8257565,1.6418238,-0.9395633,-0.20985709,-0.14594123,10.02,37.32,11.16
1554877900272,-9.136273,-3.0029275,1.5699978,-1.1174624,-0.21198763,-0.13315806,10.14,37.14,11.22
1554877900292,-9.078813,-3.256713,1.6370354,-1.2335763000000002,-0.23116238,-0.12037488,10.32,37.02,11.22
1554877900312,-9.011775,-3.5823242999999994,1.5316905,-1.284709,-0.23329292,-0.094808534,10.44,36.84,11.22
1554877900332,-8.959103,-3.7116113,1.5795746000000002,-1.2697952,-0.21092236,-0.06924219,10.62,36.48,11.22
1554877900352,-8.99741,-3.7307648999999996,1.6561891,-1.1579423999999998,-0.1768339,-0.051132694000000006,10.68,36.0,11.28
1554877900371,-8.930372,-3.7020345,1.6418238,-0.96299905,-0.13422333,-0.05006743,10.86,35.52,11.46
1554877900391,-9.002198,-3.74513,1.5604209999999998,-0.72651035,-0.10226539,-0.049002163,10.98,34.8,11.7
1554877900411,-8.767567,-3.8121676,1.7184383,-0.46552056,-0.08735169,-0.04580637,11.04,34.08,11.88
1554877900431,-8.762777999999999,-3.7594953,1.8237831999999998,-0.18855181,-0.043675844000000005,-0.041545313,11.04,33.36,12.12
1554877900451,-8.863335000000001,-3.769072,1.7663223000000001,0.041545313,-0.008522116,-0.04261058,11.04,32.58,12.3
1554877900471,-8.786719999999999,-3.6637269999999997,1.7280151000000001,0.17896444,0.023435817999999997,-0.051132694000000006,11.04,31.86,12.48
1554877900492,-8.963891,-3.4099417,1.5221136999999998,0.18322548,0.020240024,-0.06285059999999999,11.04,31.32,12.72
1554877900512,-9.150639,-3.3716345000000003,1.5029601000000001,0.056459017,0.00958738,-0.060720075,11.04,30.96,12.9
1554877900531,-9.188946000000001,-3.328539,1.4646529,-0.1107875,-0.0031957934000000003,-0.07137272,11.1,30.6,12.9
1554877900552,-9.035717,-3.4338839999999995,1.5939398,-0.25992453,-0.023435817999999997,-0.05965481,11.1,30.42,12.9
1554877900571,-9.078813,-3.4003648999999996,1.335366,-0.38029942,-0.033023197000000004,-0.05539375,11.1,30.3,12.96
1554877900592,-8.983044999999999,-3.3524809999999996,1.0576386,-0.44528055,-0.053263225,-0.07882957,11.16,30.18,12.96
1554877900612,-8.973467999999999,-3.3716345000000003,1.5173253,-0.49428272,-0.07137272,-0.08735169,11.16,30.18,12.96
1554877900631,-8.954314,-3.615843,1.110311,-0.5422196,-0.11824436,-0.09054748,11.16,30.12,13.02
1554877900651,-8.820239,-3.5823242999999994,1.0528502,-0.5496765,-0.15659387,-0.06924219,11.04,30.06,13.02
1554877900672,-8.781932000000001,-3.5488055,1.0959458,-0.59761333,-0.16831179,-0.101200126,10.98,29.94,12.96
1554877900692,-9.030928999999999,-3.4721910000000005,1.0145429,-0.69029135,-0.18748654,-0.12676647,10.92,29.82,12.96
1554877900712,-8.916007,-3.6254199000000003,1.3210008,-0.809601,-0.2130529,-0.09161274,10.92,29.64,12.96
1554877900732,-8.7292595,-3.6589386,1.4311341,-0.8926915999999999,-0.20559604,-0.084155895,10.92,29.46,12.9
1554877900751,-8.7532015,-3.6828809000000002,1.38325,-0.9502159,-0.16085494,-0.101200126,10.92,29.16,12.78
1554877900772,-8.801085,-3.6254199000000003,1.3162124,-0.98856544,-0.13635385,-0.10759171,10.92,28.8,12.66
1554877900793,-8.762777999999999,-3.7355532999999994,1.4742297,-1.010936,-0.11611383,-0.10546118,10.92,28.32,12.54
1554877900811,-8.767567,-3.9653966,1.4024036,-0.9683254000000001,-0.10546118,-0.099069595,11.04,27.66,12.42
1554877900832,-8.700529,-4.171298,1.134253,-0.85753787,-0.07882957,-0.094808534,11.1,27.0,12.3
1554877900852,-8.599973,-4.223970400000001,1.1486181999999998,-0.721184,-0.06285059999999999,-0.10439592,11.16,26.34,12.24
1554877900872,-8.7292595,-4.291008000000001,1.1198878,-0.5816344,-0.05539375,-0.12250541,11.28,25.68,12.18
1554877900892,-8.834603999999999,-4.257489,1.1007341999999998,-0.45699844,-0.06711166,-0.13741912,11.34,25.02,12.18
1554877900912,-8.63828,-4.659715,1.3640964,-0.35260254,-0.09587380000000001,-0.14807177,11.4,24.48,12.24
1554877900932,-8.513782,-4.8081555,1.5652093999999999,-0.24714136,-0.06391586,-0.15339808,11.52,24.0,12.3
1554877900951,-8.75799,-4.6405616,1.4550761,-0.06924219,-0.014913702,-0.15126756,11.58,23.52,12.36
1554877900972,-8.667010000000001,-4.611831,1.287482,0.18748654,0.018109497,-0.14168017,11.7,23.22,12.42
1554877900992,-8.901641999999999,-4.607043,1.2012907,0.45380265,0.056459017,-0.13528858,11.76,23.04,12.48
1554877901011,-8.700529,-4.741118,1.2683283,0.7254451,0.07137272,-0.13102753,11.82,22.86,12.54
1554877901031,-8.528147,-4.4921207,1.134253,1.0205233,0.12357068,-0.13422333,11.88,22.68,12.54
1554877901052,-8.724471000000001,-4.3963529999999995,0.96665895,1.3390374,0.18748654,-0.10759171,11.88,22.62,12.6
1554877901072,-8.6334915,-4.1904516,0.6841431,1.4828482,0.21624869,-0.049002163,11.94,22.5,12.6
1554877901092,-8.686164,-4.022857,0.75118077,1.4285196000000002,0.24181503,-0.036218993,11.94,22.68,12.6
1554877901111,-8.848969,-3.8504747999999998,0.7272388000000001,1.2346416,0.21198763,-0.017044231,11.94,23.28,12.6
1554877901131,-8.786719999999999,-3.6445735,0.5979519,0.97045594,0.14594123,0.02876214,11.94,23.94,12.6
1554877901152,-8.786719999999999,-3.4913447,0.6314706999999999,0.6743124,0.07456851,0.036218993,11.88,24.72,12.6
1554877901171,-9.074024,-3.5535938999999996,0.7703344,0.39521313,-0.011717908999999999,0.03089267,11.88,25.5,12.54
1554877901191,-8.887277000000001,-3.74513,1.2108675,0.13209279,-0.07243799,0.037284255,11.82,26.28,12.54
1554877901212,-8.719683,-3.8839936,1.7040731,-0.080960095,-0.112918034,0.020240024,11.76,27.54,12.54
1554877901232,-8.7532015,-3.888782,1.9147629000000002,-0.01917476,-0.098004326,-0.018109497,11.7,28.32,12.54
1554877901252,-8.719683,-3.8121676,1.7280151000000001,0.113983296,-0.084155895,-0.051132694000000006,11.64,28.8,12.48
1554877901272,-8.748413000000001,-3.840898,1.7040731,0.20985709,-0.06711166,-0.06498113,11.58,29.04,12.48
1554877901291,-8.767567,-3.8456864,1.7806876,0.25033715,-0.051132694000000006,-0.07776430000000001,11.58,29.28,12.48
1554877901312,-8.853758000000001,-3.7547068999999995,1.809418,0.2066613,-0.020240024,-0.06178534,11.52,29.4,12.48
1554877901332,-8.896853,-4.0994720000000004,1.6944963,0.09587380000000001,-0.008522116,0.0,11.46,29.52,12.48
1554877901352,-9.030928999999999,-3.9749733999999997,1.5604209999999998,0.15020229,0.024501082,0.06924219,11.46,29.64,12.48
1554877901371,-8.844180999999999,-3.8839936,1.407192,0.21198763,0.027696876000000002,0.08948222,11.46,29.7,12.42
1554877901392,-8.829816000000001,-3.6828809000000002,1.6418238,0.34727620000000003,0.054328485999999995,0.082025364,11.52,29.76,12.36
1554877901411,-8.853758000000001,-3.5966894999999997,1.6897078999999997,0.48682585,0.05219796,0.05006743,11.58,29.82,12.3
1554877901431,-8.743625,-3.5152867,1.6705543,0.56459016,0.02876214,0.060720075,11.58,29.94,12.24
1554877901452,-8.647857,-3.6349967000000003,1.4311341,0.5550028,-0.002130529,0.041545313,11.64,30.0,12.18
1554877901472,-8.781932000000001,-3.4147300000000005,1.2970588,0.45593318,-0.023435817999999997,0.00958738,11.64,30.12,12.12
1554877901492,-8.647857,-3.2950199999999996,1.4694413,0.2727077,-0.06285059999999999,-0.022370555,11.58,30.24,12.06
1554877901512,-8.63828,-3.232771,1.4838065,0.046871635999999994,-0.11717909,-0.058589544,11.52,30.36,11.88
1554877901532,-8.542512,-3.2998084999999997,1.7758990000000001,-0.14487597,-0.15233281,-0.08948222,11.46,30.54,11.7
1554877901552,-8.556877,-3.5152867,1.9147629000000002,-0.28655612,-0.16192019,-0.112918034,11.34,30.66,11.58
1554877901572,-8.623915,-3.520075,2.082357,-0.42397526,-0.1470065,-0.13102753,11.22,30.78,11.46
1554877901591,-8.762777999999999,-3.769072,2.0248961,-0.53795856,-0.12250541,-0.12357068,11.16,30.84,11.34
1554877901611,-8.7532015,-3.7403417,2.1158757,-0.5454154,-0.07669904,-0.10546118,11.04,30.96,11.28
1554877901632,-8.710106,-3.8600516000000002,2.0153193,-0.46019423,-0.05965481,-0.099069595,11.04,31.02,11.22
1554877901651,-8.628703,-3.9989154,1.9482816000000003,-0.294013,-0.023435817999999997,-0.08948222,11.1,31.08,11.22
1554877901672,-8.738836000000001,-4.123414,1.9243397,-0.10972224,0.023435817999999997,-0.06285059999999999,11.16,31.14,11.34
1554877901692,-8.7532015,-4.2718544000000005,1.809418,0.09054748,0.06604639400000001,-0.03834952,11.16,31.14,11.52
1554877901713,-8.810661999999999,-4.233547,1.8285716,0.30999196,0.101200126,-0.027696876000000002,11.22,31.14,11.64
1554877901731,-8.815451,-4.415506400000001,1.6130934,0.5219796,0.12250541,-0.022370555,11.28,31.08,11.82
1554877901752,-8.734048,-4.085107,1.4311341,0.66152924,0.11930962,-0.033023197000000004,11.4,31.02,12.0
1554877901771,-8.959103,-3.639785,1.2443863000000002,0.69774824,0.1107875,-0.07030745599999999,11.46,31.02,12.18
1554877901791,-9.064447,-3.3045970000000002,1.1629834,0.4165184,0.041545313,-0.05539375,11.52,30.96,12.3
1554877901811,-9.064447,-3.3764230000000004,1.1821371,-0.029827405,-0.07989483,0.024501082,11.58,30.9,12.36
1554877901832,-8.858546,-3.5583823,1.3066356000000001,-0.37923414,-0.16085494,0.06498113,11.58,30.9,12.3
1554877901851,-8.829816000000001,-3.5727474999999997,1.6801311,-0.5113269,-0.19707392,0.04261058,11.64,31.02,12.3
1554877901871,-8.825027,-3.5296519,1.9578583999999999,-0.5486112,-0.23542345,0.027696876000000002,11.7,31.08,12.24
1554877901892,-8.537724,-3.9223008000000004,2.355296,-0.41864893,-0.23968449999999997,0.06924219,11.7,31.2,12.18
1554877901912,-8.504205,-3.8600516000000002,2.3744495,-0.08628642,-0.16937704,-0.002130529,11.64,31.32,12.06
1554877901931,-8.413225,-3.6110547,2.556409,0.21518342,-0.07882957,-0.06498113,11.64,31.44,12.0
1554877901951,-8.413225,-3.8361096,2.5420437000000002,0.40586576,-0.043675844000000005,-0.058589544,11.7,31.5,11.94
1554877901971,-8.192958,-3.816956,2.1924900000000003,0.49641323,-0.008522116,-0.083090626,11.76,31.56,11.82
1554877901991,-8.336611,-3.769072,2.1398177000000005,0.43249738,0.008522116,-0.10013486,11.76,31.56,11.82
1554877902011,-8.236053,-3.7403417,2.144606,0.28442562,0.046871635999999994,-0.10759171,11.82,31.56,11.76
1554877902032,-8.499416,-3.8025907999999995,2.0153193,0.1768339,0.11930962,-0.10546118,11.88,31.62,11.7
1554877902052,-8.580819,-3.7499184999999997,1.4981716999999999,0.16298546,0.12570119999999999,-0.10439592,11.94,31.68,11.64
1554877902071,-8.829816000000001,-3.9223008000000004,1.1629834,0.20453078,0.12676647,-0.094808534,12.0,31.74,11.58
1554877902091,-8.959103,-3.8552632000000004,1.0145429,0.22690132,0.10546118,-0.098004326,12.06,31.86,11.58
1554877902112,-8.920795,-3.5488055,1.287482,0.12144015,0.07882957,-0.09374327,12.0,31.98,11.52
1554877902132,-8.963891,-3.8025907999999995,1.7136499,-0.056459017,0.036218993,-0.025566347000000003,12.0,32.22,11.52
1554877902151,-8.75799,-3.9749733999999997,2.0344729999999998,-0.15765914,-0.010652645,0.040480047000000005,12.0,32.46,11.52
1554877902171,-8.7532015,-3.9223008000000004,2.0536265,-0.101200126,-0.024501082,0.037284255,12.0,32.7,11.52
1554877902193,-8.8777,-3.9558197999999996,2.1924900000000003,0.020240024,-0.06498113,0.04474111,11.94,32.82,11.52
1554877902211,-8.853758000000001,-3.9558197999999996,2.0392613,0.12783173,-0.08735169,0.060720075,11.94,33.0,11.52
1554877902231,-8.825027,-4.013280399999999,2.1015105,0.24607609,-0.094808534,0.051132694000000006,11.88,33.12,11.52
1554877902252,-8.7771435,-4.0420110000000005,2.3026235,0.37816888,-0.10013486,0.04580637,11.82,33.24,11.58
1554877902272,-8.829816000000001,-3.7738605000000005,2.1972785,0.47510794,-0.07669904,0.04474111,11.76,33.24,11.58
1554877902292,-8.710106,-3.5823242999999994,2.4702177000000005,0.5113269,-0.053263225,0.027696876000000002,11.7,33.24,11.52
1554877902311,-8.6574335,-3.4003648999999996,2.5755625,0.43995422,-0.025566347000000003,0.026631612000000002,11.64,33.18,11.46
1554877902332,-8.451532,-3.2998084999999997,2.6761188999999996,0.31105720000000003,0.029827405,0.014913702,11.58,33.18,11.4
1554877902351,-8.532935,-3.1130607000000006,2.7527334999999997,0.17470337,0.07669904,0.004261058,11.52,33.18,11.34
1554877902371,-8.418014,-3.151368,2.5611973,0.099069595,0.113983296,-0.002130529,11.46,33.3,11.28
1554877902392,-8.39886,-3.1753099999999996,2.2547395,0.12037488,0.13635385,-0.07030745599999999,11.4,33.36,11.22
1554877902412,-8.327033,-3.2184057,2.1158757,0.1587244,0.1438107,-0.12783173,11.34,33.48,11.16
1554877902432,-8.480263,-3.2710779999999997,2.0248961,0.22690132,0.17257284,-0.21092236,11.28,33.6,11.1
1554877902452,-8.825027,-3.1848867000000003,1.4502877,0.25885928,0.18961707,-0.25140239999999997,11.28,33.78,11.1
1554877902472,-8.882488,-3.4099417,1.2683283,0.18322548,0.1587244,-0.20772657,11.28,33.9,11.1
1554877902492,-8.868122999999999,-3.8073792,1.2156559,-0.041545313,0.09267801,-0.13528858,11.28,34.02,11.04
1554877902511,-9.006986999999999,-4.0563765,1.5269021,-0.27590349999999997,0.04580637,-0.08735169,11.28,34.2,11.04
1554877902531,-9.002198,-4.013280399999999,1.6609775000000002,-0.40906155,-0.002130529,-0.03089267,11.28,34.26,10.98
1554877902551,-9.035717,-3.888782,1.6130934,-0.48149952,-0.06498113,0.035153727999999995,11.28,34.32,10.98
1554877902571,-8.868122999999999,-3.946243,1.9626468000000001,-0.47404268,-0.12357068,0.07137272,11.28,34.38,10.98
1554877902592,-8.815451,-3.9989154,1.8046296000000002,-0.38882150000000004,-0.15765914,0.07989483,11.28,34.44,10.98
1554877902612,-8.441956,-3.8744167999999997,2.202067,-0.2790993,-0.15552860000000002,0.05965481,11.28,34.5,10.98
1554877902632,-8.571242,-3.7834373,2.4271219,-0.17257284,-0.128897,0.026631612000000002,11.22,34.5,10.98
1554877902651,-8.461109,-3.8935703999999998,2.3840263,-0.06391586,-0.12250541,0.022370555,11.22,34.5,11.04
1554877902671,-8.470686,-3.9510313999999997,2.1206641,0.024501082,-0.10759171,0.029827405,11.16,34.5,11.04
1554877902692,-8.576031,-3.946243,2.0488381,0.03089267,-0.10333065,0.034088463,11.16,34.44,11.1
1554877902713,-8.734048,-3.9223008000000004,1.8956091,-0.002130529,-0.08628642,0.05006743,11.16,34.38,11.1
1554877902732,-8.7292595,-3.7882257000000004,2.0009542000000002,0.013848438000000001,-0.07776430000000001,0.06711166,11.16,34.2,11.1
1554877902752,-8.7532015,-3.7882257000000004,1.881244,0.07456851,-0.07350325,0.06924219,11.16,34.08,11.1
1554877902771,-8.710106,-3.5775358999999995,2.1877017000000003,0.12570119999999999,-0.04580637,0.06604639400000001,11.16,34.02,11.16
1554877902791,-8.614338,-3.3333273,2.130241,0.15659387,-0.012783173500000002,0.06711166,11.22,33.9,11.16
1554877902812,-8.743625,-3.2375592999999996,2.3265655,0.18429075,0.012783173500000002,0.07776430000000001,11.34,33.78,11.16
1554877902832,-8.772355000000001,-3.3812113,2.0871453,0.19813919,0.014913702,0.09054748,11.46,33.72,11.16
1554877902852,-8.90643,-3.4434607,1.8908207,0.18322548,-0.011717908999999999,0.101200126,11.58,33.6,11.16
1554877902872,-8.863335000000001,-3.3812113,1.9243397,0.16298546,-0.037284255,0.09267801,11.7,33.6,11.16
1554877902892,-8.676587,-3.2902317,1.8333599999999999,0.09267801,-0.06498113,0.10333065,11.82,33.6,11.16
1554877902912,-8.863335000000001,-3.256713,1.929128,0.007456851,-0.06498113,0.10226539,11.94,33.6,11.16
1554877902932,-8.628703,-3.2710779999999997,2.168548,-0.026631612000000002,-0.06711166,0.068176925,12.06,33.6,11.1
1554877902952,-8.504205,-3.2662897,2.484583,-0.07137272,-0.05965481,0.039414786,12.06,33.6,11.04
1554877902972,-8.427589999999999,-3.2471360000000002,2.3888147,-0.08628642,-0.033023197000000004,0.010652645,12.06,33.6,10.98
1554877902991,-8.628703,-3.3572693,2.6138697,-0.10013486,0.0,-0.012783173500000002,12.0,33.6,10.92
1554877903012,-8.571242,-3.3524809999999996,2.4941597,-0.082025364,0.025566347000000003,-0.05539375,12.0,33.66,10.86
1554877903031,-8.566454,-3.4626143,2.4558525,-0.060720075,0.05539375,-0.07882957,12.06,33.66,10.8
1554877903052,-8.48984,-3.4338839999999995,2.5803509,-0.04474111,0.08735169,-0.10972224,12.06,33.66,10.8
1554877903072,-8.561666,-3.3764230000000004,2.3169887000000005,0.0053263223,0.1438107,-0.17470337,12.06,33.6,10.74
1554877903092,-8.508992999999998,-3.3764230000000004,2.307412,0.08841695,0.17896444,-0.23648871,12.06,33.48,10.74
1554877903112,-8.7053175,-3.2375592999999996,2.154183,0.24074976,0.2034655,-0.31318775,12.06,33.36,10.8
1554877903132,-8.829816000000001,-3.1848867000000003,1.8142063999999998,0.3568636,0.20240025,-0.33662358,12.0,33.3,10.8
1554877903151,-9.002198,-3.3907879999999997,1.6130934,0.31212249999999997,0.1768339,-0.28442562,12.0,33.18,10.8
1554877903171,-8.959103,-3.615843,1.5364790000000002,0.16298546,0.128897,-0.25033715,12.0,33.12,10.86
1554877903192,-8.882488,-3.6733038000000002,1.6226702,-0.06178534,0.05965481,-0.22583607,11.94,33.18,10.92
1554877903212,-8.820239,-3.7499184999999997,1.9913772,-0.17896444,-0.002130529,-0.16937704,11.88,33.3,10.98
1554877903232,-8.762777999999999,-3.769072,1.7663223000000001,-0.19387813,-0.056459017,-0.11717909,11.88,33.48,11.04
1554877903252,-8.834603999999999,-3.9749733999999997,1.6035166,-0.13954964,-0.098004326,-0.07137272,11.82,33.72,11.04
1554877903272,-8.978256,-3.9606082000000002,1.7040731,-0.08628642,-0.14168017,-0.047936900000000005,11.82,33.96,11.1
1554877903292,-8.868122999999999,-3.9845502,1.8142063999999998,-0.099069595,-0.16405073,-0.0031957934000000003,11.76,34.2,11.1
1554877903312,-8.748413000000001,-4.022857,1.7280151000000001,-0.18216023,-0.18642128,0.051132694000000006,11.76,34.44,11.16
1554877903332,-8.6813755,-3.9845502,2.0679917000000003,-0.25672874,-0.17576863,0.07137272,11.7,34.62,11.16
1554877903351,-8.628703,-3.8073792,2.2260091,-0.29188246,-0.14061491,0.068176925,11.64,34.68,11.16
1554877903372,-8.470686,-3.5583823,2.4319102999999997,-0.29827404,-0.098004326,0.053263225,11.64,34.56,11.16
1554877903392,-8.384495,-3.5392287000000002,2.6042929,-0.29507825,-0.05219796,0.02130529,11.58,34.44,11.16
1554877903412,-8.418014,-3.7163997,2.5133132999999996,-0.24074976,-0.011717908999999999,-0.011717908999999999,11.58,34.14,11.16
1554877903432,-8.446744,-3.8025907999999995,2.168548,-0.16298546,0.026631612000000002,-0.068176925,11.58,33.9,11.16
1554877903451,-8.614338,-3.74513,1.9865887999999998,-0.16618125,0.054328485999999995,-0.11717909,11.52,33.66,11.22
1554877903471,-8.590396,-3.888782,2.0775685,-0.20772657,0.040480047000000005,-0.12250541,11.52,33.42,11.22
1554877903491,-8.5473,-3.9270894999999997,1.8956091,-0.24394555,0.02130529,-0.13422333,11.52,33.18,11.22
1554877903512,-8.7292595,-3.9031472000000003,1.8381484000000001,-0.28442562,0.011717908999999999,-0.14274544,11.52,33.0,11.28
1554877903533,-8.738836000000001,-3.9606082000000002,1.7711107,-0.29933932,-0.020240024,-0.12783173,11.52,32.88,11.34
1554877903551,-8.7771435,-4.022857,1.9195513,-0.27377295,-0.029827405,-0.11717909,11.52,32.82,11.4
1554877903571,-8.834603999999999,-4.0037036,1.6609775000000002,-0.21198763,-0.036218993,-0.10972224,11.52,32.82,11.46
1554877903592,-8.825027,-4.089895200000001,1.857302,-0.16298546,-0.025566347000000003,-0.09587380000000001,11.52,32.82,11.58
1554877903612,-8.6813755,-4.1425676,1.8716671000000003,-0.10759171,-0.025566347000000003,-0.07882957,11.52,32.82,11.64
1554877903631,-8.686164,-4.1282024,1.9722236000000002,-0.07243799,-0.014913702,-0.036218993,11.58,32.76,11.76
1554877903652,-8.738836000000001,-4.2718544000000005,1.8046296000000002,-0.023435817999999997,-0.0053263223,0.02130529,11.58,32.7,11.82
1554877903672,-8.580819,-4.200028400000001,1.4981716999999999,-0.007456851,-0.00958738,0.056459017,11.58,32.64,11.88
1554877903692,-8.499416,-4.085107,1.6561891,0.0031957934000000003,-0.007456851,0.09267801,11.58,32.52,11.88
1554877903711,-8.441956,-4.1760864,1.9578583999999999,0.03089267,-0.0053263223,0.113983296,11.58,32.4,11.88
1554877903735,-8.350976,-4.0037036,2.1924900000000003,0.13635385,0.00958738,0.10759171,11.52,32.28,11.88
1554877903751,-8.350976,-3.86484,1.8429368000000002,0.15020229,-0.002130529,0.099069595,11.58,32.16,11.82
1554877903771,-8.418014,-3.8504747999999998,1.9434932,0.15339808,0.015978966,0.08628642,11.58,32.1,11.76
1554877903791,-8.513782,-3.7355532999999994,2.2212207000000004,0.12463594,0.026631612000000002,0.051132694000000006,11.58,31.98,11.7
1554877903811,-8.552089,-3.7786489000000003,2.0632033,0.099069595,0.056459017,0.037284255,11.58,31.92,11.64
1554877903832,-8.504205,-3.769072,1.8046296000000002,0.060720075,0.082025364,-0.0063915867,11.58,31.86,11.64
1554877903852,-8.6574335,-3.6589386,1.9674352,0.0031957934000000003,0.09267801,-0.036218993,11.58,31.86,11.58
1554877903872,-8.604761,-3.8696284,1.7280151000000001,-0.020240024,0.09374327,-0.05219796,11.64,31.86,11.58
1554877903891,-8.6574335,-3.7882257000000004,1.7567455,-0.047936900000000005,0.08735169,-0.08735169,11.64,31.86,11.58
1554877903911,-8.585608,-3.7594953,1.7088615000000003,-0.08735169,0.07137272,-0.10013486,11.64,31.86,11.58
1554877903932,-8.710106,-3.8839936,1.8429368000000002,-0.10652645,0.06711166,-0.099069595,11.58,31.86,11.7
1554877903952,-8.8777,-3.8935703999999998,1.632247,-0.13528858,0.068176925,-0.11717909,11.58,31.86,11.76
1554877903971,-8.978256,-4.0276456,1.7136499,-0.16937704,0.053263225,-0.112918034,11.58,31.8,11.82
1554877903992,-8.868122999999999,-4.094683600000001,1.6130934,-0.18216023,0.02130529,-0.08735169,11.52,31.8,11.88
1554877904011,-8.949525999999999,-4.1760864,1.5077485000000002,-0.14168017,-0.012783173500000002,-0.06604639400000001,11.46,31.8,11.94
1554877904031,-8.90643,-4.013280399999999,1.7758990000000001,-0.082025364,-0.035153727999999995,-0.05539375,11.4,31.74,12.0
1554877904052,-8.954314,-3.9414546,1.857302,-0.041545313,-0.036218993,-0.049002163,11.28,31.68,12.06
1554877904071,-8.8777,-3.9270894999999997,1.7758990000000001,0.0053263223,-0.043675844000000005,-0.034088463,11.22,31.62,12.12
1554877904091,-8.628703,-3.8839936,1.8477252,0.013848438000000001,-0.02876214,-0.03089267,11.16,31.62,12.12
1554877904112,-8.63828,-3.970185,1.809418,-0.008522116,-0.012783173500000002,-0.018109497,11.1,31.56,12.12
1554877904131,-8.576031,-4.0276456,1.584363,-0.02876214,0.004261058,-0.004261058,11.04,31.56,12.06
1554877904151,-8.480263,-4.065953299999999,1.4646529,-0.04580637,0.008522116,0.0,10.98,31.56,12.06
1554877904172,-8.432379,-4.1186256000000006,1.359308,-0.053263225,0.0063915867,-0.0063915867,11.04,31.5,12.12
1554877904192,-8.552089,-4.152144399999999,1.7423803,-0.033023197000000004,0.007456851,-0.00958738,11.04,31.5,12.12
1554877904212,-8.508992999999998,-4.0372224,1.7423803,0.041545313,0.0063915867,-0.026631612000000002,11.1,31.5,12.12
1554877904232,-8.743625,-4.013280399999999,1.5508442,0.113983296,0.017044231,-0.05965481,11.1,31.44,12.12
1554877904252,-8.911219000000001,-4.085107,1.2539631000000002,0.111852765,0.018109497,-0.058589544,11.16,31.44,12.12
1554877904272,-8.643068,-3.9270894999999997,1.7615339,0.10759171,0.04474111,-0.08841695,11.16,31.38,12.18
1554877904292,-8.853758000000001,-3.840898,1.9818004,0.14168017,0.06285059999999999,-0.17363810000000002,11.22,31.38,12.18
1554877904312,-8.99741,-3.9318779000000004,1.9195513,0.11611383,0.053263225,-0.14487597,11.22,31.32,12.24
1554877904332,-8.868122999999999,-4.209605000000001,2.0153193,0.07669904,0.06498113,-0.15659387,11.22,31.32,12.24
1554877904351,-8.930372,-4.2814309999999995,1.9339164,0.084155895,0.056459017,-0.18748654,11.22,31.32,12.24
1554877904371,-8.667010000000001,-4.362833999999999,1.6944963,0.12357068,-0.007456851,-0.15978967,11.22,31.32,12.24
1554877904391,-8.413225,-4.3724110000000005,1.5795746000000002,0.20026971,-0.07350325,-0.13528858,11.22,31.32,12.3
1554877904412,-8.623915,-4.305373,1.4359225,0.31957933,-0.099069595,-0.09374327,11.22,31.38,12.36
1554877904431,-8.6095495,-4.0707417,1.4215573000000001,0.406931,-0.10439592,-0.051132694000000006,11.22,31.5,12.36
1554877904452,-8.355764,-3.86484,1.7328035,0.330232,-0.07350325,-0.026631612000000002,11.22,31.62,12.36
1554877904472,-8.465898,-3.7211879999999997,1.9674352,0.22583607,-0.023435817999999997,-0.011717908999999999,11.22,31.86,12.42
1554877904492,-8.408437,-3.7882257000000004,1.7328035,0.13209279,-0.014913702,0.013848438000000001,11.22,32.04,12.42
1554877904512,-8.365341,-3.7259765,1.6849195,0.011717908999999999,-0.025566347000000003,0.015978966,11.22,32.16,12.42
1554877904532,-8.379706,-4.0420110000000005,1.7232267,-0.056459017,-0.025566347000000003,0.012783173500000002,11.22,32.34,12.42
1554877904551,-8.389283,-4.022857,1.8285716,-0.06391586,-0.02130529,0.015978966,11.22,32.52,12.36
1554877904572,-8.475474,-4.013280399999999,1.8620903000000002,-0.051132694000000006,-0.0031957934000000003,0.0031957934000000003,11.22,32.64,12.3
1554877904591,-8.446744,-4.018069000000001,1.5364790000000002,-0.047936900000000005,-0.0031957934000000003,-0.010652645,11.22,32.7,12.24
1554877904612,-8.451532,-4.032433999999999,1.5556326,-0.047936900000000005,-0.00958738,-0.012783173500000002,11.22,32.7,12.18
1554877904631,-8.408437,-4.018069000000001,1.7184383,-0.04261058,-0.03089267,-0.023435817999999997,11.22,32.7,12.12
1554877904652,-8.48984,-4.051588,1.7040731,-0.023435817999999997,-0.03834952,-0.029827405,11.22,32.7,12.06
1554877904673,-8.619126,-3.970185,1.7567455,0.017044231,-0.02876214,-0.035153727999999995,11.22,32.7,12.0
1554877904692,-8.580819,-4.051588,1.9195513,0.026631612000000002,-0.010652645,-0.043675844000000005,11.22,32.7,11.94
1554877904711,-8.6095495,-4.0755300000000005,1.9147629000000002,0.0063915867,-0.004261058,-0.051132694000000006,11.22,32.7,11.88
1554877904732,-8.628703,-4.0755300000000005,1.6705543,-0.04261058,-0.010652645,-0.05219796,11.22,32.76,11.88
1554877904752,-8.7292595,-4.0803185,1.7232267,-0.08522116,-0.015978966,-0.04474111,11.28,32.82,11.88
1554877904772,-8.714894000000001,-4.180875,1.857302,-0.10759171,-0.03834952,-0.029827405,11.28,32.94,11.82
1554877904792,-8.628703,-4.152144399999999,1.929128,-0.10439592,-0.04474111,-0.012783173500000002,11.22,33.0,11.76
1554877904812,-8.561666,-4.180875,1.9626468000000001,-0.07350325,-0.06711166,-0.011717908999999999,11.22,33.06,11.64
1554877904832,-8.662222,-4.152144399999999,1.6944963,-0.04580637,-0.07243799,-0.0031957934000000003,11.22,33.12,11.58
1554877904851,-8.7532015,-4.1904516,1.6705543,-0.02130529,-0.07882957,0.00958738,11.16,33.18,11.58
1554877904872,-8.614338,-4.1665095999999995,1.9195513,0.002130529,-0.084155895,0.024501082,11.1,33.18,11.64
1554877904892,-8.485051,-4.19524,2.0871453,0.02130529,-0.07669904,0.03089267,11.1,33.24,11.7
1554877904911,-8.494628,-4.137779,1.9195513,0.036218993,-0.07669904,0.027696876000000002,11.04,33.18,11.76
1554877904931,-8.485051,-4.0420110000000005,1.9961656000000003,0.05006743,-0.08628642,0.029827405,10.98,33.12,11.82
1554877904952,-8.350976,-3.9318779000000004,1.7711107,0.06924219,-0.084155895,0.033023197000000004,10.98,33.12,11.94
1554877904971,-8.341399000000001,-3.912724,1.8237831999999998,0.047936900000000005,-0.060720075,0.04261058,10.98,33.12,12.0
1554877904991,-8.437167,-3.9414546,1.8477252,0.010652645,-0.04580637,0.033023197000000004,10.98,33.18,12.12
1554877905012,-8.48984,-3.9270894999999997,1.9147629000000002,-0.023435817999999997,-0.03834952,0.00958738,11.04,33.18,12.12
1554877905032,-8.556877,-3.8839936,1.9482816000000003,-0.05539375,-0.049002163,0.0031957934000000003,11.1,33.24,12.06
1554877905052,-8.619126,-3.912724,2.1015105,-0.07989483,-0.054328485999999995,0.00958738,11.22,33.24,12.06
1554877905071,-8.561666,-3.9653966,1.9722236000000002,-0.068176925,-0.05006743,0.008522116,11.28,33.3,12.0
1554877905091,-8.647857,-4.013280399999999,2.1733365,-0.040480047000000005,-0.033023197000000004,0.002130529,11.34,33.3,11.94
1554877905112,-8.667010000000001,-4.013280399999999,2.202067,-0.008522116,-0.02130529,-0.004261058,11.4,33.24,11.94
1554877905132,-8.734048,-3.8983587999999996,1.9961656000000003,0.017044231,-0.013848438000000001,0.0063915867,11.46,33.12,11.94
1554877905152,-8.542512,-3.8600516000000002,2.2451627,0.033023197000000004,0.015978966,0.0053263223,11.46,33.0,11.88
1554877905172,-8.623915,-3.6780925000000004,2.1493945,0.008522116,0.018109497,-0.02876214,11.46,32.82,11.88
1554877905193,-8.6574335,-3.8265328000000003,2.1110873,-0.020240024,0.020240024,-0.00958738,11.46,32.7,11.88
1554877905212,-8.580819,-3.7786489000000003,1.8046296000000002,-0.03195793,0.018109497,0.012783173500000002,11.46,32.58,11.88
1554877905231,-8.6813755,-3.74513,1.8189948,-0.05006743,0.013848438000000001,-0.002130529,11.52,32.46,11.82
1554877905252,-8.6813755,-3.9606082000000002,1.8860323,-0.036218993,0.0010652645,0.004261058,11.52,32.4,11.82
1554877905271,-8.599973,-3.9558197999999996,1.9434932,-0.008522116,-0.017044231,-0.00958738,11.58,32.34,11.82
1554877905291,-8.590396,-4.032433999999999,2.0392613,0.014913702,-0.013848438000000001,-0.024501082,11.58,32.28,11.76
1554877905312,-8.441956,-4.089895200000001,1.9243397,0.022370555,-0.013848438000000001,-0.029827405,11.64,32.28,11.76
1554877905332,-8.350976,-4.152144399999999,2.0488381,0.0010652645,-0.014913702,-0.040480047000000005,11.64,32.34,11.76
1554877905351,-8.2169,-4.0276456,1.9482816000000003,-0.035153727999999995,-0.015978966,-0.051132694000000006,11.7,32.34,11.76
1554877905372,-8.307879,-4.032433999999999,1.8860323,-0.06924219,-0.0010652645,-0.060720075,11.7,32.34,11.76
1554877905392,-8.389283,-4.0707417,1.8620903000000002,-0.11611383,0.011717908999999999,-0.034088463,11.7,32.34,11.76
1554877905411,-8.389283,-4.0755300000000005,1.9099745,-0.128897,0.04261058,-0.014913702,11.7,32.4,11.7
1554877905431,-8.461109,-3.9989154,2.0296845,-0.12250541,0.06285059999999999,-0.002130529,11.7,32.4,11.7
1554877905452,-8.619126,-4.0084919999999995,2.0201077,-0.05539375,0.10652645,0.027696876000000002,11.7,32.46,11.64
1554877905472,-8.710106,-3.8313212,2.0632033,0.008522116,0.12570119999999999,0.027696876000000002,11.7,32.4,11.58
1554877905492,-8.781932000000001,-3.8265328000000003,2.0248961,0.049002163,0.13315806,0.04580637,11.7,32.4,11.58
1554877905512,-8.662222,-3.7307648999999996,2.0248961,0.098004326,0.15126756,0.06178534,11.7,32.28,11.58
1554877905532,-8.700529,-3.8265328000000003,1.7950528000000001,0.1107875,0.16724652,0.06498113,11.7,32.22,11.58
1554877905552,-8.762777999999999,-3.7786489000000003,1.7136499,0.08735169,0.18216023,0.058589544,11.7,32.1,11.58
1554877905571,-8.7292595,-3.840898,1.6035166,0.07137272,0.17576863,0.027696876000000002,11.64,31.98,11.64
1554877905591,-8.662222,-3.8361096,1.8189948,0.037284255,0.15659387,0.004261058,11.64,31.92,11.7
1554877905611,-8.676587,-3.86484,1.8956091,0.0,0.13528858,-0.022370555,11.58,31.86,11.82
1554877905632,-8.7532015,-4.085107,1.7040731,-0.007456851,0.111852765,-0.05219796,11.58,31.74,11.88
1554877905652,-8.623915,-4.051588,1.7328035,0.0010652645,0.08841695,-0.07669904,11.46,31.74,11.94
1554877905672,-8.690952000000001,-4.152144399999999,1.5125369,-0.0053263223,0.07776430000000001,-0.094808534,11.4,31.74,12.0
1554877905692,-8.662222,-4.123414,1.7040731,-0.041545313,0.06498113,-0.10226539,11.34,31.8,12.12
1554877905711,-8.848969,-4.185663,1.6178818000000001,-0.07882957,0.03195793,-0.10759171,11.22,31.8,12.18
1554877905732,-8.925583999999999,-4.180875,1.6035166,-0.08735169,-0.0053263223,-0.10652645,11.16,31.8,12.24
1554877905752,-8.968679,-4.0276456,1.5939398,-0.060720075,-0.046871635999999994,-0.07882957,11.1,31.86,12.3
1554877905772,-8.939949,-4.0563765,1.4119805,-0.002130529,-0.058589544,-0.036218993,11.04,31.92,12.3
1554877905792,-9.069236,-3.9175123999999997,1.4550761,0.06604639400000001,-0.04261058,-0.002130529,10.98,31.92,12.36
1554877905812,-9.054871,-3.7259765,1.4646529,0.12463594,-0.023435817999999997,0.014913702,10.98,31.92,12.36
1554877905831,-9.002198,-3.481768,1.4215573000000001,0.15446335,-0.015978966,0.06391586,10.98,31.92,12.36
1554877905852,-8.925583999999999,-3.3764230000000004,1.3449427999999999,0.15233281,-0.012783173500000002,0.09587380000000001,10.98,31.92,12.36
1554877905871,-8.939949,-3.2184057,1.4502877,0.08841695,-0.022370555,0.08522116,10.98,31.86,12.42
1554877905891,-8.815451,-3.2184057,1.3640964,-0.022370555,-0.04580637,0.07563378,10.98,31.86,12.36
1554877905912,-8.667010000000001,-3.4434607,1.4838065,-0.13635385,-0.05219796,0.05965481,10.98,31.86,12.36
1554877905932,-8.719683,-3.4482489999999997,1.5699978,-0.21092236,-0.037284255,0.011717908999999999,10.92,31.8,12.36
1554877905952,-8.714894000000001,-3.4961330000000004,1.6944963,-0.26418558,-0.047936900000000005,-0.029827405,10.92,31.74,12.3
1554877905972,-8.75799,-3.8552632000000004,1.2635399,-0.27590349999999997,-0.07776430000000001,-0.027696876000000002,10.92,31.68,12.3
1554877905992,-8.820239,-3.8552632000000004,1.2970588,-0.30786142,-0.09374327,-0.03834952,10.92,31.62,12.24
1554877906012,-8.796297000000001,-3.9510313999999997,1.38325,-0.37710363,-0.1107875,-0.05006743,10.92,31.56,12.24
1554877906031,-8.848969,-3.9989154,1.4263457,-0.43249738,-0.13102753,-0.01917476,10.92,31.5,12.18
1554877906051,-8.762777999999999,-4.267066000000001,1.6274586000000002,-0.46871635,-0.1470065,-0.004261058,10.92,31.44,12.18
1554877906072,-8.643068,-4.2957964,1.6083049999999999,-0.46552056,-0.15765914,-0.013848438000000001,10.98,31.32,12.18
1554877906094,-8.599973,-4.425083,1.5316905,-0.38775626,-0.16192019,-0.002130529,11.04,31.14,12.18
1554877906111,-8.508992999999998,-4.420294999999999,1.6274586000000002,-0.31318775,-0.15659387,-0.0053263223,11.04,31.02,12.24
1554877906131,-8.422802,-4.3101616,1.4694413,-0.2034655,-0.16085494,-0.024501082,11.16,30.78,12.3
1554877906151,-8.427589999999999,-4.386776,1.6083049999999999,-0.10013486,-0.1470065,-0.007456851,11.28,30.54,12.36
1554877906172,-8.1881695,-4.0420110000000005,1.9674352,-0.054328485999999995,-0.10972224,-0.033023197000000004,11.46,30.18,12.36
1554877906192,-8.422802,-4.032433999999999,1.9387047999999998,-0.012783173500000002,-0.043675844000000005,-0.068176925,11.58,29.88,12.36
1554877906212,-8.475474,-4.1282024,1.8764555,0.0031957934000000003,-0.010652645,-0.046871635999999994,11.76,29.58,12.36
1554877906231,-8.456321,-3.9845502,1.6897078999999997,0.02130529,0.004261058,-0.060720075,11.88,29.34,12.36
1554877906251,-8.628703,-3.9797617999999995,1.6897078999999997,0.004261058,0.0063915867,-0.07350325,12.0,29.04,12.42
1554877906272,-8.528147,-4.0994720000000004,1.4407108999999998,-0.012783173500000002,0.0053263223,-0.06498113,12.12,28.92,12.36
1554877906291,-8.719683,-4.1186256000000006,1.6370354,-0.027696876000000002,0.011717908999999999,-0.05965481,12.18,28.86,12.36
1554877906311,-8.839393,-4.0276456,1.3688848,-0.039414786,0.012783173500000002,-0.05965481,12.12,28.92,12.3
1554877906332,-8.7771435,-4.022857,1.4024036,-0.051132694000000006,-0.0010652645,-0.034088463,12.12,28.98,12.3
1554877906352,-8.781932000000001,-4.0276456,1.5364790000000002,-0.058589544,-0.00958738,-0.023435817999999997,12.06,29.04,12.3
1554877906372,-9.011775,-4.123414,1.0815806000000001,-0.06604639400000001,-0.046871635999999994,-0.0053263223,12.06,29.04,12.3
1554877906391,-8.724471000000001,-4.022857,1.3257892,-0.083090626,-0.05006743,0.027696876000000002,12.06,29.1,12.24
1554877906412,-8.676587,-3.8983587999999996,1.5891514,-0.165116,-0.06711166,-0.03089267,12.0,29.16,12.24
1554877906431,-8.63828,-3.8552632000000004,1.8237831999999998,-0.19600865,-0.07243799,-0.010652645,12.0,29.16,12.24
1554877906451,-8.523358,-4.0084919999999995,1.5221136999999998,-0.257794,-0.06604639400000001,-0.0031957934000000003,12.0,29.1,12.24
1554877906471,-8.628703,-4.156933,1.6801311,-0.29614353,-0.043675844000000005,-0.010652645,11.94,29.1,12.24
1554877906492,-8.576031,-4.3580456,1.5795746000000002,-0.26738137,-0.03834952,0.00958738,11.94,29.04,12.24
1554877906512,-8.408437,-4.348469000000001,1.5125369,-0.24820662,-0.02876214,0.027696876000000002,11.94,28.98,12.24
1554877906532,-8.513782,-4.31495,1.4311341,-0.22370553,-0.012783173500000002,0.025566347000000003,11.94,28.86,12.24
1554877906551,-8.590396,-4.2957964,1.4311341,-0.19068234,0.0,0.047936900000000005,11.94,28.68,12.24
1554877906571,-8.628703,-4.257489,1.2970588,-0.16937704,0.00958738,0.07456851,11.94,28.5,12.24
1554877906592,-8.671799,-4.180875,1.4024036,-0.11717909,0.01917476,0.08841695,11.94,28.32,12.24
1554877906612,-8.6095495,-4.200028400000001,1.5173253,-0.07563378,0.013848438000000001,0.082025364,11.94,28.08,12.18
1554877906632,-8.719683,-4.156933,1.2108675,0.00958738,-0.013848438000000001,0.07137272,11.94,27.78,12.18
1554877906651,-8.724471000000001,-4.267066000000001,1.2970588,0.06285059999999999,-0.007456851,0.084155895,11.94,27.54,12.18
1554877906671,-8.710106,-4.1138372,1.5173253,0.053263225,0.004261058,0.035153727999999995,11.94,27.36,12.12
1554877906692,-8.743625,-3.9223008000000004,1.4981716999999999,0.054328485999999995,0.00958738,-0.0063915867,11.94,27.12,12.12
1554877906711,-8.556877,-3.9510313999999997,1.4790181,0.03834952,-0.0010652645,0.0063915867,11.94,27.0,12.06
1554877906732,-8.734048,-3.769072,1.4981716999999999,0.015978966,0.013848438000000001,-0.027696876000000002,11.94,26.88,12.06
1554877906752,-8.686164,-3.8313212,1.5747862,0.027696876000000002,0.011717908999999999,-0.03834952,11.94,26.76,12.06
1554877906772,-8.719683,-3.840898,1.4167688999999999,0.040480047000000005,0.007456851,-0.04261058,11.94,26.7,12.06
1554877906792,-8.6813755,-3.8121676,1.4550761,0.041545313,0.011717908999999999,-0.056459017,11.94,26.64,12.06
1554877906812,-8.695741,-3.9031472000000003,1.38325,0.03834952,0.017044231,-0.058589544,11.94,26.64,12.06
1554877906832,-8.700529,-3.9606082000000002,1.2731166999999999,0.043675844000000005,0.008522116,-0.047936900000000005,12.0,26.58,12.06
1554877906852,-8.676587,-4.0803185,1.3066356000000001,0.04474111,0.033023197000000004,-0.026631612000000002,12.0,26.64,12.06
1554877906872,-8.710106,-4.0420110000000005,1.3688848,0.04474111,0.041545313,-0.022370555,12.06,26.64,12.06
1554877906892,-8.7532015,-3.9414546,1.3497312,0.046871635999999994,0.03089267,-0.011717908999999999,12.12,26.64,12.06
1554877906912,-8.810661999999999,-3.9558197999999996,1.407192,0.041545313,0.022370555,-0.010652645,12.12,26.64,12.06
1554877906932,-8.815451,-3.8839936,1.4646529,0.034088463,0.01917476,-0.011717908999999999,12.18,26.64,12.06
1554877906952,-8.7532015,-3.8839936,1.2587515,0.033023197000000004,0.00958738,-0.00958738,12.24,26.64,12.06
1554877906972,-8.801085,-4.018069000000001,1.3162124,0.026631612000000002,-0.0010652645,-0.012783173500000002,12.18,26.64,12.06
1554877906992,-8.676587,-3.9845502,1.4215573000000001,0.026631612000000002,-0.0010652645,-0.011717908999999999,12.18,26.64,12.12
1554877907012,-8.599973,-3.9318779000000004,1.4790181,0.0063915867,-0.0063915867,-0.018109497,12.18,26.64,12.12
1554877907031,-8.801085,-4.018069000000001,1.407192,0.0031957934000000003,-0.0031957934000000003,-0.0063915867,12.18,26.7,12.12
1554877907051,-8.7532015,-4.0037036,1.38325,-0.0063915867,-0.017044231,-0.025566347000000003,12.18,26.7,12.12
1554877907072,-8.6574335,-4.0037036,1.5556326,-0.011717908999999999,-0.023435817999999997,-0.033023197000000004,12.12,26.76,12.12
1554877907092,-8.667010000000001,-4.022857,1.3784616000000003,-0.007456851,-0.03089267,-0.029827405,12.12,26.82,12.12
1554877907112,-8.719683,-3.9031472000000003,1.3640964,-0.002130529,-0.018109497,-0.037284255,12.12,26.82,12.06
1554877907131,-8.6334915,-4.051588,1.4311341,0.017044231,-0.014913702,-0.029827405,12.12,26.88,12.06
1554877907151,-8.801085,-3.8456864,1.1629834,0.05539375,-0.008522116,-0.039414786,12.12,26.88,12.06
1554877907172,-8.738836000000001,-3.8361096,1.3784616000000003,0.12144015,-0.00958738,-0.05752428,12.18,26.88,12.06
1554877907192,-8.7292595,-3.7116113,1.4598645000000001,0.13635385,-0.020240024,-0.07776430000000001,12.18,26.88,12.0
1554877907212,-8.7532015,-3.7259765,1.3497312,0.11611383,-0.04474111,-0.08522116,12.18,26.82,12.0
1554877907232,-8.695741,-3.793014,1.1629834,0.07137272,-0.05965481,-0.09054748,12.24,26.82,12.0
1554877907252,-8.690952000000001,-3.7499184999999997,1.2108675,-0.04580637,-0.084155895,-0.09054748,12.24,26.82,12.0
1554877907272,-8.719683,-4.0084919999999995,1.1198878,-0.19920446,-0.11504856,-0.07137272,12.24,26.82,12.0
1554877907292,-8.748413000000001,-4.0755300000000005,1.2348095,-0.257794,-0.12783173,-0.060720075,12.18,26.82,12.0
1554877907312,-8.7053175,-4.051588,1.6130934,-0.29294774,-0.14168017,-0.08628642,12.18,26.82,12.0
1554877907331,-8.7053175,-4.1186256000000006,1.5508442,-0.27696875,-0.14168017,-0.080960095,12.18,26.88,12.0
1554877907351,-8.604761,-4.1329910000000005,1.5747862,-0.27696875,-0.13315806,-0.06391586,12.18,26.88,12.06
1554877907372,-8.614338,-4.1904516,1.6514006,-0.30892670000000005,-0.11824436,-0.068176925,12.18,26.94,12.06
1554877907391,-8.5473,-4.291008000000001,1.9434932,-0.3174488,-0.096939065,-0.06178534,12.24,26.94,12.06
1554877907411,-8.6095495,-4.2622776,1.6753427,-0.31212249999999997,-0.082025364,-0.06178534,12.24,26.88,12.06
1554877907432,-8.7053175,-4.487332299999999,1.5747862,-0.26738137,-0.060720075,-0.023435817999999997,12.24,26.82,12.06
1554877907452,-8.552089,-4.4921207,1.6370354,-0.20772657,-0.05219796,-0.004261058,12.24,26.76,12.12
1554877907472,-8.604761,-4.458602,1.5747862,-0.08948222,-0.041545313,0.0053263223,12.3,26.7,12.18
1554877907492,-8.542512,-4.439448400000001,1.5795746000000002,0.053263225,-0.029827405,0.023435817999999997,12.3,26.58,12.18
1554877907512,-8.590396,-4.267066000000001,1.632247,0.15446335,-0.0053263223,0.017044231,12.3,26.4,12.12
1554877907532,-8.552089,-4.1760864,1.5556326,0.20240025,0.0053263223,0.011717908999999999,12.3,26.22,12.12
1554877907552,-8.51857,-4.089895200000001,1.4502877,0.23329292,0.018109497,0.007456851,12.3,26.04,12.12
1554877907572,-8.494628,-4.065953299999999,1.4311341,0.25353295,0.02876214,0.002130529,12.3,25.92,12.12
1554877907592,-8.394072,-4.051588,1.5077485000000002,0.22264028,0.02876214,0.0010652645,12.3,25.8,12.12
1554877907612,-8.475474,-4.085107,1.6514006,0.15978967,0.03195793,0.0053263223,12.3,25.68,12.12
1554877907632,-8.403648,-4.1329910000000005,1.6561891,0.07989483,0.037284255,0.015978966,12.36,25.62,12.12
1554877907652,-8.542512,-4.2622776,1.4167688999999999,-0.010652645,0.060720075,0.05006743,12.36,25.5,12.12
1554877907672,-8.652645,-4.348469000000001,1.4646529,-0.051132694000000006,0.09587380000000001,0.1107875,12.36,25.5,12.12
1554877907692,-8.662222,-4.247912400000001,1.5125369,-0.09587380000000001,0.12676647,0.15765914,12.36,25.62,12.12
1554877907712,-8.719683,-4.362833999999999,1.4311341,-0.10226539,0.1438107,0.20559604,12.36,25.68,12.12
1554877907732,-8.710106,-4.2814309999999995,1.3210008,-0.06924219,0.13848437,0.25033715,12.36,25.8,12.12
1554877907752,-8.652645,-4.2957964,1.4502877,0.0,0.12144015,0.23968449999999997,12.36,25.86,12.06
1554877907772,-8.853758000000001,-4.209605000000001,1.335366,0.13102753,0.111852765,0.22796659,12.36,25.86,12.06
1554877907792,-8.815451,-4.0084919999999995,1.1629834,0.23968449999999997,0.10226539,0.20772657,12.36,25.74,12.0
1554877907812,-8.858546,-3.9318779000000004,0.99060094,0.2972088,0.08628642,0.17576863,12.3,25.56,12.0
1554877907832,-8.911219000000001,-3.8025907999999995,1.2539631000000002,0.34834146,0.068176925,0.13102753,12.24,25.44,11.94
1554877907852,-8.844180999999999,-3.4913447,1.3880384,0.42077947,0.049002163,0.07989483,12.18,25.2,11.94
1554877907872,-8.791509,-3.1992521000000003,1.6944963,0.48682585,0.046871635999999994,0.034088463,12.12,25.02,11.94
1554877907892,-8.805874000000001,-3.1657330000000004,1.8860323,0.51026165,0.058589544,0.0053263223,12.06,24.78,11.88
1554877907911,-8.791509,-3.117849,1.857302,0.50813115,0.08735169,-0.0063915867,12.0,24.66,11.88
1554877907931,-8.8777,-3.2040405,1.857302,0.50600064,0.12996227,-0.020240024,11.94,24.66,11.94
1554877907952,-8.892064999999999,-3.2950199999999996,1.335366,0.46765109999999993,0.16405073,-0.03195793,11.94,24.9,11.94
1554877907972,-9.035717,-3.342904,1.4024036,0.38775626,0.17470337,-0.05219796,12.0,25.02,11.94
1554877907992,-9.011775,-3.4482489999999997,1.3305776000000002,0.26312032,0.19387813,-0.09161274,12.06,25.5,11.94
1554877908012,-9.097966,-3.5823242999999994,1.5029601000000001,0.23435818,0.18322548,-0.14061491,12.12,25.98,11.94
1554877908032,-8.992621,-3.7547068999999995,1.3784616000000003,0.21624869,0.15020229,-0.12570119999999999,12.12,26.4,11.94
1554877908052,-8.829816000000001,-3.8744167999999997,1.1629834,0.15552860000000002,0.128897,-0.11611383,12.12,26.82,11.94
1554877908072,-9.121908,-3.615843,1.3257892,0.101200126,0.09587380000000001,-0.111852765,12.06,27.18,12.0
1554877908092,-9.021352,-3.6349967000000003,1.134253,0.0010652645,0.04580637,-0.040480047000000005,11.94,27.54,12.0
1554877908112,-9.045294,-3.6637269999999997,1.4550761,-0.07882957,0.037284255,0.017044231,11.82,27.78,12.06
1554877908132,-9.174581,-3.6876693,1.4167688999999999,-0.024501082,0.040480047000000005,0.07137272,11.7,28.02,12.12
1554877908151,-9.069236,-3.7307648999999996,1.3305776000000002,0.12463594,0.046871635999999994,0.10972224,11.52,28.14,12.18
1554877908173,-9.069236,-3.6876693,1.1725603,0.25033715,0.04580637,0.11611383,11.46,28.14,12.24
1554877908192,-8.925583999999999,-3.4434607,1.110311,0.39947417,0.04261058,0.13635385,11.34,28.14,12.3
1554877908212,-8.920795,-3.4913447,1.3162124,0.48043427,0.040480047000000005,0.14487597,11.34,28.14,12.36
1554877908231,-8.896853,-3.3907879999999997,1.1917138999999999,0.54435015,0.03834952,0.13635385,11.34,28.14,12.36
1554877908252,-8.939949,-3.1896752999999998,1.4790181,0.53795856,0.034088463,0.12783173,11.4,28.14,12.36
1554877908272,-8.8777,-3.1130607000000006,1.4167688999999999,0.49854377,0.03089267,0.113983296,11.4,28.14,12.36
1554877908291,-8.743625,-3.0699651,1.3976152,0.4644553,0.027696876000000002,0.10013486,11.46,28.14,12.3
1554877908311,-8.767567,-3.0651767000000003,1.5316905,0.44208476,0.03195793,0.084155895,11.46,28.2,12.24
1554877908332,-8.805874000000001,-3.0651767000000003,1.5795746000000002,0.42077947,0.03834952,0.058589544,11.46,28.32,12.24
1554877908351,-8.810661999999999,-2.9454667999999997,1.4359225,0.37071204,0.05219796,0.040480047000000005,11.46,28.62,12.18
1554877908372,-9.006986999999999,-3.007716,1.359308,0.28655612,0.058589544,0.025566347000000003,11.46,28.86,12.18
1554877908391,-9.016563,-2.9885623,1.4742297,0.19387813,0.049002163,0.002130529,11.46,29.1,12.12
1554877908411,-8.935161,-3.0364463,1.4407108999999998,0.099069595,0.022370555,-0.03834952,11.4,29.34,12.12
1554877908432,-8.916007,-3.103484,1.5795746000000002,0.047936900000000005,0.0031957934000000003,-0.06391586,11.4,29.58,12.06
1554877908452,-8.8777,-3.1226375,1.7711107,0.03089267,-0.010652645,-0.07563378,11.4,29.76,12.06
1554877908471,-9.045294,-3.2040405,1.632247,0.03089267,-0.02130529,-0.07563378,11.4,30.0,12.06
1554877908491,-9.054871,-3.2854433,1.5029601000000001,0.068176925,-0.035153727999999995,-0.054328485999999995,11.4,30.24,12.06
1554877908512,-8.987833,-3.4626143,1.5412674,0.1587244,-0.007456851,-0.02876214,11.4,30.36,12.06
1554877908532,-9.035717,-3.4290953,1.7806876,0.294013,0.040480047000000005,-0.013848438000000001,11.4,30.54,12.06
1554877908552,-9.069236,-3.3572693,1.7184383,0.42397526,0.07137272,0.0010652645,11.4,30.72,12.06
1554877908571,-9.11712,-3.232771,1.7328035,0.5294364,0.07243799,0.025566347000000003,11.4,30.9,12.12
1554877908591,-9.035717,-2.9550436,1.5891514,0.57311225,0.06285059999999999,0.027696876000000002,11.4,31.08,12.12
1554877908612,-8.983044999999999,-3.031658,1.6657659,0.5954828000000001,0.06391586,0.023435817999999997,11.46,31.26,12.12
1554877908631,-8.844180999999999,-2.8018146,1.7184383,0.5603291,0.07030745599999999,0.020240024,11.46,31.44,12.12
1554877908651,-8.920795,-2.8257565,1.7040731,0.47404268,0.08522116,0.014913702,11.52,31.68,12.12
1554877908672,-8.978256,-2.7060466,1.5508442,0.3536678,0.07989483,0.026631612000000002,11.52,31.86,12.12
1554877908691,-9.102755,-2.830545,1.5173253,0.27164245,0.07350325,0.03834952,11.52,32.1,12.12
1554877908712,-9.002198,-2.7012582000000003,1.6274586000000002,0.25033715,0.06391586,0.018109497,11.58,32.28,12.12
1554877908731,-9.188946000000001,-2.6868927000000005,1.5891514,0.25033715,0.06924219,-0.0010652645,11.58,32.46,12.12
1554877908751,-9.160214999999999,-2.6007016,1.8046296000000002,0.22050974,0.07989483,-0.018109497,11.58,32.7,12.12
1554877908772,-9.054871,-2.6102784,1.7902644,0.13528858,0.08628642,-0.04580637,11.52,33.12,12.12
1554877908792,-8.963891,-2.6390088,1.7280151000000001,0.027696876000000002,0.07669904,-0.054328485999999995,11.46,33.3,12.12
1554877908811,-8.896853,-2.6342204,1.8046296000000002,-0.05752428,0.07137272,-0.07350325,11.4,33.36,12.12
1554877908832,-9.131485000000001,-2.8257565,1.6083049999999999,-0.15446335,0.04474111,-0.094808534,11.34,33.48,12.12
1554877908851,-9.160214999999999,-3.0268695,1.4598645000000001,-0.20772657,0.014913702,-0.08735169,11.22,33.66,12.06
1554877908872,-9.241617999999999,-3.1082723,1.7471686999999998,-0.21731395,0.0031957934000000003,-0.094808534,11.1,33.84,12.0
1554877908892,-9.217675999999999,-3.2136172999999997,1.6035166,-0.15233281,-0.007456851,-0.06498113,11.04,33.9,11.94
1554877908912,-9.299078999999999,-3.0699651,1.7854759999999998,-0.05539375,-0.0063915867,-0.049002163,11.04,33.96,11.88
1554877908932,-9.299078999999999,-3.0603882999999996,1.7184383,0.06711166,0.0063915867,-0.03834952,10.98,33.96,11.82
1554877908954,-9.107543,-2.9789855,1.7375918999999997,0.12996227,0.020240024,-0.015978966,10.98,33.9,11.76
1554877908971,-9.165004,-2.8832173,1.7854759999999998,0.11930962,0.018109497,-0.010652645,10.98,33.84,11.7
1554877908991,-9.121908,-2.830545,1.6609775000000002,0.094808534,0.008522116,0.008522116,10.98,33.78,11.7
1554877909012,-9.054871,-2.9694088,1.5939398,0.040480047000000005,0.013848438000000001,0.011717908999999999,11.04,33.78,11.64
1554877909031,-9.074024,-2.9550436,1.6801311,-0.015978966,0.0053263223,-0.002130529,11.04,33.72,11.64
1554877909051,-9.035717,-3.031658,1.584363,-0.05219796,-0.004261058,-0.0010652645,10.98,33.66,11.7
1554877909071,-9.054871,-2.9311013,1.5747862,-0.053263225,-0.013848438000000001,-0.012783173500000002,10.98,33.6,11.7
1554877909092,-8.987833,-3.0651767000000003,1.5269021,-0.037284255,-0.01917476,-0.02130529,10.92,33.54,11.76
1554877909112,-9.035717,-2.9885623,1.6418238,-0.024501082,-0.011717908999999999,-0.035153727999999995,10.86,33.54,11.76
1554877909134,-8.944737,-2.9550436,1.5652093999999999,-0.026631612000000002,-0.010652645,-0.047936900000000005,10.8,33.6,11.76
1554877909152,-9.02614,-2.9454667999999997,1.7615339,-0.017044231,-0.0031957934000000003,-0.04580637,10.74,33.6,11.76
1554877909171,-8.973467999999999,-2.9885623,1.6897078999999997,0.017044231,0.0,-0.047936900000000005,10.74,33.6,11.7
1554877909192,-9.059659,-2.8449101000000003,1.6561891,0.06711166,0.011717908999999999,-0.058589544,10.68,33.66,11.58
1554877909211,-9.097966,-2.8161798,1.6130934,0.07989483,0.00958738,-0.06285059999999999,10.68,33.66,11.58
1554877909232,-9.141062,-2.8736405,1.584363,0.053263225,0.00958738,-0.04474111,10.74,33.66,11.46
1554877909252,-9.074024,-2.8496985,1.6035166,0.014913702,-0.002130529,-0.034088463,10.8,33.66,11.46
1554877909272,-9.121908,-2.959832,1.7040731,-0.013848438000000001,-0.008522116,-0.023435817999999997,10.8,33.72,11.52
1554877909291,-9.121908,-2.9550436,1.7280151000000001,-0.02130529,-0.022370555,-0.017044231,10.86,33.72,11.58
1554877909311,-9.131485000000001,-3.0603882999999996,1.6657659,0.002130529,-0.035153727999999995,-0.013848438000000001,10.8,33.72,11.64
1554877909332,-9.179369,-3.007716,1.3880384,0.058589544,-0.026631612000000002,-0.011717908999999999,10.8,33.72,11.76
1554877909351,-9.131485000000001,-2.8161798,1.7663223000000001,-0.0031957934000000003,-0.027696876000000002,-0.024501082,10.8,33.72,11.88
1554877909372,-9.002198,-2.9454667999999997,1.7711107,-0.06498113,-0.037284255,-0.02130529,10.68,33.78,11.94
1554877909392,-8.959103,-3.0268695,1.8285716,-0.11504856,-0.039414786,-0.022370555,10.68,33.84,12.06
1554877909412,-8.978256,-2.8113914,1.7136499,-0.15552860000000002,-0.040480047000000005,-0.058589544,10.62,33.9,12.06
1554877909432,-9.016563,-3.141791,1.6274586000000002,-0.113983296,-0.047936900000000005,-0.029827405,10.62,33.96,12.12
1554877909452,-8.911219000000001,-3.031658,1.7567455,-0.08522116,-0.037284255,-0.039414786,10.68,33.96,12.06
1554877909472,-9.121908,-2.959832,1.7232267,-0.039414786,-0.025566347000000003,-0.053263225,10.74,33.96,12.06
1554877909492,-8.963891,-3.0603882999999996,1.5077485000000002,-0.01917476,-0.02876214,-0.036218993,10.8,33.96,12.06
1554877909512,-9.040505,-2.9981391,1.6705543,-0.040480047000000005,-0.029827405,-0.051132694000000006,10.86,33.96,12.06
1554877909532,-9.102755,-3.0651767000000003,1.6561891,-0.05752428,-0.029827405,-0.05006743,10.92,33.9,12.06
1554877909552,-8.978256,-3.0843303,1.6753427,-0.07563378,-0.027696876000000002,-0.040480047000000005,10.98,33.84,12.06
1554877909572,-9.02614,-3.0460230999999998,1.5508442,-0.08735169,-0.026631612000000002,-0.046871635999999994,11.04,33.78,12.12
1554877909591,-9.050082000000002,-2.9550436,1.6705543,-0.09267801,-0.01917476,-0.041545313,10.98,33.72,12.12
1554877909611,-9.021352,-3.0986955000000003,1.7615339,-0.07989483,-0.01917476,-0.039414786,10.98,33.72,12.18
1554877909631,-9.002198,-3.103484,1.7567455,-0.053263225,-0.020240024,-0.03834952,10.98,33.66,12.24
1554877909652,-9.093178,-3.2279825,1.6130934,-0.024501082,-0.023435817999999997,-0.029827405,10.98,33.66,12.36
1554877909672,-9.040505,-3.1657330000000004,1.4981716999999999,0.034088463,-0.01917476,-0.017044231,10.98,33.66,12.3
1554877909691,-9.064447,-2.9741971,1.6274586000000002,0.06924219,-0.007456851,-0.040480047000000005,10.98,33.66,12.24
1554877909713,-9.064447,-2.8832173,1.6705543,0.046871635999999994,-0.004261058,-0.039414786,11.04,33.66,12.24
1554877909731,-8.968679,-2.9071592999999996,1.5269021,-0.004261058,-0.014913702,-0.026631612000000002,11.04,33.66,12.12
1554877909752,-9.064447,-2.9694088,1.4742297,-0.035153727999999995,-0.010652645,-0.046871635999999994,11.1,33.6,12.06
1554877909771,-8.959103,-2.8975825,1.7375918999999997,-0.08628642,0.0,-0.05006743,11.1,33.6,11.94
1554877909791,-9.107543,-3.232771,1.5221136999999998,-0.06924219,-0.002130529,-0.054328485999999995,11.1,33.6,11.82
1554877909811,-8.987833,-3.103484,1.5125369,-0.037284255,-0.010652645,-0.037284255,11.1,33.6,11.7
1554877909831,-9.093178,-3.0460230999999998,1.6514006,-0.04261058,0.0,-0.058589544,11.1,33.6,11.7
1554877909852,-9.040505,-3.1657330000000004,1.584363,-0.041545313,-0.00958738,-0.027696876000000002,11.1,33.54,11.7
1554877909872,-8.944737,-3.093907,1.5556326,-0.04580637,-0.004261058,-0.027696876000000002,11.1,33.48,11.7
1554877909891,-9.045294,-3.0460230999999998,1.6753427,-0.037284255,-0.012783173500000002,-0.036218993,11.1,33.48,11.7
1554877909912,-8.978256,-3.1082723,1.7088615000000003,-0.020240024,-0.020240024,-0.033023197000000004,11.1,33.42,11.76
1554877909932,-8.963891,-3.0556,1.7136499,-0.022370555,-0.020240024,-0.05752428,11.04,33.42,11.7
1554877909952,-8.973467999999999,-3.103484,1.632247,-0.040480047000000005,-0.026631612000000002,-0.06391586,10.98,33.36,11.7
1554877909971,-9.002198,-3.232771,1.6897078999999997,-0.05965481,-0.024501082,-0.07030745599999999,10.92,33.3,11.7
1554877909991,-9.006986999999999,-3.1465794999999996,1.7471686999999998,-0.054328485999999995,-0.02130529,-0.080960095,10.86,33.18,11.7
1554877910012,-9.002198,-3.2902317,1.7136499,-0.010652645,-0.022370555,-0.07563378,10.8,33.12,11.7
1554877910032,-9.002198,-3.1322143,1.6083049999999999,0.099069595,-0.0063915867,-0.09054748,10.74,33.06,11.7
1554877910051,-9.002198,-3.007716,1.5412674,0.10652645,-0.00958738,-0.09267801,10.74,33.0,11.7
1554877910072,-8.935161,-2.9311013,1.7040731,0.051132694000000006,0.012783173500000002,-0.09267801,10.74,32.94,11.76
1554877910092,-9.02614,-2.9837740000000004,1.4502877,-0.011717908999999999,0.020240024,-0.094808534,10.8,32.94,11.76
1554877910111,-9.097966,-2.9981391,1.4407108999999998,-0.07456851,0.01917476,-0.10546118,10.86,32.94,11.82
1554877910132,-9.064447,-3.0029275,1.4694413,-0.12463594,0.0010652645,-0.11611383,10.92,32.94,11.88
1554877910152,-9.02614,-3.0460230999999998,1.3305776000000002,-0.15446335,-0.024501082,-0.13102753,10.92,32.94,11.88
1554877910172,-9.097966,-2.9694088,1.1486181999999998,-0.21518342,-0.05965481,-0.15339808,10.98,33.0,11.88
1554877910191,-9.035717,-2.8401217,1.2491747,-0.28868666,-0.101200126,-0.17150758,11.04,33.0,11.88
1554877910214,-9.069236,-2.9933507,1.2060791000000002,-0.35899413,-0.12463594,-0.17470337,10.98,33.0,11.88
1554877910232,-9.002198,-2.9550436,1.1055226,-0.45273739999999996,-0.16937704,-0.2130529,10.98,33.0,11.88
1554877910252,-8.983044999999999,-3.0029275,1.1007341999999998,-0.5763081,-0.21092236,-0.24394555,10.92,33.0,11.88
1554877910272,-9.002198,-3.0891187,1.1773487,-0.74461985,-0.22796659,-0.24927188,10.86,33.0,11.88
1554877910292,-9.179369,-3.127426,1.0576386,-0.9502159,-0.22050974,-0.22370553,10.8,33.0,11.94
1554877910311,-9.203311,-3.3189620000000004,1.0576386,-1.1334413,-0.20133498,-0.17576863,10.8,32.94,11.94
1554877910331,-9.040505,-3.5248635000000004,1.1677719,-1.2357068000000002,-0.2130529,-0.10652645,10.74,32.88,11.94
1554877910351,-8.853758000000001,-3.6541502,1.3162124,-1.216532,-0.23542345,-0.068176925,10.74,32.7,11.94
1554877910372,-8.724471000000001,-3.769072,1.4311341,-1.0897655000000002,-0.24927188,-0.06924219,10.68,32.34,11.94
1554877910391,-8.595184,-4.013280399999999,1.6944963,-0.9289106,-0.23755397,-0.082025364,10.74,31.8,12.0
1554877910411,-8.556877,-4.123414,1.7423803,-0.793622,-0.2130529,-0.111852765,10.74,31.08,12.0
1554877910432,-8.418014,-4.4777555,1.7615339,-0.68176925,-0.18855181,-0.13848437,10.74,30.36,12.0
1554877910452,-8.274361,-4.544793599999999,1.6609775000000002,-0.59867865,-0.17257284,-0.15765914,10.8,29.64,12.06
1554877910472,-8.221688,-4.6692919999999996,1.6514006,-0.5454154,-0.17363810000000002,-0.17896444,10.8,28.92,12.06
1554877910492,-8.288725999999999,-4.741118,1.5795746000000002,-0.49641323,-0.16298546,-0.19600865,10.8,28.26,12.06
1554877910512,-8.403648,-4.817732299999999,1.7375918999999997,-0.43888897,-0.12570119999999999,-0.20026971,10.86,27.66,12.06
1554877910532,-8.528147,-4.817732299999999,1.6418238,-0.3685815,-0.082025364,-0.19281286,10.86,27.18,12.06
1554877910551,-8.767567,-4.8656163,1.6561891,-0.24394555,-0.037284255,-0.17150758,10.92,26.88,12.06
1554877910572,-8.772355000000001,-4.76506,1.3018471999999999,-0.049002163,0.00958738,-0.13528858,11.04,26.58,12.06
1554877910591,-8.686164,-4.530428,1.3688848,0.06711166,0.025566347000000003,-0.113983296,11.22,26.4,12.12
1554877910612,-8.576031,-4.64535,1.2826935,0.22370553,0.039414786,-0.08841695,11.34,26.22,12.18
1554877910632,-8.667010000000001,-4.4921207,1.2443863000000002,0.31851408,0.04474111,-0.08735169,11.52,26.04,12.18
1554877910652,-8.585608,-4.305373,1.335366,0.42930159999999995,0.046871635999999994,-0.09267801,11.64,25.86,12.24
1554877910671,-8.652645,-4.3819875999999995,1.1725603,0.45380265,0.051132694000000006,-0.094808534,11.64,25.86,12.24
1554877910692,-8.6095495,-4.1760864,1.2204443,0.51984906,0.04261058,-0.1107875,11.94,25.62,12.36
1554877910711,-8.738836000000001,-4.0803185,1.1007341999999998,0.4644553,0.029827405,-0.113983296,12.0,25.62,12.42
1554877910731,-8.643068,-4.0563765,1.1294646000000002,0.28336033,-0.011717908999999999,-0.10759171,12.0,25.68,12.42
1554877910752,-8.556877,-4.109049,1.1294646000000002,0.09054748,-0.036218993,-0.096939065,11.94,25.74,12.48
1554877910771,-8.619126,-4.185663,1.3736732,-0.098004326,-0.06924219,-0.098004326,11.82,25.8,12.48
1554877910792,-8.686164,-4.228758999999999,1.2587515,-0.14487597,-0.08841695,-0.10865697,11.76,25.92,12.48
1554877910811,-8.738836000000001,-4.180875,1.1198878,-0.16405073,-0.10546118,-0.10865697,11.7,25.98,12.48
1554877910831,-8.485051,-4.204817,1.2252326999999998,-0.2790993,-0.112918034,-0.099069595,11.58,26.04,12.48
1554877910851,-8.5473,-4.3963529999999995,1.3018471999999999,-0.3653857,-0.10865697,-0.08841695,11.52,26.1,12.48
1554877910871,-8.465898,-4.4059295999999994,1.158195,-0.40373522,-0.1107875,-0.07669904,11.46,25.8,12.54
1554877910892,-8.552089,-4.563947,1.3688848,-0.39414784,-0.098004326,-0.06711166,11.4,25.5,12.54
1554877910911,-8.408437,-4.583101,1.3305776000000002,-0.37284255,-0.09161274,-0.053263225,11.34,25.08,12.54
1554877910931,-8.475474,-4.635773,1.3497312,-0.30040458,-0.060720075,-0.04580637,11.22,24.54,12.54
1554877910956,-8.461109,-4.573524,1.3497312,-0.23222765,-0.049002163,-0.040480047000000005,11.1,24.0,12.48
1554877910971,-8.288725999999999,-4.611831,1.4119805,-0.15126756,-0.027696876000000002,-0.024501082,10.92,23.28,12.48
1554877910992,-8.336611,-4.583101,1.5795746000000002,-0.053263225,0.012783173500000002,-0.015978966,10.74,22.56,12.48
1554877911011,-8.394072,-4.630985,1.3305776000000002,0.053263225,0.024501082,-0.015978966,10.56,21.84,12.42
1554877911031,-8.365341,-4.549582,1.2108675,0.12357068,0.037284255,-0.020240024,10.38,21.42,12.42
1554877911051,-8.437167,-4.420294999999999,1.2491747,0.12144015,0.03089267,-0.039414786,10.26,21.06,12.42
1554877911071,-8.446744,-4.540005000000001,1.2108675,0.10865697,0.022370555,-0.040480047000000005,10.2,20.7,12.36
1554877911091,-8.580819,-4.511274299999999,1.2060791000000002,0.08841695,0.018109497,-0.046871635999999994,10.08,20.52,12.36
1554877911111,-8.599973,-4.4538136,1.2635399,0.060720075,0.012783173500000002,-0.05539375,10.08,20.34,12.36
1554877911132,-8.532935,-4.573524,1.0959458,0.035153727999999995,0.0053263223,-0.060720075,10.08,20.28,12.3
1554877911151,-8.499416,-4.520851,1.3066356000000001,0.029827405,0.0063915867,-0.06711166,10.08,20.34,12.3
1554877911171,-8.39886,-4.530428,1.1725603,0.03195793,0.013848438000000001,-0.06178534,10.08,20.4,12.3
1554877911191,-8.379706,-4.563947,1.311424,0.04261058,0.023435817999999997,-0.05752428,10.08,20.46,12.3
1554877911211,-8.422802,-4.425083,1.335366,0.07243799,0.035153727999999995,-0.047936900000000005,10.08,20.7,12.3
1554877911231,-8.475474,-4.496909,1.335366,0.08735169,0.036218993,-0.036218993,10.08,20.88,12.3
1554877911251,-8.504205,-4.472967,1.2970588,0.08522116,0.05006743,-0.013848438000000001,10.08,21.06,12.24
1554877911271,-8.422802,-4.425083,1.2587515,0.06498113,0.049002163,0.0031957934000000003,10.08,21.24,12.3
1554877911291,-8.374918,-4.5016975,1.3449427999999999,0.04580637,0.053263225,0.017044231,10.02,21.42,12.3
1554877911311,-8.494628,-4.544793599999999,1.3545196000000002,0.047936900000000005,0.07137272,0.023435817999999997,10.02,21.54,12.3
1554877911331,-8.485051,-4.4538136,1.407192,0.06604639400000001,0.09054748,0.027696876000000002,10.08,21.66,12.3
1554877911351,-8.48984,-4.463390400000001,1.2348095,0.07456851,0.10865697,0.035153727999999995,10.08,21.84,12.3
1554877911372,-8.542512,-4.520851,1.1438298,0.07350325,0.11611383,0.040480047000000005,10.08,21.9,12.24
1554877911391,-8.470686,-4.549582,1.0815806000000001,0.07776430000000001,0.11930962,0.037284255,10.14,21.96,12.24
1554877911411,-8.6574335,-4.4777555,1.1629834,0.10226539,0.113983296,0.029827405,10.14,22.02,12.18
1554877911431,-8.619126,-4.420294999999999,1.0911574,0.1438107,0.08948222,0.01917476,10.14,22.08,12.18
1554877911451,-8.599973,-4.425083,1.1150993999999999,0.20133498,0.06604639400000001,0.011717908999999999,10.14,22.14,12.18
1554877911471,-8.623915,-4.324527,1.1246762,0.24820662,0.047936900000000005,-0.0031957934000000003,10.14,22.26,12.12
1554877911492,-8.724471000000001,-4.252701,0.98102415,0.22477080000000002,0.014913702,-0.025566347000000003,10.14,22.38,12.18
1554877911511,-8.619126,-4.200028400000001,1.2108675,0.16831179,-0.004261058,-0.02876214,10.14,22.5,12.24
1554877911531,-8.628703,-4.214393599999999,1.0480618,0.054328485999999995,-0.02876214,-0.036218993,10.14,22.68,12.3
1554877911552,-8.566454,-4.243124,1.1965023000000001,-0.023435817999999997,-0.04261058,-0.037284255,10.08,22.8,12.36
1554877911571,-8.671799,-4.257489,1.3210008,-0.02876214,-0.04261058,-0.037284255,10.08,22.92,12.42
1554877911591,-8.662222,-4.2383356,1.3162124,-0.004261058,-0.03834952,-0.03834952,10.02,22.98,12.48
1554877911611,-8.623915,-4.200028400000001,1.2779051000000001,0.013848438000000001,-0.033023197000000004,-0.040480047000000005,9.96,22.98,12.42
1554877911631,-8.599973,-4.2383356,1.2491747,0.0,-0.037284255,-0.024501082,9.96,22.98,12.36
1554877911652,-8.590396,-4.209605000000001,1.1246762,-0.022370555,-0.03834952,-0.018109497,9.9,22.92,12.24
1554877911671,-8.6334915,-4.300585,1.1917138999999999,-0.041545313,-0.05539375,-0.023435817999999997,9.84,22.86,12.18
1554877911691,-8.556877,-4.2718544000000005,1.134253,-0.06924219,-0.06285059999999999,-0.02876214,9.84,23.04,12.12
1554877911711,-8.662222,-4.3388919999999995,1.1150993999999999,-0.13741912,-0.07563378,-0.037284255,9.84,23.22,12.0
1554877911732,-8.743625,-4.324527,1.1917138999999999,-0.23968449999999997,-0.098004326,-0.04261058,9.78,23.4,11.94
1554877911751,-8.820239,-4.3101616,1.3880384,-0.26525086,-0.11717909,-0.07563378,9.78,23.64,11.82
1554877911771,-8.911219000000001,-4.2814309999999995,1.4838065,-0.20240025,-0.15126756,-0.15126756,9.84,23.88,11.82
1554877911792,-8.987833,-4.300585,1.0720038,-0.20985709,-0.20453078,-0.113983296,9.84,24.18,11.82
1554877911811,-9.074024,-4.31495,1.2731166999999999,-0.30253512,-0.2066613,-0.05965481,9.9,24.42,11.88
1554877911831,-9.11712,-4.425083,1.3545196000000002,-0.46765109999999993,-0.22903186,-0.02130529,9.96,24.6,11.88
1554877911851,-9.102755,-4.5926776,1.4646529,-0.5773733,-0.27377295,-0.036218993,10.08,24.54,11.88
1554877911871,-8.882488,-4.6692919999999996,1.4694413,-0.63383234,-0.36645097,-0.10013486,10.14,24.54,11.94
1554877911893,-8.6334915,-4.621408,1.4119805,-0.6689861,-0.42930159999999995,-0.1107875,10.32,24.48,12.0
1554877911911,-8.312667999999999,-4.621408,1.0767921999999999,-0.6945524000000001,-0.44528055,-0.08841695,10.44,24.36,12.12
1554877911931,-8.039729,-4.7937902999999995,1.0959458,-0.680704,-0.42290998,-0.05752428,10.68,24.06,12.24
1554877911951,-7.704541000000001,-4.812944,0.98102415,-0.5965481,-0.36325517,-0.018109497,10.86,23.7,12.36
1554877911972,-7.455544000000001,-4.841674299999999,0.81343,-0.41971418,-0.27483824,0.020240024,11.1,22.92,12.42
1554877911991,-7.2640080000000005,-4.875193,0.86610246,-0.2908172,-0.20559604,0.043675844000000005,11.16,22.62,12.42
1554877912011,-7.273585000000001,-4.812944,0.99538934,-0.033023197000000004,-0.05539375,0.07989483,11.4,21.78,12.3
1554877912031,-7.350199000000001,-4.678869000000001,0.9379284999999999,0.13528858,0.05752428,0.08948222,11.52,21.12,12.06
1554877912051,-7.5082164,-4.6261964,0.99538934,0.17150758,0.15765914,0.08522116,11.58,20.52,11.82
1554877912072,-8.034941,-4.654927,1.0049661,0.12037488,0.26312032,0.083090626,11.58,20.16,11.64
1554877912091,-8.073248,-4.429871599999999,1.3257892,0.07669904,0.30786142,0.051132694000000006,11.64,19.86,11.4
1554877912111,-8.446744,-4.3676224,1.4119805,0.05539375,0.32170987,0.0063915867,11.7,19.8,11.22
1554877912132,-8.863335000000001,-4.5687356,1.4407108999999998,0.051132694000000006,0.2972088,-0.010652645,11.7,20.04,11.16
1554877912151,-9.294291000000001,-4.6501384,1.2300211,0.03089267,0.257794,-0.039414786,11.76,20.28,11.16
1554877912171,-9.375694000000001,-4.7602715,1.2539631000000002,0.014913702,0.19600865,-0.06285059999999999,11.82,20.58,11.28
1554877912192,-9.270349000000001,-4.7363295999999995,1.2204443,0.0031957934000000003,0.13102753,-0.047936900000000005,11.82,20.88,11.46
1554877912211,-8.959103,-4.745906400000001,1.3497312,-0.022370555,0.07776430000000001,-0.013848438000000001,11.88,21.0,11.58
1554877912231,-8.796297000000001,-4.607043,1.287482,-0.0031957934000000003,0.06391586,-0.0010652645,11.88,21.18,11.7
1554877912251,-8.686164,-4.4777555,1.1629834,0.07456851,0.05539375,-0.004261058,11.88,21.24,11.82
1554877912271,-8.279149,-4.554370400000001,1.1677719,0.09267801,0.034088463,0.013848438000000001,11.88,21.24,11.88
1554877912292,-8.346188,-4.4538136,0.9091981,0.18002969,0.03834952,-0.026631612000000002,11.82,21.06,11.88
1554877912311,-8.192958,-4.3101616,0.46387658,0.15233281,0.058589544,-0.008522116,11.7,20.88,11.88
1554877912331,-8.298303,-4.583101,0.8086416000000001,-0.09374327,0.098004326,0.054328485999999995,11.58,20.76,11.88
1554877912351,-8.465898,-4.597466000000001,0.87089086,-0.22370553,0.12783173,0.03195793,11.46,20.64,11.82
1554877912371,-8.37013,-4.425083,0.789488,-0.2790993,0.12357068,0.033023197000000004,11.34,20.64,11.82
1554877912391,-8.810661999999999,-4.410718,0.45429978,-0.26738137,0.098004326,0.018109497,11.28,20.64,11.82
1554877912411,-8.839393,-4.3388919999999995,0.14305355,-0.38136467,0.06711166,0.07563378,11.22,20.64,11.82
1554877912431,-8.75799,-4.247912400000001,0.66498953,-0.65513766,0.051132694000000006,0.12676647,11.16,20.64,11.88
1554877912451,-8.7532015,-4.472967,0.39683893,-0.8511463,-0.0053263223,0.11504856,11.16,20.64,11.88
1554877912471,-8.738836000000001,-4.487332299999999,0.14305355,-1.0279802,-0.041545313,0.16937704,11.22,20.46,11.94
1554877912492,-8.8777,-4.520851,0.18614918,-1.1462245,-0.04474111,0.17470337,11.28,20.1,12.0
1554877912511,-9.002198,-4.2957964,0.30107087,-1.2442288000000001,-0.080960095,0.17470337,11.34,19.56,12.06
1554877912531,-8.815451,-4.4538136,0.25797522,-1.3177321000000002,-0.14168017,0.20240025,11.4,18.96,12.18
1554877912551,-8.844180999999999,-4.463390400000001,0.12389994,-1.3784522,-0.18748654,0.19068234,11.46,18.36,12.24
1554877912571,-8.796297000000001,-4.4921207,0.02813187,-1.4231933,-0.22477080000000002,0.16405073,11.52,17.64,12.24
1554877912592,-8.695741,-4.4777555,0.16220717,-1.3741912,-0.23116238,0.16618125,11.52,16.86,12.3
1554877912611,-8.590396,-4.621408,0.34895490000000007,-1.196292,-0.22370553,0.16405073,11.58,15.78,12.3
1554877912631,-8.6334915,-4.745906400000001,0.26276365,-0.9257148000000001,-0.18322548,0.15446335,11.58,14.46,12.24
1554877912651,-8.748413000000001,-4.8799815,0.08080431,-0.5933523,-0.12357068,0.17576863,11.64,13.26,12.12
1554877912672,-8.734048,-4.9135003,0.16220717,-0.18002969,-0.07243799,0.19174760000000002,11.7,12.24,11.94
1554877912691,-8.504205,-4.7123876,0.3345897,0.25246766,-0.014913702,0.17789917,11.7,11.28,11.82
1554877912711,-8.542512,-4.4538136,0.16220717,0.58269966,0.041545313,0.15126756,11.82,10.32,11.58
1554877912731,-8.714894000000001,-4.2622776,0.08080431,0.8021441,0.08735169,0.14487597,11.88,9.42,11.4
1554877912751,-8.781932000000001,-4.094683600000001,-0.091578215,0.83516735,0.08628642,0.165116,11.94,8.64,11.16
1554877912771,-8.714894000000001,-4.1138372,0.090381116,0.7755125,0.099069595,0.17896444,11.94,8.16,11.04
1554877912792,-8.571242,-4.0420110000000005,0.46387658,0.74781567,0.12463594,0.17576863,12.0,7.98,10.92
1554877912811,-8.604761,-3.9893386,0.31064767,0.86606,0.15552860000000002,0.14594123,12.0,7.98,10.86
1554877912831,-8.767567,-3.888782,0.3633201,0.99708754,0.16085494,0.12037488,12.0,8.1,10.86
1554877912851,-9.030928999999999,-3.6780925000000004,-0.12509704,1.0524813,0.15659387,0.11504856,12.0,8.4,10.86
1554877912871,-9.208099,-3.4338839999999995,-0.39803603,0.67537767,0.13422333,0.18642128,12.0,8.94,10.98
1554877912892,-9.212888000000001,-3.5440169999999998,-0.17776948,0.14913702,0.094808534,0.2428803,11.94,9.42,11.1
1554877912911,-9.260772,-3.7163997,-0.05805939,-0.12463594,0.054328485999999995,0.257794,11.94,9.72,11.16
1554877912931,-9.078813,-4.032433999999999,-0.04369418,-0.18429075,-0.03195793,0.26525086,11.82,10.5,11.4
1554877912951,-9.121908,-3.86484,-0.019752163,0.017044231,-0.06711166,0.25033715,11.76,10.98,11.52
1554877912971,-8.930372,-3.6254199000000003,-0.09636662,0.11717909,-0.060720075,0.23329292,11.76,11.4,11.64
1554877912992,-8.805874000000001,-3.4386723,0.09516951400000001,0.026631612000000002,-0.054328485999999995,0.21411815,11.76,11.64,11.7
1554877913011,-8.676587,-3.6062663,0.20530279,-0.09161274,-0.03089267,0.19920446,11.7,11.76,11.76
1554877913031,-8.652645,-3.4578260000000003,0.40162733,-0.080960095,0.008522116,0.14594123,11.7,11.7,11.76
1554877913051,-8.743625,-3.4099417,0.39683893,0.082025364,0.043675844000000005,0.10972224,11.7,11.46,11.82
1554877913071,-8.7532015,-3.3812113,0.13826515,0.2066613,0.08522116,0.09161274,11.7,11.22,11.82
1554877913091,-8.973467999999999,-3.3333273,0.3537433,0.19068234,0.13102753,0.07243799,11.7,10.98,11.82
1554877913111,-9.097966,-3.2136172999999997,0.43035775,0.14061491,0.14913702,0.049002163,11.76,10.74,11.76
1554877913131,-9.174581,-3.2040405,0.30107087,0.10333065,0.16405073,0.029827405,11.7,10.5,11.7
1554877913152,-9.337387,-3.2662897,0.25318682,0.09267801,0.17044231,0.02876214,11.7,10.32,11.64
1554877913171,-9.380483,-3.5440169999999998,0.41120413,0.19174760000000002,0.1587244,0.049002163,11.7,10.14,11.64
1554877913191,-9.390058999999999,-3.5871127,0.13347675,0.386691,0.13315806,0.06711166,11.7,10.08,11.58
1554877913211,-9.3182335,-3.2758665000000002,-0.08200141,0.45806372,0.11504856,0.05965481,11.64,10.14,11.52
1554877913231,-9.466674000000001,-3.103484,-0.05805939,0.37284255,0.10546118,0.07669904,11.64,10.14,11.52
1554877913251,-9.394848,-3.1561562999999997,-0.05805939,0.2034655,0.06285059999999999,0.101200126,11.58,10.14,11.46
1554877913271,-9.356541,-3.0172927000000005,-0.18255788,0.013848438000000001,0.004261058,0.08948222,11.52,10.26,11.52
1554877913292,-9.26556,-3.127426,-0.024540568,-0.018109497,-0.034088463,0.083090626,11.4,10.32,11.64
1554877913311,-9.184157,-3.117849,0.109534726,-0.013848438000000001,-0.046871635999999994,0.06178534,11.28,10.32,11.7
1554877913331,-9.050082000000002,-3.1082723,0.047285482000000004,-0.025566347000000003,-0.05219796,0.047936900000000005,11.16,10.38,11.76
1554877913352,-9.021352,-3.151368,0.15263036,-0.06498113,-0.05965481,0.033023197000000004,11.04,10.44,11.82
1554877913371,-8.954314,-3.1753099999999996,0.31064767,-0.06924219,-0.05219796,0.01917476,10.98,10.5,11.88
1554877913391,-8.781932000000001,-3.093907,0.5069722,-0.11504856,0.0063915867,0.008522116,10.92,10.68,11.94
1554877913412,-9.270349000000001,-3.1322143,0.3824737,-0.09374327,0.007456851,-0.01917476,11.04,10.92,11.94
1554877913431,-9.165004,-3.4051532999999994,0.17178397,0.101200126,0.017044231,0.06285059999999999,11.16,11.22,11.94
1554877913451,-9.088389,-3.2279825,0.032920275,0.23755397,0.04580637,0.03195793,11.4,11.58,11.94
1554877913471,-9.346964,-2.8880057,0.037708677,0.26525086,0.07137272,0.026631612000000002,11.58,11.88,11.88
1554877913491,-9.246407000000001,-2.8113914,-0.15382746,0.13848437,0.049002163,0.058589544,11.76,12.18,11.88
1554877913512,-9.394848,-2.7347770000000002,-0.110731825,-0.07243799,0.06178534,0.07243799,11.94,12.48,11.88
1554877913532,-9.351752000000001,-2.629432,-0.35494040000000004,-0.30360037,0.035153727999999995,0.098004326,12.06,12.78,11.94
1554877913551,-9.303867,-2.3277626000000002,-0.32621,-0.567786,0.004261058,0.12463594,12.12,13.02,11.94
1554877913571,-9.097966,-2.3852234,-0.17298107,-0.8724516,-0.046871635999999994,0.09587380000000001,12.06,13.02,11.94
1554877913591,-9.165004,-2.629432,0.02813187,-1.1227888000000001,-0.09587380000000001,0.02876214,11.94,12.9,12.0
1554877913612,-9.14585,-2.5192987999999996,0.12868834,-1.3273195,-0.15020229,-0.033023197000000004,11.82,12.6,12.0
1554877913632,-9.078813,-2.4091654,-0.14425065,-1.5520903,-0.1768339,-0.08841695,11.76,12.24,12.0
1554877913652,-9.56723,-2.6102784,-0.39803603,-1.6660736,-0.1768339,-0.12463594,11.7,11.76,12.0
1554877913672,-9.437942999999999,-3.6733038000000002,-0.36930559999999996,-1.5201323999999998,-0.18002969,-0.13315806,11.7,11.16,11.94
1554877913692,-9.155427,-4.233547,-0.12988544,-1.1909657,-0.16831179,-0.12037488,11.76,10.44,11.88
1554877913711,-9.289502,-3.9606082000000002,-0.23044191,-0.8127968000000001,-0.14594123,-0.10546118,11.82,9.6,11.76
1554877913732,-9.361329,-3.7211879999999997,-0.4842273,-0.60933125,-0.12570119999999999,-0.054328485999999995,11.88,8.7,11.64
1554877913752,-9.260772,-3.6685154000000004,-0.17298107,-0.59228706,-0.12463594,-0.017044231,12.0,7.8,11.4
1554877913771,-9.461885,-3.9223008000000004,0.29149407,-0.36005938,-0.11504856,-0.002130529,12.06,7.02,11.16
1554877913792,-9.332599,-3.7882257000000004,0.19093758,0.04474111,-0.10226539,0.0,12.18,6.3,10.86
1554877913812,-9.212888000000001,-3.6206315000000004,-0.0005985504,0.36325517,-0.080960095,0.018109497,12.3,5.64,10.56
1554877913831,-9.208099,-3.5392287000000002,-0.17776948,0.47404268,-0.029827405,0.017044231,12.42,5.1,10.26
1554877913852,-9.093178,-3.256713,-0.19692309,0.48363006,-0.00958738,0.0063915867,12.54,4.74,10.02
1554877913872,-9.045294,-3.3716345000000003,-0.09636662,0.60933125,0.013848438000000001,0.033023197000000004,12.66,4.5,9.78
1554877913891,-9.002198,-3.2375592999999996,-0.17776948,0.74461985,0.025566347000000003,0.043675844000000005,12.78,4.32,9.6
1554877913912,-8.848969,-3.0172927000000005,-0.17776948,0.8064051999999999,0.053263225,0.04474111,12.96,4.26,9.48
1554877913932,-8.8777,-2.9837740000000004,-0.31184477,0.7552725,0.07456851,0.046871635999999994,13.08,4.26,9.42
1554877913952,-9.011775,-2.8880057,-0.42676646,0.60720074,0.1107875,0.03195793,13.14,4.32,9.48
1554877913971,-9.404425,-2.7347770000000002,-0.29747957,0.5251754,0.113983296,0.02130529,13.26,4.44,9.54
1554877913991,-9.390058999999999,-2.902371,-0.53689975,0.5539375,0.08841695,0.06711166,13.26,4.74,9.66
1554877914012,-9.581595,-2.8496985,-0.42676646,0.5613944000000001,0.054328485999999995,0.041545313,13.2,5.16,9.84
1554877914031,-9.327810000000001,-2.7922377999999997,-0.22086509999999998,0.46232477,0.023435817999999997,0.024501082,13.14,5.52,10.02
1554877914051,-9.299078999999999,-2.5959132,-0.048482585999999994,0.33981937,0.013848438000000001,0.015978966,13.14,5.94,10.14
1554877914071,-9.346964,-2.4331074,0.032920275,0.22477080000000002,-0.004261058,-0.03089267,13.08,6.36,10.32
1554877914091,-9.323022,-2.5384523999999997,0.0712275,0.11717909,-0.020240024,-0.027696876000000002,12.96,6.84,10.5
1554877914112,-9.327810000000001,-2.6868927000000005,-0.30705637,-0.040480047000000005,-0.025566347000000003,-0.049002163,12.9,7.26,10.62
1554877914133,-9.370906,-2.7730842,-0.15861586,-0.221575,-0.027696876000000002,-0.04261058,12.84,7.56,10.68
1554877914151,-9.093178,-3.208829,0.28670564,-0.2428803,-0.040480047000000005,-0.035153727999999995,12.78,7.86,10.68
1554877914172,-9.208099,-3.0603882999999996,-0.02932897,-0.06285059999999999,-0.060720075,-0.056459017,12.72,8.16,10.86
1554877914191,-9.035717,-2.8449101000000003,-0.14425065,-0.07456851,-0.020240024,-0.04261058,12.6,8.4,10.92
1554877914211,-9.255983,-2.7682957999999998,0.13826515,-0.24181503,0.03195793,-0.046871635999999994,12.54,8.52,10.98
1554877914232,-9.385271000000001,-3.0891187,0.05686229,-0.29933932,0.03089267,-0.05752428,12.48,8.58,10.98
1554877914252,-9.471461999999999,-3.1896752999999998,0.10474633,-0.13102753,0.02876214,-0.06391586,12.48,8.52,11.04
1554877914272,-9.447519999999999,-3.1561562999999997,-0.05805939,0.15233281,0.004261058,-0.046871635999999994,12.48,8.4,11.1
1554877914292,-9.414000999999999,-3.0651767000000003,-0.19213470000000002,0.25992453,-0.010652645,-0.026631612000000002,12.54,8.22,11.1
1554877914312,-9.270349000000001,-2.7635074,-0.3357868,0.060720075,-0.02130529,-0.0063915867,12.54,8.04,11.04
1554877914331,-9.251195,-2.926313,-0.22565351,-0.1107875,-0.025566347000000003,0.012783173500000002,12.54,7.8,10.92
1554877914351,-9.294291000000001,-3.0891187,-0.110731825,-0.13954964,-0.047936900000000005,0.040480047000000005,12.54,7.62,10.86
1554877914372,-9.303867,-2.9406781000000004,-0.17298107,-0.022370555,-0.041545313,0.051132694000000006,12.48,7.5,10.74
1554877914392,-9.006986999999999,-2.830545,-0.12988544,0.020240024,-0.043675844000000005,0.07030745599999999,12.48,7.5,10.68
1554877914412,-9.279925,-2.7539306,-0.11552023,-0.026631612000000002,-0.056459017,0.03089267,12.48,7.56,10.62
1554877914432,-9.035717,-2.9981391,-0.35494040000000004,-0.08841695,-0.06711166,0.022370555,12.42,7.62,10.56
1554877914451,-9.083601,-2.8975825,-0.38845924,-0.18855181,-0.047936900000000005,0.007456851,12.36,7.62,10.56
1554877914471,-9.3421755,-3.2375592999999996,-0.3597288,-0.28655612,-0.040480047000000005,-0.01917476,12.3,7.62,10.5
1554877914491,-9.3421755,-3.256713,-0.038905777,-0.24820662,-0.053263225,-0.022370555,12.24,7.56,10.56
1554877914512,-9.356541,-3.141791,0.09995792,-0.15765914,-0.056459017,-0.051132694000000006,12.18,7.5,10.56
1554877914532,-9.399636,-3.0699651,0.29149407,-0.058589544,-0.049002163,-0.035153727999999995,12.12,7.38,10.5
1554877914552,-9.346964,-3.2231941,0.12389994,0.06498113,-0.036218993,-0.024501082,12.12,7.32,10.5
1554877914572,-9.361329,-2.8927941,0.25797522,0.14274544,-0.0063915867,-0.02130529,12.06,7.2,10.5
1554877914592,-9.308656,-2.8496985,0.20051439,0.12676647,0.004261058,-0.015978966,12.06,7.14,10.44
1554877914612,-9.390058999999999,-2.9981391,0.12389994,0.1470065,-0.0053263223,-0.017044231,12.12,7.08,10.44
1554877914632,-9.332599,-3.0172927000000005,0.19572599,0.25353295,-0.02130529,-0.002130529,12.24,7.14,10.44
1554877914652,-9.279925,-2.8975825,0.25797522,0.32810146,-0.022370555,-0.002130529,12.36,7.14,10.44
1554877914672,-9.327810000000001,-2.7204118,0.20530279,0.2876214,-0.0010652645,-0.007456851,12.54,7.14,10.44
1554877914692,-9.3661175,-2.6964695,0.17178397,0.07882957,-0.04474111,-0.011717908999999999,12.66,7.14,10.44
1554877914712,-9.629479,-2.8592752999999997,0.17657238,-0.17150758,-0.07350325,-0.037284255,12.78,7.14,10.44
1554877914732,-9.591172,-3.1082723,0.65062433,-0.2034655,-0.09267801,-0.039414786,12.9,7.2,10.5
1554877914751,-9.433155000000001,-3.0651767000000003,0.789488,0.018109497,-0.10333065,-0.083090626,12.9,7.2,10.5
1554877914772,-9.26556,-2.6964695,0.64583594,0.14913702,-0.09587380000000001,-0.11824436,12.9,7.26,10.5
1554877914793,-9.351752000000001,-2.6725276,0.38726214,0.023435817999999997,-0.096939065,-0.15446335,12.9,7.26,10.56
1554877914813,-9.586383999999999,-2.7491422,0.29149407,-0.27377295,-0.13741912,-0.2034655,12.78,7.32,10.5
1554877914831,-9.667786999999999,-3.0747535,0.21009120000000003,-0.31851408,-0.20026971,-0.23435818,12.72,7.38,10.5
1554877914852,-9.648633,-3.2615013,0.17178397,-0.3206446,-0.26418558,-0.29614353,12.72,7.38,10.5
1554877914874,-9.394848,-3.4578260000000003,0.109534726,-0.45912898,-0.34621096,-0.3749731,12.66,7.38,10.5
1554877914891,-9.279925,-3.5679589999999997,0.5165489999999999,-0.55074173,-0.37816888,-0.41225734,12.66,7.32,10.44
1554877914911,-9.016563,-3.8504747999999998,1.110311,-0.4857606,-0.36325517,-0.48682585,12.66,7.26,10.38
1554877914931,-9.121908,-4.156933,1.4024036,-0.13315806,-0.32277513,-0.5400891,12.78,7.2,10.26
1554877914951,-9.260772,-4.204817,1.3162124,0.38775626,-0.22583607,-0.5475459,12.9,7.08,10.08
1554877914971,-9.390058999999999,-4.0420110000000005,0.9283517,0.8042746999999999,-0.11717909,-0.49747851,13.08,7.02,9.96
1554877914992,-9.356541,-3.9797617999999995,0.86610246,1.0439591000000001,-0.06391586,-0.43782368,13.2,6.96,9.78
1554877915012,-9.3182335,-4.209605000000001,0.87567925,1.1025486999999998,-0.06711166,-0.4048005,13.38,7.08,9.66
1554877915031,-9.619903,-4.324527,1.0049661,1.196292,-0.06498113,-0.37923414,13.5,7.44,9.54
1554877915052,-9.639056,-3.9223008000000004,1.3210008,1.3550163999999998,-0.03834952,-0.32384038,13.62,8.04,9.42
1554877915072,-9.591172,-3.6445735,0.9379284999999999,1.4274544,-0.02876214,-0.24820662,13.8,8.7,9.42
1554877915092,-9.739613,-3.5440169999999998,0.98102415,1.3432984,0.004261058,-0.14807177,13.8,9.6,9.42
1554877915112,-9.682152,-3.3141737,0.66020113,1.2239889,0.004261058,-0.10972224,13.8,10.56,9.48
1554877915132,-9.495403999999999,-3.2184057,0.21487960000000003,1.0088054,-0.017044231,-0.09587380000000001,13.8,11.64,9.48
1554877915152,-9.193734,-3.4195184999999997,-0.13467385,0.71585774,-0.068176925,-0.035153727999999995,13.8,12.96,9.54
1554877915172,-9.035717,-3.4721910000000005,-0.5847838000000001,0.5432849000000001,-0.10333065,0.07563378,13.86,14.16,9.6
1554877915191,-8.7771435,-3.3476925000000004,-0.3597288,0.5400891,-0.13954964,0.12250541,13.92,15.18,9.66
1554877915212,-8.322245,-2.8975825,-0.024540568,0.57417756,-0.19068234,0.1587244,13.92,15.9,9.84
1554877915232,-8.1402855,-2.6533740000000003,0.40641573,0.44847634,-0.16618125,0.15233281,13.92,16.62,9.9
1554877915252,-8.240842,-2.8018146,1.0959458,0.24394555,-0.22903186,0.09267801,13.98,17.22,10.02
1554877915272,-8.001422,-3.3237504999999996,0.6362591,0.10972224,-0.29507825,0.080960095,14.04,17.7,10.14
1554877915292,-7.8290396,-3.5679589999999997,0.46866497,0.041545313,-0.24714136,0.15552860000000002,14.1,18.06,10.26
1554877915311,-8.058883,-3.9031472000000003,0.9427169,0.023435817999999997,-0.18748654,0.20559604,14.16,18.24,10.2
1554877915331,-7.9487495,-3.9989154,1.3066356000000001,0.128897,-0.13315806,0.23435818,14.28,18.36,10.26
1554877915352,-8.355764,-3.8073792,1.8142063999999998,0.31957933,0.011717908999999999,0.29188246,14.34,18.48,10.14
1554877915371,-8.604761,-3.2040405,1.9195513,0.5422196,0.1438107,0.38882150000000004,14.46,18.66,9.96
1554877915392,-8.647857,-2.7539306,2.0440497,0.7776430000000001,0.27057716,0.5230448000000001,14.58,18.78,9.78
1554877915411,-8.513782,-2.3852234,2.0201077,1.0034790999999998,0.38562572,0.64341974,14.7,18.96,9.66
1554877915432,-8.413225,-2.1984756,2.178125,1.1920309,0.48149952,0.6870956,14.76,19.08,9.48
1554877915451,-8.537724,-1.8393455,2.2260091,1.2623383999999997,0.5837649,0.6870956,14.76,19.14,9.42
1554877915471,-8.432379,-1.762731,2.1110873,1.2112056999999998,0.63383234,0.6828345,14.76,19.26,9.42
1554877915492,-8.197746,-1.6909049999999999,2.0488381,1.1057445,0.67005134,0.6221144000000001,14.76,19.38,9.42
1554877915511,-8.226477000000001,-1.6430208999999998,1.6801311,0.9139969000000001,0.6956177,0.45273739999999996,14.7,19.44,9.48
1554877915531,-8.8777,-1.4802152,1.6035166,0.50600064,0.73822826,0.26738137,14.64,19.56,9.54
1554877915552,-9.275136999999999,-1.417966,1.6178818000000001,0.058589544,0.71159667,0.15978967,14.52,19.74,9.6
1554877915572,-9.428367,-1.3317747,1.2970588,-0.18748654,0.6849651,0.11824436,14.28,19.92,9.72
1554877915592,-9.595961,-1.5328877,1.287482,-0.36112466,0.61678815,0.036218993,14.04,20.1,9.9
1554877915612,-9.725247,-1.7818846999999998,1.0384849,-0.43569317,0.5496765,-0.07882957,13.74,20.28,10.02
1554877915632,-9.950302,-2.1266496,0.83737206,-0.49534798,0.4250405,-0.22583607,13.38,20.46,10.5
1554877915652,-10.065224,-2.2942438,0.8182184,-0.57311225,0.36112466,-0.29188246,13.26,20.46,10.68
1554877915671,-9.998186,-2.4570496,0.44951138,-0.7669904000000001,0.257794,-0.3323625,12.96,20.46,11.04
1554877915691,-9.931149000000001,-2.8832173,0.8230068000000001,-0.9054747999999999,0.18002969,-0.34301516,12.72,20.28,11.4
1554877915712,-9.830592,-3.0172927000000005,1.2539631000000002,-0.6199839,0.12463594,-0.28229508,12.48,19.92,11.88
1554877915732,-9.528922999999999,-3.0029275,0.7032967,-0.16298546,0.08735169,-0.15978967,12.42,19.62,12.12
1554877915752,-9.222465,-2.9789855,0.9379284999999999,0.17789917,0.13848437,-0.07563378,12.36,19.26,12.36
1554877915772,-9.222465,-3.1657330000000004,0.7942764,0.50387007,0.14487597,-0.07563378,12.36,18.84,12.48
1554877915791,-8.954314,-2.9406781000000004,0.9091981,0.8490158000000001,0.22370553,-0.080960095,12.3,18.48,12.48
1554877915811,-9.346964,-2.6964695,0.87567925,1.0599382,0.31318775,-0.07243799,12.24,18.24,12.42
1554877915832,-9.715671,-2.5049335999999998,0.57400984,1.1792477,0.3568636,-0.013848438000000001,12.12,18.06,12.42
1554877915852,-9.562441999999999,-2.5959132,0.44472298,1.1707256000000001,0.36112466,0.043675844000000005,11.94,18.12,12.42
1554877915871,-9.509769,-2.7012582000000003,-0.014963761,1.144094,0.32384038,0.03089267,11.7,18.3,12.42
1554877915893,-9.504980999999999,-2.4331074,0.037708677,1.0759171,0.2695119,0.004261058,11.52,18.72,12.36
1554877915912,-9.710882000000002,-2.3038206000000003,0.008978256,0.97897804,0.20559604,-0.0010652645,11.34,19.5,12.42
1554877915932,-9.916783,-2.4905684,0.032920275,0.9086706,0.11611383,0.05965481,11.1,20.28,12.54
1554877915952,-9.77792,-2.6677392,0.12868834,0.9502159,0.03089267,0.07456851,10.92,21.12,12.66
1554877915972,-9.586383999999999,-2.3181857999999997,0.26276365,1.0503508,-0.033023197000000004,0.07137272,10.8,22.02,12.72
1554877915991,-9.610325999999999,-1.7818846999999998,0.42078096,0.9832390999999999,-0.060720075,0.027696876000000002,10.56,22.86,12.84
1554877916013,-9.5385,-1.6478093,0.55006784,0.8298409999999999,-0.07669904,0.07669904,10.44,23.64,12.9
1554877916031,-9.56723,-1.8441339,1.0049661,0.7190535,-0.068176925,0.15233281,10.32,24.36,12.96
1554877916051,-9.428367,-1.9111716,1.0528502,0.69774824,-0.029827405,0.1470065,10.2,24.9,13.08
1554877916072,-9.23683,-1.6382325,1.1150993999999999,0.72011876,0.056459017,0.099069595,10.08,25.44,13.08
1554877916091,-9.346964,-1.5185224,1.1677719,0.74781567,0.11930962,0.07776430000000001,9.96,25.98,13.08
1554877916111,-9.332599,-1.4562732,0.86610246,0.72651035,0.14594123,0.09267801,9.84,26.52,13.08
1554877916131,-9.294291000000001,-1.5903485000000002,0.5835866999999999,0.67218184,0.1587244,0.07563378,9.78,27.06,13.08
1554877916151,-9.289502,-1.4227544,0.46866497,0.5305017,0.15339808,-0.011717908999999999,9.78,27.6,13.08
1554877916172,-9.428367,-1.3988123,0.31064767,0.3323625,0.15446335,-0.07882957,9.78,28.2,13.08
1554877916192,-9.399636,-1.4802152,0.09516951400000001,0.07456851,0.14168017,-0.10333065,9.84,28.8,13.02
1554877916212,-9.327810000000001,-1.4754268,0.31543607,-0.16085494,0.14061491,-0.113983296,9.84,29.28,13.02
1554877916232,-9.461885,-1.5711948999999998,0.24839842,-0.30892670000000005,0.1438107,-0.15126756,9.84,29.64,13.08
1554877916252,-9.734824,-1.6861166,0.3441665,-0.37390783,0.15020229,-0.17044231,9.9,29.94,13.08
1554877916272,-9.787497,-2.0165164,0.53570265,-0.34834146,0.14487597,-0.15765914,9.84,30.24,13.08
1554877916292,-9.763555,-2.1170728,0.30107087,-0.25246766,0.13102753,-0.13422333,9.78,30.42,13.08
1554877916312,-9.619903,-2.0117279999999997,0.26276365,-0.15020229,0.13954964,-0.11717909,9.6,30.6,13.14
1554877916331,-9.672575,-1.8489223000000001,0.3585317,-0.06711166,0.12676647,-0.09054748,9.3,30.66,13.14
1554877916352,-9.610325999999999,-2.0165164,0.15741876,-0.03834952,0.07030745599999999,-0.026631612000000002,9.06,30.66,13.2
1554877916372,-9.562441999999999,-1.8872293999999998,0.19572599,0.047936900000000005,0.053263225,-0.018109497,8.82,30.66,13.26
1554877916391,-9.753978,-1.8776526000000002,0.11432313,0.14807177,0.036218993,-0.041545313,8.64,30.54,13.26
1554877916411,-9.753978,-1.7196354,0.31064767,0.17896444,0.047936900000000005,-0.03089267,8.46,30.36,13.26
1554877916433,-9.907207000000001,-1.5520413,0.48303019999999997,0.15552860000000002,0.06178534,-0.039414786,8.34,30.24,13.32
1554877916452,-9.979032499999999,-1.8489223000000001,0.54049104,0.113983296,0.053263225,0.013848438000000001,8.28,30.12,13.32
1554877916472,-9.586383999999999,-2.083554,0.717662,0.049002163,0.06604639400000001,0.053263225,8.34,30.0,13.38
1554877916492,-9.56723,-2.0931308,0.53570265,0.011717908999999999,0.054328485999999995,0.041545313,8.46,29.88,13.38
1554877916512,-9.227253,-2.2511482000000003,0.46387658,0.018109497,0.027696876000000002,0.084155895,8.58,29.82,13.38
1554877916532,-9.193734,-2.3038206000000003,0.0041898529999999995,0.09267801,0.0031957934000000003,0.034088463,8.7,29.76,13.44
1554877916551,-9.126697,-2.2798786,0.14305355,0.1438107,0.017044231,0.015978966,8.7,29.82,13.44
1554877916571,-9.246407000000001,-2.107496,0.0041898529999999995,0.1768339,0.035153727999999995,0.0063915867,8.76,29.88,13.44
1554877916592,-9.500193,-2.1649568,0.23403321,0.23968449999999997,0.06924219,0.02130529,8.76,30.0,13.44
1554877916613,-9.485827,-2.2080526000000003,0.14784196,0.43462790000000007,0.08948222,-0.00958738,8.7,30.12,13.38
1554877916633,-9.595961,-2.236783,0.14305355,0.74675035,0.09054748,-0.015978966,8.64,30.18,13.32
1554877916651,-9.552864999999999,-1.9063831999999998,0.05207389,1.0684601999999999,0.07989483,-0.035153727999999995,8.58,30.36,13.32
1554877916671,-9.911995,-1.7340006000000001,-0.019752163,1.2410331000000001,0.05006743,-0.07669904,8.58,30.66,13.2
1554877916691,-9.950302,-1.513734,0.18136078,1.220793,0.0,-0.053263225,8.52,31.02,13.2
1554877916712,-10.031705,-1.1019313,-0.47465047,1.0748518999999999,-0.056459017,-0.027696876000000002,8.4,31.56,13.14
1554877916733,-9.854534,-0.9487024,-0.38367084,0.721184,-0.12676647,-0.002130529,8.28,32.22,13.08
1554877916752,-9.691728999999999,-0.7858967,-0.06284779,0.19281286,-0.20985709,-0.013848438000000001,8.16,32.82,13.02
1554877916772,-9.595961,-1.1402385,-0.024540568,-0.5603291,-0.30253512,-0.08628642,8.1,33.48,12.96
1554877916791,-9.370906,-1.4562732,0.56443304,-0.85540736,-0.34514567,-0.11824436,8.16,34.08,12.96
1554877916811,-9.284714,-1.8776526000000002,0.74639237,-1.010936,-0.35899413,-0.20240025,8.22,34.62,12.9
1554877916832,-9.141062,-2.0691888,0.99538934,-1.010936,-0.34940675,-0.28016454,8.34,34.98,12.84
1554877916853,-9.198523,-2.3852234,0.86610246,-1.0098706,-0.33981937,-0.26205507,8.46,35.16,12.84
1554877916871,-9.246407000000001,-2.7922377999999997,0.9283517,-0.9576728000000001,-0.28655612,-0.221575,8.7,34.98,12.84
1554877916891,-9.385271000000001,-2.8688521000000002,1.2970588,-0.77125144,-0.18429075,-0.221575,8.88,34.56,12.84
1554877916911,-9.552864999999999,-2.8449101000000003,1.5364790000000002,-0.28868666,-0.08735169,-0.18002969,9.06,33.96,12.84
1554877916931,-9.404425,-2.6916811000000003,1.2826935,0.14487597,-0.01917476,-0.12783173,9.18,33.36,12.9
1554877916953,-9.576807,-2.5001452,1.1965023000000001,0.39734364,0.029827405,-0.10439592,9.3,32.76,12.96
1554877916971,-9.557653,-2.3660697999999996,1.1007341999999998,0.49641323,0.04261058,-0.06498113,9.36,32.16,12.96
1554877916991,-9.457097000000001,-2.1362264,0.6027403,0.31318775,0.010652645,-0.011717908999999999,9.42,31.68,13.02
1554877917011,-9.385271000000001,-1.9111716,0.48303019999999997,-0.025566347000000003,-0.004261058,-0.012783173500000002,9.48,31.38,13.02
1554877917031,-9.629479,-2.03567,0.75118077,-0.31318775,0.0031957934000000003,-0.0063915867,9.36,31.38,13.02
1554877917052,-9.466674000000001,-2.3038206000000003,1.0289081,-0.39095205,0.0031957934000000003,0.034088463,9.24,31.44,12.96
1554877917071,-9.356541,-2.4091654,1.0241197,-0.20453078,0.0053263223,0.023435817999999997,9.12,31.68,12.96
1554877917091,-9.524135000000001,-2.4426842,0.8230068000000001,0.12570119999999999,0.034088463,-0.0063915867,9.06,31.98,12.9
1554877917111,-9.639056,-2.332551,0.66498953,0.37284255,0.04474111,-0.00958738,8.94,32.04,12.9
1554877917132,-9.634267999999999,-2.3373394,0.5165489999999999,0.51984906,0.033023197000000004,0.00958738,8.76,32.04,12.84
1554877917151,-9.619903,-2.2655133999999997,0.43514615,0.6199839,0.029827405,0.01917476,8.58,32.04,12.84
1554877917172,-9.490616000000001,-2.0691888,0.44951138,0.63383234,0.025566347000000003,0.034088463,8.52,31.98,12.78
1554877917191,-9.471461999999999,-2.0260932,0.6889314999999999,0.59228706,0.0010652645,0.04261058,8.58,31.86,12.78
1554877917212,-9.323022,-1.7818846999999998,0.6075286999999999,0.49108690000000005,-0.033023197000000004,0.043675844000000005,8.64,31.92,12.78
1554877917232,-9.303867,-1.7292121999999999,0.76554596,0.32810146,-0.07350325,0.02130529,8.76,32.16,12.72
1554877917251,-9.370906,-1.8776526000000002,0.75118077,0.09267801,-0.06178534,0.01917476,8.82,32.4,12.72
1554877917272,-9.188946000000001,-2.1410147999999998,1.359308,-0.12250541,-0.056459017,0.027696876000000002,8.88,32.82,12.66
1554877917292,-9.399636,-2.2990322,1.110311,-0.036218993,-0.03089267,-0.03089267,8.94,33.24,12.66
1554877917312,-9.437942999999999,-2.107496,1.0384849,0.20453078,-0.0053263223,-0.04261058,9.0,33.66,12.6
1554877917332,-9.346964,-1.9734207,0.6697779,0.3653857,0.0063915867,-0.035153727999999995,9.06,34.02,12.54
1554877917352,-9.428367,-2.1888987999999996,0.741604,0.42184472,0.014913702,-0.0063915867,9.06,34.38,12.48
1554877917372,-9.447519999999999,-2.1601684,0.7272388000000001,0.41225734,0.008522116,0.020240024,9.06,34.56,12.42
1554877917391,-9.548077000000001,-2.0213048,0.65541273,0.37071204,-0.0010652645,0.025566347000000003,9.0,34.56,12.36
1554877917411,-9.720459,-1.8776526000000002,0.8182184,0.27057716,-0.01917476,0.051132694000000006,9.0,34.62,12.36
1554877917432,-9.749189,-1.9782091,1.1294646000000002,0.10013486,-0.04261058,0.084155895,9.06,34.74,12.3
1554877917452,-9.667786999999999,-2.203264,1.3784616000000003,0.14913702,-0.035153727999999995,0.08522116,9.12,34.98,12.24
1554877917472,-9.500193,-2.0452468,1.287482,0.34301516,-0.0063915867,0.07137272,9.18,35.22,12.18
1554877917492,-9.437942999999999,-1.6909049999999999,1.1198878,0.47723848,0.0063915867,0.06604639400000001,9.24,35.4,12.18
1554877917512,-9.332599,-1.5089456,0.789488,0.4165184,0.0053263223,0.068176925,9.3,35.58,12.12
1554877917532,-9.121908,-1.5807717,0.7942764,0.19707392,-0.008522116,0.084155895,9.3,35.82,12.06
1554877917552,-9.299078999999999,-1.6430208999999998,0.9091981,-0.06711166,-0.020240024,0.07350325,9.36,36.06,11.94
1554877917572,-9.227253,-1.5472529,0.99060094,-0.20026971,-0.043675844000000005,0.018109497,9.42,36.24,11.82
1554877917591,-9.361329,-1.3748703000000002,1.1438298,-0.28229508,-0.017044231,-0.013848438000000001,9.42,36.36,11.76
1554877917611,-9.428367,-1.4562732,0.99538934,-0.35260254,-0.012783173500000002,-0.013848438000000001,9.42,36.36,11.64
1554877917632,-9.619903,-1.7483658,1.0720038,-0.35260254,-0.014913702,-0.017044231,9.42,36.3,11.58
1554877917652,-9.643844999999999,-2.0117279999999997,1.0767921999999999,-0.2876214,-0.0031957934000000003,-0.0053263223,9.36,36.3,11.46
