TimeStamp,Ax,Ay,Az,Gx,Gy,Gz,Mx,My,Mz
1554206116426,-8.303091,-0.7858967,4.759074,0.04474111,-0.002130529,-0.051132694000000006,105.06,24.96,-1.02
1554206116446,-8.379706,-0.87687635,4.8069587,0.05006743,0.0,-0.05219796,105.06,24.96,-1.08
1554206116466,-8.432379,-0.8098387,4.8500543,0.07669904,0.011717908999999999,-0.046871635999999994,105.0,24.96,-1.08
1554206116485,-8.437167,-0.84335756,4.6441526,0.08948222,0.02130529,-0.033023197000000004,105.0,24.96,-1.08
1554206116505,-8.350976,-0.83378077,4.6680946,0.09374327,0.025566347000000003,-0.018109497,104.94,24.96,-1.08
1554206116526,-8.576031,-0.8050503000000001,4.759074,0.101200126,0.025566347000000003,-0.011717908999999999,104.88,24.9,-1.14
1554206116546,-8.379706,-0.88645315,4.601057,0.08628642,0.00958738,0.02130529,104.82,24.9,-1.2
1554206116566,-8.394072,-0.6087258000000001,4.687248,0.13315806,-0.0010652645,-0.014913702,104.82,24.9,-1.26
1554206116586,-8.379706,-0.57999533,4.553173,0.113983296,-0.0063915867,-0.023435817999999997,104.82,24.9,-1.38
1554206116607,-8.39886,-0.52253455,4.5196543,0.043675844000000005,-0.0010652645,-0.010652645,104.82,24.84,-1.44
1554206116627,-8.346188,-0.5847838000000001,4.6920366,-0.06711166,0.012783173500000002,0.008522116,104.88,24.78,-1.5
1554206116647,-8.283937,-0.6422445999999999,4.6154222,-0.12250541,0.024501082,-0.0053263223,104.88,24.78,-1.56
1554206116665,-8.312667999999999,-0.7954735,4.744708999999999,-0.08735169,0.027696876000000002,-0.05006743,104.94,24.72,-1.62
1554206116685,-8.437167,-1.0109516,4.869208,0.024501082,0.024501082,-0.07776430000000001,105.12,24.72,-1.68
1554206116706,-8.427589999999999,-0.83856916,4.687248,0.14487597,0.007456851,-0.07776430000000001,105.24,24.66,-1.68
1554206116726,-8.437167,-0.623091,4.4286747,0.18322548,-0.010652645,-0.05539375,105.36,24.66,-1.68
1554206116746,-8.461109,-0.53211135,4.2850223,0.07776430000000001,-0.027696876000000002,-0.024501082,105.48,24.6,-1.68
1554206116766,-8.384495,-0.53689975,4.4382515,-0.03089267,-0.034088463,-0.01917476,105.54,24.6,-1.68
1554206116786,-8.346188,-0.56563014,4.6202106,-0.13528858,-0.02876214,-0.029827405,105.66,24.6,-1.74
1554206116806,-8.346188,-0.5943606,4.687248,-0.18322548,-0.034088463,-0.047936900000000005,105.72,24.6,-1.74
1554206116825,-8.360553,-0.7188591,4.8165355000000005,-0.17150758,-0.036218993,-0.05752428,105.78,24.66,-1.74
1554206116845,-8.312667999999999,-0.95827925,4.988918,-0.13741912,-0.020240024,-0.06178534,105.72,24.72,-1.8
1554206116865,-8.355764,-0.85293436,4.8500543,-0.10972224,-0.0031957934000000003,-0.05219796,105.72,24.78,-1.8
1554206116886,-8.418014,-0.95827925,4.7925935,-0.06924219,0.017044231,-0.041545313,105.66,24.84,-1.8
1554206116905,-8.331821000000001,-0.83378077,4.888361499999999,-0.07243799,0.033023197000000004,-0.036218993,105.6,24.9,-1.8
1554206116926,-8.37013,-0.9056068000000002,4.5723267,-0.07776430000000001,0.046871635999999994,-0.02876214,105.54,24.96,-1.8
1554206116946,-8.446744,-0.8146270999999999,4.854842700000001,-0.080960095,0.04474111,-0.026631612000000002,105.42,25.02,-1.8
1554206116966,-8.288725999999999,-0.9199719999999999,4.8452660000000005,-0.06604639400000001,0.04261058,-0.039414786,105.36,25.02,-1.74
1554206116985,-8.346188,-0.96306765,5.027225,-0.013848438000000001,0.046871635999999994,-0.037284255,105.3,25.02,-1.74
1554206117005,-8.374918,-0.9103952,4.8787847,0.05752428,0.05752428,-0.025566347000000003,105.18,24.96,-1.74
1554206117025,-8.331821000000001,-0.7954735,4.9027267,0.13528858,0.060720075,-0.026631612000000002,105.12,24.9,-1.68
1554206117047,-8.269572,-0.7428011,5.065532,0.16085494,0.07882957,-0.025566347000000003,105.12,24.84,-1.68
1554206117067,-8.451532,-0.7188591,5.122993,0.1438107,0.10759171,-0.02130529,105.12,24.78,-1.68
1554206117087,-8.710106,-0.7332243,4.926668599999999,0.13102753,0.15446335,-0.010652645,105.12,24.72,-1.62
1554206117107,-8.628703,-0.82899237,4.706402,0.10546118,0.165116,0.018109497,105.18,24.72,-1.56
1554206117126,-8.590396,-0.7332243,4.500500700000001,0.07030745599999999,0.15233281,0.022370555,105.18,24.72,-1.5
1554206117146,-8.508992999999998,-0.55605334,4.2945995,0.018109497,0.10652645,0.007456851,105.24,24.66,-1.44
1554206117166,-8.51857,-0.42676646,4.3568487000000005,-0.07669904,0.06285059999999999,0.008522116,105.18,24.66,-1.38
1554206117186,-8.762777999999999,-0.43634325,4.3568487000000005,-0.22796659,-0.012783173500000002,0.00958738,105.18,24.66,-1.32
1554206117206,-8.7053175,-0.4842273,4.56275,-0.38242993,-0.09161274,-0.020240024,105.18,24.66,-1.32
1554206117225,-8.667010000000001,-0.6374562,4.5100775,-0.49534798,-0.1438107,-0.053263225,105.12,24.6,-1.26
1554206117245,-8.695741,-0.56563014,4.6393642,-0.5411543000000001,-0.19600865,-0.05965481,105.12,24.6,-1.26
1554206117266,-8.690952000000001,-0.7332243,4.6441526,-0.5091964,-0.26205507,-0.06604639400000001,105.06,24.6,-1.2
1554206117285,-8.690952000000001,-0.87687635,4.3807906999999995,-0.44208476,-0.30360037,-0.101200126,105.0,24.54,-1.14
1554206117305,-8.585608,-0.9056068000000002,4.466982,-0.42184472,-0.3270362,-0.12037488,105.0,24.54,-0.96
1554206117325,-8.643068,-0.84814596,4.3281183,-0.43995422,-0.4016047,-0.09267801,105.0,24.54,-0.72
1554206117346,-8.485051,-1.1737574,4.687248,-0.47297743,-0.48363006,-0.05219796,104.94,24.6,-0.36
1554206117365,-8.413225,-1.3461398999999998,4.969764,-0.3653857,-0.51665324,-0.047936900000000005,104.88,24.6,-0.12
1554206117385,-8.303091,-1.3413515,5.228338,-0.10546118,-0.47617322,-0.024501082,104.88,24.72,0.06
1554206117406,-8.130709,-1.0923545000000001,4.6920366,0.13102753,-0.40906155,0.025566347000000003,104.82,24.84,0.24
1554206117427,-7.896077,-1.049259,4.648941000000001,0.20453078,-0.32170987,0.07669904,104.76,24.96,0.36
1554206117447,-7.7667904000000005,-1.0348936,4.7255554,0.20772657,-0.22477080000000002,0.10226539,104.7,25.08,0.42
1554206117467,-7.5608889999999995,-1.0684125,4.524442700000001,0.25353295,-0.14274544,0.11717909,104.64,25.2,0.36
1554206117486,-7.3789296,-0.9008184000000001,4.4526167,0.24607609,-0.03834952,0.14913702,104.58,25.32,0.18
1554206117506,-7.3789296,-0.7332243,4.308964700000001,0.14594123,0.08628642,0.1438107,104.64,25.44,0.0
1554206117526,-7.4986396,-0.46507367,4.3185415,-0.058589544,0.19068234,0.12250541,104.76,25.5,-0.24
1554206117546,-7.5082164,-0.6183026,4.308964700000001,-0.27377295,0.25992453,0.10759171,104.88,25.5,-0.42
1554206117566,-7.752425,-0.86729956,4.5148660000000005,-0.4133226,0.27803403,0.099069595,104.94,25.5,-0.6
1554206117585,-8.063671000000001,-1.0157399999999999,4.7399206,-0.43249738,0.26738137,0.080960095,105.06,25.44,-0.72
1554206117606,-8.255207,-0.95827925,4.888361499999999,-0.40266997,0.25672874,0.05965481,105.18,25.44,-0.9
1554206117626,-8.427589999999999,-1.1067197,4.7925935,-0.39521313,0.27057716,0.058589544,105.24,25.38,-0.96
1554206117646,-8.451532,-1.1258733,4.706402,-0.41438788,0.2908172,0.07243799,105.36,25.32,-0.9
1554206117666,-8.499416,-1.2120646000000002,4.859630999999999,-0.39947417,0.29827404,0.07776430000000001,105.42,25.32,-0.72
1554206117685,-8.552089,-1.1546037,4.687248,-0.37923414,0.29614353,0.080960095,105.42,25.26,-0.42
1554206117705,-8.365341,-0.97743285,4.5435963,-0.38242993,0.27057716,0.05539375,105.42,25.26,-0.18
1554206117726,-8.446744,-0.83378077,4.3281183,-0.47617322,0.24927188,0.011717908999999999,105.48,25.26,0.12
1554206117746,-8.446744,-1.1115081,4.4526167,-0.65194184,0.23648871,-0.0031957934000000003,105.54,25.38,0.42
1554206117766,-8.432379,-1.2982559,4.5962687,-0.80747044,0.23222765,-0.01917476,105.66,25.44,0.72
1554206117786,-8.374918,-1.3317747,4.433463,-0.9214538000000001,0.20559604,-0.034088463,105.72,25.5,1.2
1554206117806,-8.508992999999998,-1.4945803999999998,4.3760023,-0.9800433000000001,0.16724652,-0.058589544,105.78,25.62,1.8
1554206117825,-8.379706,-1.6956933999999997,4.361637,-0.9800433000000001,0.10865697,-0.084155895,105.84,25.74,2.22
1554206117845,-8.504205,-1.9063831999999998,4.5483847,-0.8841694999999999,0.05006743,-0.113983296,105.9,25.8,2.7
1554206117866,-8.451532,-1.8584990000000001,4.696825,-0.7030744999999999,0.015978966,-0.13741912,105.96,25.92,3.18
1554206117888,-8.513782,-2.131438,4.768651,-0.4857606,0.00958738,-0.13209279,106.02,26.04,3.72
1554206117906,-8.51857,-2.1218612,4.634576,-0.23755397,0.026631612000000002,-0.11717909,106.02,26.34,4.56
1554206117927,-8.513782,-1.7914615000000003,4.4286747,-0.16192019,0.037284255,-0.10865697,106.02,26.46,4.86
1554206117947,-8.537724,-1.6286557,4.0934862999999995,-0.17789917,0.047936900000000005,-0.07882957,106.02,26.64,5.28
1554206117967,-8.51857,-1.6430208999999998,4.23235,-0.25140239999999997,0.041545313,-0.06604639400000001,106.08,26.82,5.52
1554206117986,-8.532935,-1.7483658,4.2610803,-0.28016454,0.053263225,-0.06604639400000001,106.08,27.06,5.82
1554206118006,-8.643068,-2.0021513,4.481347,-0.23648871,0.056459017,-0.054328485999999995,106.14,27.24,6.06
1554206118025,-8.556877,-2.059612,4.5483847,-0.07989483,0.068176925,-0.039414786,106.14,27.42,6.24
1554206118045,-8.576031,-1.9829974999999997,4.2754455,0.029827405,0.08628642,-0.018109497,106.14,27.48,6.48
1554206118066,-8.628703,-1.8968061999999999,4.11264,-0.06498113,0.09161274,0.022370555,106.14,27.48,6.78
1554206118085,-8.599973,-1.8010383,3.7822402000000004,-0.28975195,0.08841695,0.039414786,106.14,27.42,6.96
1554206118107,-8.724471000000001,-1.7866731,3.7726634,-0.5422196,0.08735169,0.025566347000000003,106.14,27.36,7.26
1554206118125,-8.63828,-1.9494787,4.117428299999999,-0.56459016,0.09161274,0.018109497,106.14,27.3,7.32
1554206118145,-8.494628,-2.0452468,3.9258924,-0.5028047999999999,0.10226539,0.015978966,106.08,27.24,7.5
1554206118166,-8.690952000000001,-2.1170728,3.6242227999999996,-0.46019423,0.11717909,0.033023197000000004,106.08,27.18,7.68
1554206118185,-8.576031,-2.0883423999999997,3.7822402000000004,-0.48149952,0.09374327,0.047936900000000005,106.08,27.18,7.98
1554206118205,-8.336611,-2.1984756,3.7343562000000006,-0.36112466,0.06711166,-0.0010652645,106.08,27.18,8.28
1554206118226,-8.6095495,-2.236783,3.7152026,-0.16831179,0.05965481,-0.023435817999999997,106.14,27.18,8.58
1554206118246,-8.667010000000001,-2.0500352,3.6290112,-0.07882957,0.04261058,0.002130529,106.14,27.18,8.88
1554206118266,-8.676587,-1.7292121999999999,3.5476084,-0.18855181,0.03834952,-0.002130529,106.14,27.18,9.24
1554206118287,-8.6334915,-1.8680758000000002,3.7056258,-0.35579833,0.041545313,-0.026631612000000002,106.14,27.18,9.54
1554206118306,-8.552089,-2.0883423999999997,3.6050692000000004,-0.43995422,0.022370555,-0.053263225,106.14,27.18,9.9
1554206118326,-8.772355000000001,-2.3133974,3.7822402000000004,-0.36005938,0.014913702,-0.05752428,106.14,27.12,10.2
1554206118346,-8.796297000000001,-2.380435,3.7487214,-0.20240025,-0.014913702,-0.037284255,106.14,27.12,10.44
1554206118366,-8.743625,-2.2655133999999997,3.7199910000000003,-0.12570119999999999,-0.03834952,-0.017044231,106.14,27.06,10.56
1554206118386,-8.7532015,-2.1984756,3.6194344,-0.13209279,-0.041545313,-0.007456851,106.2,27.06,10.62
1554206118405,-8.628703,-2.0500352,3.6625300000000003,-0.18961707,-0.054328485999999995,-0.0053263223,106.2,27.0,10.62
1554206118425,-8.614338,-2.203264,3.6529531000000004,-0.21624869,-0.05965481,-0.018109497,106.2,26.94,10.68
1554206118445,-8.556877,-2.2559366,3.3943794,-0.2034655,-0.058589544,-0.03195793,106.26,26.94,10.8
1554206118465,-8.437167,-2.2176294,3.696049,-0.2428803,-0.06604639400000001,-0.020240024,106.32,26.88,10.98
1554206118485,-8.331821000000001,-2.2319946,3.8588544999999996,-0.22477080000000002,-0.05006743,-0.035153727999999995,106.32,26.88,11.16
1554206118506,-8.652645,-2.5863364,3.8732197,-0.18642128,-0.051132694000000006,-0.05006743,106.38,26.88,11.28
1554206118526,-8.259995,-2.5432408,4.0599675,-0.10013486,-0.05539375,-0.047936900000000005,106.38,26.82,11.46
1554206118545,-8.63828,-2.4762032000000005,3.8732197,0.10652645,0.0063915867,-0.083090626,106.44,26.82,11.64
1554206118565,-8.848969,-2.3373394,3.9115269999999995,0.18642128,0.010652645,-0.06285059999999999,106.44,26.82,11.76
1554206118585,-8.595184,-2.2798786,3.3704373999999997,0.14168017,0.026631612000000002,-0.02130529,106.44,26.82,11.88
1554206118606,-8.628703,-2.083554,3.470994,0.011717908999999999,0.034088463,-0.010652645,106.44,26.88,11.94
1554206118626,-8.532935,-2.212841,3.5140896,-0.13848437,0.00958738,-0.018109497,106.38,26.88,11.94
1554206118646,-8.619126,-2.3373394,3.6433763999999997,-0.19068234,0.0031957934000000003,-0.05006743,106.38,26.94,11.94
1554206118666,-8.590396,-2.4235306,3.8732197,-0.1587244,0.0,-0.046871635999999994,106.32,26.94,11.94
1554206118685,-8.671799,-2.4474726,3.8205473,-0.099069595,0.002130529,-0.029827405,106.26,26.94,11.94
1554206118705,-8.6334915,-2.3708582000000002,3.7295678,-0.05752428,0.007456851,-0.022370555,106.26,26.94,11.94
1554206118727,-8.695741,-2.4235306,3.696049,-0.004261058,0.015978966,-0.023435817999999997,106.2,26.94,11.94
1554206118745,-8.63828,-2.4187422,3.614646,0.039414786,0.0031957934000000003,-0.018109497,106.2,26.94,11.94
1554206118766,-8.566454,-2.2750902,3.8013937000000007,0.07350325,-0.0063915867,-0.013848438000000001,106.14,26.88,11.94
1554206118786,-8.528147,-2.2080526000000003,3.6721067,0.04580637,-0.008522116,-0.014913702,106.08,26.88,11.94
1554206118806,-8.504205,-2.1362264,3.6625300000000003,-0.014913702,-0.002130529,-0.025566347000000003,106.02,26.82,11.88
1554206118826,-8.552089,-2.2990322,3.7056258,-0.05752428,0.008522116,-0.035153727999999995,105.96,26.76,11.88
1554206118846,-8.671799,-2.2511482000000003,3.5284547999999996,-0.07350325,0.014913702,-0.026631612000000002,105.96,26.76,11.88
1554206118866,-8.63828,-2.2990322,3.6002807999999997,-0.080960095,0.0031957934000000003,-0.014913702,105.9,26.82,11.88
1554206118885,-8.748413000000001,-2.332551,3.5811272000000005,-0.099069595,-0.0063915867,-0.012783173500000002,105.9,26.82,11.82
1554206118905,-8.580819,-2.3133974,3.6721067,-0.09054748,-0.011717908999999999,-0.011717908999999999,105.9,26.88,11.82
1554206118925,-8.686164,-2.2703017999999995,3.8013937000000007,-0.101200126,0.0053263223,-0.007456851,105.96,26.88,11.88
1554206118946,-8.628703,-2.3517046,3.767875,-0.09267801,0.012783173500000002,-0.0053263223,106.02,26.88,12.0
1554206118966,-8.590396,-2.3229742,3.5715504,-0.099069595,0.013848438000000001,-0.014913702,106.14,26.88,12.06
1554206118985,-8.667010000000001,-2.2990322,3.6290112,-0.15339808,0.010652645,-0.014913702,106.26,26.94,12.18
1554206119005,-8.695741,-2.212841,3.3895910000000002,-0.27164245,0.010652645,-0.002130529,106.32,26.88,12.3
1554206119025,-8.599973,-2.1649568,3.3512837999999996,-0.42930159999999995,0.013848438000000001,-0.0053263223,106.44,26.88,12.42
1554206119046,-8.662222,-2.1936872000000003,3.447052,-0.5656554,0.014913702,-0.029827405,106.5,26.76,12.6
1554206119065,-8.671799,-2.581548,3.5332432000000003,-0.56672066,0.0053263223,-0.02130529,106.56,26.76,12.72
1554206119085,-8.700529,-2.4809916000000003,3.4614172,-0.5539375,0.007456851,-0.041545313,106.56,26.7,12.96
1554206119106,-8.604761,-2.4091654,3.4566288,-0.60507023,0.0063915867,-0.04261058,106.62,26.7,13.14
1554206119126,-8.604761,-2.2655133999999997,3.365649,-0.7350325,0.017044231,-0.017044231,106.62,26.7,13.32
1554206119146,-8.690952000000001,-2.2080526000000003,2.8485014,-0.9502159,0.013848438000000001,0.002130529,106.62,26.7,13.5
1554206119165,-8.6574335,-2.0452468,2.2068555,-1.4157364,0.002130529,0.013848438000000001,106.62,26.7,13.74
1554206119186,-8.485051,-1.7100586,2.1972785,-2.1486384999999997,-0.010652645,0.00958738,106.68,26.7,13.98
1554206119206,-8.231264999999999,-2.0452468,2.3361422999999997,-2.8399951,0.025566347000000003,-0.05752428,106.68,26.64,14.46
1554206119225,-8.327033,-2.8401217,2.5228900000000003,-3.3683662000000005,0.08841695,-0.16192019,106.74,26.52,15.06
1554206119246,-8.470686,-3.7594953,2.9299042,-3.4610442999999997,0.12463594,-0.22370553,106.74,26.28,15.78
1554206119266,-8.781932000000001,-4.530428,2.9825767999999995,-2.9145637000000004,0.10865697,-0.27164245,106.74,25.86,16.74
1554206119286,-8.75799,-5.1960163,3.0017304,-1.9046929,0.060720075,-0.2790993,106.74,25.26,17.88
1554206119306,-8.599973,-5.4545900000000005,3.2363622000000003,-0.8266452,0.03089267,-0.25353295,106.68,24.6,19.14
1554206119329,-8.5473,-4.683657,2.7335799,0.2034655,0.080960095,-0.15552860000000002,106.62,24.0,20.4
1554206119345,-8.7292595,-4.439448400000001,2.4893713,0.69135666,0.10546118,-0.14913702,106.56,23.34,21.66
1554206119366,-8.90643,-4.386776,1.7328035,0.9353021999999999,0.07776430000000001,-0.15020229,106.44,22.74,22.74
1554206119386,-8.911219000000001,-3.8121676,1.2683283,0.69029135,0.039414786,-0.043675844000000005,106.38,22.2,23.58
1554206119405,-8.6095495,-3.4482489999999997,1.4981716999999999,0.11930962,0.0063915867,0.018109497,106.26,21.78,24.18
1554206119425,-8.542512,-3.6110547,2.0679917000000003,-0.24394555,0.0,-0.053263225,106.2,21.6,24.6
1554206119445,-8.48984,-3.8025907999999995,2.331354,-0.25246766,0.0053263223,-0.096939065,106.14,21.6,24.72
1554206119465,-8.508992999999998,-4.0372224,2.40318,-0.039414786,0.012783173500000002,-0.10546118,106.08,21.6,24.78
1554206119486,-8.403648,-4.085107,2.379238,0.12250541,0.01917476,-0.099069595,106.02,21.72,24.78
1554206119505,-8.485051,-3.9270894999999997,2.475006,0.21198763,0.041545313,-0.10439592,105.96,21.9,24.72
1554206119525,-8.662222,-3.8744167999999997,2.3600842999999996,0.330232,0.068176925,-0.11504856,105.9,22.02,24.72
1554206119545,-8.628703,-4.022857,2.1924900000000003,0.39095205,0.05965481,-0.12037488,105.78,22.2,24.66
1554206119566,-8.623915,-4.137779,1.8668787,0.41225734,0.034088463,-0.12570119999999999,105.72,22.32,24.66
1554206119585,-8.432379,-4.065953299999999,1.9961656000000003,0.38029942,0.013848438000000001,-0.10546118,105.6,22.44,24.6
1554206119605,-8.619126,-4.065953299999999,2.144606,0.30466563,0.015978966,-0.07669904,105.48,22.44,24.36
1554206119626,-8.595184,-4.247912400000001,2.1829132999999996,0.26418558,0.014913702,-0.054328485999999995,105.42,22.44,24.18
1554206119645,-8.671799,-4.252701,2.2212207000000004,0.34408042,-0.007456851,-0.047936900000000005,105.3,22.38,23.94
1554206119665,-8.580819,-4.3101616,2.4462755,0.5230448000000001,-0.033023197000000004,-0.034088463,105.3,22.32,23.76
1554206119686,-8.595184,-3.9845502,2.321777,0.6924219,-0.020240024,-0.00958738,105.24,22.26,23.58
1554206119705,-8.571242,-3.6780925000000004,2.3265655,0.6711166000000001,-0.023435817999999997,0.039414786,105.18,22.2,23.4
1554206119726,-8.499416,-3.6541502,2.532467,0.47404268,-0.03195793,0.029827405,105.12,22.2,23.04
1554206119745,-8.456321,-3.6876693,2.7623102999999998,0.34727620000000003,-0.020240024,0.012783173500000002,105.12,22.2,22.92
1554206119765,-8.456321,-3.769072,3.0352492,0.3153183,0.022370555,0.03089267,105.06,22.26,22.8
1554206119785,-8.427589999999999,-3.9893386,3.116652,0.48682585,0.054328485999999995,0.03834952,105.06,22.32,22.62
1554206119806,-8.576031,-3.946243,3.0591912,0.7797736,0.07456851,0.03089267,105.06,22.44,22.44
1554206119826,-8.762777999999999,-3.9031472000000003,2.8868085999999997,1.1494204,0.07350325,0.036218993,105.12,22.74,22.26
1554206119845,-8.834603999999999,-3.6637269999999997,2.6282349,1.3262542,0.05006743,0.07776430000000001,105.12,23.1,22.08
1554206119865,-8.604761,-3.0556,2.7910407000000004,1.1771171999999999,0.051132694000000006,0.13102753,105.18,23.46,21.78
1554206119887,-8.523358,-2.4953567999999997,2.6569653,0.7574029999999999,0.12144015,0.11930962,105.3,24.0,21.24
1554206119905,-8.676587,-2.7730842,2.441487,0.43569317,0.15552860000000002,0.054328485999999995,105.42,24.42,20.82
1554206119926,-8.801085,-3.1705215,2.532467,0.26205507,0.12037488,0.022370555,105.54,24.78,20.46
1554206119945,-8.829816000000001,-3.1609447,2.6856956000000003,0.2876214,0.083090626,0.036218993,105.6,25.14,20.1
1554206119967,-8.7053175,-3.2040405,2.7000610000000003,0.38136467,0.05752428,0.05539375,105.72,25.44,19.8
1554206119985,-8.671799,-2.9933507,2.7144263,0.3898868,0.043675844000000005,0.07989483,105.84,25.56,19.44
1554206120007,-8.710106,-2.926313,2.843713,0.34194988,0.036218993,0.09374327,105.96,25.68,19.2
1554206120027,-8.714894000000001,-2.8640637000000004,3.0065188,0.35792887,0.034088463,0.06711166,106.02,25.8,18.96
1554206120046,-8.825027,-2.8688521000000002,2.8963853999999998,0.39947417,0.024501082,0.05752428,106.02,25.86,18.84
1554206120066,-8.772355000000001,-2.9933507,2.8532897999999998,0.36751625,0.02130529,0.101200126,106.02,25.92,18.72
1554206120086,-8.714894000000001,-2.7299886000000004,3.116652,0.36964676,0.023435817999999997,0.13102753,106.02,25.92,18.54
1554206120106,-8.810661999999999,-2.6342204,3.0113072,0.38562572,0.053263225,0.128897,106.02,25.98,18.3
1554206120126,-8.724471000000001,-2.5623944,3.044826,0.4048005,0.05219796,0.12037488,106.02,25.92,18.12
1554206120146,-8.6095495,-2.5576060000000003,3.2028434,0.40586576,0.047936900000000005,0.09161274,106.02,25.92,17.94
1554206120165,-8.676587,-2.380435,3.3560722000000003,0.43036684,0.058589544,0.06924219,106.02,25.92,17.7
1554206120186,-8.8777,-2.6150667999999997,3.2603042,0.54648066,0.06391586,0.07030745599999999,106.08,25.92,17.46
1554206120205,-8.920795,-2.629432,3.198055,0.6327670999999999,0.06924219,0.07350325,106.14,25.86,17.28
1554206120225,-8.896853,-2.5576060000000003,3.1022868,0.67218184,0.07243799,0.08841695,106.14,25.86,17.1
1554206120246,-8.848969,-2.332551,2.8485014,0.69774824,0.056459017,0.10652645,106.2,25.86,16.8
1554206120265,-8.810661999999999,-2.2176294,3.0879216,0.6945524000000001,0.04474111,0.096939065,106.26,25.86,16.5
1554206120286,-8.954314,-2.083554,3.0352492,0.6764429,0.047936900000000005,0.07243799,106.32,25.8,16.2
1554206120305,-8.935161,-2.15538,3.2267854,0.71585774,0.047936900000000005,0.058589544,106.38,25.8,15.84
1554206120326,-8.925583999999999,-2.260725,3.447052,0.8522116,0.05006743,0.06604639400000001,106.44,25.74,15.48
1554206120345,-8.810661999999999,-1.9590555,3.4326867999999995,1.015197,0.049002163,0.07776430000000001,106.5,25.68,15.06
1554206120366,-8.987833,-1.6813281999999998,3.0879216,1.0908308,0.06711166,0.07350325,106.5,25.62,14.58
1554206120385,-8.724471000000001,-1.4036007,2.8868085999999997,0.9139969000000001,0.05219796,0.07030745599999999,106.56,25.56,14.04
1554206120406,-8.882488,-1.1785458,3.164536,0.67324716,0.060720075,0.046871635999999994,106.62,25.56,13.62
1554206120425,-8.863335000000001,-1.4466964,3.293823,0.5187838,0.051132694000000006,0.035153727999999995,106.74,25.5,13.26
1554206120445,-8.887277000000001,-1.5185224,3.4805707999999997,0.4889564,0.06604639400000001,0.027696876000000002,106.8,25.5,12.9
1554206120465,-8.896853,-1.5951369,3.4087446000000003,0.5773733,0.07243799,0.024501082,106.92,25.5,12.54
1554206120485,-8.954314,-1.6525976999999998,3.4087446000000003,0.6679208000000001,0.07669904,0.036218993,106.98,25.5,12.12
1554206120506,-8.825027,-1.417966,3.164536,0.7350325,0.07030745599999999,0.06498113,107.1,25.56,11.76
1554206120526,-8.983044999999999,-1.1737574,3.2267854,0.69987875,0.08948222,0.046871635999999994,107.16,25.56,11.46
1554206120546,-8.930372,-1.1546037,3.4183214,0.62744075,0.09054748,0.034088463,107.28,25.56,11.28
1554206120566,-8.987833,-1.0157399999999999,3.2746694,0.6114618,0.098004326,0.015978966,107.34,25.5,11.04
1554206120585,-9.160214999999999,-1.0971429,3.1549592,0.62744075,0.096939065,0.0,107.34,25.44,10.8
1554206120605,-9.088389,-0.88645315,3.0113072,0.5837649,0.07669904,0.0053263223,107.34,25.44,10.56
1554206120626,-8.944737,-0.9199719999999999,3.020884,0.4644553,0.049002163,0.00958738,107.4,25.38,10.2
1554206120646,-8.959103,-0.86729956,3.0496144,0.33449304,0.04474111,-0.014913702,107.4,25.38,9.9
1554206120665,-8.935161,-1.0779893,3.2363622000000003,0.28442562,0.05006743,-0.020240024,107.4,25.32,9.54
1554206120686,-9.059659,-1.0205284,3.245939,0.31212249999999997,0.054328485999999995,-0.0053263223,107.4,25.26,9.12
1554206120706,-8.992621,-0.9391255999999999,3.3129766000000003,0.35579833,0.039414786,0.014913702,107.4,25.26,8.58
1554206120725,-8.983044999999999,-0.7380127,3.1214404,0.3291667,0.035153727999999995,0.008522116,107.4,25.26,8.34
1554206120745,-8.939949,-0.4985925,3.1932666000000003,0.21731395,0.025566347000000003,-0.010652645,107.52,25.2,7.86
1554206120768,-9.083601,-0.670975,3.1693244,0.05006743,0.01917476,-0.026631612000000002,107.58,25.2,7.62
1554206120785,-9.078813,-0.6853402,3.2746694,-0.022370555,0.025566347000000003,-0.034088463,107.64,25.2,7.44
1554206120805,-9.021352,-0.7284359,3.1070752,-0.039414786,0.026631612000000002,-0.036218993,107.7,25.2,7.32
1554206120826,-9.021352,-0.8098387,3.0639796,-0.047936900000000005,0.010652645,-0.037284255,107.76,25.2,7.32
1554206120845,-9.059659,-0.6039374,3.1262288,-0.12357068,0.0031957934000000003,-0.034088463,107.82,25.2,7.26
1554206120865,-9.11712,-0.53211135,2.915539,-0.30040458,0.004261058,-0.027696876000000002,107.88,25.2,7.26
1554206120887,-9.016563,-0.6183026,2.9538465,-0.50387007,0.008522116,-0.039414786,107.88,25.2,7.26
1554206120906,-8.987833,-0.7811083000000001,3.1453824,-0.64555025,0.0063915867,-0.06285059999999999,107.88,25.2,7.26
1554206120926,-9.030928999999999,-0.97743285,3.1358056,-0.70840085,-0.007456851,-0.06498113,107.88,25.2,7.32
1554206120946,-8.954314,-1.1881226,3.1741127999999996,-0.7222493000000001,-0.00958738,-0.05965481,107.88,25.2,7.38
1554206120965,-9.016563,-1.3221979,3.2411506,-0.67005134,-0.0063915867,-0.05965481,107.82,25.26,7.5
1554206120986,-9.045294,-1.513734,3.2794578000000003,-0.5475459,0.0,-0.06178534,107.82,25.26,7.68
1554206121006,-9.121908,-1.5041572,3.341707,-0.39840892,0.0053263223,-0.051132694000000006,107.82,25.32,7.92
1554206121025,-9.078813,-1.3892354999999998,3.4087446000000003,-0.27057716,0.013848438000000001,-0.036218993,107.76,25.32,8.16
1554206121045,-9.035717,-1.3317747,3.2076318,-0.21198763,0.00958738,-0.029827405,107.76,25.38,8.46
1554206121065,-8.959103,-1.4323312,3.0496144,-0.18855181,0.020240024,-0.02876214,107.76,25.38,8.76
1554206121086,-8.983044999999999,-1.4323312,3.2411506,-0.15659387,0.0063915867,-0.027696876000000002,107.76,25.44,9.0
1554206121105,-9.040505,-1.3652935,3.3273417999999997,-0.04580637,0.002130529,-0.024501082,107.76,25.44,9.3
1554206121125,-9.054871,-1.3317747,3.2028434,0.035153727999999995,0.007456851,-0.011717908999999999,107.76,25.44,9.54
1554206121146,-9.112331,-1.1546037,3.020884,0.049002163,0.014913702,-0.008522116,107.76,25.38,9.72
1554206121166,-9.040505,-1.1402385,2.8580782000000005,-0.00958738,0.0053263223,-0.02130529,107.76,25.32,9.84
1554206121188,-9.11712,-1.0636241000000002,3.0113072,-0.04261058,-0.008522116,-0.040480047000000005,107.82,25.32,10.02
1554206121206,-8.99741,-1.0636241000000002,3.0304607999999997,-0.12676647,-0.01917476,-0.051132694000000006,107.82,25.26,10.08
1554206121226,-9.169792,-1.0923545000000001,2.9921536,-0.20985709,-0.011717908999999999,-0.053263225,107.82,25.2,10.2
1554206121245,-9.050082000000002,-1.192911,2.949058,-0.29933932,-0.01917476,-0.054328485999999995,107.82,25.14,10.26
1554206121265,-9.155427,-1.1546037,2.9873652,-0.38029942,-0.029827405,-0.06285059999999999,107.82,25.14,10.32
1554206121286,-9.107543,-1.2216414,3.2028434,-0.41864893,-0.053263225,-0.06711166,107.82,25.08,10.38
1554206121306,-8.973467999999999,-1.3317747,3.1358056,-0.43249738,-0.054328485999999995,-0.08735169,107.88,25.08,10.44
1554206121326,-8.987833,-1.3844471,3.164536,-0.45912898,-0.039414786,-0.08841695,107.82,25.08,10.44
1554206121345,-9.074024,-1.4371196000000002,3.1884782000000005,-0.47617322,-0.017044231,-0.07882957,107.82,25.08,10.44
1554206121365,-9.093178,-1.6861166,3.1070752,-0.4889564,-0.0063915867,-0.06711166,107.82,25.08,10.5
1554206121386,-9.011775,-1.6430208999999998,3.0544027999999996,-0.48363006,-0.011717908999999999,-0.058589544,107.76,25.08,10.68
1554206121406,-8.959103,-1.6621746,3.0974984,-0.44634579999999996,-0.020240024,-0.05752428,107.76,25.08,10.92
1554206121425,-8.930372,-1.8010383,3.1405939999999997,-0.39734364,-0.018109497,-0.054328485999999995,107.7,25.08,11.22
1554206121445,-8.978256,-1.7435773999999997,3.0065188,-0.35473305,-0.015978966,-0.04474111,107.7,25.08,11.46
1554206121467,-8.968679,-1.6813281999999998,3.0591912,-0.3323625,-0.0031957934000000003,-0.04474111,107.7,25.08,11.7
1554206121486,-8.954314,-1.513734,2.9538465,-0.3653857,-0.004261058,-0.06178534,107.7,25.14,11.94
1554206121506,-9.11712,-1.6286557,2.8628666000000003,-0.41864893,-0.015978966,-0.08522116,107.7,25.14,12.18
1554206121526,-8.968679,-1.7962499,3.0496144,-0.44741106,-0.023435817999999997,-0.098004326,107.7,25.14,12.48
1554206121546,-8.992621,-1.8632874,3.0879216,-0.45806372,-0.012783173500000002,-0.111852765,107.7,25.2,12.66
1554206121566,-9.093178,-1.8249803,2.8101943,-0.44101948,-0.0053263223,-0.096939065,107.76,25.2,12.9
1554206121585,-9.006986999999999,-1.8584990000000001,2.8149827000000003,-0.45699844,0.0031957934000000003,-0.07989483,107.76,25.32,13.14
1554206121605,-9.016563,-1.9159599999999999,2.843713,-0.48043427,0.0010652645,-0.080960095,107.76,25.38,13.26
1554206121626,-9.093178,-1.8058267,2.7766755,-0.50813115,-0.010652645,-0.07669904,107.76,25.5,13.56
1554206121645,-8.987833,-1.8968061999999999,2.867655,-0.5209143,-0.027696876000000002,-0.07669904,107.76,25.56,13.8
1554206121665,-8.973467999999999,-1.9829974999999997,2.5755625,-0.5539375,-0.037284255,-0.09374327,107.7,25.68,14.04
1554206121686,-8.968679,-1.9590555,2.7814639,-0.6125271,-0.051132694000000006,-0.099069595,107.7,25.74,14.28
1554206121706,-9.030928999999999,-2.236783,2.867655,-0.6295713000000001,-0.05219796,-0.10439592,107.7,25.74,14.46
1554206121726,-9.088389,-2.4809916000000003,2.867655,-0.5933523,-0.06498113,-0.10226539,107.64,25.8,14.58
1554206121746,-9.006986999999999,-2.5767596,2.9921536,-0.46871635,-0.07137272,-0.09161274,107.58,25.62,14.7
1554206121766,-8.944737,-2.4953567999999997,3.044826,-0.33555830000000003,-0.058589544,-0.07669904,107.46,25.5,14.94
1554206121786,-8.954314,-2.3900118,3.0591912,-0.24714136,-0.037284255,-0.05752428,107.4,25.38,15.18
1554206121805,-8.939949,-2.4666264,2.9011737999999996,-0.221575,-0.02130529,-0.05219796,107.34,25.32,15.48
1554206121825,-9.021352,-2.308609,2.8293478,-0.22050974,-0.00958738,-0.05752428,107.28,25.2,15.72
1554206121847,-8.896853,-2.3277626000000002,2.795829,-0.20772657,-0.004261058,-0.04580637,107.22,25.14,15.96
1554206121865,-9.030928999999999,-2.3133974,2.5516205000000003,-0.20985709,-0.008522116,-0.036218993,107.16,25.08,16.2
1554206121885,-8.925583999999999,-2.2990322,2.6521769,-0.23116238,-0.024501082,-0.041545313,107.16,25.02,16.44
1554206121905,-8.978256,-2.212841,2.6378117000000003,-0.3057309,-0.024501082,-0.05006743,107.1,24.96,16.68
1554206121926,-8.983044999999999,-2.083554,2.7862522999999997,-0.40053943,-0.01917476,-0.053263225,107.16,24.9,16.8
1554206121946,-9.016563,-2.0787656,2.5228900000000003,-0.47404268,-0.022370555,-0.07030745599999999,107.16,24.78,16.98
1554206121966,-8.944737,-2.2176294,2.6521769,-0.55074173,-0.03195793,-0.099069595,107.16,24.72,17.16
1554206121985,-8.944737,-2.4139538,2.690484,-0.5795039000000001,-0.037284255,-0.111852765,107.22,24.6,17.4
1554206122006,-8.8777,-2.6533740000000003,2.795829,-0.58056915,-0.022370555,-0.113983296,107.22,24.48,17.7
1554206122026,-9.088389,-2.7347770000000002,2.6809072,-0.5273059,-0.02130529,-0.09267801,107.22,24.36,18.0
1554206122046,-8.844180999999999,-2.830545,2.6761188999999996,-0.45380265,-0.043675844000000005,-0.07989483,107.22,24.24,18.3
1554206122065,-8.7771435,-2.8880057,2.7144263,-0.3568636,-0.040480047000000005,-0.09054748,107.22,24.18,18.6
1554206122086,-8.925583999999999,-2.8209682000000003,3.0113072,-0.26205507,-0.0063915867,-0.07669904,107.22,24.12,18.84
1554206122106,-8.896853,-2.9550436,2.7575218999999995,-0.17896444,0.01917476,-0.043675844000000005,107.16,24.06,19.02
1554206122126,-8.892064999999999,-2.8449101000000003,2.6042929,-0.113983296,0.02876214,-0.040480047000000005,107.16,24.0,19.2
1554206122145,-8.939949,-2.7730842,2.5899277,-0.07989483,0.01917476,-0.04580637,107.1,23.94,19.32
1554206122166,-8.90643,-2.6390088,2.5133132999999996,-0.06498113,0.025566347000000003,-0.05539375,107.04,23.88,19.38
1554206122186,-8.973467999999999,-2.6390088,2.4319102999999997,-0.09161274,0.017044231,-0.051132694000000006,107.04,23.76,19.44
1554206122205,-8.911219000000001,-2.7012582000000003,2.2307975,-0.1438107,-0.007456851,-0.05006743,106.98,23.7,19.5
1554206122225,-8.949525999999999,-2.6150667999999997,2.3409307,-0.21518342,-0.024501082,-0.05539375,106.98,23.64,19.5
1554206122246,-8.944737,-2.7156234,2.460641,-0.24607609,-0.034088463,-0.06711166,106.98,23.58,19.56
1554206122266,-8.815451,-2.7539306,2.532467,-0.23435818,-0.03089267,-0.07456851,106.92,23.58,19.62
1554206122286,-8.762777999999999,-2.8736405,2.5276785,-0.22264028,-0.01917476,-0.07882957,106.92,23.58,19.68
1554206122306,-8.868122999999999,-2.830545,2.5420437000000002,-0.21731395,-0.007456851,-0.07669904,106.86,23.58,19.68
1554206122325,-8.872911,-2.9167361,2.5276785,-0.20133498,-0.002130529,-0.082025364,106.8,23.58,19.74
1554206122346,-8.882488,-3.103484,2.5516205000000003,-0.1587244,0.004261058,-0.08841695,106.8,23.58,19.74
1554206122366,-8.992621,-3.0508115,2.6090812999999997,-0.096939065,0.012783173500000002,-0.06178534,106.74,23.58,19.74
1554206122386,-8.896853,-2.9550436,2.4558525,-0.02130529,0.015978966,-0.040480047000000005,106.68,23.58,19.8
1554206122405,-8.949525999999999,-2.9502552000000004,2.3744495,0.027696876000000002,0.02130529,-0.043675844000000005,106.62,23.58,19.86
1554206122425,-8.810661999999999,-2.8161798,2.331354,0.012783173500000002,0.010652645,-0.037284255,106.62,23.52,19.86
1554206122446,-9.088389,-2.9406781000000004,2.321777,-0.022370555,-0.002130529,-0.035153727999999995,106.62,23.52,19.98
1554206122466,-8.987833,-2.9981391,2.4271219,-0.029827405,-0.013848438000000001,-0.020240024,106.68,23.52,20.1
1554206122485,-9.059659,-3.1800982999999996,2.331354,0.022370555,-0.0031957934000000003,0.0,106.8,23.46,20.22
1554206122506,-8.949525999999999,-3.0172927000000005,2.5803509,0.09054748,0.0031957934000000003,0.0063915867,106.92,23.4,20.34
1554206122526,-8.925583999999999,-2.7252002,2.4223334999999997,0.16192019,0.004261058,0.011717908999999999,106.98,23.4,20.46
1554206122546,-8.848969,-2.6198552000000004,2.235586,0.15552860000000002,0.011717908999999999,0.0,107.1,23.34,20.58
1554206122565,-8.963891,-2.6390088,2.2691047,0.096939065,0.0063915867,-0.029827405,107.16,23.28,20.64
1554206122587,-8.954314,-2.8018146,2.2786815,0.035153727999999995,-0.0031957934000000003,-0.043675844000000005,107.22,23.22,20.76
1554206122607,-8.992621,-2.6725276,2.4893713,0.0063915867,-0.013848438000000001,-0.04261058,107.28,23.22,20.82
1554206122627,-8.791509,-2.6581624,2.5420437000000002,-0.01917476,-0.020240024,-0.040480047000000005,107.28,23.1,20.76
1554206122646,-8.868122999999999,-2.8161798,2.7766755,-0.05219796,-0.013848438000000001,-0.056459017,107.34,23.04,20.76
1554206122666,-8.963891,-2.782661,2.5037365,-0.06498113,0.0053263223,-0.06391586,107.34,23.04,20.76
1554206122686,-9.069236,-2.8736405,2.4271219,-0.033023197000000004,0.018109497,-0.043675844000000005,107.4,23.04,20.7
1554206122706,-8.935161,-2.8736405,2.2451627,-0.024501082,0.010652645,-0.03834952,107.4,23.04,20.7
1554206122725,-9.02614,-2.782661,2.2068555,-0.027696876000000002,0.0053263223,-0.05006743,107.46,23.04,20.64
1554206122746,-8.968679,-2.6868927000000005,2.3696610000000002,-0.054328485999999995,-0.004261058,-0.05539375,107.46,23.04,20.58
1554206122765,-8.882488,-2.6342204,2.307412,-0.10013486,0.004261058,-0.07563378,107.46,23.04,20.52
1554206122785,-8.930372,-2.7491422,2.2547395,-0.14913702,0.0063915867,-0.080960095,107.46,23.1,20.58
1554206122805,-8.815451,-2.8927941,2.4510639,-0.16937704,-0.0053263223,-0.08522116,107.46,23.1,20.58
1554206122826,-8.963891,-3.0125043,2.3983915000000002,-0.14168017,-0.0063915867,-0.09267801,107.4,23.1,20.64
1554206122845,-8.992621,-3.0556,2.5133132999999996,-0.082025364,-0.012783173500000002,-0.07669904,107.34,23.1,20.7
1554206122866,-8.968679,-2.8736405,2.3505075,-0.04474111,-0.013848438000000001,-0.07030745599999999,107.28,23.16,20.76
1554206122886,-9.021352,-2.8688521000000002,2.417545,-0.07030745599999999,-0.01917476,-0.07137272,107.16,23.16,20.82
1554206122907,-8.920795,-2.830545,2.355296,-0.111852765,-0.018109497,-0.07882957,107.1,23.16,20.94
1554206122925,-8.954314,-2.7204118,2.3600842999999996,-0.14594123,-0.025566347000000003,-0.07882957,107.04,23.16,21.06
1554206122945,-8.872911,-3.0556,2.40318,-0.13315806,-0.026631612000000002,-0.08628642,106.92,23.16,21.12
1554206122966,-8.99741,-2.9837740000000004,2.4893713,-0.12250541,-0.012783173500000002,-0.08948222,106.86,23.1,21.18
1554206122985,-8.930372,-3.151368,2.3505075,-0.11717909,-0.008522116,-0.07243799,106.8,23.1,21.18
1554206123005,-8.920795,-3.0747535,2.5372553,-0.10972224,0.0010652645,-0.06285059999999999,106.74,23.04,21.24
1554206123026,-8.8777,-3.0891187,2.307412,-0.07563378,0.0053263223,-0.060720075,106.74,23.04,21.24
1554206123046,-8.959103,-3.0268695,2.2164322999999997,-0.058589544,0.0053263223,-0.053263225,106.74,22.98,21.3
1554206123065,-8.939949,-3.1130607000000006,2.3361422999999997,-0.06604639400000001,-0.002130529,-0.049002163,106.74,22.92,21.3
1554206123086,-8.810661999999999,-3.117849,2.3026235,-0.047936900000000005,-0.0053263223,-0.056459017,106.74,22.86,21.3
1554206123105,-8.781932000000001,-3.0843303,2.4366987,-0.020240024,-0.008522116,-0.051132694000000006,106.8,22.8,21.42
1554206123127,-8.935161,-3.0651767000000003,2.331354,0.029827405,0.0063915867,-0.04474111,106.8,22.74,21.54
1554206123146,-8.825027,-3.0891187,2.3840263,0.041545313,0.011717908999999999,-0.046871635999999994,106.8,22.74,21.54
1554206123166,-8.858546,-3.117849,2.4702177000000005,0.06178534,0.024501082,-0.040480047000000005,106.8,22.68,21.6
1554206123185,-8.810661999999999,-3.1705215,2.4271219,0.080960095,0.026631612000000002,-0.037284255,106.8,22.68,21.66
1554206123206,-8.935161,-3.2231941,2.594716,0.14061491,0.03834952,-0.029827405,106.8,22.68,21.78
1554206123225,-8.882488,-3.127426,2.3983915000000002,0.21731395,0.040480047000000005,-0.00958738,106.74,22.68,21.78
1554206123245,-8.901641999999999,-3.0268695,2.3696610000000002,0.2876214,0.047936900000000005,0.012783173500000002,106.74,22.74,21.84
1554206123266,-8.939949,-2.782661,2.0871453,0.2790993,0.04580637,0.011717908999999999,106.74,22.8,21.72
1554206123286,-9.021352,-2.8161798,2.2882583,0.24501082,0.041545313,0.004261058,106.74,22.86,21.6
1554206123306,-8.90643,-2.6964695,2.321777,0.17896444,0.02876214,0.0010652645,106.74,23.04,21.42
1554206123325,-8.930372,-2.7874494,2.460641,0.1587244,0.03089267,-0.008522116,106.74,23.1,21.3
1554206123345,-8.916007,-2.7252002,2.441487,0.165116,0.023435817999999997,-0.0053263223,106.68,23.22,21.12
1554206123366,-8.978256,-2.7682957999999998,2.441487,0.16618125,0.02130529,-0.010652645,106.62,23.28,20.94
1554206123386,-8.901641999999999,-2.7156234,2.4510639,0.13209279,0.018109497,-0.01917476,106.62,23.4,20.82
1554206123406,-8.963891,-2.8113914,2.4558525,0.11824436,0.026631612000000002,-0.03195793,106.56,23.46,20.7
1554206123425,-9.002198,-2.8401217,2.4510639,0.12676647,0.025566347000000003,-0.033023197000000004,106.56,23.52,20.64
1554206123445,-8.848969,-2.8592752999999997,2.4941597,0.15765914,0.036218993,-0.02876214,106.5,23.46,20.58
1554206123466,-9.002198,-2.8209682000000003,2.4702177000000005,0.18642128,0.041545313,-0.035153727999999995,106.5,23.46,20.58
1554206123486,-8.949525999999999,-2.9406781000000004,2.345719,0.25033715,0.049002163,-0.029827405,106.5,23.4,20.64
1554206123506,-8.978256,-2.6342204,2.2307975,0.28336033,0.05006743,-0.011717908999999999,106.56,23.4,20.64
1554206123526,-9.006986999999999,-2.3373394,2.1877017000000003,0.18748654,0.037284255,0.0063915867,106.68,23.46,20.64
1554206123547,-8.916007,-2.4570496,2.1158757,-0.013848438000000001,0.00958738,-0.04580637,106.74,23.52,20.64
1554206123566,-8.892064999999999,-2.4235306,2.1924900000000003,-0.12996227,-0.002130529,-0.07669904,106.8,23.52,20.52
1554206123585,-8.8777,-2.4714148,2.1972785,-0.25246766,-0.013848438000000001,-0.08735169,106.86,23.58,20.4
1554206123606,-8.973467999999999,-2.5767596,2.1972785,-0.36218992,-0.015978966,-0.1107875,106.92,23.64,20.28
1554206123626,-8.992621,-2.60549,2.28347,-0.41864893,-0.024501082,-0.11930962,106.98,23.7,20.16
1554206123646,-8.896853,-2.7539306,2.3840263,-0.49108690000000005,-0.04474111,-0.12250541,106.98,23.7,20.04
1554206123666,-9.035717,-3.0364463,2.5228900000000003,-0.4889564,-0.03834952,-0.13635385,106.98,23.76,19.98
1554206123685,-8.944737,-3.1609447,2.5372553,-0.4165184,-0.040480047000000005,-0.12144015,106.92,23.7,19.98
1554206123706,-9.002198,-3.2279825,2.5995044999999997,-0.31851408,-0.027696876000000002,-0.09267801,106.86,23.7,19.98
1554206123725,-9.030928999999999,-3.1465794999999996,2.2499511,-0.25140239999999997,-0.03195793,-0.07243799,106.8,23.64,20.16
1554206123745,-8.968679,-2.8736405,2.0967221,-0.2695119,-0.025566347000000003,-0.06498113,106.74,23.64,20.34
1554206123766,-8.959103,-2.8449101000000003,2.2068555,-0.33981937,-0.03089267,-0.08522116,106.68,23.58,20.52
1554206123785,-8.916007,-3.0747535,2.1110873,-0.406931,-0.040480047000000005,-0.1107875,106.56,23.52,20.76
1554206123806,-8.901641999999999,-3.141791,2.307412,-0.41971418,-0.046871635999999994,-0.113983296,106.5,23.46,21.06
1554206123825,-8.863335000000001,-3.4003648999999996,2.3840263,-0.36645097,-0.046871635999999994,-0.10439592,106.44,23.4,21.36
1554206123846,-8.872911,-3.5296519,2.5037365,-0.23861924,-0.033023197000000004,-0.084155895,106.44,23.34,21.6
1554206123867,-8.834603999999999,-3.5152867,2.28347,-0.08735169,-0.007456851,-0.060720075,106.38,23.28,21.78
1554206123886,-8.762777999999999,-3.3572693,2.2499511,0.01917476,0.0010652645,-0.041545313,106.32,23.22,21.96
1554206123906,-8.896853,-3.3141737,2.0919337,0.04261058,0.008522116,-0.039414786,106.26,23.16,22.14
1554206123926,-8.887277000000001,-3.2040405,2.0248961,0.017044231,0.0063915867,-0.033023197000000004,106.26,23.1,22.32
1554206123946,-8.930372,-3.0556,2.0919337,-0.015978966,-0.0010652645,-0.04261058,106.26,23.1,22.44
1554206123966,-8.8777,-3.256713,2.1972785,-0.04261058,-0.00958738,-0.05006743,106.26,23.04,22.44
1554206123986,-8.863335000000001,-3.1896752999999998,2.345719,-0.05006743,-0.0053263223,-0.047936900000000005,106.2,22.98,22.44
1554206124006,-8.8777,-3.1465794999999996,2.144606,-0.034088463,0.013848438000000001,-0.046871635999999994,106.2,22.98,22.5
1554206124026,-8.872911,-3.232771,2.2882583,-0.024501082,0.00958738,-0.035153727999999995,106.2,22.92,22.5
1554206124046,-8.968679,-3.2423477000000003,2.1877017000000003,-0.0053263223,0.012783173500000002,-0.036218993,106.14,22.92,22.5
1554206124065,-8.930372,-3.2136172999999997,2.202067,0.012783173500000002,0.008522116,-0.022370555,106.14,22.86,22.5
1554206124085,-8.939949,-3.103484,2.082357,0.01917476,0.015978966,-0.025566347000000003,106.14,22.86,22.56
1554206124106,-8.916007,-3.1992521000000003,2.1398177000000005,0.0053263223,0.017044231,-0.026631612000000002,106.2,22.8,22.68
1554206124125,-8.911219000000001,-3.208829,2.1206641,-0.020240024,0.0063915867,-0.029827405,106.2,22.74,22.74
1554206124145,-8.844180999999999,-3.2423477000000003,2.2307975,-0.029827405,0.002130529,-0.024501082,106.26,22.74,22.8
1554206124166,-8.887277000000001,-3.1800982999999996,2.2691047,0.0,0.008522116,-0.03195793,106.26,22.68,22.86
1554206124185,-9.016563,-3.256713,1.977012,0.02130529,0.014913702,-0.026631612000000002,106.2,22.56,22.92
1554206124206,-8.983044999999999,-3.1705215,2.0440497,0.014913702,0.014913702,-0.02876214,106.2,22.5,22.92
1554206124225,-8.959103,-3.232771,2.2691047,0.0010652645,0.0053263223,-0.02876214,106.14,22.44,22.98
1554206124245,-9.002198,-3.0986955000000003,2.0967221,0.011717908999999999,0.0063915867,-0.03195793,106.08,22.38,22.92
1554206124265,-9.030928999999999,-3.0125043,2.0871453,0.02130529,0.002130529,-0.03089267,106.08,22.38,22.86
1554206124287,-8.896853,-3.1705215,2.2212207000000004,0.034088463,-0.0010652645,-0.03195793,106.02,22.38,22.86
1554206124307,-8.920795,-3.1561562999999997,2.0871453,0.04580637,-0.017044231,-0.03089267,106.02,22.44,22.8
1554206124325,-8.916007,-3.1657330000000004,2.28347,0.07350325,-0.022370555,-0.024501082,106.08,22.5,22.74
1554206124346,-8.781932000000001,-3.1226375,2.0919337,0.07776430000000001,-0.020240024,-0.024501082,106.14,22.56,22.74
1554206124366,-9.040505,-3.103484,2.0105310000000003,0.05752428,-0.008522116,-0.033023197000000004,106.26,22.62,22.68
1554206124385,-8.973467999999999,-3.2136172999999997,1.9913772,0.00958738,-0.022370555,-0.020240024,106.32,22.68,22.68
1554206124406,-8.959103,-3.0556,2.3409307,-0.004261058,-0.03834952,-0.01917476,106.44,22.74,22.68
1554206124425,-8.90643,-3.0268695,2.2260091,0.023435817999999997,-0.039414786,-0.025566347000000003,106.5,22.8,22.68
1554206124445,-8.810661999999999,-3.117849,2.1924900000000003,0.035153727999999995,-0.03089267,-0.02876214,106.5,22.86,22.62
1554206124466,-8.853758000000001,-3.1465794999999996,2.2212207000000004,0.018109497,-0.022370555,-0.027696876000000002,106.56,22.86,22.62
1554206124489,-8.892064999999999,-3.1322143,2.28347,0.02876214,-0.017044231,-0.020240024,106.56,22.86,22.62
1554206124505,-8.887277000000001,-3.2040405,2.1015105,0.05006743,-0.012783173500000002,-0.02130529,106.56,22.86,22.62
1554206124525,-8.99741,-3.0891187,2.130241,0.07669904,-0.007456851,-0.017044231,106.5,22.86,22.62
1554206124546,-8.901641999999999,-3.007716,2.2547395,0.084155895,-0.011717908999999999,-0.004261058,106.5,22.8,22.62
1554206124565,-8.714894000000001,-2.9694088,2.3169887000000005,0.08628642,-0.0031957934000000003,-0.01917476,106.44,22.8,22.62
1554206124585,-8.825027,-2.9406781000000004,2.3265655,0.056459017,0.00958738,-0.04580637,106.44,22.86,22.62
1554206124606,-8.930372,-2.9837740000000004,2.1206641,0.007456851,0.022370555,-0.05006743,106.5,22.86,22.62
1554206124625,-8.935161,-3.0986955000000003,1.9865887999999998,-0.023435817999999997,0.013848438000000001,-0.053263225,106.56,22.92,22.56
1554206124645,-9.059659,-3.093907,2.1015105,-0.014913702,-0.0010652645,-0.04580637,106.56,22.92,22.56
1554206124665,-8.949525999999999,-3.1896752999999998,2.321777,-0.007456851,-0.018109497,-0.03195793,106.56,22.92,22.5
1554206124685,-9.021352,-3.0891187,2.3026235,0.046871635999999994,-0.012783173500000002,-0.03089267,106.62,22.86,22.5
1554206124705,-8.8777,-3.1465794999999996,2.297835,0.09054748,-0.017044231,-0.022370555,106.68,22.86,22.44
1554206124725,-8.983044999999999,-3.0364463,2.2212207000000004,0.083090626,-0.00958738,-0.01917476,106.68,22.8,22.32
1554206124745,-8.916007,-2.9215245,2.1972785,0.046871635999999994,-0.008522116,-0.02130529,106.62,22.74,22.26
1554206124765,-8.858546,-3.0843303,2.379238,0.029827405,-0.0053263223,-0.034088463,106.62,22.68,22.26
1554206124786,-8.820239,-2.9741971,2.0871453,0.034088463,-0.004261058,-0.035153727999999995,106.56,22.56,22.2
1554206124805,-8.978256,-3.0603882999999996,2.2499511,0.060720075,0.0063915867,-0.026631612000000002,106.5,22.5,22.14
1554206124826,-8.978256,-2.9885623,2.1254525,0.07456851,0.0010652645,-0.013848438000000001,106.5,22.5,22.14
1554206124845,-8.920795,-2.8832173,2.3026235,0.05219796,0.0,-0.0053263223,106.44,22.5,22.08
1554206124865,-8.920795,-2.8975825,2.1877017000000003,0.035153727999999995,-0.0031957934000000003,-0.014913702,106.44,22.5,22.08
1554206124885,-8.882488,-2.9167361,2.1398177000000005,0.014913702,-0.012783173500000002,-0.025566347000000003,106.44,22.5,22.02
1554206124906,-8.954314,-2.806603,2.297835,-0.004261058,-0.017044231,-0.018109497,106.38,22.56,22.02
1554206124926,-8.844180999999999,-2.830545,2.484583,-0.033023197000000004,-0.0031957934000000003,-0.020240024,106.38,22.62,22.02
1554206124945,-8.844180999999999,-2.8209682000000003,2.2451627,-0.10759171,0.02130529,-0.05539375,106.38,22.68,21.96
1554206124966,-8.872911,-2.8880057,2.0440497,-0.20559604,0.033023197000000004,-0.07137272,106.38,22.74,21.96
1554206124986,-9.002198,-2.9933507,1.9003976999999999,-0.24074976,0.024501082,-0.07882957,106.38,22.8,21.96
1554206125005,-8.954314,-3.0412347,1.6657659,-0.32277513,-0.025566347000000003,-0.06924219,106.38,22.68,21.96
1554206125025,-9.050082000000002,-2.9694088,1.9961656000000003,-0.43249738,-0.06391586,-0.06711166,106.38,22.5,21.96
1554206125045,-8.829816000000001,-3.1561562999999997,2.3026235,-0.47617322,-0.09054748,-0.08628642,106.38,22.38,21.96
1554206125066,-8.920795,-3.2902317,2.570774,-0.38562572,-0.06924219,-0.09587380000000001,106.38,22.26,21.96
1554206125085,-8.834603999999999,-3.3381157,2.475006,-0.24927188,-0.056459017,-0.068176925,106.38,22.14,22.02
1554206125105,-8.810661999999999,-3.3859997,2.2930467,-0.12463594,-0.024501082,-0.068176925,106.38,21.96,22.14
1554206125125,-8.853758000000001,-3.4482489999999997,2.2164322999999997,-0.06391586,-0.00958738,-0.05539375,106.38,21.84,22.32
1554206125146,-8.853758000000001,-3.3859997,2.1206641,-0.012783173500000002,0.0031957934000000003,-0.039414786,106.38,21.72,22.5
1554206125166,-8.820239,-3.2615013,2.0201077,0.04474111,0.00958738,-0.033023197000000004,106.38,21.72,22.68
1554206125186,-8.829816000000001,-3.0747535,2.0440497,0.06391586,0.0,-0.027696876000000002,106.44,21.72,22.86
1554206125205,-8.772355000000001,-3.0029275,2.0871453,0.02876214,0.010652645,-0.033023197000000004,106.44,21.72,23.04
1554206125225,-8.90643,-3.0460230999999998,1.9722236000000002,-0.024501082,0.014913702,-0.049002163,106.44,21.72,23.22
1554206125245,-8.959103,-3.0603882999999996,2.0344729999999998,-0.07243799,-0.002130529,-0.05752428,106.5,21.72,23.34
1554206125265,-8.7771435,-3.1130607000000006,2.0679917000000003,-0.10652645,-0.010652645,-0.056459017,106.62,21.78,23.4
1554206125285,-8.963891,-3.2806550000000003,2.1158757,-0.12996227,-0.002130529,-0.06711166,106.68,21.78,23.46
1554206125306,-8.920795,-3.3476925000000004,2.0775685,-0.13848437,0.0,-0.051132694000000006,106.74,21.84,23.4
1554206125326,-8.911219000000001,-3.1753099999999996,2.2068555,-0.10333065,-0.0053263223,-0.04580637,106.8,21.84,23.4
1554206125346,-8.987833,-3.2279825,2.2212207000000004,-0.08735169,-0.0031957934000000003,-0.04580637,106.86,21.84,23.4
1554206125365,-8.987833,-3.1992521000000003,2.0105310000000003,-0.09161274,-0.0010652645,-0.04580637,106.92,21.9,23.34
1554206125385,-8.983044999999999,-3.2758665000000002,2.0919337,-0.08948222,-0.007456851,-0.05006743,106.92,21.96,23.34
1554206125405,-8.944737,-3.2806550000000003,2.0871453,-0.07456851,-0.023435817999999997,-0.05219796,106.92,22.02,23.28
1554206125425,-8.954314,-3.1800982999999996,1.9865887999999998,-0.03089267,-0.022370555,-0.05006743,106.86,22.02,23.28
1554206125446,-8.954314,-3.1657330000000004,2.1206641,0.004261058,-0.020240024,-0.041545313,106.86,22.08,23.28
1554206125466,-8.944737,-3.1992521000000003,1.9913772,-0.0063915867,-0.029827405,-0.033023197000000004,106.8,22.08,23.34
1554206125486,-8.911219000000001,-3.1896752999999998,1.8860323,-0.04261058,-0.04261058,-0.041545313,106.74,22.08,23.4
1554206125505,-8.8777,-3.2279825,2.0392613,-0.083090626,-0.04261058,-0.034088463,106.68,22.08,23.46
1554206125525,-8.944737,-3.2040405,2.0919337,-0.10333065,-0.040480047000000005,-0.03834952,106.62,22.02,23.52
1554206125546,-8.748413000000001,-3.2615013,2.3744495,-0.09054748,-0.03089267,-0.043675844000000005,106.62,21.96,23.58
1554206125566,-8.8777,-3.4147300000000005,2.2164322999999997,-0.037284255,-0.018109497,-0.043675844000000005,106.62,21.9,23.58
1554206125586,-8.815451,-3.342904,2.130241,0.011717908999999999,-0.020240024,-0.03195793,106.56,21.84,23.64
1554206125607,-8.801085,-3.3476925000000004,2.0967221,0.04580637,-0.013848438000000001,-0.03195793,106.56,21.78,23.64
1554206125627,-8.858546,-3.2758665000000002,2.178125,0.04474111,-0.00958738,-0.024501082,106.56,21.72,23.64
1554206125647,-8.853758000000001,-3.2471360000000002,2.1637597,0.036218993,-0.010652645,-0.023435817999999997,106.56,21.72,23.64
1554206125667,-8.916007,-3.4338839999999995,2.1398177000000005,0.012783173500000002,-0.0053263223,-0.00958738,106.62,21.72,23.58
1554206125686,-8.829816000000001,-3.6014779000000003,2.28347,0.058589544,0.015978966,0.03089267,106.68,21.66,23.58
1554206125706,-8.925583999999999,-3.4530375,2.5468319999999998,0.19920446,0.03089267,0.047936900000000005,106.68,21.66,23.58
1554206125726,-8.916007,-3.2423477000000003,2.1398177000000005,0.39095205,0.029827405,0.040480047000000005,106.68,21.6,23.58
1554206125746,-8.834603999999999,-3.2136172999999997,2.0153193,0.35153726,0.02876214,0.05965481,106.68,21.6,23.58
1554206125765,-9.02614,-3.328539,2.2451627,0.30360037,0.034088463,0.06178534,106.68,21.6,23.58
1554206125785,-8.939949,-3.3907879999999997,2.4893713,0.45806372,0.022370555,0.04580637,106.68,21.6,23.58
1554206125806,-8.815451,-3.1130607000000006,2.5755625,0.67963874,0.029827405,0.025566347000000003,106.68,21.6,23.52
1554206125826,-8.796297000000001,-3.0843303,2.321777,0.8671253000000001,0.049002163,0.014913702,106.68,21.66,23.4
1554206125845,-8.920795,-3.0986955000000003,2.1972785,0.87777793,0.060720075,0.010652645,106.68,21.66,23.28
1554206125865,-9.002198,-3.0986955000000003,2.7910407000000004,0.8863,0.06604639400000001,0.03834952,106.68,21.78,23.1
1554206125887,-8.75799,-2.926313,2.6761188999999996,1.0183928,0.09054748,0.043675844000000005,106.68,21.9,22.98
1554206125909,-8.90643,-2.7539306,2.4797945,1.0908308,0.13315806,0.05219796,106.68,22.02,22.8
1554206125925,-9.074024,-2.5959132,2.3409307,1.0684601999999999,0.15978967,0.08948222,106.74,22.14,22.56
1554206125947,-9.078813,-2.6390088,2.556409,1.0567423,0.15978967,0.09587380000000001,106.86,22.38,22.14
1554206125967,-8.973467999999999,-2.5719712,2.5468319999999998,1.1270498,0.15552860000000002,0.07243799,106.92,22.62,21.66
1554206125987,-9.021352,-2.7682957999999998,2.7383683,1.2825783000000002,0.15339808,0.082025364,106.98,22.92,21.18
1554206126007,-9.150639,-2.878429,2.9346926,1.663943,0.12144015,0.094808534,107.1,23.16,20.64
1554206126027,-9.284714,-2.9550436,2.7527334999999997,2.2615564,0.05539375,0.08841695,107.22,23.46,20.04
1554206126046,-9.313444,-2.8449101000000003,2.7096379,2.91989,-0.02130529,0.07669904,107.34,23.76,19.32
1554206126066,-9.303867,-2.4809916000000003,2.9730000000000003,3.5792885,-0.083090626,0.06924219,107.46,24.18,18.36
1554206126086,-9.131485000000001,-2.0404584,3.245939,4.169445,-0.12463594,0.054328485999999995,107.52,24.54,17.22
1554206126106,-8.839393,-1.5041572,2.9730000000000003,4.531635,-0.11717909,0.008522116,107.58,24.78,16.02
1554206126125,-8.796297000000001,-0.9295488000000001,2.891597,4.623247599999999,-0.09161274,-0.054328485999999995,107.7,24.96,14.58
1554206126146,-8.901641999999999,-0.64703304,2.7431567,4.5699844,-0.07030745599999999,-0.12144015,107.76,25.14,12.84
1554206126165,-9.136273,-0.4985925,2.7910407000000004,4.4986120000000005,-0.046871635999999994,-0.16298546,107.76,25.26,10.8
1554206126185,-9.074024,-0.31184477,2.7623102999999998,4.446414,-0.047936900000000005,-0.14274544,107.82,25.26,8.7
1554206126206,-9.160214999999999,0.29149407,2.6473885,4.327104,-0.035153727999999995,-0.10333065,107.82,24.96,6.3
1554206126225,-9.241617999999999,0.8996213,2.4462755,3.9819586000000005,-0.03195793,-0.025566347000000003,107.82,24.3,3.96
1554206126245,-9.126697,1.2970588,2.475006,3.5856802000000005,-0.04474111,0.03195793,107.82,23.52,1.56
1554206126267,-8.944737,2.0967221,2.40318,2.7462517999999996,-0.040480047000000005,0.08735169,107.82,22.44,-0.9
1554206126286,-8.935161,2.7383683,2.2882583,1.9781961,-0.05539375,0.09374327,107.76,21.0,-3.12
1554206126306,-8.863335000000001,3.1789012000000003,2.3744495,1.1547466999999998,-0.034088463,0.056459017,107.76,19.44,-5.04
1554206126326,-9.011775,3.0879216,2.3983915000000002,0.60720074,-0.00958738,0.014913702,107.7,17.88,-6.72
1554206126346,-9.045294,2.8101943,2.8820202,0.051132694000000006,0.0031957934000000003,-0.037284255,107.64,16.38,-8.16
1554206126365,-8.968679,2.0536265,3.1693244,-0.26844665,0.014913702,-0.08841695,107.64,15.12,-9.24
1554206126385,-9.069236,1.4359225,3.413533,-0.43036684,0.047936900000000005,-0.10972224,107.58,14.1,-10.08
1554206126406,-9.323022,1.1965023000000001,3.4901476000000002,-0.44421527,0.07669904,-0.07030745599999999,107.52,13.26,-10.62
1554206126426,-9.457097000000001,0.83737206,3.518878,-0.31638354,0.068176925,0.029827405,107.52,12.72,-10.98
1554206126446,-9.442732000000001,0.87089086,3.2650926,-0.15978967,0.040480047000000005,0.14274544,107.52,12.54,-11.22
1554206126466,-9.255983,1.0241197,3.5236663999999998,0.068176925,0.007456851,0.14061491,107.52,12.42,-11.34
1554206126485,-9.279925,1.4646529,3.3225534,0.33981937,-0.018109497,0.084155895,107.58,12.42,-11.46
1554206126505,-9.088389,1.9578583999999999,3.1597476,0.58269966,-0.043675844000000005,0.06178534,107.58,12.42,-11.58
1554206126525,-8.887277000000001,2.0488381,2.7910407000000004,0.7275756,-0.046871635999999994,0.05219796,107.58,12.42,-11.64
1554206126545,-8.916007,1.9387047999999998,2.556409,0.67005134,-0.029827405,0.05219796,107.64,12.42,-11.7
1554206126566,-8.853758000000001,1.9195513,2.5228900000000003,0.44634579999999996,0.0031957934000000003,0.06498113,107.7,12.36,-11.7
1554206126586,-8.810661999999999,2.0344729999999998,2.4462755,0.19281286,0.018109497,0.08948222,107.7,12.24,-11.64
1554206126606,-8.7532015,2.379238,2.475006,-0.053263225,0.011717908999999999,0.09054748,107.7,12.06,-11.58
1554206126625,-8.346188,2.6473885,2.5133132999999996,-0.25353295,0.011717908999999999,0.05006743,107.7,11.82,-11.58
1554206126645,-8.279149,2.4079683,2.8389246,-0.33875409999999995,0.05539375,-0.05006743,107.76,11.52,-11.64
1554206126666,-8.743625,2.1829132999999996,2.9107506,-0.31638354,0.07350325,-0.10865697,107.82,11.04,-11.7
1554206126685,-8.959103,2.0057424999999998,2.8963853999999998,-0.36218992,0.06604639400000001,-0.07776430000000001,107.88,10.8,-11.76
1554206126706,-9.074024,1.9961656000000003,2.7814639,-0.46658584,0.07137272,-0.049002163,107.88,10.56,-11.82
1554206126725,-9.188946000000001,1.9482816000000003,3.0544027999999996,-0.62317973,0.08735169,-0.023435817999999997,107.94,10.38,-11.88
1554206126745,-9.141062,1.8620903000000002,3.2555158,-0.6508765999999999,0.10439592,-0.035153727999999995,107.94,10.32,-11.94
1554206126765,-9.059659,1.6035166,3.4039562000000005,-0.49002165,0.12570119999999999,-0.08628642,108.0,10.32,-11.88
1554206126785,-9.097966,1.3976152,3.164536,-0.19600865,0.12570119999999999,-0.111852765,108.0,10.5,-11.82
1554206126806,-9.112331,1.4598645000000001,2.8868085999999997,-0.07243799,0.098004326,-0.08522116,108.0,10.86,-11.7
1554206126825,-8.939949,1.4119805,2.8054059,-0.05752428,0.051132694000000006,-0.06604639400000001,108.0,11.16,-11.52
1554206126845,-8.887277000000001,1.3688848,2.8054059,-0.03089267,0.02130529,-0.07563378,108.06,11.52,-11.4
1554206126867,-9.059659,1.3497312,2.7814639,0.039414786,0.013848438000000001,-0.07669904,108.06,11.88,-11.22
1554206126886,-9.136273,1.3688848,2.6569653,0.10226539,0.0010652645,-0.053263225,108.12,12.18,-11.1
1554206126906,-9.193734,1.6274586000000002,2.6952724,0.13102753,-0.02130529,-0.029827405,108.18,12.48,-11.04
1554206126926,-8.954314,1.7663223000000001,3.0831332000000002,0.16937704,-0.035153727999999995,-0.03089267,108.18,12.66,-10.92
1554206126946,-9.006986999999999,1.9003976999999999,2.9969419999999998,0.26312032,-0.027696876000000002,-0.046871635999999994,108.24,12.72,-10.86
1554206126965,-9.179369,1.9626468000000001,2.8868085999999997,0.30679616,-0.020240024,-0.043675844000000005,108.3,12.72,-10.86
1554206126986,-9.160214999999999,2.1062990000000004,2.9203273999999997,0.25140239999999997,-0.008522116,-0.025566347000000003,108.3,12.66,-10.86
1554206127005,-9.02614,2.0536265,2.9011737999999996,0.14807177,0.008522116,-0.037284255,108.3,12.54,-10.86
1554206127026,-9.093178,2.0679917000000003,2.9825767999999995,0.049002163,0.023435817999999997,-0.06178534,108.3,12.36,-10.86
1554206127045,-9.107543,1.9626468000000001,2.9969419999999998,0.036218993,0.022370555,-0.068176925,108.3,12.24,-10.86
1554206127066,-9.059659,1.9674352,2.7910407000000004,0.034088463,0.017044231,-0.084155895,108.36,12.12,-10.86
1554206127085,-8.968679,1.9387047999999998,2.843713,0.015978966,0.0,-0.10546118,108.36,12.0,-10.86
1554206127105,-8.99741,1.8860323,2.843713,-0.014913702,-0.00958738,-0.11504856,108.36,11.94,-10.86
1554206127125,-9.050082000000002,1.6178818000000001,2.8485014,-0.035153727999999995,-0.008522116,-0.111852765,108.42,11.82,-10.86
1554206127146,-9.179369,1.584363,2.7048495,-0.040480047000000005,-0.018109497,-0.10546118,108.48,11.82,-10.86
1554206127165,-9.155427,1.6609775000000002,2.7670987,-0.05752428,-0.03834952,-0.09161274,108.48,11.88,-10.86
1554206127185,-9.030928999999999,1.7758990000000001,2.9011737999999996,-0.039414786,-0.04474111,-0.094808534,108.48,11.94,-10.92
1554206127205,-9.064447,1.7136499,3.0496144,-0.020240024,-0.039414786,-0.112918034,108.48,12.0,-10.92
1554206127226,-9.184157,1.6801311,3.09271,-0.054328485999999995,-0.015978966,-0.111852765,108.48,12.06,-10.92
1554206127245,-9.093178,1.6130934,2.9203273999999997,-0.08628642,-0.007456851,-0.09374327,108.42,12.18,-10.92
1554206127265,-9.136273,1.5987281999999998,2.915539,-0.12783173,-0.0010652645,-0.07350325,108.42,12.3,-10.92
1554206127285,-9.093178,1.6035166,3.0160956000000003,-0.1438107,0.0010652645,-0.06604639400000001,108.42,12.48,-10.92
1554206127305,-9.165004,1.5747862,2.8054059,-0.13741912,0.007456851,-0.06498113,108.42,12.66,-10.92
1554206127328,-9.059659,1.5412674,2.9059622000000003,-0.099069595,0.0063915867,-0.060720075,108.36,12.72,-10.86
1554206127347,-8.944737,1.4933833,2.9730000000000003,-0.06924219,0.002130529,-0.05752428,108.36,12.84,-10.86
1554206127366,-8.992621,1.5412674,2.7814639,-0.056459017,-0.013848438000000001,-0.05965481,108.42,12.9,-10.86
1554206127386,-9.088389,1.4694413,2.9682117000000003,-0.07243799,-0.008522116,-0.06391586,108.42,12.96,-10.8
1554206127406,-9.074024,1.5029601000000001,2.8868085999999997,-0.10333065,-0.012783173500000002,-0.060720075,108.36,13.02,-10.8
1554206127426,-9.088389,1.5460558,2.9538465,-0.12037488,-0.012783173500000002,-0.06391586,108.3,12.96,-10.8
1554206127446,-9.083601,1.5508442,2.9873652,-0.12996227,-0.011717908999999999,-0.068176925,108.18,12.96,-10.8
1554206127466,-9.150639,1.5652093999999999,3.0831332000000002,-0.11717909,-0.011717908999999999,-0.05752428,108.06,12.9,-10.8
1554206127485,-9.188946000000001,1.5173253,3.0879216,-0.082025364,-0.014913702,-0.05006743,107.94,12.9,-10.74
1554206127505,-9.078813,1.4215573000000001,3.2890346,-0.022370555,-0.014913702,-0.049002163,107.82,12.9,-10.74
1554206127526,-9.188946000000001,1.4981716999999999,3.0831332000000002,0.034088463,-0.010652645,-0.03834952,107.76,12.96,-10.68
1554206127546,-9.251195,1.4790181,3.1693244,0.040480047000000005,0.0053263223,-0.007456851,107.7,12.96,-10.62
1554206127566,-9.179369,1.4981716999999999,3.0639796,0.06178534,0.010652645,0.010652645,107.7,13.02,-10.56
1554206127585,-9.107543,1.5412674,2.9346926,0.07989483,0.011717908999999999,0.013848438000000001,107.76,13.02,-10.5
1554206127605,-9.040505,1.6992846999999998,2.9394810000000002,0.07882957,0.0,0.002130529,107.88,12.96,-10.5
1554206127626,-9.011775,1.7758990000000001,2.7431567,0.05539375,-0.004261058,-0.017044231,107.94,12.96,-10.5
1554206127645,-9.016563,1.7375918999999997,2.8389246,0.014913702,-0.0063915867,-0.029827405,108.0,12.9,-10.5
1554206127665,-9.030928999999999,1.6944963,2.8628666000000003,-0.024501082,-0.018109497,-0.036218993,108.0,12.9,-10.5
1554206127686,-9.069236,1.6178818000000001,2.8772318,-0.05006743,-0.022370555,-0.036218993,108.0,12.84,-10.5
1554206127706,-9.006986999999999,1.6801311,2.7575218999999995,-0.054328485999999995,-0.03089267,-0.043675844000000005,108.0,12.78,-10.56
1554206127726,-9.064447,1.7471686999999998,2.9299042,-0.06178534,-0.035153727999999995,-0.053263225,108.0,12.78,-10.62
1554206127746,-8.935161,1.7806876,3.0065188,-0.094808534,-0.039414786,-0.06178534,108.0,12.72,-10.62
1554206127765,-8.935161,1.6609775000000002,3.0639796,-0.13848437,-0.035153727999999995,-0.07137272,108.0,12.78,-10.62
1554206127785,-9.040505,1.6657659,2.9730000000000003,-0.16298546,-0.03089267,-0.06924219,108.06,12.78,-10.62
1554206127805,-8.992621,1.5077485000000002,3.2746694,-0.1587244,-0.025566347000000003,-0.06178534,108.06,12.84,-10.62
1554206127825,-8.99741,1.4838065,3.1836896,-0.12783173,-0.015978966,-0.06711166,108.18,12.9,-10.62
1554206127846,-9.006986999999999,1.4359225,3.2172085999999998,-0.082025364,-0.007456851,-0.07669904,108.3,12.96,-10.56
1554206127866,-8.992621,1.3880384,3.1597476,-0.06391586,0.002130529,-0.07989483,108.42,13.02,-10.56
1554206127886,-9.045294,1.4263457,2.9682117000000003,-0.09267801,0.008522116,-0.07669904,108.54,13.08,-10.5
1554206127906,-9.169792,1.3449427999999999,3.1836896,-0.11504856,0.008522116,-0.06498113,108.48,13.14,-10.44
1554206127925,-9.169792,1.3018471999999999,3.1932666000000003,-0.10546118,0.012783173500000002,-0.047936900000000005,108.36,13.2,-10.38
1554206127945,-9.045294,1.2635399,3.1118636000000004,-0.022370555,0.015978966,-0.040480047000000005,108.24,13.32,-10.38
1554206127966,-9.136273,1.311424,3.1501707999999997,0.046871635999999994,0.010652645,-0.034088463,108.12,13.5,-10.32
1554206127986,-9.050082000000002,1.4885948999999998,2.9873652,0.08948222,0.0053263223,-0.029827405,107.94,13.62,-10.26
1554206128006,-9.02614,1.5125369,3.0496144,0.083090626,-0.0031957934000000003,-0.02876214,107.76,13.74,-10.26
1554206128025,-9.050082000000002,1.5556326,2.8628666000000003,0.080960095,0.002130529,-0.025566347000000003,107.64,13.8,-10.26
1554206128045,-9.126697,1.4550761,2.949058,0.082025364,0.0053263223,-0.027696876000000002,107.52,13.92,-10.26
1554206128066,-9.102755,1.5556326,2.8628666000000003,0.08735169,0.011717908999999999,-0.02130529,107.52,13.98,-10.2
1554206128086,-9.078813,1.5747862,2.9299042,0.08522116,0.004261058,-0.015978966,107.64,14.04,-10.2
1554206128106,-9.045294,1.6083049999999999,3.0065188,0.083090626,0.0063915867,-0.023435817999999997,107.76,14.04,-10.2
1554206128126,-9.11712,1.6514006,2.8389246,0.07776430000000001,0.011717908999999999,-0.03195793,107.82,13.98,-10.26
1554206128145,-9.088389,1.6753427,2.9059622000000003,0.05752428,0.012783173500000002,-0.036218993,107.88,13.92,-10.26
1554206128165,-9.069236,1.5556326,2.8963853999999998,0.02876214,0.014913702,-0.04261058,107.94,13.86,-10.26
1554206128185,-9.203311,1.6226702,2.9921536,-0.017044231,0.00958738,-0.04580637,107.94,13.86,-10.32
1554206128206,-9.083601,1.5221136999999998,3.0496144,-0.024501082,0.00958738,-0.039414786,107.94,13.8,-10.32
1554206128226,-9.107543,1.4885948999999998,3.0400376000000002,0.004261058,0.004261058,-0.041545313,107.94,13.8,-10.32
1554206128246,-9.083601,1.4790181,3.1597476,0.04474111,0.0031957934000000003,-0.041545313,107.94,13.74,-10.32
1554206128265,-9.102755,1.5747862,3.2698810000000003,0.10333065,0.0031957934000000003,-0.040480047000000005,107.94,13.74,-10.38
1554206128285,-9.126697,1.5221136999999998,3.1022868,0.13954964,0.017044231,-0.040480047000000005,107.94,13.74,-10.38
1554206128305,-9.160214999999999,1.6418238,2.915539,0.12037488,0.00958738,-0.02876214,107.94,13.68,-10.44
1554206128326,-9.169792,1.6992846999999998,2.8293478,0.07243799,-0.007456851,-0.017044231,108.0,13.62,-10.5
1554206128346,-8.959103,1.6561891,2.8772318,0.041545313,-0.01917476,-0.018109497,108.0,13.56,-10.5
1554206128366,-9.002198,1.6083049999999999,2.7527334999999997,0.014913702,-0.034088463,-0.027696876000000002,108.06,13.5,-10.56
1554206128386,-8.959103,1.7280151000000001,2.8149827000000003,-0.023435817999999997,-0.041545313,-0.02876214,108.06,13.44,-10.62
1554206128406,-9.102755,1.7136499,2.5899277,-0.09161274,-0.047936900000000005,-0.03089267,108.12,13.32,-10.68
1554206128426,-9.136273,1.5125369,2.9873652,-0.17257284,-0.06391586,-0.040480047000000005,108.12,13.2,-10.68
1554206128445,-8.930372,1.5269021,3.2986114,-0.14807177,-0.05752428,-0.05006743,108.18,13.14,-10.74
1554206128465,-8.983044999999999,1.5077485000000002,3.3752258,-0.05539375,-0.027696876000000002,-0.068176925,108.18,13.08,-10.74
1554206128486,-9.016563,1.5125369,3.2028434,-0.0053263223,-0.004261058,-0.06711166,108.18,13.08,-10.74
1554206128506,-8.978256,1.5221136999999998,3.0065188,-0.01917476,0.014913702,-0.053263225,108.18,13.02,-10.8
1554206128526,-9.002198,1.5364790000000002,3.1741127999999996,-0.04261058,0.026631612000000002,-0.039414786,108.18,13.02,-10.8
1554206128545,-8.959103,1.4981716999999999,3.0304607999999997,-0.02130529,0.03089267,-0.027696876000000002,108.12,12.96,-10.86
1554206128566,-9.021352,1.6178818000000001,2.9107506,0.026631612000000002,0.024501082,-0.034088463,108.06,12.96,-10.86
1554206128586,-9.050082000000002,1.632247,2.8868085999999997,0.043675844000000005,0.015978966,-0.04580637,108.06,12.96,-10.86
1554206128606,-9.006986999999999,1.6561891,3.044826,0.010652645,0.0053263223,-0.058589544,108.0,12.96,-10.86
1554206128626,-9.093178,1.6705543,3.0065188,-0.056459017,0.0031957934000000003,-0.06498113,108.0,12.96,-10.74
1554206128646,-9.097966,1.4454993,3.0974984,-0.09054748,0.007456851,-0.060720075,107.94,12.96,-10.62
1554206128665,-9.169792,1.5269021,3.068768,-0.08628642,0.011717908999999999,-0.056459017,107.94,13.02,-10.5
1554206128685,-9.126697,1.4502877,2.9921536,-0.039414786,0.018109497,-0.05539375,107.94,13.02,-10.44
1554206128706,-9.097966,1.3688848,3.1214404,0.012783173500000002,0.008522116,-0.05219796,107.94,13.02,-10.32
1554206128726,-9.074024,1.4646529,2.8580782000000005,0.04580637,0.0031957934000000003,-0.046871635999999994,107.88,13.08,-10.2
1554206128747,-9.112331,1.4790181,2.9586349,0.034088463,0.0031957934000000003,-0.04580637,107.88,13.08,-10.08
1554206128765,-9.126697,1.5221136999999998,2.949058,0.01917476,0.004261058,-0.041545313,107.88,13.14,-10.08
1554206128786,-9.054871,1.5077485000000002,2.949058,0.02876214,0.0031957934000000003,-0.043675844000000005,107.82,13.2,-10.08
1554206128805,-9.030928999999999,1.5652093999999999,2.9011737999999996,0.054328485999999995,0.0063915867,-0.04261058,107.76,13.26,-10.08
1554206128825,-9.050082000000002,1.5747862,2.8101943,0.060720075,0.007456851,-0.03834952,107.76,13.32,-10.14
1554206128846,-9.059659,1.6178818000000001,2.9921536,0.060720075,0.010652645,-0.04474111,107.7,13.32,-10.14
1554206128865,-9.011775,1.6083049999999999,2.9394810000000002,0.05965481,0.011717908999999999,-0.058589544,107.64,13.38,-10.14
1554206128886,-9.184157,1.4694413,2.9011737999999996,0.034088463,0.013848438000000001,-0.05965481,107.58,13.44,-10.2
1554206128906,-9.212888000000001,1.5029601000000001,2.7623102999999998,-0.007456851,0.012783173500000002,-0.046871635999999994,107.64,13.5,-10.2
1554206128926,-9.064447,1.5125369,3.020884,-0.03089267,0.00958738,-0.033023197000000004,107.64,13.5,-10.32
1554206128945,-9.102755,1.4502877,3.1118636000000004,-0.020240024,0.0053263223,-0.029827405,107.7,13.5,-10.38
1554206128965,-9.074024,1.4694413,3.0065188,0.013848438000000001,-0.0063915867,-0.024501082,107.7,13.5,-10.38
1554206128986,-9.136273,1.4838065,3.0352492,0.049002163,-0.011717908999999999,-0.022370555,107.76,13.5,-10.44
1554206129006,-9.045294,1.4311341,3.0304607999999997,0.060720075,-0.004261058,-0.02130529,107.82,13.5,-10.56
1554206129028,-9.193734,1.4646529,2.9346926,0.07030745599999999,0.0010652645,-0.011717908999999999,107.94,13.5,-10.62
1554206129048,-9.150639,1.6226702,2.9586349,0.07776430000000001,-0.0031957934000000003,0.002130529,108.0,13.5,-10.68
1554206129067,-8.968679,1.5604209999999998,2.9682117000000003,0.09374327,-0.00958738,0.0053263223,108.0,13.5,-10.62
1554206129087,-9.107543,1.6274586000000002,2.8389246,0.112918034,-0.008522116,-0.002130529,108.12,13.44,-10.56
1554206129105,-9.059659,1.7663223000000001,2.9682117000000003,0.10972224,-0.011717908999999999,-0.008522116,108.18,13.38,-10.56
1554206129125,-9.102755,1.6992846999999998,2.795829,0.07989483,-0.011717908999999999,-0.012783173500000002,108.3,13.26,-10.5
1554206129145,-9.002198,1.6944963,2.9873652,0.027696876000000002,-0.007456851,-0.013848438000000001,108.36,13.14,-10.5
1554206129167,-9.088389,1.6514006,2.9299042,-0.013848438000000001,-0.0053263223,-0.017044231,108.42,13.02,-10.44
1554206129185,-9.121908,1.6083049999999999,3.1070752,0.0,-0.0063915867,-0.015978966,108.42,12.9,-10.38
1554206129205,-9.045294,1.4838065,3.2076318,0.10652645,-0.004261058,-0.02130529,108.48,12.84,-10.38
1554206129225,-9.112331,1.5460558,3.044826,0.23435818,0.0031957934000000003,-0.02130529,108.42,12.72,-10.38
1554206129246,-9.093178,1.7854759999999998,2.8149827000000003,0.30146983,0.0031957934000000003,0.0010652645,108.24,12.66,-10.44
1554206129265,-9.184157,1.8142063999999998,2.7096379,0.26844665,0.0,0.007456851,108.12,12.6,-10.5
1554206129285,-9.002198,1.8620903000000002,2.9203273999999997,0.16937704,-0.007456851,0.007456851,108.12,12.6,-10.5
1554206129305,-9.074024,1.8716671000000003,2.9873652,0.07776430000000001,0.004261058,-0.0063915867,107.94,12.6,-10.56
1554206129326,-8.992621,1.8525136000000002,3.0400376000000002,0.056459017,0.0053263223,-0.01917476,107.94,12.6,-10.62
1554206129346,-9.102755,1.7758990000000001,2.8820202,0.06391586,0.007456851,-0.025566347000000003,107.88,12.54,-10.68
1554206129366,-8.987833,1.7280151000000001,2.7910407000000004,0.07776430000000001,0.0010652645,-0.039414786,107.82,12.48,-10.68
1554206129386,-9.11712,1.7998412,2.690484,0.09161274,-0.004261058,-0.046871635999999994,107.88,12.42,-10.74
1554206129405,-9.131485000000001,1.7471686999999998,2.843713,0.10865697,-0.01917476,-0.04474111,107.88,12.36,-10.86
1554206129425,-9.069236,1.7902644,2.7862522999999997,0.13102753,-0.043675844000000005,-0.04261058,107.94,12.3,-10.92
1554206129446,-9.050082000000002,1.8381484000000001,2.7766755,0.16405073,-0.068176925,-0.041545313,107.94,12.3,-10.98
1554206129466,-9.040505,1.905186,2.9825767999999995,0.16618125,-0.08948222,-0.046871635999999994,107.94,12.24,-11.04
1554206129485,-9.126697,1.95307,2.8054059,0.112918034,-0.09267801,-0.06285059999999999,107.94,12.12,-11.16
1554206129506,-8.944737,2.0057424999999998,3.2172085999999998,0.04474111,-0.07456851,-0.07776430000000001,107.94,12.06,-11.22
1554206129526,-9.006986999999999,1.9434932,3.09271,-0.014913702,-0.036218993,-0.094808534,108.0,12.0,-11.34
1554206129546,-9.121908,1.7375918999999997,3.0544027999999996,-0.07776430000000001,-0.00958738,-0.09054748,108.0,11.94,-11.34
1554206129565,-9.074024,1.6609775000000002,3.1022868,-0.112918034,0.0010652645,-0.06711166,108.0,11.88,-11.4
1554206129585,-9.121908,1.6130934,2.9969419999999998,-0.113983296,-0.004261058,-0.05006743,108.0,11.82,-11.4
1554206129605,-9.059659,1.7232267,3.0017304,-0.07882957,-0.007456851,-0.040480047000000005,108.0,11.76,-11.46
1554206129626,-9.054871,1.6609775000000002,3.1358056,-0.010652645,0.0010652645,-0.041545313,108.0,11.7,-11.46
1554206129645,-8.983044999999999,1.7328035,3.1693244,0.020240024,0.0053263223,-0.04261058,108.0,11.64,-11.52
1554206129666,-8.987833,1.7184383,2.9873652,0.002130529,0.017044231,-0.051132694000000006,108.0,11.64,-11.58
1554206129686,-9.021352,1.751957,2.891597,-0.020240024,0.013848438000000001,-0.054328485999999995,108.0,11.64,-11.58
1554206129706,-8.968679,1.8046296000000002,2.8628666000000003,-0.033023197000000004,-0.004261058,-0.054328485999999995,108.0,11.64,-11.64
1554206129726,-9.107543,1.881244,2.7862522999999997,-0.07350325,-0.026631612000000002,-0.056459017,108.0,11.64,-11.7
1554206129745,-9.069236,2.0057424999999998,2.8628666000000003,-0.14487597,-0.03195793,-0.05006743,108.06,11.64,-11.7
1554206129766,-9.097966,1.8285716,3.0831332000000002,-0.17789917,-0.024501082,-0.05752428,108.12,11.64,-11.7
1554206129785,-9.040505,1.6418238,3.0160956000000003,-0.15765914,-0.01917476,-0.068176925,108.18,11.58,-11.7
1554206129806,-9.078813,1.5987281999999998,3.1214404,-0.10759171,-0.004261058,-0.06285059999999999,108.24,11.52,-11.64
1554206129825,-9.097966,1.6418238,3.1405939999999997,-0.051132694000000006,-0.002130529,-0.054328485999999995,108.18,11.46,-11.64
1554206129846,-8.99741,1.6657659,3.0735563999999997,-0.013848438000000001,-0.0053263223,-0.053263225,108.18,11.4,-11.58
1554206129865,-9.011775,1.6226702,2.9203273999999997,-0.04261058,-0.013848438000000001,-0.056459017,108.12,11.34,-11.52
1554206129886,-8.963891,1.7711107,2.9921536,-0.10013486,-0.01917476,-0.051132694000000006,108.06,11.28,-11.46
1554206129905,-9.002198,1.5364790000000002,3.0639796,-0.12570119999999999,-0.014913702,-0.056459017,108.0,11.16,-11.46
1554206129925,-8.90643,1.5604209999999998,3.1358056,-0.101200126,-0.010652645,-0.07030745599999999,107.94,11.16,-11.46
1554206129946,-9.083601,1.6083049999999999,2.9682117000000003,-0.039414786,-0.012783173500000002,-0.080960095,107.82,11.16,-11.46
1554206129965,-9.064447,1.6370354,3.068768,-0.004261058,-0.014913702,-0.06711166,107.76,11.16,-11.4
1554206129985,-9.155427,1.5173253,3.0544027999999996,-0.0010652645,-0.012783173500000002,-0.054328485999999995,107.76,11.22,-11.4
1554206130005,-9.121908,1.6274586000000002,2.915539,-0.035153727999999995,-0.01917476,-0.046871635999999994,107.76,11.22,-11.4
1554206130026,-9.107543,1.6753427,3.1070752,-0.06285059999999999,-0.02876214,-0.039414786,107.76,11.28,-11.4
1554206130045,-9.112331,1.7806876,3.0591912,-0.08628642,-0.04261058,-0.02876214,107.76,11.28,-11.34
1554206130065,-9.088389,1.8237831999999998,3.0544027999999996,-0.11504856,-0.046871635999999994,-0.033023197000000004,107.76,11.28,-11.34
1554206130085,-9.030928999999999,1.9674352,2.9059622000000003,-0.17470337,-0.054328485999999995,-0.04474111,107.76,11.28,-11.34
1554206130105,-9.097966,1.8956091,2.819771,-0.29614353,-0.05539375,-0.058589544,107.76,11.28,-11.34
1554206130126,-9.203311,2.0536265,2.747945,-0.51984906,-0.07776430000000001,-0.06498113,107.7,11.28,-11.34
1554206130145,-8.839393,2.202067,2.7096379,-0.9108011,-0.083090626,-0.07243799,107.64,11.28,-11.28
1554206130165,-8.647857,1.9674352,2.9682117000000003,-1.2740563,-0.040480047000000005,-0.13528858,107.58,11.34,-11.28
1554206130186,-9.02614,1.3497312,3.1405939999999997,-1.4114753999999998,0.0,-0.18002969,107.52,11.58,-11.22
1554206130206,-9.141062,0.81343,3.3081882000000005,-1.3464943,0.0,-0.15552860000000002,107.46,11.94,-11.1
1554206130226,-9.088389,0.6027403,3.6721067,-1.1653993,-0.00958738,-0.11611383,107.4,12.42,-10.98
1554206130246,-9.050082000000002,0.3633201,3.6242227999999996,-0.87351686,-0.0053263223,-0.112918034,107.34,13.08,-10.68
1554206130265,-9.064447,0.23882163,3.5763388,-0.5496765,-0.007456851,-0.10546118,107.34,13.8,-10.38
1554206130286,-9.107543,0.26755205,3.6050692000000004,-0.24074976,-0.010652645,-0.068176925,107.28,14.52,-10.02
1554206130306,-8.939949,0.31543607,3.5571851999999997,0.041545313,-0.01917476,-0.035153727999999995,107.28,15.24,-9.54
1554206130326,-9.002198,0.56922144,3.5332432000000003,0.20985709,-0.029827405,-0.022370555,107.34,15.9,-9.06
1554206130346,-9.126697,0.83737206,3.4901476000000002,0.28229508,-0.034088463,-0.013848438000000001,107.34,16.44,-8.64
1554206130365,-8.944737,0.88046765,3.2890346,0.2908172,-0.036218993,-0.013848438000000001,107.34,16.86,-8.22
1554206130385,-8.978256,1.1677719,3.470994,0.24394555,-0.03195793,-0.015978966,107.34,17.16,-7.92
1554206130406,-8.978256,1.1773487,3.1741127999999996,0.16192019,-0.025566347000000003,-0.027696876000000002,107.34,17.28,-7.68
1554206130426,-9.011775,1.1965023000000001,3.3752258,0.06711166,-0.007456851,-0.043675844000000005,107.4,17.28,-7.5
1554206130446,-9.064447,1.1150993999999999,3.3033997999999998,-0.012783173500000002,-0.002130529,-0.058589544,107.46,17.34,-7.44
1554206130466,-9.002198,1.062427,3.2794578000000003,-0.07882957,-0.007456851,-0.06391586,107.52,17.34,-7.5
1554206130486,-8.992621,0.97623575,3.3081882000000005,-0.10439592,-0.013848438000000001,-0.05752428,107.52,17.34,-7.56
1554206130505,-8.959103,1.0097545,3.3895910000000002,-0.08628642,-0.012783173500000002,-0.051132694000000006,107.58,17.34,-7.62
1554206130525,-8.944737,1.0384849,3.3464954,-0.05539375,-0.015978966,-0.046871635999999994,107.64,17.34,-7.68
1554206130546,-9.045294,0.9379284999999999,3.4566288,-0.04474111,-0.018109497,-0.049002163,107.64,17.34,-7.74
1554206130566,-9.021352,0.9427169,3.3464954,-0.05752428,-0.02130529,-0.049002163,107.58,17.28,-7.8
1554206130586,-9.035717,0.8230068000000001,3.341707,-0.06711166,-0.01917476,-0.046871635999999994,107.52,17.28,-7.86
1554206130606,-8.954314,0.95229375,3.614646,-0.060720075,-0.017044231,-0.05219796,107.46,17.22,-7.86
1554206130626,-9.040505,0.9139864999999999,3.470994,-0.04474111,-0.0031957934000000003,-0.060720075,107.4,17.22,-7.92
1554206130646,-9.093178,0.9283517,3.2650926,-0.039414786,-0.0010652645,-0.054328485999999995,107.34,17.22,-7.92
1554206130665,-8.973467999999999,0.9139864999999999,3.3464954,-0.043675844000000005,-0.008522116,-0.05006743,107.28,17.16,-7.92
1554206130685,-8.99741,0.9187749,3.3895910000000002,-0.046871635999999994,-0.013848438000000001,-0.049002163,107.22,17.16,-7.92
1554206130705,-9.035717,1.0241197,3.341707,-0.068176925,-0.007456851,-0.047936900000000005,107.22,17.16,-7.92
1554206130726,-9.040505,0.9187749,3.3369186,-0.13315806,-0.004261058,-0.043675844000000005,107.22,17.16,-7.86
1554206130745,-8.983044999999999,0.9187749,3.3895910000000002,-0.18322548,0.0010652645,-0.04580637,107.16,17.1,-7.8
1554206130766,-9.016563,0.97623575,3.2028434,-0.20559604,0.0053263223,-0.06178534,107.16,17.04,-7.8
1554206130785,-9.021352,0.85173726,3.4278982000000005,-0.22583607,0.004261058,-0.06711166,107.16,16.98,-7.74
1554206130805,-8.99741,0.6410475,3.3464954,-0.22583607,0.0053263223,-0.05539375,107.16,16.92,-7.74
1554206130825,-8.987833,0.55964464,3.4805707999999997,-0.12570119999999999,0.002130529,-0.047936900000000005,107.16,16.92,-7.68
1554206130846,-9.193734,0.6171055000000001,3.3991678,0.017044231,-0.0010652645,-0.03834952,107.1,16.92,-7.68
1554206130866,-9.112331,0.9187749,3.4087446000000003,0.10972224,-0.012783173500000002,-0.026631612000000002,107.1,16.98,-7.68
1554206130885,-8.978256,0.81343,3.365649,0.12783173,-0.013848438000000001,-0.022370555,107.16,17.1,-7.74
1554206130905,-8.959103,1.062427,3.4087446000000003,0.07243799,-0.0063915867,-0.020240024,107.16,17.16,-7.74
1554206130927,-9.074024,0.7990648,3.365649,0.010652645,0.0,-0.027696876000000002,107.16,17.34,-7.74
1554206130945,-9.078813,0.8182184,3.3991678,-0.017044231,0.0053263223,-0.026631612000000002,107.16,17.4,-7.74
1554206130965,-9.030928999999999,0.7990648,3.5619736000000004,0.004261058,0.0053263223,-0.025566347000000003,107.16,17.52,-7.74
1554206130986,-9.016563,0.7990648,3.365649,0.03834952,0.002130529,-0.023435817999999997,107.16,17.64,-7.68
1554206131005,-8.944737,0.86610246,3.518878,0.0053263223,0.007456851,-0.02130529,107.16,17.7,-7.68
1554206131026,-8.8777,0.8996213,3.6050692000000004,0.029827405,0.027696876000000002,-0.02876214,107.16,17.76,-7.56
1554206131046,-8.925583999999999,1.0049661,3.4662056000000003,0.11824436,0.035153727999999995,-0.05006743,107.22,17.76,-7.56
1554206131066,-8.983044999999999,1.0145429,3.3752258,0.17896444,0.05006743,-0.06924219,107.22,17.82,-7.5
1554206131085,-9.107543,0.76554596,3.2267854,0.17150758,0.05219796,-0.068176925,107.22,17.82,-7.5
1554206131106,-9.074024,0.7846996,3.2698810000000003,0.11824436,0.039414786,-0.039414786,107.28,17.82,-7.5
1554206131126,-8.978256,0.7703344,3.1597476,0.10333065,0.018109497,-0.011717908999999999,107.28,17.76,-7.56
1554206131146,-8.944737,0.95229375,3.1693244,0.12357068,-0.0010652645,-0.010652645,107.28,17.76,-7.62
1554206131165,-9.002198,1.1055226,3.1597476,0.08948222,-0.017044231,-0.025566347000000003,107.28,17.7,-7.68
1554206131185,-8.882488,1.2204443,3.1358056,-0.0053263223,-0.025566347000000003,-0.029827405,107.34,17.64,-7.74
1554206131206,-8.978256,1.2683283,3.0304607999999997,-0.12676647,-0.023435817999999997,-0.036218993,107.34,17.58,-7.8
1554206131226,-9.002198,1.3497312,3.221997,-0.26418558,-0.015978966,-0.056459017,107.28,17.52,-7.86
1554206131245,-9.112331,1.0959458,3.2267854,-0.39627838,-0.014913702,-0.07882957,107.28,17.46,-7.86
1554206131266,-9.074024,1.0336965,3.1836896,-0.50813115,-0.018109497,-0.08948222,107.34,17.46,-7.8
1554206131285,-9.050082000000002,0.86131406,3.1884782000000005,-0.56885123,-0.02130529,-0.09054748,107.34,17.46,-7.74
1554206131306,-9.069236,0.8996213,3.4757824,-0.67537767,-0.024501082,-0.07456851,107.34,17.46,-7.74
1554206131326,-8.954314,0.87089086,3.4278982000000005,-0.79042625,-0.014913702,-0.07137272,107.34,17.52,-7.68
1554206131345,-8.920795,0.74639237,3.6721067,-0.8309063,0.0031957934000000003,-0.08735169,107.34,17.58,-7.62
1554206131365,-9.069236,0.32501290000000005,3.566762,-0.78083885,0.03195793,-0.10546118,107.28,17.64,-7.5
1554206131386,-9.193734,0.29149407,3.518878,-0.7286409,0.039414786,-0.07350325,107.28,17.76,-7.38
1554206131406,-9.078813,0.23882163,3.2746694,-0.70627034,0.035153727999999995,-0.034088463,107.28,18.0,-7.02
1554206131425,-9.088389,0.32022446,3.0400376000000002,-0.716923,0.022370555,-0.03089267,107.28,18.3,-6.66
1554206131445,-9.078813,0.32022446,3.2124202,-0.7233145999999999,0.0010652645,-0.03834952,107.28,18.72,-6.24
1554206131466,-9.011775,0.15741876,3.2124202,-0.69029135,-0.023435817999999997,-0.040480047000000005,107.28,19.08,-5.76
1554206131486,-8.963891,0.09995792,3.3081882000000005,-0.6423545,-0.033023197000000004,-0.04261058,107.22,19.5,-5.28
1554206131505,-9.088389,0.21966799999999997,3.2794578000000003,-0.6178534000000001,-0.025566347000000003,-0.047936900000000005,107.22,19.86,-4.74
1554206131526,-8.968679,0.3681085,3.2890346,-0.6785734,-0.02876214,-0.058589544,107.16,20.28,-4.32
1554206131546,-8.944737,0.27712885,3.2890346,-0.7957525,-0.040480047000000005,-0.07669904,107.16,20.58,-3.9
1554206131566,-8.949525999999999,0.17657238,3.293823,-0.87990844,-0.036218993,-0.098004326,107.1,20.82,-3.66
1554206131585,-9.088389,-0.02932897,3.3991678,-0.9406285,-0.027696876000000002,-0.094808534,107.04,21.0,-3.48
1554206131605,-9.045294,-0.10115502,3.3704373999999997,-0.99708754,-0.02876214,-0.07563378,106.98,21.18,-3.24
1554206131626,-8.920795,-0.14903906,3.5715504,-1.0418286,-0.029827405,-0.07776430000000001,106.86,21.48,-2.88
1554206131646,-8.868122999999999,-0.16340427,3.6577415,-1.0205233,-0.014913702,-0.10546118,106.8,21.78,-2.46
1554206131666,-9.030928999999999,-0.52732295,3.3369186,-0.9353021999999999,0.015978966,-0.12996227,106.74,22.08,-1.98
1554206131685,-9.217675999999999,-0.6997054,3.2076318,-0.8404937,0.015978966,-0.12463594,106.68,22.56,-1.44
1554206131705,-9.303867,-1.0588357,3.0400376000000002,-0.7052050999999999,-0.03834952,-0.113983296,106.62,23.04,-0.84
1554206131726,-9.193734,-1.6190788999999999,3.4757824,-0.50813115,-0.09161274,-0.11717909,106.62,23.58,-0.24
1554206131746,-8.858546,-1.1833341999999998,4.56275,-0.14913702,-0.14274544,-0.14807177,106.62,24.06,0.3
1554206131766,-8.355764,-0.7380127,4.4238862999999995,0.2066613,-0.06391586,-0.12676647,106.68,24.48,0.84
1554206131785,-8.6095495,-0.5991489999999999,3.8684312999999997,0.34194988,0.06498113,-0.09161274,106.74,24.78,1.14
1554206131805,-9.016563,-0.6087258000000001,3.6625300000000003,0.2790993,0.13635385,-0.094808534,106.8,25.08,1.38
1554206131826,-8.968679,-0.56084174,3.4566288,0.023435817999999997,0.16085494,-0.08522116,106.8,25.38,1.74
1554206131846,-9.002198,-0.35494040000000004,3.2507273999999997,-0.16618125,0.18322548,-0.10759171,106.8,25.44,1.86
1554206131865,-9.006986999999999,-0.6183026,3.2986114,-0.3749731,0.21092236,-0.06604639400000001,106.74,25.44,1.92
1554206131885,-9.11712,-0.8050503000000001,3.4614172,-0.4857606,0.22796659,-0.053263225,106.74,25.44,2.04
1554206131906,-9.083601,-0.88645315,3.4278982000000005,-0.5368933000000001,0.26205507,-0.049002163,106.68,25.44,2.1
1554206131925,-9.14585,-1.0684125,3.245939,-0.47191215,0.27590349999999997,-0.0053263223,106.62,25.44,2.16
1554206131946,-9.208099,-1.2120646000000002,2.8485014,-0.314253,0.25353295,0.053263225,106.56,25.44,2.28
1554206131965,-9.500193,-1.2216414,2.8485014,-0.04474111,0.19387813,0.096939065,106.62,25.44,2.46
1554206131986,-9.414000999999999,-1.2503718000000001,2.795829,0.32490566,0.10226539,0.112918034,106.62,25.5,2.7
1554206132006,-9.289502,-1.2551602,2.747945,0.73609775,0.020240024,0.10013486,106.68,25.5,2.88
1554206132025,-9.351752000000001,-1.1402385,2.8963853999999998,1.1973573,-0.068176925,0.083090626,106.74,25.5,3.12
1554206132045,-9.193734,-1.0971429,2.9682117000000003,1.6575514999999998,-0.16085494,0.08948222,106.86,25.5,3.3
1554206132065,-9.093178,-0.83378077,3.0065188,2.091114,-0.23116238,0.10226539,106.98,25.56,3.54
1554206132086,-9.160214999999999,-0.42197806,2.8628666000000003,2.3989756,-0.27803403,0.11824436,107.1,25.56,3.66
1554206132106,-9.203311,0.09516951400000001,2.6521769,2.461826,-0.3334278,0.15978967,107.16,25.44,3.54
1554206132126,-9.3421755,0.3776853,2.6138697,2.3276029,-0.386691,0.19707392,107.22,25.14,2.94
1554206132145,-9.093178,0.6841431,3.0017304,2.0559604,-0.42290998,0.19920446,107.28,24.54,1.98
1554206132165,-8.863335000000001,0.9475053,3.3512837999999996,1.7630126,-0.38775626,0.19920446,107.34,23.88,0.84
1554206132185,-8.734048,1.110311,4.136582,1.3997575,-0.26631612,0.24074976,107.28,22.98,-0.48
1554206132206,-8.504205,1.3976152,4.7255554,1.2367721,-0.13848437,0.21944448,107.28,22.02,-1.74
1554206132225,-8.619126,1.6801311,4.481347,1.1472898999999999,0.011717908999999999,0.15659387,107.22,20.88,-3.12
1554206132245,-8.99741,2.0201077,3.7152026,1.0205233,0.09267801,0.112918034,107.16,19.68,-4.44
1554206132266,-8.8777,1.7758990000000001,3.3129766000000003,0.82557994,0.12570119999999999,0.09374327,107.1,18.48,-5.82
1554206132285,-8.968679,1.3545196000000002,3.0591912,0.6583334,0.14913702,0.034088463,107.1,17.52,-6.78
1554206132305,-8.968679,1.0289081,3.2650926,0.61678815,0.12357068,-0.0010652645,107.04,16.74,-7.44
1554206132325,-8.667010000000001,1.1486181999999998,3.2363622000000003,0.65726817,0.084155895,0.024501082,107.04,16.02,-7.92
1554206132346,-8.839393,1.335366,3.1070752,0.71479243,0.07989483,0.046871635999999994,107.1,15.48,-8.28
1554206132365,-9.208099,1.6801311,2.8341362,0.7520766999999999,0.05539375,0.07030745599999999,107.1,15.0,-8.58
1554206132386,-9.141062,2.1350293,2.7431567,0.59122175,0.004261058,0.10546118,107.22,14.64,-8.88
1554206132405,-8.815451,2.4797945,2.7000610000000003,0.19174760000000002,-0.02130529,0.10865697,107.46,14.34,-9.06
1554206132426,-8.810661999999999,2.8245595000000003,2.5899277,-0.4101268,0.025566347000000003,0.07350325,107.64,14.04,-9.18
1554206132446,-8.844180999999999,2.6952724,2.6617537000000002,-1.0034790999999998,0.096939065,0.03834952,107.82,13.86,-9.24
1554206132465,-8.896853,2.2499511,3.068768,-1.3859091000000001,0.14594123,0.01917476,108.0,13.62,-9.36
1554206132485,-9.021352,1.4981716999999999,3.2411506,-1.4168017,0.14168017,-0.0031957934000000003,108.18,13.44,-9.42
1554206132506,-9.050082000000002,0.99538934,3.4422636,-1.1739215,0.10652645,-0.015978966,108.36,13.32,-9.48
1554206132526,-9.050082000000002,0.9283517,3.317765,-0.8064051999999999,0.06285059999999999,0.0,108.54,13.26,-9.48
1554206132546,-9.222465,1.1055226,3.068768,-0.44528055,0.025566347000000003,0.025566347000000003,108.6,13.32,-9.36
1554206132566,-9.174581,1.0576386,3.2411506,-0.1949434,-0.00958738,0.049002163,108.54,13.56,-9.24
1554206132586,-8.973467999999999,1.0959458,3.2267854,-0.047936900000000005,-0.039414786,0.05006743,108.54,13.8,-9.0
1554206132605,-8.973467999999999,1.3640964,3.2746694,-0.007456851,-0.036218993,0.053263225,108.6,14.1,-8.7
1554206132625,-8.882488,1.4790181,3.245939,-0.025566347000000003,-0.033023197000000004,0.06285059999999999,108.72,14.4,-8.4
1554206132646,-8.796297000000001,1.6370354,3.2028434,-0.07563378,-0.02876214,0.05752428,108.78,14.76,-8.04
1554206132665,-8.796297000000001,1.6705543,3.2746694,-0.13209279,-0.026631612000000002,0.026631612000000002,108.78,15.06,-7.74
1554206132685,-8.825027,1.5939398,3.6673183,-0.19281286,-0.024501082,0.0010652645,108.84,15.3,-7.62
1554206132705,-8.992621,1.6178818000000001,3.447052,-0.21944448,-0.004261058,-0.020240024,108.9,15.54,-7.38
1554206132725,-8.973467999999999,1.5939398,3.2267854,-0.221575,0.00958738,-0.026631612000000002,108.96,15.54,-7.32
1554206132745,-9.150639,1.6849195,3.1022868,-0.25246766,0.014913702,-0.017044231,108.96,15.54,-7.26
1554206132765,-8.939949,1.5508442,3.1836896,-0.34514567,-0.007456851,-0.004261058,108.84,15.6,-7.26
1554206132786,-9.006986999999999,1.5795746000000002,3.0639796,-0.5070659000000001,-0.008522116,-0.018109497,108.78,15.6,-7.26
1554206132806,-8.887277000000001,1.5699978,3.2124202,-0.69029135,-0.010652645,-0.022370555,108.78,15.66,-7.2
1554206132825,-9.088389,1.5987281999999998,3.4422636,-0.8127968000000001,0.015978966,-0.022370555,108.78,15.72,-7.02
1554206132847,-8.987833,1.5269021,3.1597476,-0.9800433000000001,0.02130529,-0.0031957934000000003,108.72,15.78,-6.9
1554206132866,-8.858546,1.4263457,3.2746694,-1.2037488,0.03834952,-0.0063915867,108.66,15.84,-6.66
1554206132886,-8.949525999999999,1.1821371,3.4087446000000003,-1.3891048000000001,0.049002163,-0.03195793,108.66,15.96,-6.48
1554206132906,-8.939949,0.75596917,3.4278982000000005,-1.3933659,0.036218993,-0.058589544,108.6,16.32,-6.24
1554206132925,-9.016563,0.3681085,3.6337996,-1.171791,0.014913702,-0.080960095,108.6,16.8,-5.82
1554206132946,-8.959103,0.28670564,3.8971617,-0.8543421,-0.00958738,-0.07350325,108.54,17.34,-5.4
1554206132965,-8.911219000000001,0.26755205,3.8157589999999995,-0.5294364,-0.00958738,-0.05752428,108.48,17.88,-4.86
1554206132985,-8.987833,0.45429978,3.7199910000000003,-0.27590349999999997,0.004261058,-0.033023197000000004,108.42,18.42,-4.32
1554206133006,-8.896853,0.41599256,3.7774517999999997,-0.09054748,0.013848438000000001,-0.024501082,108.42,18.96,-3.78
1554206133026,-8.887277000000001,0.46866497,3.6577415,0.043675844000000005,0.01917476,-0.029827405,108.42,19.5,-3.24
1554206133045,-9.006986999999999,0.6841431,3.5476084,0.10972224,0.012783173500000002,-0.025566347000000003,108.42,19.92,-2.76
1554206133065,-8.90643,0.82779527,3.494936,0.07989483,0.007456851,-0.023435817999999997,108.54,20.16,-2.22
1554206133086,-9.002198,0.9283517,3.494936,-0.039414786,0.013848438000000001,-0.037284255,108.6,20.22,-1.86
1554206133106,-9.016563,0.7224503999999999,3.4183214,-0.11930962,0.025566347000000003,-0.04474111,108.72,20.22,-1.62
1554206133125,-9.002198,0.6410475,3.5332432000000003,-0.15978967,0.022370555,-0.03195793,108.84,20.22,-1.5
1554206133147,-9.054871,0.6027403,3.413533,-0.15020229,0.02130529,-0.025566347000000003,108.9,20.22,-1.44
1554206133168,-9.078813,0.65541273,3.2172085999999998,-0.12570119999999999,0.015978966,-0.020240024,108.9,20.22,-1.38
1554206133186,-9.011775,0.6697779,3.447052,-0.12783173,-0.0031957934000000003,-0.013848438000000001,108.9,20.16,-1.38
1554206133205,-8.968679,0.717662,3.3081882000000005,-0.14168017,0.004261058,-0.013848438000000001,108.9,20.1,-1.38
1554206133226,-9.121908,0.6410475,3.470994,-0.16831179,0.01917476,-0.0053263223,108.84,20.04,-1.44
1554206133246,-9.040505,0.6889314999999999,3.3991678,-0.2130529,0.017044231,0.004261058,108.72,19.98,-1.44
1554206133265,-8.920795,0.7128736,3.494936,-0.31318775,0.022370555,0.0010652645,108.66,19.98,-1.44
1554206133285,-9.141062,0.86610246,3.341707,-0.4250405,0.039414786,-0.0010652645,108.6,19.98,-1.44
1554206133307,-9.083601,0.6410475,3.2794578000000003,-0.51984906,0.024501082,0.010652645,108.54,19.98,-1.38
1554206133326,-9.002198,0.49260699999999996,3.4183214,-0.5699165,0.017044231,0.017044231,108.54,19.98,-1.38
1554206133347,-9.016563,0.27234045,3.6433763999999997,-0.5486112,0.010652645,0.025566347000000003,108.54,19.98,-1.26
1554206133366,-8.815451,0.30107087,3.7008373999999997,-0.5134575,0.0031957934000000003,0.04580637,108.54,20.04,-1.14
1554206133386,-8.786719999999999,0.3681085,3.518878,-0.4644553,0.008522116,0.04261058,108.6,20.1,-0.96
1554206133406,-8.863335000000001,0.3681085,3.7008373999999997,-0.38456047,0.020240024,0.01917476,108.6,20.16,-0.84
1554206133426,-8.968679,0.5021838,3.6433763999999997,-0.26418558,0.024501082,-0.0053263223,108.72,20.28,-0.72
1554206133446,-8.839393,0.55485624,3.5045127999999997,-0.18216023,0.015978966,-0.025566347000000003,108.78,20.34,-0.6
1554206133465,-8.829816000000001,0.65541273,3.518878,-0.1768339,0.02876214,-0.043675844000000005,108.84,20.46,-0.48
1554206133485,-8.90643,0.6075286999999999,3.2794578000000003,-0.25885928,0.046871635999999994,-0.05006743,108.9,20.52,-0.24
1554206133506,-9.074024,0.53091425,3.317765,-0.33555830000000003,0.047936900000000005,-0.049002163,108.96,20.64,-0.06
1554206133526,-9.165004,0.40162733,3.413533,-0.37284255,0.040480047000000005,-0.046871635999999994,109.02,20.76,0.12
1554206133545,-9.169792,0.25797522,3.566762,-0.30679616,0.02130529,-0.04580637,109.08,20.94,0.3
1554206133565,-9.126697,0.26276365,3.6529531000000004,-0.23648871,0.008522116,-0.05006743,109.14,21.06,0.48
1554206133586,-9.150639,0.19093758,3.696049,-0.18429075,0.013848438000000001,-0.02876214,109.2,21.18,0.9
1554206133605,-8.954314,0.047285482000000004,3.5140896,-0.16192019,0.007456851,-0.014913702,109.26,21.3,1.26
1554206133625,-9.016563,0.061650693,3.5523968,-0.128897,0.00958738,-0.015978966,109.32,21.3,1.62
1554206133646,-8.959103,0.25318682,3.3991678,-0.07350325,0.0,-0.022370555,109.32,21.36,1.86
1554206133665,-9.069236,0.25318682,3.4997244,-0.027696876000000002,-0.0053263223,-0.03195793,109.32,21.42,2.04
1554206133686,-9.016563,0.32501290000000005,3.4518404,-0.043675844000000005,-0.011717908999999999,-0.03195793,109.32,21.42,2.16
1554206133706,-8.930372,0.31064767,3.5140896,-0.10865697,-0.007456851,-0.03089267,109.38,21.42,2.34
1554206133725,-9.030928999999999,0.3776853,3.4901476000000002,-0.14274544,0.002130529,-0.03089267,109.44,21.48,2.46
1554206133745,-9.074024,0.13826515,3.614646,-0.113983296,-0.0053263223,-0.020240024,109.44,21.48,2.52
1554206133766,-8.973467999999999,0.15263036,3.5140896,-0.06178534,-0.00958738,-0.018109497,109.38,21.6,2.52
1554206133787,-9.02614,0.21487960000000003,3.4326867999999995,-0.033023197000000004,-0.017044231,-0.02130529,109.38,21.66,2.46
1554206133806,-8.99741,0.3633201,3.494936,-0.035153727999999995,-0.010652645,-0.015978966,109.38,21.72,2.46
1554206133825,-9.054871,0.21487960000000003,3.4518404,-0.024501082,-0.011717908999999999,-0.017044231,109.38,21.78,2.4
1554206133846,-8.973467999999999,0.34895490000000007,3.3225534,-0.02876214,-0.012783173500000002,-0.015978966,109.32,21.84,2.4
1554206133866,-8.887277000000001,0.32022446,3.4231097999999998,-0.036218993,-0.014913702,-0.023435817999999997,109.32,21.84,2.4
1554206133885,-8.973467999999999,0.3393781,3.4087446000000003,-0.05539375,-0.00958738,-0.036218993,109.26,21.84,2.46
1554206133905,-9.040505,0.30107087,3.4805707999999997,-0.05539375,-0.00958738,-0.03834952,109.14,21.84,2.46
1554206133925,-8.963891,0.27234045,3.5811272000000005,-0.033023197000000004,-0.011717908999999999,-0.03834952,109.14,21.84,2.52
1554206133946,-8.992621,0.32501290000000005,3.3752258,-0.041545313,-0.0031957934000000003,-0.047936900000000005,109.08,21.84,2.52
1554206133966,-8.887277000000001,0.25797522,3.4757824,-0.068176925,-0.004261058,-0.046871635999999994,109.08,21.84,2.52
1554206133986,-9.002198,0.25318682,3.4422636,-0.098004326,0.0031957934000000003,-0.056459017,109.08,21.9,2.52
1554206134006,-8.992621,0.30585927,3.4518404,-0.10759171,0.004261058,-0.06178534,109.02,21.9,2.52
1554206134026,-9.045294,0.3298013,3.5045127999999997,-0.128897,0.002130529,-0.06604639400000001,109.02,21.9,2.52
1554206134046,-9.136273,0.3776853,3.4326867999999995,-0.18855181,0.0010652645,-0.06391586,109.02,21.9,2.52
1554206134066,-9.045294,0.19093758,3.447052,-0.2545982,-0.002130529,-0.06498113,109.02,21.9,2.58
1554206134086,-9.002198,0.12389994,3.5284547999999996,-0.29614353,-0.007456851,-0.068176925,109.02,21.9,2.58
1554206134105,-9.078813,0.047285482000000004,3.54282,-0.27590349999999997,-0.0053263223,-0.06178534,109.02,21.96,2.64
1554206134125,-9.093178,0.14305355,3.4183214,-0.25246766,-0.015978966,-0.04580637,109.02,22.02,2.76
1554206134145,-9.088389,0.013766658999999999,3.1836896,-0.25885928,-0.01917476,-0.041545313,108.96,22.08,2.88
1554206134167,-9.150639,0.061650693,3.3895910000000002,-0.29188246,-0.037284255,-0.03195793,108.96,22.14,3.0
1554206134187,-9.030928999999999,0.15263036,3.6337996,-0.30253512,-0.051132694000000006,-0.033023197000000004,108.96,22.2,3.12
1554206134207,-8.848969,0.09995792,3.6242227999999996,-0.29294774,-0.051132694000000006,-0.051132694000000006,108.96,22.26,3.18
1554206134227,-8.892064999999999,-0.014963761,3.4997244,-0.31318775,-0.026631612000000002,-0.06711166,108.96,22.38,3.24
1554206134246,-8.973467999999999,-0.048482585999999994,3.5236663999999998,-0.34408042,-0.014913702,-0.05752428,109.02,22.44,3.36
1554206134266,-8.868122999999999,-0.19692309,3.5523968,-0.34301516,-0.018109497,-0.056459017,109.02,22.44,3.42
1554206134286,-8.978256,-0.24959552,3.5332432000000003,-0.30360037,-0.011717908999999999,-0.05539375,109.08,22.44,3.54
1554206134306,-8.963891,-0.30705637,3.7487214,-0.221575,-0.007456851,-0.04261058,109.08,22.44,3.66
1554206134325,-8.944737,-0.30226797,3.5619736000000004,-0.12357068,0.0,-0.03834952,109.14,22.5,3.9
1554206134345,-8.983044999999999,-0.19213470000000002,3.4326867999999995,-0.04580637,0.010652645,-0.036218993,109.14,22.5,4.08
1554206134365,-9.002198,-0.08678981,3.5523968,-0.007456851,0.011717908999999999,-0.035153727999999995,109.08,22.56,4.2
1554206134386,-8.829816000000001,-0.11552023,3.4231097999999998,0.010652645,0.004261058,-0.036218993,109.08,22.62,4.44
1554206134406,-8.920795,-0.22565351,3.5284547999999996,0.017044231,0.004261058,-0.058589544,109.08,22.62,4.56
1554206134425,-9.179369,-0.24001873,3.5715504,0.036218993,0.017044231,-0.05539375,109.14,22.68,4.68
1554206134445,-9.069236,-0.25917232,3.494936,0.08735169,0.01917476,-0.029827405,109.14,22.68,4.74
1554206134465,-9.097966,-0.0724246,3.5811272000000005,0.07030745599999999,0.018109497,-0.02130529,109.14,22.74,4.74
1554206134485,-8.968679,0.037708677,3.4278982000000005,0.015978966,0.01917476,-0.008522116,109.14,22.74,4.74
1554206134506,-8.992621,-0.019752163,3.566762,-0.05965481,0.017044231,0.0010652645,109.26,22.74,4.68
1554206134526,-9.069236,-0.10594343,3.3033997999999998,-0.10546118,0.017044231,0.002130529,109.32,22.74,4.68
1554206134547,-9.064447,-0.16340427,3.4326867999999995,-0.08628642,0.01917476,0.0063915867,109.32,22.74,4.68
1554206134567,-9.011775,-0.21128829999999998,3.4757824,-0.034088463,0.014913702,0.014913702,109.26,22.74,4.68
1554206134586,-9.045294,-0.010175358,3.4183214,-0.004261058,0.0053263223,0.008522116,109.2,22.74,4.68
1554206134606,-8.916007,-0.024540568,3.4757824,-0.012783173500000002,0.00958738,-0.0063915867,109.14,22.68,4.74
1554206134625,-9.078813,0.023343466,3.4231097999999998,-0.035153727999999995,0.014913702,-0.012783173500000002,109.08,22.68,4.8
1554206134645,-9.040505,-0.010175358,3.4614172,-0.02876214,0.0031957934000000003,-0.0053263223,109.08,22.68,4.8
1554206134667,-9.035717,-0.038905777,3.5236663999999998,-0.015978966,-0.0053263223,-0.018109497,109.2,22.62,4.86
1554206134686,-9.040505,0.02813187,3.4662056000000003,0.002130529,-0.007456851,-0.013848438000000001,109.26,22.56,4.86
1554206134705,-8.973467999999999,0.008978256,3.4997244,0.049002163,-0.013848438000000001,-0.0063915867,109.32,22.5,4.92
1554206134726,-9.02614,0.0664391,3.494936,0.06711166,-0.011717908999999999,-0.011717908999999999,109.44,22.5,4.92
1554206134746,-9.002198,-0.024540568,3.3369186,0.023435817999999997,-0.00958738,-0.012783173500000002,109.56,22.5,4.92
1554206134766,-9.016563,-0.02932897,3.3225534,-0.017044231,-0.012783173500000002,-0.014913702,109.62,22.5,4.92
1554206134785,-8.987833,0.08080431,3.341707,-0.047936900000000005,-0.015978966,-0.014913702,109.68,22.5,4.92
1554206134806,-8.949525999999999,0.04249708,3.3033997999999998,-0.05539375,-0.024501082,-0.020240024,109.68,22.44,4.92
1554206134826,-8.935161,0.023343466,3.2986114,-0.033023197000000004,-0.026631612000000002,-0.02130529,109.62,22.5,4.92
1554206134845,-9.030928999999999,0.0712275,3.6529531000000004,0.0010652645,-0.02876214,-0.010652645,109.56,22.5,4.92
1554206134865,-8.90643,0.05686229,3.470994,0.03834952,-0.029827405,-0.011717908999999999,109.56,22.56,4.98
1554206134886,-8.99741,0.19093758,3.5715504,0.043675844000000005,-0.011717908999999999,-0.026631612000000002,109.5,22.56,4.98
1554206134905,-8.973467999999999,0.23403321,3.4614172,-0.0010652645,0.0,-0.037284255,109.44,22.56,4.98
1554206134926,-9.040505,0.14784196,3.4805707999999997,-0.07989483,0.017044231,-0.05006743,109.44,22.5,4.98
1554206134946,-9.059659,0.12389994,3.293823,-0.17363810000000002,0.013848438000000001,-0.04474111,109.44,22.56,4.92
1554206134966,-9.016563,0.02813187,3.3895910000000002,-0.25992453,-0.002130529,-0.037284255,109.44,22.62,4.92
1554206134985,-8.944737,-0.14903906,3.413533,-0.28975195,-0.00958738,-0.04474111,109.38,22.62,4.86
1554206135007,-8.911219000000001,-0.04369418,3.5523968,-0.27377295,-0.0063915867,-0.03195793,109.38,22.68,4.92
1554206135025,-8.872911,0.013766658999999999,3.5763388,-0.25992453,0.008522116,-0.029827405,109.38,22.62,4.98
1554206135046,-8.916007,-0.048482585999999994,3.3991678,-0.27164245,0.026631612000000002,-0.051132694000000006,109.38,22.5,5.04
1554206135066,-9.093178,-0.14903906,3.3943794,-0.31851408,0.034088463,-0.05752428,109.38,22.44,5.16
1554206135085,-9.102755,-0.27832595,3.198055,-0.350472,0.027696876000000002,-0.051132694000000006,109.38,22.38,5.28
1554206135106,-9.107543,-0.3357868,3.3752258,-0.3057309,0.023435817999999997,-0.033023197000000004,109.32,22.26,5.4
1554206135125,-8.844180999999999,-0.3645172,3.5619736000000004,-0.23222765,0.011717908999999999,-0.035153727999999995,109.26,22.14,5.52
1554206135145,-8.99741,-0.3309984,3.5811272000000005,-0.15339808,0.008522116,-0.03834952,109.26,22.02,5.64
1554206135165,-9.021352,-0.26874915,3.6768951000000003,-0.08628642,0.004261058,-0.025566347000000003,109.26,21.78,5.76
1554206135186,-9.02614,-0.19692309,3.5619736000000004,-0.080960095,0.0053263223,-0.02876214,109.2,21.72,5.88
1554206135206,-9.074024,-0.18255788,3.3800142,-0.12463594,0.0063915867,-0.03195793,109.14,21.72,5.94
1554206135225,-9.097966,-0.14903906,3.4518404,-0.18322548,0.00958738,-0.036218993,109.14,21.66,6.06
1554206135246,-9.002198,-0.3645172,3.470994,-0.21731395,0.011717908999999999,-0.041545313,109.08,21.66,6.18
1554206135265,-9.002198,-0.32621,3.221997,-0.21624869,0.00958738,-0.05219796,109.08,21.66,6.36
1554206135286,-9.040505,-0.350152,3.5571851999999997,-0.17789917,0.0031957934000000003,-0.05006743,109.08,21.66,6.54
1554206135305,-8.954314,-0.41240123,3.3081882000000005,-0.13741912,-0.008522116,-0.04580637,109.08,21.66,6.72
1554206135325,-9.002198,-0.350152,3.4805707999999997,-0.098004326,-0.018109497,-0.049002163,109.08,21.72,6.84
1554206135345,-8.911219000000001,-0.29269117,3.470994,-0.082025364,-0.018109497,-0.043675844000000005,109.14,21.78,6.9
1554206135365,-8.944737,-0.30705637,3.3943794,-0.112918034,-0.014913702,-0.037284255,109.14,21.96,7.02
1554206135387,-9.059659,-0.30705637,3.4039562000000005,-0.13848437,0.0,-0.04261058,109.14,22.14,7.08
1554206135406,-8.978256,-0.374094,3.3608606,-0.15233281,-0.008522116,-0.039414786,109.2,22.32,7.14
1554206135425,-8.978256,-0.41240123,3.5140896,-0.15020229,-0.015978966,-0.049002163,109.26,22.56,7.14
1554206135447,-9.078813,-0.350152,3.5236663999999998,-0.13102753,-0.010652645,-0.046871635999999994,109.26,22.74,7.14
1554206135466,-8.973467999999999,-0.374094,3.4326867999999995,-0.112918034,-0.011717908999999999,-0.041545313,109.32,22.92,7.14
1554206135486,-8.949525999999999,-0.45549688,3.4614172,-0.10013486,-0.007456851,-0.047936900000000005,109.38,23.1,7.2
1554206135506,-8.935161,-0.43634325,3.6481647000000006,-0.07776430000000001,-0.012783173500000002,-0.043675844000000005,109.44,23.22,7.26
1554206135526,-9.016563,-0.4794389,3.5140896,-0.053263225,-0.004261058,-0.041545313,109.5,23.22,7.32
1554206135546,-8.829816000000001,-0.55126494,3.3991678,-0.024501082,0.0010652645,-0.04474111,109.62,23.22,7.38
1554206135565,-9.02614,-0.3357868,3.6002807999999997,0.012783173500000002,0.00958738,-0.041545313,109.62,23.16,7.5
1554206135585,-8.992621,-0.41718966,3.4278982000000005,0.04474111,0.0,-0.043675844000000005,109.68,23.16,7.56
1554206135606,-9.02614,-0.42676646,3.2698810000000003,0.04580637,-0.007456851,-0.054328485999999995,109.68,23.1,7.62
1554206135626,-9.054871,-0.46507367,3.4805707999999997,0.018109497,-0.014913702,-0.033023197000000004,109.68,23.04,7.68
1554206135645,-9.059659,-0.3788824,3.4662056000000003,0.043675844000000005,-0.00958738,-0.04580637,109.68,22.98,7.74
1554206135666,-9.102755,-0.374094,3.3512837999999996,0.060720075,-0.0010652645,-0.051132694000000006,109.68,22.98,7.8
1554206135686,-9.054871,-0.29269117,3.3943794,-0.015978966,-0.004261058,-0.04580637,109.62,22.98,7.8
1554206135705,-9.078813,-0.3788824,3.221997,-0.096939065,-0.008522116,-0.04261058,109.56,22.98,7.8
1554206135726,-9.107543,-0.44113165,3.4805707999999997,-0.12783173,-0.01917476,-0.029827405,109.56,22.98,7.8
1554206135746,-9.006986999999999,-0.44113165,3.494936,-0.12357068,-0.02130529,-0.024501082,109.5,22.98,7.8
1554206135766,-8.8777,-0.44113165,3.5476084,-0.13848437,-0.017044231,-0.022370555,109.5,23.04,7.74
1554206135786,-8.839393,-0.5033809,3.4518404,-0.15552860000000002,-0.0053263223,-0.024501082,109.56,23.04,7.74
1554206135806,-8.939949,-0.44113165,3.3369186,-0.18002969,0.0063915867,-0.023435817999999997,109.56,23.04,7.74
1554206135826,-8.820239,-0.39324763,3.4614172,-0.19174760000000002,0.0031957934000000003,-0.02130529,109.62,23.1,7.68
1554206135848,-8.963891,-0.43634325,3.3273417999999997,-0.18748654,0.013848438000000001,-0.036218993,109.68,23.1,7.74
1554206135865,-8.978256,-0.3357868,3.4566288,-0.20240025,0.013848438000000001,-0.037284255,109.68,23.1,7.74
1554206135887,-9.006986999999999,-0.44592008,3.2890346,-0.23648871,0.012783173500000002,-0.046871635999999994,109.74,23.1,7.8
1554206135907,-9.045294,-0.41718966,3.2555158,-0.2727077,0.004261058,-0.053263225,109.74,23.1,7.92
1554206135927,-9.059659,-0.5895722,3.3895910000000002,-0.29188246,0.0,-0.05539375,109.8,23.1,7.98
1554206135947,-8.992621,-0.52253455,3.4662056000000003,-0.294013,-0.014913702,-0.06711166,109.74,23.1,8.04
1554206135966,-9.141062,-0.75716627,3.5811272000000005,-0.24394555,-0.012783173500000002,-0.07669904,109.74,23.1,8.16
1554206135989,-9.222465,-0.7428011,3.6337996,-0.15765914,-0.015978966,-0.06391586,109.74,23.1,8.28
1554206136006,-9.040505,-0.7140707,3.5045127999999997,-0.10226539,-0.024501082,-0.05006743,109.68,23.04,8.34
1554206136025,-9.078813,-0.52732295,3.365649,-0.099069595,-0.017044231,-0.05006743,109.68,23.04,8.46
1554206136046,-8.882488,-0.55126494,3.494936,-0.14487597,-0.014913702,-0.049002163,109.68,23.04,8.52
1554206136066,-9.050082000000002,-0.6997054,3.5045127999999997,-0.165116,0.0,-0.047936900000000005,109.62,23.04,8.64
1554206136085,-8.963891,-0.5895722,3.4231097999999998,-0.15765914,0.002130529,-0.036218993,109.62,23.04,8.76
1554206136106,-9.002198,-0.6853402,3.54282,-0.1438107,0.0063915867,-0.03834952,109.62,23.04,8.94
1554206136125,-9.045294,-0.623091,3.4422636,-0.14807177,0.013848438000000001,-0.040480047000000005,109.68,23.04,9.0
1554206136146,-9.150639,-0.7332243,3.3129766000000003,-0.15126756,0.014913702,-0.036218993,109.68,23.04,9.12
1554206136166,-8.978256,-0.87208796,3.221997,-0.14274544,0.0063915867,-0.035153727999999995,109.68,23.04,9.24
1554206136186,-8.973467999999999,-0.66618663,3.5140896,-0.098004326,-0.0031957934000000003,-0.047936900000000005,109.74,23.04,9.3
1554206136206,-8.992621,-0.8194155000000001,3.5140896,-0.043675844000000005,-0.004261058,-0.040480047000000005,109.74,23.04,9.42
1554206136225,-8.935161,-0.75716627,3.4566288,-0.011717908999999999,-0.0053263223,-0.040480047000000005,109.74,23.04,9.48
1554206136245,-9.050082000000002,-0.7667431,3.2746694,0.002130529,0.004261058,-0.041545313,109.74,23.04,9.48
1554206136266,-9.002198,-0.7332243,3.518878,0.0010652645,0.007456851,-0.03089267,109.8,23.1,9.54
1554206136286,-9.040505,-0.7954735,3.341707,-0.0031957934000000003,0.002130529,-0.034088463,109.8,23.1,9.6
1554206136306,-9.083601,-0.66139823,3.2698810000000003,0.0053263223,0.010652645,-0.03195793,109.8,23.16,9.66
1554206136326,-9.035717,-0.6422445999999999,3.4566288,0.013848438000000001,0.0063915867,-0.022370555,109.8,23.22,9.66
1554206136346,-9.021352,-0.7667431,3.341707,0.018109497,0.004261058,-0.03089267,109.8,23.28,9.72
1554206136366,-9.006986999999999,-0.66139823,3.3608606,0.0,0.0053263223,-0.02130529,109.8,23.28,9.72
1554206136385,-9.035717,-0.6087258000000001,3.3081882000000005,-0.03834952,0.0031957934000000003,-0.027696876000000002,109.8,23.34,9.72
1554206136405,-9.011775,-0.7044938000000001,3.3033997999999998,-0.07882957,-0.0053263223,-0.037284255,109.74,23.34,9.78
1554206136426,-9.02614,-0.6853402,3.413533,-0.10865697,-0.0063915867,-0.039414786,109.68,23.34,9.78
1554206136445,-9.002198,-0.7092823,3.2746694,-0.11717909,-0.0053263223,-0.040480047000000005,109.62,23.34,9.78
1554206136465,-9.030928999999999,-0.6853402,3.2603042,-0.11611383,-0.0053263223,-0.04261058,109.62,23.28,9.84
1554206136486,-8.925583999999999,-0.7380127,3.2555158,-0.128897,-0.007456851,-0.041545313,109.56,23.28,9.84
1554206136507,-9.002198,-0.7284359,3.3081882000000005,-0.15126756,-0.002130529,-0.041545313,109.5,23.22,9.84
1554206136526,-9.040505,-0.65182143,3.341707,-0.18642128,-0.012783173500000002,-0.041545313,109.44,23.28,9.9
1554206136546,-9.030928999999999,-0.694917,3.3512837999999996,-0.21837921,-0.010652645,-0.04474111,109.44,23.28,9.9
1554206136566,-9.050082000000002,-0.8098387,3.221997,-0.2428803,-0.018109497,-0.05219796,109.44,23.28,9.9
1554206136585,-9.040505,-0.8050503000000001,3.3943794,-0.24820662,-0.025566347000000003,-0.05219796,109.44,23.34,9.9
1554206136605,-9.035717,-0.75716627,3.3991678,-0.22690132,-0.02130529,-0.051132694000000006,109.44,23.28,9.96
1554206136626,-8.978256,-0.83856916,3.4805707999999997,-0.21518342,-0.022370555,-0.04474111,109.44,23.28,10.02
1554206136646,-8.805874000000001,-0.9343372,3.3704373999999997,-0.20985709,-0.011717908999999999,-0.05219796,109.44,23.28,10.08
1554206136666,-8.949525999999999,-0.9056068000000002,3.365649,-0.18429075,-0.0063915867,-0.04580637,109.44,23.28,10.14
1554206136685,-8.968679,-1.039682,3.4662056000000003,-0.14913702,0.0053263223,-0.046871635999999994,109.44,23.16,10.2
1554206136706,-8.99741,-1.073201,3.3464954,-0.10972224,0.007456851,-0.05219796,109.44,23.1,10.26
1554206136726,-8.930372,-0.9199719999999999,3.2507273999999997,-0.10972224,-0.002130529,-0.043675844000000005,109.44,23.04,10.32
1554206136746,-8.99741,-0.84814596,3.4087446000000003,-0.11504856,-0.007456851,-0.047936900000000005,109.56,22.92,10.44
1554206136766,-8.882488,-0.95827925,3.3800142,-0.111852765,-0.0053263223,-0.05219796,109.62,22.92,10.62
1554206136786,-8.968679,-0.99658644,3.4805707999999997,-0.08841695,0.0,-0.054328485999999995,109.68,22.86,10.74
1554206136805,-9.035717,-0.98222125,3.4997244,-0.05219796,-0.004261058,-0.051132694000000006,109.74,22.8,10.86
1554206136825,-8.949525999999999,-1.073201,3.5236663999999998,-0.023435817999999997,-0.002130529,-0.054328485999999995,109.8,22.8,10.98
1554206136846,-9.054871,-0.9008184000000001,3.447052,-0.020240024,-0.002130529,-0.047936900000000005,109.86,22.74,11.1
1554206136866,-8.978256,-0.9391255999999999,3.4039562000000005,-0.027696876000000002,-0.002130529,-0.046871635999999994,109.86,22.8,11.16
1554206136886,-9.035717,-0.95349085,3.3991678,-0.033023197000000004,0.0010652645,-0.049002163,109.86,22.8,11.28
1554206136907,-8.844180999999999,-0.9487024,3.365649,-0.039414786,-0.0010652645,-0.037284255,109.8,22.8,11.34
1554206136926,-8.99741,-0.87687635,3.2986114,-0.033023197000000004,-0.0010652645,-0.041545313,109.8,22.8,11.34
1554206136946,-9.021352,-0.96785605,3.2746694,-0.024501082,0.0010652645,-0.03834952,109.74,22.86,11.4
1554206136965,-9.097966,-0.87687635,3.1884782000000005,-0.05006743,0.0053263223,-0.036218993,109.68,22.92,11.52
1554206136985,-9.016563,-0.96785605,3.2555158,-0.096939065,0.0,-0.034088463,109.68,22.92,11.52
1554206137006,-9.126697,-1.0684125,3.3800142,-0.12250541,0.007456851,-0.035153727999999995,109.62,22.98,11.64
1554206137026,-9.002198,-1.049259,3.3704373999999997,-0.12037488,-0.0010652645,-0.022370555,109.62,23.04,11.7
1554206137046,-8.992621,-1.1162965,3.3512837999999996,-0.111852765,-0.0031957934000000003,-0.022370555,109.56,23.16,11.76
1554206137066,-9.011775,-1.0205284,3.5140896,-0.09161274,0.004261058,-0.023435817999999997,109.56,23.22,11.82
1554206137085,-9.021352,-0.8912416,3.3704373999999997,-0.053263225,0.0063915867,-0.011717908999999999,109.5,23.28,11.82
1554206137105,-9.035717,-0.9247603999999999,3.3081882000000005,-0.049002163,0.0031957934000000003,-0.010652645,109.5,23.28,11.82
1554206137125,-9.093178,-0.9487024,3.341707,-0.083090626,-0.0010652645,-0.012783173500000002,109.44,23.28,11.88
1554206137146,-9.107543,-1.1162965,3.4326867999999995,-0.099069595,0.002130529,-0.023435817999999997,109.38,23.28,11.88
1554206137166,-9.035717,-1.0061632,3.317765,-0.06391586,-0.002130529,-0.025566347000000003,109.38,23.28,11.94
1554206137186,-9.059659,-1.0109516,3.341707,-0.025566347000000003,-0.0031957934000000003,-0.020240024,109.38,23.22,12.0
1554206137206,-8.973467999999999,-0.96785605,3.2650926,-0.033023197000000004,0.0053263223,-0.017044231,109.38,23.22,12.12
1554206137226,-9.030928999999999,-0.9103952,3.2603042,-0.053263225,0.008522116,-0.020240024,109.38,23.16,12.18
1554206137246,-8.935161,-0.9391255999999999,3.2746694,-0.049002163,0.0063915867,-0.03089267,109.38,23.1,12.3
1554206137266,-9.040505,-0.9247603999999999,3.1501707999999997,-0.06711166,0.0,-0.039414786,109.38,23.1,12.42
1554206137285,-9.126697,-0.95827925,3.1932666000000003,-0.101200126,0.0031957934000000003,-0.03195793,109.38,23.1,12.48
1554206137305,-9.002198,-1.073201,3.1884782000000005,-0.11504856,-0.0031957934000000003,-0.020240024,109.44,23.1,12.54
1554206137326,-8.959103,-0.9487024,3.5236663999999998,-0.12676647,-0.0031957934000000003,-0.020240024,109.44,23.22,12.6
1554206137346,-8.939949,-1.0540473,3.1597476,-0.12996227,0.0010652645,-0.036218993,109.44,23.28,12.66
1554206137365,-9.112331,-1.0253168,3.1358056,-0.13741912,0.002130529,-0.046871635999999994,109.44,23.34,12.66
1554206137386,-9.078813,-1.0827777,3.2698810000000003,-0.128897,-0.0053263223,-0.046871635999999994,109.44,23.34,12.66
1554206137405,-8.983044999999999,-1.1162965,3.2986114,-0.09161274,-0.0053263223,-0.05752428,109.44,23.4,12.72
1554206137425,-8.959103,-1.0540473,3.2746694,-0.084155895,-0.0063915867,-0.047936900000000005,109.44,23.46,12.72
1554206137446,-9.030928999999999,-1.0540473,3.3033997999999998,-0.10439592,0.0031957934000000003,-0.058589544,109.44,23.46,12.78
1554206137466,-8.983044999999999,-0.96785605,3.2363622000000003,-0.12783173,-0.002130529,-0.06391586,109.5,23.46,12.84
1554206137485,-9.030928999999999,-0.99658644,3.2555158,-0.15233281,0.011717908999999999,-0.07243799,109.56,23.34,12.9
1554206137505,-8.925583999999999,-1.0348936,3.2986114,-0.16085494,0.012783173500000002,-0.06924219,109.62,23.22,12.96
1554206137525,-8.911219000000001,-1.2551602,3.3129766000000003,-0.15020229,0.014913702,-0.07669904,109.68,23.1,13.02
1554206137546,-9.121908,-1.0779893,3.4278982000000005,-0.12996227,0.023435817999999997,-0.06604639400000001,109.74,22.98,13.08
1554206137565,-8.8777,-1.1402385,3.3081882000000005,-0.08522116,0.01917476,-0.06178534,109.8,22.86,13.08
1554206137585,-9.093178,-1.1881226,3.2028434,-0.034088463,0.035153727999999995,-0.06498113,109.86,22.8,13.08
1554206137606,-9.002198,-1.3317747,3.2124202,-0.00958738,0.018109497,-0.049002163,109.92,22.74,13.14
1554206137626,-9.050082000000002,-1.2216414,3.2172085999999998,-0.0031957934000000003,0.0053263223,-0.04580637,109.86,22.68,13.14
1554206137646,-9.097966,-1.0971429,3.3081882000000005,-0.0063915867,0.0053263223,-0.039414786,109.8,22.74,13.14
1554206137665,-9.054871,-1.1737574,3.2890346,-0.007456851,0.014913702,-0.039414786,109.8,22.86,13.14
1554206137685,-9.050082000000002,-1.1641805,3.0496144,-0.01917476,0.015978966,-0.04474111,109.8,22.98,13.14
1554206137705,-9.050082000000002,-1.1067197,3.198055,-0.04474111,-0.0063915867,-0.041545313,109.8,23.04,13.2
1554206137727,-8.944737,-1.2886791000000002,3.221997,-0.060720075,-0.004261058,-0.05006743,109.8,23.16,13.2
1554206137746,-9.016563,-1.3652935,3.3129766000000003,-0.036218993,0.002130529,-0.047936900000000005,109.8,23.22,13.26
1554206137765,-9.102755,-1.2743138,3.2555158,0.020240024,0.0031957934000000003,-0.036218993,109.8,23.28,13.26
