TimeStamp,Ax,Ay,Az,Gx,Gy,Gz,Mx,My,Mz
1554878780919,-8.437167,-4.841674299999999,-0.6853402,-0.7030744999999999,-0.047936900000000005,-0.08841695,3.12,44.82,10.74
1554878780940,-8.360553,-4.803367,-0.694917,-0.7286409,-0.058589544,-0.11611383,3.06,44.7,10.86
1554878780960,-8.403648,-4.8320975,-0.623091,-0.6743124,-0.036218993,-0.12676647,3.0,44.4,10.98
1554878780980,-8.422802,-5.0523643,-0.86251116,-0.55606806,-0.027696876000000002,-0.11504856,3.0,44.1,11.1
1554878781000,-8.432379,-5.047576,-0.99179804,-0.45699844,-0.026631612000000002,-0.10013486,2.94,43.74,11.22
1554878781019,-8.408437,-5.037999,-0.98700964,-0.38775626,-0.035153727999999995,-0.09587380000000001,2.88,43.26,11.4
1554878781040,-8.389283,-4.9853263,-0.9439139999999999,-0.3749731,-0.07563378,-0.082025364,2.88,42.72,11.64
1554878781060,-8.422802,-5.1146135,-0.97264445,-0.34834146,-0.060720075,-0.05965481,2.82,42.12,11.82
1554878781079,-8.336611,-5.2103815,-0.88166475,-0.29188246,-0.07243799,-0.053263225,2.82,41.64,12.0
1554878781100,-8.379706,-5.119402,-0.7284359,-0.19707392,-0.04474111,-0.033023197000000004,2.82,41.1,12.18
1554878781119,-8.418014,-5.1624975,-0.6374562,-0.14807177,-0.026631612000000002,-0.011717908999999999,2.82,40.74,12.36
1554878781139,-8.374918,-5.105036699999999,-0.7715314999999999,-0.07456851,0.0,0.024501082,2.88,40.38,12.48
1554878781159,-8.403648,-5.172074299999999,-0.82899237,-0.04261058,0.00958738,0.03834952,2.88,40.08,12.6
1554878781179,-8.312667999999999,-5.1002483,-0.6326678000000001,0.023435817999999997,0.05539375,0.049002163,2.94,39.9,12.66
1554878781199,-8.384495,-5.119402,-0.5081693,0.07563378,0.083090626,0.051132694000000006,3.0,39.78,12.72
1554878781219,-8.327033,-5.2008047,-0.7092823,0.15978967,0.09374327,0.06391586,3.06,39.66,12.72
1554878781239,-8.427589999999999,-5.2343235,-0.7284359,0.25885928,0.15233281,0.1107875,3.06,39.6,12.72
1554878781259,-8.446744,-5.191228,-0.7044938000000001,0.34834146,0.19174760000000002,0.13315806,3.12,39.54,12.78
1554878781279,-8.441956,-5.157709,-0.9008184000000001,0.42184472,0.21624869,0.16085494,3.18,39.54,12.84
1554878781300,-8.432379,-5.09546,-0.7811083000000001,0.4644553,0.19920446,0.19813919,3.18,39.54,12.9
1554878781320,-8.379706,-5.157709,-0.6853402,0.5070659000000001,0.23329292,0.23222765,3.24,39.54,12.96
1554878781340,-8.437167,-5.1624975,-0.6278794,0.5699165,0.26205507,0.27803403,3.24,39.54,12.96
1554878781359,-8.470686,-5.047576,-0.6422445999999999,0.67324716,0.2727077,0.30892670000000005,3.24,39.6,12.96
1554878781379,-8.556877,-5.0523643,-0.6901286,0.7797736,0.28868666,0.34727620000000003,3.24,39.72,12.96
1554878781400,-8.537724,-4.899135,-0.82899237,0.8607336999999999,0.31851408,0.3898868,3.24,39.9,12.96
1554878781420,-8.667010000000001,-4.7123876,-0.84814596,0.9331716999999998,0.32170987,0.41225734,3.24,40.08,12.9
1554878781440,-8.748413000000001,-4.621408,-1.0301052,0.98750013,0.3323625,0.43782368,3.3,40.32,12.78
1554878781459,-8.63828,-4.362833999999999,-1.0779893,1.0620687,0.3153183,0.43356264,3.3,40.62,12.72
1554878781479,-8.652645,-4.185663,-1.240795,1.1142666,0.32384038,0.40373522,3.36,40.86,12.6
1554878781499,-8.671799,-4.051588,-1.3796587,1.1749867,0.32277513,0.34301516,3.36,41.34,12.48
1554878781520,-8.748413000000001,-3.7307648999999996,-1.7340006000000001,1.220793,0.2908172,0.23968449999999997,3.36,41.82,12.42
1554878781539,-8.796297000000001,-3.2615013,-1.9015948,1.2591426000000001,0.19813919,0.10439592,3.3,42.3,12.24
1554878781560,-8.925583999999999,-2.7060466,-2.2750902,1.144094,0.111852765,-0.05965481,3.24,42.84,12.0
1554878781580,-8.887277000000001,-2.2990322,-2.3660697999999996,0.7957525,-0.02876214,-0.19387813,3.24,43.5,11.64
1554878781600,-8.8777,-2.2655133999999997,-2.2224178,0.22477080000000002,-0.1768339,-0.24927188,3.12,44.1,11.28
1554878781619,-8.90643,-2.356493,-1.7818846999999998,-0.47936899999999993,-0.32597092,-0.28655612,3.0,44.7,10.86
1554878781640,-8.973467999999999,-2.6916811000000003,-1.489792,-1.3038836999999999,-0.46765109999999993,-0.35473305,2.76,45.54,10.2
1554878781660,-9.088389,-3.0460230999999998,-1.1498153,-1.8482338,-0.5550028,-0.39414784,2.64,45.96,9.78
1554878781679,-8.576031,-3.793014,-0.85772276,-2.2839270000000003,-0.6689861,-0.37390783,2.52,46.32,9.36
1554878781700,-8.384495,-4.487332299999999,-0.7906850999999999,-2.4628913,-0.70840085,-0.3898868,2.46,46.38,9.24
1554878781720,-8.312667999999999,-4.88477,-0.28790274,-2.3734092999999996,-0.60080916,-0.42077947,2.52,46.08,9.3
1554878781740,-8.322245,-5.282207499999999,-0.374094,-2.0570256999999996,-0.5411543000000001,-0.42290998,2.7,45.48,9.72
1554878781759,-8.317456,-5.5982423,-0.35494040000000004,-1.7555558999999998,-0.46339005,-0.37071204,2.82,44.82,10.08
1554878781779,-8.480263,-5.9717374,-0.30705637,-1.5329156000000002,-0.3685815,-0.28229508,3.0,44.04,10.5
1554878781800,-8.441956,-6.1345434,-0.56563014,-1.4082796999999998,-0.29188246,-0.18642128,3.18,43.02,11.04
1554878781820,-8.422802,-6.172850599999999,-0.97743285,-1.3315805,-0.22690132,-0.12996227,3.36,41.88,11.58
1554878781839,-8.403648,-6.2351,-1.1689690000000001,-1.2282499,-0.09587380000000001,-0.09161274,3.54,40.44,12.3
1554878781860,-8.255207,-5.9621606,-1.0779893,-1.0695255,0.0010652645,-0.039414786,3.72,39.06,12.78
1554878781880,-8.360553,-5.4210709999999995,-0.9343372,-0.79255676,0.11717909,0.008522116,3.78,37.92,13.2
1554878781900,-8.671799,-5.33488,-1.4323312,-0.37816888,0.13848437,0.07456851,3.78,36.96,13.38
1554878781919,-8.456321,-5.3061495,-1.8393455,0.010652645,0.101200126,0.19707392,3.84,36.0,13.68
1554878781939,-8.441956,-5.09546,-1.9015948,0.37923414,0.13209279,0.21198763,3.9,35.1,13.92
1554878781959,-8.643068,-4.5687356,-1.8680758000000002,0.66365975,0.113983296,0.16724652,3.96,34.32,14.1
1554878781980,-8.6334915,-4.2622776,-1.6095021,0.8990832000000001,0.096939065,0.14807177,4.02,33.72,14.28
1554878781999,-8.542512,-4.0084919999999995,-1.6813281999999998,1.091896,0.05752428,0.112918034,4.08,33.36,14.34
1554878782020,-8.585608,-3.7786489000000003,-1.6286557,1.1930962,0.060720075,0.03834952,4.08,33.18,14.34
1554878782039,-8.619126,-3.6685154000000004,-1.5376761,1.0940266,0.06391586,-0.007456851,4.08,33.24,14.34
1554878782060,-8.619126,-3.6541502,-1.3413515,0.91186637,0.054328485999999995,-0.039414786,4.08,33.48,14.34
1554878782080,-8.528147,-3.7307648999999996,-1.3269863000000002,0.69029135,0.033023197000000004,-0.080960095,4.08,34.08,14.28
1554878782099,-8.580819,-3.8073792,-1.3605051000000001,0.36432046,-0.0063915867,-0.10546118,4.08,34.8,14.28
1554878782119,-8.532935,-4.032433999999999,-1.2695253999999998,0.029827405,-0.036218993,-0.11611383,4.02,35.52,14.16
1554878782140,-8.561666,-4.2383356,-1.1162965,-0.21944448,-0.06285059999999999,-0.13528858,4.02,36.24,14.04
1554878782160,-8.556877,-4.621408,-1.039682,-0.30892670000000005,-0.07030745599999999,-0.13422333,4.02,36.9,13.92
1554878782180,-8.556877,-4.7506948,-1.1785458,-0.29188246,-0.053263225,-0.11824436,4.02,37.56,13.8
1554878782200,-8.662222,-4.8560395,-1.2072762,-0.27483824,-0.04261058,-0.096939065,4.02,38.04,13.68
1554878782219,-8.590396,-5.0092683,-1.1115081,-0.30040458,-0.040480047000000005,-0.06498113,3.96,38.34,13.62
1554878782239,-8.465898,-5.0810947,-1.2838906,-0.3536678,-0.03089267,-0.051132694000000006,3.96,38.4,13.5
1554878782260,-8.485051,-5.282207499999999,-1.2503718000000001,-0.34727620000000003,-0.017044231,-0.05219796,3.84,38.28,13.44
1554878782280,-8.298303,-5.191228,-1.216853,-0.20559604,0.008522116,-0.07243799,3.78,38.1,13.44
1554878782300,-8.293514,-5.0236335,-1.2791021999999999,0.07882957,0.04474111,-0.09054748,3.66,37.92,13.44
1554878782320,-8.374918,-4.654927,-1.2982559,0.36005938,0.07563378,-0.10865697,3.6,37.68,13.38
1554878782340,-8.374918,-4.654927,-1.2982559,0.36005938,0.07563378,-0.10865697,3.6,37.68,13.38
1554878782360,-8.374918,-4.654927,-1.2982559,0.36005938,0.07563378,-0.10865697,3.6,37.68,13.38
1554878782379,-8.374918,-4.654927,-1.2982559,0.36005938,0.07563378,-0.10865697,3.6,37.68,13.38
1554878782400,-8.6095495,-4.4538136,-1.3748703000000002,0.017044231,-0.007456851,0.014913702,3.48,37.32,13.32
1554878782419,-8.499416,-4.597466000000001,-1.1881226,-0.28868666,-0.03089267,0.037284255,3.42,37.14,13.26
1554878782439,-8.542512,-4.76506,-1.2312181999999998,-0.43356264,-0.027696876000000002,-0.002130529,3.3,36.9,13.14
1554878782459,-8.475474,-4.755483,-1.1210848999999998,-0.38136467,-0.011717908999999999,-0.039414786,3.3,36.84,13.08
1554878782480,-8.374918,-4.803367,-1.0971429,-0.13741912,-0.0053263223,-0.05752428,3.24,36.84,13.02
1554878782500,-8.240842,-4.7698483,-1.049259,0.080960095,0.023435817999999997,-0.049002163,3.24,37.02,12.96
1554878782520,-8.303091,-4.7506948,-1.240795,0.20453078,0.04261058,-0.043675844000000005,3.18,37.2,12.96
1554878782539,-8.379706,-4.7123876,-1.2743138,0.18855181,0.05752428,-0.023435817999999997,3.18,37.38,13.02
1554878782560,-8.556877,-4.894346700000001,-1.2838906,0.09587380000000001,0.046871635999999994,-0.010652645,3.18,37.56,13.02
1554878782584,-8.628703,-5.0906715,-1.3221979,-0.040480047000000005,0.04580637,0.011717908999999999,3.12,37.68,13.08
1554878782599,-8.628703,-5.1002483,-1.2264298,-0.05965481,0.06391586,0.039414786,3.12,37.68,13.14
1554878782619,-8.441956,-4.9518075,-1.1258733,-0.012783173500000002,0.07030745599999999,0.07456851,3.12,37.74,13.2
1554878782639,-8.48984,-4.9996915,-1.1976993999999999,0.080960095,0.082025364,0.101200126,3.12,37.8,13.26
1554878782661,-8.456321,-4.894346700000001,-0.87208796,0.26738137,0.10439592,0.12463594,3.12,37.74,13.32
1554878782680,-8.552089,-5.0667295,-1.1019313,0.51984906,0.10865697,0.15233281,3.06,37.74,13.38
1554878782700,-8.374918,-4.875193,-1.2024878,0.7286409,0.111852765,0.16937704,3.06,37.68,13.38
1554878782720,-8.504205,-4.7363295999999995,-1.2791021999999999,0.8511463,0.10333065,0.17044231,3.06,37.68,13.44
1554878782740,-8.422802,-4.611831,-1.2743138,0.8724516,0.08522116,0.17896444,3.06,37.74,13.44
1554878782760,-8.585608,-4.597466000000001,-0.9343372,0.9054747999999999,0.09054748,0.17363810000000002,3.12,37.92,13.44
1554878782780,-8.441956,-4.573524,-0.83378077,1.0354371,0.111852765,0.15978967,3.12,38.1,13.32
1554878782800,-8.652645,-4.583101,-0.623091,1.1515508999999997,0.15233281,0.14913702,3.12,38.4,13.14
1554878782819,-8.628703,-4.607043,-0.5895722,1.1515508999999997,0.19281286,0.17257284,3.12,38.94,12.96
1554878782839,-8.667010000000001,-4.5687356,-0.41240123,1.2112056999999998,0.2609898,0.15978967,3.12,39.6,12.78
1554878782860,-8.7532015,-4.7123876,-0.5895722,1.365669,0.26205507,0.16937704,3.12,40.38,12.54
1554878782879,-8.643068,-4.755483,-0.670975,1.4551512,0.25885928,0.22903186,3.06,41.16,12.3
1554878782899,-8.772355000000001,-4.7123876,-0.66139823,1.4732608,0.27483824,0.26525086,3.0,41.88,11.94
1554878782919,-8.710106,-4.635773,-0.95827925,1.3965617000000001,0.27803403,0.33449304,3.0,42.54,11.52
1554878782939,-8.695741,-4.573524,-0.57520694,1.2687298999999999,0.28549087,0.38029942,2.94,43.14,11.16
1554878782960,-8.8777,-4.3580456,-0.36930559999999996,1.1185277,0.3057309,0.36005938,2.88,43.86,10.8
1554878782980,-9.054871,-4.3197384,-0.39803603,1.1036139999999999,0.29614353,0.36751625,2.88,44.64,10.44
1554878783000,-8.767567,-4.401141,-0.32142156,1.1579423999999998,0.26312032,0.40373522,2.82,45.24,10.02
1554878783020,-8.75799,-4.3580456,-0.23044191,1.2879047,0.2876214,0.38349520000000004,2.82,45.72,9.54
1554878783039,-8.935161,-4.228758999999999,-0.30705637,1.4349113000000002,0.28549087,0.35792887,2.82,46.32,9.12
1554878783059,-8.8777,-4.1186256000000006,-0.6374562,1.567004,0.2727077,0.36964676,2.76,46.86,8.52
1554878783079,-8.892064999999999,-4.085107,-0.56563014,1.6255935,0.26418558,0.3898868,2.76,47.4,7.98
1554878783101,-8.939949,-3.912724,-0.7236475,1.591505,0.2545982,0.4016047,2.76,48.0,7.32
1554878783121,-8.978256,-3.7594953,-0.10115502,1.5350461000000002,0.2695119,0.41864893,2.82,48.6,6.72
1554878783141,-9.255983,-3.6541502,-0.02932897,1.5691346000000002,0.25033715,0.43249738,2.82,49.02,6.18
1554878783161,-9.02614,-3.6206315000000004,-0.23044191,1.6660736,0.20026971,0.43675843,2.94,49.5,5.64
1554878783180,-8.887277000000001,-3.2231941,0.25797522,1.7747306,0.21518342,0.38775626,3.12,50.04,5.16
1554878783201,-9.054871,-2.7778726000000002,0.30585927,1.8674085999999999,0.24394555,0.29188246,3.42,50.82,4.32
1554878783219,-9.193734,-2.5719712,0.25797522,1.9036276,0.24501082,0.26312032,3.54,51.12,3.96
1554878783239,-9.279925,-2.5240872000000003,0.0041898529999999995,1.8791265,0.21518342,0.28122982,3.78,51.66,3.24
1554878783259,-8.99741,-2.4378957999999997,0.31543607,1.8066885,0.20453078,0.25992453,4.08,52.14,2.52
1554878783280,-9.193734,-2.3133974,0.39683893,1.7108147,0.21624869,0.17576863,4.32,52.56,1.74
1554878783300,-9.452309,-2.332551,0.49260699999999996,1.5180018,0.21411815,0.20026971,4.5,52.92,0.9
1554878783319,-9.466674000000001,-2.1888987999999996,0.17657238,1.2239889,0.18429075,0.23648871,4.68,53.22,-0.06
1554878783339,-9.394848,-1.8920178,0.55485624,0.8852348,0.15339808,0.18429075,4.8,53.46,-1.08
1554878783360,-9.370906,-1.7818846999999998,0.5165489999999999,0.58056915,0.12037488,0.12144015,4.86,53.82,-2.52
1554878783379,-9.476251,-1.7244238,0.7751228,0.3270362,0.113983296,0.098004326,4.92,54.06,-3.12
1554878783402,-9.375694000000001,-1.9782091,0.6985083000000001,0.12250541,0.09587380000000001,0.06711166,4.92,54.24,-3.72
1554878783420,-9.337387,-1.8441339,0.65062433,0.0,0.080960095,0.013848438000000001,4.92,54.42,-4.2
1554878783439,-9.370906,-2.0117279999999997,0.43514615,-0.14807177,0.035153727999999995,-0.022370555,4.86,54.54,-4.56
1554878783459,-9.260772,-2.3660697999999996,0.3393781,-0.33449304,0.0053263223,0.0,4.86,54.6,-4.92
1554878783481,-9.399636,-2.3708582000000002,0.43035775,-0.4261058,-0.01917476,-0.04261058,4.92,54.66,-5.04
1554878783501,-9.414000999999999,-2.4666264,0.3345897,-0.45806372,-0.046871635999999994,-0.051132694000000006,4.92,54.72,-5.16
1554878783520,-9.3421755,-2.6725276,0.4878186,-0.45912898,-0.07456851,-0.03834952,4.98,54.84,-5.16
1554878783540,-9.337387,-2.6629508,0.6410475,-0.41758367,-0.09374327,-0.05006743,5.04,54.96,-5.1
1554878783559,-9.337387,-2.7252002,0.84216046,-0.30040458,-0.09161274,-0.053263225,5.1,55.02,-5.04
1554878783579,-9.308656,-2.60549,0.82779527,-0.16724652,-0.08522116,-0.068176925,5.16,55.08,-4.98
1554878783600,-9.308656,-2.677316,0.6218939,-0.09374327,-0.09587380000000001,-0.06498113,5.28,55.14,-4.86
1554878783620,-9.390058999999999,-2.8161798,0.66020113,-0.07350325,-0.096939065,-0.012783173500000002,5.34,55.2,-4.8
1554878783640,-9.3661175,-2.5480292,0.99538934,-0.053263225,-0.06178534,-0.015978966,5.4,55.26,-4.68
1554878783659,-9.394848,-2.3995886000000004,0.95708215,0.0031957934000000003,-0.043675844000000005,-0.05006743,5.46,55.26,-4.62
1554878783680,-9.442732000000001,-2.4139538,0.8038531999999999,0.00958738,-0.02130529,-0.027696876000000002,5.52,55.26,-4.5
1554878783700,-9.370906,-2.5576060000000003,0.85652566,-0.058589544,-0.020240024,-0.015978966,5.58,55.2,-4.38
1554878783720,-9.179369,-2.6198552000000004,0.6745663000000001,-0.15126756,-0.00958738,-0.007456851,5.64,55.2,-4.26
1554878783739,-9.323022,-2.6198552000000004,0.7368156,-0.2695119,0.015978966,-0.018109497,5.76,55.2,-4.2
1554878783760,-9.241617999999999,-2.5001452,0.5931635000000001,-0.33555830000000003,0.011717908999999999,-0.040480047000000005,5.82,55.14,-4.14
1554878783780,-9.26556,-2.6007016,0.6075286999999999,-0.32277513,0.007456851,-0.047936900000000005,5.88,55.14,-4.02
1554878783800,-9.337387,-2.5192987999999996,0.97623575,-0.257794,0.023435817999999997,-0.046871635999999994,6.0,55.14,-3.96
1554878783819,-9.361329,-2.7730842,0.6362591,-0.14168017,-0.014913702,-0.051132694000000006,6.06,55.08,-3.9
1554878783839,-9.222465,-2.7347770000000002,0.45429978,-0.07030745599999999,-0.03089267,-0.020240024,6.12,55.08,-3.78
1554878783859,-9.3661175,-2.7012582000000003,0.3776853,-0.05965481,-0.05539375,-0.05539375,6.18,55.14,-3.72
1554878783880,-9.409213000000001,-2.5288756,0.5021838,-0.05219796,-0.07882957,-0.043675844000000005,6.06,55.14,-3.66
1554878783899,-9.212888000000001,-2.4283189999999997,0.5979519,-0.051132694000000006,-0.083090626,-0.04580637,6.0,55.2,-3.54
1554878783920,-9.227253,-2.2224178,0.9091981,-0.08522116,-0.06604639400000001,-0.05965481,5.94,55.2,-3.48
1554878783939,-9.337387,-2.461838,0.7272388000000001,-0.17044231,-0.03834952,-0.04580637,5.82,55.14,-3.36
1554878783960,-9.351752000000001,-2.4378957999999997,0.7080852,-0.30146983,-0.02130529,-0.04580637,5.76,55.08,-3.3
1554878783979,-9.346964,-2.5145104,0.48303019999999997,-0.4708469,-0.03089267,-0.05965481,5.64,55.02,-3.24
1554878783999,-9.428367,-2.8209682000000003,0.43514615,-0.5763081,-0.036218993,-0.05752428,5.52,54.9,-3.18
1554878784020,-9.327810000000001,-2.9071592999999996,0.5117606,-0.5901565,-0.054328485999999995,-0.056459017,5.46,54.78,-3.06
1554878784039,-9.346964,-3.0699651,0.18136078,-0.57311225,-0.09161274,-0.03834952,5.4,54.66,-2.94
1554878784060,-9.337387,-3.1561562999999997,0.3824737,-0.50813115,-0.06498113,0.008522116,5.46,54.54,-2.7
1554878784079,-9.270349000000001,-2.9167361,0.7272388000000001,-0.3206446,-0.056459017,-0.07669904,5.64,54.42,-2.52
1554878784099,-9.471461999999999,-2.8161798,0.7990648,-0.09374327,-0.029827405,-0.07456851,5.82,54.36,-2.34
1554878784120,-9.327810000000001,-2.8401217,0.7224503999999999,0.043675844000000005,-0.024501082,-0.05752428,6.0,54.3,-2.16
1554878784139,-9.390058999999999,-2.6581624,0.6745663000000001,0.05006743,-0.00958738,-0.080960095,6.18,54.3,-1.98
1554878784160,-9.188946000000001,-2.6868927000000005,0.6171055000000001,-0.022370555,-0.0063915867,-0.06178534,6.3,54.3,-1.8
1554878784180,-9.102755,-2.878429,0.3681085,-0.07243799,0.0,-0.022370555,6.42,54.3,-1.68
1554878784200,-9.131485000000001,-2.6629508,0.54527944,-0.096939065,0.018109497,-0.05006743,6.54,54.3,-1.62
1554878784219,-9.327810000000001,-2.60549,0.44951138,-0.10546118,0.018109497,-0.06391586,6.54,54.36,-1.62
1554878784239,-9.289502,-2.7204118,0.23403321,-0.11824436,0.0031957934000000003,-0.037284255,6.36,54.42,-1.62
1554878784260,-9.380483,-2.6868927000000005,0.22445641,-0.13315806,-0.007456851,-0.049002163,6.24,54.48,-1.62
1554878784280,-9.394848,-2.6581624,0.41120413,-0.15765914,-0.020240024,-0.043675844000000005,6.06,54.48,-1.5
1554878784300,-9.361329,-2.8975825,0.11432313,-0.20453078,-0.051132694000000006,-0.03089267,5.88,54.48,-1.44
1554878784320,-9.3661175,-2.7347770000000002,0.3776853,-0.2609898,-0.060720075,-0.012783173500000002,5.82,54.54,-1.26
1554878784339,-9.270349000000001,-2.782661,0.41599256,-0.30040458,-0.06498113,-0.053263225,5.7,54.48,-1.14
1554878784359,-9.289502,-2.8880057,0.3681085,-0.29294774,-0.06391586,-0.041545313,5.58,54.48,-0.96
1554878784380,-9.270349000000001,-2.9933507,0.6171055000000001,-0.23542345,-0.06604639400000001,-0.039414786,5.46,54.42,-0.84
1554878784400,-9.323022,-2.9454667999999997,0.53091425,-0.19387813,-0.054328485999999995,-0.05219796,5.4,54.36,-0.66
1554878784419,-9.208099,-2.8640637000000004,0.56922144,-0.21092236,-0.03089267,-0.04474111,5.34,54.36,-0.6
1554878784440,-9.275136999999999,-2.926313,0.45908818,-0.22264028,-0.026631612000000002,-0.039414786,5.28,54.3,-0.48
1554878784460,-9.155427,-3.007716,0.53091425,-0.21518342,-0.01917476,-0.022370555,5.28,54.3,-0.42
1554878784480,-9.246407000000001,-2.926313,0.55006784,-0.1768339,-0.0063915867,-0.035153727999999995,5.16,54.3,-0.36
1554878784500,-9.275136999999999,-3.0556,0.48303019999999997,-0.12996227,-0.0063915867,-0.007456851,5.16,54.24,-0.3
1554878784519,-9.390058999999999,-3.0603882999999996,0.42078096,-0.06498113,-0.0053263223,0.0,5.1,54.18,-0.12
1554878784539,-9.284714,-2.8832173,0.45429978,0.022370555,-0.0053263223,0.0031957934000000003,5.04,54.06,0.0
1554878784559,-9.3661175,-2.830545,0.41599256,0.080960095,0.0053263223,0.0010652645,4.98,54.0,0.18
1554878784579,-9.246407000000001,-2.7730842,0.3537433,0.09267801,0.0053263223,-0.002130529,4.92,53.88,0.36
1554878784600,-9.251195,-2.629432,0.38726214,0.06604639400000001,0.0,-0.013848438000000001,4.86,53.76,0.48
1554878784620,-9.313444,-2.5384523999999997,0.34895490000000007,0.011717908999999999,-0.007456851,-0.025566347000000003,4.8,53.64,0.66
1554878784640,-9.26556,-2.6342204,0.15741876,-0.07776430000000001,-0.039414786,-0.010652645,4.8,53.58,0.72
1554878784659,-9.169792,-2.8832173,0.17657238,-0.18322548,-0.046871635999999994,0.04261058,4.8,53.52,0.78
1554878784679,-9.26556,-2.677316,0.5835866999999999,-0.20453078,-0.022370555,-0.03195793,4.8,53.46,0.78
1554878784700,-9.457097000000001,-2.5288756,0.49260699999999996,-0.19068234,-0.014913702,-0.06178534,4.8,53.46,0.72
1554878784720,-9.327810000000001,-2.7587189999999997,0.3345897,-0.2066613,-0.024501082,-0.023435817999999997,4.8,53.46,0.72
1554878784739,-9.308656,-2.9454667999999997,0.3585317,-0.2727077,-0.027696876000000002,-0.043675844000000005,4.74,53.46,0.72
1554878784759,-9.222465,-2.8161798,0.49260699999999996,-0.36005938,-0.012783173500000002,-0.036218993,4.74,53.46,0.78
1554878784779,-9.222465,-2.8880057,0.08559271,-0.42717105,-0.03195793,-0.041545313,4.74,53.4,0.9
1554878784800,-9.097966,-3.0364463,0.23403321,-0.40906155,-0.037284255,-0.03089267,4.8,53.34,1.08
1554878784819,-9.284714,-3.0172927000000005,0.32501290000000005,-0.3291667,-0.033023197000000004,-0.05752428,4.8,53.22,1.26
1554878784839,-9.370906,-2.9789855,0.17178397,-0.23968449999999997,-0.026631612000000002,-0.040480047000000005,4.92,53.1,1.44
1554878784860,-9.361329,-2.9885623,0.29149407,-0.19813919,-0.03089267,-0.026631612000000002,4.98,52.98,1.62
1554878784879,-9.370906,-3.0747535,0.39205053,-0.16298546,-0.03089267,-0.017044231,5.1,52.86,1.8
1554878784899,-9.375694000000001,-2.9454667999999997,0.29149407,-0.12996227,-0.027696876000000002,0.0053263223,5.22,52.68,1.98
1554878784919,-9.284714,-2.8401217,0.38726214,-0.14061491,-0.020240024,0.004261058,5.28,52.5,2.1
1554878784940,-9.217675999999999,-2.878429,0.3298013,-0.18429075,-0.013848438000000001,-0.004261058,5.34,52.38,2.1
1554878784959,-9.11712,-2.878429,0.19093758,-0.2130529,-0.007456851,0.004261058,5.46,52.26,2.16
1554878784980,-9.23683,-2.8496985,0.29149407,-0.25672874,0.0010652645,0.0063915867,5.46,52.2,2.16
1554878785000,-9.251195,-2.6916811000000003,0.18614918,-0.33768883,0.0,0.012783173500000002,5.4,52.14,2.22
1554878785019,-9.232041,-2.9215245,-0.19692309,-0.43995422,-0.033023197000000004,0.058589544,5.34,52.08,2.28
1554878785039,-9.327810000000001,-2.8927941,0.22445641,-0.4889564,-0.007456851,0.06178534,5.28,52.02,2.4
1554878785060,-9.399636,-2.6868927000000005,0.3537433,-0.49108690000000005,0.007456851,-0.002130529,5.22,51.96,2.58
1554878785079,-9.313444,-2.7778726000000002,0.13347675,-0.4708469,0.010652645,0.013848438000000001,5.16,51.9,2.7
1554878785099,-9.3661175,-2.8927941,-0.19692309,-0.51026165,0.011717908999999999,0.01917476,5.16,51.84,2.82
1554878785120,-9.23683,-2.9837740000000004,-0.17298107,-0.57311225,0.0063915867,0.017044231,5.16,51.78,2.94
1554878785140,-9.150639,-3.0699651,0.05686229,-0.58483016,0.010652645,0.017044231,5.22,51.72,3.12
1554878785160,-9.14585,-3.0986955000000003,0.19093758,-0.5134575,0.007456851,0.012783173500000002,5.34,51.54,3.3
1554878785181,-9.184157,-2.9454667999999997,-0.06284779,-0.4101268,0.010652645,0.013848438000000001,5.46,51.3,3.54
1554878785201,-9.390058999999999,-3.0747535,0.05686229,-0.24181503,0.023435817999999997,0.027696876000000002,5.52,51.06,3.78
1554878785221,-9.3661175,-3.1657330000000004,0.17178397,-0.004261058,0.035153727999999995,0.04261058,5.58,50.88,4.08
1554878785241,-9.370906,-2.8927941,0.18136078,0.18429075,0.05006743,0.05006743,5.58,50.64,4.38
1554878785261,-9.332599,-2.7635074,0.19572599,0.2545982,0.06711166,0.053263225,5.64,50.46,4.68
1554878785280,-9.294291000000001,-2.7204118,0.22445641,0.2609898,0.082025364,0.06391586,5.64,50.28,4.92
1554878785300,-9.241617999999999,-2.7347770000000002,-0.019752163,0.25246766,0.098004326,0.054328485999999995,5.58,50.16,5.1
1554878785320,-9.399636,-2.7730842,-0.14425065,0.2972088,0.10972224,0.029827405,5.52,50.1,5.16
1554878785339,-9.308656,-2.9502552000000004,-0.6853402,0.39627838,0.06498113,0.03195793,5.46,50.04,5.16
1554878785359,-9.3182335,-2.6677392,-0.42676646,0.46765109999999993,0.082025364,0.040480047000000005,5.4,50.04,5.1
1554878785380,-9.481038999999999,-2.3900118,-0.17776948,0.4282363,0.07350325,-0.018109497,5.4,49.98,4.92
1554878785399,-9.428367,-2.4426842,-0.30705637,0.330232,0.054328485999999995,0.02130529,5.4,49.98,4.74
1554878785419,-9.442732000000001,-2.4762032000000005,-0.110731825,0.22264028,0.040480047000000005,0.025566347000000003,5.4,49.98,4.62
1554878785440,-9.380483,-2.4187422,-0.23044191,0.06711166,0.023435817999999997,-0.018109497,5.46,49.92,4.5
1554878785459,-9.380483,-2.5384523999999997,-0.20171149,-0.06498113,0.011717908999999999,-0.008522116,5.46,49.92,4.38
1554878785480,-9.3182335,-2.7252002,-0.21607670000000004,-0.10333065,0.0031957934000000003,0.0010652645,5.52,49.98,4.32
1554878785500,-9.3661175,-2.8018146,-0.0724246,-0.051132694000000006,0.020240024,-0.008522116,5.52,50.04,4.26
1554878785519,-9.399636,-2.782661,-0.3309984,0.034088463,0.00958738,-0.0063915867,5.52,50.1,4.26
1554878785539,-9.409213000000001,-2.7299886000000004,-0.20649989,0.06285059999999999,0.018109497,-0.007456851,5.58,50.16,4.26
1554878785560,-9.370906,-2.5576060000000003,-0.0676362,0.05965481,0.008522116,-0.017044231,5.58,50.28,4.26
1554878785580,-9.313444,-2.5240872000000003,-0.12509704,-0.020240024,0.004261058,-0.011717908999999999,5.58,50.34,4.26
1554878785600,-9.399636,-2.5911248,0.02813187,-0.12250541,0.0031957934000000003,0.002130529,5.58,50.4,4.26
1554878785620,-9.404425,-2.6437972000000003,-0.22086509999999998,-0.20026971,-0.0010652645,0.013848438000000001,5.58,50.46,4.32
1554878785640,-9.509769,-2.7635074,-0.0005985504,-0.23542345,-0.0053263223,0.02876214,5.58,50.46,4.32
1554878785659,-9.404425,-2.782661,-0.12030864,-0.23329292,-0.0063915867,0.03089267,5.58,50.46,4.32
1554878785679,-9.212888000000001,-2.782661,-0.16819267,-0.21944448,-0.012783173500000002,0.03089267,5.58,50.4,4.26
1554878785699,-9.394848,-2.7204118,-0.12030864,-0.20453078,0.0010652645,0.047936900000000005,5.58,50.34,4.26
1554878785721,-9.3661175,-2.6390088,-0.110731825,-0.1470065,0.008522116,0.054328485999999995,5.58,50.22,4.26
1554878785741,-9.380483,-2.6102784,-0.0724246,-0.06711166,0.02130529,0.051132694000000006,5.58,50.16,4.26
1554878785761,-9.390058999999999,-2.5767596,-0.06284779,0.017044231,0.035153727999999995,0.051132694000000006,5.58,50.1,4.26
1554878785780,-9.279925,-2.5001452,-0.0053869537,0.07030745599999999,0.043675844000000005,0.029827405,5.58,50.04,4.2
1554878785799,-9.323022,-2.4474726,-0.110731825,0.09161274,0.046871635999999994,0.011717908999999999,5.52,49.98,4.2
1554878785819,-9.332599,-2.5719712,-0.038905777,0.14061491,0.07456851,0.007456851,5.52,49.86,4.2
1554878785840,-9.26556,-2.7682957999999998,0.02813187,0.20985709,0.09161274,0.0053263223,5.52,49.8,4.26
1554878785860,-9.390058999999999,-2.629432,-0.39803603,0.28442562,0.112918034,-0.0031957934000000003,5.52,49.8,4.38
1554878785879,-9.390058999999999,-2.6629508,-0.40761283,0.34088463,0.101200126,0.012783173500000002,5.52,49.74,4.5
1554878785900,-9.409213000000001,-2.6485856,-0.6278794,0.36964676,0.07989483,0.020240024,5.52,49.68,4.56
1554878785920,-9.533711,-2.581548,-0.4890157,0.4079963,0.07989483,0.011717908999999999,5.52,49.68,4.68
1554878785939,-9.409213000000001,-2.4905684,-0.55605334,0.41864893,0.04261058,0.026631612000000002,5.52,49.68,4.68
1554878785959,-9.452309,-2.5001452,-0.53211135,0.39627838,0.036218993,0.039414786,5.52,49.68,4.74
1554878785980,-9.428367,-2.3181857999999997,-0.43155485,0.3174488,0.027696876000000002,0.012783173500000002,5.52,49.74,4.74
1554878786000,-9.380483,-2.3995886000000004,-0.25438392,0.28442562,0.014913702,-0.02130529,5.52,49.8,4.68
1554878786020,-9.188946000000001,-2.4666264,0.09995792,0.30360037,0.029827405,-0.046871635999999994,5.46,49.86,4.62
1554878786039,-9.500193,-2.4378957999999997,0.19093758,0.43356264,0.06178534,-0.07563378,5.46,49.98,4.5
1554878786059,-9.394848,-2.5959132,-0.05327099,0.50600064,0.04474111,-0.034088463,5.46,50.1,4.38
1554878786080,-9.356541,-2.7204118,-0.048482585999999994,0.5123922000000001,0.051132694000000006,0.0063915867,5.46,50.1,4.32
1554878786100,-9.504980999999999,-2.9550436,-0.0724246,0.5965481,0.058589544,0.0010652645,5.46,50.34,4.14
1554878786119,-9.3182335,-3.007716,0.19572599,0.72651035,0.07776430000000001,0.0063915867,5.52,50.52,3.96
1554878786139,-9.370906,-2.8592752999999997,0.3585317,0.9587379999999999,0.12676647,0.007456851,5.58,50.7,3.78
1554878786160,-9.557653,-2.6533740000000003,0.10474633,1.2420983,0.13422333,0.007456851,5.64,50.94,3.42
1554878786180,-9.471461999999999,-2.806603,-0.22086509999999998,1.4551512,0.12037488,0.05006743,5.7,51.24,3.06
1554878786200,-9.284714,-2.9167361,-0.15382746,1.5851135,0.11717909,0.068176925,5.76,51.54,2.7
1554878786220,-9.313444,-2.5288756,-0.077213004,1.6554209999999998,0.13635385,0.026631612000000002,5.82,51.84,2.28
1554878786240,-9.203311,-2.260725,-0.05805939,1.6064188,0.13741912,0.0031957934000000003,5.82,52.26,1.8
1554878786259,-9.447519999999999,-2.03567,-0.21128829999999998,1.4508902,0.15126756,0.014913702,5.82,52.56,1.2
1554878786280,-9.648633,-2.083554,-0.21607670000000004,1.0876350000000001,0.13315806,0.05965481,5.76,52.92,0.48
1554878786299,-9.442732000000001,-1.9829974999999997,0.11432313,0.8309063,0.12250541,0.060720075,5.64,53.28,-0.18
1554878786319,-9.615114,-2.1266496,0.023343466,0.5592638000000001,0.113983296,0.035153727999999995,5.58,53.52,-0.84
1554878786344,-9.370906,-1.9351135,0.26276365,0.37923414,0.101200126,0.02876214,5.52,53.76,-1.56
1554878786360,-9.370906,-1.9207484000000001,0.008978256,0.32277513,0.10013486,0.027696876000000002,5.46,53.94,-2.16
1554878786379,-9.41879,-1.9207484000000001,0.20051439,0.24714136,0.08841695,0.035153727999999995,5.46,54.12,-2.76
1554878786400,-9.557653,-2.0021513,0.28670564,0.2066613,0.096939065,0.01917476,5.4,54.18,-3.24
1554878786419,-9.56723,-2.2080526000000003,-0.23523031,0.15659387,0.06178534,0.002130529,5.4,54.3,-3.66
1554878786440,-9.504980999999999,-2.2942438,-0.15861586,0.080960095,0.047936900000000005,0.037284255,5.46,54.36,-3.9
1554878786460,-9.461885,-2.3660697999999996,0.15263036,0.047936900000000005,0.03834952,0.04580637,5.52,54.36,-4.14
1554878786480,-9.509769,-2.4474726,0.28670564,0.099069595,0.014913702,0.04474111,5.52,54.42,-4.32
1554878786500,-9.414000999999999,-2.4426842,0.17657238,0.24394555,0.020240024,0.053263225,5.58,54.42,-4.5
1554878786520,-9.504980999999999,-2.2942438,0.41120413,0.42717105,0.024501082,0.054328485999999995,5.58,54.42,-4.62
1554878786542,-9.476251,-2.3900118,0.44472298,0.6199839,0.037284255,0.06391586,5.58,54.48,-4.74
1554878786561,-9.461885,-2.2798786,0.54049104,0.77231675,0.06178534,0.07456851,5.58,54.48,-4.86
1554878786580,-9.514558000000001,-2.1410147999999998,0.5931635000000001,0.87990844,0.082025364,0.07350325,5.52,54.54,-4.98
1554878786600,-9.5385,-2.1745335999999997,0.19572599,0.9736517,0.08948222,0.07350325,5.52,54.54,-5.04
1554878786619,-9.457097000000001,-2.0452468,0.31064767,1.0077401,0.09054748,0.080960095,5.52,54.6,-5.1
1554878786640,-9.56723,-2.0260932,0.21009120000000003,1.0237192,0.10226539,0.08735169,5.58,54.6,-5.34
1554878786660,-9.504980999999999,-1.9494787,0.30585927,1.0130665,0.10972224,0.07882957,5.58,54.6,-5.58
1554878786680,-9.600749,-1.9686323000000001,-0.014963761,0.9267801,0.06711166,0.07137272,5.64,54.6,-5.94
1554878786700,-9.500193,-1.9542671000000003,-0.09636662,0.8426242,0.05539375,0.07563378,5.7,54.54,-6.54
1554878786720,-9.528922999999999,-1.6095021,0.27712885,0.6988135,0.06604639400000001,0.027696876000000002,5.76,54.48,-6.72
1554878786739,-9.648633,-1.5951369,0.28670564,0.5550028,0.043675844000000005,0.054328485999999995,5.82,54.36,-7.2
1554878786761,-9.476251,-1.8537107,0.3298013,0.5475459,0.041545313,0.09587380000000001,5.94,54.24,-8.04
1554878786779,-9.548077000000001,-1.5520413,0.19093758,0.6061354999999999,0.03195793,0.054328485999999995,6.0,54.12,-8.52
1554878786799,-9.634267999999999,-1.4945803999999998,0.24839842,0.6402239000000001,0.041545313,0.013848438000000001,6.06,54.06,-9.06
1554878786820,-9.615114,-1.6717514,0.32501290000000005,0.55287224,0.023435817999999997,0.026631612000000002,6.18,54.06,-9.54
1554878786840,-9.543288,-1.5711948999999998,0.56443304,0.45380265,0.012783173500000002,0.026631612000000002,6.24,54.0,-10.02
1554878786860,-9.662998,-1.6621746,0.26755205,0.34514567,0.013848438000000001,0.01917476,6.36,54.0,-10.44
1554878786879,-9.495403999999999,-1.6334441000000002,0.7846996,0.257794,0.017044231,0.011717908999999999,6.48,54.0,-10.8
1554878786899,-9.615114,-1.6334441000000002,0.43514615,0.19600865,0.002130529,0.013848438000000001,6.54,54.06,-11.1
1554878786921,-9.557653,-1.6095021,0.52133745,0.13209279,-0.0010652645,0.020240024,6.66,54.06,-11.34
1554878786941,-9.528922999999999,-1.4131776000000003,0.6218939,0.10439592,-0.0010652645,-0.015978966,6.78,54.06,-11.58
1554878786961,-9.543288,-1.6238673000000001,0.76554596,0.12783173,0.0053263223,-0.01917476,6.84,54.06,-11.76
1554878786980,-9.552864999999999,-1.6813281999999998,0.56922144,0.19068234,0.012783173500000002,-0.025566347000000003,6.96,54.06,-11.88
1554878787000,-9.581595,-1.6621746,0.54527944,0.2609898,0.014913702,-0.039414786,7.02,54.0,-12.06
1554878787020,-9.629479,-1.5233108,0.3393781,0.27803403,0.011717908999999999,-0.04261058,7.02,54.0,-12.24
1554878787040,-9.639056,-1.5711948999999998,0.3681085,0.20453078,0.0,-0.02130529,6.96,53.94,-12.36
1554878787060,-9.533711,-1.5568296999999998,0.54049104,0.10333065,-0.017044231,-0.008522116,6.96,53.94,-12.48
1554878787080,-9.5385,-1.5711948999999998,0.6075286999999999,0.0,-0.01917476,-0.012783173500000002,6.96,53.94,-12.6
1554878787099,-9.600749,-1.6430208999999998,0.65062433,0.0063915867,-0.0063915867,-0.018109497,6.96,53.88,-12.66
1554878787120,-9.595961,-1.738789,0.5021838,0.04580637,-0.002130529,-0.014913702,6.96,53.76,-12.66
1554878787139,-9.56723,-1.6525976999999998,0.43514615,0.02876214,-0.012783173500000002,-0.013848438000000001,6.96,53.64,-12.72
1554878787160,-9.476251,-1.7244238,0.5021838,-0.018109497,-0.022370555,-0.00958738,6.96,53.52,-12.72
1554878787180,-9.600749,-1.7866731,0.30107087,-0.03195793,-0.08628642,-0.0010652645,6.9,53.4,-12.78
1554878787200,-9.56723,-1.6621746,0.22445641,-0.007456851,-0.08628642,0.013848438000000001,6.84,53.28,-12.84
1554878787220,-9.428367,-1.4802152,0.741604,-0.037284255,-0.05752428,-0.047936900000000005,6.78,53.16,-12.9
1554878787239,-9.524135000000001,-1.5855601000000001,0.7942764,-0.05752428,-0.039414786,-0.022370555,6.78,53.04,-12.96
1554878787259,-9.457097000000001,-1.6142905,0.9379284999999999,-0.018109497,-0.02876214,-0.002130529,6.72,52.98,-13.02
1554878787280,-9.595961,-1.5520413,0.7846996,0.03195793,-0.018109497,-0.036218993,6.72,52.92,-13.02
1554878787300,-9.562441999999999,-1.5664065,0.6745663000000001,0.046871635999999994,-0.015978966,-0.022370555,6.72,52.92,-13.08
1554878787319,-9.504980999999999,-1.6813281999999998,0.43035775,0.013848438000000001,-0.02130529,-0.012783173500000002,6.66,52.92,-13.02
1554878787340,-9.447519999999999,-1.6430208999999998,0.6027403,-0.023435817999999997,-0.014913702,-0.029827405,6.72,52.98,-13.02
1554878787359,-9.610325999999999,-1.6334441000000002,0.44951138,-0.047936900000000005,-0.013848438000000001,-0.010652645,6.84,53.04,-12.96
1554878787379,-9.533711,-1.6286557,0.5165489999999999,-0.053263225,-0.014913702,-0.008522116,6.84,53.1,-12.96
1554878787399,-9.586383999999999,-1.5903485000000002,0.45908818,-0.039414786,-0.022370555,-0.037284255,6.9,53.22,-12.96
1554878787420,-9.600749,-1.4706384,0.86131406,-0.0053263223,-0.020240024,-0.041545313,6.96,53.28,-12.96
1554878787441,-9.591172,-1.4227544,0.53091425,0.011717908999999999,-0.029827405,-0.054328485999999995,6.96,53.34,-12.96
1554878787461,-9.524135000000001,-1.4466964,0.54527944,-0.039414786,-0.03195793,-0.054328485999999995,6.96,53.4,-12.9
1554878787480,-9.524135000000001,-1.7004818,0.52133745,-0.09161274,-0.033023197000000004,-0.049002163,6.96,53.4,-12.9
1554878787500,-9.476251,-1.7340006000000001,0.54049104,-0.12570119999999999,-0.02876214,-0.05006743,7.02,53.4,-12.9
1554878787520,-9.5385,-1.6813281999999998,0.6985083000000001,-0.12357068,-0.025566347000000003,-0.060720075,7.02,53.4,-12.9
1554878787540,-9.56723,-1.6525976999999998,0.64583594,-0.12037488,-0.03089267,-0.05752428,7.02,53.34,-12.9
1554878787560,-9.600749,-1.7052702000000002,0.84694886,-0.10759171,-0.02876214,-0.054328485999999995,7.02,53.34,-12.9
1554878787579,-9.509769,-1.8776526000000002,0.7128736,-0.06924219,-0.020240024,-0.056459017,7.02,53.34,-12.9
1554878787599,-9.586383999999999,-1.7914615000000003,0.7224503999999999,-0.036218993,-0.012783173500000002,-0.056459017,7.08,53.28,-12.9
1554878787620,-9.562441999999999,-1.762731,0.6123171,-0.012783173500000002,-0.00958738,-0.06391586,7.08,53.28,-12.84
1554878787639,-9.519346,-1.7292121999999999,0.7751228,0.010652645,-0.0053263223,-0.06498113,7.08,53.28,-12.84
1554878787660,-9.619903,-1.7818846999999998,0.6171055000000001,0.041545313,-0.0031957934000000003,-0.05539375,7.02,53.28,-12.72
1554878787680,-9.619903,-1.9734207,0.6745663000000001,0.041545313,-0.0031957934000000003,-0.027696876000000002,7.02,53.28,-12.72
1554878787702,-9.452309,-1.9255368000000002,0.56922144,0.05539375,-0.0053263223,-0.015978966,7.02,53.28,-12.66
1554878787720,-9.476251,-1.8106151000000001,0.7224503999999999,0.10865697,0.008522116,-0.023435817999999997,7.02,53.28,-12.6
1554878787741,-9.572019000000001,-1.8010383,0.45429978,0.16192019,0.0031957934000000003,-0.026631612000000002,6.96,53.28,-12.6
1554878787759,-9.509769,-1.6765398,0.53570265,0.17789917,0.0010652645,-0.022370555,6.96,53.28,-12.6
1554878787780,-9.528922999999999,-1.6669630000000002,0.7128736,0.2066613,0.0,-0.01917476,6.9,53.28,-12.6
1554878787799,-9.500193,-1.7004818,0.56922144,0.23648871,-0.014913702,-0.015978966,6.9,53.28,-12.6
1554878787820,-9.457097000000001,-1.7196354,0.65062433,0.27803403,-0.022370555,-0.007456851,6.9,53.28,-12.66
1554878787840,-9.548077000000001,-1.6621746,0.55964464,0.31318775,-0.029827405,-0.0010652645,6.9,53.34,-12.66
1554878787859,-9.504980999999999,-1.6238673000000001,0.6889314999999999,0.32810146,-0.023435817999999997,-0.0053263223,6.9,53.34,-12.78
1554878787879,-9.576807,-1.5089456,0.7272388000000001,0.33768883,-0.027696876000000002,-0.004261058,6.9,53.34,-12.9
1554878787899,-9.562441999999999,-1.5233108,0.64583594,0.32170987,-0.024501082,0.011717908999999999,6.9,53.28,-13.02
1554878787920,-9.414000999999999,-1.5807717,0.76554596,0.27483824,-0.040480047000000005,0.020240024,6.9,53.28,-13.2
1554878787940,-9.323022,-1.6478093,0.7032967,0.14594123,-0.06498113,0.033023197000000004,6.9,53.22,-13.32
1554878787959,-9.370906,-1.5280992,0.49739540000000004,0.05752428,-0.09267801,0.034088463,6.84,53.16,-13.5
1554878787979,-9.481038999999999,-1.3509283,0.3776853,-0.037284255,-0.13102753,0.024501082,6.84,53.1,-13.62
1554878788000,-9.811439,-1.3796587,0.55485624,-0.07243799,-0.15446335,-0.0031957934000000003,6.78,53.04,-13.74
1554878788020,-9.888053,-1.3844471,0.97623575,-0.05965481,-0.10972224,0.014913702,6.78,53.04,-13.8
1554878788040,-10.026916499999999,-1.3892354999999998,1.0145429,-0.046871635999999994,-0.07989483,0.041545313,6.78,52.98,-13.86
1554878788059,-10.041282,-1.3844471,0.7032967,-0.11504856,-0.10333065,0.026631612000000002,6.78,52.98,-13.86
1554878788079,-9.749189,-1.2503718000000001,0.38726214,-0.28549087,-0.16937704,-0.022370555,6.78,52.92,-13.86
1554878788100,-9.279925,-1.3413515,0.5883751,-0.515588,-0.21624869,-0.09374327,6.78,52.92,-13.92
1554878788120,-9.275136999999999,-1.6286557,0.75596917,-0.69348717,-0.21411815,-0.1470065,6.84,52.92,-13.92
1554878788139,-9.361329,-2.0452468,0.86131406,-0.8543421,-0.2066613,-0.13635385,6.84,52.98,-13.92
1554878788160,-9.557653,-2.260725,0.6889314999999999,-0.99069595,-0.25353295,-0.14061491,6.84,53.04,-13.98
1554878788180,-9.696517,-2.308609,0.7368156,-1.0365024,-0.28868666,-0.128897,6.84,53.16,-13.98
1554878788200,-9.643844999999999,-2.4953567999999997,1.0289081,-0.9757822,-0.31638354,-0.09161274,6.84,53.22,-13.92
1554878788220,-9.380483,-2.3660697999999996,1.335366,-0.7819041,-0.31957933,-0.046871635999999994,6.78,53.4,-13.74
1554878788239,-9.399636,-2.3660697999999996,1.2012907,-0.45699844,-0.28442562,-0.047936900000000005,6.78,53.52,-13.5
1554878788259,-9.428367,-2.059612,1.2204443,-0.1768339,-0.27164245,-0.035153727999999995,6.72,53.64,-13.2
1554878788280,-9.3661175,-1.6813281999999998,0.9283517,-0.04474111,-0.27057716,-0.036218993,6.72,53.82,-12.78
1554878788300,-9.461885,-1.3748703000000002,0.8086416000000001,-0.15978967,-0.2972088,-0.047936900000000005,6.66,53.88,-12.3
1554878788319,-9.639056,-1.1785458,0.6171055000000001,-0.5422196,-0.34514567,-0.017044231,6.66,53.94,-11.88
1554878788339,-9.615114,-1.2503718000000001,0.741604,-0.9779128,-0.38562572,0.029827405,6.6,54.0,-11.46
1554878788360,-9.485827,-1.4802152,0.9187749,-1.2644688999999998,-0.4261058,0.051132694000000006,6.6,54.06,-11.16
1554878788380,-9.471461999999999,-1.6717514,0.96187055,-1.293231,-0.44741106,0.04261058,6.54,54.12,-10.92
1554878788399,-9.629479,-1.8010383,1.0241197,-1.1483551,-0.45167214,0.041545313,6.48,54.12,-10.68
1554878788419,-9.883265,-2.083554,0.9187749,-0.9853696,-0.45060685,0.033023197000000004,6.42,54.18,-10.44
1554878788440,-9.739613,-2.0883423999999997,0.87089086,-0.92784536,-0.50813115,0.0063915867,6.36,54.24,-10.14
1554878788460,-9.730036,-2.4378957999999997,0.9475053,-0.9800433000000001,-0.53795856,0.008522116,6.36,54.3,-9.78
1554878788480,-9.725247,-2.4091654,1.0432734000000001,-1.0940266,-0.57311225,0.03089267,6.48,54.36,-9.42
1554878788499,-9.543288,-2.6725276,1.0720038,-1.2090752,-0.61678815,0.046871635999999994,6.54,54.42,-9.18
1554878788519,-9.452309,-2.8018146,1.0097545,-1.3528858,-0.6743124,0.07243799,6.66,54.48,-8.64
1554878788539,-9.768343,-3.127426,1.7040731,-1.4466291999999998,-0.6945524000000001,0.11930962,6.9,54.6,-7.74
1554878788559,-9.825804,-3.0556,1.857302,-1.4136058999999999,-0.71479243,0.14913702,6.96,54.6,-7.44
1554878788581,-9.725247,-3.093907,1.6657659,-1.2900352,-0.74035877,0.20240025,7.2,54.66,-6.42
1554878788601,-9.3421755,-2.878429,1.7423803,-1.2431636000000001,-0.7882956999999999,0.18748654,7.38,54.6,-5.82
1554878788621,-9.351752000000001,-2.959832,1.9243397,-1.2346416,-0.8319715,0.16724652,7.5,54.48,-5.22
1554878788640,-9.437942999999999,-2.9454667999999997,2.235586,-1.1792477,-0.8426242,0.17150758,7.62,54.18,-4.62
1554878788660,-9.409213000000001,-2.8880057,2.1733365,-1.0844392,-0.8266452,0.16724652,7.68,53.88,-4.14
1554878788680,-9.275136999999999,-2.8018146,1.8429368000000002,-1.0013485999999998,-0.80107886,0.14807177,7.74,53.64,-3.72
1554878788700,-9.370906,-2.6198552000000004,2.0775685,-0.9214538000000001,-0.78296936,0.14807177,7.92,53.34,-3.48
1554878788719,-9.557653,-2.710835,1.9961656000000003,-0.813862,-0.76592517,0.19281286,8.22,53.04,-3.18
1554878788739,-9.763555,-2.5767596,1.7471686999999998,-0.67218184,-0.7307714,0.24074976,8.58,52.8,-2.94
1554878788760,-9.481038999999999,-2.1505916000000003,1.5508442,-0.664725,-0.70200926,0.30360037,8.94,52.56,-2.76
1554878788780,-9.428367,-1.9590555,1.6897078999999997,-0.7946873000000001,-0.6583334,0.39627838,9.3,52.44,-2.58
1554878788800,-9.552864999999999,-2.0260932,2.0775685,-0.96086854,-0.61891866,0.49534798,9.66,52.38,-2.4
1554878788819,-9.021352,-2.0165164,2.4271219,-1.0769824,-0.6295713000000001,0.57417756,10.02,52.26,-2.22
1554878788839,-8.106767,-1.7052702000000002,2.7240029999999997,-1.0492854999999999,-0.60080916,0.6487460999999999,10.38,52.02,-2.1
1554878788860,-8.552089,-1.3988123,3.020884,-0.98750013,-0.50173956,0.69135666,10.86,51.72,-1.92
1554878788880,-8.954314,-1.1067197,3.4422636,-0.98856544,-0.50813115,0.6625945,11.34,51.36,-1.8
1554878788899,-8.786719999999999,-1.2312181999999998,3.7870286,-1.0365024,-0.5656554,0.64341974,11.64,50.94,-1.68
1554878788920,-8.714894000000001,-1.3269863000000002,4.217984700000001,-1.091896,-0.54648066,0.61678815,12.0,50.52,-1.5
1554878788940,-8.614338,-1.4514848,4.088698,-1.139833,-0.52837116,0.5592638000000001,12.36,50.04,-1.32
1554878788959,-8.647857,-1.8632874,3.6337996,-1.2676646999999999,-0.51026165,0.50173956,12.78,49.44,-1.14
1554878788979,-8.552089,-2.1266496,3.8827964999999995,-1.4935007,-0.5400891,0.44741106,13.26,48.78,-0.96
1554878789000,-8.073248,-2.3612813999999998,4.2610803,-1.7662083999999998,-0.5997439,0.44634579999999996,13.74,48.06,-0.72
1554878789020,-7.929596000000001,-2.5384523999999997,4.7255554,-2.0090888,-0.5944176,0.45806372,14.16,47.34,-0.48
1554878789040,-8.09719,-2.5719712,4.735132,-2.1145499,-0.55287224,0.43995422,14.46,46.56,-0.06
1554878789059,-8.130709,-2.6964695,4.601057,-2.0165455000000003,-0.49854377,0.38242993,14.88,45.54,0.48
1554878789079,-8.073248,-2.8401217,4.280234,-1.7875136999999999,-0.43995422,0.350472,15.3,44.58,0.84
1554878789100,-7.876923599999999,-2.8496985,4.2898107,-1.4871092,-0.3536678,0.34514567,15.72,43.62,1.2
1554878789120,-8.010999,-2.677316,3.9785647000000006,-1.176052,-0.29614353,0.29188246,16.08,42.78,1.62
1554878789140,-8.408437,-2.6390088,3.54282,-0.88949585,-0.25033715,0.24607609,16.38,41.94,1.98
1554878789159,-8.6095495,-2.5863364,3.5332432000000003,-0.74248934,-0.24394555,0.23861924,16.74,41.22,2.4
1554878789179,-8.446744,-2.6390088,3.2555158,-0.6061354999999999,-0.2609898,0.26738137,17.1,40.44,2.76
1554878789200,-8.197746,-2.4714148,3.2267854,-0.58269966,-0.27590349999999997,0.27803403,17.4,39.78,2.94
1554878789220,-8.379706,-2.0787656,2.8485014,-0.6775081999999999,-0.2972088,0.27057716,17.58,39.24,3.0
1554878789239,-8.738836000000001,-1.6909049999999999,2.9107506,-0.87564737,-0.30999196,0.26205507,17.76,38.7,3.12
1554878789260,-8.604761,-1.4466964,2.6282349,-1.1632688,-0.38882150000000004,0.2790993,18.0,38.1,3.24
1554878789279,-8.327033,-1.7292121999999999,2.8006175,-1.433846,-0.4250405,0.2972088,18.24,37.26,3.3
1554878789299,-8.192958,-2.0452468,2.9969419999999998,-1.598962,-0.46339005,0.27696875,18.54,36.42,3.36
1554878789320,-7.943961,-2.4762032000000005,2.9538465,-1.6373115,-0.4889564,0.26844665,18.78,35.64,3.36
1554878789340,-7.699753,-3.0268695,3.0065188,-1.5361114,-0.5230448000000001,0.23542345,19.08,34.26,3.36
1554878789360,-7.546523599999999,-3.3572693,3.044826,-1.3603427,-0.49854377,0.19174760000000002,19.32,33.42,3.42
1554878789379,-8.063671000000001,-3.615843,3.1118636000000004,-1.1888351000000001,-0.42397526,0.14807177,19.62,32.4,3.42
1554878789399,-8.283937,-3.6254199000000003,3.198055,-1.0737866000000003,-0.386691,0.10546118,19.74,31.92,3.42
1554878789420,-8.169016000000001,-3.4051532999999994,3.365649,-0.9193232,-0.3653857,0.12357068,20.1,30.72,3.48
1554878789440,-8.154651,-3.1848867000000003,3.5571851999999997,-0.7797736,-0.3153183,0.17257284,20.28,30.0,3.48
1554878789459,-8.130709,-2.8353333,3.4757824,-0.6242449999999999,-0.2695119,0.18216023,20.46,29.34,3.42
1554878789480,-8.236053,-2.7443538,3.3129766000000003,-0.4857606,-0.18216023,0.16298546,20.58,28.8,3.36
1554878789500,-8.561666,-2.7874494,3.3512837999999996,-0.39201729999999996,-0.083090626,0.12570119999999999,20.76,28.32,3.24
1554878789520,-8.599973,-2.9694088,3.1501707999999997,-0.33981937,0.03089267,0.05752428,20.94,27.96,3.12
1554878789540,-8.528147,-3.3476925000000004,3.068768,-0.2908172,0.13954964,-0.037284255,21.12,27.66,3.0
1554878789561,-8.6334915,-3.7116113,2.9969419999999998,-0.19281286,0.2545982,-0.1438107,21.3,27.42,2.88
1554878789580,-8.595184,-3.7786489000000003,2.8628666000000003,-0.13422333,0.28868666,-0.18429075,21.42,27.18,2.76
1554878789600,-8.350976,-4.0994720000000004,2.6761188999999996,-0.096939065,0.3334278,-0.19387813,21.54,27.0,2.7
1554878789619,-8.082825,-3.912724,2.8389246,-0.07563378,0.38029942,-0.20772657,21.66,26.88,2.76
1554878789640,-8.006210000000001,-3.5392287000000002,2.6378117000000003,0.018109497,0.45380265,-0.27590349999999997,21.78,26.82,2.88
1554878789659,-8.39886,-3.2902317,2.570774,0.17363810000000002,0.5475459,-0.35899413,21.78,26.76,3.06
1554878789679,-8.748413000000001,-2.9981391,2.4223334999999997,0.32490566,0.6178534000000001,-0.42930159999999995,21.72,26.7,3.18
1554878789700,-9.035717,-2.7060466,2.3936029999999997,0.46339005,0.6380934,-0.45593318,21.66,26.64,3.42
1554878789720,-9.184157,-2.533664,2.417545,0.45486793,0.63915867,-0.44634579999999996,21.48,26.64,3.72
1554878789739,-9.255983,-2.6102784,2.6042929,0.34514567,0.60933125,-0.45060685,21.36,26.7,4.08
1554878789760,-9.179369,-2.7443538,2.8963853999999998,0.23968449999999997,0.6125271,-0.42077947,21.12,26.88,4.44
1554878789779,-9.184157,-2.7347770000000002,2.7862522999999997,0.18216023,0.62531024,-0.406931,20.76,27.12,4.74
1554878789799,-9.394848,-2.7635074,2.4893713,0.15765914,0.6263755,-0.38242993,20.46,27.42,5.04
1554878789819,-9.490616000000001,-2.8209682000000003,2.3600842999999996,0.1470065,0.5795039000000001,-0.36325517,20.04,27.78,5.28
1554878789840,-9.26556,-3.0508115,2.3361422999999997,0.15552860000000002,0.515588,-0.34408042,19.68,28.2,5.64
1554878789859,-9.059659,-3.2231941,2.1637597,0.17789917,0.39201729999999996,-0.30679616,19.38,28.62,5.94
1554878789880,-9.193734,-3.256713,2.6569653,0.165116,0.26844665,-0.2972088,19.08,29.1,6.24
1554878789900,-9.179369,-3.127426,2.9394810000000002,0.14061491,0.11504856,-0.29827404,18.84,29.52,6.48
1554878789920,-8.882488,-3.2615013,3.0065188,0.111852765,0.0053263223,-0.26205507,18.6,29.94,6.72
1554878789939,-8.892064999999999,-3.3381157,3.0831332000000002,0.07350325,-0.023435817999999997,-0.25246766,18.42,30.24,6.9
1554878789960,-9.045294,-3.1130607000000006,3.1453824,-0.011717908999999999,-0.053263225,-0.257794,18.24,30.48,7.14
1554878789979,-9.083601,-3.0986955000000003,3.1022868,-0.17044231,-0.07137272,-0.23116238,18.12,30.72,7.32
1554878789999,-8.825027,-3.0843303,3.2507273999999997,-0.32490566,-0.11717909,-0.20879184,18.0,30.96,7.5
1554878790020,-8.619126,-2.9502552000000004,3.2124202,-0.3685815,-0.12783173,-0.19707392,17.88,31.14,7.68
1554878790039,-8.485051,-3.0268695,3.2124202,-0.29188246,-0.1107875,-0.22477080000000002,17.7,31.26,7.68
1554878790059,-7.915230800000001,-3.0508115,3.0352492,-0.19813919,-0.09054748,-0.23116238,17.52,31.32,7.68
1554878790080,-7.517792999999999,-3.2902317,2.4558525,-0.13741912,-0.05539375,-0.20133498,17.34,31.26,7.68
1554878790100,-7.278373200000001,-3.2854433,2.1398177000000005,-0.13209279,0.029827405,-0.21092236,17.22,31.26,7.74
1554878790120,-7.2113357,-3.3381157,1.8381484000000001,-0.23009712,0.09267801,-0.24501082,17.16,31.26,7.68
1554878790139,-7.254431200000001,-3.7163997,1.4885948999999998,-0.386691,0.19387813,-0.2727077,17.16,31.2,7.74
1554878790160,-7.345411,-4.085107,0.9139864999999999,-0.7073356,0.30146983,-0.33875409999999995,17.16,31.14,7.74
1554878790180,-7.541735000000001,-4.540005000000001,0.717662,-1.0396981,0.3898868,-0.37710363,17.16,31.08,7.8
1554878790199,-7.589619,-5.167286,0.45908818,-1.3486248,0.5134575,-0.406931,17.16,31.08,7.92
1554878790220,-7.9391727,-5.5168395,-0.22565351,-1.6500946,0.6221144000000001,-0.42077947,17.1,31.14,8.1
1554878790239,-7.8146744,-5.8041434,-0.7092823,-1.8919096999999998,0.67005134,-0.39201729999999996,17.04,31.08,8.28
1554878790259,-7.7572136,-6.3643866,-1.1354501000000001,-2.0399814,0.59867865,-0.36645097,16.98,30.78,8.52
1554878790279,-8.183380999999999,-6.632537400000001,-0.8960299999999999,-2.0133498,0.5113269,-0.38456047,16.86,30.24,8.76
1554878790300,-8.839393,-6.737882000000001,-0.6135142,-1.824798,0.3749731,-0.46765109999999993,16.62,29.58,9.06
1554878790321,-8.542512,-6.656479400000001,-0.28790274,-1.582983,0.128897,-0.51665324,16.38,28.92,9.48
1554878790341,-7.929596000000001,-6.5990186,0.19572599,-1.3933659,-0.04474111,-0.49960902,16.08,28.2,9.96
1554878790361,-7.541735000000001,-6.6612678,0.5165489999999999,-1.2623383999999997,-0.15126756,-0.5571333,15.78,27.36,10.38
1554878790380,-7.728483,-6.407482,1.0193313,-1.1163971000000001,-0.16298546,-0.6444850000000001,15.48,26.52,10.8
1554878790400,-7.8577699999999995,-6.2303114,0.6075286999999999,-0.94488955,-0.16618125,-0.6593986999999999,15.24,25.62,11.22
1554878790420,-7.943961,-5.9717374,0.17657238,-0.8309063,-0.18748654,-0.60720074,15.06,24.9,11.58
1554878790440,-8.212111,-6.019622,-0.40761283,-0.84155893,-0.2066613,-0.5091964,14.88,24.42,11.88
1554878790460,-8.571242,-5.93343,-1.1881226,-0.9555421999999999,-0.20879184,-0.40906155,14.82,23.94,12.12
1554878790479,-8.781932000000001,-6.0483522,-1.3078326999999998,-1.0620687,-0.22903186,-0.29294774,14.76,23.4,12.24
1554878790500,-8.39886,-6.1632739999999995,-1.7818846999999998,-1.0056095999999999,-0.23755397,-0.13315806,14.76,22.98,12.24
1554878790520,-8.073248,-6.168062,-1.939902,-0.80107886,-0.24607609,-0.049002163,14.76,22.44,12.24
1554878790539,-8.264783999999999,-6.0770826,-2.1984756,-0.45167214,-0.2130529,-0.010652645,14.76,22.02,12.18
1554878790559,-8.173803999999999,-5.856816,-1.9925743000000002,-0.21092236,-0.21198763,0.008522116,14.82,21.54,12.18
1554878790579,-7.9583262999999995,-5.7945666,-1.7866731,-0.15233281,-0.21518342,0.010652645,14.94,21.06,12.12
1554878790599,-7.7428484,-5.7754129999999995,-1.3365631000000002,-0.2695119,-0.24820662,-0.008522116,15.06,20.52,12.06
1554878790620,-7.5273699999999995,-5.6940102999999995,-1.441908,-0.48682585,-0.30466563,0.022370555,15.24,20.04,12.06
1554878790640,-7.785944000000001,-5.5743003,-1.0684125,-0.69987875,-0.30999196,0.07137272,15.42,19.56,12.06
1554878790660,-7.6853875999999985,-5.8041434,-1.0301052,-0.7819041,-0.33129725,0.083090626,15.54,19.14,12.0
1554878790680,-7.565677,-6.0291986,-1.2695253999999998,-0.721184,-0.36005938,0.060720075,15.72,18.78,11.94
1554878790700,-7.3214690000000004,-6.096236,-1.5041572,-0.60507023,-0.35899413,0.07350325,15.9,18.42,11.82
1554878790719,-6.9096660000000005,-6.172850599999999,-1.5233108,-0.4708469,-0.32490566,0.041545313,16.08,18.0,11.64
1554878790740,-6.6510925,-6.1489085999999995,-1.2838906,-0.38775626,-0.2972088,-0.07882957,16.26,17.64,11.52
1554878790760,-6.7612257,-6.215946,-1.2982559,-0.4250405,-0.23968449999999997,-0.19174760000000002,16.44,17.28,11.34
1554878790780,-7.043741000000001,-6.517616,-1.714847,-0.5475459,-0.16618125,-0.22903186,16.56,16.86,11.16
1554878790799,-7.1730285,-6.819285000000001,-2.1745335999999997,-0.6061354999999999,-0.13315806,-0.22690132,16.62,16.5,10.98
1554878790821,-7.7189064,-7.566275999999999,-2.3948002,-0.29188246,-0.13209279,-0.22690132,16.8,16.08,10.86
1554878790841,-7.795521000000001,-7.753023599999999,-2.5623944,0.20453078,-0.18748654,-0.20453078,16.92,15.72,10.68
1554878790860,-8.111555000000001,-7.3938932,-3.0364463,0.49641323,-0.30466563,-0.18216023,17.04,15.36,10.56
1554878790879,-8.0924015,-7.317278999999999,-3.0747535,0.42077947,-0.42717105,-0.128897,17.16,15.24,10.56
1554878790899,-7.876923599999999,-7.451353999999999,-2.2942438,0.24074976,-0.49428272,-0.020240024,17.22,15.12,10.44
1554878790919,-7.4699089999999995,-7.4992385,-1.6861166,0.20559604,-0.5773733,0.06498113,17.46,15.12,10.32
1554878790940,-7.5608889999999995,-7.3938932,-1.4802152,0.26631612,-0.5997439,0.10333065,17.64,15.12,10.26
1554878790960,-7.642291999999999,-7.508815299999999,-1.0923545000000001,0.37284255,-0.5954828000000001,0.17576863,17.88,15.12,10.08
1554878790980,-7.752425,-7.542333999999999,-1.0348936,0.5070659000000001,-0.535828,0.23222765,18.06,15.12,9.9
1554878791000,-7.4842744,-7.480085000000001,-1.073201,0.6040049,-0.5123922000000001,0.2545982,18.24,15.18,9.78
1554878791019,-7.216124000000001,-7.0874357,-1.0109516,0.5901565,-0.49428272,0.27590349999999997,18.48,15.24,9.6
1554878791040,-6.794744500000001,-6.666056,-0.12509704,0.54648066,-0.5028047999999999,0.24074976,18.72,15.36,9.18
1554878791060,-6.167464,-6.3643866,0.4878186,0.58483016,-0.53795856,0.11717909,18.78,15.48,8.88
1554878791080,-6.1770406,-6.0531406,0.6889314999999999,0.5944176,-0.5390238,0.004261058,18.84,15.6,8.52
1554878791100,-6.354211299999999,-6.072294,1.0480618,0.5997439,-0.45380265,-0.013848438000000001,18.96,15.78,8.16
1554878791119,-6.373365,-6.187216,0.82779527,0.7456851,-0.34194988,-0.03089267,19.14,16.02,7.86
1554878791139,-6.804321300000001,-5.976526,0.43993455,0.9331716999999998,-0.1949434,-0.051132694000000006,19.38,16.32,7.5
1554878791160,-7.273585000000001,-5.492897,0.14305355,1.0396981,-0.12463594,-0.03195793,19.62,16.68,7.2
1554878791180,-7.225700999999999,-5.3061495,0.109534726,1.026915,-0.094808534,-0.015978966,19.86,17.16,6.96
1554878791200,-7.273585000000001,-5.0140567,0.30107087,0.93849796,-0.07989483,-0.025566347000000003,20.1,17.58,6.78
1554878791219,-7.5082164,-5.2199583,0.12389994,0.7616641,-0.07669904,-0.04580637,20.28,18.06,6.6
1554878791239,-7.920019,-5.4402246,0.44951138,0.50600064,-0.039414786,-0.020240024,20.46,18.66,6.54
1554878791259,-7.747636999999999,-5.703587000000001,0.48303019999999997,0.24927188,-0.049002163,-0.053263225,20.58,19.26,6.54
1554878791280,-7.728483,-5.8903346,0.8996213,0.037284255,-0.060720075,-0.10865697,20.58,19.86,6.48
1554878791300,-7.771578999999999,-6.0244102,1.1821371,-0.08948222,-0.07989483,-0.15765914,20.52,20.4,6.48
1554878791319,-7.6949644,-6.120178,1.3880384,-0.05006743,-0.128897,-0.21198763,20.46,20.88,6.42
1554878791340,-7.824250999999999,-6.2303114,1.5652093999999999,0.12996227,-0.13102753,-0.24394555,20.46,21.24,6.42
1554878791359,-8.121132000000001,-6.072294,1.5604209999999998,0.38242993,-0.1587244,-0.26418558,20.4,21.54,6.36
1554878791379,-8.09719,-5.909488,1.8716671000000003,0.6444850000000001,-0.24927188,-0.27164245,20.4,21.84,6.3
1554878791400,-8.082825,-5.6700683,2.0153193,0.9257148000000001,-0.31638354,-0.23968449999999997,20.34,22.02,6.12
1554878791420,-8.288725999999999,-5.3157263,2.168548,1.0215886,-0.2972088,-0.23009712,20.34,22.2,6.0
1554878791439,-8.255207,-4.707599,2.40318,1.1568771999999998,-0.28442562,-0.21731395,20.34,22.44,5.82
1554878791460,-8.078036,-4.544793599999999,2.345719,1.1217233999999998,-0.23861924,-0.14487597,20.34,22.98,5.7
1554878791480,-8.049306,-4.664503599999999,2.6665419999999997,1.1387677,-0.10972224,-0.049002163,20.34,23.52,5.52
1554878791499,-8.135497,-4.621408,2.6234465,1.2580773,0.03089267,0.02876214,20.34,24.12,5.34
1554878791519,-8.212111,-4.2383356,2.460641,1.4295848999999998,0.11611383,0.06178534,20.28,24.72,5.04
1554878791540,-8.37013,-4.013280399999999,2.5611973,1.5574166999999999,0.18535602,0.14807177,20.28,25.32,4.74
1554878791560,-8.274361,-3.8073792,2.5516205000000003,1.5904398000000002,0.24820662,0.27057716,20.28,26.04,4.56
1554878791580,-8.51857,-3.5057099999999997,2.4271219,1.5116103,0.34088463,0.37816888,20.22,26.76,4.38
1554878791599,-8.8777,-3.1322143,2.1877017000000003,1.3305153,0.4048005,0.47617322,20.22,27.36,4.14
1554878791619,-8.863335000000001,-2.9454667999999997,1.8860323,1.0769824,0.45167214,0.57311225,20.16,27.72,3.96
1554878791640,-8.959103,-2.6533740000000003,2.0967221,0.79042625,0.47404268,0.64768076,20.16,28.14,3.72
1554878791660,-8.75799,-2.6868927000000005,2.154183,0.56459016,0.39627838,0.716923,20.1,28.56,3.6
1554878791679,-8.173803999999999,-2.6485856,2.4702177000000005,0.46232477,0.26205507,0.78723043,20.1,28.92,3.6
1554878791699,-8.130709,-2.3900118,3.1549592,0.42077947,0.22796659,0.86179894,20.1,29.1,3.6
1554878791720,-8.576031,-2.0452468,3.4518404,0.3291667,0.35153726,0.9587379999999999,20.1,29.04,3.6
1554878791740,-9.093178,-1.5089456,3.6290112,0.17150758,0.5656554,1.0578076,20.1,28.86,3.66
1554878791759,-9.203311,-1.4945803999999998,3.1118636000000004,-0.068176925,0.7105314,1.1494204,20.16,28.68,3.66
1554878791779,-9.002198,-2.0117279999999997,2.7910407000000004,-0.33129725,0.8767126000000001,1.2410331000000001,20.16,28.32,3.66
1554878791800,-8.925583999999999,-2.4762032000000005,2.6378117000000003,-0.5113269,1.0471549,1.2580773,20.16,27.9,3.72
1554878791820,-8.355764,-2.7299886000000004,1.8956091,-0.5581986,1.1046791999999999,1.2282499,20.16,27.0,3.96
1554878791840,-7.517792999999999,-2.9741971,1.3449427999999999,-0.5336975,1.1100056,1.1792477,20.1,26.52,4.08
1554878791860,-7.422025,-3.0651767000000003,0.9379284999999999,-0.5496765,1.1185277,1.0727214,20.04,25.44,4.26
1554878791880,-7.9343843,-2.8496985,1.1007341999999998,-0.5816344,1.1132014,0.9800433000000001,19.98,24.3,4.56
1554878791899,-8.379706,-2.7347770000000002,1.1917138999999999,-0.5422196,1.0428939,0.85327685,19.86,23.1,4.92
1554878791920,-8.825027,-2.6677392,1.4119805,-0.38136467,0.8127968000000001,0.6583334,19.56,21.0,5.46
1554878791939,-9.327810000000001,-2.5432408,1.7375918999999997,-0.26631612,0.69348717,0.5273059,19.32,19.5,5.88
1554878791960,-9.734824,-2.1984756,2.0153193,-0.10013486,0.5837649,0.33981937,19.02,18.0,6.24
1554878791980,-10.065224,-1.9159599999999999,1.929128,0.040480047000000005,0.5581986,0.26631612,18.72,16.68,6.54
1554878792000,-10.409989,-1.834557,1.5364790000000002,0.19068234,0.4878911,0.22477080000000002,18.48,15.72,6.84
1554878792020,-10.749966,-1.7196354,1.4502877,0.34194988,0.4079963,0.17257284,18.18,15.06,7.14
1554878792039,-10.874464,-1.3940238999999999,1.0528502,0.4878911,0.25672874,0.096939065,17.94,14.52,7.32
1554878792060,-10.505757000000001,-1.2743138,0.97144735,0.51771855,0.12250541,0.06285059999999999,17.64,14.1,7.5
1554878792080,-10.041282,-1.1162965,0.7703344,0.46658584,0.05539375,0.06498113,17.4,13.86,7.68
1554878792100,-9.730036,-0.98700964,0.38726214,0.39095205,0.08841695,0.05539375,17.16,13.74,7.92
1554878792119,-9.323022,-0.99179804,0.008978256,0.2545982,0.07563378,0.05752428,16.98,13.68,8.1
1554878792139,-9.102755,-1.0827777,-0.0724246,0.10865697,0.08841695,0.058589544,16.86,13.62,8.22
1554878792160,-8.954314,-1.2455834,-0.30226797,-0.004261058,0.051132694000000006,0.022370555,16.74,13.62,8.34
1554878792180,-9.011775,-1.3652935,-0.12988544,-0.06604639400000001,0.040480047000000005,-0.04261058,16.62,13.56,8.46
1554878792199,-9.3182335,-1.4371196000000002,0.032920275,-0.084155895,0.03834952,-0.096939065,16.44,13.62,8.58
1554878792219,-9.552864999999999,-1.6956933999999997,0.047285482000000004,-0.054328485999999995,0.035153727999999995,-0.098004326,16.32,13.62,8.7
1554878792239,-9.892841,-1.7483658,0.3393781,-0.036218993,0.037284255,-0.094808534,16.26,13.68,8.76
1554878792260,-10.04607,-1.6478093,0.40162733,0.02876214,0.0053263223,-0.10439592,16.2,13.68,8.82
1554878792279,-10.017339999999999,-1.3557166999999999,0.45429978,0.07030745599999999,-0.026631612000000002,-0.11611383,16.14,13.74,8.88
1554878792299,-9.950302,-1.264737,0.7751228,0.058589544,-0.053263225,-0.10865697,16.08,13.8,8.88
1554878792319,-10.1226845,-1.1737574,0.789488,-0.015978966,-0.07030745599999999,-0.06711166,16.08,13.86,8.94
1554878792339,-9.859323,-1.5233108,0.6889314999999999,-0.08948222,-0.12037488,-0.039414786,16.02,14.04,8.94
1554878792360,-9.868899,-1.46585,0.81343,-0.1587244,-0.08522116,-0.03089267,16.02,14.22,8.88
1554878792380,-9.92636,-1.6047136999999998,1.0384849,-0.19068234,-0.05006743,-0.0031957934000000003,16.08,14.34,8.88
1554878792399,-9.792285000000001,-1.5951369,0.86131406,-0.15126756,-0.027696876000000002,0.03195793,16.08,14.52,8.88
1554878792420,-9.581595,-1.5089456,0.56922144,-0.111852765,-0.002130529,0.054328485999999995,16.08,14.58,8.88
1554878792439,-9.619903,-1.5185224,0.6123171,-0.09267801,0.018109497,0.036218993,16.08,14.64,8.88
1554878792460,-9.696517,-1.5616181,0.789488,-0.06178534,0.051132694000000006,0.01917476,16.08,14.64,8.88
1554878792480,-9.619903,-1.7100586,0.6218939,0.008522116,0.05219796,0.035153727999999995,16.08,14.58,8.82
1554878792500,-9.375694000000001,-1.6956933999999997,0.26755205,0.05006743,0.047936900000000005,0.05539375,16.08,14.46,8.82
1554878792520,-9.519346,-1.8249803,0.3633201,0.10652645,0.07989483,0.06285059999999999,16.08,14.28,8.76
1554878792539,-9.701305,-1.8489223000000001,0.3345897,0.19387813,0.099069595,0.09161274,16.08,14.16,8.64
1554878792559,-9.744401,-1.7244238,0.3633201,0.27803403,0.096939065,0.11504856,16.08,13.98,8.58
1554878792580,-9.811439,-1.5855601000000001,0.25797522,0.41438788,0.09267801,0.12250541,16.08,13.92,8.46
1554878792600,-9.734824,-1.6669630000000002,0.20530279,0.53263223,0.06711166,0.12996227,16.08,13.8,8.46
1554878792620,-9.758766,-1.5568296999999998,0.14784196,0.60293967,0.06391586,0.13635385,16.08,13.8,8.4
1554878792639,-9.730036,-1.6095021,0.3298013,0.6870956,0.054328485999999995,0.165116,16.08,13.74,8.4
1554878792659,-9.720459,-1.4610616,0.45908818,0.80533993,0.05219796,0.20026971,16.08,13.74,8.4
1554878792680,-9.725247,-1.4036007,0.30585927,0.9310411,0.05539375,0.22477080000000002,16.02,13.8,8.46
1554878792699,-9.548077000000001,-1.1785458,0.56443304,1.0162623,0.080960095,0.20879184,16.02,14.04,8.58
1554878792719,-9.615114,-1.0540473,0.6937199000000001,1.0641992,0.09374327,0.21624869,16.02,14.34,8.64
1554878792740,-9.514558000000001,-0.8098387,0.6075286999999999,1.0865698000000001,0.12463594,0.2034655,15.96,14.7,8.76
1554878792760,-9.500193,-0.52253455,0.5979519,0.99495703,0.14168017,0.18961707,15.84,15.0,8.82
1554878792779,-9.691728999999999,-0.4985925,0.56922144,0.87138635,0.1470065,0.19068234,15.78,15.18,8.82
1554878792799,-9.682152,-0.39803603,0.3393781,0.6870956,0.13528858,0.18429075,15.72,15.66,8.82
1554878792820,-9.672575,-0.45549688,0.47824179999999994,0.50813115,0.12783173,0.16618125,15.6,16.56,8.88
1554878792839,-9.730036,-0.25917232,0.43035775,0.4048005,0.11504856,0.13741912,15.48,17.04,8.94
1554878792859,-9.634267999999999,-0.16340427,0.32501290000000005,0.24607609,0.09054748,0.096939065,15.36,17.4,8.94
1554878792880,-9.648633,-0.22565351,-0.0005985504,0.0031957934000000003,0.047936900000000005,0.049002163,15.3,17.82,9.0
1554878792900,-9.653421,-0.36930559999999996,-0.010175358,-0.28122982,0.020240024,0.013848438000000001,15.24,18.24,9.06
1554878792919,-9.557653,-0.44113165,0.05686229,-0.5134575,-0.0053263223,-0.033023197000000004,15.18,18.6,9.12
1554878792939,-9.485827,-0.6374562,0.25318682,-0.63915867,-0.024501082,-0.06391586,15.18,18.9,9.24
1554878792960,-9.423578,-0.98222125,0.45429978,-0.67963874,-0.027696876000000002,-0.07137272,15.18,19.02,9.36
1554878792980,-9.639056,-1.0109516,0.53570265,-0.6306366,-0.012783173500000002,-0.09267801,15.18,18.9,9.42
1554878793000,-9.691728999999999,-1.0157399999999999,0.6314706999999999,-0.5539375,-0.020240024,-0.098004326,15.18,18.72,9.48
1554878793019,-9.701305,-0.96785605,0.32501290000000005,-0.4878911,-0.017044231,-0.08841695,15.18,18.54,9.6
1554878793039,-9.821015,-1.1067197,0.29149407,-0.40266997,-0.0063915867,-0.06924219,15.18,18.36,9.6
1554878793059,-9.758766,-1.2120646000000002,0.20530279,-0.2972088,-0.008522116,-0.039414786,15.18,18.12,9.6
1554878793080,-9.65821,-1.1258733,0.22924481,-0.13741912,0.010652645,-0.0010652645,15.18,17.94,9.6
1554878793100,-9.825804,-1.0109516,0.38726214,-0.05006743,0.02876214,-0.010652645,15.18,17.58,9.54
1554878793120,-9.859323,-0.85293436,0.19572599,0.024501082,0.03089267,0.0031957934000000003,15.24,17.28,9.48
1554878793139,-9.744401,-0.8146270999999999,0.28670564,0.035153727999999995,0.015978966,0.02130529,15.24,17.04,9.48
1554878793160,-9.68694,-0.8242039000000001,0.22924481,0.017044231,-0.002130529,0.03195793,15.24,16.8,9.48
1554878793180,-9.734824,-0.7763199000000001,0.30107087,0.06178534,-0.0010652645,0.018109497,15.3,16.56,9.48
1554878793200,-9.80665,-0.5081693,0.26276365,0.11930962,-0.0053263223,-0.010652645,15.3,16.38,9.48
1554878793219,-9.758766,-0.38367084,0.15741876,0.13315806,-0.025566347000000003,-0.018109497,15.3,16.14,9.54
1554878793239,-9.710882000000002,-0.3357868,0.21487960000000003,0.06604639400000001,-0.033023197000000004,-0.015978966,15.3,16.02,9.6
1554878793259,-9.787497,-0.4794389,0.21009120000000003,-0.07030745599999999,-0.03089267,-0.022370555,15.3,15.96,9.66
1554878793280,-9.68694,-0.42197806,0.09995792,-0.19068234,-0.029827405,-0.04261058,15.3,15.96,9.72
1554878793300,-9.715671,-0.6278794,0.24361002,-0.24181503,-0.023435817999999997,-0.058589544,15.36,16.02,9.78
1554878793320,-9.720459,-0.6997054,0.22924481,-0.23329292,-0.03195793,-0.056459017,15.36,16.08,9.72
1554878793340,-9.667786999999999,-0.82899237,0.17657238,-0.165116,-0.036218993,-0.05006743,15.36,16.02,9.6
1554878793359,-9.600749,-1.0588357,0.3345897,-0.043675844000000005,-0.034088463,-0.05539375,15.42,15.96,9.48
1554878793382,-9.696517,-1.0348936,0.13347675,0.043675844000000005,-0.022370555,-0.049002163,15.48,15.9,9.36
1554878793401,-9.725247,-1.0013748,0.26755205,0.06711166,-0.017044231,-0.035153727999999995,15.54,15.78,9.18
1554878793420,-9.763555,-0.95827925,0.16220717,0.034088463,-0.018109497,-0.027696876000000002,15.6,15.72,9.06
1554878793440,-9.749189,-0.8960299999999999,0.21487960000000003,-0.0031957934000000003,-0.029827405,-0.034088463,15.66,15.6,9.0
1554878793460,-9.744401,-0.87208796,0.3441665,0.01917476,-0.029827405,-0.02876214,15.66,15.54,8.94
1554878793480,-9.744401,-0.7284359,0.39683893,0.10013486,-0.034088463,-0.035153727999999995,15.72,15.48,9.0
1554878793500,-9.720459,-0.6805518,0.19572599,0.14913702,-0.02130529,-0.036218993,15.78,15.54,9.06
1554878793519,-9.725247,-0.6422445999999999,0.20530279,0.09374327,-0.026631612000000002,-0.026631612000000002,15.78,15.54,9.18
1554878793539,-9.763555,-0.7332243,0.09995792,-0.018109497,-0.039414786,-0.026631612000000002,15.78,15.6,9.24
1554878793560,-9.548077000000001,-0.6422445999999999,0.40641573,-0.096939065,-0.049002163,-0.029827405,15.78,15.6,9.36
1554878793580,-9.490616000000001,-0.87208796,0.64583594,-0.14487597,-0.043675844000000005,-0.037284255,15.72,15.6,9.42
1554878793600,-9.471461999999999,-1.0348936,0.45429978,-0.13954964,-0.025566347000000003,-0.04580637,15.72,15.66,9.48
1554878793619,-9.648633,-0.98700964,0.3633201,-0.09267801,0.0010652645,-0.04474111,15.66,15.66,9.48
1554878793640,-9.648633,-1.039682,0.42078096,-0.025566347000000003,0.029827405,-0.041545313,15.66,15.6,9.48
1554878793660,-9.557653,-0.99179804,0.46866497,0.03089267,0.040480047000000005,-0.02876214,15.6,15.6,9.48
1554878793680,-9.677363,-0.99658644,0.34895490000000007,0.083090626,0.034088463,-0.022370555,15.6,15.6,9.48
1554878793700,-9.629479,-1.0157399999999999,0.13347675,0.11717909,0.026631612000000002,-0.025566347000000003,15.6,15.6,9.42
1554878793721,-9.739613,-0.98700964,0.17178397,0.13528858,0.03195793,-0.02130529,15.66,15.54,9.42
1554878793740,-9.65821,-0.84814596,0.19572599,0.128897,0.022370555,-0.010652645,15.72,15.54,9.36
1554878793761,-9.591172,-0.82899237,0.40162733,0.15765914,0.035153727999999995,-0.002130529,15.72,15.42,9.3
1554878793781,-9.730036,-0.9487024,0.42078096,0.22477080000000002,0.046871635999999994,0.011717908999999999,15.78,15.36,9.3
1554878793800,-9.849746000000001,-0.9295488000000001,0.3345897,0.314253,0.054328485999999995,0.022370555,15.78,15.3,9.36
1554878793820,-9.825804,-0.8242039000000001,0.19093758,0.3749731,0.043675844000000005,0.018109497,15.84,15.24,9.42
1554878793840,-9.667786999999999,-0.65660983,0.17178397,0.34088463,0.037284255,0.013848438000000001,15.84,15.18,9.48
1554878793860,-9.758766,-0.54647654,0.28670564,0.28229508,0.03834952,-0.002130529,15.78,15.18,9.54
1554878793879,-9.816227,-0.52732295,0.29628247,0.17470337,0.033023197000000004,-0.007456851,15.78,15.36,9.54
1554878793899,-9.667786999999999,-0.4794389,0.08559271,0.09054748,0.014913702,-0.015978966,15.72,15.6,9.6
1554878793920,-9.696517,-0.7044938000000001,0.25318682,-0.023435817999999997,-0.0031957934000000003,-0.029827405,15.66,15.84,9.66
1554878793939,-9.749189,-0.6997054,0.20530279,-0.07456851,-0.0053263223,-0.046871635999999994,15.6,16.14,9.72
1554878793959,-9.710882000000002,-0.6757634,0.31064767,-0.10013486,-0.010652645,-0.04474111,15.6,16.38,9.72
1554878793979,-9.68694,-0.7811083000000001,0.29149407,-0.10972224,-0.007456851,-0.041545313,15.54,16.62,9.72
1554878794001,-9.749189,-0.9487024,0.3345897,-0.11504856,0.007456851,-0.026631612000000002,15.54,16.8,9.72
1554878794019,-9.734824,-0.7763199000000001,0.40162733,-0.06498113,0.00958738,-0.034088463,15.54,16.92,9.78
1554878794040,-9.667786999999999,-0.8194155000000001,0.32501290000000005,-0.012783173500000002,0.037284255,-0.023435817999999997,15.54,16.92,9.78
1554878794060,-9.710882000000002,-0.8146270999999999,0.25797522,-0.007456851,0.046871635999999994,-0.03195793,15.54,16.92,9.78
1554878794080,-9.662998,-0.8194155000000001,0.3441665,-0.054328485999999995,0.033023197000000004,-0.03089267,15.54,16.86,9.78
1554878794100,-9.653421,-0.9199719999999999,0.09516951400000001,-0.07669904,0.012783173500000002,-0.015978966,15.54,16.8,9.78
1554878794119,-9.744401,-0.9008184000000001,0.047285482000000004,-0.058589544,0.002130529,-0.026631612000000002,15.54,16.8,9.78
1554878794140,-9.811439,-0.88645315,0.090381116,-0.03089267,0.0,-0.02130529,15.48,16.8,9.78
1554878794160,-9.744401,-0.85293436,0.10474633,-0.027696876000000002,-0.004261058,-0.015978966,15.48,16.8,9.78
1554878794179,-9.864111,-0.6757634,0.23882163,-0.043675844000000005,-0.018109497,-0.037284255,15.42,16.74,9.78
1554878794199,-9.739613,-0.65660983,0.25318682,-0.07563378,-0.022370555,-0.03834952,15.42,16.68,9.78
1554878794220,-9.725247,-0.7044938000000001,0.30107087,-0.112918034,-0.018109497,-0.05219796,15.42,16.62,9.84
1554878794242,-9.643844999999999,-0.76195467,0.48303019999999997,-0.11824436,-0.008522116,-0.05965481,15.36,16.62,9.84
1554878794262,-9.624691,-0.9391255999999999,0.49260699999999996,-0.10546118,-0.004261058,-0.051132694000000006,15.36,16.5,9.9
1554878794281,-9.758766,-0.99658644,0.38726214,-0.098004326,0.0053263223,-0.04580637,15.42,16.5,9.9
1554878794301,-9.739613,-1.0205284,0.02813187,-0.06604639400000001,0.0,-0.041545313,15.42,16.44,9.96
1554878794320,-9.725247,-1.073201,0.09516951400000001,0.007456851,-0.00958738,-0.026631612000000002,15.42,16.38,9.96
1554878794341,-9.825804,-1.0157399999999999,0.23403321,0.080960095,-0.022370555,-0.035153727999999995,15.42,16.38,10.02
1554878794361,-9.892841,-0.9295488000000001,0.23882163,0.13209279,-0.04474111,-0.037284255,15.36,16.38,10.02
1554878794380,-9.859323,-1.039682,0.6314706999999999,0.17470337,-0.060720075,-0.037284255,15.36,16.38,10.02
1554878794399,-10.113108,-1.0779893,0.9187749,0.25246766,-0.07456851,-0.036218993,15.3,16.38,10.02
1554878794419,-10.261548,-0.88645315,0.8182184,0.350472,-0.10865697,-0.03834952,15.18,16.38,10.02
1554878794440,-10.5919485,-0.8146270999999999,1.0049661,0.4048005,-0.26525086,-0.06924219,15.06,16.38,10.02
1554878794459,-10.544064500000001,-0.88166475,1.2348095,0.41864893,-0.42717105,-0.09374327,15.06,16.38,10.02
1554878794480,-10.146626,-1.1641805,1.5604209999999998,0.4644553,-0.6125271,-0.11930962,15.0,16.44,10.02
1554878794499,-9.974244,-1.216853,1.4981716999999999,0.5209143,-0.6327670999999999,-0.14594123,15.0,16.5,10.02
1554878794519,-9.639056,-1.441908,1.1438298,0.5592638000000001,-0.6295713000000001,-0.20133498,15.0,16.56,9.96
1554878794540,-9.3661175,-1.5041572,0.6075286999999999,0.48149952,-0.59228706,-0.27164245,15.12,17.04,9.78
1554878794560,-9.251195,-1.5711948999999998,0.66498953,0.37603834,-0.5656554,-0.30786142,15.24,17.46,9.6
1554878794580,-9.246407000000001,-1.6813281999999998,1.0241197,0.35473305,-0.5454154,-0.30786142,15.42,17.94,9.48
1554878794599,-9.504980999999999,-1.6765398,0.97623575,0.44315,-0.5187838,-0.29614353,15.6,18.42,9.3
1554878794619,-9.672575,-1.3605051000000001,1.2539631000000002,0.60293967,-0.52837116,-0.294013,15.72,18.96,9.12
1554878794640,-9.969456,-1.2743138,1.5747862,0.7574029999999999,-0.5581986,-0.27164245,15.9,19.5,8.88
1554878794660,-9.672575,-1.240795,2.0775685,0.96086854,-0.5795039000000001,-0.18429075,16.02,20.1,8.64
1554878794680,-9.332599,-0.97743285,2.0488381,1.2229236,-0.5699165,-0.12996227,16.2,20.64,8.4
1554878794699,-9.078813,-0.57041854,1.7806876,1.3954965,-0.5368933000000001,-0.16405073,16.26,21.18,8.22
1554878794720,-9.141062,-0.14903906,1.632247,1.3092101,-0.55074173,-0.21944448,16.38,21.72,8.04
1554878794740,-9.370906,-0.19692309,1.5604209999999998,0.9171927,-0.62104917,-0.3153183,16.5,22.32,7.8
1554878794759,-9.303867,-0.16340427,1.335366,0.30786142,-0.7819041,-0.3898868,16.68,23.04,7.5
1554878794779,-8.365341,-0.4938041,1.0672153999999998,-0.30360037,-0.8511463,-0.40906155,16.8,23.76,7.14
1554878794799,-8.121132000000001,-0.95827925,1.1486181999999998,-0.80747044,-0.7499462,-0.49321744,17.1,24.6,6.72
1554878794819,-8.2169,-0.98222125,1.2970588,-0.9470200999999999,-0.6242449999999999,-0.58269966,17.46,25.38,6.3
1554878794839,-8.336611,-1.0013748,0.86610246,-0.9896306999999999,-0.5209143,-0.572047,17.76,26.04,5.94
1554878794860,-8.724471000000001,-1.1976993999999999,1.3257892,-1.0247844000000002,-0.36432046,-0.4857606,18.06,26.58,5.64
1554878794880,-9.050082000000002,-1.3796587,1.8381484000000001,-1.0056095999999999,-0.30040458,-0.44847634,18.3,27.0,5.28
1554878794899,-9.327810000000001,-1.3748703000000002,2.1158757,-0.9779128,-0.23116238,-0.36432046,18.54,27.3,5.04
1554878794922,-9.461885,-1.3557166999999999,2.498948,-1.0237192,-0.14168017,-0.24714136,18.78,27.54,4.86
1554878794940,-9.648633,-1.4036007,2.7383683,-1.1259845,-0.068176925,-0.15446335,18.96,27.66,4.68
1554878794960,-9.667786999999999,-1.6909049999999999,2.8628666000000003,-1.1696603,-0.024501082,-0.041545313,19.02,27.6,4.68
1554878794980,-9.629479,-2.0213048,2.6665419999999997,-1.0940266,0.02876214,0.049002163,19.02,27.6,4.68
1554878794999,-9.41879,-2.3373394,2.5516205000000003,-0.94808537,0.029827405,0.10652645,19.08,27.48,4.68
1554878795019,-9.14585,-2.6198552000000004,2.556409,-0.7765778,0.07243799,0.16192019,19.08,27.24,4.74
1554878795042,-8.911219000000001,-2.878429,2.5803509,-0.55074173,0.13848437,0.18216023,19.14,26.64,4.74
1554878795059,-8.772355000000001,-2.9311013,2.6042929,-0.43782368,0.16192019,0.165116,19.2,26.34,4.74
1554878795079,-8.724471000000001,-2.9933507,2.4893713,-0.34514567,0.15978967,0.13635385,19.26,25.5,4.8
1554878795100,-8.887277000000001,-3.1561562999999997,2.7048495,-0.31957933,0.13635385,0.10333065,19.26,25.2,4.8
1554878795120,-8.7053175,-3.1800982999999996,2.7862522999999997,-0.28549087,0.11824436,0.07989483,19.26,24.6,4.86
1554878795139,-8.786719999999999,-3.2662897,2.8485014,-0.20559604,0.14594123,0.06711166,19.26,24.0,4.86
1554878795159,-8.892064999999999,-3.1705215,2.891597,-0.07137272,0.15339808,0.018109497,19.2,23.46,4.86
1554878795179,-8.978256,-3.0651767000000003,3.068768,0.06178534,0.13741912,-0.040480047000000005,19.2,23.04,4.92
1554878795200,-8.944737,-2.8592752999999997,2.8101943,0.17044231,0.1107875,-0.07669904,19.2,22.68,4.92
1554878795219,-9.011775,-2.8113914,2.7670987,0.27590349999999997,0.080960095,-0.101200126,19.14,22.5,4.92
1554878795240,-9.093178,-2.7204118,2.7670987,0.36432046,0.017044231,-0.12676647,19.14,22.38,4.98
1554878795259,-9.308656,-2.6581624,2.6426,0.38882150000000004,-0.020240024,-0.14807177,19.08,22.26,5.04
1554878795279,-9.495403999999999,-2.6916811000000003,2.4510639,0.39308259999999995,-0.06391586,-0.15552860000000002,19.02,22.14,5.1
1554878795299,-9.466674000000001,-2.5959132,2.4271219,0.40266997,-0.09587380000000001,-0.1438107,19.02,22.08,5.28
1554878795319,-9.289502,-2.5863364,2.345719,0.43782368,-0.15126756,-0.15659387,19.02,22.14,5.28
1554878795340,-8.99741,-2.7252002,2.5228900000000003,0.49321744,-0.2034655,-0.17470337,18.96,22.26,5.4
1554878795359,-8.801085,-2.710835,2.6090812999999997,0.49747851,-0.21198763,-0.20133498,18.96,22.5,5.46
1554878795380,-8.791509,-2.5145104,2.498948,0.43782368,-0.21198763,-0.24714136,18.96,22.8,5.46
1554878795400,-8.734048,-2.5863364,2.532467,0.3291667,-0.20772657,-0.27164245,18.96,23.16,5.34
1554878795420,-8.848969,-2.4666264,2.6138697,0.25033715,-0.22370553,-0.28122982,18.96,23.58,5.22
1554878795439,-9.102755,-2.6964695,2.5995044999999997,0.21624869,-0.23542345,-0.257794,18.96,24.06,5.1
1554878795459,-8.882488,-2.5528176,2.6042929,0.24927188,-0.20985709,-0.24607609,18.96,24.54,4.98
1554878795480,-8.848969,-2.3612813999999998,2.5037365,0.30892670000000005,-0.13848437,-0.28229508,18.96,25.08,4.92
1554878795500,-8.719683,-2.4474726,2.5755625,0.3291667,-0.06391586,-0.26418558,19.02,25.56,4.86
1554878795519,-8.427589999999999,-2.5767596,2.570774,0.34194988,0.017044231,-0.24714136,19.02,25.92,4.8
1554878795539,-8.202535000000001,-2.6437972000000003,2.4366987,0.33662358,0.12144015,-0.25885928,19.02,26.28,4.8
1554878795559,-8.054094000000001,-2.5528176,2.532467,0.30360037,0.2034655,-0.27483824,19.02,26.58,4.86
1554878795579,-8.0684595,-2.7635074,2.5516205000000003,0.22690132,0.27590349999999997,-0.23435818,18.96,26.94,4.86
1554878795599,-8.465898,-3.031658,2.915539,0.17044231,0.33449304,-0.19387813,18.9,27.3,4.92
1554878795620,-9.126697,-3.2375592999999996,2.8580782000000005,0.21731395,0.35153726,-0.19387813,18.9,27.6,4.98
1554878795641,-9.193734,-3.1896752999999998,2.8485014,0.30253512,0.3206446,-0.17789917,18.84,27.9,5.04
1554878795660,-9.414000999999999,-3.3812113,2.8341362,0.40373522,0.23861924,-0.17150758,18.72,28.26,5.04
1554878795680,-9.203311,-3.2902317,2.8628666000000003,0.46019423,0.1107875,-0.16724652,18.6,28.56,5.04
1554878795700,-9.074024,-3.127426,3.09271,0.5571333,0.03089267,-0.17363810000000002,18.48,28.92,5.04
1554878795719,-9.212888000000001,-2.6485856,3.020884,0.65726817,-0.023435817999999997,-0.2034655,18.36,29.28,5.04
1554878795740,-9.370906,-2.4283189999999997,3.044826,0.6775081999999999,-0.07563378,-0.22690132,18.3,29.58,5.04
1554878795760,-9.217675999999999,-2.380435,3.0352492,0.6040049,-0.17789917,-0.22903186,18.24,29.82,5.1
1554878795779,-8.978256,-2.3708582000000002,3.0591912,0.49641323,-0.23116238,-0.22370553,18.18,30.0,5.1
1554878795799,-8.925583999999999,-2.4187422,3.0400376000000002,0.4261058,-0.25246766,-0.25033715,18.12,30.24,5.1
1554878795820,-8.868122999999999,-2.5767596,3.0496144,0.39308259999999995,-0.28336033,-0.27696875,18.06,30.42,5.1
1554878795839,-8.623915,-2.959832,2.8820202,0.37710363,-0.34408042,-0.31212249999999997,18.0,30.66,5.1
1554878795859,-8.456321,-3.2998084999999997,3.2555158,0.38562572,-0.33981937,-0.35260254,17.88,31.02,5.1
1554878795879,-8.413225,-3.2806550000000003,3.2363622000000003,0.44847634,-0.3174488,-0.39947417,17.76,31.38,5.04
1554878795900,-8.441956,-3.2375592999999996,3.3752258,0.515588,-0.29933932,-0.41225734,17.58,31.74,4.98
1554878795919,-8.350976,-3.1609447,3.341707,0.57417756,-0.34408042,-0.45380265,17.46,32.22,4.8
1554878795940,-8.427589999999999,-2.9741971,3.3752258,0.664725,-0.38349520000000004,-0.49960902,17.34,32.7,4.62
1554878795959,-8.671799,-2.6007016,3.447052,0.7435546,-0.38775626,-0.515588,17.28,33.3,4.44
1554878795980,-8.743625,-2.3756466,3.5236663999999998,0.8000136,-0.4282363,-0.51452273,17.22,33.96,4.26
1554878795999,-8.552089,-2.7491422,3.7247794,0.8681905000000001,-0.49321744,-0.5091964,17.22,34.74,4.08
1554878796020,-8.312667999999999,-3.2662897,4.217984700000001,0.9864349,-0.61891866,-0.5613944000000001,17.22,35.52,3.84
1554878796040,-8.049306,-3.7594953,4.3329067000000006,1.0418286,-0.71585774,-0.63915867,17.22,36.24,3.54
1554878796059,-7.7189064,-3.6733038000000002,4.040814,0.93849796,-0.7073356,-0.6625945,17.22,37.02,3.12
1554878796079,-7.704541000000001,-3.2854433,4.3424835,0.69029135,-0.6380934,-0.60293967,17.22,37.86,2.7
1554878796100,-7.4603324,-3.208829,4.8452660000000005,0.49215218,-0.588026,-0.49534798,17.22,38.76,2.28
1554878796120,-7.2352777,-3.0747535,4.931457,0.47830373,-0.52624065,-0.4250405,17.16,39.66,1.74
1554878796139,-7.632714999999999,-2.8880057,5.122993,0.5933523,-0.36751625,-0.4048005,17.16,40.5,1.08
1554878796159,-8.39886,-2.6916811000000003,5.0798974,0.76272935,-0.18961707,-0.35260254,17.1,41.1,0.42
1554878796180,-8.264783999999999,-2.5145104,5.1038394,0.88843054,0.017044231,-0.2130529,17.1,41.94,-0.42
1554878796200,-7.996633500000001,-2.3612813999999998,4.8787847,0.8990832000000001,0.12676647,-0.13315806,17.1,42.24,-0.66
1554878796220,-7.915230800000001,-2.1745335999999997,5.1613,0.82877576,0.30892670000000005,-0.023435817999999997,17.1,42.96,-1.2
1554878796239,-8.111555000000001,-2.0213048,4.9027267,0.7819041,0.4133226,0.037284255,17.1,43.14,-1.38
1554878796260,-8.532935,-1.9494787,4.395156,0.6956177,0.6178534000000001,0.128897,17.1,43.56,-1.74
1554878796280,-8.825027,-1.7340006000000001,4.2371383,0.55287224,0.74035877,0.17044231,17.1,43.8,-1.86
1554878796300,-8.628703,-1.8201918999999998,3.9594111000000005,0.43782368,0.7339671999999999,0.1768339,16.98,44.1,-1.86
1554878796319,-8.494628,-2.212841,3.8061821000000005,0.31851408,0.72651035,0.21624869,16.86,44.34,-1.92
1554878796339,-8.159439,-2.1601684,3.8827964999999995,0.06391586,0.6743124,0.24714136,16.74,44.52,-1.92
1554878796359,-8.0684595,-2.5959132,4.031237,-0.21624869,0.66579026,0.30253512,16.62,44.7,-1.98
1554878796380,-7.675811,-3.1992521000000003,3.9833531000000004,-0.26631612,0.6593986999999999,0.45699844,16.5,44.76,-1.98
1554878796399,-7.4028716,-3.4147300000000005,3.9211037,-0.07882957,0.7041398,0.51771855,16.38,44.82,-1.92
1554878796419,-7.369353,-3.0747535,3.9785647000000006,0.18002969,0.8341021000000001,0.47830373,16.32,44.76,-1.74
1554878796440,-7.4746976,-2.5049335999999998,3.9641995000000003,0.49534798,1.0013485999999998,0.47936899999999993,16.26,44.7,-1.44
1554878796460,-7.441178999999999,-2.3995886000000004,3.5332432000000003,0.92784536,1.2410331000000001,0.5230448000000001,16.26,44.52,-1.14
1554878796480,-7.4986396,-2.6964695,3.5140896,1.4402375,1.4551512,0.44634579999999996,16.26,44.34,-0.84
1554878796499,-7.445967,-2.5863364,3.2028434,1.6724651999999998,1.5552860000000002,0.33662358,16.26,44.1,-0.48
1554878796519,-7.699753,-2.1936872000000003,2.9299042,1.8844528000000003,1.7310548,0.22050974,16.26,43.8,-0.18
1554878796540,-8.48984,-1.5903485000000002,2.1877017000000003,1.8855181,1.8684738999999997,0.14913702,16.26,43.56,0.12
1554878796560,-9.064447,-1.0971429,1.1438298,1.6298546,1.7907095000000002,0.15126756,16.26,43.38,0.42
1554878796579,-9.624691,-0.8194155000000001,0.7128736,1.2634037,1.635181,0.17257284,16.2,43.2,0.6
1554878796599,-9.782708,-0.8098387,0.65062433,0.9257148000000001,1.4966966,0.15978967,16.14,43.14,0.6
1554878796620,-9.825804,-0.7811083000000001,0.81343,0.7041398,1.4189322,0.112918034,15.96,43.2,0.72
1554878796640,-10.117896,-0.6039374,0.55006784,0.6306366,1.3731258999999998,0.07243799,15.72,43.32,0.84
1554878796659,-10.548853,-0.45070848,0.41599256,0.5965481,1.3337111000000001,0.03089267,15.3,43.56,0.96
1554878796679,-10.376471,-0.36930559999999996,0.49260699999999996,0.5901565,1.1877699,0.026631612000000002,14.88,43.74,1.2
1554878796700,-10.443508,-0.31184477,0.45908818,0.61891866,1.0215886,0.084155895,14.4,43.98,1.5
1554878796721,-10.778696,-0.091578215,0.7272388000000001,0.7350325,0.8788431999999999,0.15020229,13.98,44.22,1.8
1554878796739,-10.371682,-0.15861586,0.56922144,0.8831041999999999,0.6860303000000001,0.16618125,13.56,44.46,2.1
1554878796759,-9.701305,-0.31184477,0.30585927,0.92997587,0.49854377,0.13954964,13.14,44.64,2.4
1554878796780,-9.184157,-0.19213470000000002,0.31543607,0.8543421,0.45380265,0.06924219,12.84,44.76,2.64
1554878796799,-8.968679,-0.11552023,0.19093758,0.66579026,0.46339005,-0.058589544,12.66,44.88,2.88
1554878796820,-8.810661999999999,-0.034117375,-0.05805939,0.4079963,0.46019423,-0.1768339,12.6,45.0,3.06
1554878796840,-9.23683,0.04249708,-0.30705637,0.11930962,0.45806372,-0.26525086,12.6,45.12,3.12
1554878796859,-9.682152,-0.0724246,-0.44113165,-0.17363810000000002,0.36218992,-0.29507825,12.6,45.3,3.12
1554878796880,-10.070012,-0.17298107,-0.08200141,-0.3717773,0.22796659,-0.29614353,12.54,45.54,3.12
1554878796900,-10.342952,-0.20649989,-0.10115502,-0.45060685,0.094808534,-0.27696875,12.42,45.78,3.12
1554878796920,-10.012551,-0.31184477,-0.12988544,-0.46232477,0.00958738,-0.25140239999999997,12.18,46.02,3.12
1554878796940,-9.988609,-0.3357868,-0.3645172,-0.47191215,-0.02130529,-0.25033715,12.0,46.2,3.12
1554878796960,-10.036493,-0.3645172,-0.31184477,-0.47723848,-0.013848438000000001,-0.24074976,11.76,46.32,3.24
1554878796979,-10.04607,-0.57999533,-0.30226797,-0.45486793,-0.015978966,-0.20559604,11.52,46.38,3.42
1554878796999,-10.34774,-0.7044938000000001,-0.14425065,-0.3898868,-0.012783173500000002,-0.17257284,11.28,46.5,3.6
1554878797020,-10.448297,-0.6183026,-0.11552023,-0.31105720000000003,-0.068176925,-0.14487597,10.92,46.5,3.84
1554878797040,-10.146626,-0.66618663,0.061650693,-0.26525086,-0.10226539,-0.080960095,10.74,46.5,4.02
1554878797060,-10.103531,-0.9487024,-0.05805939,-0.22903186,-0.06924219,-0.022370555,10.68,46.44,4.2
1554878797079,-10.041282,-1.1019313,0.04249708,-0.1949434,-0.060720075,-0.01917476,10.62,46.32,4.38
1554878797099,-9.749189,-1.0827777,-0.0676362,-0.16937704,-0.07669904,-0.0031957934000000003,10.56,46.26,4.44
1554878797120,-9.548077000000001,-1.2551602,-0.16340427,-0.15659387,-0.058589544,0.0010652645,10.5,46.2,4.5
1554878797140,-9.77792,-1.264737,-0.05327099,-0.15339808,-0.03089267,0.0,10.44,46.08,4.56
1554878797159,-9.844957,-1.2838906,-0.0053869537,-0.13848437,-0.024501082,0.03089267,10.44,46.02,4.62
1554878797179,-9.935937,-1.1881226,0.13347675,-0.10546118,-0.01917476,0.043675844000000005,10.44,45.9,4.68
1554878797199,-9.993398,-1.1354501000000001,-0.024540568,-0.04261058,-0.036218993,0.041545313,10.44,45.72,4.74
1554878797220,-9.950302,-0.97743285,-0.13467385,0.058589544,-0.041545313,0.05752428,10.44,45.54,4.8
1554878797240,-9.787497,-0.8194155000000001,-0.28790274,0.11824436,-0.03195793,0.099069595,10.44,45.36,4.86
1554878797259,-9.77792,-0.55126494,-0.40761283,0.111852765,0.020240024,0.13741912,10.44,45.24,4.92
1554878797279,-9.643844999999999,-0.6853402,-0.32142156,0.09374327,0.054328485999999995,0.15233281,10.44,45.12,4.92
1554878797300,-9.562441999999999,-0.7044938000000001,-0.4842273,0.08522116,0.07563378,0.15765914,10.44,45.06,4.92
1554878797319,-9.624691,-0.6853402,-0.5177461,0.07563378,0.08628642,0.13741912,10.5,45.06,4.92
1554878797339,-9.667786999999999,-0.670975,-0.44113165,0.058589544,0.06604639400000001,0.11611383,10.56,45.0,4.92
1554878797360,-9.466674000000001,-0.75237787,-0.46986207,0.025566347000000003,0.007456851,0.099069595,10.56,45.06,4.92
1554878797380,-9.385271000000001,-0.670975,-0.30705637,0.0,-0.0063915867,0.051132694000000006,10.62,45.12,4.92
1554878797399,-9.519346,-0.5847838000000001,-0.26396075,-0.0053263223,-0.0010652645,-0.010652645,10.62,45.18,4.92
1554878797419,-9.361329,-0.4842273,-0.3453636,0.0053263223,-0.01917476,-0.047936900000000005,10.68,45.18,4.92
1554878797440,-9.509769,-0.6039374,-0.23523031,0.010652645,-0.013848438000000001,-0.08628642,10.74,45.18,4.92
1554878797460,-9.605537,-0.45549688,-0.20171149,0.020240024,-0.024501082,-0.13635385,10.86,45.18,4.92
1554878797479,-9.528922999999999,-0.40761283,-0.16819267,0.02130529,-0.040480047000000005,-0.16192019,10.92,45.12,4.98
1554878797499,-9.710882000000002,-0.42197806,-0.05805939,0.0031957934000000003,-0.039414786,-0.17363810000000002,10.92,45.06,4.98
1554878797520,-9.993398,-0.4938041,-0.010175358,-0.049002163,-0.03195793,-0.17896444,10.98,44.94,4.98
1554878797540,-10.031705,-0.57999533,-0.31663316,-0.16831179,-0.05219796,-0.15020229,11.04,44.88,4.92
1554878797560,-10.0987425,-0.623091,-0.27353755,-0.26844665,-0.07350325,-0.14913702,11.1,44.88,4.98
1554878797579,-10.065224,-0.75237787,-0.20649989,-0.33662358,-0.1107875,-0.13635385,11.1,44.82,4.98
1554878797600,-9.753978,-0.84814596,-0.14903906,-0.37284255,-0.1107875,-0.096939065,11.1,44.82,5.04
1554878797620,-9.586383999999999,-1.0253168,-0.10594343,-0.33875409999999995,-0.068176925,-0.10865697,11.04,44.82,5.04
1554878797640,-9.653421,-1.0636241000000002,-0.10594343,-0.2428803,-0.029827405,-0.094808534,11.04,44.82,5.1
1554878797660,-9.586383999999999,-1.1354501000000001,-0.17776948,-0.14168017,-0.00958738,-0.056459017,10.98,44.82,5.16
1554878797679,-9.643844999999999,-1.0205284,-0.12988544,-0.07882957,0.002130529,-0.040480047000000005,10.98,44.76,5.28
1554878797700,-9.662998,-0.95349085,-0.26396075,-0.10865697,-0.0053263223,-0.025566347000000003,10.98,44.76,5.46
1554878797720,-9.677363,-0.97743285,-0.3357868,-0.19920446,-0.024501082,-0.025566347000000003,10.98,44.7,5.52
1554878797740,-9.648633,-1.0061632,-0.374094,-0.23968449999999997,-0.035153727999999995,-0.037284255,10.98,44.64,5.64
1554878797759,-9.696517,-0.98700964,-0.27832595,-0.19707392,-0.049002163,-0.039414786,10.92,44.52,5.7
1554878797779,-9.648633,-1.0779893,-0.0005985504,-0.12570119999999999,-0.04580637,-0.033023197000000004,10.92,44.46,5.76
1554878797800,-9.725247,-1.073201,0.037708677,-0.035153727999999995,-0.013848438000000001,-0.024501082,10.92,44.4,5.82
1554878797820,-9.830592,-0.98700964,-0.024540568,0.06604639400000001,-0.0031957934000000003,-0.020240024,10.86,44.28,5.88
1554878797839,-9.730036,-0.88166475,-0.06284779,0.13635385,0.00958738,0.004261058,10.86,44.22,5.88
1554878797859,-9.619903,-0.8242039000000001,-0.14903906,0.15659387,0.018109497,0.012783173500000002,10.86,44.16,5.88
1554878797880,-9.524135000000001,-0.6997054,-0.17776948,0.14594123,0.04261058,-0.0010652645,10.86,44.1,5.88
1554878797900,-9.56723,-0.7092823,-0.38845924,0.09374327,0.051132694000000006,-0.010652645,10.86,44.04,5.88
1554878797920,-9.825804,-0.88166475,-0.31184477,0.002130529,0.029827405,-0.00958738,10.86,44.04,5.94
1554878797939,-9.859323,-0.8194155000000001,-0.40761283,-0.06924219,-0.0063915867,-0.024501082,10.92,43.98,5.94
1554878797959,-9.854534,-0.85293436,-0.20171149,-0.094808534,-0.017044231,-0.039414786,10.92,43.98,5.94
1554878797980,-9.921572,-0.6997054,-0.19213470000000002,-0.10546118,-0.025566347000000003,-0.05219796,10.92,43.98,6.0
1554878797999,-9.77792,-0.8194155000000001,-0.14903906,-0.096939065,-0.033023197000000004,-0.05752428,10.92,43.98,6.0
1554878798020,-9.720459,-0.83378077,-0.110731825,-0.07456851,-0.035153727999999995,-0.053263225,10.92,43.98,6.0
1554878798042,-9.667786999999999,-0.7380127,-0.05327099,-0.017044231,-0.017044231,-0.04580637,10.92,43.98,6.0
1554878798060,-9.739613,-0.85293436,-0.110731825,0.013848438000000001,0.007456851,-0.034088463,10.92,43.98,6.0
1554878798080,-9.753978,-0.87687635,-0.20171149,0.027696876000000002,0.024501082,-0.010652645,10.86,43.98,6.06
1554878798100,-9.610325999999999,-0.9295488000000001,-0.28790274,0.0063915867,0.02876214,0.0,10.86,43.92,6.06
1554878798119,-9.615114,-0.9391255999999999,-0.26874915,-0.024501082,0.023435817999999997,-0.020240024,10.8,43.86,6.12
1554878798139,-9.619903,-0.86729956,-0.28790274,-0.06178534,0.004261058,-0.03834952,10.74,43.86,6.12
1554878798159,-9.619903,-0.8912416,-0.350152,-0.060720075,-0.02130529,-0.05752428,10.68,43.8,6.18
1554878798179,-9.65821,-0.87208796,-0.28790274,-0.07137272,-0.049002163,-0.07456851,10.62,43.74,6.18
1554878798199,-9.572019000000001,-1.1115081,-0.22565351,-0.08841695,-0.051132694000000006,-0.07882957,10.56,43.68,6.24
1554878798219,-9.720459,-1.0348936,-0.110731825,-0.084155895,-0.04261058,-0.08735169,10.5,43.68,6.24
1554878798239,-9.753978,-1.0061632,-0.091578215,-0.06178534,-0.040480047000000005,-0.080960095,10.5,43.62,6.3
1554878798259,-9.825804,-1.039682,-0.31184477,-0.011717908999999999,-0.03195793,-0.06924219,10.5,43.62,6.3
1554878798280,-9.902417999999999,-0.99179804,-0.17776948,0.033023197000000004,-0.008522116,-0.05965481,10.44,43.62,6.3
1554878798300,-9.797073,-0.8912416,-0.17298107,0.080960095,-0.007456851,-0.051132694000000006,10.44,43.62,6.3
1554878798319,-9.92636,-0.86729956,-0.3453636,0.11504856,-0.011717908999999999,-0.033023197000000004,10.44,43.56,6.24
1554878798340,-9.758766,-0.6853402,-0.3357868,0.10652645,-0.022370555,-0.027696876000000002,10.44,43.56,6.24
1554878798360,-9.734824,-0.64703304,-0.30226797,0.043675844000000005,-0.020240024,-0.04580637,10.38,43.56,6.24
1554878798379,-9.773131,-0.76195467,-0.23523031,-0.03089267,-0.029827405,-0.07137272,10.32,43.56,6.18
1554878798400,-9.672575,-0.82899237,-0.21607670000000004,-0.07776430000000001,-0.05219796,-0.07350325,10.32,43.62,6.18
1554878798422,-9.615114,-0.9439139999999999,-0.3645172,-0.14487597,-0.056459017,-0.06285059999999999,10.26,43.68,6.12
1554878798440,-9.615114,-1.0348936,-0.20649989,-0.21944448,-0.051132694000000006,-0.068176925,10.26,43.74,6.12
1554878798460,-9.653421,-1.192911,-0.30226797,-0.27377295,-0.04580637,-0.06604639400000001,10.26,43.74,6.12
1554878798480,-9.662998,-1.240795,-0.19213470000000002,-0.30146983,-0.05539375,-0.05006743,10.26,43.8,6.24
1554878798500,-9.56723,-1.2551602,0.12389994,-0.28229508,-0.053263225,-0.04261058,10.26,43.86,6.3
1554878798520,-9.552864999999999,-1.3269863000000002,0.11432313,-0.18961707,-0.05006743,-0.054328485999999995,10.32,43.86,6.36
1554878798540,-9.634267999999999,-1.1881226,0.0041898529999999995,-0.082025364,-0.033023197000000004,-0.054328485999999995,10.38,43.86,6.42
1554878798560,-9.619903,-1.1210848999999998,0.43514615,0.03195793,0.0,-0.051132694000000006,10.44,43.8,6.48
1554878798580,-9.68694,-0.9487024,0.21009120000000003,0.10226539,0.0063915867,-0.04474111,10.44,43.74,6.48
1554878798599,-9.792285000000001,-0.99658644,-0.24959552,0.09267801,-0.011717908999999999,-0.051132694000000006,10.5,43.68,6.54
1554878798619,-9.706094,-0.9247603999999999,0.023343466,-0.015978966,0.01917476,-0.00958738,10.5,43.62,6.54
1554878798640,-9.643844999999999,-0.86729956,-0.048482585999999994,-0.0010652645,-0.011717908999999999,-0.06711166,10.5,43.56,6.54
1554878798659,-9.811439,-1.039682,-0.04369418,0.040480047000000005,-0.011717908999999999,-0.05539375,10.5,43.5,6.54
1554878798680,-9.725247,-0.96785605,-0.3645172,0.058589544,-0.015978966,-0.043675844000000005,10.5,43.44,6.54
1554878798700,-9.744401,-0.9439139999999999,-0.46028528,0.004261058,-0.024501082,-0.080960095,10.5,43.44,6.54
1554878798719,-9.744401,-1.0540473,-0.28311434,-0.08841695,-0.02876214,-0.08735169,10.5,43.5,6.54
1554878798739,-9.80665,-1.0684125,-0.17776948,-0.14168017,-0.037284255,-0.07882957,10.5,43.5,6.54
1554878798761,-9.648633,-1.0971429,-0.27832595,-0.16724652,-0.06178534,-0.06711166,10.5,43.5,6.54
1554878798779,-9.787497,-1.2216414,-0.15861586,-0.18429075,-0.05752428,-0.058589544,10.5,43.5,6.48
1554878798799,-9.744401,-1.3509283,0.076015905,-0.16937704,-0.049002163,-0.06285059999999999,10.5,43.56,6.48
1554878798820,-9.639056,-1.417966,0.14784196,-0.10226539,-0.035153727999999995,-0.06391586,10.5,43.56,6.42
1554878798840,-9.548077000000001,-1.2503718000000001,0.17657238,-0.020240024,-0.018109497,-0.04261058,10.56,43.56,6.42
1554878798860,-9.639056,-1.1833341999999998,0.11432313,0.029827405,0.007456851,-0.041545313,10.56,43.56,6.42
1554878798879,-9.68694,-1.1737574,0.23882163,0.036218993,0.015978966,-0.039414786,10.62,43.56,6.42
1554878798900,-9.682152,-1.0109516,0.16220717,0.068176925,0.046871635999999994,-0.039414786,10.68,43.5,6.42
1554878798920,-9.682152,-0.99658644,0.20530279,0.12676647,0.068176925,-0.06924219,10.74,43.5,6.36
1554878798939,-9.667786999999999,-0.99179804,-0.091578215,0.13741912,0.07669904,-0.05965481,10.8,43.5,6.42
1554878798959,-9.682152,-1.0253168,-0.17298107,0.099069595,0.080960095,-0.06498113,10.86,43.44,6.42
1554878798980,-9.89763,-1.0684125,-0.3597288,0.0063915867,0.06391586,-0.06285059999999999,10.92,43.38,6.42
1554878799000,-9.849746000000001,-1.3509283,-0.41240123,-0.113983296,0.020240024,-0.035153727999999995,10.98,43.38,6.48
1554878799020,-9.710882000000002,-1.3652935,-0.26874915,-0.16192019,-0.007456851,-0.051132694000000006,10.98,43.38,6.48
1554878799040,-9.528922999999999,-1.3269863000000002,-0.20649989,-0.10652645,-0.020240024,-0.07776430000000001,10.92,43.32,6.54
1554878799060,-9.404425,-1.2934675,-0.24959552,-0.013848438000000001,-0.0031957934000000003,-0.058589544,10.86,43.32,6.6
1554878799079,-9.557653,-1.2791021999999999,-0.038905777,0.058589544,0.02130529,-0.05965481,10.74,43.32,6.66
1554878799100,-9.619903,-1.2072762,-0.02932897,0.111852765,0.05006743,-0.05219796,10.62,43.26,6.72
1554878799119,-9.619903,-1.2360066,-0.17776948,0.12463594,0.058589544,-0.05219796,10.5,43.26,6.84
1554878799140,-9.701305,-1.2312181999999998,-0.23523031,0.10652645,0.05006743,-0.046871635999999994,10.44,43.26,6.9
1554878799160,-9.734824,-1.2120646000000002,-0.28790274,0.05965481,0.043675844000000005,-0.05219796,10.32,43.26,6.96
1554878799179,-9.730036,-1.1833341999999998,-0.29747957,-0.008522116,0.03089267,-0.05539375,10.2,43.26,7.02
1554878799199,-9.65821,-1.1881226,-0.10115502,-0.047936900000000005,0.035153727999999995,-0.056459017,10.14,43.26,7.08
1554878799220,-9.65821,-1.1833341999999998,-0.24480712,-0.040480047000000005,0.037284255,-0.080960095,10.08,43.26,7.08
1554878799240,-9.610325999999999,-1.1833341999999998,-0.05805939,-0.029827405,0.05006743,-0.07243799,10.08,43.32,7.14
1554878799260,-9.595961,-1.2072762,-0.04369418,-0.03195793,0.04474111,-0.05965481,10.08,43.38,7.14
1554878799279,-9.576807,-1.3844471,-0.27832595,-0.05752428,0.043675844000000005,-0.05219796,10.08,43.38,7.14
1554878799299,-9.720459,-1.240795,-0.47465047,-0.07882957,0.049002163,-0.05965481,10.08,43.44,7.14
1554878799320,-9.581595,-1.3605051000000001,-0.5129577000000001,-0.07882957,0.047936900000000005,-0.07137272,9.96,43.44,7.14
1554878799340,-9.495403999999999,-1.3509283,-0.27832595,-0.06498113,0.05006743,-0.07563378,9.84,43.44,7.02
1554878799361,-9.610325999999999,-1.4083891000000002,-0.4985925,-0.056459017,0.037284255,-0.080960095,9.78,43.44,6.84
1554878799379,-9.552864999999999,-1.3221979,-0.45549688,-0.047936900000000005,0.05006743,-0.07350325,9.66,43.44,6.78
1554878799401,-9.706094,-1.3317747,-0.3788824,-0.0031957934000000003,0.05752428,-0.11611383,9.66,43.44,6.66
1554878799421,-9.921572,-1.2791021999999999,-0.26874915,0.022370555,0.056459017,-0.08948222,9.66,43.44,6.6
1554878799440,-9.859323,-1.2982559,-0.53211135,0.010652645,0.043675844000000005,-0.07776430000000001,9.66,43.5,6.54
1554878799460,-9.835381,-1.264737,-0.42197806,-0.03834952,0.040480047000000005,-0.07137272,9.66,43.5,6.54
1554878799480,-9.792285000000001,-1.3221979,-0.40282443,-0.054328485999999995,0.040480047000000005,-0.04580637,9.72,43.5,6.54
1554878799500,-9.80665,-1.3748703000000002,-0.3357868,-0.026631612000000002,0.03834952,-0.037284255,9.84,43.5,6.6
1554878799520,-9.739613,-1.3796587,-0.30226797,0.018109497,0.01917476,-0.033023197000000004,9.96,43.5,6.72
1554878799539,-9.648633,-1.3509283,-0.54168814,0.06604639400000001,0.0063915867,-0.020240024,10.02,43.5,6.84
1554878799560,-9.581595,-1.2934675,-0.41718966,0.083090626,0.014913702,-0.03195793,10.02,43.44,6.9
1554878799580,-9.715671,-1.2312181999999998,-0.6087258000000001,0.056459017,0.004261058,-0.04474111,9.96,43.38,7.02
1554878799599,-9.56723,-1.240795,-0.39803603,-0.017044231,-0.007456851,-0.023435817999999997,9.96,43.32,7.02
1554878799620,-9.653421,-1.4802152,-0.27832595,-0.080960095,-0.0031957934000000003,-0.03834952,9.96,43.32,7.02
1554878799639,-9.725247,-1.5089456,-0.23523031,-0.07882957,-0.0053263223,-0.04580637,9.9,43.38,7.02
1554878799659,-9.576807,-1.417966,-0.3645172,-0.034088463,-0.002130529,-0.051132694000000006,9.9,43.38,7.08
1554878799680,-9.591172,-1.4562732,-0.374094,0.01917476,-0.008522116,-0.051132694000000006,9.84,43.44,7.08
1554878799701,-9.662998,-1.3892354999999998,-0.28790274,0.01917476,-0.012783173500000002,-0.04580637,9.84,43.44,7.02
1554878799721,-9.653421,-1.3269863000000002,-0.46986207,-0.0063915867,-0.011717908999999999,-0.036218993,9.84,43.5,7.02
1554878799741,-9.672575,-1.3557166999999999,-0.3645172,-0.034088463,-0.00958738,-0.022370555,9.78,43.5,7.02
1554878799761,-9.662998,-1.4036007,-0.21128829999999998,-0.039414786,-0.010652645,-0.025566347000000003,9.78,43.5,7.02
1554878799780,-9.629479,-1.3796587,-0.3645172,-0.022370555,0.0010652645,-0.037284255,9.72,43.5,6.96
1554878799800,-9.706094,-1.3605051000000001,-0.5081693,-0.007456851,-0.0010652645,-0.035153727999999995,9.66,43.44,6.9
1554878799820,-9.68694,-1.4083891000000002,-0.36930559999999996,-0.015978966,-0.0063915867,-0.035153727999999995,9.54,43.44,6.84
1554878799840,-9.691728999999999,-1.4945803999999998,-0.374094,-0.036218993,-0.0063915867,-0.03834952,9.42,43.44,6.78
1554878799859,-9.677363,-1.3844471,-0.374094,-0.05752428,-0.03089267,-0.03834952,9.3,43.38,6.78
1554878799879,-9.648633,-1.417966,-0.42676646,-0.049002163,-0.026631612000000002,-0.037284255,9.24,43.38,6.72
1554878799900,-9.557653,-1.3988123,-0.45070848,-0.03195793,-0.035153727999999995,-0.035153727999999995,9.24,43.38,6.78
1554878799920,-9.509769,-1.3605051000000001,-0.26874915,-0.002130529,-0.03195793,-0.05006743,9.24,43.38,6.9
1554878799939,-9.624691,-1.3940238999999999,-0.4794389,-0.01917476,-0.022370555,-0.04580637,9.24,43.38,6.96
1554878799959,-9.629479,-1.4371196000000002,-0.27353755,-0.058589544,-0.010652645,-0.04580637,9.3,43.32,7.02
1554878799980,-9.662998,-1.5233108,-0.374094,-0.07563378,-0.002130529,-0.04261058,9.42,43.32,7.14
1554878799999,-9.619903,-1.4562732,-0.35494040000000004,-0.049002163,0.0010652645,-0.03089267,9.48,43.32,7.2
1554878800020,-9.648633,-1.6095021,-0.3788824,-0.023435817999999997,-0.004261058,-0.02876214,9.48,43.32,7.32
1554878800040,-9.739613,-1.4754268,-0.56084174,-0.0031957934000000003,-0.0063915867,-0.025566347000000003,9.48,43.32,7.38
1554878800060,-9.734824,-1.4945803999999998,-0.46028528,-0.018109497,-0.027696876000000002,-0.011717908999999999,9.42,43.32,7.32
1554878800079,-9.739613,-1.4706384,-0.4842273,-0.084155895,-0.051132694000000006,0.008522116,9.42,43.38,7.32
1554878800099,-9.706094,-1.4371196000000002,-0.3645172,-0.15978967,-0.06604639400000001,0.0031957934000000003,9.42,43.38,7.26
1554878800120,-9.682152,-1.3221979,-0.30226797,-0.18855181,-0.07989483,-0.012783173500000002,9.42,43.38,7.26
1554878800140,-9.639056,-1.240795,-0.40282443,-0.18748654,-0.07882957,-0.013848438000000001,9.42,43.38,7.26
1554878800159,-9.643844999999999,-1.2838906,-0.38367084,-0.18109496,-0.07563378,-0.022370555,9.42,43.38,7.26
1554878800179,-9.672575,-1.3748703000000002,-0.30226797,-0.20133498,-0.08735169,-0.024501082,9.48,43.26,7.26
1554878800199,-9.619903,-1.3365631000000002,-0.4842273,-0.23329292,-0.096939065,-0.01917476,9.48,43.02,7.38
1554878800219,-9.648633,-1.3605051000000001,-0.24959552,-0.26312032,-0.09054748,-0.026631612000000002,9.54,42.72,7.5
1554878800240,-9.696517,-1.4754268,-0.24480712,-0.27803403,-0.08522116,-0.02876214,9.54,42.48,7.56
1554878800260,-9.643844999999999,-1.4514848,-0.20649989,-0.28122982,-0.07563378,-0.024501082,9.54,42.24,7.68
1554878800280,-9.624691,-1.3988123,-0.39803603,-0.28868666,-0.084155895,-0.034088463,9.6,42.0,7.8
1554878800299,-9.691728999999999,-1.3509283,-0.41718966,-0.3174488,-0.084155895,-0.03195793,9.6,41.76,7.86
1554878800320,-9.730036,-1.3652935,-0.42197806,-0.34514567,-0.09267801,-0.024501082,9.6,41.58,7.98
1554878800340,-9.691728999999999,-1.513734,-0.14425065,-0.33875409999999995,-0.08841695,-0.022370555,9.6,41.46,8.04
1554878800359,-9.768343,-1.5280992,-0.12509704,-0.2727077,-0.068176925,-0.02130529,9.66,41.52,8.04
1554878800380,-9.868899,-1.4993688,0.0041898529999999995,-0.16298546,-0.054328485999999995,-0.013848438000000001,9.66,41.58,8.1
1554878800400,-9.744401,-1.4802152,0.05686229,-0.05219796,-0.051132694000000006,-0.002130529,9.72,41.52,8.1
1554878800419,-9.682152,-1.5089456,-0.024540568,0.024501082,-0.04261058,-0.0031957934000000003,9.84,41.52,8.1
1554878800439,-9.605537,-1.4562732,0.0041898529999999995,0.06285059999999999,-0.033023197000000004,-0.011717908999999999,9.9,41.46,8.1
1554878800460,-9.5385,-1.5185224,-0.09636662,0.068176925,-0.018109497,-0.0031957934000000003,9.96,41.4,8.1
1554878800481,-9.476251,-1.4993688,-0.26874915,0.08735169,-0.008522116,-0.0053263223,10.02,41.28,8.04
1554878800500,-9.471461999999999,-1.5233108,-0.30226797,0.1107875,0.0,-0.008522116,10.08,41.16,8.1
1554878800519,-9.414000999999999,-1.5616181,-0.38845924,0.13528858,0.012783173500000002,-0.010652645,10.14,41.1,8.1
1554878800539,-9.514558000000001,-1.4514848,-0.350152,0.17789917,0.020240024,-0.013848438000000001,10.14,41.04,8.1
1554878800559,-9.615114,-1.3892354999999998,-0.40761283,0.24927188,0.0063915867,-0.02876214,10.14,41.1,8.1
1554878800580,-9.648633,-1.3030443,-0.27832595,0.30040458,0.002130529,-0.04580637,10.14,41.1,8.04
1554878800600,-9.629479,-1.3317747,-0.25917232,0.28975195,-0.010652645,-0.041545313,10.14,41.1,7.98
1554878800620,-9.619903,-1.2551602,-0.31663316,0.21092236,0.0,-0.027696876000000002,10.08,41.16,7.92
1554878800640,-9.763555,-1.2886791000000002,-0.14903906,0.07882957,0.011717908999999999,-0.02130529,10.08,41.22,7.86
1554878800659,-9.730036,-1.3269863000000002,-0.05327099,-0.05752428,0.023435817999999997,0.010652645,10.08,41.28,7.8
1554878800680,-9.763555,-1.2838906,-0.10594343,-0.094808534,0.034088463,0.0010652645,10.02,41.34,7.74
1554878800700,-9.830592,-1.2695253999999998,-0.091578215,-0.060720075,0.05752428,-0.007456851,10.02,41.4,7.68
1554878800720,-9.792285000000001,-1.2743138,-0.31184477,0.020240024,0.07030745599999999,0.0,10.02,41.46,7.62
1554878800740,-9.696517,-1.2886791000000002,-0.4890157,0.083090626,0.068176925,-0.017044231,9.96,41.52,7.62
1554878800760,-9.65821,-1.1737574,-0.42676646,0.10972224,0.05965481,-0.041545313,9.96,41.58,7.62
1554878800779,-9.605537,-1.3126211,-0.65660983,0.07776430000000001,0.026631612000000002,-0.033023197000000004,9.96,41.64,7.68
1554878800799,-9.519346,-1.3940238999999999,-0.45549688,-0.025566347000000003,-0.015978966,-0.025566347000000003,10.02,41.64,7.68
1554878800820,-9.581595,-1.5233108,-0.41718966,-0.111852765,-0.05752428,-0.051132694000000006,10.02,41.64,7.68
1554878800839,-9.629479,-1.5280992,-0.17776948,-0.08735169,-0.07030745599999999,-0.060720075,10.02,41.7,7.68
1554878800860,-9.77792,-1.4802152,-0.36930559999999996,-0.029827405,-0.07669904,-0.07563378,10.02,41.7,7.68
1554878800880,-9.763555,-1.5664065,-0.091578215,0.04261058,-0.07456851,-0.05752428,10.02,41.76,7.74
1554878800900,-9.911995,-1.5616181,-0.14903906,0.10865697,-0.05006743,-0.04474111,10.02,41.76,7.74
1554878800919,-10.017339999999999,-1.5664065,-0.25917232,0.10546118,-0.04261058,-0.02130529,10.02,41.82,7.74
1554878800939,-9.974244,-1.5185224,-0.12509704,0.05752428,-0.04580637,0.014913702,10.02,41.82,7.74
1554878800960,-9.749189,-1.4371196000000002,-0.19692309,0.002130529,-0.04474111,0.047936900000000005,10.02,41.88,7.8
1554878800980,-9.600749,-1.4083891000000002,-0.31663316,-0.013848438000000001,-0.02876214,0.07456851,10.08,41.88,7.8
1554878801000,-9.639056,-1.3509283,-0.19692309,0.0053263223,-0.008522116,0.06604639400000001,10.08,41.88,7.8
1554878801020,-9.504980999999999,-1.2982559,-0.25917232,0.043675844000000005,0.008522116,0.054328485999999995,10.14,41.88,7.8
1554878801040,-9.361329,-1.2743138,-0.3645172,0.056459017,0.017044231,0.05219796,10.08,41.88,7.8
1554878801062,-9.327810000000001,-1.2838906,-0.3597288,0.034088463,0.040480047000000005,0.040480047000000005,10.02,41.94,7.8
1554878801079,-9.255983,-1.2551602,-0.45549688,0.002130529,0.05539375,0.02876214,9.96,41.88,7.8
1554878801102,-9.390058999999999,-1.2360066,-0.44113165,-0.05006743,0.06178534,0.025566347000000003,9.96,41.88,7.8
1554878801121,-9.351752000000001,-1.2312181999999998,-0.30705637,-0.083090626,0.041545313,0.017044231,9.84,41.76,7.8
1554878801141,-9.351752000000001,-1.2072762,-0.40282443,-0.07137272,0.014913702,0.013848438000000001,9.72,41.64,7.8
1554878801160,-9.370906,-1.1019313,-0.3645172,-0.051132694000000006,0.007456851,-0.015978966,9.66,41.46,7.8
1554878801180,-9.753978,-1.0253168,-0.20171149,-0.08735169,0.004261058,-0.05539375,9.6,41.28,7.86
1554878801200,-10.012551,-1.1210848999999998,-0.010175358,-0.14168017,-0.02876214,-0.043675844000000005,9.6,41.1,7.92
1554878801220,-9.811439,-1.3269863000000002,0.09995792,-0.16724652,-0.05752428,-0.00958738,9.6,40.92,7.98
1554878801239,-9.739613,-1.4610616,-0.02932897,-0.1587244,-0.041545313,-0.008522116,9.6,40.8,8.04
1554878801259,-9.68694,-1.46585,-0.010175358,-0.113983296,-0.027696876000000002,-0.03195793,9.66,40.74,8.04
1554878801280,-9.653421,-1.4131776000000003,-0.02932897,-0.02130529,-0.034088463,-0.049002163,9.66,40.74,8.1
1554878801300,-9.495403999999999,-1.2695253999999998,-0.18255788,0.08948222,-0.04261058,-0.099069595,9.72,40.74,8.1
1554878801319,-9.414000999999999,-1.2072762,-0.46507367,0.113983296,-0.043675844000000005,-0.10972224,9.72,40.8,8.1
1554878801340,-9.346964,-1.3317747,-0.22565351,0.054328485999999995,-0.024501082,-0.112918034,9.78,40.86,8.04
1554878801359,-9.524135000000001,-1.3892354999999998,-0.15382746,-0.06391586,0.007456851,-0.09374327,9.9,40.92,8.04
1554878801379,-9.773131,-1.4945803999999998,-0.36930559999999996,-0.15765914,0.036218993,-0.07563378,9.9,40.92,7.98
1554878801399,-9.734824,-1.5185224,-0.20171149,-0.23009712,0.043675844000000005,-0.07243799,9.9,40.92,7.98
1554878801420,-9.773131,-1.5664065,-0.05327099,-0.23116238,0.036218993,-0.06498113,9.96,40.92,7.98
1554878801440,-9.888053,-1.513734,0.13826515,-0.10333065,0.026631612000000002,-0.05752428,9.96,40.98,7.92
1554878801459,-9.801862,-1.4802152,-0.06284779,0.10333065,0.020240024,-0.04261058,9.96,40.98,7.92
1554878801480,-9.787497,-1.2503718000000001,-0.32621,0.23116238,0.02130529,-0.023435817999999997,10.02,41.04,7.92
1554878801499,-9.797073,-1.2551602,-0.47465047,0.21092236,0.007456851,-0.004261058,10.02,41.1,7.98
1554878801519,-9.706094,-1.3317747,-0.45070848,0.13635385,0.014913702,0.008522116,10.02,41.1,8.1
1554878801540,-9.509769,-1.264737,-0.30226797,0.08841695,0.022370555,-0.03089267,10.02,41.16,8.22
1554878801560,-9.528922999999999,-1.2360066,-0.46507367,0.06498113,0.018109497,-0.040480047000000005,10.08,41.22,8.34
1554878801580,-9.524135000000001,-1.1976993999999999,-0.39803603,0.034088463,0.029827405,-0.06391586,10.08,41.28,8.4
1554878801599,-9.5385,-1.2743138,-0.57999533,-0.047936900000000005,0.023435817999999997,-0.080960095,10.08,41.34,8.52
1554878801619,-9.56723,-1.3030443,-0.6326678000000001,-0.14913702,0.013848438000000001,-0.06924219,10.08,41.4,8.58
1554878801640,-9.605537,-1.3988123,-0.6183026,-0.22477080000000002,0.0,-0.082025364,10.08,41.46,8.64
1554878801660,-9.672575,-1.4993688,-0.21128829999999998,-0.25033715,-0.007456851,-0.06498113,10.02,41.52,8.7
1554878801680,-9.629479,-1.6334441000000002,-0.23044191,-0.23222765,-0.007456851,-0.053263225,9.96,41.58,8.64
1554878801700,-9.701305,-1.7052702000000002,-0.048482585999999994,-0.14168017,0.0063915867,-0.060720075,9.96,41.64,8.64
1554878801719,-9.830592,-1.6669630000000002,-0.21128829999999998,-0.04261058,0.024501082,-0.04580637,9.9,41.64,8.58
1554878801739,-9.859323,-1.5185224,-0.45549688,0.00958738,0.03195793,-0.036218993,9.84,41.58,8.58
1554878801759,-9.792285000000001,-1.489792,-0.25438392,0.026631612000000002,0.033023197000000004,-0.023435817999999997,9.78,41.52,8.58
1554878801779,-9.859323,-1.3988123,-0.3453636,0.046871635999999994,0.015978966,-0.007456851,9.78,41.46,8.58
1554878801800,-9.816227,-1.4802152,-0.36930559999999996,0.05752428,0.0,-0.0031957934000000003,9.78,41.4,8.64
1554878801820,-9.65821,-1.3317747,-0.6422445999999999,0.05219796,-0.012783173500000002,-0.0031957934000000003,9.78,41.34,8.64
1554878801840,-9.619903,-1.2743138,-0.42197806,0.029827405,-0.024501082,0.0010652645,9.84,41.28,8.64
1554878801859,-9.5385,-1.2886791000000002,-0.30705637,0.0053263223,-0.029827405,-0.017044231,9.84,41.22,8.58
1554878801879,-9.557653,-1.3796587,-0.22565351,-0.02130529,-0.033023197000000004,-0.029827405,9.9,41.16,8.58
1554878801900,-9.562441999999999,-1.3413515,-0.24959552,-0.049002163,-0.029827405,-0.02876214,9.96,41.1,8.58
1554878801920,-9.543288,-1.4514848,-0.47465047,-0.08841695,-0.023435817999999997,-0.025566347000000003,9.96,41.16,8.58
1554878801940,-9.552864999999999,-1.5280992,-0.42197806,-0.13528858,-0.020240024,-0.022370555,10.02,41.16,8.58
1554878801960,-9.615114,-1.5185224,-0.32621,-0.14274544,-0.015978966,-0.027696876000000002,10.02,41.16,8.52
1554878801979,-9.653421,-1.5376761,-0.13467385,-0.10865697,-0.008522116,-0.023435817999999997,10.08,41.16,8.52
1554878801999,-9.682152,-1.5711948999999998,-0.43155485,-0.09267801,-0.025566347000000003,-0.0063915867,10.14,41.16,8.46
1554878802020,-9.576807,-1.5807717,-0.4890157,-0.13102753,-0.035153727999999995,0.037284255,10.14,41.16,8.46
1554878802040,-9.543288,-1.489792,-0.019752163,-0.02876214,-0.0053263223,-0.010652645,10.2,41.1,8.46
1554878802060,-9.849746000000001,-1.4083891000000002,-0.05805939,0.11611383,0.0063915867,-0.03834952,10.14,41.04,8.46
1554878802079,-9.653421,-1.3796587,-0.17298107,0.221575,0.018109497,0.0053263223,10.14,41.04,8.52
1554878802099,-9.720459,-1.3269863000000002,-0.29747957,0.2695119,0.046871635999999994,-0.020240024,10.14,40.92,8.58
1554878802120,-9.854534,-1.3796587,-0.25917232,0.2545982,0.05219796,-0.02130529,10.14,40.86,8.64
1554878802139,-9.691728999999999,-1.4227544,-0.5129577000000001,0.16937704,0.03089267,-0.0010652645,10.14,40.8,8.64
1554878802160,-9.5385,-1.3652935,-0.44113165,0.002130529,-0.004261058,0.0031957934000000003,10.08,40.74,8.7
1554878802180,-9.548077000000001,-1.4610616,-0.40761283,-0.07137272,-0.011717908999999999,0.0010652645,10.08,40.62,8.76
1554878802200,-9.56723,-1.4754268,-0.32621,-0.04474111,-0.010652645,-0.007456851,10.02,40.62,8.76
1554878802220,-9.572019000000001,-1.4802152,-0.26874915,0.035153727999999995,-0.010652645,-0.02130529,10.08,40.62,8.7
1554878802239,-9.533711,-1.4706384,-0.30226797,0.09161274,-0.008522116,-0.01917476,10.02,40.62,8.7
1554878802261,-9.653421,-1.3892354999999998,-0.45549688,0.10972224,-0.007456851,-0.03195793,10.02,40.56,8.7
1554878802281,-9.672575,-1.3269863000000002,-0.38845924,0.10972224,0.0010652645,-0.037284255,10.02,40.56,8.7
1554878802301,-9.730036,-1.4131776000000003,-0.3309984,0.098004326,0.002130529,-0.02876214,10.02,40.56,8.76
1554878802319,-9.653421,-1.2982559,-0.27353755,0.07456851,0.007456851,-0.022370555,9.96,40.56,8.76
1554878802340,-9.749189,-1.3509283,-0.350152,0.047936900000000005,0.008522116,-0.013848438000000001,9.96,40.62,8.76
1554878802360,-9.701305,-1.3605051000000001,-0.24959552,0.02130529,0.011717908999999999,-0.010652645,9.96,40.62,8.76
1554878802380,-9.639056,-1.3269863000000002,-0.40282443,0.0010652645,-0.004261058,-0.0053263223,9.96,40.62,8.82
1554878802400,-9.615114,-1.3796587,-0.32621,-0.022370555,-0.00958738,-0.0010652645,9.96,40.62,8.82
1554878802421,-9.662998,-1.5089456,-0.31663316,-0.047936900000000005,-0.015978966,0.004261058,10.02,40.68,8.76
1554878802441,-9.662998,-1.4083891000000002,-0.46507367,-0.026631612000000002,-0.011717908999999999,-0.012783173500000002,10.02,40.68,8.76
1554878802460,-9.634267999999999,-1.3509283,-0.21128829999999998,0.034088463,0.0010652645,-0.017044231,10.02,40.68,8.76
1554878802479,-9.619903,-1.3126211,-0.29747957,0.07563378,0.008522116,-0.01917476,10.02,40.68,8.7
1554878802499,-9.576807,-1.2120646000000002,-0.350152,0.083090626,0.013848438000000001,-0.01917476,9.96,40.68,8.7
1554878802520,-9.552864999999999,-1.192911,-0.5081693,0.051132694000000006,0.012783173500000002,-0.026631612000000002,9.9,40.74,8.7
1554878802539,-9.65821,-1.2503718000000001,-0.5081693,0.002130529,0.008522116,-0.034088463,9.84,40.74,8.64
1554878802560,-9.749189,-1.3844471,-0.20171149,-0.04261058,-0.0031957934000000003,-0.035153727999999995,9.84,40.74,8.64
1554878802579,-9.68694,-1.3269863000000002,-0.45549688,-0.068176925,-0.020240024,-0.037284255,9.78,40.74,8.64
1554878802599,-9.753978,-1.4706384,-0.4794389,-0.07776430000000001,-0.027696876000000002,-0.039414786,9.72,40.74,8.58
1554878802620,-9.758766,-1.46585,-0.43155485,-0.06604639400000001,-0.026631612000000002,-0.03834952,9.72,40.74,8.58
1554878802639,-9.792285000000001,-1.3078326999999998,-0.28790274,-0.04261058,-0.025566347000000003,-0.033023197000000004,9.72,40.74,8.58
1554878802659,-9.782708,-1.441908,-0.26396075,-0.011717908999999999,-0.01917476,-0.023435817999999997,9.72,40.74,8.58
1554878802680,-9.749189,-1.5089456,-0.14425065,0.015978966,-0.02130529,-0.008522116,9.78,40.74,8.58
1554878802699,-9.720459,-1.4131776000000003,-0.28790274,0.029827405,-0.00958738,-0.004261058,9.78,40.74,8.58
1554878802720,-9.662998,-1.5280992,-0.12988544,0.03195793,0.004261058,0.007456851,9.78,40.68,8.52
1554878802740,-9.634267999999999,-1.4083891000000002,-0.16340427,0.036218993,0.020240024,0.02130529,9.84,40.68,8.52
1554878802759,-9.677363,-1.4802152,-0.048482585999999994,0.051132694000000006,0.035153727999999995,0.037284255,9.84,40.62,8.46
1554878802779,-9.572019000000001,-1.5759833,-0.18255788,0.07137272,0.07137272,0.07456851,9.84,40.56,8.46
1554878802801,-9.524135000000001,-1.5711948999999998,0.11432313,0.15020229,0.12037488,0.08841695,9.84,40.56,8.46
1554878802820,-9.725247,-1.6430208999999998,0.032920275,0.28122982,0.19068234,0.1107875,9.84,40.5,8.4
1554878802840,-9.591172,-1.6286557,0.09995792,0.45593318,0.2428803,0.14061491,9.84,40.5,8.4
1554878802859,-9.682152,-1.4945803999999998,-0.15861586,0.65513766,0.28549087,0.14594123,9.84,40.5,8.4
