TimeStamp,Ax,Ay,Az,Gx,Gy,Gz,Mx,My,Mz
1554882082775,-7.642291999999999,-2.3756466,5.4055089999999995,-1.4775218,-0.38882150000000004,0.2876214,19.14,-70.56,-34.08
1554882082796,-7.8865004,-2.6007016,5.453393,-1.4839133999999998,-0.3685815,0.28975195,18.9,-69.78,-34.68
1554882082816,-7.762002000000001,-3.2136172999999997,5.5204306,-1.4817829,-0.39734364,0.26312032,18.6,-68.94,-35.28
1554882082836,-7.2927384,-3.5631707,5.6736593,-1.5158713,-0.39840892,0.2428803,18.3,-67.92,-35.88
1554882082855,-7.062895,-3.8696284,6.0567317,-1.4242586000000002,-0.3334278,0.25672874,18.0,-66.9,-36.48
1554882082875,-6.943185000000001,-4.2622776,5.8891377,-1.2229236,-0.29827404,0.27803403,17.64,-65.7,-36.9
1554882082896,-6.6367273,-4.717176,5.740697,-0.8319715,-0.2609898,0.28549087,17.1,-63.84,-37.62
1554882082915,-6.5505357,-4.530428,5.7215432999999996,-0.6593986999999999,-0.26631612,0.26738137,16.92,-63.24,-37.86
1554882082935,-6.6654577,-4.300585,5.5922565,-0.56459016,-0.23968449999999997,0.26631612,16.62,-61.92,-38.4
1554882082956,-6.4068837,-4.109049,5.8891377,-0.58056915,-0.2695119,0.23009712,16.14,-60.06,-39.18
1554882082975,-6.114791,-4.247912400000001,6.128557700000001,-0.5613944000000001,-0.25992453,0.15020229,15.96,-59.1,-39.6
1554882082996,-6.1100025,-4.147355999999999,6.425439,-0.46125950000000004,-0.19920446,0.07882957,15.72,-58.32,-39.96
1554882083016,-6.4547677000000006,-3.9653966,6.502053299999999,-0.294013,-0.13528858,0.017044231,15.54,-57.72,-40.14
1554882083035,-6.564901,-3.8696284,6.0088477,-0.21837921,-0.10652645,-0.037284255,15.3,-57.24,-40.38
1554882083056,-6.5457472999999995,-3.9414546,6.047155,-0.23968449999999997,-0.09587380000000001,-0.101200126,15.06,-56.7,-40.62
1554882083076,-6.5457472999999995,-3.840898,6.0998273,-0.25992453,-0.05539375,-0.12570119999999999,14.88,-56.22,-40.68
1554882083095,-6.6415157,-3.5152867,5.9465985,-0.2034655,0.029827405,-0.10652645,14.64,-55.8,-40.74
1554882083115,-6.7133417,-3.6685154000000004,5.9801173,-0.15339808,0.07350325,-0.14913702,14.46,-55.44,-40.86
1554882083135,-6.823475,-3.9893386,5.635351999999999,-0.096939065,0.07243799,-0.23861924,14.28,-55.14,-40.92
1554882083155,-7.0485296,-4.472967,5.510854,0.05965481,0.07350325,-0.24607609,14.28,-54.9,-40.98
1554882083175,-6.9862804,-4.463390400000001,5.419874,0.24927188,0.06391586,-0.18535602,14.22,-54.72,-40.98
1554882083196,-7.249642999999999,-3.9653966,5.443816,0.43675843,0.068176925,-0.11824436,14.22,-54.54,-41.04
1554882083216,-7.0964136,-3.7307648999999996,5.156512,0.5123922000000001,0.04261058,-0.082025364,14.28,-54.42,-41.1
1554882083236,-6.885724000000001,-3.74513,5.175665400000001,0.45380265,-0.0053263223,-0.06711166,14.34,-54.36,-41.1
1554882083256,-6.981492,-3.4530375,5.204396,0.30999196,0.00958738,-0.07456851,14.46,-54.3,-41.1
1554882083275,-7.0102224,-3.3189620000000004,5.065532,0.13102753,0.03195793,-0.05219796,14.58,-54.36,-41.1
1554882083295,-6.703765,-3.4913447,5.0942625999999995,-0.02130529,0.014913702,-0.041545313,14.64,-54.48,-41.1
1554882083316,-6.5792660000000005,-3.6733038000000002,5.0463786,-0.24074976,-0.004261058,-0.08948222,14.7,-54.72,-41.1
1554882083335,-6.813898,-3.840898,5.1900306,-0.29188246,-0.020240024,-0.12463594,14.7,-54.96,-41.04
1554882083356,-6.9048777,-3.8744167999999997,4.8979383,-0.22477080000000002,-0.07137272,-0.12250541,14.7,-55.14,-41.04
1554882083376,-6.9144545,-4.1138372,4.7159786,-0.22050974,-0.12037488,-0.09267801,14.64,-55.38,-41.04
1554882083397,-6.7277070000000005,-4.291008000000001,4.7542860000000005,-0.27377295,-0.17576863,-0.07456851,14.58,-55.5,-41.04
1554882083416,-6.655881,-4.329315,4.9458222,-0.3270362,-0.15020229,-0.080960095,14.52,-55.56,-41.04
1554882083436,-6.517017,-4.257489,5.285799,-0.2972088,-0.082025364,-0.10333065,14.46,-55.38,-41.04
1554882083455,-6.378153299999999,-4.3197384,5.769428,-0.20772657,0.00958738,-0.15126756,14.46,-55.08,-41.04
1554882083475,-6.4212489999999995,-3.9893386,5.8651957999999995,-0.05006743,0.07030745599999999,-0.20985709,14.46,-54.72,-41.04
1554882083496,-6.6654577,-3.9797617999999995,5.486912,0.17789917,0.08948222,-0.20985709,14.52,-54.42,-41.04
1554882083516,-6.947973299999999,-4.1425676,5.1038394,0.16298546,0.08522116,-0.14487597,14.58,-54.12,-41.1
1554882083536,-7.120356,-3.9270894999999997,4.9984946,-0.010652645,0.06391586,-0.083090626,14.7,-53.82,-41.1
1554882083555,-7.0724716,-3.9845502,4.6058455,-0.22264028,0.05219796,-0.026631612000000002,14.76,-53.58,-41.1
1554882083575,-7.0102224,-4.109049,4.797382,-0.43782368,0.043675844000000005,0.015978966,14.88,-53.4,-41.1
1554882083595,-7.326257000000001,-4.2957964,5.0080714,-0.55287224,0.06285059999999999,0.04580637,14.94,-53.28,-41.04
1554882083616,-7.407660000000001,-4.482544,5.075108999999999,-0.52411014,0.036218993,0.053263225,15.0,-53.16,-41.04
1554882083635,-7.4028716,-4.607043,5.036802,-0.4079963,-0.011717908999999999,0.07030745599999999,15.06,-52.98,-40.98
1554882083655,-7.311891999999999,-4.7937902999999995,5.003283000000001,-0.25992453,-0.022370555,0.101200126,15.06,-52.74,-40.98
1554882083676,-7.326257000000001,-4.654927,5.0846860000000005,-0.14274544,-0.015978966,0.12996227,15.06,-52.38,-40.92
1554882083696,-7.2975270000000005,-4.463390400000001,5.099051,-0.10333065,-0.00958738,0.14274544,15.06,-52.08,-40.86
1554882083715,-7.2592196,-4.472967,5.113416,-0.10333065,-0.025566347000000003,0.16937704,15.0,-51.78,-40.86
1554882083735,-7.249642999999999,-4.496909,5.213972599999999,-0.06285059999999999,-0.020240024,0.22264028,14.94,-51.42,-40.8
1554882083756,-7.201759,-4.458602,4.8787847,-0.018109497,0.0031957934000000003,0.29294774,14.88,-51.12,-40.8
1554882083776,-7.0820484,-4.5256395,4.3999443,-0.12037488,0.02130529,0.35579833,14.82,-50.82,-40.8
1554882083795,-6.885724000000001,-4.4442368,4.490924,-0.30253512,0.053263225,0.38775626,14.82,-50.64,-40.8
1554882083815,-6.9623384,-4.4538136,4.3903675,-0.39627838,0.06711166,0.41758367,14.76,-50.52,-40.86
1554882083836,-6.9383965,-4.3101616,4.371214,-0.39095205,0.111852765,0.45273739999999996,14.76,-50.46,-40.98
1554882083856,-6.9383965,-4.0755300000000005,4.1653123,-0.32170987,0.12676647,0.43995422,14.76,-50.4,-41.04
1554882083876,-7.240066000000001,-3.6876693,3.8013937000000007,-0.3206446,0.13315806,0.4165184,14.82,-50.34,-41.16
1554882083897,-7.4603324,-4.061165,4.1413703,-0.46552056,0.13848437,0.40373522,14.82,-50.16,-41.22
1554882083915,-7.28795,-3.8696284,4.7303440000000005,-0.5816344,0.07776430000000001,0.35260254,14.82,-50.04,-41.34
1554882083936,-7.2592196,-4.0037036,4.907515,-0.59228706,0.054328485999999995,0.29933932,14.82,-49.92,-41.4
1554882083955,-7.3885064,-3.7163997,4.941033999999999,-0.5550028,0.128897,0.3174488,14.82,-49.74,-41.46
1554882083976,-7.627927000000001,-3.3572693,4.8787847,-0.47297743,0.21198763,0.4079963,14.82,-49.5,-41.52
1554882083996,-7.8577699999999995,-3.3381157,4.5196543,-0.45593318,0.25140239999999997,0.45699844,14.76,-49.08,-41.52
1554882084016,-7.991845,-3.2806550000000003,4.208408,-0.5336975,0.19920446,0.45060685,14.82,-48.6,-41.52
1554882084036,-7.929596000000001,-3.3716345000000003,3.8827964999999995,-0.6317018,0.15446335,0.48682585,14.82,-48.06,-41.52
1554882084056,-7.963114699999999,-3.1657330000000004,3.9881415000000002,-0.7978831000000001,0.17363810000000002,0.59122175,14.88,-47.64,-41.46
1554882084076,-8.039729,-3.2279825,4.395156,-0.9193232,0.23116238,0.69668293,14.94,-47.16,-41.46
1554882084096,-7.6470804,-3.342904,4.634576,-0.95234644,0.15978967,0.664725,15.0,-46.62,-41.46
1554882084116,-7.326257000000001,-3.3572693,4.246715,-0.9395633,0.18535602,0.6306366,15.12,-45.96,-41.46
1554882084135,-7.4028716,-3.3141737,4.1461587,-0.9534117,0.27696875,0.66152924,15.24,-45.18,-41.46
1554882084155,-7.876923599999999,-3.7259765,4.136582,-0.8948221,0.37603834,0.68389976,15.36,-44.34,-41.4
1554882084176,-8.145074000000001,-4.089895200000001,4.1317935,-0.7574029999999999,0.29188246,0.57417756,15.48,-43.56,-41.4
1554882084198,-7.943961,-3.970185,3.6673183,-0.5901565,0.13422333,0.46552056,15.66,-42.72,-41.34
1554882084216,-7.728483,-3.8121676,3.8253357000000006,-0.49534798,0.08735169,0.4878911,15.78,-41.88,-41.34
1554882084236,-7.6231384,-3.4195184999999997,3.8349125,-0.515588,0.07669904,0.5336975,15.96,-41.04,-41.28
1554882084255,-7.8146744,-3.5727474999999997,3.8349125,-0.5784385999999999,0.083090626,0.48682585,16.08,-40.2,-41.22
1554882084276,-7.905653999999999,-3.816956,3.7295678,-0.6711166000000001,-0.013848438000000001,0.35153726,16.2,-39.48,-41.16
1554882084295,-7.6710224,-3.9414546,4.0360255,-0.64555025,-0.12357068,0.22796659,16.32,-38.94,-41.1
1554882084316,-7.7189064,-3.9414546,4.170100700000001,-0.47191215,-0.13954964,0.18429075,16.44,-38.46,-41.04
1554882084335,-7.7667904000000005,-3.7403417,3.7535098,-0.3057309,-0.12037488,0.19600865,16.5,-37.92,-40.98
1554882084355,-7.5800424,-3.5871127,3.7056258,-0.30679616,-0.10013486,0.18109496,16.44,-37.44,-40.92
1554882084375,-7.6518690000000005,-3.7355532999999994,3.7822402000000004,-0.39521313,-0.051132694000000006,0.101200126,16.5,-36.9,-40.86
1554882084395,-7.8865004,-4.061165,3.470994,-0.43675843,-0.035153727999999995,-0.017044231,16.5,-36.48,-40.8
1554882084415,-8.461109,-4.257489,3.4039562000000005,-0.41758367,-0.004261058,-0.047936900000000005,16.5,-36.0,-40.74
1554882084435,-8.480263,-4.2383356,3.2267854,-0.31957933,0.043675844000000005,0.051132694000000006,16.5,-35.58,-40.68
1554882084456,-7.9248075,-4.19524,3.3608606,-0.22583607,0.10865697,0.13102753,16.5,-35.16,-40.68
1554882084476,-7.833828,-4.065953299999999,3.4278982000000005,-0.16192019,0.22050974,0.08948222,16.5,-34.8,-40.68
1554882084496,-8.145074000000001,-4.0372224,3.447052,-0.1107875,0.30999196,0.04474111,16.56,-34.44,-40.62
1554882084515,-8.37013,-4.252701,3.3464954,-0.08841695,0.33662358,0.10226539,16.62,-34.14,-40.62
1554882084535,-8.178593,-3.7355532999999994,3.3560722000000003,-0.040480047000000005,0.36964676,0.16724652,16.74,-33.84,-40.62
1554882084556,-8.456321,-3.5871127,3.0352492,0.023435817999999997,0.46125950000000004,0.14594123,16.8,-33.54,-40.56
1554882084576,-8.475474,-3.5679589999999997,3.0065188,0.036218993,0.4878911,0.08628642,16.86,-33.3,-40.5
1554882084596,-8.599973,-3.3907879999999997,3.0496144,0.099069595,0.515588,0.034088463,16.98,-33.06,-40.32
1554882084615,-8.585608,-3.232771,2.9059622000000003,0.18855181,0.5028047999999999,0.0053263223,17.22,-32.82,-40.2
1554882084635,-8.724471000000001,-2.9311013,2.5037365,0.27590349999999997,0.50600064,-0.026631612000000002,17.58,-32.76,-40.08
1554882084656,-9.193734,-2.9694088,2.0536265,0.20133498,0.5123922000000001,-0.068176925,18.12,-32.64,-39.84
1554882084676,-9.160214999999999,-3.103484,2.0919337,0.047936900000000005,0.46978164,-0.10439592,18.48,-32.64,-39.72
1554882084696,-9.165004,-3.1800982999999996,2.3361422999999997,-0.029827405,0.44954160000000004,-0.10759171,18.9,-32.58,-39.6
1554882084716,-9.002198,-3.1465794999999996,2.3505075,0.036218993,0.46765109999999993,-0.058589544,19.26,-32.58,-39.48
1554882084737,-8.619126,-3.0125043,2.0536265,0.1470065,0.48469532,-0.033023197000000004,19.62,-32.58,-39.36
1554882084755,-8.623915,-2.9502552000000004,1.7280151000000001,0.24927188,0.5113269,-0.10013486,19.92,-32.58,-39.24
1554882084776,-8.834603999999999,-2.8736405,1.4790181,0.29507825,0.51771855,-0.18855181,20.1,-32.58,-39.12
1554882084796,-8.872911,-2.8113914,1.1246762,0.27803403,0.5028047999999999,-0.22370553,20.28,-32.52,-39.0
1554882084816,-9.083601,-2.9071592999999996,0.8900445,0.13528858,0.4708469,-0.23116238,20.52,-32.52,-38.82
1554882084835,-9.246407000000001,-2.9550436,0.717662,-0.047936900000000005,0.4133226,-0.22583607,20.82,-32.52,-38.58
1554882084855,-9.586383999999999,-3.0125043,1.0097545,-0.17150758,0.30253512,-0.23968449999999997,21.18,-32.52,-38.34
1554882084875,-9.356541,-3.1705215,1.2970588,-0.20133498,0.15446335,-0.27483824,21.54,-32.52,-38.04
1554882084896,-8.963891,-3.4099417,1.4263457,-0.18002969,0.09267801,-0.3057309,21.9,-32.52,-37.86
1554882084916,-8.8777,-3.769072,1.2779051000000001,-0.17257284,0.10865697,-0.36005938,22.2,-32.46,-37.74
1554882084936,-8.796297000000001,-4.329315,1.158195,-0.22477080000000002,0.07243799,-0.40906155,22.5,-32.4,-37.56
1554882084956,-8.5473,-4.1138372,1.6609775000000002,-0.2972088,0.09161274,-0.4282363,22.68,-32.22,-37.44
1554882084976,-8.465898,-3.9749733999999997,1.632247,-0.15446335,0.13528858,-0.46658584,22.8,-32.04,-37.26
1554882084995,-8.686164,-4.013280399999999,1.5508442,-0.025566347000000003,0.16192019,-0.5006742999999999,22.98,-31.74,-37.14
1554882085015,-8.647857,-4.0084919999999995,1.632247,-0.03195793,0.12996227,-0.5070659000000001,23.04,-31.26,-37.02
1554882085036,-8.647857,-4.137779,1.857302,0.04580637,0.13315806,-0.49108690000000005,23.1,-30.72,-36.96
1554882085055,-8.475474,-4.152144399999999,1.6418238,0.18322548,0.16724652,-0.46765109999999993,23.16,-30.24,-36.9
1554882085076,-8.566454,-4.2862196,1.4790181,0.330232,0.19068234,-0.51984906,23.22,-29.82,-36.78
1554882085096,-8.815451,-4.2718544000000005,1.0241197,0.5432849000000001,0.17470337,-0.59122175,23.28,-29.4,-36.66
1554882085116,-8.762777999999999,-4.0755300000000005,0.5165489999999999,0.56459016,0.13848437,-0.56245965,23.4,-29.04,-36.6
1554882085135,-8.7053175,-4.31495,0.11432313,0.24820662,0.10439592,-0.46978164,23.46,-28.8,-36.54
1554882085155,-8.6574335,-4.64535,0.12389994,-0.32490566,0.036218993,-0.4133226,23.46,-28.56,-36.54
1554882085176,-8.432379,-4.9135003,0.34895490000000007,-0.84155893,-0.051132694000000006,-0.34514567,23.46,-28.56,-36.54
1554882085196,-8.101977999999999,-5.4402246,0.54527944,-1.1025486999999998,-0.09374327,-0.29614353,23.46,-28.5,-36.54
1554882085216,-7.963114699999999,-5.555146700000001,1.0145429,-1.0908308,-0.08735169,-0.30679616,23.46,-28.44,-36.54
1554882085236,-7.996633500000001,-5.7754129999999995,1.3162124,-0.83729786,-0.06391586,-0.35579833,23.46,-28.14,-36.42
1554882085256,-8.207322999999999,-5.7849900000000005,1.1629834,-0.406931,-0.05539375,-0.40266997,23.52,-27.78,-36.3
1554882085276,-8.231264999999999,-5.6940102999999995,1.5364790000000002,0.02876214,-0.06604639400000001,-0.43782368,23.52,-27.18,-36.18
1554882085297,-8.250419,-5.507262,1.4502877,0.43462790000000007,-0.07350325,-0.41971418,23.52,-26.1,-36.0
1554882085316,-8.236053,-5.3157263,1.4359225,0.5699165,-0.056459017,-0.38136467,23.58,-25.8,-35.94
1554882085336,-8.169016000000001,-5.2008047,1.2060791000000002,0.5965481,-0.04261058,-0.31851408,23.58,-25.08,-35.82
1554882085356,-8.020576,-5.085883,0.96665895,0.4314321,-0.027696876000000002,-0.26312032,23.58,-24.42,-35.7
1554882085376,-7.987056699999999,-5.0906715,0.8230068000000001,0.21198763,-0.012783173500000002,-0.23648871,23.64,-23.82,-35.58
1554882085396,-8.030152000000001,-5.253476999999999,0.8230068000000001,-0.11504856,-0.01917476,-0.21944448,23.64,-23.58,-35.58
1554882085415,-8.087613000000001,-5.4881085999999994,0.96187055,-0.35260254,-0.051132694000000006,-0.17363810000000002,23.64,-23.46,-35.58
1554882085435,-7.9583262999999995,-5.66528,0.75118077,-0.4644553,-0.06391586,-0.1107875,23.64,-23.52,-35.58
1554882085456,-7.943961,-5.856816,0.9379284999999999,-0.52837116,-0.05539375,-0.07669904,23.64,-23.64,-35.58
1554882085477,-7.8577699999999995,-5.909488,0.98102415,-0.572047,-0.07030745599999999,-0.083090626,23.52,-23.76,-35.58
1554882085496,-7.7811556,-6.005256,1.1965023000000001,-0.5496765,-0.07456851,-0.07563378,23.52,-23.76,-35.46
1554882085516,-7.7572136,-5.966949,1.335366,-0.39947417,-0.053263225,-0.049002163,23.46,-23.52,-35.4
1554882085536,-7.785944000000001,-5.828085400000001,1.7950528000000001,-0.098004326,0.011717908999999999,-0.040480047000000005,23.4,-23.1,-35.4
1554882085556,-8.082825,-5.861604,1.3736732,0.23968449999999997,0.060720075,-0.04474111,23.28,-22.68,-35.34
1554882085575,-8.149861999999999,-5.5407815000000005,1.1007341999999998,0.35899413,0.07989483,-0.04474111,23.22,-22.26,-35.28
1554882085595,-8.173803999999999,-5.445012999999999,0.96187055,0.29188246,0.09161274,-0.03195793,23.22,-21.84,-35.22
1554882085615,-8.049306,-5.349245,0.8996213,0.112918034,0.099069595,-0.015978966,23.16,-21.48,-35.16
1554882085635,-8.006210000000001,-5.507262,1.1150993999999999,-0.03195793,0.11824436,0.022370555,23.16,-21.18,-35.1
1554882085655,-7.991845,-5.6509147,0.99060094,-0.041545313,0.15446335,0.03834952,23.16,-21.0,-35.1
1554882085676,-7.9248075,-5.5503583,0.95708215,0.018109497,0.165116,0.056459017,23.16,-20.94,-35.04
1554882085696,-7.843405000000001,-5.5168395,1.0720038,0.06711166,0.14807177,0.09267801,23.22,-21.06,-35.04
1554882085716,-7.7093296,-5.507262,1.0959458,0.101200126,0.13422333,0.12144015,23.22,-21.12,-34.98
1554882085736,-7.5704656,-5.521628,0.7368156,0.18855181,0.16192019,0.09267801,23.28,-21.18,-34.92
1554882085756,-7.905653999999999,-5.6030307,0.5835866999999999,0.21411815,0.1949434,0.054328485999999995,23.34,-21.3,-34.86
1554882085775,-8.202535000000001,-5.492897,0.6697779,0.24074976,0.21092236,0.06604639400000001,23.4,-21.42,-34.8
1554882085795,-8.1881695,-5.468955,0.54527944,0.28442562,0.18642128,0.096939065,23.46,-21.54,-34.74
1554882085816,-8.307879,-5.3971290000000005,0.57400984,0.2876214,0.165116,0.07989483,23.52,-21.66,-34.68
1554882085835,-8.513782,-5.263054,0.49739540000000004,0.24820662,0.11930962,0.083090626,23.7,-21.78,-34.62
1554882085855,-8.394072,-5.0140567,0.3824737,0.19813919,0.10865697,0.14913702,23.88,-21.96,-34.62
1554882085875,-8.1881695,-5.09546,0.3585317,0.10759171,0.098004326,0.18109496,24.0,-22.14,-34.62
1554882085896,-7.9343843,-4.875193,0.45429978,-0.03089267,0.06498113,0.15020229,24.18,-22.32,-34.68
1554882085916,-7.915230800000001,-4.8656163,0.53091425,-0.09054748,0.06604639400000001,0.11611383,24.36,-22.44,-34.74
1554882085936,-7.9822683,-5.0284224,0.5883751,-0.12570119999999999,0.07776430000000001,0.082025364,24.48,-22.62,-34.8
1554882085956,-8.255207,-5.105036699999999,0.76075757,-0.12357068,0.060720075,0.06711166,24.6,-22.86,-34.86
1554882085975,-8.192958,-5.1146135,0.85173726,-0.111852765,0.035153727999999995,0.10013486,24.72,-23.04,-34.86
1554882085995,-8.24563,-4.980538,0.85173726,-0.094808534,0.041545313,0.12144015,24.72,-23.28,-34.8
1554882086016,-8.829816000000001,-5.6269727,0.10474633,-0.12357068,0.09054748,0.13422333,24.72,-23.4,-34.74
1554882086036,-8.552089,-5.2965727,0.5931635000000001,-0.36112466,0.01917476,0.18535602,24.72,-23.58,-34.56
1554882086055,-8.130709,-5.2917843,0.83737206,-0.23009712,-0.01917476,0.19600865,24.72,-23.7,-34.38
1554882086075,-8.154651,-5.248688700000001,0.9139864999999999,0.040480047000000005,0.01917476,0.12144015,24.72,-23.82,-34.26
1554882086095,-8.403648,-4.8704047,1.062427,0.18961707,0.039414786,0.10439592,24.72,-23.88,-34.08
1554882086115,-8.418014,-4.9996915,0.6841431,0.37390783,0.03834952,0.13528858,24.72,-23.94,-34.02
1554882086135,-8.346188,-4.860828,0.12389994,0.43569317,0.012783173500000002,0.14168017,24.78,-23.94,-33.96
1554882086156,-8.303091,-4.415506400000001,0.38726214,0.33662358,0.03195793,0.17470337,24.84,-23.94,-33.96
1554882086175,-8.494628,-4.932654,-0.06284779,0.20559604,0.039414786,0.18855181,24.84,-23.94,-33.96
1554882086197,-8.379706,-4.2622776,0.47824179999999994,-0.13102753,0.002130529,0.16085494,24.96,-23.94,-33.96
1554882086215,-8.197746,-4.3676224,1.0001777,-0.12783173,0.002130529,0.101200126,25.08,-24.0,-33.96
1554882086237,-8.446744,-4.496909,0.96187055,0.09054748,0.05219796,0.013848438000000001,25.26,-24.06,-33.96
1554882086255,-8.39886,-4.156933,1.0576386,0.2545982,0.05965481,-0.02876214,25.32,-24.24,-33.9
1554882086276,-8.6095495,-4.3676224,0.49260699999999996,0.28975195,0.068176925,-0.015978966,25.44,-24.42,-33.9
1554882086296,-8.700529,-4.377199,0.5165489999999999,0.19600865,0.039414786,-0.036218993,25.5,-24.66,-33.84
1554882086316,-8.647857,-4.2718544000000005,0.39205053,0.113983296,0.0053263223,-0.068176925,25.56,-24.9,-33.9
1554882086335,-8.537724,-4.185663,0.26755205,0.034088463,-0.014913702,-0.06924219,25.62,-25.14,-33.9
1554882086355,-8.628703,-4.228758999999999,0.24361002,-0.11611383,-0.06604639400000001,-0.07776430000000001,25.62,-25.38,-33.96
1554882086376,-8.552089,-4.511274299999999,0.49260699999999996,-0.24501082,-0.11824436,-0.098004326,25.56,-25.62,-34.08
1554882086396,-8.465898,-4.587889,0.76075757,-0.24501082,-0.15339808,-0.13528858,25.56,-25.74,-34.14
1554882086416,-8.437167,-4.6405616,0.85173726,-0.17044231,-0.16405073,-0.16405073,25.56,-25.8,-34.26
1554882086435,-8.441956,-4.587889,0.7846996,-0.13422333,-0.16085494,-0.14913702,25.5,-25.8,-34.32
1554882086455,-8.240842,-4.678869000000001,0.75118077,-0.21837921,-0.15552860000000002,-0.13848437,25.5,-25.68,-34.38
1554882086475,-8.154651,-4.702811,0.9091981,-0.32384038,-0.12676647,-0.165116,25.5,-25.56,-34.44
1554882086495,-8.164227499999999,-4.8704047,1.0097545,-0.34834146,-0.096939065,-0.18961707,25.5,-25.38,-34.44
1554882086515,-8.264783999999999,-5.205593,0.8948328999999999,-0.31105720000000003,-0.08735169,-0.18322548,25.5,-25.14,-34.44
1554882086535,-8.269572,-5.263054,0.97623575,-0.23116238,-0.084155895,-0.18109496,25.44,-24.9,-34.44
1554882086556,-8.379706,-5.277419,0.98102415,-0.06711166,-0.07030745599999999,-0.18855181,25.38,-24.6,-34.44
1554882086576,-8.394072,-5.478532,0.9044097,0.09374327,-0.05965481,-0.18216023,25.38,-24.18,-34.38
1554882086595,-8.255207,-5.6940102999999995,0.9379284999999999,0.15233281,-0.04474111,-0.16405073,25.32,-23.76,-34.32
1554882086615,-8.288725999999999,-5.607819,1.1055226,0.22796659,-0.022370555,-0.1470065,25.26,-23.4,-34.26
1554882086636,-8.427589999999999,-5.4641665999999995,1.0672153999999998,0.4016047,0.020240024,-0.08628642,25.2,-23.1,-34.14
1554882086656,-8.183380999999999,-5.0236335,0.66498953,0.48043427,0.035153727999999995,-0.027696876000000002,25.14,-22.92,-34.08
1554882086676,-8.164227499999999,-4.860828,0.31064767,0.42930159999999995,0.011717908999999999,-0.024501082,25.14,-22.86,-34.08
1554882086695,-8.178593,-4.7937902999999995,0.30585927,0.33449304,-0.011717908999999999,-0.058589544,25.08,-22.92,-34.08
1554882086715,-8.274361,-4.5926776,0.52133745,0.1587244,-0.043675844000000005,-0.07989483,25.02,-22.98,-34.08
1554882086736,-8.24563,-4.7363295999999995,0.66020113,-0.056459017,-0.06391586,-0.07456851,25.02,-23.16,-34.2
1554882086756,-8.0684595,-4.745906400000001,0.83737206,-0.1438107,-0.07776430000000001,-0.08628642,25.02,-23.4,-34.26
1554882086776,-8.293514,-4.9996915,0.7942764,-0.27057716,-0.06498113,-0.094808534,24.96,-23.58,-34.32
1554882086796,-8.331821000000001,-5.2917843,0.9044097,-0.32277513,-0.10652645,-0.08735169,24.96,-23.82,-34.44
1554882086816,-8.159439,-5.310938,1.0049661,-0.25246766,-0.11930962,-0.082025364,24.9,-24.0,-34.5
1554882086835,-8.173803999999999,-5.325303,0.95229375,-0.11611383,-0.08522116,-0.07882957,24.84,-24.12,-34.62
1554882086855,-8.192958,-5.3636102999999995,0.8996213,-0.03089267,-0.07882957,-0.07456851,24.72,-24.18,-34.68
1554882086876,-8.350976,-5.248688700000001,0.741604,-0.015978966,-0.08948222,-0.049002163,24.66,-24.12,-34.74
1554882086896,-8.255207,-5.48332,0.7368156,-0.027696876000000002,-0.10759171,-0.0010652645,24.54,-24.0,-34.8
1554882086916,-7.9583262999999995,-5.191228,1.2012907,-0.10652645,-0.096939065,0.011717908999999999,24.42,-23.88,-34.86
1554882086936,-8.015787,-5.277419,1.3688848,-0.06285059999999999,-0.05539375,-0.013848438000000001,24.3,-23.76,-34.86
1554882086956,-8.135497,-5.3540335,1.3497312,0.017044231,-0.033023197000000004,-0.03089267,24.24,-23.64,-34.92
1554882086976,-8.111555000000001,-5.2678423,1.1198878,0.12676647,-0.011717908999999999,-0.0063915867,24.18,-23.52,-34.92
1554882086995,-8.087613000000001,-5.0763063,0.85652566,0.19068234,0.013848438000000001,0.011717908999999999,24.12,-23.4,-34.98
1554882087016,-8.212111,-4.918288700000001,0.8182184,0.12357068,0.007456851,-0.011717908999999999,24.06,-23.34,-34.98
1554882087036,-8.1402855,-4.8656163,0.9044097,0.035153727999999995,-0.025566347000000003,-0.03834952,24.06,-23.34,-34.98
1554882087056,-8.121132000000001,-4.894346700000001,0.82779527,-0.002130529,-0.025566347000000003,-0.05006743,24.06,-23.4,-34.92
1554882087076,-8.1881695,-4.9901147,1.0384849,-0.049002163,-0.029827405,-0.037284255,24.0,-23.46,-34.92
1554882087096,-8.159439,-5.0523643,1.2012907,-0.060720075,-0.007456851,-0.035153727999999995,24.0,-23.52,-34.98
1554882087115,-8.178593,-5.0236335,1.2683283,-0.041545313,0.00958738,-0.07882957,24.0,-23.58,-34.98
1554882087135,-8.288725999999999,-5.09546,1.1486181999999998,0.002130529,0.010652645,-0.099069595,24.0,-23.64,-35.04
1554882087156,-8.135497,-5.277419,1.0384849,0.06924219,0.0063915867,-0.07669904,24.0,-23.64,-35.04
1554882087177,-8.015787,-5.1241902999999995,0.85652566,0.13635385,0.023435817999999997,-0.051132694000000006,24.06,-23.64,-35.16
1554882087197,-8.130709,-4.9422307,0.7942764,0.12037488,0.03089267,-0.05752428,24.06,-23.64,-35.16
1554882087217,-8.145074000000001,-5.047576,0.9139864999999999,0.05752428,0.034088463,-0.06604639400000001,24.06,-23.58,-35.22
1554882087236,-8.250419,-5.148132299999999,1.0959458,0.026631612000000002,0.046871635999999994,-0.06604639400000001,24.06,-23.58,-35.22
1554882087256,-8.288725999999999,-5.1002483,1.062427,0.034088463,0.035153727999999995,-0.06178534,24.0,-23.58,-35.28
1554882087275,-8.279149,-5.1624975,0.95708215,0.02876214,0.010652645,-0.053263225,23.94,-23.58,-35.28
1554882087295,-8.078036,-5.229535,0.9091981,0.008522116,0.0031957934000000003,-0.05965481,23.88,-23.64,-35.28
1554882087315,-8.240842,-5.239112,0.9475053,-0.0010652645,0.0010652645,-0.07776430000000001,23.88,-23.64,-35.28
1554882087335,-8.130709,-5.349245,0.9427169,-0.024501082,-0.017044231,-0.068176925,23.88,-23.7,-35.22
1554882087356,-8.078036,-5.2582655,1.0815806000000001,0.013848438000000001,-0.018109497,-0.056459017,23.94,-23.82,-35.22
1554882087376,-8.149861999999999,-5.1241902999999995,0.9475053,0.07243799,-0.0053263223,-0.053263225,23.94,-23.88,-35.22
1554882087396,-8.159439,-5.0236335,1.1150993999999999,0.058589544,0.010652645,-0.051132694000000006,24.0,-23.94,-35.16
1554882087416,-8.125919999999999,-5.1529207,0.96665895,0.00958738,0.014913702,-0.053263225,24.06,-24.06,-35.16
1554882087435,-8.226477000000001,-5.325303,1.0145429,0.0010652645,0.0010652645,-0.07563378,24.12,-24.12,-35.1
1554882087456,-8.020576,-5.253476999999999,1.0480618,0.10333065,0.0010652645,-0.08628642,24.12,-24.24,-35.1
1554882087475,-8.015787,-5.157709,1.1198878,0.16192019,0.02130529,-0.06498113,24.18,-24.3,-35.04
1554882087495,-7.991845,-5.1002483,1.0049661,0.12357068,0.033023197000000004,-0.046871635999999994,24.12,-24.3,-34.92
1554882087516,-7.929596000000001,-5.1241902999999995,1.0241197,-0.004261058,0.035153727999999995,-0.05219796,24.12,-24.3,-34.92
1554882087535,-7.9391727,-5.2343235,1.0193313,-0.04474111,0.034088463,-0.053263225,24.12,-24.24,-34.86
1554882087556,-8.082825,-5.286996,0.6937199000000001,-0.083090626,0.029827405,-0.035153727999999995,24.12,-24.24,-34.86
1554882087576,-8.293514,-5.5982423,0.22924481,-0.099069595,-0.01917476,-0.00958738,24.12,-24.18,-34.86
1554882087596,-8.101977999999999,-5.133767,0.53091425,-0.20133498,-0.07456851,0.022370555,24.18,-24.12,-34.86
1554882087616,-8.09719,-5.2917843,0.8230068000000001,-0.111852765,-0.068176925,0.004261058,24.18,-24.12,-34.86
1554882087636,-8.207322999999999,-4.836886,1.0480618,0.010652645,-0.04261058,-0.04580637,24.18,-24.0,-34.86
1554882087656,-8.202535000000001,-4.851251,1.3162124,0.0031957934000000003,-0.0031957934000000003,-0.06178534,24.18,-23.88,-34.92
1554882087675,-8.336611,-5.0427876,1.335366,-0.10759171,0.025566347000000003,-0.06924219,24.24,-23.7,-34.86
1554882087696,-8.164227499999999,-5.2726307,1.1677719,-0.17789917,0.039414786,-0.07989483,24.24,-23.58,-34.86
1554882087716,-8.015787,-5.349245,0.9187749,-0.19600865,0.06604639400000001,-0.07669904,24.24,-23.46,-34.8
1554882087736,-7.943961,-5.521628,1.0097545,-0.14487597,0.082025364,-0.058589544,24.24,-23.34,-34.74
1554882087756,-7.967903,-5.6461263,0.5069722,-0.034088463,0.06285059999999999,-0.06178534,24.24,-23.22,-34.74
1554882087775,-8.0924015,-5.6221843,0.17178397,0.068176925,0.03195793,-0.053263225,24.24,-23.1,-34.68
1554882087795,-8.192958,-5.401917500000001,0.42078096,0.12144015,-0.002130529,-0.018109497,24.24,-23.04,-34.62
1554882087815,-8.327033,-5.1816510000000005,0.6697779,0.09374327,-0.034088463,0.0031957934000000003,24.3,-23.04,-34.62
1554882087835,-8.394072,-5.167286,0.7703344,0.03834952,-0.07776430000000001,-0.007456851,24.3,-23.04,-34.62
1554882087855,-8.149861999999999,-5.1529207,0.7368156,-0.012783173500000002,-0.111852765,-0.0063915867,24.3,-23.04,-34.62
1554882087876,-7.9487495,-5.0427876,1.2252326999999998,-0.002130529,-0.046871635999999994,-0.01917476,24.3,-23.04,-34.62
1554882087896,-8.240842,-5.1529207,1.1917138999999999,-0.034088463,0.017044231,-0.06391586,24.3,-23.1,-34.62
1554882087916,-8.250419,-5.3444567,0.86131406,-0.111852765,0.00958738,-0.041545313,24.3,-23.16,-34.68
1554882087935,-8.130709,-5.445012999999999,0.76554596,-0.08735169,0.0063915867,-0.012783173500000002,24.3,-23.22,-34.68
1554882087955,-8.087613000000001,-5.286996,0.7368156,0.023435817999999997,0.010652645,-0.011717908999999999,24.3,-23.28,-34.74
1554882087976,-8.202535000000001,-5.0906715,0.7224503999999999,0.12144015,0.004261058,-0.03834952,24.3,-23.28,-34.74
1554882087996,-8.149861999999999,-5.0284224,0.7032967,0.1470065,-0.03195793,-0.06604639400000001,24.3,-23.22,-34.74
1554882088015,-8.2169,-4.9996915,0.6985083000000001,0.096939065,-0.05752428,-0.07030745599999999,24.3,-23.16,-34.74
1554882088035,-8.1402855,-4.9757495,0.9091981,-0.01917476,-0.082025364,-0.046871635999999994,24.3,-23.1,-34.74
1554882088056,-8.010999,-5.191228,1.0672153999999998,-0.18429075,-0.05965481,-0.05965481,24.3,-22.98,-34.68
1554882088076,-8.0445175,-5.3875523,0.9235633,-0.20559604,-0.056459017,-0.094808534,24.36,-22.92,-34.62
1554882088096,-8.073248,-5.5503583,1.2204443,-0.15126756,-0.047936900000000005,-0.099069595,24.36,-22.86,-34.62
1554882088116,-8.125919999999999,-5.4545900000000005,1.0767921999999999,-0.002130529,-0.023435817999999997,-0.07882957,24.36,-22.74,-34.56
1554882088136,-8.049306,-5.468955,0.84694886,0.046871635999999994,-0.015978966,-0.05006743,24.36,-22.74,-34.5
1554882088156,-8.020576,-5.497685400000001,0.95229375,0.022370555,-0.012783173500000002,-0.020240024,24.36,-22.74,-34.5
1554882088175,-7.9583262999999995,-5.3779755,0.9187749,0.0031957934000000003,-0.008522116,-0.023435817999999997,24.36,-22.68,-34.5
1554882088196,-8.058883,-5.4210709999999995,0.86131406,0.015978966,-0.0031957934000000003,-0.027696876000000002,24.36,-22.62,-34.5
1554882088216,-8.034941,-5.3540335,0.75596917,0.015978966,-0.008522116,-0.036218993,24.3,-22.56,-34.56
1554882088236,-8.010999,-5.3396683,0.9379284999999999,0.047936900000000005,-0.025566347000000003,-0.03834952,24.3,-22.44,-34.56
1554882088256,-7.9822683,-5.282207499999999,0.9235633,0.13315806,-0.018109497,-0.027696876000000002,24.24,-22.38,-34.62
1554882088275,-8.015787,-5.2008047,0.8086416000000001,0.17150758,-0.01917476,-0.034088463,24.24,-22.32,-34.62
1554882088296,-8.063671000000001,-5.1146135,1.0001777,0.1438107,-0.014913702,-0.049002163,24.24,-22.32,-34.62
1554882088316,-8.1163435,-5.133767,1.0193313,0.10652645,-0.00958738,-0.07456851,24.18,-22.32,-34.62
1554882088336,-8.159439,-5.3444567,1.0384849,0.13102753,0.0,-0.09587380000000001,24.18,-22.38,-34.62
1554882088355,-7.97748,-5.593454,1.2156559,0.22477080000000002,0.023435817999999997,-0.096939065,24.18,-22.44,-34.62
1554882088376,-8.006210000000001,-5.3971290000000005,1.1486181999999998,0.3334278,0.027696876000000002,-0.111852765,24.12,-22.56,-34.62
1554882088396,-8.010999,-5.1146135,1.0049661,0.48469532,0.041545313,-0.08841695,24.12,-22.74,-34.62
1554882088415,-7.967903,-4.875193,0.87567925,0.43888897,0.03089267,-0.07137272,24.12,-23.1,-34.68
1554882088436,-8.001422,-4.9661726999999996,0.6075286999999999,0.20985709,0.0010652645,-0.07137272,24.12,-23.34,-34.68
1554882088458,-8.082825,-5.1960163,0.8182184,-0.024501082,-0.01917476,-0.082025364,24.12,-23.64,-34.74
1554882088476,-7.967903,-5.2678423,1.0911574,-0.25246766,-0.03089267,-0.07563378,24.06,-23.88,-34.8
1554882088497,-7.9391727,-5.5647235,1.1917138999999999,-0.24927188,-0.012783173500000002,-0.068176925,24.06,-24.12,-34.8
1554882088515,-8.0445175,-5.727529,1.0767921999999999,-0.17470337,-0.02130529,-0.05965481,24.0,-24.36,-34.86
1554882088535,-8.0924015,-5.737106,0.75596917,-0.094808534,-0.040480047000000005,0.0063915867,23.94,-24.54,-34.86
1554882088556,-8.0445175,-5.7754129999999995,0.66020113,-0.12144015,-0.05752428,0.082025364,23.88,-24.6,-34.92
1554882088576,-7.991845,-5.6365495,0.95229375,-0.1949434,-0.06924219,0.12144015,23.82,-24.54,-34.92
1554882088596,-7.991845,-5.430648000000001,1.2443863000000002,-0.18002969,-0.06285059999999999,0.10333065,23.82,-24.42,-34.92
1554882088616,-7.881711999999999,-5.286996,1.6418238,-0.05219796,-0.05219796,0.056459017,23.76,-24.24,-34.92
1554882088636,-7.7811556,-5.0667295,1.6274586000000002,0.15659387,-0.004261058,0.008522116,23.76,-24.06,-34.92
1554882088656,-7.915230800000001,-4.9757495,1.4359225,0.35579833,0.026631612000000002,-0.036218993,23.82,-23.82,-34.86
1554882088676,-8.121132000000001,-4.7123876,1.0672153999999998,0.42077947,0.040480047000000005,-0.053263225,23.82,-23.7,-34.86
1554882088696,-8.111555000000001,-4.7506948,0.75596917,0.2066613,0.05539375,-0.029827405,23.82,-23.52,-34.92
1554882088716,-7.963114699999999,-4.932654,0.7128736,-0.11930962,0.022370555,-0.051132694000000006,23.88,-23.4,-34.92
1554882088736,-8.006210000000001,-5.21517,0.99060094,-0.29294774,-0.007456851,-0.07563378,23.94,-23.34,-34.98
1554882088756,-8.111555000000001,-5.4210709999999995,1.1438298,-0.27696875,0.0,-0.06178534,23.94,-23.28,-34.98
1554882088776,-8.121132000000001,-5.468955,1.1055226,-0.15765914,-0.002130529,-0.049002163,24.0,-23.34,-35.04
1554882088795,-8.058883,-5.54557,1.1677719,-0.02876214,-0.025566347000000003,-0.05965481,24.0,-23.34,-35.1
1554882088815,-8.1163435,-5.5407815000000005,1.0289081,0.04261058,-0.023435817999999997,-0.05752428,24.06,-23.4,-35.16
1554882088835,-8.0445175,-5.4354362,0.99060094,0.10013486,-0.017044231,-0.023435817999999997,24.06,-23.4,-35.22
1554882088856,-8.006210000000001,-5.3779755,1.0193313,0.101200126,-0.01917476,-0.023435817999999997,24.06,-23.46,-35.22
1554882088876,-7.972691499999999,-5.521628,1.0193313,0.07776430000000001,-0.036218993,-0.043675844000000005,24.12,-23.46,-35.22
1554882088895,-8.130709,-5.4641665999999995,1.3210008,0.09587380000000001,-0.014913702,-0.053263225,24.06,-23.52,-35.22
1554882088915,-8.073248,-5.325303,1.2012907,0.13741912,-0.007456851,-0.02876214,24.06,-23.64,-35.22
1554882088936,-8.087613000000001,-5.167286,1.0576386,0.12996227,-0.007456851,0.0031957934000000003,24.06,-23.7,-35.22
1554882088957,-7.967903,-5.1768627,1.1055226,0.033023197000000004,-0.018109497,0.0031957934000000003,24.0,-23.82,-35.28
1554882088976,-7.8003089999999995,-5.224746700000001,1.2300211,-0.037284255,-0.023435817999999997,-0.026631612000000002,24.0,-23.88,-35.28
1554882088996,-7.785944000000001,-5.2678423,1.1773487,-0.04261058,-0.007456851,-0.043675844000000005,24.0,-24.0,-35.28
1554882089016,-7.9343843,-5.277419,1.2060791000000002,0.022370555,0.020240024,-0.043675844000000005,23.94,-24.06,-35.28
1554882089035,-8.130709,-5.1816510000000005,1.134253,0.07563378,0.018109497,-0.05965481,23.94,-24.18,-35.28
1554882089055,-8.154651,-5.2103815,0.7080852,0.05006743,0.0053263223,-0.049002163,23.94,-24.24,-35.34
1554882089076,-8.255207,-5.2199583,0.87089086,-0.06711166,-0.008522116,-0.037284255,23.94,-24.24,-35.34
1554882089096,-8.197746,-5.5407815000000005,1.0432734000000001,-0.112918034,-0.01917476,-0.05965481,23.88,-24.3,-35.4
1554882089116,-8.082825,-5.5982423,1.1486181999999998,-0.07350325,-0.041545313,-0.06924219,23.88,-24.36,-35.46
1554882089135,-8.130709,-5.612607499999999,0.99538934,0.002130529,-0.04474111,-0.015978966,23.82,-24.42,-35.46
1554882089155,-8.058883,-5.4641665999999995,0.9427169,0.037284255,-0.07030745599999999,0.034088463,23.82,-24.48,-35.4
1554882089175,-7.723694999999999,-5.224746700000001,0.9379284999999999,0.01917476,-0.07243799,0.040480047000000005,23.76,-24.48,-35.4
1554882089195,-7.7189064,-4.994903,1.5316905,0.0063915867,-0.010652645,-0.011717908999999999,23.7,-24.48,-35.4
1554882089216,-7.8673470000000005,-5.0092683,1.4311341,-0.002130529,0.039414786,-0.06391586,23.64,-24.54,-35.34
1554882089239,-7.996633500000001,-5.1960163,1.5029601000000001,0.015978966,0.07030745599999999,-0.10439592,23.58,-24.54,-35.22
1554882089256,-8.0445175,-5.3061495,1.1917138999999999,0.03195793,0.096939065,-0.099069595,23.58,-24.54,-35.16
1554882089278,-8.006210000000001,-5.3444567,0.84216046,0.01917476,0.10333065,-0.101200126,23.58,-24.48,-35.1
1554882089296,-8.130709,-5.631761,0.717662,-0.04474111,0.10865697,-0.096939065,23.58,-24.42,-35.04
1554882089316,-8.130709,-5.7227407,0.64583594,-0.10013486,0.05539375,-0.07030745599999999,23.58,-24.36,-35.1
1554882089336,-8.130709,-5.6030307,0.7032967,-0.035153727999999995,0.010652645,-0.03195793,23.64,-24.3,-35.1
1554882089355,-8.087613000000001,-5.3923407,0.9091981,0.05006743,-0.014913702,-0.010652645,23.76,-24.3,-35.1
1554882089375,-8.015787,-5.2965727,0.9475053,0.083090626,-0.03195793,-0.00958738,23.82,-24.24,-35.1
1554882089395,-7.953538000000001,-5.1768627,1.1150993999999999,0.058589544,-0.041545313,-0.039414786,23.94,-24.12,-35.1
1554882089416,-8.082825,-5.119402,1.2156559,0.023435817999999997,-0.035153727999999995,-0.049002163,23.94,-24.06,-35.04
1554882089436,-7.972691499999999,-5.1624975,1.0767921999999999,-0.029827405,-0.033023197000000004,-0.05006743,24.0,-24.0,-35.04
1554882089456,-7.967903,-5.286996,0.96665895,-0.112918034,-0.02876214,-0.06391586,24.0,-24.0,-34.98
1554882089476,-7.8865004,-5.282207499999999,1.0384849,-0.1470065,-0.023435817999999997,-0.060720075,24.0,-23.94,-34.98
1554882089496,-8.063671000000001,-5.4210709999999995,1.1055226,-0.11504856,-0.022370555,-0.068176925,24.0,-23.94,-34.92
1554882089515,-7.9391727,-5.5264163,1.0001777,-0.056459017,-0.02130529,-0.07669904,23.94,-23.88,-34.86
1554882089535,-7.891288799999999,-5.555146700000001,1.0384849,-0.03195793,-0.013848438000000001,-0.07243799,23.94,-23.82,-34.86
1554882089556,-8.049306,-5.430648000000001,1.2012907,-0.017044231,0.0053263223,-0.06924219,23.94,-23.82,-34.92
1554882089575,-7.9487495,-5.6461263,1.1198878,0.010652645,0.00958738,-0.06285059999999999,23.88,-23.76,-34.92
1554882089596,-7.9391727,-5.445012999999999,1.2826935,0.03834952,0.017044231,-0.040480047000000005,23.88,-23.76,-34.98
1554882089616,-7.9391727,-5.4402246,1.1007341999999998,0.080960095,0.03089267,-0.035153727999999995,23.88,-23.7,-34.98
1554882089636,-8.025364,-5.2965727,0.9044097,0.04261058,0.024501082,-0.05219796,23.88,-23.64,-34.98
1554882089656,-7.9822683,-5.4210709999999995,0.9187749,-0.015978966,0.014913702,-0.05219796,23.88,-23.64,-34.98
1554882089676,-8.034941,-5.468955,0.85173726,-0.037284255,0.010652645,-0.05539375,23.88,-23.58,-34.98
1554882089695,-7.9583262999999995,-5.3779755,0.7990648,-0.027696876000000002,0.0053263223,-0.056459017,23.88,-23.52,-34.92
1554882089716,-7.9343843,-5.3636102999999995,0.83737206,-0.034088463,-0.0053263223,-0.043675844000000005,23.88,-23.46,-34.86
1554882089735,-8.034941,-5.3875523,0.9091981,-0.06924219,-0.0053263223,-0.04580637,23.88,-23.4,-34.86
1554882089756,-7.967903,-5.4354362,0.9044097,-0.09054748,-0.015978966,-0.056459017,23.88,-23.34,-34.92
1554882089776,-7.963114699999999,-5.512050599999999,0.8996213,-0.080960095,-0.022370555,-0.06711166,23.88,-23.28,-34.98
1554882089796,-7.920019,-5.497685400000001,0.75118077,-0.04474111,-0.037284255,-0.05539375,23.88,-23.22,-35.04
1554882089816,-7.963114699999999,-5.5743003,0.9044097,-0.07243799,-0.024501082,-0.04261058,23.88,-23.1,-35.16
1554882089836,-7.9008656,-5.535993,1.1055226,-0.09267801,-0.020240024,-0.06711166,23.94,-23.04,-35.22
1554882089856,-8.015787,-5.6030307,1.2204443,-0.049002163,-0.025566347000000003,-0.07030745599999999,24.0,-22.98,-35.34
1554882089876,-7.9343843,-5.617396,1.158195,0.027696876000000002,-0.002130529,-0.06711166,24.06,-22.98,-35.4
1554882089895,-7.876923599999999,-5.54557,1.158195,0.08841695,0.0063915867,-0.07350325,24.12,-22.92,-35.4
1554882089915,-7.9343843,-5.507262,0.85652566,0.082025364,0.007456851,-0.07350325,24.18,-22.86,-35.34
1554882089935,-7.953538000000001,-5.5647235,0.6985083000000001,0.039414786,-0.0031957934000000003,-0.06391586,24.24,-22.8,-35.22
1554882089955,-7.8865004,-5.555146700000001,0.86610246,-0.01917476,-0.013848438000000001,-0.05539375,24.24,-22.74,-35.1
1554882089976,-7.881711999999999,-5.478532,0.7990648,-0.024501082,-0.013848438000000001,-0.05752428,24.24,-22.62,-34.98
1554882089996,-7.896077,-5.5695120000000005,0.96665895,-0.01917476,-0.0010652645,-0.06711166,24.24,-22.5,-34.92
1554882090015,-7.929596000000001,-5.492897,1.2060791000000002,0.0031957934000000003,0.007456851,-0.07456851,24.18,-22.44,-34.86
1554882090035,-7.9391727,-5.6030307,0.97144735,0.00958738,-0.004261058,-0.07563378,24.18,-22.32,-34.74
1554882090056,-7.881711999999999,-5.6461263,0.9139864999999999,-0.07669904,-0.00958738,-0.058589544,24.18,-22.26,-34.74
1554882090076,-7.876923599999999,-5.521628,1.1294646000000002,-0.027696876000000002,-0.022370555,-0.06178534,24.12,-22.2,-34.68
1554882090096,-7.7907324000000004,-5.579088700000001,0.87567925,0.023435817999999997,-0.014913702,-0.04580637,24.12,-22.14,-34.68
1554882090115,-7.833828,-5.502473999999999,0.87089086,-0.017044231,-0.007456851,-0.025566347000000003,24.06,-22.14,-34.74
1554882090137,-7.8673470000000005,-5.401917500000001,0.9379284999999999,-0.1587244,-0.008522116,-0.025566347000000003,23.94,-22.14,-34.8
1554882090155,-7.905653999999999,-5.5503583,1.0001777,-0.22477080000000002,-0.002130529,-0.027696876000000002,23.88,-22.2,-34.86
1554882090175,-7.915230800000001,-5.607819,0.8996213,-0.21731395,0.008522116,-0.033023197000000004,23.82,-22.2,-34.8
1554882090196,-7.833828,-5.6940102999999995,0.789488,-0.17896444,0.004261058,-0.04474111,23.76,-22.2,-34.74
1554882090215,-7.967903,-5.6748567,0.7032967,-0.14061491,0.0053263223,-0.053263225,23.76,-22.2,-34.62
1554882090235,-7.963114699999999,-5.679645,0.7703344,-0.13315806,0.0063915867,-0.03834952,23.76,-22.2,-34.56
1554882090255,-7.8146744,-5.737106,0.7080852,-0.15446335,-0.002130529,-0.023435817999999997,23.76,-22.2,-34.44
1554882090277,-7.848192999999999,-5.502473999999999,1.0049661,-0.16405073,0.002130529,-0.012783173500000002,23.76,-22.08,-34.38
1554882090296,-7.929596000000001,-5.6221843,0.76554596,-0.14807177,0.020240024,0.002130529,23.82,-21.96,-34.26
1554882090316,-7.9487495,-5.6461263,0.76554596,-0.1587244,0.022370555,0.017044231,23.82,-21.72,-34.14
1554882090336,-7.896077,-5.5982423,0.6314706999999999,-0.18642128,0.03089267,0.01917476,23.88,-21.42,-34.08
1554882090356,-7.876923599999999,-5.7418942,0.6027403,-0.24607609,0.011717908999999999,0.008522116,23.94,-21.12,-34.08
1554882090375,-7.771578999999999,-5.7658362,0.7703344,-0.21944448,0.020240024,0.015978966,23.94,-20.82,-34.08
1554882090395,-7.819463000000001,-5.7802014,0.8230068000000001,-0.06498113,0.046871635999999994,0.024501082,23.94,-20.52,-34.02
1554882090416,-7.905653999999999,-5.6940102999999995,0.6218939,0.05219796,0.06285059999999999,0.017044231,23.94,-20.28,-34.02
1554882090436,-8.015787,-5.535993,0.53570265,0.08735169,0.056459017,0.018109497,23.94,-20.04,-33.96
1554882090455,-8.020576,-5.535993,0.43514615,0.053263225,0.036218993,0.03195793,24.0,-19.8,-33.9
1554882090475,-7.9583262999999995,-5.521628,0.44472298,-0.01917476,0.011717908999999999,0.039414786,24.0,-19.68,-33.9
1554882090497,-7.97748,-5.3683987,0.4878186,-0.06178534,0.0053263223,0.039414786,24.06,-19.62,-33.9
1554882090516,-7.929596000000001,-5.5695120000000005,0.46387658,-0.058589544,-0.0031957934000000003,0.036218993,24.06,-19.62,-33.84
1554882090536,-7.881711999999999,-5.4354362,0.7703344,-0.026631612000000002,-0.0053263223,0.020240024,24.06,-19.56,-33.84
1554882090555,-7.967903,-5.3396683,0.54527944,-0.01917476,0.00958738,0.008522116,24.06,-19.56,-33.84
1554882090575,-7.972691499999999,-5.4258595000000005,0.5883751,-0.041545313,0.020240024,-0.004261058,24.06,-19.56,-33.84
1554882090596,-7.881711999999999,-5.492897,0.5931635000000001,-0.025566347000000003,0.012783173500000002,-0.023435817999999997,24.06,-19.56,-33.9
1554882090615,-7.963114699999999,-5.478532,0.65062433,-0.002130529,0.024501082,-0.011717908999999999,24.06,-19.62,-33.9
1554882090635,-7.9008656,-5.4258595000000005,0.6123171,0.0031957934000000003,0.040480047000000005,-0.024501082,24.06,-19.62,-33.9
1554882090655,-8.025364,-5.48332,0.43035775,0.033023197000000004,0.040480047000000005,-0.04580637,24.12,-19.68,-33.9
1554882090676,-8.09719,-5.4498014,0.46387658,0.07243799,0.035153727999999995,-0.05219796,24.12,-19.68,-33.9
1554882090696,-7.9822683,-5.54557,0.46866497,0.11717909,0.014913702,-0.054328485999999995,24.12,-19.62,-33.96
1554882090716,-8.001422,-5.4402246,0.3537433,0.12463594,0.00958738,-0.06711166,24.18,-19.62,-33.96
1554882090736,-8.030152000000001,-5.492897,0.3345897,0.035153727999999995,-0.0010652645,-0.053263225,24.18,-19.62,-33.9
1554882090756,-7.991845,-5.5264163,0.3345897,-0.10013486,-0.02130529,-0.025566347000000003,24.18,-19.56,-33.9
1554882090775,-7.9391727,-5.492897,0.56443304,-0.11717909,-0.040480047000000005,-0.01917476,24.18,-19.56,-33.84
1554882090795,-7.929596000000001,-5.3971290000000005,0.3776853,-0.07776430000000001,-0.036218993,-0.034088463,24.18,-19.56,-33.78
1554882090815,-8.010999,-5.3683987,0.5835866999999999,-0.06711166,-0.036218993,-0.036218993,24.18,-19.56,-33.78
1554882090836,-7.9583262999999995,-5.4881085999999994,0.6171055000000001,-0.07456851,-0.040480047000000005,-0.053263225,24.18,-19.56,-33.78
1554882090856,-7.991845,-5.612607499999999,0.6362591,-0.07456851,-0.035153727999999995,-0.05219796,24.18,-19.56,-33.72
1554882090875,-7.9583262999999995,-5.6365495,0.49739540000000004,-0.07137272,-0.023435817999999997,-0.02130529,24.18,-19.56,-33.72
1554882090896,-7.9583262999999995,-5.7849900000000005,0.30585927,-0.11824436,-0.022370555,-0.010652645,24.24,-19.56,-33.72
1554882090916,-7.8577699999999995,-5.847239,0.38726214,-0.1470065,-0.020240024,-0.011717908999999999,24.24,-19.56,-33.72
1554882090936,-7.9391727,-5.7658362,0.5931635000000001,-0.1107875,-0.0053263223,0.0053263223,24.24,-19.56,-33.72
1554882090956,-7.967903,-5.6748567,0.6075286999999999,-0.07989483,0.011717908999999999,0.03834952,24.24,-19.44,-33.72
1554882090975,-7.967903,-5.7179523,0.49260699999999996,-0.08948222,0.010652645,0.056459017,24.24,-19.32,-33.66
1554882090995,-8.078036,-5.5743003,0.55964464,-0.14487597,-0.0010652645,0.068176925,24.3,-19.2,-33.66
1554882091016,-8.106767,-5.579088700000001,0.43514615,-0.16405073,0.0031957934000000003,0.098004326,24.3,-19.08,-33.6
1554882091036,-8.164227499999999,-5.5407815000000005,0.45429978,-0.20559604,-0.0053263223,0.12037488,24.3,-18.9,-33.54
1554882091055,-8.0924015,-5.5503583,0.31543607,-0.28655612,-0.014913702,0.15446335,24.24,-18.78,-33.54
1554882091076,-8.030152000000001,-5.6269727,0.56922144,-0.2727077,0.002130529,0.18002969,24.3,-18.66,-33.6
1554882091096,-8.010999,-5.5982423,0.43035775,-0.19387813,0.012783173500000002,0.17363810000000002,24.3,-18.54,-33.6
1554882091116,-8.255207,-5.5503583,0.39205053,-0.12996227,0.03195793,0.19813919,24.3,-18.42,-33.6
1554882091136,-8.1881695,-5.282207499999999,0.10474633,-0.13209279,0.023435817999999997,0.21731395,24.3,-18.3,-33.54
1554882091156,-8.250419,-5.282207499999999,-0.05805939,-0.15765914,0.013848438000000001,0.22690132,24.3,-18.24,-33.48
1554882091175,-8.288725999999999,-5.00448,-0.21128829999999998,-0.21944448,0.0053263223,0.24820662,24.3,-18.12,-33.42
1554882091195,-8.274361,-5.0092683,-0.010175358,-0.30040458,0.0031957934000000003,0.2428803,24.36,-18.0,-33.42
1554882091216,-8.274361,-5.0332108,0.09995792,-0.33129725,-0.02876214,0.21198763,24.36,-17.94,-33.3
1554882091236,-8.24563,-5.2199583,-0.25438392,-0.3270362,-0.05539375,0.20879184,24.42,-17.82,-33.18
1554882091256,-8.202535000000001,-5.3396683,0.29628247,-0.30253512,-0.060720075,0.20453078,24.48,-17.7,-33.06
1554882091276,-8.207322999999999,-5.157709,0.3441665,-0.18961707,-0.07030745599999999,0.20240025,24.54,-17.58,-32.88
1554882091295,-8.279149,-5.373187000000001,0.28670564,-0.039414786,-0.07350325,0.19920446,24.54,-17.58,-32.82
1554882091315,-8.255207,-5.349245,0.38726214,0.17257284,-0.06711166,0.1768339,24.6,-17.46,-32.76
1554882091335,-8.384495,-5.0763063,0.55006784,0.36218992,-0.037284255,0.16405073,24.66,-17.4,-32.64
1554882091355,-8.432379,-5.0140567,0.66020113,0.45912898,-0.017044231,0.17896444,24.72,-17.34,-32.58
1554882091376,-8.250419,-5.2582655,0.717662,0.6178534000000001,0.0063915867,0.1587244,24.78,-17.28,-32.46
1554882091395,-8.317456,-5.143344,0.7272388000000001,0.8543421,0.04474111,0.11930962,24.84,-17.4,-32.46
1554882091416,-8.408437,-4.7363295999999995,0.6075286999999999,0.9917611999999999,0.10226539,0.13848437,24.9,-17.58,-32.46
1554882091436,-8.437167,-4.463390400000001,0.27712885,0.86606,0.12783173,0.17789917,24.96,-18.0,-32.46
1554882091456,-8.437167,-4.300585,0.25797522,0.59761333,0.12783173,0.1768339,25.02,-18.6,-32.52
1554882091475,-8.437167,-4.257489,0.17178397,0.41119209999999995,0.10865697,0.15552860000000002,25.08,-18.96,-32.58
1554882091496,-8.614338,-4.1282024,0.30585927,0.21944448,0.10226539,0.13528858,25.14,-20.1,-32.88
1554882091516,-8.542512,-4.204817,0.21487960000000003,0.11824436,0.084155895,0.128897,25.2,-20.82,-33.12
1554882091536,-8.51857,-4.329315,0.3345897,0.083090626,0.053263225,0.08628642,25.26,-21.54,-33.3
1554882091556,-8.6334915,-4.2718544000000005,0.31543607,0.07456851,0.03195793,0.04474111,25.32,-22.26,-33.54
1554882091576,-8.6095495,-4.156933,0.39205053,0.011717908999999999,0.02130529,0.054328485999999995,25.32,-22.86,-33.78
1554882091596,-8.614338,-4.267066000000001,0.31543607,-0.128897,0.0053263223,0.06391586,25.38,-23.22,-33.96
1554882091616,-8.614338,-4.3197384,0.41120413,-0.31105720000000003,0.0010652645,0.058589544,25.44,-23.34,-34.08
1554882091636,-8.628703,-4.549582,0.48303019999999997,-0.41758367,0.0031957934000000003,0.05752428,25.44,-23.46,-34.2
1554882091656,-8.580819,-4.6932339999999995,0.7128736,-0.37390783,0.0063915867,0.054328485999999995,25.5,-23.52,-34.2
1554882091676,-8.619126,-4.7937902999999995,0.9187749,-0.17257284,0.023435817999999997,0.036218993,25.56,-23.52,-34.14
1554882091695,-8.690952000000001,-4.7123876,0.7942764,0.04261058,0.06285059999999999,0.035153727999999995,25.62,-23.58,-34.08
1554882091715,-8.724471000000001,-4.544793599999999,0.5979519,0.13528858,0.07030745599999999,0.046871635999999994,25.62,-23.52,-34.02
1554882091735,-8.5473,-4.4681787,0.44472298,0.17150758,0.06498113,0.056459017,25.68,-23.52,-33.96
1554882091756,-8.580819,-4.401141,0.45429978,0.20453078,0.07456851,0.043675844000000005,25.74,-23.46,-33.96
1554882091776,-8.595184,-4.401141,0.4878186,0.22796659,0.08522116,0.04261058,25.86,-23.46,-33.96
1554882091795,-8.748413000000001,-4.6501384,0.15263036,0.25885928,0.05965481,0.056459017,25.98,-23.4,-33.9
1554882091816,-8.643068,-4.4442368,0.3345897,0.25992453,0.039414786,0.06285059999999999,26.1,-23.4,-33.9
1554882091836,-8.667010000000001,-4.4681787,0.54049104,0.34088463,0.049002163,0.049002163,26.22,-23.4,-33.9
1554882091856,-8.7053175,-4.2814309999999995,0.42078096,0.40053943,0.06178534,0.03089267,26.34,-23.4,-33.9
1554882091876,-8.734048,-4.152144399999999,0.40641573,0.38242993,0.083090626,0.047936900000000005,26.4,-23.46,-33.9
1554882091896,-8.791509,-4.085107,0.6218939,0.28229508,0.084155895,0.05006743,26.46,-23.58,-33.9
1554882091916,-8.714894000000001,-4.147355999999999,0.66498953,0.16618125,0.06711166,0.04261058,26.52,-23.76,-33.9
1554882091936,-8.7292595,-4.410718,0.56443304,0.11824436,0.08841695,0.043675844000000005,26.46,-24.06,-33.9
1554882091957,-8.714894000000001,-4.487332299999999,0.65062433,0.14061491,0.096939065,0.035153727999999995,26.46,-24.36,-33.9
1554882091976,-8.714894000000001,-4.401141,0.40162733,0.28336033,0.10972224,0.04474111,26.4,-24.72,-33.9
1554882091996,-8.796297000000001,-4.362833999999999,0.45429978,0.350472,0.10865697,0.060720075,26.34,-25.08,-33.9
1554882092016,-8.738836000000001,-4.0563765,0.39205053,0.34727620000000003,0.10226539,0.058589544,26.34,-25.44,-33.9
1554882092036,-8.738836000000001,-4.109049,0.53570265,0.3323625,0.09161274,0.05752428,26.4,-25.8,-33.9
1554882092056,-8.7292595,-3.9653966,0.3345897,0.31105720000000003,0.084155895,0.039414786,26.4,-26.16,-33.96
1554882092075,-8.671799,-3.7978023999999997,0.5883751,0.3206446,0.08522116,0.013848438000000001,26.46,-26.46,-33.96
1554882092096,-8.695741,-3.6062663,0.39205053,0.26418558,0.096939065,-0.0063915867,26.46,-26.7,-33.96
1554882092116,-8.825027,-3.5823242999999994,0.28670564,0.096939065,0.09587380000000001,-0.029827405,26.52,-26.82,-34.02
1554882092136,-8.805874000000001,-3.5966894999999997,0.3776853,-0.12037488,0.07669904,-0.041545313,26.52,-27.0,-34.02
1554882092156,-8.844180999999999,-4.085107,0.19572599,-0.2609898,0.039414786,-0.06178534,26.58,-27.18,-34.02
1554882092176,-8.7532015,-4.2957964,0.38726214,-0.26205507,0.024501082,-0.07989483,26.64,-27.36,-34.02
1554882092196,-8.920795,-4.43466,0.44472298,-0.13848437,0.017044231,-0.058589544,26.76,-27.48,-34.02
1554882092215,-8.834603999999999,-4.635773,0.25797522,-0.013848438000000001,0.0053263223,-0.037284255,26.88,-27.66,-33.96
1554882092235,-8.762777999999999,-4.3819875999999995,0.45429978,0.047936900000000005,-0.002130529,-0.041545313,26.94,-27.72,-33.96
1554882092256,-8.767567,-4.233547,0.41599256,0.080960095,-0.01917476,-0.033023197000000004,27.06,-27.84,-33.9
1554882092276,-8.724471000000001,-4.1904516,0.45908818,0.06285059999999999,-0.011717908999999999,-0.02130529,27.12,-27.9,-33.84
1554882092295,-8.825027,-4.209605000000001,0.49739540000000004,0.024501082,0.004261058,-0.02876214,27.24,-27.96,-33.78
1554882092315,-8.710106,-4.2622776,0.6075286999999999,0.013848438000000001,-0.007456851,-0.027696876000000002,27.3,-27.96,-33.72
1554882092335,-8.7532015,-4.209605000000001,0.55006784,0.07030745599999999,-0.002130529,-0.025566347000000003,27.3,-28.02,-33.66
1554882092357,-8.7532015,-4.1329910000000005,0.41599256,0.11504856,0.010652645,-0.011717908999999999,27.3,-28.02,-33.66
1554882092376,-8.63828,-4.0372224,0.44951138,0.07563378,0.017044231,-0.004261058,27.24,-28.02,-33.66
1554882092396,-8.690952000000001,-4.1665095999999995,0.31064767,0.018109497,0.00958738,0.0063915867,27.24,-28.02,-33.6
1554882092416,-8.844180999999999,-4.1904516,0.34895490000000007,0.0010652645,0.024501082,0.004261058,27.24,-28.02,-33.6
1554882092436,-8.820239,-4.3101616,0.31543607,0.033023197000000004,0.012783173500000002,-0.0031957934000000003,27.24,-28.02,-33.6
1554882092456,-8.820239,-4.032433999999999,0.5165489999999999,0.06498113,0.011717908999999999,0.007456851,27.24,-28.02,-33.6
1554882092476,-8.748413000000001,-4.085107,0.49739540000000004,0.06711166,0.011717908999999999,0.0053263223,27.18,-28.02,-33.6
1554882092496,-8.738836000000001,-4.0084919999999995,0.46387658,0.035153727999999995,0.013848438000000001,-0.010652645,27.18,-28.08,-33.54
1554882092516,-8.858546,-4.2622776,0.46866497,0.053263225,0.026631612000000002,-0.017044231,27.18,-28.32,-33.54
1554882092536,-8.75799,-4.247912400000001,0.7942764,0.10226539,0.033023197000000004,-0.033023197000000004,27.18,-28.56,-33.54
1554882092556,-8.786719999999999,-4.252701,0.5931635000000001,0.2034655,0.054328485999999995,-0.04474111,27.18,-28.74,-33.54
1554882092575,-8.896853,-4.1665095999999995,0.46866497,0.18216023,0.060720075,-0.011717908999999999,27.24,-28.98,-33.54
1554882092596,-8.815451,-4.1665095999999995,0.5021838,0.16298546,0.049002163,-0.0053263223,27.24,-29.16,-33.54
1554882092616,-8.714894000000001,-4.123414,0.56443304,0.15978967,0.04580637,-0.01917476,27.24,-29.34,-33.54
1554882092635,-8.767567,-4.061165,0.56922144,0.18961707,0.04261058,-0.036218993,27.24,-29.52,-33.6
1554882092655,-8.810661999999999,-3.9031472000000003,0.47824179999999994,0.24074976,0.033023197000000004,-0.027696876000000002,27.3,-29.58,-33.6
1554882092676,-8.695741,-3.6541502,0.12389994,0.26738137,0.013848438000000001,-0.013848438000000001,27.3,-29.52,-33.66
1554882092696,-8.863335000000001,-3.8073792,0.29149407,0.1438107,0.017044231,-0.020240024,27.24,-29.46,-33.66
1554882092716,-8.887277000000001,-3.9079356,0.24839842,-0.05006743,-0.023435817999999997,-0.035153727999999995,27.24,-29.46,-33.72
1554882092736,-8.781932000000001,-4.022857,0.46866497,-0.16937704,-0.04474111,-0.02130529,27.18,-29.4,-33.72
1554882092756,-8.7532015,-4.204817,0.55006784,-0.20879184,-0.036218993,-0.011717908999999999,27.18,-29.46,-33.78
1554882092775,-8.872911,-4.3197384,0.5835866999999999,-0.19813919,-0.03089267,-0.017044231,27.18,-29.52,-33.78
1554882092795,-8.7292595,-4.4538136,0.5931635000000001,-0.14274544,-0.040480047000000005,-0.01917476,27.18,-29.52,-33.78
1554882092816,-8.781932000000001,-4.252701,0.6937199000000001,-0.010652645,-0.037284255,-0.022370555,27.18,-29.58,-33.78
1554882092836,-8.628703,-4.0420110000000005,0.66020113,0.13528858,-0.013848438000000001,-0.01917476,27.18,-29.64,-33.78
1554882092855,-8.6574335,-3.8504747999999998,0.8900445,0.23009712,0.014913702,-0.04474111,27.18,-29.7,-33.78
1554882092876,-8.63828,-3.6302083,0.64583594,0.2727077,0.03195793,-0.09267801,27.24,-29.7,-33.78
1554882092896,-8.7771435,-3.7547068999999995,0.53570265,0.22903186,0.04474111,-0.12570119999999999,27.3,-29.76,-33.72
1554882092916,-8.6574335,-3.8361096,0.5069722,0.15020229,0.024501082,-0.165116,27.3,-29.76,-33.72
1554882092936,-8.6095495,-3.7786489000000003,0.7032967,0.14061491,0.053263225,-0.21198763,27.3,-29.82,-33.72
1554882092955,-8.738836000000001,-3.8839936,0.49260699999999996,0.10759171,0.056459017,-0.26312032,27.36,-29.82,-33.66
1554882092975,-8.925583999999999,-4.065953299999999,0.55485624,0.035153727999999995,0.051132694000000006,-0.26205507,27.42,-29.88,-33.66
1554882092995,-8.8777,-4.329315,0.5979519,0.04474111,0.008522116,-0.26631612,27.48,-29.88,-33.6
1554882093015,-8.781932000000001,-4.353257,0.42078096,0.11824436,0.004261058,-0.27590349999999997,27.6,-29.94,-33.6
1554882093035,-8.820239,-4.3436804,0.25797522,0.14168017,0.011717908999999999,-0.24501082,27.66,-30.0,-33.6
1554882093056,-8.700529,-4.2622776,0.3393781,0.10226539,-0.004261058,-0.2130529,27.72,-30.0,-33.66
1554882093075,-8.556877,-4.228758999999999,0.3393781,0.06711166,-0.02876214,-0.22050974,27.78,-30.06,-33.66
1554882093095,-8.48984,-4.065953299999999,0.15263036,-0.010652645,-0.023435817999999997,-0.24607609,27.84,-30.06,-33.72
1554882093116,-8.523358,-3.9510313999999997,0.09995792,-0.18002969,-0.02130529,-0.25566345,27.9,-30.06,-33.72
1554882093136,-8.537724,-4.085107,0.032920275,-0.4878911,-0.043675844000000005,-0.27377295,27.96,-30.06,-33.84
1554882093156,-8.451532,-4.463390400000001,0.11432313,-0.6295713000000001,-0.06178534,-0.30040458,27.96,-30.0,-33.84
1554882093175,-8.504205,-4.717176,0.38726214,-0.7137272,-0.084155895,-0.33662358,27.9,-29.58,-33.9
1554882093195,-8.51857,-4.7698483,0.42078096,-0.700944,-0.09374327,-0.33662358,27.9,-29.34,-33.9
1554882093216,-8.513782,-5.263054,0.6171055000000001,-0.5400891,-0.10759171,-0.3057309,27.78,-28.56,-33.84
1554882093236,-8.475474,-5.2678423,0.57400984,-0.33768883,-0.13315806,-0.294013,27.72,-28.02,-33.66
1554882093256,-8.422802,-5.263054,0.4878186,-0.14487597,-0.11717909,-0.26418558,27.66,-27.3,-33.54
1554882093276,-8.365341,-5.3205147,0.46387658,-0.010652645,-0.09374327,-0.23861924,27.54,-26.7,-33.36
1554882093296,-8.240842,-5.430648000000001,0.6075286999999999,0.07882957,-0.08522116,-0.22903186,27.48,-26.1,-33.18
1554882093316,-8.173803999999999,-5.349245,0.9235633,0.14913702,-0.058589544,-0.23222765,27.42,-25.5,-33.06
1554882093336,-8.1881695,-5.497685400000001,0.7942764,0.31638354,-0.035153727999999995,-0.24181503,27.36,-25.2,-32.88
1554882093356,-8.336611,-5.172074299999999,0.55485624,0.42077947,-0.02130529,-0.23116238,27.3,-24.96,-32.82
1554882093376,-8.202535000000001,-4.827309,0.5021838,0.54648066,-0.0053263223,-0.21944448,27.24,-24.84,-32.82
1554882093395,-8.441956,-5.1002483,-0.21128829999999998,0.5294364,0.0,-0.15978967,27.24,-24.72,-32.94
1554882093416,-8.279149,-4.947019,0.23882163,0.113983296,-0.024501082,-0.07137272,27.24,-24.78,-33.18
1554882093436,-8.1163435,-5.047576,0.56922144,-0.17150758,-0.09161274,-0.09374327,27.18,-24.78,-33.36
1554882093455,-8.154651,-5.119402,0.6027403,-0.17789917,-0.11717909,-0.15765914,27.18,-24.78,-33.6
1554882093475,-8.197746,-5.119402,0.66498953,-0.06711166,-0.084155895,-0.13954964,27.12,-24.84,-33.78
1554882093496,-8.106767,-5.1385555,0.6171055000000001,0.07776430000000001,-0.07243799,-0.11824436,27.06,-24.84,-33.96
1554882093515,-8.154651,-5.172074299999999,0.6314706999999999,0.08841695,-0.053263225,-0.12676647,27.0,-24.84,-34.08
1554882093535,-8.1402855,-5.2726307,0.741604,-0.053263225,-0.054328485999999995,-0.12783173,26.94,-24.9,-34.2
1554882093556,-8.082825,-5.4545900000000005,0.75596917,-0.083090626,-0.04474111,-0.10652645,26.88,-24.9,-34.26
1554882093576,-8.149861999999999,-5.6748567,0.8038531999999999,-0.053263225,-0.01917476,-0.08948222,26.76,-24.96,-34.26
1554882093596,-8.274361,-5.5264163,0.84694886,0.03089267,-0.012783173500000002,-0.07243799,26.64,-24.96,-34.26
1554882093616,-8.207322999999999,-5.612607499999999,0.83737206,0.18429075,0.004261058,-0.047936900000000005,26.52,-24.96,-34.26
1554882093636,-8.159439,-5.4881085999999994,0.75596917,0.32810146,0.01917476,-0.036218993,26.4,-25.02,-34.2
1554882093655,-8.197746,-5.224746700000001,0.75118077,0.40906155,0.029827405,-0.007456851,26.28,-25.08,-34.14
1554882093675,-8.130709,-5.0523643,0.7368156,0.41758367,0.015978966,0.0053263223,26.22,-25.14,-34.08
1554882093695,-8.0924015,-4.827309,0.5979519,0.350472,0.0053263223,-0.018109497,26.1,-25.2,-34.02
1554882093716,-8.178593,-4.7985787,0.7942764,0.25672874,-0.011717908999999999,-0.04474111,26.04,-25.32,-33.96
1554882093736,-8.125919999999999,-4.7123876,0.6841431,0.16085494,-0.020240024,-0.06285059999999999,26.04,-25.44,-33.9
1554882093756,-8.058883,-4.875193,0.66020113,0.084155895,-0.018109497,-0.083090626,26.04,-25.56,-33.84
1554882093776,-8.121132000000001,-4.8799815,0.75118077,0.02876214,-0.010652645,-0.09374327,26.1,-25.68,-33.84
1554882093796,-8.130709,-5.0332108,0.7032967,-0.04474111,-0.020240024,-0.09374327,26.16,-25.86,-33.84
1554882093815,-8.2169,-5.1624975,0.66498953,-0.13209279,-0.040480047000000005,-0.096939065,26.16,-25.98,-33.84
1554882093835,-8.073248,-5.3396683,0.7751228,-0.17576863,-0.05965481,-0.10546118,26.22,-26.16,-33.9
1554882093855,-8.063671000000001,-5.277419,0.8182184,-0.16085494,-0.051132694000000006,-0.08735169,26.28,-26.28,-33.9
1554882093876,-8.0445175,-5.3683987,0.95708215,-0.11611383,-0.033023197000000004,-0.06711166,26.34,-26.34,-33.9
1554882093896,-8.082825,-5.382764,0.9475053,-0.04474111,-0.03834952,-0.083090626,26.34,-26.4,-33.9
1554882093916,-8.058883,-5.4593782,0.96187055,0.03089267,-0.029827405,-0.08735169,26.34,-26.34,-33.9
1554882093935,-8.063671000000001,-5.382764,1.0001777,0.05752428,-0.004261058,-0.06285059999999999,26.34,-26.34,-33.9
1554882093955,-8.058883,-5.2103815,0.88046765,0.026631612000000002,0.010652645,-0.05219796,26.28,-26.28,-33.9
1554882093976,-8.073248,-5.310938,0.7224503999999999,-0.024501082,0.012783173500000002,-0.07456851,26.22,-26.16,-33.9
1554882093996,-8.106767,-5.263054,0.8038531999999999,-0.02876214,0.018109497,-0.07669904,26.22,-26.04,-33.9
1554882094016,-8.240842,-5.445012999999999,0.76075757,-0.022370555,0.022370555,-0.053263225,26.16,-25.98,-33.9
1554882094036,-8.063671000000001,-5.401917500000001,0.789488,0.0031957934000000003,-0.0063915867,-0.047936900000000005,26.16,-25.98,-33.9
1554882094055,-8.106767,-5.282207499999999,0.7751228,0.09374327,0.0031957934000000003,-0.049002163,26.1,-25.86,-33.9
1554882094075,-8.020576,-5.205593,0.6410475,0.07563378,0.0,-0.039414786,26.1,-25.86,-33.9
1554882094096,-8.010999,-5.253476999999999,0.84694886,0.040480047000000005,-0.013848438000000001,-0.05219796,26.1,-25.86,-33.9
1554882094116,-8.030152000000001,-5.1529207,0.717662,0.04474111,-0.017044231,-0.06391586,26.1,-25.86,-33.9
1554882094136,-8.0924015,-5.229535,0.8038531999999999,0.036218993,-0.008522116,-0.06178534,26.04,-25.86,-33.9
1554882094156,-8.025364,-5.248688700000001,0.9044097,0.004261058,-0.01917476,-0.07563378,26.04,-25.86,-33.9
1554882094176,-8.125919999999999,-5.229535,0.9187749,-0.03834952,-0.013848438000000001,-0.07563378,26.04,-25.86,-33.96
1554882094196,-8.025364,-5.4354362,0.7080852,-0.07030745599999999,-0.011717908999999999,-0.05965481,26.04,-25.86,-33.96
1554882094216,-8.164227499999999,-5.492897,0.74639237,-0.07456851,-0.017044231,-0.05965481,25.98,-25.86,-33.96
1554882094235,-8.145074000000001,-5.4402246,0.7751228,-0.05006743,-0.020240024,-0.060720075,25.92,-25.86,-33.96
1554882094255,-7.97748,-5.4402246,0.789488,-0.026631612000000002,-0.026631612000000002,-0.058589544,25.86,-25.86,-33.96
1554882094275,-8.006210000000001,-5.5264163,0.65062433,0.0010652645,-0.033023197000000004,-0.06285059999999999,25.8,-25.86,-33.96
1554882094295,-8.039729,-5.468955,0.75118077,0.023435817999999997,-0.023435817999999997,-0.056459017,25.74,-25.86,-33.96
1554882094315,-8.006210000000001,-5.445012999999999,0.7942764,0.02130529,-0.026631612000000002,-0.04474111,25.68,-25.86,-34.02
1554882094335,-7.972691499999999,-5.382764,0.76075757,0.007456851,-0.03195793,-0.051132694000000006,25.68,-25.86,-34.08
1554882094355,-7.97748,-5.3683987,0.6841431,0.00958738,-0.03089267,-0.049002163,25.62,-25.86,-34.08
1554882094376,-8.020576,-5.401917500000001,0.9091981,-0.010652645,-0.02876214,-0.037284255,25.68,-25.8,-34.14
1554882094396,-8.010999,-5.277419,0.86610246,-0.020240024,-0.023435817999999997,-0.041545313,25.68,-25.8,-34.2
1554882094416,-8.073248,-5.3683987,0.81343,-0.018109497,-0.022370555,-0.04580637,25.74,-25.8,-34.2
1554882094435,-8.006210000000001,-5.48332,0.96187055,-0.012783173500000002,-0.025566347000000003,-0.053263225,25.74,-25.8,-34.26
1554882094455,-8.078036,-5.430648000000001,0.7942764,0.0,-0.012783173500000002,-0.04580637,25.8,-25.74,-34.32
1554882094475,-8.020576,-5.4210709999999995,0.86131406,0.0010652645,0.0010652645,-0.037284255,25.8,-25.68,-34.32
1554882094496,-8.030152000000001,-5.507262,0.9379284999999999,-0.0010652645,-0.008522116,-0.03834952,25.86,-25.62,-34.26
1554882094516,-7.905653999999999,-5.445012999999999,0.7224503999999999,0.013848438000000001,-0.014913702,-0.03195793,25.86,-25.5,-34.26
1554882094536,-8.058883,-5.3779755,0.717662,0.03089267,-0.004261058,-0.029827405,25.86,-25.44,-34.2
1554882094556,-8.015787,-5.263054,0.7751228,0.035153727999999995,-0.008522116,-0.037284255,25.92,-25.32,-34.14
1554882094576,-7.972691499999999,-5.3444567,0.789488,0.024501082,-0.00958738,-0.04261058,25.98,-25.2,-34.14
1554882094596,-7.97748,-5.3779755,0.87567925,0.004261058,-0.010652645,-0.043675844000000005,25.98,-25.08,-34.08
1554882094616,-7.9822683,-5.406706,0.86610246,-0.0010652645,-0.0053263223,-0.036218993,26.1,-25.02,-34.08
1554882094636,-7.953538000000001,-5.3971290000000005,0.76554596,-0.00958738,0.0,-0.03195793,26.16,-24.96,-34.08
1554882094655,-7.953538000000001,-5.4210709999999995,0.83737206,0.0063915867,-0.004261058,-0.04261058,26.22,-24.96,-34.08
1554882094675,-8.001422,-5.559935,0.8038531999999999,0.024501082,-0.0031957934000000003,-0.043675844000000005,26.28,-25.02,-34.08
1554882094695,-8.087613000000001,-5.3779755,0.84694886,0.02876214,-0.004261058,-0.03195793,26.34,-25.02,-34.08
1554882094715,-8.049306,-5.4258595000000005,0.9187749,0.011717908999999999,-0.02130529,-0.029827405,26.4,-25.08,-34.08
1554882094735,-8.010999,-5.5407815000000005,0.75118077,0.027696876000000002,-0.025566347000000003,-0.033023197000000004,26.4,-25.14,-34.08
1554882094756,-8.025364,-5.521628,0.96187055,0.037284255,-0.01917476,-0.027696876000000002,26.4,-25.2,-34.08
1554882094775,-8.058883,-5.310938,0.8996213,0.056459017,-0.007456851,-0.02876214,26.34,-25.2,-34.08
1554882094795,-8.001422,-5.33488,0.9187749,0.07563378,0.004261058,-0.036218993,26.28,-25.26,-34.08
1554882094816,-8.015787,-5.2917843,0.9475053,0.046871635999999994,0.012783173500000002,-0.03089267,26.22,-25.26,-34.08
1554882094836,-7.9822683,-5.512050599999999,0.87089086,-0.014913702,0.024501082,-0.02130529,26.1,-25.32,-34.08
1554882094856,-8.087613000000001,-5.555146700000001,0.87567925,-0.01917476,0.014913702,-0.020240024,26.04,-25.38,-34.08
1554882094876,-8.006210000000001,-5.4498014,0.6841431,0.004261058,0.008522116,-0.0031957934000000003,25.98,-25.44,-34.08
1554882094896,-8.0684595,-5.593454,0.66498953,0.014913702,0.004261058,0.025566347000000003,25.98,-25.5,-34.08
1554882094915,-7.953538000000001,-5.3971290000000005,0.54049104,-0.05219796,-0.01917476,0.04580637,25.98,-25.5,-34.08
1554882094935,-7.905653999999999,-5.4258595000000005,0.717662,-0.099069595,-0.015978966,0.07137272,26.04,-25.56,-34.08
1554882094956,-8.039729,-5.349245,0.84694886,-0.10333065,0.007456851,0.04580637,26.1,-25.62,-34.02
1554882094976,-7.987056699999999,-5.3779755,1.1246762,-0.07137272,0.002130529,0.00958738,26.16,-25.62,-34.02
1554882094995,-8.078036,-5.4881085999999994,0.95229375,-0.0031957934000000003,0.0031957934000000003,0.007456851,26.22,-25.56,-34.02
1554882095015,-7.9343843,-5.3636102999999995,0.87089086,0.060720075,0.0053263223,-0.007456851,26.28,-25.5,-34.02
1554882095035,-8.001422,-5.1624975,0.6889314999999999,0.10652645,0.023435817999999997,-0.03195793,26.28,-25.44,-34.02
1554882095055,-8.0445175,-5.2917843,0.5835866999999999,0.10759171,0.034088463,-0.02876214,26.28,-25.38,-34.02
1554882095076,-8.082825,-5.1385555,0.66498953,0.025566347000000003,0.004261058,-0.014913702,26.22,-25.32,-34.08
1554882095095,-8.169016000000001,-5.143344,0.66498953,-0.007456851,-0.017044231,-0.01917476,26.22,-25.26,-34.08
1554882095115,-7.991845,-5.1816510000000005,0.7942764,-0.027696876000000002,-0.022370555,-0.018109497,26.16,-25.2,-34.08
1554882095135,-7.991845,-5.2343235,1.0528502,-0.035153727999999995,-0.025566347000000003,-0.027696876000000002,26.16,-25.2,-34.08
1554882095156,-8.039729,-5.4210709999999995,0.86610246,-0.02130529,-0.02130529,-0.041545313,26.04,-25.2,-34.08
1554882095176,-7.9583262999999995,-5.4402246,0.7942764,-0.010652645,-0.01917476,-0.035153727999999995,26.04,-25.26,-34.14
1554882095195,-8.006210000000001,-5.430648000000001,0.9044097,0.015978966,-0.017044231,-0.029827405,25.98,-25.32,-34.08
1554882095216,-7.963114699999999,-5.3540335,0.7272388000000001,0.024501082,-0.018109497,-0.03834952,25.98,-25.32,-34.14
1554882095236,-8.039729,-5.4402246,0.76554596,0.033023197000000004,-0.010652645,-0.036218993,25.98,-25.38,-34.14
1554882095256,-8.034941,-5.3396683,1.0911574,0.056459017,-0.007456851,-0.03089267,25.98,-25.38,-34.14
1554882095275,-8.049306,-5.33488,0.88046765,0.07563378,0.0031957934000000003,-0.01917476,25.98,-25.5,-34.14
1554882095295,-8.039729,-5.445012999999999,0.83737206,0.07456851,0.010652645,-0.017044231,26.1,-25.56,-34.14
1554882095315,-8.020576,-5.4498014,0.83737206,0.07030745599999999,-0.004261058,-0.015978966,26.16,-25.62,-34.14
1554882095335,-8.0445175,-5.349245,0.66498953,0.056459017,-0.01917476,0.002130529,26.22,-25.62,-34.14
1554882095355,-8.020576,-5.224746700000001,0.99060094,0.041545313,-0.002130529,0.004261058,26.22,-25.68,-34.14
1554882095377,-7.991845,-5.2965727,1.0815806000000001,0.08522116,0.0063915867,-0.035153727999999995,26.28,-25.74,-34.2
1554882095396,-8.087613000000001,-5.2343235,1.0145429,0.13315806,0.02876214,-0.05006743,26.28,-25.74,-34.2
1554882095416,-8.159439,-5.263054,0.7224503999999999,0.11717909,0.02130529,-0.03195793,26.28,-25.8,-34.2
1554882095436,-8.049306,-5.2582655,0.55006784,0.03834952,-0.002130529,-0.02130529,26.28,-25.8,-34.2
1554882095456,-7.972691499999999,-5.3923407,0.789488,-0.051132694000000006,-0.011717908999999999,-0.03089267,26.28,-25.86,-34.2
1554882095476,-8.159439,-5.3923407,0.95708215,-0.07776430000000001,-0.022370555,-0.02876214,26.28,-25.86,-34.2
1554882095496,-8.0684595,-5.3157263,1.0001777,-0.04474111,-0.027696876000000002,-0.014913702,26.28,-25.92,-34.2
1554882095516,-8.063671000000001,-5.349245,0.9044097,-0.002130529,-0.025566347000000003,-0.020240024,26.28,-25.98,-34.2
1554882095536,-8.058883,-5.3444567,1.0097545,0.034088463,-0.014913702,-0.035153727999999995,26.28,-26.04,-34.2
1554882095556,-8.0445175,-5.4354362,0.9283517,0.054328485999999995,-0.0053263223,-0.024501082,26.28,-26.16,-34.2
1554882095576,-7.996633500000001,-5.4210709999999995,0.98102415,0.05219796,-0.011717908999999999,-0.017044231,26.28,-26.22,-34.2
1554882095596,-8.030152000000001,-5.325303,0.98102415,0.04474111,0.004261058,-0.020240024,26.28,-26.22,-34.2
1554882095616,-8.073248,-5.239112,1.1677719,0.05006743,0.02130529,-0.020240024,26.34,-26.28,-34.2
1554882095636,-8.149861999999999,-5.4258595000000005,0.85173726,0.07669904,0.004261058,-0.023435817999999997,26.34,-26.34,-34.2
1554882095655,-8.063671000000001,-5.2199583,0.7846996,0.07243799,-0.007456851,-0.011717908999999999,26.34,-26.34,-34.2
1554882095675,-8.125919999999999,-5.21517,0.55006784,0.06924219,-0.0053263223,0.0,26.34,-26.28,-34.2
1554882095696,-8.169016000000001,-5.21517,0.8038531999999999,0.03089267,-0.01917476,-0.012783173500000002,26.34,-26.28,-34.2
1554882095716,-8.039729,-5.1385555,0.88046765,-0.027696876000000002,-0.03195793,-0.022370555,26.34,-26.28,-34.2
1554882095735,-8.073248,-5.1385555,0.99060094,-0.068176925,-0.026631612000000002,-0.034088463,26.28,-26.28,-34.14
1554882095755,-8.063671000000001,-5.2917843,0.8086416000000001,-0.094808534,-0.024501082,-0.03195793,26.16,-26.4,-34.14
1554882095775,-8.034941,-5.4641665999999995,0.87567925,-0.08841695,-0.033023197000000004,-0.027696876000000002,26.04,-26.46,-34.14
1554882095797,-8.020576,-5.4258595000000005,0.95708215,-0.024501082,-0.023435817999999997,-0.025566347000000003,25.86,-26.58,-34.08
1554882095815,-8.049306,-5.430648000000001,0.99060094,0.039414786,-0.014913702,-0.023435817999999997,25.74,-26.64,-34.14
1554882095836,-8.197746,-5.401917500000001,0.8182184,0.05965481,-0.01917476,-0.020240024,25.56,-26.76,-34.2
1554882095856,-8.145074000000001,-5.3157263,0.57400984,0.029827405,-0.053263225,-0.002130529,25.44,-26.82,-34.26
1554882095876,-8.039729,-5.1624975,1.0384849,-0.010652645,-0.056459017,-0.0010652645,25.32,-26.82,-34.32
1554882095896,-8.030152000000001,-5.2965727,1.2443863000000002,0.06924219,-0.024501082,-0.054328485999999995,25.26,-26.88,-34.38
1554882095916,-8.192958,-5.2678423,1.2826935,0.19600865,-0.018109497,-0.08948222,25.2,-26.88,-34.44
1554882095936,-8.130709,-5.239112,0.9187749,0.24501082,0.0010652645,-0.043675844000000005,25.26,-26.76,-34.5
1554882095956,-7.987056699999999,-5.191228,1.0049661,0.18748654,0.020240024,-0.015978966,25.32,-26.76,-34.5
1554882095976,-7.848192999999999,-5.1385555,0.9475053,0.051132694000000006,0.02876214,-0.018109497,25.38,-26.7,-34.56
1554882095996,-7.953538000000001,-5.253476999999999,0.6937199000000001,-0.09161274,0.025566347000000003,-0.013848438000000001,25.44,-26.64,-34.56
1554882096015,-8.0924015,-5.263054,0.717662,-0.1107875,0.017044231,-0.013848438000000001,25.5,-26.76,-34.56
1554882096036,-8.159439,-5.2008047,0.56443304,-0.07243799,-0.02876214,-0.043675844000000005,25.5,-26.82,-34.62
1554882096055,-8.106767,-5.1146135,0.741604,-0.14168017,-0.054328485999999995,-0.05006743,25.56,-26.88,-34.68
1554882096076,-8.106767,-5.3300915,1.0767921999999999,-0.23648871,-0.06711166,-0.049002163,25.56,-26.88,-34.68
1554882096096,-7.9391727,-5.4402246,1.3066356000000001,-0.28975195,-0.07137272,-0.033023197000000004,25.62,-26.94,-34.74
1554882096116,-7.97748,-5.497685400000001,1.1677719,-0.28122982,-0.04474111,-0.029827405,25.62,-27.0,-34.74
1554882096136,-8.025364,-5.5982423,1.2826935,-0.221575,-0.022370555,-0.03089267,25.62,-27.06,-34.74
1554882096155,-8.058883,-5.655703,1.2731166999999999,-0.101200126,0.004261058,-0.00958738,25.68,-27.0,-34.74
1554882096175,-7.9248075,-5.5647235,1.110311,0.060720075,0.029827405,0.015978966,25.74,-26.82,-34.68
1554882096196,-8.09719,-5.5503583,0.8086416000000001,0.17896444,0.051132694000000006,0.023435817999999997,25.74,-26.64,-34.62
1554882096216,-8.130709,-5.4881085999999994,0.83737206,0.1949434,0.04580637,0.022370555,25.8,-26.46,-34.62
1554882096235,-8.130709,-5.3444567,0.789488,0.17150758,0.040480047000000005,0.024501082,25.86,-26.34,-34.56
1554882096256,-8.202535000000001,-5.3205147,0.83737206,0.16085494,0.033023197000000004,0.03089267,25.86,-26.16,-34.56
1554882096276,-8.149861999999999,-5.157709,0.56443304,0.128897,0.011717908999999999,0.05219796,25.92,-26.04,-34.56
1554882096296,-8.0684595,-5.1768627,0.5883751,0.05219796,-0.0053263223,0.07669904,25.92,-25.98,-34.5
1554882096316,-7.9822683,-5.1002483,1.1007341999999998,0.04474111,0.010652645,0.03834952,25.92,-25.92,-34.5
1554882096336,-8.049306,-5.133767,1.0145429,0.13209279,0.01917476,-0.025566347000000003,25.92,-25.98,-34.44
1554882096355,-8.149861999999999,-4.894346700000001,0.8996213,0.16831179,0.041545313,0.0,25.92,-26.04,-34.38
1554882096376,-8.135497,-4.908712,0.83737206,0.08735169,0.054328485999999995,0.022370555,25.86,-26.04,-34.38
1554882096395,-8.255207,-5.037999,0.9379284999999999,-0.07989483,0.029827405,-0.0063915867,25.86,-26.1,-34.32
1554882096416,-8.178593,-5.401917500000001,0.64583594,-0.15765914,0.0,-0.025566347000000003,25.86,-26.16,-34.32
1554882096436,-8.125919999999999,-5.3540335,0.7751228,-0.080960095,-0.01917476,-0.004261058,25.86,-26.22,-34.2
1554882096456,-8.255207,-5.3540335,0.87089086,0.046871635999999994,-0.004261058,0.025566347000000003,25.86,-26.34,-34.2
1554882096476,-8.255207,-5.167286,0.76554596,0.06285059999999999,-0.027696876000000002,0.013848438000000001,25.92,-26.46,-34.14
1554882096495,-8.183380999999999,-5.061941,0.8230068000000001,-0.011717908999999999,-0.043675844000000005,0.02130529,25.98,-26.64,-34.14
1554882096515,-8.0924015,-5.0763063,0.8086416000000001,-0.09587380000000001,-0.03834952,0.041545313,26.1,-26.76,-34.08
1554882096535,-8.101977999999999,-5.229535,0.9091981,-0.112918034,-0.03195793,0.035153727999999995,26.22,-26.94,-34.08
1554882096556,-8.159439,-5.2199583,0.81343,-0.111852765,-0.039414786,0.02130529,26.34,-27.12,-34.08
1554882096576,-8.2169,-5.248688700000001,0.81343,-0.111852765,-0.04580637,0.03195793,26.46,-27.24,-34.08
1554882096595,-8.073248,-5.205593,0.789488,-0.10439592,-0.040480047000000005,0.053263225,26.52,-27.3,-34.08
1554882096616,-8.130709,-5.1146135,0.86610246,-0.10759171,-0.04474111,0.058589544,26.58,-27.3,-34.14
1554882096636,-8.183380999999999,-5.1385555,0.65541273,-0.10439592,-0.049002163,0.053263225,26.58,-27.12,-34.2
1554882096655,-8.154651,-5.0763063,0.7224503999999999,-0.10013486,-0.047936900000000005,0.05006743,26.46,-27.0,-34.2
1554882096675,-8.2169,-5.085883,0.8086416000000001,-0.11824436,-0.043675844000000005,0.04580637,26.4,-26.82,-34.2
1554882096695,-8.303091,-5.047576,0.66498953,-0.18216023,-0.05219796,0.05006743,26.34,-26.7,-34.2
1554882096715,-8.283937,-5.167286,0.65541273,-0.25246766,-0.06391586,0.06924219,26.22,-26.58,-34.2
1554882096735,-8.164227499999999,-5.3444567,0.8900445,-0.22477080000000002,-0.06604639400000001,0.07456851,26.16,-26.46,-34.2
1554882096755,-8.202535000000001,-5.282207499999999,0.7128736,-0.13528858,-0.05965481,0.058589544,26.16,-26.4,-34.26
1554882096777,-8.331821000000001,-5.191228,0.75118077,-0.07030745599999999,-0.058589544,0.082025364,26.16,-26.34,-34.26
1554882096795,-8.259995,-5.229535,0.7272388000000001,-0.07350325,-0.07989483,0.112918034,26.16,-26.28,-34.26
1554882096815,-8.350976,-4.923076999999999,0.41599256,-0.07563378,-0.08948222,0.1107875,26.1,-26.16,-34.26
1554882096836,-8.556877,-4.755483,0.26276365,-0.10759171,-0.10333065,0.12250541,26.1,-26.1,-34.32
1554882096856,-8.418014,-4.7985787,0.45429978,-0.21944448,-0.17576863,0.11824436,26.1,-25.98,-34.32
1554882096876,-8.360553,-5.0140567,0.7032967,-0.30253512,-0.21624869,0.08628642,26.1,-25.92,-34.32
1554882096896,-8.322245,-5.2008047,1.0432734000000001,-0.30466563,-0.22477080000000002,0.06178534,26.04,-25.8,-34.32
1554882096915,-8.355764,-5.143344,0.9091981,-0.22264028,-0.18535602,0.112918034,25.98,-25.74,-34.38
1554882096935,-8.422802,-5.167286,1.0911574,-0.20240025,-0.15659387,0.15659387,25.86,-25.62,-34.38
1554882096956,-8.293514,-5.133767,0.9379284999999999,-0.2034655,-0.16618125,0.14594123,25.74,-25.56,-34.38
1554882096975,-8.331821000000001,-5.143344,0.9044097,-0.112918034,-0.17150758,0.12250541,25.56,-25.5,-34.38
1554882096996,-8.341399000000001,-5.0427876,0.6745663000000001,0.026631612000000002,-0.16085494,0.14913702,25.44,-25.38,-34.44
1554882097015,-8.408437,-4.980538,0.7224503999999999,0.05006743,-0.17470337,0.18216023,25.26,-25.32,-34.44
1554882097035,-8.365341,-4.9757495,0.65062433,0.02130529,-0.20026971,0.17044231,25.08,-25.2,-34.44
1554882097055,-8.350976,-5.0763063,0.85652566,0.01917476,-0.21837921,0.17576863,24.96,-25.2,-34.44
1554882097075,-8.279149,-4.76506,1.0145429,0.083090626,-0.22903186,0.20133498,24.9,-25.14,-34.44
1554882097096,-8.250419,-4.549582,1.1629834,0.14168017,-0.21411815,0.19813919,24.84,-25.14,-34.44
1554882097117,-8.580819,-4.410718,1.1486181999999998,0.096939065,-0.18216023,0.18429075,24.78,-25.26,-34.5
1554882097136,-8.619126,-4.305373,0.9235633,0.0031957934000000003,-0.16618125,0.19600865,24.78,-25.44,-34.68
1554882097156,-8.738836000000001,-4.4442368,0.5021838,-0.11824436,-0.18855181,0.20559604,24.72,-25.62,-34.86
1554882097176,-8.566454,-4.022857,0.56443304,-0.20772657,-0.26525086,0.16405073,24.72,-25.8,-35.04
1554882097196,-8.461109,-4.458602,0.6218939,-0.28442562,-0.31212249999999997,0.12783173,24.72,-25.98,-35.22
1554882097216,-8.451532,-4.3676224,1.0767921999999999,-0.5795039000000001,-0.31212249999999997,0.1438107,24.66,-26.16,-35.4
1554882097236,-8.283937,-4.836886,1.7663223000000001,-0.73609775,-0.28868666,0.17044231,24.6,-26.28,-35.58
1554882097256,-8.212111,-4.7602715,2.2068555,-0.4825648,-0.26418558,0.08841695,24.48,-26.34,-35.76
1554882097276,-8.475474,-4.741118,1.7328035,-0.041545313,-0.19920446,0.051132694000000006,24.3,-26.34,-35.88
1554882097296,-8.494628,-4.549582,1.9913772,0.18961707,-0.16937704,0.11611383,24.0,-26.16,-35.94
1554882097317,-8.537724,-4.659715,1.4119805,0.330232,-0.13741912,0.15020229,23.64,-25.86,-35.94
1554882097335,-8.561666,-4.3580456,1.0672153999999998,0.23861924,-0.10439592,0.20772657,23.52,-25.74,-35.94
1554882097356,-8.75799,-4.7267528,1.1007341999999998,-0.10226539,-0.101200126,0.31105720000000003,23.28,-25.56,-35.94
1554882097375,-8.671799,-4.7985787,1.5795746000000002,-0.34834146,-0.12996227,0.36218992,23.1,-25.5,-35.94
1554882097396,-8.537724,-4.875193,1.4598645000000001,-0.31638354,-0.12463594,0.39521313,22.92,-25.56,-35.94
1554882097416,-8.408437,-4.3676224,1.8285716,-0.22050974,-0.09374327,0.44528055,22.8,-25.56,-35.94
1554882097436,-8.5473,-4.0420110000000005,1.7040731,-0.054328485999999995,-0.051132694000000006,0.47404268,22.74,-25.56,-35.94
1554882097455,-8.494628,-3.6014779000000003,1.7471686999999998,0.13848437,-0.041545313,0.45486793,22.74,-25.74,-35.94
1554882097476,-8.451532,-3.4195184999999997,1.7280151000000001,0.3536678,-0.08628642,0.38242993,22.8,-25.92,-35.94
1554882097496,-8.470686,-3.0891187,1.9482816000000003,0.43036684,-0.07456851,0.34834146,22.8,-26.04,-35.94
1554882097515,-8.537724,-2.9454667999999997,1.7328035,0.39308259999999995,-0.025566347000000003,0.34834146,22.8,-26.16,-35.88
1554882097536,-8.887277000000001,-3.0364463,1.407192,0.17150758,0.008522116,0.34940675,22.8,-26.16,-35.88
1554882097556,-9.169792,-3.1465794999999996,1.4885948999999998,-0.11930962,-0.020240024,0.3334278,22.8,-26.22,-35.94
1554882097576,-9.188946000000001,-3.1896752999999998,1.6561891,-0.257794,-0.056459017,0.3057309,22.8,-26.34,-36.0
1554882097596,-9.227253,-3.4626143,1.7328035,-0.22370553,-0.07350325,0.31638354,22.86,-26.58,-36.06
1554882097616,-9.126697,-3.3620577000000003,1.4550761,-0.13102753,-0.07243799,0.33768883,22.86,-26.88,-36.12
1554882097636,-9.030928999999999,-3.151368,1.3880384,-0.08522116,-0.083090626,0.330232,22.86,-27.18,-36.24
1554882097656,-8.7532015,-2.8927941,1.110311,-0.07989483,-0.10652645,0.30786142,22.86,-27.48,-36.36
1554882097675,-8.671799,-2.8449101000000003,1.158195,-0.15233281,-0.09374327,0.29933932,22.86,-27.72,-36.54
1554882097695,-8.858546,-2.806603,1.5652093999999999,-0.25992453,-0.026631612000000002,0.25885928,22.86,-27.96,-36.66
1554882097716,-8.954314,-2.782661,1.5269021,-0.31105720000000003,-0.033023197000000004,0.17257284,22.86,-28.14,-36.78
1554882097735,-9.078813,-3.007716,1.4694413,-0.47723848,-0.06711166,0.11824436,22.86,-28.32,-36.9
1554882097756,-9.141062,-3.3476925000000004,1.4024036,-0.48363006,-0.10546118,0.096939065,22.86,-28.38,-37.02
1554882097776,-9.069236,-3.2758665000000002,1.3784616000000003,-0.24607609,-0.14594123,0.07243799,22.92,-28.32,-37.08
1554882097796,-8.829816000000001,-3.0651767000000003,1.0672153999999998,0.03195793,-0.10759171,0.13422333,22.92,-28.14,-37.14
1554882097815,-8.863335000000001,-3.1848867000000003,0.84694886,-0.13315806,-0.043675844000000005,0.1470065,22.92,-28.02,-37.14
1554882097835,-9.251195,-3.1705215,1.6753427,-0.39734364,-0.01917476,0.047936900000000005,22.92,-27.84,-37.14
1554882097855,-9.572019000000001,-3.256713,2.0248961,-0.32490566,-0.05219796,0.01917476,22.86,-27.66,-37.14
1554882097876,-9.279925,-3.151368,2.556409,0.082025364,-0.043675844000000005,0.15020229,22.86,-27.48,-37.08
1554882097896,-9.222465,-3.2279825,2.5276785,0.3334278,0.017044231,0.19920446,22.8,-27.24,-37.08
1554882097915,-8.944737,-2.9933507,2.130241,0.4889564,0.022370555,0.12996227,22.74,-27.06,-37.08
1554882097936,-9.193734,-3.0125043,1.6418238,0.60933125,0.094808534,0.11611383,22.62,-26.88,-37.02
1554882097955,-9.375694000000001,-2.6868927000000005,1.6657659,0.753142,0.13635385,0.1768339,22.56,-26.88,-37.02
1554882097975,-9.059659,-2.5767596,1.407192,0.8404937,0.16192019,0.22477080000000002,22.5,-27.0,-36.96
1554882097996,-9.011775,-2.3277626000000002,1.0767921999999999,0.79255676,0.13741912,0.19920446,22.5,-27.24,-36.96
1554882098016,-9.160214999999999,-2.0021513,0.86610246,0.70200926,0.07669904,0.15126756,22.5,-27.72,-37.02
1554882098035,-9.222465,-1.8968061999999999,1.0480618,0.5400891,-0.0053263223,0.08948222,22.56,-28.32,-37.02
1554882098056,-8.963891,-1.8201918999999998,1.1725603,0.37603834,-0.06285059999999999,0.011717908999999999,22.68,-29.1,-37.02
1554882098075,-8.968679,-1.6909049999999999,1.5269021,0.23329292,-0.06285059999999999,-0.04580637,22.74,-29.94,-37.08
1554882098095,-9.011775,-1.7340006000000001,1.8429368000000002,0.13954964,-0.024501082,-0.07563378,22.8,-30.78,-37.14
1554882098115,-9.021352,-1.9782091,1.857302,0.09587380000000001,-0.015978966,-0.11930962,22.92,-31.5,-37.2
1554882098137,-9.169792,-2.1888987999999996,1.6801311,0.04474111,-0.024501082,-0.16937704,22.98,-32.16,-37.26
1554882098156,-9.385271000000001,-2.3995886000000004,1.9243397,0.012783173500000002,-0.015978966,-0.18216023,23.04,-32.64,-37.32
1554882098176,-9.370906,-2.5959132,1.6418238,0.012783173500000002,-0.015978966,-0.14594123,23.04,-32.88,-37.38
1554882098195,-9.208099,-2.5719712,1.6035166,-0.018109497,-0.040480047000000005,-0.12676647,22.98,-33.06,-37.38
1554882098215,-9.093178,-2.5145104,1.6753427,-0.026631612000000002,-0.06285059999999999,-0.13102753,22.98,-33.18,-37.44
1554882098236,-9.169792,-2.5719712,1.7280151000000001,-0.029827405,-0.049002163,-0.14274544,22.92,-33.12,-37.44
1554882098256,-9.14585,-2.6916811000000003,1.8046296000000002,-0.027696876000000002,-0.03834952,-0.13209279,22.92,-33.12,-37.5
1554882098276,-9.045294,-2.581548,1.7950528000000001,-0.01917476,-0.029827405,-0.13209279,22.86,-33.12,-37.5
1554882098295,-8.987833,-2.5863364,1.9003976999999999,0.0010652645,-0.03834952,-0.16192019,22.8,-33.06,-37.56
1554882098315,-9.074024,-2.6007016,1.7758990000000001,0.037284255,-0.027696876000000002,-0.16937704,22.62,-33.0,-37.5
1554882098335,-9.093178,-2.629432,1.8381484000000001,0.026631612000000002,-0.018109497,-0.15552860000000002,22.56,-33.0,-37.44
1554882098356,-9.093178,-2.6629508,1.8716671000000003,-0.015978966,-0.025566347000000003,-0.14487597,22.5,-32.94,-37.44
1554882098376,-9.002198,-2.6916811000000003,1.8237831999999998,-0.03089267,-0.012783173500000002,-0.15233281,22.44,-32.88,-37.38
1554882098396,-9.26556,-2.8592752999999997,1.8477252,-0.02876214,-0.007456851,-0.17789917,22.32,-32.82,-37.38
1554882098416,-9.059659,-2.7635074,1.7663223000000001,-0.010652645,-0.01917476,-0.16831179,22.26,-32.76,-37.32
1554882098436,-9.074024,-2.7682957999999998,1.7232267,0.02876214,0.0063915867,-0.15659387,22.26,-32.76,-37.26
1554882098456,-9.14585,-2.8592752999999997,1.6897078999999997,0.05219796,0.015978966,-0.18429075,22.26,-32.7,-37.26
1554882098475,-8.99741,-2.9981391,1.7902644,0.049002163,0.0053263223,-0.19813919,22.26,-32.7,-37.26
1554882098495,-9.064447,-3.1322143,1.4502877,0.034088463,0.00958738,-0.17576863,22.26,-32.64,-37.26
1554882098515,-9.126697,-3.0891187,1.5125369,0.018109497,0.011717908999999999,-0.15126756,22.26,-32.64,-37.32
1554882098535,-9.102755,-3.1322143,1.6705543,0.0010652645,0.0031957934000000003,-0.13209279,22.26,-32.64,-37.32
1554882098556,-8.99741,-3.0603882999999996,1.4838065,0.004261058,-0.002130529,-0.11824436,22.32,-32.58,-37.32
1554882098575,-9.016563,-2.902371,1.6944963,-0.039414786,0.0031957934000000003,-0.11824436,22.32,-32.52,-37.32
1554882098596,-9.050082000000002,-3.007716,1.7663223000000001,-0.06604639400000001,-0.004261058,-0.12463594,22.32,-32.46,-37.32
1554882098616,-9.045294,-2.9885623,1.9243397,-0.058589544,0.008522116,-0.12570119999999999,22.38,-32.4,-37.38
1554882098636,-8.973467999999999,-3.1705215,2.1733365,-0.036218993,0.033023197000000004,-0.13422333,22.38,-32.34,-37.38
1554882098655,-8.983044999999999,-3.2279825,1.8333599999999999,-0.0063915867,0.054328485999999995,-0.12996227,22.38,-32.22,-37.38
1554882098675,-8.963891,-3.2279825,1.7663223000000001,-0.02876214,0.07882957,-0.1107875,22.38,-32.1,-37.38
1554882098696,-9.074024,-3.4961330000000004,1.4742297,-0.07137272,0.06924219,-0.10333065,22.38,-31.92,-37.38
1554882098716,-8.963891,-3.4721910000000005,1.6561891,-0.05965481,0.05219796,-0.09587380000000001,22.44,-31.8,-37.38
1554882098736,-9.002198,-3.3764230000000004,1.6609775000000002,0.026631612000000002,0.05219796,-0.054328485999999995,22.44,-31.62,-37.38
1554882098756,-8.954314,-3.2423477000000003,1.7088615000000003,0.111852765,0.06391586,-0.034088463,22.44,-31.5,-37.38
1554882098776,-8.882488,-3.2279825,1.7088615000000003,0.1949434,0.083090626,-0.03834952,22.5,-31.44,-37.38
1554882098795,-9.064447,-3.1082723,1.6130934,0.24074976,0.10652645,-0.043675844000000005,22.56,-31.32,-37.32
1554882098816,-9.131485000000001,-3.1465794999999996,1.6609775000000002,0.24607609,0.10333065,-0.024501082,22.56,-31.26,-37.32
1554882098836,-9.002198,-3.208829,1.3497312,0.23861924,0.080960095,-0.007456851,22.62,-31.2,-37.26
1554882098856,-8.99741,-2.9358897,1.2252326999999998,0.1587244,0.09374327,-0.0010652645,22.62,-31.26,-37.26
1554882098876,-9.107543,-2.9933507,1.5077485000000002,0.10333065,0.07243799,-0.014913702,22.68,-31.32,-37.2
1554882098895,-9.102755,-2.9071592999999996,1.2012907,0.07456851,0.041545313,-0.036218993,22.68,-31.38,-37.2
1554882098916,-9.126697,-3.0603882999999996,1.2012907,0.053263225,0.018109497,-0.03834952,22.68,-31.44,-37.2
1554882098936,-9.011775,-3.0603882999999996,1.5652093999999999,0.07989483,-0.046871635999999994,-0.054328485999999995,22.68,-31.56,-37.26
1554882098956,-8.916007,-3.0029275,1.6178818000000001,0.08948222,-0.027696876000000002,-0.05219796,22.74,-31.68,-37.26
1554882098976,-9.02614,-2.8880057,1.632247,0.025566347000000003,0.013848438000000001,-0.023435817999999997,22.8,-31.8,-37.26
1554882098996,-9.160214999999999,-2.878429,1.2252326999999998,-0.05219796,0.040480047000000005,-0.023435817999999997,22.86,-31.92,-37.26
1554882099016,-9.208099,-3.141791,1.0001777,-0.14807177,0.035153727999999995,-0.024501082,22.98,-31.98,-37.26
1554882099036,-9.284714,-3.2854433,1.5747862,-0.23222765,-0.07776430000000001,-0.056459017,23.04,-32.04,-37.26
1554882099056,-9.074024,-3.1226375,1.3640964,-0.23542345,-0.15765914,-0.06178534,22.98,-32.1,-37.26
1554882099075,-8.939949,-3.0843303,1.1055226,-0.20559604,-0.14274544,-0.015978966,22.92,-32.16,-37.26
1554882099096,-9.011775,-3.0891187,0.8086416000000001,-0.19707392,-0.13315806,0.014913702,22.86,-32.16,-37.2
1554882099116,-9.11712,-3.1800982999999996,1.2539631000000002,-0.23329292,-0.11611383,0.02876214,22.8,-32.16,-37.2
1554882099136,-9.160214999999999,-3.3955764999999998,1.9626468000000001,-0.28975195,-0.21624869,-0.004261058,22.68,-32.16,-37.14
1554882099155,-9.088389,-3.4099417,2.130241,-0.31318775,-0.30360037,-0.041545313,22.56,-32.16,-37.14
1554882099176,-8.810661999999999,-3.3476925000000004,2.2930467,-0.3323625,-0.31105720000000003,-0.011717908999999999,22.44,-32.04,-37.08
1554882099196,-8.868122999999999,-3.2758665000000002,1.8668787,-0.2972088,-0.13954964,0.07563378,22.32,-31.8,-37.08
1554882099216,-9.184157,-3.5440169999999998,1.7854759999999998,-0.23968449999999997,-0.040480047000000005,0.080960095,22.38,-31.62,-37.08
1554882099236,-9.279925,-3.4578260000000003,2.0871453,-0.15659387,-0.08948222,0.035153727999999995,22.44,-31.38,-37.08
1554882099256,-8.99741,-3.2471360000000002,2.0009542000000002,-0.03089267,-0.15126756,-0.0053263223,22.44,-31.08,-37.08
1554882099276,-8.643068,-3.1705215,1.9578583999999999,0.054328485999999995,-0.10439592,-0.014913702,22.44,-30.78,-37.08
1554882099296,-8.954314,-3.2279825,1.4838065,0.039414786,0.004261058,0.024501082,22.44,-30.54,-37.08
1554882099316,-9.23683,-3.2950199999999996,1.8046296000000002,-0.025566347000000003,0.017044231,0.06178534,22.38,-30.3,-37.14
1554882099335,-9.074024,-3.1561562999999997,2.202067,-0.026631612000000002,-0.165116,0.03834952,22.38,-30.12,-37.14
1554882099355,-8.576031,-3.1561562999999997,1.9003976999999999,0.056459017,-0.23116238,0.023435817999999997,22.32,-30.0,-37.14
1554882099375,-8.647857,-3.2136172999999997,1.9865887999999998,0.07243799,-0.09161274,0.03089267,22.26,-29.94,-37.2
1554882099395,-8.963891,-2.9981391,2.0919337,0.04474111,-0.012783173500000002,0.03195793,22.2,-29.88,-37.26
1554882099415,-9.193734,-2.9789855,2.1350293,0.025566347000000003,0.004261058,0.029827405,22.08,-29.82,-37.32
1554882099436,-9.097966,-2.926313,2.0727801,-0.0010652645,-0.033023197000000004,0.037284255,21.96,-29.82,-37.38
1554882099455,-9.078813,-2.8640637000000004,2.2260091,-0.06604639400000001,-0.029827405,0.06285059999999999,21.84,-29.82,-37.44
1554882099475,-8.887277000000001,-2.7060466,2.0201077,-0.060720075,-0.035153727999999995,0.08628642,21.72,-29.82,-37.56
1554882099496,-9.016563,-3.0172927000000005,1.6897078999999997,-0.047936900000000005,0.026631612000000002,0.08735169,21.66,-29.88,-37.62
1554882099516,-9.059659,-2.8401217,1.9434932,-0.022370555,0.037284255,0.06498113,21.6,-29.88,-37.68
1554882099536,-8.724471000000001,-2.830545,1.8429368000000002,0.0010652645,-0.0031957934000000003,0.046871635999999994,21.54,-29.88,-37.68
1554882099556,-8.973467999999999,-3.007716,1.8142063999999998,-0.04580637,0.08948222,0.004261058,21.54,-29.94,-37.74
1554882099575,-9.217675999999999,-2.6198552000000004,1.8716671000000003,-0.13954964,0.060720075,-0.034088463,21.54,-29.94,-37.74
1554882099595,-9.337387,-2.8018146,1.8764555,-0.24607609,0.022370555,-0.023435817999999997,21.54,-29.94,-37.74
1554882099616,-9.184157,-2.9885623,1.7567455,-0.26418558,-0.058589544,-0.027696876000000002,21.6,-29.88,-37.74
1554882099636,-9.030928999999999,-3.0603882999999996,1.7184383,-0.19707392,-0.082025364,-0.034088463,21.66,-29.82,-37.68
1554882099656,-8.801085,-3.0508115,1.5221136999999998,-0.1587244,-0.07989483,0.007456851,21.66,-29.76,-37.62
1554882099676,-8.853758000000001,-2.8592752999999997,1.7088615000000003,-0.12463594,-0.035153727999999995,0.03834952,21.66,-29.58,-37.62
1554882099695,-8.892064999999999,-2.7012582000000003,1.6561891,-0.099069595,-0.012783173500000002,0.037284255,21.66,-29.46,-37.56
1554882099715,-9.016563,-2.5384523999999997,1.8956091,-0.10333065,-0.004261058,0.029827405,21.66,-29.28,-37.56
1554882099736,-8.916007,-2.6868927000000005,1.9674352,-0.16937704,-0.025566347000000003,0.018109497,21.66,-29.16,-37.5
1554882099756,-9.188946000000001,-2.8688521000000002,2.1877017000000003,-0.28336033,0.00958738,-0.0053263223,21.66,-29.1,-37.5
1554882099776,-9.232041,-2.8113914,2.0248961,-0.3174488,0.033023197000000004,-0.035153727999999995,21.66,-29.04,-37.44
1554882099796,-9.054871,-2.8161798,1.9578583999999999,-0.29188246,0.013848438000000001,-0.034088463,21.72,-28.92,-37.44
1554882099816,-8.882488,-2.9454667999999997,2.0679917000000003,-0.22264028,0.023435817999999997,-0.03834952,21.78,-28.92,-37.44
1554882099835,-8.7292595,-3.0460230999999998,1.8764555,-0.096939065,0.056459017,-0.068176925,21.84,-28.92,-37.44
1554882099856,-8.978256,-3.1082723,1.6753427,-0.0053263223,0.13741912,-0.08841695,21.84,-28.8,-37.44
1554882099876,-9.088389,-3.103484,1.4502877,-0.0031957934000000003,0.18322548,-0.08841695,21.9,-28.68,-37.44
1554882099896,-9.193734,-3.1561562999999997,1.1246762,-0.07350325,0.18322548,-0.08628642,21.96,-28.56,-37.38
1554882099915,-9.155427,-3.2758665000000002,1.0097545,-0.18748654,0.13741912,-0.096939065,21.96,-28.38,-37.38
1554882099935,-9.074024,-3.1609447,1.2252326999999998,-0.31957933,0.10972224,-0.094808534,21.96,-28.2,-37.38
1554882099956,-9.112331,-3.0508115,1.3257892,-0.38136467,0.07456851,-0.082025364,21.96,-27.84,-37.32
1554882099976,-9.155427,-3.2950199999999996,1.4502877,-0.35579833,0.037284255,-0.049002163,21.96,-27.36,-37.2
1554882099995,-9.155427,-3.3237504999999996,1.1821371,-0.27696875,0.011717908999999999,0.0,21.96,-27.0,-37.08
1554882100015,-9.002198,-3.2471360000000002,1.311424,-0.12996227,0.029827405,0.046871635999999994,21.9,-26.58,-36.9
1554882100035,-8.973467999999999,-3.3045970000000002,1.3736732,-0.04474111,0.02130529,0.025566347000000003,21.96,-26.4,-36.84
1554882100056,-8.954314,-3.3716345000000003,1.158195,0.07137272,0.023435817999999997,-0.056459017,21.96,-26.04,-36.66
1554882100076,-9.260772,-3.3476925000000004,1.0384849,0.12250541,0.043675844000000005,-0.08948222,22.02,-25.8,-36.54
1554882100096,-9.390058999999999,-3.2998084999999997,0.9283517,0.096939065,0.035153727999999995,-0.07243799,22.02,-25.56,-36.42
1554882100116,-9.370906,-3.0556,0.97623575,0.029827405,-0.034088463,-0.023435817999999997,22.02,-25.56,-36.36
1554882100136,-9.184157,-2.8449101000000003,1.0767921999999999,-0.056459017,-0.12144015,0.039414786,22.08,-25.56,-36.36
1554882100156,-9.126697,-2.9215245,1.2635399,-0.13102753,-0.15020229,0.083090626,22.08,-25.56,-36.36
1554882100176,-8.987833,-3.093907,1.6130934,-0.14487597,-0.16724652,0.083090626,22.08,-25.56,-36.36
1554882100197,-8.75799,-3.007716,1.6944963,-0.11504856,-0.15552860000000002,0.060720075,22.08,-25.56,-36.36
1554882100216,-8.580819,-3.103484,1.7567455,-0.082025364,-0.07563378,0.00958738,22.08,-25.5,-36.3
1554882100235,-8.686164,-3.1561562999999997,1.9482816000000003,-0.06178534,-0.0053263223,-0.06285059999999999,22.08,-25.5,-36.36
1554882100256,-9.155427,-3.3237504999999996,1.7711107,-0.07563378,0.083090626,-0.13528858,22.08,-25.44,-36.36
1554882100275,-9.433155000000001,-3.4338839999999995,1.7040731,-0.07456851,0.113983296,-0.15020229,22.08,-25.44,-36.36
1554882100296,-9.155427,-3.4147300000000005,1.4838065,-0.098004326,0.07350325,-0.080960095,22.02,-25.38,-36.42
1554882100315,-8.848969,-3.2471360000000002,1.359308,-0.07882957,0.040480047000000005,0.035153727999999995,21.96,-25.44,-36.42
1554882100335,-9.064447,-3.117849,1.4694413,0.068176925,0.098004326,0.10226539,21.84,-25.68,-36.42
1554882100355,-9.165004,-3.1082723,1.38325,0.28122982,0.10652645,0.12037488,21.66,-25.98,-36.42
1554882100376,-8.930372,-3.0843303,0.86131406,0.40373522,0.096939065,0.082025364,21.54,-26.4,-36.42
1554882100395,-8.939949,-3.0412347,0.81343,0.3685815,0.08522116,0.014913702,21.42,-26.82,-36.42
1554882100415,-9.337387,-2.9454667999999997,0.85173726,0.23648871,0.084155895,-0.029827405,21.3,-27.3,-36.36
1554882100436,-9.586383999999999,-2.8832173,0.96665895,0.07456851,0.054328485999999995,-0.023435817999999997,21.24,-27.78,-36.36
1554882100455,-9.514558000000001,-2.878429,0.9427169,-0.1107875,-0.008522116,0.020240024,21.3,-28.2,-36.36
1554882100475,-9.232041,-3.0843303,1.2539631000000002,-0.23009712,-0.08735169,0.024501082,21.3,-28.56,-36.36
1554882100496,-8.887277000000001,-2.9215245,1.5364790000000002,-0.21624869,-0.15020229,0.018109497,21.42,-28.74,-36.3
1554882100515,-8.748413000000001,-2.7252002,1.584363,-0.10865697,-0.111852765,0.054328485999999995,21.48,-28.8,-36.3
1554882100536,-8.930372,-2.8018146,1.5412674,-0.00958738,-0.056459017,0.07350325,21.6,-28.8,-36.24
1554882100555,-9.002198,-2.8496985,1.6561891,0.09161274,-0.034088463,0.053263225,21.72,-28.68,-36.24
1554882100575,-8.916007,-2.9502552000000004,1.4742297,0.11717909,-0.047936900000000005,-0.002130529,21.78,-28.44,-36.18
1554882100596,-8.954314,-3.151368,1.3976152,0.082025364,-0.004261058,-0.04261058,21.78,-28.26,-36.18
1554882100616,-9.169792,-3.1226375,1.3976152,0.0063915867,0.046871635999999994,-0.05219796,21.84,-28.02,-36.18
1554882100635,-9.375694000000001,-3.2136172999999997,1.4550761,-0.033023197000000004,0.06924219,-0.051132694000000006,21.84,-27.84,-36.24
1554882100656,-9.495403999999999,-3.117849,1.5221136999999998,-0.015978966,0.041545313,-0.041545313,21.84,-27.66,-36.3
1554882100676,-9.097966,-2.7539306,1.5173253,0.07989483,-0.03089267,0.054328485999999995,21.9,-27.48,-36.42
1554882100695,-9.040505,-2.5528176,1.6130934,0.16831179,0.0,0.1107875,21.9,-27.42,-36.42
1554882100715,-8.872911,-2.404377,1.6274586000000002,0.32490566,0.043675844000000005,0.082025364,21.9,-27.48,-36.54
1554882100735,-9.02614,-2.4426842,1.2108675,0.30892670000000005,0.04261058,-0.004261058,21.96,-27.54,-36.54
1554882100755,-9.212888000000001,-2.8449101000000003,0.96665895,0.18429075,0.049002163,-0.05752428,21.96,-27.54,-36.6
1554882100775,-9.251195,-2.9789855,0.84694886,0.002130529,0.02876214,-0.09374327,21.96,-27.66,-36.6
1554882100796,-9.308656,-3.0508115,0.98102415,-0.16085494,0.008522116,-0.13315806,21.96,-27.72,-36.6
1554882100815,-9.485827,-3.007716,1.0576386,-0.2727077,-0.007456851,-0.113983296,22.02,-27.78,-36.6
1554882100835,-9.524135000000001,-2.9215245,1.4024036,-0.29294774,-0.02876214,-0.06604639400000001,22.02,-27.84,-36.6
1554882100855,-9.155427,-2.7539306,1.5556326,-0.21731395,-0.09161274,-0.026631612000000002,22.02,-27.84,-36.54
1554882100875,-9.006986999999999,-2.7491422,1.5412674,-0.14594123,-0.1107875,0.033023197000000004,22.02,-27.84,-36.54
1554882100896,-8.7532015,-2.8257565,1.6130934,-0.07350325,-0.09587380000000001,0.07137272,22.02,-27.84,-36.6
1554882100915,-8.772355000000001,-2.8496985,1.6897078999999997,0.024501082,-0.034088463,0.015978966,22.08,-27.84,-36.6
1554882100935,-8.968679,-2.9741971,1.158195,0.051132694000000006,0.03195793,-0.051132694000000006,22.14,-27.78,-36.6
1554882100956,-9.246407000000001,-2.9694088,1.1150993999999999,-0.0053263223,0.068176925,-0.08841695,22.2,-27.72,-36.6
1554882100975,-9.356541,-2.9406781000000004,1.134253,-0.12463594,0.06391586,-0.10972224,22.26,-27.6,-36.6
1554882100995,-9.41879,-2.8688521000000002,1.2204443,-0.25885928,0.029827405,-0.09054748,22.32,-27.42,-36.6
1554882101015,-9.390058999999999,-2.8161798,1.4646529,-0.30360037,-0.040480047000000005,-0.07456851,22.38,-27.18,-36.6
1554882101036,-9.030928999999999,-2.7491422,1.5795746000000002,-0.27696875,-0.08735169,-0.039414786,22.44,-26.94,-36.54
1554882101055,-8.829816000000001,-2.806603,1.5364790000000002,-0.16724652,-0.043675844000000005,0.013848438000000001,22.56,-26.64,-36.42
1554882101075,-8.99741,-2.8449101000000003,1.4885948999999998,0.06391586,0.00958738,-0.01917476,22.56,-26.22,-36.24
1554882101095,-8.978256,-2.9167361,1.158195,0.12996227,0.033023197000000004,-0.056459017,22.62,-25.86,-36.06
1554882101115,-9.054871,-2.9933507,1.0767921999999999,0.034088463,0.05219796,-0.06604639400000001,22.62,-25.56,-35.94
1554882101136,-9.179369,-3.2231941,1.0384849,-0.11611383,0.041545313,-0.08841695,22.62,-25.32,-35.82
1554882101155,-9.466674000000001,-3.2806550000000003,1.062427,-0.23329292,0.010652645,-0.11504856,22.68,-25.14,-35.88
1554882101175,-9.380483,-3.117849,1.2108675,-0.2609898,-0.00958738,-0.096939065,22.68,-25.02,-35.88
1554882101195,-9.150639,-2.9789855,1.4359225,-0.22690132,-0.026631612000000002,-0.033023197000000004,22.68,-24.9,-35.94
1554882101216,-9.14585,-2.9358897,1.3688848,-0.10439592,-0.027696876000000002,0.011717908999999999,22.68,-24.84,-36.06
1554882101236,-9.165004,-2.8449101000000003,1.1821371,0.10333065,-0.018109497,-0.0053263223,22.68,-24.78,-36.18
1554882101255,-9.035717,-2.7204118,1.0576386,0.17896444,-0.027696876000000002,-0.035153727999999995,22.62,-24.6,-36.3
1554882101275,-9.035717,-2.8736405,0.99060094,0.16192019,-0.02876214,-0.05539375,22.62,-24.48,-36.36
1554882101296,-9.069236,-3.007716,1.1150993999999999,-0.035153727999999995,-0.027696876000000002,-0.094808534,22.56,-24.3,-36.36
1554882101315,-9.174581,-3.0460230999999998,1.2491747,-0.23329292,-0.008522116,-0.111852765,22.56,-24.12,-36.24
1554882101335,-9.289502,-3.141791,1.3018471999999999,-0.38136467,0.0053263223,-0.13741912,22.5,-23.94,-36.12
1554882101356,-9.083601,-3.2375592999999996,1.5077485000000002,-0.43995422,-0.024501082,-0.17257284,22.5,-23.76,-36.0
1554882101375,-8.724471000000001,-3.117849,1.3880384,-0.39947417,-0.012783173500000002,-0.1470065,22.44,-23.64,-35.94
1554882101395,-8.90643,-3.2231941,1.4502877,-0.28229508,0.08628642,-0.101200126,22.44,-23.52,-35.88
1554882101416,-8.99741,-3.093907,1.1198878,-0.18216023,0.09054748,-0.09054748,22.44,-23.34,-35.82
1554882101435,-8.925583999999999,-3.1848867000000003,0.74639237,-0.15126756,0.06391586,-0.101200126,22.5,-23.16,-35.88
1554882101455,-8.930372,-3.3381157,0.6075286999999999,-0.20133498,0.04580637,-0.10333065,22.56,-22.86,-35.82
1554882101476,-8.973467999999999,-3.5679589999999997,0.7128736,-0.27377295,0.018109497,-0.10013486,22.68,-22.56,-35.88
1554882101496,-9.093178,-3.7403417,0.74639237,-0.3291667,0.020240024,-0.11717909,22.8,-22.2,-35.88
1554882101516,-9.179369,-3.5679589999999997,0.66020113,-0.39308259999999995,0.03195793,-0.14168017,22.86,-21.9,-35.88
1554882101536,-9.361329,-3.7020345,0.6075286999999999,-0.5273059,0.0010652645,-0.14594123,22.98,-21.6,-35.82
1554882101556,-9.610325999999999,-3.8121676,0.5165489999999999,-0.69774824,-0.07243799,-0.08735169,22.98,-21.3,-35.76
1554882101576,-9.562441999999999,-3.9845502,0.6745663000000001,-0.78083885,-0.16724652,0.010652645,22.98,-21.0,-35.7
1554882101596,-9.332599,-3.888782,0.8182184,-0.73822826,-0.21837921,0.111852765,22.98,-20.76,-35.46
1554882101616,-9.035717,-3.6254199000000003,0.95229375,-0.5336975,-0.23542345,0.18855181,22.92,-20.46,-35.28
1554882101635,-9.006986999999999,-3.4434607,1.1055226,-0.26738137,-0.23755397,0.20772657,22.8,-19.98,-35.1
1554882101656,-9.002198,-3.4674027,0.8230068000000001,0.00958738,-0.26312032,0.17470337,22.74,-19.44,-34.86
1554882101675,-9.002198,-3.5009214999999996,0.9235633,0.21837921,-0.25033715,0.13741912,22.68,-18.84,-34.68
1554882101696,-8.8777,-3.4434607,0.8948328999999999,0.25885928,-0.21518342,0.111852765,22.62,-18.06,-34.44
1554882101715,-8.882488,-3.2902317,0.9379284999999999,0.18748654,-0.19920446,0.094808534,22.62,-17.76,-34.38
1554882101736,-9.016563,-3.117849,1.3497312,0.022370555,-0.17789917,0.07776430000000001,22.5,-17.04,-34.32
1554882101755,-9.074024,-2.9981391,1.5939398,-0.036218993,-0.16298546,0.09161274,22.38,-16.74,-34.32
1554882101776,-9.02614,-3.0029275,1.6609775000000002,0.00958738,-0.14594123,0.10546118,22.26,-16.68,-34.38
1554882101796,-8.853758000000001,-2.9885623,1.5652093999999999,0.12144015,-0.112918034,0.099069595,22.2,-16.74,-34.38
1554882101816,-8.939949,-3.0412347,1.5077485000000002,0.23861924,-0.06604639400000001,0.09054748,22.08,-16.8,-34.44
1554882101836,-9.198523,-3.0460230999999998,1.4167688999999999,0.3153183,-0.03089267,0.07563378,21.96,-16.92,-34.5
1554882101855,-9.23683,-3.0508115,1.2539631000000002,0.25566345,-0.0031957934000000003,0.083090626,21.84,-17.1,-34.56
1554882101875,-9.160214999999999,-3.0412347,1.335366,0.13315806,-0.020240024,0.08522116,21.78,-17.34,-34.68
1554882101895,-9.14585,-2.9981391,1.4885948999999998,0.036218993,-0.06391586,0.03195793,21.72,-17.64,-34.86
1554882101915,-8.983044999999999,-3.0460230999999998,1.1725603,0.008522116,-0.12357068,0.002130529,21.66,-17.94,-34.98
1554882101935,-8.8777,-2.7874494,1.6035166,0.040480047000000005,-0.07030745599999999,0.023435817999999997,21.6,-18.24,-35.16
1554882101955,-8.805874000000001,-2.5959132,1.5747862,0.046871635999999994,-0.035153727999999995,0.035153727999999995,21.6,-18.42,-35.28
1554882101975,-8.973467999999999,-2.7060466,1.5747862,0.018109497,-0.018109497,0.049002163,21.54,-18.6,-35.4
1554882101996,-9.064447,-2.9933507,1.7232267,0.0053263223,-0.040480047000000005,0.06498113,21.48,-18.78,-35.46
1554882102016,-8.882488,-3.1082723,1.929128,0.058589544,-0.06604639400000001,0.06924219,21.48,-18.96,-35.46
1554882102036,-8.599973,-3.1130607000000006,1.7375918999999997,0.16724652,-0.03195793,0.094808534,21.48,-19.02,-35.4
1554882102059,-8.628703,-3.3524809999999996,1.6226702,0.257794,0.084155895,0.12037488,21.48,-19.08,-35.28
1554882102076,-9.040505,-3.4147300000000005,1.857302,0.29827404,0.17789917,0.056459017,21.48,-19.14,-35.22
1554882102096,-9.050082000000002,-3.7355532999999994,1.7088615000000003,0.3536678,0.17470337,-0.01917476,21.48,-19.32,-35.22
1554882102115,-9.035717,-3.9893386,1.4646529,0.43782368,0.18216023,-0.025566347000000003,21.48,-19.5,-35.22
1554882102136,-9.035717,-3.793014,1.6514006,0.5294364,0.2428803,0.07030745599999999,21.48,-19.8,-35.16
1554882102156,-9.294291000000001,-3.7547068999999995,2.0967221,0.6764429,0.2908172,0.15659387,21.54,-20.1,-35.22
1554882102176,-8.916007,-3.6924577000000003,2.0488381,0.92784536,0.2609898,0.17044231,21.54,-20.4,-35.34
1554882102196,-8.896853,-3.6014779000000003,2.0488381,1.2612731000000001,0.3153183,0.17257284,21.6,-20.82,-35.46
1554882102215,-9.193734,-3.2950199999999996,1.8429368000000002,1.619202,0.46658584,0.221575,21.72,-21.3,-35.58
1554882102235,-9.562441999999999,-2.926313,1.6514006,1.8769958999999998,0.6412892,0.35579833,21.9,-22.08,-35.7
1554882102256,-9.576807,-2.533664,1.4359225,1.9760654999999998,0.70840085,0.45912898,22.14,-23.04,-35.76
1554882102275,-9.433155000000001,-2.2224178,0.99538934,2.001632,0.6498113,0.43888897,22.38,-24.24,-35.82
1554882102296,-9.399636,-1.9015948,0.65062433,2.0176108,0.5752428,0.37603834,22.68,-25.62,-35.88
1554882102316,-9.5385,-1.6956933999999997,0.44951138,2.005893,0.5390238,0.36964676,22.92,-27.3,-36.0
1554882102336,-9.399636,-1.6047136999999998,0.15741876,1.8759307,0.50600064,0.39947417,23.28,-29.22,-36.0
1554882102355,-9.332599,-1.2982559,0.13826515,1.6266588,0.46019423,0.41758367,23.58,-31.32,-36.06
1554882102375,-9.572019000000001,-1.417966,0.3441665,1.3763216999999999,0.42930159999999995,0.38562572,23.88,-33.36,-36.06
1554882102396,-9.892841,-1.489792,0.55964464,1.2186625,0.34940675,0.34514567,24.18,-35.46,-36.12
1554882102416,-9.77792,-1.7675193999999999,0.87089086,1.2293152,0.29507825,0.3749731,24.42,-37.44,-36.12
1554882102435,-9.682152,-1.8201918999999998,0.6937199000000001,1.3507552999999999,0.28442562,0.45806372,24.66,-39.3,-36.12
1554882102457,-9.5385,-1.5616181,1.0432734000000001,1.567004,0.35153726,0.5006742999999999,24.96,-41.1,-36.12
1554882102476,-9.509769,-1.1833341999999998,0.7846996,1.8279938000000002,0.36964676,0.50173956,25.26,-42.9,-36.06
1554882102495,-9.394848,-0.66618663,0.83737206,2.1102889,0.39414784,0.49002165,25.5,-44.52,-36.0
1554882102515,-9.624691,-0.16819267,0.32501290000000005,2.3829966000000002,0.4250405,0.44741106,25.74,-46.38,-35.82
1554882102536,-9.706094,0.13826515,0.22924481,2.5236115000000003,0.39095205,0.37390783,25.92,-48.24,-35.52
1554882102556,-9.672575,0.31064767,-0.06284779,2.4628913,0.32277513,0.28655612,26.1,-50.16,-35.1
1554882102575,-9.576807,0.7272388000000001,-0.57520694,2.2338595000000003,0.28016454,0.22903186,26.22,-51.96,-34.5
1554882102595,-9.634267999999999,1.158195,-0.88166475,1.804558,0.26844665,0.18748654,26.34,-53.82,-33.96
1554882102616,-9.979032499999999,1.632247,-0.8098387,1.0578076,0.18216023,0.1438107,26.34,-56.58,-32.94
1554882102635,-9.821015,1.3162124,-0.670975,0.386691,0.06498113,0.049002163,26.34,-58.56,-32.22
1554882102656,-9.720459,0.7990648,-0.23523031,-0.09587380000000001,-0.03089267,-0.06711166,26.34,-60.42,-31.5
1554882102676,-9.576807,0.44472298,0.3393781,-0.33768883,-0.041545313,-0.11504856,26.34,-61.8,-30.9
1554882102696,-9.600749,-0.014963761,0.6027403,-0.38775626,-0.014913702,-0.11824436,26.34,-62.88,-30.42
1554882102716,-9.619903,-0.25917232,0.5835866999999999,-0.33662358,0.02876214,-0.12250541,26.34,-63.9,-30.06
1554882102736,-9.931149000000001,-0.53689975,0.7846996,-0.2609898,0.049002163,-0.10759171,26.4,-64.62,-29.82
1554882102756,-9.835381,-0.5943606,0.5931635000000001,-0.16405073,0.03834952,-0.07243799,26.4,-65.16,-29.58
1554882102776,-9.576807,-0.5081693,0.57400984,-0.0063915867,0.023435817999999997,-0.03089267,26.4,-65.46,-29.46
1554882102796,-9.734824,-0.18734628,0.43035775,0.12250541,0.043675844000000005,-0.00958738,26.46,-65.4,-29.34
1554882102816,-9.792285000000001,-0.09636662,0.39683893,0.17789917,0.06711166,-0.010652645,26.46,-65.28,-29.34
1554882102836,-9.916783,0.13347675,0.44472298,0.14913702,0.054328485999999995,-0.007456851,26.52,-65.1,-29.4
1554882102856,-9.859323,0.023343466,0.17657238,0.07030745599999999,0.040480047000000005,0.002130529,26.52,-64.98,-29.4
1554882102875,-9.797073,0.076015905,0.22445641,0.0,0.017044231,-0.007456851,26.58,-64.86,-29.46
1554882102896,-9.744401,0.0664391,0.15263036,-0.084155895,-0.0053263223,-0.011717908999999999,26.58,-64.8,-29.46
1554882102916,-9.648633,0.0041898529999999995,0.55964464,-0.15765914,0.010652645,-0.020240024,26.64,-64.74,-29.46
1554882102936,-9.586383999999999,0.04249708,0.5835866999999999,-0.13848437,0.0063915867,-0.05219796,26.64,-64.74,-29.52
1554882102955,-9.691728999999999,0.12389994,0.5931635000000001,-0.05965481,0.023435817999999997,-0.06924219,26.7,-64.74,-29.52
1554882102975,-9.720459,0.090381116,0.24839842,-0.01917476,0.029827405,-0.07456851,26.7,-64.74,-29.52
1554882102996,-9.797073,-0.014963761,0.17657238,-0.04580637,0.035153727999999995,-0.084155895,26.76,-64.8,-29.52
1554882103015,-9.811439,-0.010175358,0.008978256,-0.13848437,0.011717908999999999,-0.09374327,26.76,-64.8,-29.52
1554882103035,-9.868899,-0.038905777,0.18136078,-0.23861924,-0.007456851,-0.080960095,26.76,-64.74,-29.52
1554882103055,-9.720459,0.12389994,0.037708677,-0.34940675,-0.05219796,-0.07669904,26.76,-64.74,-29.52
1554882103076,-9.68694,-0.024540568,0.21009120000000003,-0.45167214,-0.07350325,-0.07989483,26.76,-64.74,-29.52
1554882103095,-9.734824,-0.02932897,0.3681085,-0.51452273,-0.08948222,-0.09374327,26.82,-64.62,-29.52
1554882103116,-9.720459,0.008978256,0.49260699999999996,-0.5411543000000001,-0.096939065,-0.112918034,26.88,-64.5,-29.52
1554882103136,-9.744401,-0.024540568,0.20051439,-0.52624065,-0.10972224,-0.11824436,26.88,-64.26,-29.58
1554882103156,-9.725247,-0.13946225,0.3441665,-0.535828,-0.10972224,-0.113983296,26.88,-64.02,-29.64
1554882103176,-9.844957,-0.42676646,0.7080852,-0.5454154,-0.15978967,-0.13209279,26.94,-63.66,-29.76
1554882103196,-9.65821,-0.7236475,0.7080852,-0.51452273,-0.19600865,-0.14913702,26.94,-63.0,-30.06
1554882103216,-9.629479,-0.96306765,0.97144735,-0.42184472,-0.15978967,-0.12144015,26.94,-62.7,-30.18
1554882103236,-9.653421,-0.9295488000000001,0.96665895,-0.24927188,-0.10333065,-0.07456851,26.94,-62.04,-30.36
1554882103256,-9.610325999999999,-0.85293436,0.99060094,0.0031957934000000003,-0.049002163,-0.033023197000000004,26.94,-61.44,-30.54
1554882103276,-9.629479,-0.8194155000000001,1.1198878,0.2727077,-0.04261058,-0.026631612000000002,26.94,-60.96,-30.78
1554882103296,-9.720459,-0.8146270999999999,0.7128736,0.588026,-0.05219796,-0.020240024,26.94,-60.3,-31.02
1554882103316,-9.557653,-0.5033809,1.2587515,0.75420725,-0.037284255,-0.007456851,26.94,-60.06,-31.08
1554882103335,-9.591172,-0.28311434,1.0576386,0.9321064,0.033023197000000004,0.015978966,26.94,-59.76,-31.14
1554882103355,-9.706094,-0.15382746,0.65062433,0.92784536,0.10013486,0.02130529,26.94,-59.58,-31.26
1554882103376,-9.888053,0.14784196,0.6218939,0.7914915,0.098004326,-0.008522116,26.94,-59.64,-31.26
1554882103396,-9.811439,0.04249708,0.3681085,0.58056915,0.02876214,-0.033023197000000004,26.88,-60.3,-31.2
1554882103416,-9.691728999999999,-0.0005985504,0.52133745,0.39734364,0.004261058,-0.034088463,26.88,-60.9,-31.14
1554882103435,-9.600749,-0.08678981,0.40162733,0.28655612,0.03834952,-0.037284255,26.88,-61.5,-31.08
1554882103455,-9.677363,-0.18734628,0.40162733,0.21092236,0.07456851,-0.026631612000000002,26.88,-62.04,-30.9
1554882103476,-9.80665,-0.26396075,0.3585317,0.15233281,0.053263225,-0.04474111,26.88,-62.58,-30.78
1554882103496,-9.864111,-0.22565351,0.3633201,0.15126756,0.017044231,-0.06604639400000001,26.88,-63.12,-30.6
1554882103516,-9.811439,-0.31184477,0.53091425,0.17150758,-0.025566347000000003,-0.07669904,26.88,-63.54,-30.42
1554882103536,-9.710882000000002,-0.36930559999999996,0.3393781,0.18748654,-0.036218993,-0.03195793,26.88,-63.9,-30.24
1554882103555,-9.653421,-0.27832595,0.6314706999999999,0.19387813,-0.049002163,0.0,26.88,-63.96,-30.12
1554882103576,-9.610325999999999,-0.3405752,0.6937199000000001,0.21518342,-0.027696876000000002,-0.0063915867,26.88,-63.96,-30.0
1554882103596,-9.753978,-0.32142156,0.5883751,0.22477080000000002,-0.008522116,-0.007456851,26.82,-63.96,-29.94
1554882103616,-9.710882000000002,-0.19213470000000002,0.6937199000000001,0.26312032,-0.0063915867,0.0031957934000000003,26.76,-64.08,-29.94
1554882103635,-9.701305,0.02813187,0.6171055000000001,0.294013,0.013848438000000001,-0.0031957934000000003,26.7,-64.26,-29.88
1554882103656,-9.710882000000002,0.04249708,0.5165489999999999,0.29188246,0.027696876000000002,-0.034088463,26.64,-64.44,-29.88
1554882103675,-9.763555,-0.034117375,0.47824179999999994,0.26205507,0.029827405,-0.07456851,26.58,-64.68,-29.88
1554882103695,-9.854534,0.05686229,0.6123171,0.20879184,0.008522116,-0.08628642,26.52,-64.92,-29.88
1554882103716,-9.639056,-0.19692309,0.5835866999999999,0.18748654,-0.0010652645,-0.058589544,26.46,-65.22,-29.82
1554882103735,-9.667786999999999,-0.32621,0.7128736,0.12783173,0.04261058,-0.046871635999999994,26.4,-65.46,-29.7
1554882103756,-9.744401,-0.5129577000000001,0.85173726,0.09374327,0.033023197000000004,-0.04474111,26.34,-65.76,-29.58
1554882103776,-9.653421,-0.54647654,0.5835866999999999,0.13315806,0.033023197000000004,-0.025566347000000003,26.28,-66.06,-29.46
1554882103796,-9.691728999999999,-0.22565351,0.52133745,0.19707392,0.010652645,-0.022370555,26.28,-66.3,-29.34
1554882103816,-9.792285000000001,-0.13946225,0.42078096,0.21092236,0.022370555,-0.017044231,26.28,-66.48,-29.22
1554882103835,-9.782708,-0.12988544,0.3537433,0.11930962,0.011717908999999999,-0.040480047000000005,26.28,-66.54,-29.04
1554882103855,-9.763555,-0.014963761,0.8038531999999999,0.06711166,-0.011717908999999999,-0.037284255,26.28,-66.66,-28.92
1554882103875,-9.552864999999999,-0.024540568,0.66020113,0.14274544,-0.008522116,-0.022370555,26.4,-66.72,-28.8
1554882103895,-9.56723,0.09516951400000001,0.43514615,0.26312032,0.037284255,-0.034088463,26.46,-66.84,-28.68
1554882103915,-9.720459,0.09995792,0.39683893,0.2790993,0.037284255,-0.06711166,26.58,-66.84,-28.62
1554882103937,-9.677363,0.0041898529999999995,0.08559271,0.16085494,0.03089267,-0.07669904,26.7,-66.9,-28.5
1554882103957,-9.749189,-0.034117375,0.30107087,0.0,0.011717908999999999,-0.084155895,26.82,-66.9,-28.44
1554882103977,-9.730036,-0.23044191,0.74639237,-0.056459017,-0.008522116,-0.09267801,26.94,-66.9,-28.32
1554882103997,-9.691728999999999,-0.24480712,0.66020113,0.0031957934000000003,0.008522116,-0.084155895,27.0,-66.96,-28.26
1554882104016,-9.864111,-0.014963761,0.23882163,0.02876214,0.02130529,-0.07350325,27.12,-66.96,-28.2
1554882104036,-9.830592,-0.19213470000000002,0.061650693,-0.04474111,-0.022370555,-0.07776430000000001,27.12,-67.02,-28.14
1554882104056,-9.811439,-0.31184477,0.39683893,-0.20453078,-0.07989483,-0.07882957,27.12,-67.02,-28.14
1554882104076,-9.648633,-0.32142156,0.7032967,-0.23755397,-0.099069595,-0.06391586,27.12,-67.08,-28.14
