TimeStamp,Ax,Ay,Az,Gx,Gy,Gz,Mx,My,Mz
1553498040822,-9.458893,0.048482585999999994,0.29328972,0.10226539,0.26525086,0.04261058,33.12,17.04,33.3
1553498040842,-9.430161,0.12868834,0.15622166,0.10546118,0.24394555,0.02130529,33.06,17.04,33.24
1553498040861,-9.457097000000001,0.17537527,0.011372458,0.10439592,0.20240025,-0.008522116,32.94,17.04,33.24
1553498040886,-9.569026,0.1448492,-0.074818805,0.09161274,0.13102753,-0.04261058,32.82,17.04,33.24
1553498040902,-9.59177,0.110731825,-0.048482585999999994,0.07456851,0.10333065,-0.068176925,32.76,17.04,33.24
1553498040921,-9.621698,0.19812019,-0.061052144,0.041545313,0.053263225,-0.09267801,32.7,17.04,33.24
1553498040942,-9.782109,0.3196259,-0.16400282,-0.02876214,0.024501082,-0.1107875,32.46,17.1,33.24
1553498040962,-9.939528,0.37588966,-0.15442601,-0.14061491,-0.0063915867,-0.11930962,32.22,17.1,33.3
1553498040981,-9.953894,0.38726214,-0.08200141,-0.27377295,-0.027696876000000002,-0.12996227,32.16,17.1,33.36
1553498041001,-9.894637,0.32022446,-0.038307227,-0.4857606,-0.035153727999999995,-0.15020229,31.92,17.1,33.54
1553498041022,-9.876082,0.16819267,-0.013766658999999999,-0.6828345,-0.04261058,-0.17470337,31.8,17.1,33.66
1553498041042,-9.900622,0.13467385,-0.15382746,-0.8383630999999999,-0.035153727999999995,-0.1768339,31.62,17.1,33.78
1553498041062,-9.943717999999999,0.025737667000000002,-0.05865794,-1.055677,-0.06285059999999999,-0.16618125,31.5,17.1,33.9
1553498041082,-9.846153999999999,0.010773907,0.207697,-1.2602079,-0.12570119999999999,-0.14594123,31.44,17.04,34.02
1553498041102,-9.614514999999999,-0.31244332,0.4914099,-1.3017531999999998,-0.11824436,-0.16085494,31.38,16.74,34.14
1553498041122,-9.679159,-0.46866497,0.60333884,-1.1994878,-0.082025364,-0.19387813,31.44,16.32,34.26
1553498041142,-9.837775,-0.60812724,0.6500258000000001,-1.0375676,-0.07456851,-0.18748654,31.44,15.9,34.26
1553498041162,-9.818023,-0.7194576,0.60453594,-0.86179894,-0.07030745599999999,-0.15765914,31.44,15.36,34.32
1553498041181,-9.773131,-0.83737206,0.55246204,-0.69987875,-0.08522116,-0.128897,31.5,14.76,34.38
1553498041203,-9.712079,-0.76434886,0.6733691999999999,-0.5411543000000001,-0.10013486,-0.1107875,31.5,14.16,34.38
1553498041222,-9.685144000000001,-0.7380127,0.6955156,-0.45273739999999996,-0.12570119999999999,-0.09587380000000001,31.5,13.44,34.44
1553498041242,-9.570822,-0.6973111999999999,0.641646,-0.314253,-0.10972224,-0.08735169,31.56,12.78,34.5
1553498041261,-9.698911,-0.6895300999999999,0.66139823,-0.18855181,-0.11824436,-0.084155895,31.56,12.3,34.5
1553498041282,-9.727043,-0.6063316,0.75596917,-0.07350325,-0.11824436,-0.07030745599999999,31.56,12.0,34.62
1553498041301,-9.653421,-0.6380547,0.93613285,-0.004261058,-0.10439592,-0.056459017,31.56,11.76,34.68
1553498041321,-9.576807,-0.5710170999999999,0.90859956,0.04580637,-0.051132694000000006,-0.053263225,31.56,11.52,34.8
1553498041342,-9.69951,-0.49799395,0.89303726,0.05965481,0.00958738,-0.05219796,31.56,11.34,34.8
1553498041362,-9.733627,-0.53809685,0.7128736,0.049002163,0.03089267,-0.05539375,31.62,11.16,34.86
1553498041381,-9.801263,-0.4794389,0.64703304,0.023435817999999997,0.039414786,-0.06178534,31.62,10.98,34.8
1553498041402,-9.7479925,-0.5554548,0.6398504,0.002130529,0.039414786,-0.05539375,31.62,10.86,34.74
1553498041421,-9.691130000000001,-0.6691794,0.6356605,-0.01917476,0.040480047000000005,-0.05006743,31.68,10.74,34.68
1553498041441,-9.7479925,-0.6063316,0.6985083000000001,-0.029827405,0.07243799,-0.04474111,31.74,10.56,34.56
1553498041462,-9.747394,-0.504578,0.56682724,-0.013848438000000001,0.094808534,-0.018109497,31.74,10.44,34.44
1553498041481,-9.752182000000001,-0.63206923,0.5351041,-0.04261058,0.096939065,-0.020240024,31.8,10.26,34.32
1553498041501,-9.780911999999999,-0.7062895,0.7727286,-0.034088463,0.09267801,-0.035153727999999995,31.86,10.14,34.2
1553498041521,-9.713875,-0.57520694,0.86729956,0.039414786,0.12357068,-0.02130529,31.92,10.08,34.14
1553498041542,-9.698911,-0.60812724,0.6925228,0.03195793,0.1768339,0.034088463,32.04,10.08,34.14
1553498041562,-9.818622,-0.83138657,0.7110779,-0.1107875,0.20240025,0.10759171,32.1,10.14,34.2
1553498041581,-9.744401,-0.7781156,0.84575176,-0.18322548,0.25992453,0.16085494,32.1,10.2,34.2
1553498041602,-9.598353999999999,-0.7733272,0.6841431,-0.07563378,0.33555830000000003,0.16724652,32.16,10.26,34.26
1553498041621,-9.927557,-0.38127659999999997,0.22984336,0.053263225,0.37816888,0.14487597,32.16,10.32,34.38
1553498041641,-9.932944,-0.5710170999999999,-0.17717093,0.023435817999999997,0.34621096,0.15978967,32.1,10.32,34.62
1553498041661,-9.752781,-0.35194764,-0.29987377,-0.23009712,0.30999196,0.15765914,31.98,10.32,34.8
1553498041681,-9.522339,-0.074220255,-0.55485624,-0.39308259999999995,0.27803403,0.14913702,31.8,10.32,34.98
1553498041702,-9.643844999999999,-0.007781155400000001,-0.53570265,-0.43675843,0.22370553,0.12144015,31.5,10.2,35.1
1553498041722,-9.712079,0.019752163,-0.43514615,-0.39627838,0.15446335,0.09374327,31.08,9.96,35.34
1553498041741,-9.632472,0.10654198,-0.35254622,-0.25992453,0.10013486,0.07776430000000001,30.96,9.84,35.4
1553498041761,-9.713875,-0.142455,-0.30645782,-0.018109497,0.096939065,0.054328485999999995,30.66,9.48,35.58
1553498041782,-9.850344999999999,-0.25558102,-0.12749124,0.19068234,0.08735169,0.058589544,30.48,9.12,35.58
1553498041802,-9.728839,-0.10414778,-0.039504327,0.36645097,0.07030745599999999,0.09267801,30.3,8.82,35.58
1553498041822,-9.7007065,0.11312603,-0.10175357,0.44315,0.09267801,0.101200126,30.18,8.46,35.58
1553498041841,-9.809643,0.29029694,-0.30406362,0.37390783,0.08735169,0.07563378,30.18,8.16,35.58
1553498041862,-9.816227,0.4285621,-0.48602295,0.27057716,0.068176925,0.047936900000000005,30.18,7.92,35.58
1553498041881,-9.862914,0.41000703,-0.59615624,0.112918034,0.051132694000000006,-0.002130529,30.18,7.74,35.58
1553498041901,-9.917382,0.5093664000000001,-0.49559975,-0.054328485999999995,0.029827405,-0.036218993,30.24,7.62,35.58
1553498041921,-9.873688000000001,0.50158525,-0.39504328,-0.17363810000000002,0.0053263223,-0.046871635999999994,30.24,7.62,35.58
1553498041942,-9.706094,0.35194764,-0.42736499999999994,-0.25566345,0.018109497,-0.09374327,30.24,7.62,35.58
1553498041962,-9.7958765,0.10654198,-0.48362875,-0.29933932,0.024501082,-0.14487597,30.24,7.62,35.58
1553498041982,-9.881469000000001,0.030526072,-0.46507367,-0.34514567,0.026631612000000002,-0.1438107,30.3,7.68,35.58
1553498042002,-9.816227,-0.062249242999999996,-0.45729253,-0.3653857,0.011717908999999999,-0.098004326,30.3,7.68,35.64
1553498042022,-9.756969999999999,-0.092775315,-0.3609259,-0.37390783,0.010652645,-0.07350325,30.3,7.68,35.64
1553498042042,-9.698911,-0.12270284,-0.29388827,-0.33768883,0.024501082,-0.08735169,30.24,7.62,35.64
1553498042061,-9.713875,-0.12749124,-0.27234045,-0.26631612,0.01917476,-0.113983296,30.18,7.56,35.7
1553498042081,-9.737817,-0.08080431,-0.28371290000000005,-0.16831179,0.011717908999999999,-0.12144015,30.12,7.44,35.76
1553498042102,-9.740809,-0.11432313,-0.32022446,-0.09587380000000001,0.0063915867,-0.113983296,30.06,7.32,35.82
1553498042121,-9.785701,-0.107739076,-0.22984336,-0.051132694000000006,0.011717908999999999,-0.10652645,30.0,7.14,35.82
1553498042141,-9.749788,-0.2705448,-0.37529109999999993,-0.02130529,0.011717908999999999,-0.111852765,29.94,6.96,35.88
1553498042162,-9.791686,-0.31124622,-0.3561375,-0.01917476,-0.008522116,-0.1107875,30.0,6.84,35.88
1553498042182,-9.752781,-0.2908955,-0.28550854,0.03834952,-0.02130529,-0.101200126,30.0,6.66,35.88
1553498042202,-9.774927,-0.26635495,-0.19871874,0.11611383,-0.029827405,-0.101200126,30.0,6.6,35.94
1553498042221,-9.776124000000001,-0.25737667,-0.27892449999999996,0.13741912,-0.029827405,-0.10439592,30.06,6.54,36.0
1553498042242,-9.800664999999999,-0.26994625,-0.30645782,0.13848437,-0.023435817999999997,-0.12144015,30.12,6.54,36.06
1553498042261,-9.810242,-0.27832595,-0.32920274,0.13848437,-0.029827405,-0.12357068,30.18,6.54,36.12
1553498042282,-9.780911999999999,-0.2813187,-0.23223756,0.15446335,-0.03834952,-0.11717909,30.24,6.54,36.18
1553498042302,-9.719261999999999,-0.27892449999999996,-0.26755205,0.15765914,-0.035153727999999995,-0.11930962,30.24,6.6,36.18
1553498042322,-9.767744,-0.22864626,-0.30945057,0.10865697,-0.026631612000000002,-0.12250541,30.18,6.72,36.24
1553498042342,-9.797073,-0.26755205,-0.27593175,0.036218993,-0.023435817999999997,-0.11717909,30.12,6.78,36.24
1553498042362,-9.768942,-0.38426940000000004,-0.28909984,-0.025566347000000003,-0.02130529,-0.10759171,30.06,6.9,36.24
1553498042381,-9.830592,-0.46507367,-0.32680854,-0.046871635999999994,-0.012783173500000002,-0.09267801,30.0,7.02,36.18
1553498042401,-9.850344999999999,-0.49260699999999996,-0.2669535,-0.037284255,-0.023435817999999997,-0.06604639400000001,30.0,7.08,36.12
1553498042421,-9.746795,-0.40821138,-0.31244332,-0.008522116,-0.033023197000000004,-0.046871635999999994,29.94,7.2,36.0
1553498042442,-9.731832,-0.31483752,-0.34715924,0.026631612000000002,-0.040480047000000005,-0.040480047000000005,29.88,7.32,35.94
1553498042462,-9.731832,-0.18734628,-0.40102878,0.0,-0.043675844000000005,-0.041545313,29.88,7.38,35.88
1553498042482,-9.730635000000001,-0.18734628,-0.3705027,-0.07350325,-0.05219796,-0.049002163,29.94,7.44,35.88
1553498042502,-9.730036,-0.15263036,-0.26396075,-0.17470337,-0.053263225,-0.056459017,29.94,7.5,35.88
1553498042522,-9.6845455,-0.18854338,-0.23403321,-0.2609898,-0.04261058,-0.068176925,30.0,7.5,35.88
1553498042542,-9.76116,-0.12808979,-0.21188685,-0.34727620000000003,-0.039414786,-0.08841695,30.0,7.5,35.88
1553498042561,-9.710882000000002,-0.12629414,-0.26755205,-0.39521313,-0.043675844000000005,-0.112918034,30.06,7.5,35.88
1553498042581,-9.652822500000001,-0.13826515,-0.41240123,-0.4079963,-0.043675844000000005,-0.14913702,30.12,7.44,35.94
1553498042601,-9.733028,-0.11971009,-0.6398504,-0.4261058,-0.06285059999999999,-0.18002969,30.18,7.38,36.0
1553498042622,-9.76535,-0.010175358,-0.88405895,-0.52624065,-0.10439592,-0.20240025,30.18,7.38,36.06
1553498042641,-9.767744,0.20709845,-0.61770403,-0.6583334,-0.1949434,-0.22690132,30.18,7.32,36.06
1553498042662,-9.51336,0.14664486,-0.22864626,-0.65513766,-0.23116238,-0.2876214,30.18,7.26,36.06
1553498042682,-9.43914,-0.05865794,-0.092176765,-0.5294364,-0.21411815,-0.39840892,30.18,7.08,36.12
1553498042702,-9.531317,-0.20111294,0.008978256,-0.44847634,-0.20772657,-0.48363006,30.18,6.78,36.12
1553498042721,-9.4062195,-0.46088383,0.16519992,-0.4878911,-0.18216023,-0.5091964,30.24,6.36,36.12
1553498042742,-9.464279,-0.7457938000000001,0.17178397,-0.5251754,-0.1470065,-0.51452273,30.24,6.24,36.12
1553498042762,-9.693524,-1.2395979,0.23283611,-0.55287224,-0.10759171,-0.5219796,30.24,6.0,36.06
1553498042782,-9.817424,-1.614889,0.32501290000000005,-0.5134575,-0.084155895,-0.4825648,30.3,5.58,36.06
1553498042802,-9.958083,-1.7723078,0.29029694,-0.37284255,-0.07350325,-0.40906155,30.36,5.34,36.0
1553498042823,-10.035296,-2.0488381,0.272939,-0.31851408,-0.049002163,-0.30146983,30.48,5.1,36.0
1553498042841,-9.730036,-2.3822308,0.61112,-0.38349520000000004,-0.03834952,-0.20772657,30.66,5.04,35.94
1553498042861,-9.420585,-2.1164744,0.63206923,-0.16937704,-0.0063915867,-0.17896444,30.84,5.04,35.88
1553498042882,-9.71986,-1.7890673,0.320823,0.2066613,0.051132694000000006,-0.14487597,30.96,5.04,35.82
1553498042902,-9.835381,-1.7537526999999997,-0.037708677,0.43995422,0.017044231,-0.10759171,31.02,5.04,35.76
1553498042921,-9.591172,-1.513734,-0.13108255,0.51984906,-0.020240024,-0.11504856,31.02,4.98,35.76
1553498042942,-9.676167,-1.4041992,-0.29269117,0.49002165,-0.012783173500000002,-0.128897,31.02,4.98,35.7
1553498042962,-9.788692999999999,-1.2515688999999999,-0.3238158,0.36005938,-0.041545313,-0.1107875,31.08,5.04,35.7
1553498042982,-9.740211500000001,-1.2671312,-0.29508537,0.26312032,-0.06711166,-0.09267801,31.02,5.16,35.7
1553498043001,-9.693524,-1.2258313,-0.26515785,0.1587244,-0.10759171,-0.10546118,30.9,5.34,35.64
1553498043021,-9.610325999999999,-1.1587936,-0.15083471,0.09374327,-0.15126756,-0.1438107,30.84,5.58,35.64
1553498043042,-9.554661,-1.0199299000000002,-0.18794483,0.05965481,-0.18429075,-0.18855181,30.78,5.82,35.58
1553498043062,-9.587581,-0.92057055,-0.32800564,-0.035153727999999995,-0.20985709,-0.21837921,30.72,6.06,35.52
1553498043083,-9.615114,-0.8295909,-0.56563014,-0.28442562,-0.24927188,-0.24181503,30.84,6.3,35.4
1553498043102,-9.671975999999999,-0.80564886,-0.6847416999999999,-0.49960902,-0.2876214,-0.26631612,30.84,6.54,35.34
1553498043121,-9.731832,-0.91937345,-0.6877344,-0.8724516,-0.3536678,-0.314253,30.9,6.72,35.22
1553498043142,-9.718064,-1.0456676,-0.6751649000000001,-1.4008228,-0.41119209999999995,-0.34621096,30.9,6.84,35.16
1553498043162,-9.750386,-1.1162965,-0.45789108,-1.75236,-0.45060685,-0.33981937,30.9,6.78,34.98
1553498043182,-9.623494,-1.5921441,-0.18674773,-1.9494339,-0.44954160000000004,-0.34088463,30.96,6.66,34.86
1553498043201,-9.655217,-2.0919337,0.09816227,-2.0367856,-0.43888897,-0.34408042,31.08,6.36,34.68
1553498043221,-9.642648,-2.3744495,0.29209262,-2.1102889,-0.39734364,-0.30466563,31.26,5.82,34.56
1553498043242,-9.500791,-2.4133554,0.26994625,-2.2839270000000003,-0.39414784,-0.24501082,31.44,5.16,34.44
1553498043262,-9.321824000000001,-2.5115175,0.46746787,-2.3819312999999998,-0.38242993,-0.22796659,31.62,4.32,34.32
1553498043282,-9.251195,-2.9909565,0.7422025,-2.2860575,-0.3536678,-0.26738137,31.8,3.3,34.14
1553498043302,-9.276335000000001,-3.3446998999999997,1.0845733999999998,-1.9387813000000003,-0.29827404,-0.31212249999999997,32.04,2.1,34.02
1553498043322,-9.293693,-3.6236242999999995,1.2551602,-1.3837786,-0.23755397,-0.30146983,32.22,0.9,33.72
1553498043342,-9.273342,-3.7104141999999998,1.3383588,-0.7861651999999999,-0.17470337,-0.22370553,32.4,-0.3,33.42
1553498043362,-9.2865095,-3.5913025999999997,1.13964,-0.25992453,-0.099069595,-0.11824436,32.58,-1.38,33.06
1553498043382,-9.359533,-3.5122937999999992,1.0474633,0.18642128,-0.05965481,-0.040480047000000005,32.76,-2.28,32.58
1553498043402,-9.353547,-3.3405099999999996,0.97264445,0.5273059,-0.027696876000000002,-0.011717908999999999,32.88,-3.12,32.16
1553498043421,-9.31524,-3.0891187,0.82899237,0.7755125,0.02130529,0.0053263223,33.0,-3.78,31.68
1553498043442,-9.363723,-2.834735,0.6027403,0.9171927,0.056459017,0.04474111,33.12,-4.26,31.2
1553498043461,-9.40203,-2.4702177000000005,0.31184477,0.9395633,0.07776430000000001,0.083090626,33.24,-4.56,30.78
1553498043481,-9.518747,-2.2343888,0.11372458,0.90014845,0.06178534,0.082025364,33.3,-4.8,30.6
1553498043502,-9.51755,-1.9614497,0.13946225,0.7669904000000001,0.03089267,0.04580637,33.42,-4.92,30.36
1553498043521,-9.466674000000001,-1.9542671000000003,0.18016368,0.66152924,0.017044231,0.01917476,33.42,-4.8,30.3
1553498043541,-9.405622,-2.0380642,0.27114335,0.5518069999999999,0.015978966,-0.004261058,33.42,-4.68,30.36
1553498043562,-9.522339,-2.1164744,0.40880993,0.4261058,0.00958738,-0.011717908999999999,33.42,-4.14,30.48
1553498043582,-9.464878,-2.1679497000000003,0.45370123,0.39308259999999995,0.0010652645,0.002130529,33.42,-3.9,30.48
1553498043601,-9.347562,-2.2655133999999997,0.5602431999999999,0.37603834,-0.012783173500000002,0.0053263223,33.36,-3.48,30.6
1553498043621,-9.335591,-2.2888567,0.7278373,0.38029942,-0.010652645,-0.004261058,33.36,-3.06,30.66
1553498043642,-9.28232,-2.3924060000000003,0.91338795,0.4101268,0.015978966,-0.013848438000000001,33.3,-2.34,30.84
1553498043662,-9.293094,-2.4714148,1.1079168,0.4889564,0.04580637,-0.007456851,33.3,-1.98,30.96
1553498043682,-9.329605,-2.60968,1.1432313,0.6380934,0.096939065,0.0010652645,33.3,-1.62,31.02
1553498043702,-9.462483,-2.5791538,0.98222125,0.8149273,0.14594123,0.017044231,33.3,-1.26,31.14
1553498043722,-9.542689,-2.5312697999999996,0.8834603999999999,0.9598033000000001,0.16405073,0.040480047000000005,33.3,-1.14,31.2
1553498043741,-9.575011,-2.4462755,0.6925228,1.099353,0.16298546,0.08522116,33.3,-0.66,31.44
1553498043762,-9.630077,-2.232593,0.46447513,1.1121361,0.1768339,0.12463594,33.3,-0.36,31.62
1553498043782,-9.681553,-2.268506,0.23762453,1.0641992,0.1470065,0.1587244,33.3,-0.06,31.8
1553498043802,-9.640852,-2.1194669999999998,0.21787235,0.99069595,0.10333065,0.18429075,33.24,0.3,31.98
1553498043822,-9.543288,-1.8303672,0.34715924,0.9257148000000001,0.084155895,0.2034655,33.18,0.66,32.22
1553498043841,-9.490616000000001,-1.6591818,0.30107087,0.83729786,0.07030745599999999,0.19920446,33.18,1.14,32.46
1553498043861,-9.471461999999999,-1.5251063999999999,0.3477578,0.7041398,0.05752428,0.17470337,33.12,1.68,32.7
1553498043882,-9.4972,-1.2617443000000002,0.52133745,0.5613944000000001,0.053263225,0.14913702,33.06,2.16,32.94
1553498043902,-9.415796,-1.0684125,0.58298814,0.45699844,0.049002163,0.101200126,33.06,2.64,33.12
1553498043921,-9.467871,-0.95827925,0.53450555,0.38349520000000004,0.049002163,0.039414786,33.06,3.06,33.3
1553498043941,-9.543886,-0.99419224,0.49799395,0.29827404,0.033023197000000004,-0.02876214,33.0,3.48,33.48
1553498043964,-9.610325999999999,-1.1821371,0.51954174,0.20133498,0.012783173500000002,-0.07563378,33.0,3.84,33.6
1553498043981,-9.640253,-1.3599066,0.6464345,0.113983296,0.0010652645,-0.08841695,33.0,4.08,33.72
1553498044002,-9.583989,-1.5568296999999998,0.7140707,0.094808534,-0.011717908999999999,-0.084155895,33.0,4.26,33.78
1553498044021,-9.578004,-1.6825253,0.8122329,0.12676647,-0.010652645,-0.07030745599999999,33.0,4.32,33.78
1553498044042,-9.581595,-1.650802,0.84455466,0.19600865,-0.014913702,-0.054328485999999995,33.0,4.32,33.78
1553498044062,-9.60015,-1.7944542,0.82779527,0.28122982,-0.010652645,-0.051132694000000006,33.0,4.38,33.78
1553498044081,-9.680955,-1.8513165,0.7188591,0.37923414,-0.007456851,-0.056459017,32.94,4.56,33.78
1553498044101,-9.747394,-1.7184383,0.7194576,0.44634579999999996,-0.013848438000000001,-0.040480047000000005,32.94,4.68,33.78
1553498044122,-9.694721000000001,-1.5891514,0.7781156,0.49108690000000005,-0.024501082,-0.004261058,32.88,4.92,33.78
1553498044142,-9.58818,-1.5059528,0.7727286,0.48469532,-0.029827405,0.0063915867,32.82,5.16,33.78
1553498044162,-9.601946,-1.4945803999999998,0.85173726,0.46125950000000004,-0.033023197000000004,-0.007456851,32.76,5.52,33.72
1553498044181,-9.588778,-1.46585,0.8870517,0.45273739999999996,-0.03089267,-0.017044231,32.76,5.94,33.72
1553498044201,-9.555858,-1.4580688,0.90500826,0.46978164,-0.022370555,-0.013848438000000001,32.7,6.3,33.66
1553498044222,-9.532514,-1.4143747,0.8690952,0.45273739999999996,-0.018109497,-0.004261058,32.64,6.72,33.6
1553498044242,-9.541492,-1.2946646000000002,0.789488,0.39521313,-0.01917476,0.004261058,32.58,7.02,33.48
1553498044262,-9.49301,-1.1863270000000001,0.7685388000000001,0.2790993,-0.03089267,-0.002130529,32.52,7.32,33.36
1553498044282,-9.500791,-1.1049241,0.7787141,0.13635385,-0.02876214,-0.025566347000000003,32.52,7.62,33.3
1553498044302,-9.528324000000001,-1.1294646000000002,0.8487445,-0.007456851,-0.02876214,-0.051132694000000006,32.52,7.8,33.18
1553498044322,-9.500791,-1.2521674999999999,0.84455466,-0.14594123,-0.023435817999999997,-0.07776430000000001,32.52,7.92,33.06
1553498044341,-9.61272,-1.3640964,0.92775315,-0.23755397,-0.020240024,-0.084155895,32.64,8.1,32.94
1553498044361,-9.589376,-1.4688427,0.93972415,-0.25246766,-0.02876214,-0.07776430000000001,32.64,8.22,32.88
1553498044381,-9.563639,-1.5298948,0.93373865,-0.22690132,-0.023435817999999997,-0.07669904,32.7,8.22,32.88
1553498044405,-9.593566000000001,-1.578976,0.9319430000000001,-0.16618125,-0.022370555,-0.07776430000000001,32.76,8.34,32.82
1553498044423,-9.564238000000001,-1.5652093999999999,0.8714894,-0.13422333,-0.025566347000000003,-0.06924219,32.82,8.46,32.82
1553498044441,-9.5809965,-1.6106992,0.8343792999999999,-0.12250541,-0.027696876000000002,-0.06285059999999999,32.82,8.52,32.82
1553498044461,-9.631275,-1.5251063999999999,0.8146270999999999,-0.13528858,-0.029827405,-0.053263225,32.82,8.58,32.82
1553498044482,-9.618706,-1.4909891000000002,0.79726917,-0.15978967,-0.043675844000000005,-0.049002163,32.88,8.58,32.88
1553498044502,-9.601347,-1.4323312,0.80325466,-0.19813919,-0.05006743,-0.043675844000000005,32.88,8.58,32.88
1553498044522,-9.550469999999999,-1.401805,0.85173726,-0.22903186,-0.06285059999999999,-0.05219796,32.88,8.58,32.94
1553498044542,-9.540894,-1.4652513999999999,0.9552864999999999,-0.25566345,-0.06711166,-0.06391586,32.88,8.52,33.0
1553498044561,-9.487623,-1.5693992,1.0761937,-0.2695119,-0.05006743,-0.07563378,32.94,8.4,33.0
1553498044581,-9.564836,-1.6364368,1.079785,-0.24820662,-0.025566347000000003,-0.06924219,33.0,8.28,33.06
1553498044602,-9.5809965,-1.745373,1.1294646000000002,-0.21731395,-0.012783173500000002,-0.060720075,33.06,8.04,33.06
1553498044622,-9.530719,-1.763928,1.0767921999999999,-0.16618125,-0.0063915867,-0.049002163,33.12,7.86,33.12
1553498044641,-9.548077000000001,-1.7723078,1.1306617,-0.101200126,-0.0053263223,-0.04580637,33.12,7.62,33.12
1553498044661,-9.545682000000001,-1.7878702000000002,1.0773908,-0.033023197000000004,0.011717908999999999,-0.03834952,33.12,7.44,33.12
1553498044682,-9.555858,-1.7328035,0.96306765,0.02130529,0.029827405,-0.024501082,33.12,7.26,33.12
1553498044701,-9.585785000000001,-1.6244658,0.82719666,0.040480047000000005,0.039414786,-0.00958738,33.18,7.08,33.12
1553498044721,-9.576208,-1.5376761,0.6739678000000001,-0.02130529,0.036218993,-0.0010652645,33.18,6.96,33.12
1553498044741,-9.601946,-1.3814543,0.59136784,-0.1587244,0.023435817999999997,0.0,33.12,6.96,33.12
1553498044762,-9.586383999999999,-1.3072342,0.5398925,-0.35153726,0.002130529,-0.010652645,33.12,6.9,33.12
1553498044781,-9.573814,-1.30484,0.50517654,-0.47191215,-0.020240024,-0.033023197000000004,33.12,6.9,33.06
1553498044801,-9.561244,-1.3431472,0.5303157,-0.572047,-0.046871635999999994,-0.043675844000000005,33.06,6.9,33.06
1553498044822,-9.559449,-1.400608,0.5554548,-0.65726817,-0.060720075,-0.049002163,33.06,6.84,33.0
1553498044842,-9.595362,-1.4107834,0.62009823,-0.721184,-0.07882957,-0.06178534,33.06,6.78,33.0
1553498044862,-9.569026,-1.5113398,0.6027403,-0.7755125,-0.096939065,-0.082025364,32.94,6.66,32.94
1553498044882,-9.586383999999999,-1.6089035,0.7188591,-0.8383630999999999,-0.1107875,-0.09161274,32.88,6.54,32.88
1553498044902,-9.509171,-1.7633294999999998,0.9672575000000001,-0.85540736,-0.12463594,-0.09161274,32.82,6.24,32.82
1553498044923,-9.450513,-1.9075803,1.0636241000000002,-0.7850999,-0.10333065,-0.099069595,32.76,5.76,32.82
1553498044941,-9.485228999999999,-2.0368671000000003,1.1486181999999998,-0.6359629,-0.07350325,-0.10013486,32.76,5.34,32.82
1553498044961,-9.482835000000001,-2.0530279,1.1504139,-0.45699844,-0.06285059999999999,-0.08628642,32.82,4.8,32.76
1553498044984,-9.455300999999999,-2.0506337,1.0690111,-0.27590349999999997,-0.05219796,-0.06604639400000001,32.88,4.26,32.7
1553498045003,-9.467871,-2.0332758,1.0145429,-0.12463594,-0.041545313,-0.05752428,32.94,3.66,32.64
1553498045023,-9.471461999999999,-2.0308816000000003,0.9600749,-0.011717908999999999,-0.035153727999999995,-0.05752428,33.06,3.12,32.58
1553498045042,-9.505579,-1.9758148999999998,0.90979666,0.06711166,-0.01917476,-0.053263225,33.18,2.64,32.46
1553498045062,-9.541492,-1.9375077,0.88525605,0.12144015,-0.012783173500000002,-0.036218993,33.24,2.34,32.4
1553498045082,-9.519346,-1.9536686,0.92895025,0.15659387,-0.012783173500000002,-0.02876214,33.36,2.16,32.34
1553498045102,-9.465475999999999,-1.9015948,0.91697925,0.19281286,-0.0053263223,-0.037284255,33.36,2.04,32.28
1553498045121,-9.507974,-1.8836381000000002,0.8972271,0.22264028,0.0010652645,-0.04261058,33.36,1.98,32.16
1553498045141,-9.527725,-1.8806453999999997,0.8972271,0.26205507,0.0053263223,-0.039414786,33.36,1.98,32.16
1553498045162,-9.560047,-1.9159599999999999,0.89184016,0.30466563,0.0063915867,-0.037284255,33.3,1.98,32.16
1553498045182,-9.546878999999999,-1.8602947,0.866701,0.35792887,0.0,-0.03089267,33.3,1.98,32.16
1553498045201,-9.524733,-1.8387468999999996,0.84216046,0.40373522,-0.0031957934000000003,-0.026631612000000002,33.3,2.04,32.16
1553498045221,-9.544485,-1.7214310000000002,0.8750806999999999,0.4250405,-0.007456851,-0.023435817999999997,33.24,2.22,32.16
1553498045242,-9.524733,-1.7345991000000003,0.8774749,0.4282363,-0.00958738,-0.020240024,33.24,2.58,32.22
1553498045261,-9.485827,-1.7340006000000001,0.9660603999999999,0.4048005,-0.0063915867,-0.018109497,33.24,2.82,32.22
1553498045281,-9.502586,-1.7543513,1.0301052,0.39840892,0.002130529,-0.011717908999999999,33.18,3.06,32.22
1553498045302,-9.494805,-1.7567455,1.0211270000000001,0.41758367,0.017044231,-0.004261058,33.18,3.36,32.22
1553498045323,-9.515755,-1.7010802999999999,1.0163386,0.44208476,0.026631612000000002,-0.002130529,33.18,3.6,32.22
1553498045341,-9.545084,-1.6394296000000002,0.99299514,0.46765109999999993,0.034088463,-0.002130529,33.24,3.84,32.22
1553498045361,-9.540894,-1.6023195,0.9271546,0.4708469,0.036218993,-0.007456851,33.24,4.02,32.28
1553498045383,-9.537302,-1.578976,0.92775315,0.45273739999999996,0.037284255,-0.00958738,33.24,4.2,32.34
1553498045402,-9.536105000000001,-1.5610195,0.9391255999999999,0.42397526,0.033023197000000004,-0.013848438000000001,33.24,4.32,32.46
1553498045422,-9.533113,-1.5879543,0.9415198,0.39414784,0.036218993,-0.013848438000000001,33.24,4.56,32.52
1553498045442,-9.585785000000001,-1.572392,0.96905315,0.35579833,0.029827405,-0.013848438000000001,33.3,4.74,32.58
1553498045462,-9.541492,-1.5729905,0.9744401,0.33875409999999995,0.03089267,-0.010652645,33.3,4.98,32.64
1553498045482,-9.554661,-1.5693992,1.062427,0.350472,0.027696876000000002,-0.011717908999999999,33.3,5.16,32.76
1553498045501,-9.507974,-1.6065093000000001,1.0749966,0.4048005,0.03089267,-0.020240024,33.3,5.4,32.82
1553498045522,-9.5385,-1.596334,1.0498575,0.46232477,0.033023197000000004,-0.023435817999999997,33.24,5.76,32.82
1553498045541,-9.5385,-1.5574282,1.0887632,0.5230448000000001,0.03089267,-0.013848438000000001,33.18,5.94,32.82
1553498045561,-9.542689,-1.5783775,1.1180921999999998,0.60507023,0.034088463,-0.008522116,33.12,6.18,32.82
1553498045582,-9.5809965,-1.6496049,1.1982979999999999,0.7616641,0.035153727999999995,-0.011717908999999999,33.06,6.42,32.82
1553498045601,-9.578603,-1.6675615000000001,1.1390414,0.90014845,0.039414786,-0.014913702,33.06,6.6,32.82
1553498045622,-9.583989,-1.5071499,1.0767921999999999,0.98856544,0.043675844000000005,-0.0010652645,32.94,7.08,32.76
1553498045641,-9.60015,-1.3628993,0.9528923,0.99069595,0.04474111,0.03089267,32.82,7.5,32.7
1553498045662,-9.590573,-1.1797429,0.8798690999999998,0.89801794,0.033023197000000004,0.047936900000000005,32.76,7.92,32.7
1553498045682,-9.595362,-1.0636241000000002,0.82480246,0.7339671999999999,0.01917476,0.03089267,32.76,8.34,32.64
1553498045701,-9.587581,-0.99060094,0.88765025,0.58909124,0.013848438000000001,0.011717908999999999,32.7,8.88,32.64
1553498045721,-9.570822,-0.9235633,0.92655605,0.4079963,0.0,-0.0063915867,32.76,9.42,32.64
1553498045741,-9.556455999999999,-0.91817635,0.96546185,0.26631612,-0.0031957934000000003,-0.017044231,32.82,9.96,32.64
1553498045762,-9.578603,-0.9319430000000001,0.99179804,0.16405073,-0.004261058,-0.01917476,32.88,10.56,32.7
1553498045782,-9.566631,-0.9451110999999999,0.97503865,0.07776430000000001,-0.012783173500000002,-0.026631612000000002,32.94,10.92,32.7
1553498045802,-9.542689,-1.0271125,1.0103531,-0.011717908999999999,-0.018109497,-0.047936900000000005,33.06,11.28,32.76
1553498045821,-9.601347,-1.0755951000000001,1.0923545000000001,-0.08522116,-0.020240024,-0.06285059999999999,33.18,11.64,32.76
1553498045843,-9.585187,-1.1731589,1.122282,-0.12357068,-0.029827405,-0.060720075,33.24,11.82,32.82
1553498045861,-9.572617,-1.2156559,1.2126632,-0.112918034,-0.023435817999999997,-0.054328485999999995,33.3,11.94,32.82
1553498045882,-9.537901,-1.2958617000000001,1.258153,-0.053263225,-0.023435817999999997,-0.05752428,33.3,12.06,32.76
1553498045901,-9.570223,-1.3305776000000002,1.216853,0.010652645,-0.02130529,-0.06498113,33.24,12.12,32.76
1553498045921,-9.599552000000001,-1.353921,1.2186487,0.05965481,-0.024501082,-0.058589544,33.24,12.06,32.76
1553498045941,-9.592369,-1.316811,1.2060791000000002,0.10226539,-0.024501082,-0.036218993,33.12,12.0,32.7
1553498045962,-9.585785000000001,-1.3012487,1.2312181999999998,0.11717909,-0.02130529,-0.029827405,33.12,11.94,32.7
1553498045981,-9.559449,-1.2318168,1.2653356000000002,0.14913702,-0.01917476,-0.025566347000000003,33.06,11.94,32.76
1553498046002,-9.532514,-1.1803415000000002,1.2072762,0.17150758,-0.014913702,-0.03195793,33.0,11.88,32.76
1553498046021,-9.563639,-1.1599906999999998,1.2126632,0.16298546,-0.010652645,-0.033023197000000004,33.0,11.88,32.76
1553498046041,-9.5570545,-1.1713632,1.1851299,0.12463594,-0.014913702,-0.026631612000000002,32.94,11.82,32.82
1553498046062,-9.5798,-1.1552023,1.2000936000000002,0.06285059999999999,-0.0053263223,-0.01917476,32.94,11.82,32.88
1553498046081,-9.549872,-1.1623849,1.2366052,0.024501082,-0.0010652645,-0.01917476,33.0,11.88,32.88
1553498046101,-9.549872,-1.1121067,1.2138603000000001,0.00958738,0.0031957934000000003,-0.024501082,33.0,11.94,32.88
1553498046122,-9.545682000000001,-1.1456255,1.2066777,0.00958738,0.004261058,-0.036218993,33.0,12.0,32.94
1553498046142,-9.564238000000001,-1.1348516000000002,1.2108675,0.011717908999999999,0.008522116,-0.043675844000000005,33.0,12.18,32.94
1553498046162,-9.586982,-1.1145009,1.1540052,0.008522116,0.0053263223,-0.037284255,33.06,12.3,32.94
1553498046181,-9.568427,-1.0947487,1.1115081,-0.002130529,-0.002130529,-0.03834952,33.06,12.42,32.94
1553498046204,-9.556455999999999,-1.1360487,1.0869676000000001,-0.02876214,-0.0031957934000000003,-0.04474111,33.06,12.54,32.94
1553498046221,-9.546281,-1.1240777,1.0827777,-0.05539375,-0.008522116,-0.049002163,33.0,12.66,32.94
1553498046243,-9.570822,-1.1965023000000001,1.1384428999999998,-0.07669904,-0.015978966,-0.047936900000000005,33.0,12.72,32.94
1553498046262,-9.534309,-1.2066777,1.1875241,-0.07669904,-0.01917476,-0.04474111,33.0,12.78,32.94
1553498046282,-9.513959,-1.2378023,1.2192471999999999,-0.058589544,-0.01917476,-0.04474111,33.0,12.84,32.94
1553498046302,-9.530719,-1.2012907,1.2473791,-0.034088463,-0.013848438000000001,-0.040480047000000005,33.0,12.78,33.0
1553498046322,-9.540894,-1.1971009,1.2856863,-0.007456851,-0.008522116,-0.037284255,33.0,12.78,33.0
1553498046341,-9.566033000000001,-1.1773487,1.2360066,0.015978966,-0.0010652645,-0.040480047000000005,33.0,12.78,33.0
1553498046361,-9.57142,-1.2024878,1.2425906999999998,0.026631612000000002,-0.0031957934000000003,-0.047936900000000005,33.0,12.72,33.06
1553498046382,-9.521142,-1.1857284,1.2216414,0.015978966,0.0,-0.051132694000000006,33.0,12.72,33.0
1553498046401,-9.511565,-1.1653777,1.2737153,0.0063915867,0.0,-0.047936900000000005,33.0,12.66,32.94
1553498046422,-9.549872,-1.2204443,1.2910733,0.002130529,0.010652645,-0.047936900000000005,33.06,12.66,32.88
1553498046441,-9.610924,-1.1875241,1.3150153,0.002130529,0.026631612000000002,-0.04474111,33.06,12.66,32.88
1553498046461,-9.606135,-1.22224,1.2886791000000002,0.014913702,0.03195793,-0.039414786,33.06,12.6,32.82
1553498046482,-9.615114,-1.2330139,1.2653356000000002,0.039414786,0.040480047000000005,-0.037284255,33.06,12.6,32.7
1553498046501,-9.621099000000001,-1.2593501,1.2000936000000002,0.068176925,0.043675844000000005,-0.033023197000000004,33.06,12.6,32.64
1553498046523,-9.634866,-1.2623428,1.1534066,0.083090626,0.04474111,-0.029827405,33.06,12.6,32.58
1553498046542,-9.556455999999999,-1.2066777,1.1013328000000002,0.08735169,0.036218993,-0.025566347000000003,33.06,12.66,32.58
1553498046562,-9.573814,-1.1797429,1.0887632,0.084155895,0.034088463,-0.020240024,33.06,12.66,32.58
1553498046581,-9.563039999999999,-1.2246342,1.0947487,0.07776430000000001,0.03089267,-0.022370555,33.12,12.66,32.64
1553498046601,-9.572019000000001,-1.2114661,1.1115081,0.06604639400000001,0.036218993,-0.024501082,33.12,12.66,32.64
1553498046621,-9.6049385,-1.1432313,1.0696096000000002,0.07563378,0.02876214,-0.026631612000000002,33.12,12.72,32.7
1553498046643,-9.604341,-1.0959458,1.0013748,0.07137272,0.023435817999999997,-0.027696876000000002,33.06,12.72,32.7
1553498046662,-9.625289,-1.1150993999999999,1.0247183000000002,0.039414786,0.012783173500000002,-0.029827405,33.06,12.72,32.76
1553498046683,-9.621698,-1.1671733999999998,1.0378863999999999,0.008522116,0.002130529,-0.025566347000000003,33.06,12.72,32.76
1553498046703,-9.611523,-1.1486181999999998,1.0684125,-0.012783173500000002,-0.0053263223,-0.018109497,33.06,12.72,32.82
1553498046723,-9.614514999999999,-1.1474211,1.0851719,-0.0010652645,-0.008522116,-0.00958738,33.06,12.72,32.88
1553498046742,-9.556455999999999,-1.1689690000000001,1.0857705,0.024501082,-0.014913702,-0.012783173500000002,33.06,12.66,32.88
1553498046762,-9.594764,-1.1133038,1.055843,0.04261058,-0.02130529,-0.015978966,33.0,12.66,32.88
1553498046782,-9.625888,-1.0414777,1.1210848999999998,0.040480047000000005,-0.029827405,-0.011717908999999999,32.94,12.66,32.88
1553498046801,-9.504382000000001,-1.0498575,1.1264718999999999,0.024501082,-0.026631612000000002,-0.013848438000000001,32.88,12.66,32.88
1553498046822,-9.536703999999999,-1.0432734000000001,1.1701661,-0.011717908999999999,-0.010652645,-0.026631612000000002,32.88,12.66,32.94
1553498046841,-9.584588,-1.0480618,1.1773487,-0.03834952,0.0010652645,-0.029827405,32.88,12.6,33.0
1553498046861,-9.550469999999999,-1.1402385,1.1851299,-0.05006743,0.0031957934000000003,-0.025566347000000003,32.88,12.6,33.0
1553498046882,-9.566631,-1.1360487,1.1480197,-0.03834952,0.008522116,-0.024501082,32.82,12.6,33.06
1553498046902,-9.610924,-1.146224,1.1420341999999999,-0.026631612000000002,0.007456851,-0.027696876000000002,32.82,12.54,33.06
1553498046921,-9.5732155,-1.158195,1.1097125,-0.03195793,0.0063915867,-0.020240024,32.88,12.54,33.06
1553498046941,-9.550469999999999,-1.1204863999999999,1.1372458,-0.03089267,0.0063915867,-0.014913702,32.88,12.54,33.06
1553498046962,-9.551667,-0.9923966000000001,1.06123,-0.03195793,0.013848438000000001,-0.027696876000000002,32.88,12.54,33.06
1553498046982,-9.602545,-0.93732995,0.9415198,-0.07456851,0.0063915867,-0.037284255,32.88,12.54,33.0
1553498047002,-9.621099000000001,-0.85772276,0.8714894,-0.18855181,-0.002130529,-0.03834952,32.88,12.54,32.94
1553498047022,-9.574411999999999,-0.7745243,0.75357497,-0.4016047,-0.008522116,-0.037284255,32.88,12.6,32.94
1553498047041,-9.587581,-0.7026982,0.7326256999999999,-0.6679208000000001,-0.002130529,-0.043675844000000005,32.82,12.6,32.88
1553498047061,-9.611523,-0.8451531999999999,0.80086046,-0.8841694999999999,-0.007456851,-0.06711166,32.82,12.54,32.88
1553498047083,-9.569026,-1.1330559,0.9415198,-0.9757822,-0.012783173500000002,-0.098004326,32.82,12.36,32.82
1553498047102,-9.618706,-1.3503298000000001,1.0767921999999999,-0.9374326999999999,-0.022370555,-0.10972224,32.82,12.0,32.82
1553498047122,-9.636662,-1.4143747,1.0875661,-0.8245146999999999,-0.025566347000000003,-0.08628642,32.82,11.7,32.82
1553498047142,-9.610325999999999,-1.417966,1.0965444,-0.7275756,-0.024501082,-0.053263225,32.88,11.34,32.88
1553498047162,-9.563039999999999,-1.4012065,1.0456676,-0.67537767,-0.025566347000000003,-0.05752428,32.88,10.92,32.88
1553498047182,-9.57142,-1.3970166000000002,0.96067345,-0.6508765999999999,-0.017044231,-0.07669904,32.82,10.5,32.88
1553498047201,-9.585785000000001,-1.5400703000000002,1.0606314,-0.60293967,-0.02876214,-0.083090626,32.76,9.9,32.88
1553498047222,-9.561244,-1.5269021,1.1725603,-0.47723848,-0.02130529,-0.07882957,32.7,9.24,32.88
1553498047242,-9.583391,-1.620276,1.1707646999999999,-0.294013,-0.00958738,-0.06924219,32.7,8.82,32.94
1553498047262,-9.606734,-1.6358383,1.0785878999999998,-0.11824436,-0.010652645,-0.06178534,32.64,8.46,32.94
1553498047282,-9.597756,-1.6220716,1.0384849,0.053263225,-0.008522116,-0.051132694000000006,32.64,8.1,32.94
1553498047301,-9.607333,-1.5795746000000002,0.9552864999999999,0.111852765,-0.0031957934000000003,-0.040480047000000005,32.64,7.8,33.0
1553498047322,-9.607930999999999,-1.4395138,0.95708215,0.12783173,0.004261058,-0.020240024,32.7,7.5,33.0
1553498047341,-9.563039999999999,-1.3509283,0.9439139999999999,0.11504856,0.0010652645,-0.013848438000000001,32.76,7.26,33.06
1553498047362,-9.5570545,-1.3006501,0.87208796,0.084155895,0.0,-0.023435817999999997,32.88,7.2,33.06
1553498047382,-9.560646,-1.2892777,0.8595184000000001,0.035153727999999995,0.0,-0.039414786,32.94,7.2,33.12
1553498047402,-9.569624000000001,-1.2707225,0.84934306,-0.020240024,0.0010652645,-0.046871635999999994,33.0,7.2,33.12
1553498047421,-9.591172,-1.2910733,0.85413146,-0.07563378,-0.007456851,-0.051132694000000006,33.0,7.2,33.12
1553498047442,-9.572617,-1.3347674999999999,0.8984242,-0.111852765,-0.012783173500000002,-0.053263225,33.06,7.26,33.18
1553498047462,-9.5570545,-1.3970166000000002,0.97144735,-0.10972224,-0.013848438000000001,-0.05752428,33.06,7.26,33.18
1553498047482,-9.594165,-1.4454993,1.0360907,-0.07137272,-0.014913702,-0.05965481,33.0,7.26,33.18
1553498047502,-9.585187,-1.5125369,1.0468647,-0.0063915867,-0.0053263223,-0.05752428,33.0,7.26,33.18
1553498047522,-9.604341,-1.489792,1.0366893,0.05965481,-0.002130529,-0.05006743,32.94,7.26,33.12
1553498047541,-9.592967999999999,-1.4909891000000002,0.9756372,0.10013486,0.0010652645,-0.04261058,32.88,7.26,33.12
1553498047561,-9.572019000000001,-1.4802152,0.9696517,0.12570119999999999,0.0,-0.03834952,32.82,7.26,33.12
1553498047582,-9.562441999999999,-1.4323312,0.9355343,0.13741912,0.0063915867,-0.039414786,32.82,7.26,33.12
1553498047602,-9.5492735,-1.3838485,0.93134445,0.12463594,0.012783173500000002,-0.03834952,32.76,7.2,33.12
1553498047622,-9.5492735,-1.3180081,0.89184016,0.10333065,0.017044231,-0.035153727999999995,32.76,7.2,33.12
1553498047641,-9.578004,-1.2952632,0.83258367,0.05539375,0.01917476,-0.039414786,32.76,7.2,33.18
1553498047661,-9.586982,-1.30484,0.84335756,0.00958738,0.013848438000000001,-0.05006743,32.82,7.2,33.18
1553498047681,-9.588778,-1.3509283,0.83258367,-0.029827405,0.0063915867,-0.056459017,32.82,7.2,33.18
1553498047702,-9.568427,-1.38325,0.8595184000000001,-0.040480047000000005,0.0,-0.054328485999999995,32.88,7.2,33.18
1553498047722,-9.594165,-1.4059948999999998,0.89782566,-0.026631612000000002,-0.0053263223,-0.049002163,32.94,7.2,33.18
1553498047742,-9.566631,-1.4203602,0.9163806999999999,0.0053263223,-0.007456851,-0.04474111,33.0,7.26,33.18
1553498047762,-9.601347,-1.441908,0.93014735,0.02130529,-0.008522116,-0.049002163,33.06,7.32,33.18
1553498047781,-9.596559,-1.4305356000000002,0.94331545,0.03195793,-0.010652645,-0.04580637,33.06,7.38,33.18
1553498047802,-9.566033000000001,-1.436521,0.99778354,0.06178534,-0.015978966,-0.04474111,33.06,7.44,33.12
1553498047821,-9.5385,-1.4520833,1.0061632,0.09587380000000001,-0.015978966,-0.047936900000000005,33.12,7.5,33.12
1553498047844,-9.548077000000001,-1.4766238999999999,0.99060094,0.1587244,-0.018109497,-0.05539375,33.12,7.5,33.18
1553498047861,-9.518148,-1.5646108,1.1168951,0.257794,-0.02130529,-0.06391586,33.12,7.56,33.18
1553498047884,-9.556455999999999,-1.6095021,1.1976993999999999,0.36432046,-0.0053263223,-0.058589544,33.12,7.62,33.18
1553498047903,-9.599552000000001,-1.6448165000000001,1.1923125,0.46019423,0.0031957934000000003,-0.04474111,33.12,7.62,33.18
1553498047922,-9.621698,-1.6364368,1.1569979,0.58483016,0.013848438000000001,-0.023435817999999997,33.12,7.68,33.18
1553498047943,-9.619304,-1.5741876000000001,1.1079168,0.70200926,0.010652645,-0.015978966,33.12,7.8,33.18
1553498047962,-9.576208,-1.5280992,1.1540052,0.7819041,0.012783173500000002,-0.012783173500000002,33.18,7.98,33.12
1553498047982,-9.528324000000001,-1.4101848999999997,1.1348516000000002,0.8202536,0.029827405,-0.004261058,33.18,8.28,33.12
1553498048002,-9.5732155,-1.3802572,1.1216834999999998,0.8330368,0.046871635999999994,0.004261058,33.12,8.58,33.12
1553498048022,-9.577405,-1.3227965,1.091756,0.8127968000000001,0.058589544,0.011717908999999999,33.12,8.82,33.12
1553498048041,-9.592967999999999,-1.2330139,1.0187328000000002,0.7755125,0.06285059999999999,0.018109497,33.06,9.12,33.12
1553498048061,-9.59177,-1.2054806,1.0235212,0.7392935,0.06178534,0.020240024,32.88,9.42,33.12
1553498048082,-9.61272,-1.1480197,0.9451110999999999,0.7094661,0.058589544,0.020240024,32.76,9.78,33.12
1553498048102,-9.621698,-1.1186907,0.91338795,0.68816084,0.04580637,0.01917476,32.64,10.26,33.12
1553498048122,-9.607333,-1.0103531,0.97623575,0.6508765999999999,0.037284255,0.017044231,32.52,10.86,33.18
1553498048141,-9.55885,-0.9876082,1.0702082,0.608266,0.033023197000000004,0.013848438000000001,32.4,11.28,33.18
1553498048161,-9.552266,-0.96067345,1.1575965,0.57098174,0.056459017,0.011717908999999999,32.34,11.76,33.18
1553498048181,-9.602545,-0.97503865,1.1216834999999998,0.55074173,0.07030745599999999,0.0053263223,32.28,12.24,33.18
1553498048201,-9.636662,-0.9439139999999999,1.1294646000000002,0.5475459,0.07456851,0.002130529,32.28,12.66,33.24
1553498048221,-9.60853,-1.0480618,1.1773487,0.56672066,0.07350325,0.0,32.34,13.14,33.24
1553498048241,-9.594165,-1.0594343000000002,1.2366052,0.60720074,0.08628642,0.0031957934000000003,32.34,13.5,33.24
1553498048262,-9.588778,-1.0235212,1.1827357,0.7073356,0.10546118,0.008522116,32.4,13.74,33.24
1553498048281,-9.643844999999999,-0.97384155,1.1079168,0.8245146999999999,0.10546118,0.013848438000000001,32.4,13.98,33.24
1553498048302,-9.669582,-0.85532856,0.94451255,0.9033443000000001,0.10013486,0.017044231,32.46,14.28,33.3
1553498048322,-9.678560000000001,-0.7032967,0.7326256999999999,0.9225190000000001,0.07989483,0.017044231,32.46,14.64,33.3
1553498048342,-9.698313,-0.55964464,0.66618663,0.8447546999999999,0.053263225,0.012783173500000002,32.46,15.12,33.3
1553498048361,-9.665991,-0.39983168,0.59017074,0.6668556,0.03089267,0.0063915867,32.46,15.6,33.3
1553498048382,-9.636662,-0.34895490000000007,0.59974754,0.4314321,0.008522116,-0.0063915867,32.4,16.14,33.3
1553498048402,-9.621099000000001,-0.32800564,0.7032967,0.19281286,-0.004261058,-0.017044231,32.4,16.68,33.24
1553498048422,-9.619903,-0.37708676,0.7667431,-0.008522116,-0.01917476,-0.027696876000000002,32.46,17.1,33.24
1553498048442,-9.667188000000001,-0.45549688,0.93613285,-0.11930962,-0.02130529,-0.035153727999999995,32.46,17.46,33.18
1553498048461,-9.64145,-0.53211135,1.0384849,-0.19707392,-0.025566347000000003,-0.046871635999999994,32.46,17.82,33.12
1553498048482,-9.640852,-0.6374562,1.062427,-0.2066613,-0.026631612000000002,-0.060720075,32.46,18.06,33.06
1553498048502,-9.67018,-0.7637503000000001,1.1037270000000001,-0.18322548,-0.027696876000000002,-0.06178534,32.46,18.3,33.0
1553498048523,-9.633071000000001,-0.7846996,1.1641805,-0.12250541,-0.033023197000000004,-0.053263225,32.46,18.48,33.0
1553498048542,-9.60015,-0.85173726,1.2060791000000002,-0.046871635999999994,-0.029827405,-0.05219796,32.46,18.6,32.88
1553498048563,-9.597756,-0.8331822,1.1474211,0.011717908999999999,-0.015978966,-0.043675844000000005,32.46,18.6,32.88
1553498048583,-9.625289,-0.8038531999999999,1.1647792,0.03195793,-0.012783173500000002,-0.035153727999999995,32.4,18.6,32.88
1553498048602,-9.639056,-0.76195467,1.0989386,0.047936900000000005,-0.007456851,-0.025566347000000003,32.4,18.6,32.82
1553498048621,-9.597756,-0.700304,1.0947487,0.035153727999999995,-0.0010652645,-0.029827405,32.4,18.6,32.76
1553498048642,-9.628283,-0.6973111999999999,1.073201,0.008522116,0.004261058,-0.037284255,32.4,18.48,32.7
1553498048661,-9.639056,-0.7182605,1.0444705,-0.018109497,0.002130529,-0.037284255,32.4,18.42,32.64
1553498048682,-9.649231,-0.748188,1.0618285,-0.05539375,-0.002130529,-0.029827405,32.46,18.24,32.64
1553498048702,-9.642049,-0.7505821999999999,1.1145009,-0.06498113,0.0031957934000000003,-0.026631612000000002,32.52,18.18,32.64
1553498048721,-9.612122,-0.741604,1.1204863999999999,-0.054328485999999995,0.002130529,-0.03089267,32.52,18.12,32.7
1553498048741,-9.624691,-0.7212533,1.1198878,-0.023435817999999997,0.002130529,-0.037284255,32.58,18.0,32.76
1553498048762,-9.639654,-0.717662,1.0564415,0.014913702,-0.004261058,-0.041545313,32.64,18.0,32.82
1553498048781,-9.628283,-0.7212533,1.0833763,0.039414786,-0.007456851,-0.040480047000000005,32.7,18.0,32.88
1553498048801,-9.634866,-0.7044938000000001,1.110311,0.05539375,-0.012783173500000002,-0.039414786,32.7,18.0,32.94
1553498048822,-9.627085000000001,-0.7182605,1.0588357,0.07243799,-0.012783173500000002,-0.03834952,32.7,18.0,33.0
1553498048842,-9.598353999999999,-0.682946,0.9923966000000001,0.084155895,-0.01917476,-0.039414786,32.7,18.0,33.06
1553498048862,-9.628283,-0.6667852,1.027711,0.084155895,-0.025566347000000003,-0.037284255,32.7,18.0,33.06
1553498048882,-9.654618,-0.6901286,1.0169370999999998,0.07137272,-0.023435817999999997,-0.040480047000000005,32.64,18.0,33.0
1553498048901,-9.665991,-0.6775591,0.997185,0.054328485999999995,-0.025566347000000003,-0.03834952,32.64,18.06,32.94
1553498048921,-9.653421,-0.6691794,1.1013328000000002,0.034088463,-0.023435817999999997,-0.034088463,32.58,18.06,32.82
1553498048942,-9.603143,-0.70509243,1.1450268999999997,0.02876214,-0.01917476,-0.04261058,32.58,18.06,32.76
1553498048962,-9.642648,-0.700304,1.1528081000000001,0.041545313,-0.026631612000000002,-0.053263225,32.58,18.06,32.76
1553498048981,-9.626487,-0.694917,1.1803415000000002,0.05219796,-0.029827405,-0.05539375,32.58,18.06,32.7
1553498049001,-9.643844999999999,-0.7206547,1.1833341999999998,0.083090626,-0.026631612000000002,-0.05219796,32.52,18.06,32.7
1553498049021,-9.607930999999999,-0.7673416999999999,1.1941081,0.14061491,-0.022370555,-0.058589544,32.52,18.06,32.7
1553498049041,-9.606135,-0.8122329,1.2401965,0.18748654,-0.011717908999999999,-0.06178534,32.52,18.12,32.7
1553498049061,-9.655217,-0.7769185000000001,1.1899183,0.23116238,-0.012783173500000002,-0.05006743,32.52,18.12,32.76
1553498049082,-9.625289,-0.6913256999999999,1.1414356,0.24501082,-0.008522116,-0.029827405,32.58,18.18,32.76
1553498049102,-9.6288805,-0.6488286999999999,1.079785,0.23861924,-0.010652645,-0.02876214,32.7,18.18,32.82
1553498049121,-9.622895,-0.62608373,1.0989386,0.20240025,-0.007456851,-0.041545313,32.76,18.24,32.82
1553498049142,-9.632472,-0.5943606,1.091756,0.1438107,-0.0053263223,-0.047936900000000005,32.82,18.3,32.76
1553498049162,-9.673173,-0.59735334,1.127669,0.08628642,0.0,-0.041545313,32.88,18.42,32.7
1553498049181,-9.635465,-0.65242,1.0833763,0.035153727999999995,0.0,-0.041545313,32.88,18.66,32.7
1553498049201,-9.654019,-0.6745663000000001,1.0702082,0.0031957934000000003,-0.0010652645,-0.043675844000000005,32.88,18.9,32.64
1553498049222,-9.665991,-0.7290344,1.0737995,-0.023435817999999997,-0.004261058,-0.04261058,32.88,19.14,32.52
1553498049242,-9.620500999999999,-0.7224503999999999,1.1300632,-0.02130529,-0.008522116,-0.037284255,32.88,19.38,32.46
1553498049261,-9.64145,-0.7308300999999999,1.1569979,0.007456851,-0.00958738,-0.029827405,32.82,19.56,32.4
1553498049281,-9.647436,-0.6955156,1.1558008,0.03089267,-0.012783173500000002,-0.023435817999999997,32.76,19.74,32.34
1553498049302,-9.622296,-0.6817489000000001,1.1504139,0.053263225,-0.012783173500000002,-0.022370555,32.76,19.92,32.28
1553498049322,-9.606135,-0.64583594,1.1737574,0.06604639400000001,-0.015978966,-0.02130529,32.76,20.04,32.28
1553498049342,-9.647436,-0.6063316,1.1695676000000002,0.068176925,-0.013848438000000001,-0.02130529,32.82,20.1,32.28
1553498049361,-9.583391,-0.6428431,1.1414356,0.046871635999999994,-0.014913702,-0.023435817999999997,32.82,20.04,32.22
1553498049381,-9.602545,-0.6338649000000001,1.163582,0.020240024,-0.00958738,-0.024501082,32.88,20.04,32.22
1553498049403,-9.597756,-0.6733691999999999,1.1725603,0.0063915867,-0.007456851,-0.017044231,32.88,19.98,32.22
1553498049422,-9.60015,-0.6841431,1.2360066,0.024501082,-0.0031957934000000003,-0.020240024,32.88,19.98,32.16
1553498049441,-9.626487,-0.6739678000000001,1.2348095,0.049002163,-0.0010652645,-0.026631612000000002,32.88,19.98,32.16
1553498049461,-9.660604,-0.6619968,1.1785458,0.07882957,-0.0010652645,-0.026631612000000002,32.88,19.92,32.16
1553498049482,-9.661202000000001,-0.61770403,1.1611878,0.08735169,0.0,-0.022370555,32.88,19.92,32.16
1553498049502,-9.637858999999999,-0.6266823,1.1857284,0.082025364,-0.0053263223,-0.01917476,32.82,19.92,32.16
1553498049521,-9.609727000000001,-0.587178,1.1671733999999998,0.080960095,-0.002130529,-0.02130529,32.82,19.92,32.16
1553498049542,-9.619903,-0.5638345,1.1833341999999998,0.08522116,0.0,-0.023435817999999997,32.82,19.92,32.16
1553498049561,-9.640253,-0.545878,1.1659763,0.07989483,0.004261058,-0.024501082,32.82,19.92,32.16
1553498049582,-9.658808,-0.55844754,1.1605892,0.06924219,0.0031957934000000003,-0.022370555,32.82,19.92,32.16
1553498049601,-9.625888,-0.56443304,1.1228806,0.05965481,0.004261058,-0.022370555,32.76,19.92,32.16
1553498049622,-9.619304,-0.5578489999999999,1.1121067,0.05539375,0.0053263223,-0.026631612000000002,32.76,19.92,32.16
1553498049643,-9.636064,-0.57041854,1.122282,0.058589544,-0.0031957934000000003,-0.03089267,32.7,19.92,32.16
1553498049663,-9.640852,-0.55485624,1.1348516000000002,0.05752428,-0.004261058,-0.03195793,32.7,19.92,32.16
1553498049682,-9.653421,-0.5506664000000001,1.1474211,0.04474111,-0.0063915867,-0.034088463,32.7,19.92,32.16
1553498049702,-9.657611,-0.57281274,1.1282675,0.023435817999999997,-0.0031957934000000003,-0.033023197000000004,32.7,19.86,32.16
1553498049721,-9.64145,-0.5991489999999999,1.2234371000000002,0.010652645,-0.0031957934000000003,-0.03089267,32.7,19.86,32.16
1553498049742,-9.596559,-0.62368953,1.2042834999999998,0.01917476,0.0,-0.029827405,32.7,19.86,32.16
1553498049761,-9.633669,-0.62009823,1.2330139,0.041545313,0.007456851,-0.025566347000000003,32.76,19.86,32.16
1553498049781,-9.643246000000001,-0.60333884,1.2156559,0.07137272,0.010652645,-0.02130529,32.82,19.86,32.16
1553498049802,-9.607333,-0.5722142,1.1869254999999999,0.09267801,0.010652645,-0.020240024,32.88,19.86,32.1
1553498049821,-9.657611,-0.5093664000000001,1.1653777,0.101200126,0.010652645,-0.01917476,32.94,19.86,32.1
1553498049841,-9.698911,-0.50397944,1.1366472,0.098004326,0.008522116,-0.022370555,32.94,19.92,32.1
1553498049862,-9.615114,-0.51355624,1.1115081,0.083090626,0.0063915867,-0.036218993,32.94,19.98,32.04
1553498049881,-9.610924,-0.48542440000000003,1.0582372,0.06711166,0.0063915867,-0.043675844000000005,33.0,20.04,32.04
1553498049901,-9.636064,-0.49200845,1.1324573999999998,0.02876214,0.010652645,-0.03089267,33.06,20.16,32.04
1553498049922,-9.592369,-0.46267948,1.1749545,0.013848438000000001,0.013848438000000001,-0.025566347000000003,33.12,20.22,31.98
1553498049942,-9.619304,-0.5129577000000001,1.0851719,0.00958738,0.017044231,-0.035153727999999995,33.12,20.28,31.92
1553498049961,-9.630077,-0.43155485,1.0959458,-0.0010652645,0.011717908999999999,-0.046871635999999994,33.06,20.28,31.92
1553498049981,-9.626487,-0.43754035,1.0857705,-0.002130529,0.007456851,-0.051132694000000006,33.0,20.28,31.86
1553498050001,-9.646238,-0.42257659999999997,1.0103531,-0.025566347000000003,0.002130529,-0.05219796,32.94,20.28,31.86
1553498050022,-9.67018,-0.41180268,0.9840169,-0.06711166,-0.004261058,-0.05539375,32.82,20.16,31.8
1553498050042,-9.622895,-0.39803603,0.91099375,-0.13102753,-0.011717908999999999,-0.060720075,32.7,20.1,31.74
1553498050062,-9.643246000000001,-0.36152446,0.7966706,-0.25672874,-0.018109497,-0.05965481,32.64,20.04,31.74
1553498050082,-9.66659,-0.29867667,0.7404069000000001,-0.39201729999999996,-0.023435817999999997,-0.051132694000000006,32.52,19.98,31.74
1553498050101,-9.60853,-0.29807812,0.6787562,-0.5944176,-0.029827405,-0.05219796,32.4,19.92,31.8
1553498050123,-9.646238,-0.3645172,0.6183026,-0.7819041,-0.046871635999999994,-0.07243799,32.4,19.92,31.86
1553498050143,-9.68694,-0.5446809,0.6895300999999999,-0.9171927,-0.07669904,-0.09374327,32.34,19.92,31.92
1553498050163,-9.671975999999999,-0.7990648,0.6817489000000001,-0.9821738000000001,-0.10972224,-0.10333065,32.34,19.92,32.04
1553498050186,-9.706693,-1.0049661,0.79248077,-0.9938916999999999,-0.13528858,-0.08841695,32.34,19.92,32.1
1553498050203,-9.762955999999999,-1.1162965,1.1575965,-0.91612744,-0.18429075,-0.05965481,32.34,19.8,32.16
1553498050221,-9.627085000000001,-1.163582,1.4945803999999998,-0.7126619000000001,-0.19068234,-0.03834952,32.34,19.56,32.22
1553498050241,-9.539098,-1.1510124,1.6502035,-0.43249738,-0.1768339,-0.03089267,32.34,19.14,32.34
1553498050262,-9.598353999999999,-0.9744401,1.6669630000000002,-0.18429075,-0.14913702,-0.025566347000000003,32.34,18.72,32.4
1553498050282,-9.601946,-0.8702923,1.6178818000000001,-0.037284255,-0.12144015,-0.013848438000000001,32.34,18.18,32.46
1553498050302,-9.545682000000001,-0.84934306,1.5490485,0.01917476,-0.08735169,-0.020240024,32.34,17.7,32.52
1553498050321,-9.566631,-0.80684596,1.4239515,-0.008522116,-0.05539375,-0.033023197000000004,32.34,17.22,32.58
1553498050341,-9.606734,-0.74399817,1.3006501,-0.09374327,-0.035153727999999995,-0.029827405,32.4,16.8,32.64
1553498050363,-9.58818,-0.6919243,1.2509704,-0.23009712,-0.029827405,-0.011717908999999999,32.52,16.26,32.7
1553498050382,-9.535507,-0.6979098000000001,1.228824,-0.31318775,-0.023435817999999997,-0.014913702,32.58,16.14,32.7
1553498050402,-9.540296000000001,-0.7882909,1.2665327,-0.34940675,-0.026631612000000002,-0.029827405,32.64,16.08,32.7
1553498050421,-9.564238000000001,-0.9163806999999999,1.2934675,-0.33449304,-0.026631612000000002,-0.039414786,32.7,16.02,32.76
1553498050442,-9.622296,-1.0055646999999999,1.4251486,-0.26844665,-0.029827405,-0.02876214,32.82,15.96,32.7
1553498050462,-9.575011,-1.0169370999999998,1.5819688,-0.11504856,-0.02876214,-0.01917476,32.82,15.84,32.76
1553498050482,-9.601946,-1.0354922,1.5646108,0.068176925,-0.010652645,-0.017044231,32.82,15.72,32.76
1553498050502,-9.658808,-1.0133458,1.5897499,0.23329292,-0.008522116,-0.008522116,32.76,15.54,32.76
1553498050522,-9.603742,-0.9672575000000001,1.5837643999999997,0.386691,0.007456851,-0.012783173500000002,32.76,15.36,32.82
1553498050542,-9.555259,-0.8619126,1.5436616,0.51665324,0.018109497,-0.022370555,32.82,15.18,32.82
1553498050561,-9.523536,-0.78529817,1.4089876000000001,0.57417756,0.040480047000000005,-0.02130529,32.88,15.0,32.88
1553498050582,-9.547478,-0.670975,1.1414356,0.5368933000000001,0.05752428,-0.0053263223,32.88,14.88,32.82
1553498050601,-9.595362,-0.53211135,0.7966706,0.4079963,0.05219796,0.002130529,32.94,14.76,32.76
1553498050621,-9.670779,-0.3681085,0.4770447,0.25672874,0.026631612000000002,0.0010652645,33.0,14.7,32.7
1553498050641,-9.709685,-0.25378537,0.33039984,-0.004261058,-0.041545313,-0.014913702,33.12,14.76,32.64
1553498050662,-9.635465,-0.21308395,0.51355624,-0.3334278,-0.13102753,-0.046871635999999994,33.18,14.94,32.58
1553498050682,-9.629479,-0.33399114,0.8463503000000001,-0.4878911,-0.1768339,-0.07563378,33.24,15.12,32.52
1553498050701,-9.59177,-0.4818331,1.2348095,-0.5230448000000001,-0.19600865,-0.10226539,33.3,15.3,32.46
1553498050721,-9.543886,-0.64703304,1.4167688999999999,-0.49960902,-0.20240025,-0.11717909,33.3,15.48,32.4
1553498050742,-9.55885,-0.8038531999999999,1.5556326,-0.45167214,-0.19707392,-0.12676647,33.3,15.6,32.4
1553498050761,-9.562441999999999,-0.94810385,1.7603368000000001,-0.41864893,-0.18748654,-0.11824436,33.36,15.72,32.34
1553498050782,-9.479841,-1.0618285,1.8926164,-0.37390783,-0.15765914,-0.10865697,33.36,15.78,32.34
1553498050802,-9.46847,-1.1115081,2.005144,-0.2972088,-0.11930962,-0.10333065,33.42,15.84,32.28
1553498050822,-9.499594,-1.1546037,1.9135658,-0.20240025,-0.07350325,-0.09054748,33.42,15.78,32.22
1553498050842,-9.597756,-1.1216834999999998,1.9464860000000002,-0.13422333,-0.040480047000000005,-0.05539375,33.42,15.66,32.16
1553498050861,-9.500791,-1.0851719,1.8537107,-0.046871635999999994,-0.0053263223,-0.04261058,33.42,15.54,32.16
1553498050881,-9.533113,-1.0636241000000002,1.6771383000000002,0.020240024,0.02130529,-0.05006743,33.48,15.36,32.1
1553498050903,-9.585785000000001,-0.9660603999999999,1.5586253,0.05006743,0.02130529,-0.041545313,33.48,15.18,32.04
1553498050924,-9.536703999999999,-0.9564835999999999,1.4820108,0.060720075,0.024501082,-0.033023197000000004,33.42,15.0,32.04
1553498050941,-9.533711,-0.94211835,1.4377182,0.037284255,0.025566347000000003,-0.035153727999999995,33.48,14.82,31.98
1553498050961,-9.541492,-0.90979666,1.4460978999999998,0.0031957934000000003,0.020240024,-0.036218993,33.48,14.64,31.98
1553498050983,-9.548675,-0.85293436,1.4634558000000002,-0.018109497,0.020240024,-0.03834952,33.48,14.52,31.98
1553498051002,-9.536703999999999,-0.8900445,1.4694413,-0.024501082,0.015978966,-0.04261058,33.48,14.4,31.98
1553498051021,-9.548077000000001,-0.8583213,1.4425066,-0.027696876000000002,0.017044231,-0.047936900000000005,33.48,14.34,31.98
1553498051042,-9.5732155,-0.8499416,1.4838065,-0.047936900000000005,0.01917476,-0.046871635999999994,33.54,14.28,32.04
1553498051062,-9.5570545,-0.82360536,1.4772223999999998,-0.08522116,0.01917476,-0.046871635999999994,33.54,14.34,32.04
1553498051082,-9.488221000000001,-0.8595184000000001,1.3880384,-0.13741912,0.02130529,-0.051132694000000006,33.6,14.34,32.1
1553498051102,-9.535507,-0.89184016,1.3802572,-0.20559604,0.01917476,-0.05219796,33.6,14.34,32.1
1553498051121,-9.542689,-0.9151836,1.4059948999999998,-0.26525086,0.017044231,-0.04580637,33.66,14.34,32.1
1553498051142,-9.519346,-0.90500826,1.4407108999999998,-0.2908172,0.025566347000000003,-0.047936900000000005,33.66,14.4,32.04
1553498051162,-9.545682000000001,-0.99060094,1.4227544,-0.2972088,0.035153727999999995,-0.053263225,33.66,14.4,31.98
1553498051181,-9.610924,-0.9852139999999999,1.4389153000000001,-0.29614353,0.03834952,-0.053263225,33.72,14.4,31.98
1553498051201,-9.591172,-1.0881646999999999,1.3778629999999998,-0.26418558,0.037284255,-0.043675844000000005,33.72,14.4,31.98
1553498051222,-9.604341,-1.1492168,1.3808558000000002,-0.18429075,0.03089267,-0.041545313,33.72,14.34,32.04
1553498051242,-9.568427,-1.1785458,1.4443021999999999,-0.09054748,0.020240024,-0.05006743,33.72,14.28,32.16
1553498051262,-9.602545,-1.2425906999999998,1.5448587,0.047936900000000005,0.00958738,-0.056459017,33.66,14.16,32.22
1553498051282,-9.576807,-1.3000516000000002,1.6286557,0.22583607,0.011717908999999999,-0.051132694000000006,33.6,14.1,32.34
1553498051304,-9.540296000000001,-1.282095,1.6555905,0.43249738,0.014913702,-0.043675844000000005,33.54,13.98,32.46
1553498051322,-9.563039999999999,-1.1599906999999998,1.5993267,0.6146576,0.026631612000000002,-0.034088463,33.48,13.92,32.58
1553498051341,-9.574411999999999,-1.0588357,1.4951789,0.73290193,0.034088463,-0.017044231,33.42,13.8,32.7
1553498051361,-9.564836,-0.9708488000000001,1.4766238999999999,0.78936094,0.04261058,-0.014913702,33.36,13.74,32.76
1553498051382,-9.54209,-0.94092125,1.4999673,0.8213189000000001,0.047936900000000005,-0.023435817999999997,33.3,13.74,32.76
1553498051402,-9.546281,-0.9139864999999999,1.496376,0.85540736,0.06285059999999999,-0.033023197000000004,33.3,13.74,32.76
1553498051422,-9.564238000000001,-0.8158241999999999,1.3988123,0.8586031999999999,0.07137272,-0.026631612000000002,33.3,13.86,32.76
1553498051442,-9.531916,-0.5919664000000001,1.2599486,0.79255676,0.07030745599999999,-0.011717908999999999,33.24,14.16,32.76
1553498051462,-9.5385,-0.5303157,1.1174936000000002,0.6562029,0.07137272,-0.013848438000000001,33.24,14.52,32.76
1553498051482,-9.547478,-0.5129577000000001,1.0642227,0.46871635,0.05752428,-0.03195793,33.18,14.82,32.7
1553498051502,-9.541492,-0.5710170999999999,1.2042834999999998,0.29188246,0.04474111,-0.060720075,33.12,15.24,32.58
1553498051521,-9.572019000000001,-0.7248446,1.2503718000000001,0.25992453,0.039414786,-0.07243799,33.06,15.6,32.46
1553498051542,-9.667188000000001,-0.8319851,1.3856442,0.31105720000000003,0.03834952,-0.07137272,33.0,16.02,32.34
1553498051562,-9.652225,-0.83018947,1.3563153000000001,0.38775626,0.02876214,-0.046871635999999994,32.88,16.44,32.22
1553498051582,-9.642049,-0.7787141,1.347337,0.43995422,0.018109497,-0.03195793,32.82,16.8,32.1
1553498051601,-9.610325999999999,-0.7128736,1.3551182,0.46978164,0.011717908999999999,-0.02876214,32.76,16.98,31.98
1553498051622,-9.582792,-0.7032967,1.3736732,0.48469532,0.010652645,-0.036218993,32.76,17.16,31.92
1553498051642,-9.589975,-0.6572084,1.3928268,0.49747851,0.014913702,-0.040480047000000005,32.82,17.34,31.86
1553498051662,-9.618107,-0.6147113000000001,1.3652935,0.49428272,0.014913702,-0.037284255,32.94,17.52,31.86
1553498051682,-9.619304,-0.55126494,1.3293805,0.45167214,0.01917476,-0.022370555,33.18,17.76,31.8
1553498051701,-9.583989,-0.504578,1.282095,0.39734364,0.01917476,-0.014913702,33.3,18.0,31.86
1553498051721,-9.585187,-0.42018240000000007,1.2012907,0.29614353,0.017044231,-0.020240024,33.48,18.18,31.86
1553498051742,-9.575011,-0.39564183,1.1965023000000001,0.17363810000000002,0.014913702,-0.033023197000000004,33.54,18.48,31.86
1553498051764,-9.583391,-0.40162733,1.163582,0.05219796,0.00958738,-0.040480047000000005,33.48,18.72,31.8
1553498051783,-9.599552000000001,-0.4381389,1.2126632,-0.053263225,0.0,-0.040480047000000005,33.42,19.02,31.8
1553498051803,-9.596559,-0.51954174,1.2749124,-0.10652645,-0.0063915867,-0.04474111,33.3,19.26,31.8
1553498051823,-9.625888,-0.5710170999999999,1.328782,-0.10865697,-0.014913702,-0.054328485999999995,33.12,19.5,31.8
1553498051843,-9.606135,-0.6727706999999999,1.4131776000000003,-0.07563378,-0.022370555,-0.053263225,33.0,19.74,31.8
1553498051862,-9.599552000000001,-0.6775591,1.441908,-0.023435817999999997,-0.02130529,-0.047936900000000005,32.82,19.92,31.8
1553498051882,-9.586383999999999,-0.6841431,1.4401124,0.03195793,-0.017044231,-0.037284255,32.64,20.16,31.8
1553498051902,-9.588778,-0.65541273,1.436521,0.06711166,-0.014913702,-0.03195793,32.52,20.28,31.74
1553498051922,-9.577405,-0.5895722,1.4053963,0.07882957,-0.010652645,-0.033023197000000004,32.52,20.34,31.74
1553498051942,-9.622895,-0.55006784,1.3569138,0.07989483,-0.0063915867,-0.03195793,32.58,20.4,31.8
1553498051961,-9.600749,-0.5422866999999999,1.353921,0.05965481,-0.0031957934000000003,-0.034088463,32.64,20.46,31.8
1553498051982,-9.586982,-0.5398925,1.3317747,0.046871635999999994,-0.0063915867,-0.039414786,32.76,20.46,31.8
1553498052002,-9.581595,-0.54049104,1.3952209999999998,0.03834952,-0.012783173500000002,-0.049002163,32.82,20.46,31.8
1553498052021,-9.579201,-0.57281274,1.3760674,0.029827405,-0.010652645,-0.04261058,32.94,20.4,31.8
1553498052041,-9.577405,-0.5967548,1.3904326,0.03089267,-0.00958738,-0.03834952,32.94,20.4,31.8
1553498052064,-9.612122,-0.5931635000000001,1.3796587,0.037284255,-0.008522116,-0.03834952,33.06,20.28,31.8
1553498052082,-9.60853,-0.56323594,1.3922282,0.034088463,-0.008522116,-0.040480047000000005,33.12,20.22,31.8
1553498052101,-9.585187,-0.53450555,1.3940238999999999,0.029827405,-0.0063915867,-0.04261058,33.06,20.16,31.74
1553498052121,-9.583391,-0.49081135,1.3850456,0.01917476,-0.002130529,-0.043675844000000005,33.06,20.16,31.74
1553498052141,-9.563039999999999,-0.51235914,1.3946223999999998,0.015978966,-0.0031957934000000003,-0.05219796,33.0,20.1,31.68
1553498052161,-9.569026,-0.50397944,1.4161704,0.017044231,-0.002130529,-0.06711166,32.94,20.04,31.62
1553498052183,-9.575610000000001,-0.5554548,1.3772645000000001,-0.007456851,0.002130529,-0.068176925,32.82,19.98,31.56
1553498052202,-9.607333,-0.6572084,1.376666,-0.05219796,0.002130529,-0.056459017,32.76,19.98,31.5
1553498052222,-9.606135,-0.64463884,1.3820529,-0.07669904,0.0053263223,-0.04261058,32.76,19.98,31.44
1553498052242,-9.566631,-0.64942724,1.4496891,-0.082025364,0.0053263223,-0.03834952,32.76,20.04,31.38
1553498052262,-9.562441999999999,-0.5991489999999999,1.4263457,-0.08628642,0.010652645,-0.03834952,32.76,20.1,31.32
1553498052282,-9.552266,-0.5781997,1.4742297,-0.084155895,0.010652645,-0.040480047000000005,32.76,20.16,31.26
1553498052301,-9.5798,-0.60214174,1.3976152,-0.08841695,0.017044231,-0.041545313,32.76,20.28,31.26
1553498052321,-9.616311,-0.6428431,1.3682863,-0.08841695,0.02130529,-0.037284255,32.88,20.34,31.26
1553498052341,-9.589975,-0.60932434,1.3724761,-0.080960095,0.02130529,-0.036218993,32.94,20.46,31.26
1553498052362,-9.609727000000001,-0.61052144,1.3467385,-0.05752428,0.01917476,-0.034088463,33.06,20.52,31.32
1553498052382,-9.609129,-0.55605334,1.3180081,-0.03834952,0.018109497,-0.03089267,33.12,20.58,31.32
1553498052402,-9.610924,-0.55006784,1.3126211,-0.037284255,0.013848438000000001,-0.034088463,33.18,20.58,31.38
1553498052422,-9.629479,-0.5734113000000001,1.2671312,-0.053263225,0.010652645,-0.037284255,33.18,20.58,31.44
1553498052442,-9.614514999999999,-0.5859809,1.2880806,-0.07137272,0.0010652645,-0.041545313,33.18,20.58,31.44
1553498052462,-9.613318,-0.63087213,1.3215994,-0.06604639400000001,-0.002130529,-0.041545313,33.18,20.58,31.5
1553498052482,-9.598953,-0.6464345,1.3275848999999997,-0.047936900000000005,-0.00958738,-0.03834952,33.12,20.58,31.5
1553498052501,-9.595961,-0.6356605,1.3491327,-0.027696876000000002,-0.012783173500000002,-0.035153727999999995,33.06,20.52,31.5
1553498052521,-9.612122,-0.55725044,1.3742718,-0.017044231,-0.011717908999999999,-0.035153727999999995,33.0,20.46,31.5
1553498052542,-9.607930999999999,-0.5674258000000001,1.276708,-0.02130529,-0.011717908999999999,-0.03834952,32.94,20.46,31.5
1553498052562,-9.621099000000001,-0.57281274,1.3694833999999998,-0.047936900000000005,-0.008522116,-0.04261058,32.94,20.4,31.5
1553498052582,-9.640253,-0.58119243,1.3299791,-0.07669904,-0.010652645,-0.043675844000000005,32.88,20.34,31.44
1553498052602,-9.60853,-0.61650693,1.3347674999999999,-0.10333065,-0.014913702,-0.040480047000000005,32.88,20.34,31.44
1553498052622,-9.581595,-0.6278794,1.3204023,-0.11824436,-0.011717908999999999,-0.037284255,32.88,20.28,31.44
1553498052642,-9.587581,-0.6410475,1.340753,-0.13102753,-0.012783173500000002,-0.039414786,32.94,20.22,31.44
1553498052662,-9.5732155,-0.58538234,1.3886370000000001,-0.13741912,-0.007456851,-0.040480047000000005,33.0,20.16,31.44
1553498052681,-9.583989,-0.56682724,1.2982559,-0.15339808,0.0,-0.046871635999999994,33.0,20.16,31.44
1553498052703,-9.579201,-0.54647654,1.2862848,-0.1768339,0.004261058,-0.05219796,33.0,20.16,31.44
1553498052723,-9.609129,-0.6931214,1.2653356000000002,-0.20559604,-0.007456851,-0.049002163,33.06,20.1,31.44
1553498052742,-9.60853,-0.700304,1.3198037,-0.21944448,0.0,-0.04474111,33.06,20.1,31.44
1553498052762,-9.622296,-0.7314286,1.2826935,-0.18748654,-0.0010652645,-0.05006743,33.06,19.98,31.38
1553498052784,-9.61272,-0.74639237,1.2970588,-0.16831179,-0.0063915867,-0.051132694000000006,33.06,19.74,31.38
1553498052802,-9.619304,-0.6877344,1.2826935,-0.1587244,-0.010652645,-0.04261058,33.06,19.62,31.38
1553498052821,-9.598353999999999,-0.75237787,1.2719196000000002,-0.15765914,-0.018109497,-0.03195793,33.06,19.44,31.44
1553498052841,-9.619304,-0.789488,1.2761095,-0.165116,-0.025566347000000003,-0.024501082,33.06,19.2,31.44
1553498052861,-9.5971575,-0.7290344,1.3940238999999999,-0.16831179,-0.025566347000000003,-0.023435817999999997,33.06,19.02,31.5
1553498052882,-9.557653,-0.6631939,1.4652513999999999,-0.14487597,-0.013848438000000001,-0.026631612000000002,33.06,18.84,31.56
1553498052902,-9.583989,-0.62129533,1.411382,-0.128897,-0.0053263223,-0.03089267,33.0,18.66,31.62
1553498052922,-9.569624000000001,-0.6925228,1.3712790000000001,-0.12037488,-0.002130529,-0.040480047000000005,33.0,18.42,31.74
1553498052942,-9.561843,-0.7308300999999999,1.3251906999999998,-0.12996227,0.0053263223,-0.047936900000000005,33.0,18.42,31.8
1553498052961,-9.560646,-0.6997054,1.3198037,-0.15233281,0.007456851,-0.04580637,33.0,18.3,31.86
1553498052981,-9.56723,-0.6380547,1.246182,-0.2066613,0.0031957934000000003,-0.036218993,33.0,18.18,31.92
1553498053002,-9.566033000000001,-0.5835866999999999,1.1629834,-0.31318775,0.007456851,-0.02876214,32.94,18.06,31.98
1553498053021,-9.585785000000001,-0.5351041,1.1252748,-0.45486793,0.011717908999999999,-0.03089267,33.0,17.94,31.98
1553498053042,-9.58818,-0.5554548,1.1558008,-0.5837649,0.015978966,-0.047936900000000005,33.0,17.76,32.04
1553498053061,-9.631872999999999,-0.65780693,1.2012907,-0.67218184,0.017044231,-0.06604639400000001,33.06,17.64,32.04
1553498053081,-9.633669,-0.7541734999999999,1.1965023000000001,-0.73822826,0.014913702,-0.068176925,33.06,17.46,32.04
1553498053102,-9.598953,-0.770933,1.1540052,-0.8127968000000001,0.020240024,-0.05752428,33.12,17.16,32.04
1553498053122,-9.567828,-0.78290397,1.1007341999999998,-0.9108011,0.027696876000000002,-0.043675844000000005,33.12,16.92,32.04
1553498053142,-9.579201,-0.78170687,1.0857705,-1.0162623,0.036218993,-0.04261058,33.12,16.56,32.04
1553498053161,-9.595362,-0.9516952,1.1330559,-1.0684601999999999,0.034088463,-0.05965481,33.12,16.14,32.04
1553498053181,-9.612122,-1.1156979999999999,1.1935096,-1.031176,0.037284255,-0.083090626,33.12,15.66,32.04
1553498053202,-9.635465,-1.1935096,1.2210428999999998,-0.9491506,0.039414786,-0.084155895,33.12,15.42,32.1
1553498053221,-9.618107,-1.1767502,1.1031284,-0.7957525,0.04474111,-0.051132694000000006,33.06,14.64,32.34
1553498053241,-9.606734,-1.1097125,1.0283096,-0.7520766999999999,0.043675844000000005,-0.040480047000000005,33.06,14.04,32.52
1553498053262,-9.59177,-1.1587936,1.0217254999999998,-0.6860303000000001,0.03195793,-0.054328485999999995,33.06,13.62,32.76
1553498053281,-9.598353999999999,-1.2467805,1.0881646999999999,-0.6061354999999999,0.020240024,-0.07776430000000001,33.06,13.2,32.94
1553498053301,-9.607930999999999,-1.3395559,1.0773908,-0.46871635,0.020240024,-0.080960095,33.0,12.78,33.18
1553498053322,-9.652225,-1.3880384,1.1252748,-0.29507825,0.017044231,-0.060720075,33.0,12.36,33.36
1553498053342,-9.645041,-1.4317327,1.1025299,-0.1587244,0.010652645,-0.043675844000000005,32.94,11.88,33.54
1553498053362,-9.573814,-1.3682863,1.0534488000000002,0.00958738,0.0010652645,-0.03089267,32.94,11.52,33.72
1553498053382,-9.595961,-1.3485341,0.97503865,0.13635385,-0.002130529,-0.035153727999999995,32.94,11.1,33.66
1553498053402,-9.636662,-1.2635399,1.0283096,0.20240025,-0.004261058,-0.026631612000000002,32.88,10.74,33.66
1553498053422,-9.594165,-1.2156559,1.0157399999999999,0.24394555,-0.002130529,-0.013848438000000001,32.88,10.38,33.6
1553498053441,-9.5798,-1.1755531000000001,1.027711,0.27590349999999997,0.004261058,-0.00958738,32.82,10.08,33.6
1553498053462,-9.610924,-1.0851719,1.0307038,0.30360037,0.010652645,-0.015978966,32.82,9.9,33.54
1553498053481,-9.646238,-1.0462662,0.97623575,0.30146983,0.014913702,-0.023435817999999997,32.82,9.84,33.48
1553498053501,-9.623494,-1.0283096,0.89902276,0.24714136,0.013848438000000001,-0.024501082,32.76,9.9,33.42
1553498053523,-9.631275,-0.95468795,0.9127894,0.15339808,0.012783173500000002,-0.022370555,32.76,9.96,33.42
1553498053541,-9.575011,-0.96067345,0.88405895,0.058589544,0.017044231,-0.01917476,32.7,10.08,33.42
1553498053563,-9.598953,-0.9852139999999999,0.8996213,-0.017044231,0.022370555,-0.03089267,32.64,10.26,33.42
1553498053582,-9.61691,-1.0247183000000002,0.87328506,-0.04580637,0.014913702,-0.035153727999999995,32.64,10.38,33.36
1553498053602,-9.627085000000001,-1.0534488000000002,0.92057055,-0.047936900000000005,0.0063915867,-0.03195793,32.58,10.56,33.36
1553498053622,-9.61272,-1.0408791,0.93254155,-0.035153727999999995,0.002130529,-0.027696876000000002,32.58,10.68,33.36
1553498053642,-9.601347,-1.0468647,0.8960299999999999,-0.035153727999999995,0.002130529,-0.02876214,32.58,10.8,33.42
1553498053662,-9.585785000000001,-1.0247183000000002,0.9223662,-0.056459017,0.0031957934000000003,-0.037284255,32.58,10.92,33.42
1553498053682,-9.564238000000001,-1.0295067,0.93613285,-0.07456851,0.0063915867,-0.04261058,32.58,10.98,33.48
1553498053702,-9.632472,-1.0498575,0.87807345,-0.096939065,0.008522116,-0.040480047000000005,32.58,10.98,33.48
1553498053722,-9.597756,-1.0666169,0.8834603999999999,-0.11611383,0.004261058,-0.041545313,32.58,10.98,33.48
1553498053741,-9.64145,-1.0971429,0.93493575,-0.113983296,0.0031957934000000003,-0.046871635999999994,32.58,11.04,33.48
1553498053761,-9.64564,-1.1150993999999999,0.89543146,-0.10226539,0.0,-0.049002163,32.58,11.04,33.48
1553498053782,-9.626487,-1.1300632,0.96426475,-0.07243799,-0.0053263223,-0.05006743,32.58,10.98,33.48
1553498053802,-9.601347,-1.0995371,0.9247603999999999,-0.049002163,-0.0053263223,-0.04580637,32.58,10.98,33.48
1553498053822,-9.622296,-1.1025299,0.92176765,-0.043675844000000005,-0.0053263223,-0.04261058,32.58,10.98,33.48
1553498053842,-9.643844999999999,-1.0474633,0.9187749,-0.049002163,-0.002130529,-0.039414786,32.58,10.98,33.48
1553498053861,-9.622895,-1.0540473,0.92775315,-0.07776430000000001,0.0,-0.04261058,32.64,10.98,33.48
1553498053881,-9.613917,-1.0217254999999998,0.8726865,-0.099069595,0.0010652645,-0.047936900000000005,32.64,10.98,33.48
1553498053903,-9.648033999999999,-1.0384849,0.8403648000000001,-0.13102753,0.002130529,-0.054328485999999995,32.64,10.98,33.48
1553498053921,-9.637858999999999,-1.0576386,0.7589619000000001,-0.15552860000000002,-0.0010652645,-0.053263225,32.64,10.98,33.42
1553498053942,-9.645041,-1.0061632,0.7272388000000001,-0.20985709,-0.011717908999999999,-0.05219796,32.64,10.98,33.42
1553498053962,-9.602545,-0.95109665,0.7445967,-0.2876214,-0.018109497,-0.053263225,32.7,10.98,33.42
1553498053983,-9.595961,-0.997185,0.7763199000000001,-0.3568636,-0.018109497,-0.06711166,32.7,10.92,33.42
1553498054002,-9.594764,-1.0061632,0.717662,-0.43356264,-0.01917476,-0.08628642,32.7,10.8,33.36
1553498054022,-9.688137,-1.0444705,0.7110779,-0.55074173,-0.023435817999999997,-0.09267801,32.64,10.68,33.36
1553498054041,-9.653421,-1.0109516,0.75357497,-0.70627034,-0.035153727999999995,-0.082025364,32.64,10.5,33.36
1553498054061,-9.546281,-1.1402385,0.90740246,-0.8159926,-0.043675844000000005,-0.083090626,32.64,10.2,33.36
1553498054082,-9.537302,-1.4341268999999999,1.1234791000000002,-0.7755125,-0.01917476,-0.112918034,32.58,9.78,33.3
1553498054102,-9.580399,-1.6250643999999999,1.1671733999999998,-0.6018744,0.0,-0.11504856,32.52,9.3,33.24
1553498054121,-9.606135,-1.7076644,1.079785,-0.37816888,0.010652645,-0.082025364,32.46,8.82,33.24
1553498054141,-9.603742,-1.6561891,1.0019734,-0.17363810000000002,0.022370555,-0.041545313,32.4,8.34,33.24
1553498054163,-9.6049385,-1.5652093999999999,0.8774749,-0.037284255,0.01917476,-0.02130529,32.34,7.92,33.18
1553498054181,-9.623494,-1.496376,0.8475474000000001,0.060720075,0.017044231,-0.025566347000000003,32.46,7.44,33.18
1553498054201,-9.595362,-1.4215573000000001,0.8355764000000001,0.14807177,0.013848438000000001,-0.040480047000000005,32.52,7.08,33.18
1553498054222,-9.603742,-1.401805,0.789488,0.21411815,0.018109497,-0.043675844000000005,32.58,6.72,33.24
1553498054242,-9.607333,-1.4275428,0.7763199000000001,0.26844665,0.0063915867,-0.027696876000000002,32.64,6.54,33.3
1553498054261,-9.617508,-1.4454993,0.74399817,0.3174488,0.002130529,-0.018109497,32.7,6.36,33.3
1553498054281,-9.661800999999999,-1.4700398000000001,0.8062474000000001,0.39414784,-0.018109497,-0.012783173500000002,32.76,6.24,33.36
1553498054302,-9.638457,-1.4101848999999997,0.9187749,0.47830373,-0.018109497,-0.014913702,32.82,6.06,33.42
1553498054322,-9.598353999999999,-1.3736732,0.9516952,0.55074173,-0.013848438000000001,-0.00958738,32.82,6.06,33.48
1553498054341,-9.606734,-1.2246342,0.88765025,0.5454154,-0.0031957934000000003,0.0031957934000000003,32.64,6.24,33.48
1553498054362,-9.622895,-1.1659763,0.88765025,0.47617322,0.010652645,0.015978966,32.58,6.48,33.48
1553498054381,-9.596559,-1.2162545,0.89423436,0.35792887,0.015978966,0.013848438000000001,32.46,6.78,33.42
1553498054402,-9.5385,-1.2952632,0.91697925,0.28336033,0.024501082,0.013848438000000001,32.4,7.08,33.48
1553498054422,-9.594764,-1.4514848,0.9487024,0.28549087,0.029827405,0.02130529,32.4,7.44,33.48
1553498054442,-9.659407,-1.6124948000000001,0.99538934,0.36964676,0.024501082,0.036218993,32.4,7.8,33.48
1553498054461,-9.689333999999999,-1.6675615000000001,1.043872,0.54435015,0.023435817999999997,0.06604639400000001,32.34,8.1,33.48
1553498054481,-9.677961,-1.6208745,1.1617863000000002,0.809601,0.015978966,0.096939065,32.34,8.4,33.42
1553498054502,-9.614514999999999,-1.42455,1.2336124,1.1014834999999998,0.026631612000000002,0.113983296,32.34,8.46,33.42
1553498054522,-9.585785000000001,-1.1192893,1.1432313,1.3326459,0.046871635999999994,0.11717909,32.34,8.58,33.36
1553498054542,-9.607333,-0.83856916,0.89782566,1.3965617000000001,0.07350325,0.10972224,32.34,8.88,33.36
1553498054561,-9.64564,-0.5770026,0.6847416999999999,1.2985574,0.07776430000000001,0.094808534,32.34,9.42,33.3
1553498054581,-9.640852,-0.4165911,0.58897364,1.0887003,0.060720075,0.07669904,32.34,9.96,33.3
1553498054601,-9.562441999999999,-0.30885202,0.65900403,0.813862,0.058589544,0.060720075,32.34,10.56,33.24
1553498054622,-9.645041,-0.53091425,0.8559271,0.5581986,0.07030745599999999,0.05006743,32.34,11.52,33.18
1553498054642,-9.731832,-0.6907272,0.9600749,0.49534798,0.083090626,0.05219796,32.34,12.18,33.18
1553498054661,-9.685144000000001,-0.6368576,0.9768343,0.5305017,0.09054748,0.068176925,32.34,12.9,33.18
1553498054682,-9.692925,-0.42676646,0.9271546,0.57311225,0.07669904,0.07563378,32.34,13.5,33.18
1553498054702,-9.604341,-0.44532153,0.7212533,0.54648066,0.07030745599999999,0.058589544,32.34,13.98,33.18
1553498054722,-9.620500999999999,-0.23283611,0.7763199000000001,0.5187838,0.056459017,0.022370555,32.34,14.28,33.18
1553498054742,-9.655217,-0.272939,0.7284359,0.5486112,0.040480047000000005,-0.007456851,32.34,14.58,33.18
1553498054762,-9.6923275,-0.30466217,0.7344214,0.5219796,0.034088463,-0.017044231,32.34,14.82,33.18
1553498054782,-9.740809,-0.25977087,0.74519527,0.4708469,0.029827405,-0.01917476,32.34,15.06,33.18
1553498054801,-9.761759,-0.23882163,0.7685388000000001,0.39947417,0.018109497,-0.022370555,32.34,15.24,33.18
1553498054821,-9.7007065,-0.26755205,0.85173726,0.3153183,0.010652645,-0.034088463,32.34,15.54,33.18
1553498054841,-9.668983,-0.29508537,0.9091981,0.23968449999999997,0.012783173500000002,-0.04580637,32.34,15.66,33.18
1553498054862,-9.681553,-0.2896984,0.90500826,0.13209279,0.026631612000000002,-0.04474111,32.4,15.96,33.18
1553498054881,-9.680356,-0.35434186,0.9307459000000001,0.06178534,0.03195793,-0.036218993,32.4,16.2,33.18
1553498054902,-9.66659,-0.43394905,0.7529764,0.0010652645,0.036218993,-0.036218993,32.4,16.44,33.12
1553498054922,-9.775525,-0.42257659999999997,0.7068880999999999,-0.011717908999999999,0.024501082,-0.03089267,32.4,16.68,33.12
1553498054942,-9.749189,-0.38726214,0.82899237,-0.013848438000000001,0.011717908999999999,-0.025566347000000003,32.34,16.92,33.06
1553498054961,-9.694721000000001,-0.3890578,0.7493850999999999,-0.014913702,0.004261058,-0.036218993,32.28,17.16,33.06
1553498054982,-9.768343,-0.3764882,0.7236475,-0.027696876000000002,-0.0031957934000000003,-0.056459017,32.22,17.28,33.0
1553498055003,-9.7719345,-0.39085343,0.80325466,-0.058589544,-0.018109497,-0.047936900000000005,32.1,17.28,32.94
1553498055021,-9.713875,-0.42197806,0.87328506,-0.07776430000000001,-0.024501082,-0.036218993,32.04,17.34,32.88
1553498055041,-9.715671,-0.44891283,0.96785605,-0.09161274,-0.027696876000000002,-0.040480047000000005,31.98,17.34,32.82
1553498055061,-9.703699,-0.47824179999999994,0.9983820999999999,-0.083090626,-0.027696876000000002,-0.04580637,31.92,17.34,32.76
1553498055081,-9.694122,-0.5153519,1.0013748,-0.06391586,-0.014913702,-0.041545313,31.98,17.34,32.7
1553498055101,-9.695917999999999,-0.5398925,0.9720459000000001,-0.017044231,-0.0031957934000000003,-0.033023197000000004,32.04,17.34,32.7
1553498055122,-9.683948,-0.5482722,0.842759,0.03089267,-0.002130529,-0.03195793,32.1,17.4,32.64
1553498055142,-9.578603,-0.53091425,0.7248446,0.08522116,0.011717908999999999,-0.04261058,32.22,17.4,32.64
1553498055162,-9.556455999999999,-0.5189431999999999,0.59376204,0.11717909,0.017044231,-0.053263225,32.28,17.4,32.7
1553498055182,-9.645041,-0.5165489999999999,0.57640404,0.09267801,-0.0031957934000000003,-0.05219796,32.34,17.46,32.76
1553498055202,-9.630676,-0.35254622,0.6410475,0.01917476,-0.002130529,-0.040480047000000005,32.4,17.46,32.82
1553498055221,-9.688137,-0.22864626,0.6560113000000001,-0.053263225,-0.018109497,-0.03089267,32.46,17.52,32.88
1553498055241,-9.750386,-0.089782566,0.6679823,-0.15978967,-0.040480047000000005,-0.025566347000000003,32.4,17.52,32.94
1553498055262,-9.694721000000001,-0.062249242999999996,0.6607997,-0.2790993,-0.06285059999999999,-0.036218993,32.34,17.52,33.0
1553498055282,-9.625888,-0.17717093,0.7284359,-0.38456047,-0.06498113,-0.06924219,32.22,17.58,33.06
1553498055301,-9.589975,-0.32501290000000005,0.74639237,-0.42930159999999995,-0.06285059999999999,-0.09054748,32.1,17.58,33.12
1553498055321,-9.630676,-0.50038815,0.90021986,-0.4261058,-0.06711166,-0.098004326,32.04,17.52,33.12
1553498055341,-9.562441999999999,-0.62129533,0.9463082,-0.38029942,-0.06178534,-0.09054748,31.92,17.52,33.12
1553498055362,-9.574411999999999,-0.6410475,0.97144735,-0.33129725,-0.05219796,-0.09374327,31.86,17.34,33.12
1553498055382,-9.539098,-0.6907272,1.1001357,-0.2790993,-0.040480047000000005,-0.10972224,31.74,17.1,33.12
1553498055402,-9.578603,-0.7044938000000001,1.1593921,-0.22264028,-0.018109497,-0.12676647,31.74,16.92,33.12
1553498055422,-9.613318,-0.6739678000000001,1.1109096,-0.18642128,0.002130529,-0.13209279,31.74,16.68,33.06
1553498055442,-9.716269500000001,-0.664391,1.0229226,-0.17470337,0.013848438000000001,-0.12250541,31.74,16.44,33.06
1553498055464,-9.701903999999999,-0.75596917,0.9498995000000001,-0.19707392,0.01917476,-0.113983296,31.74,16.2,33.06
1553498055481,-9.701903999999999,-0.79726917,0.9451110999999999,-0.21624869,0.01917476,-0.10546118,31.8,16.02,33.06
1553498055502,-9.679757,-0.8834603999999999,0.8996213,-0.19920446,0.015978966,-0.08735169,31.86,15.78,33.06
1553498055521,-9.689333999999999,-0.8870517,0.88525605,-0.18322548,0.0053263223,-0.06391586,31.86,15.78,33.12
1553498055543,-9.639654,-0.8379706,0.84096336,-0.10759171,-0.0031957934000000003,-0.023435817999999997,31.98,15.72,33.12
1553498055561,-9.637260000000001,-0.80804306,0.81343,-0.054328485999999995,-0.00958738,-0.017044231,31.98,15.66,33.12
1553498055581,-9.618107,-0.6817489000000001,0.8122329,-0.04474111,-0.0053263223,-0.022370555,32.04,15.66,33.18
1553498055602,-9.6767645,-0.6991069000000001,0.82121116,-0.043675844000000005,-0.007456851,-0.026631612000000002,32.04,15.66,33.18
1553498055622,-9.718064,-0.6476316,0.8523358,-0.06285059999999999,-0.008522116,-0.02876214,32.1,15.6,33.24
1553498055642,-9.754577000000001,-0.54527944,0.8475474000000001,-0.101200126,-0.0063915867,-0.035153727999999995,32.16,15.54,33.24
1553498055662,-9.706094,-0.48841715,0.92535895,-0.16937704,0.0,-0.058589544,32.16,15.36,33.3
1553498055682,-9.655217,-0.23523031,0.9283517,-0.24501082,0.013848438000000001,-0.084155895,32.22,15.3,33.3
1553498055701,-9.6049385,-0.3513491,0.89902276,-0.3717773,0.046871635999999994,-0.13209279,32.28,15.12,33.36
1553498055721,-9.674371,-0.51834464,0.91817635,-0.46978164,0.05752428,-0.15659387,32.28,15.06,33.36
1553498055742,-9.618107,-0.6823475,0.7966706,-0.5603291,0.07882957,-0.15020229,32.34,14.88,33.36
1553498055762,-9.660604,-0.9331401,0.6835446,-0.5763081,0.06924219,-0.13102753,32.34,14.82,33.36
1553498055781,-9.691130000000001,-1.0510546,0.66379243,-0.55287224,0.04580637,-0.10972224,32.34,14.64,33.36
1553498055802,-9.598353999999999,-1.1228806,0.66858083,-0.47723848,0.020240024,-0.08948222,32.34,14.34,33.36
1553498055821,-9.561843,-1.1659763,0.6278794,-0.39627838,0.013848438000000001,-0.07137272,32.34,14.1,33.3
1553498055842,-9.695319999999999,-1.1192893,0.49021279999999995,-0.31212249999999997,-0.00958738,-0.051132694000000006,32.34,13.8,33.3
1553498055861,-9.753378999999999,-1.0576386,0.5327099000000001,-0.24927188,-0.04474111,-0.040480047000000005,32.34,13.5,33.3
1553498055881,-9.687539,-1.0432734000000001,0.6757634,-0.19813919,-0.07137272,-0.04261058,32.34,13.2,33.3
1553498055902,-9.621099000000001,-1.0151415000000001,0.83617496,-0.08735169,-0.07776430000000001,-0.05752428,32.34,12.9,33.36
1553498055922,-9.694721000000001,-0.9732430000000001,0.8475474000000001,0.0010652645,-0.06924219,-0.06604639400000001,32.34,12.6,33.42
1553498055941,-9.774927,-0.93732995,0.80804306,0.041545313,-0.06924219,-0.05965481,32.28,12.36,33.54
1553498055961,-9.785102,-0.8643068000000002,0.8379706,0.037284255,-0.07563378,-0.05752428,32.28,12.3,33.6
1553498055986,-9.622895,-0.82779527,0.8858546,0.00958738,-0.060720075,-0.07137272,32.28,12.24,33.66
1553498056002,-9.575011,-0.84096336,0.9020155000000001,-0.024501082,-0.049002163,-0.07776430000000001,32.28,12.24,33.66
1553498056022,-9.557653,-0.88286185,0.90740246,-0.068176925,-0.029827405,-0.06178534,32.28,12.24,33.66
1553498056042,-9.578603,-0.97503865,0.92775315,-0.08841695,-0.018109497,-0.040480047000000005,32.28,12.24,33.72
1553498056062,-9.621698,-1.0570401000000003,0.8846575000000001,-0.08522116,0.0010652645,-0.029827405,32.28,12.24,33.66
1553498056081,-9.693524,-1.0959458,0.9020155000000001,-0.049002163,0.0053263223,-0.035153727999999995,32.28,12.24,33.6
1553498056102,-9.668385,-1.1109096,0.83497787,-0.004261058,0.0010652645,-0.03834952,32.28,12.24,33.54
1553498056122,-9.637858999999999,-1.0989386,0.7787141,0.02876214,0.002130529,-0.034088463,32.28,12.18,33.54
1553498056142,-9.621099000000001,-1.0720038,0.8074445,0.054328485999999995,0.008522116,-0.027696876000000002,32.28,12.18,33.48
1553498056162,-9.610325999999999,-1.0702082,0.7954735,0.06498113,0.013848438000000001,-0.03195793,32.28,12.24,33.48
1553498056182,-9.577405,-0.9995792,0.8242039000000001,0.06711166,0.008522116,-0.039414786,32.28,12.18,33.48
1553498056202,-9.648633,-0.94211835,0.8265981,0.060720075,0.008522116,-0.03834952,32.28,12.18,33.54
1553498056222,-9.662399,-0.8870517,0.7763199000000001,0.051132694000000006,0.0031957934000000003,-0.03089267,32.28,12.18,33.54
1553498056242,-9.681553,-0.8583213,0.7763199000000001,0.03834952,0.012783173500000002,-0.024501082,32.28,12.18,33.6
1553498056261,-9.655814999999999,-0.8026561,0.7098808000000001,0.0031957934000000003,0.018109497,-0.029827405,32.28,12.18,33.6
1553498056282,-9.621698,-0.7350199000000001,0.61112,-0.08628642,0.02130529,-0.04261058,32.28,12.18,33.72
1553498056301,-9.61691,-0.6051345,0.4914099,-0.31638354,0.029827405,-0.049002163,32.28,12.18,33.78
1553498056322,-9.6049385,-0.4429273,0.3405752,-0.69029135,0.04261058,-0.04474111,32.34,12.18,33.84
1553498056341,-9.579201,-0.52073884,0.3776853,-1.067395,0.041545313,-0.053263225,32.34,12.12,33.84
1553498056361,-9.606135,-0.85891986,0.54767364,-1.3390374,0.04474111,-0.099069595,32.34,12.12,33.9
1553498056381,-9.697116000000001,-1.1474211,0.58298814,-1.4008228,0.047936900000000005,-0.11611383,32.28,12.0,33.9
1553498056402,-9.669582,-1.2593501,0.5650316,-1.3848438,0.047936900000000005,-0.09267801,32.28,11.76,33.96
1553498056421,-9.640852,-1.2749124,0.48123455,-1.3081448,0.04580637,-0.06285059999999999,32.22,11.28,34.02
1553498056441,-9.696517,-1.3305776000000002,0.4213795,-1.1547466999999998,0.015978966,-0.06924219,32.22,10.74,34.02
1553498056462,-9.718663000000001,-1.3371617,0.46447513,-0.9171927,-0.029827405,-0.10226539,32.16,10.2,34.02
1553498056482,-9.741408,-1.4203602,0.4890157,-0.6444850000000001,-0.07243799,-0.12783173,32.1,9.54,34.08
1553498056501,-9.749788,-1.5065514,0.5291186,-0.38775626,-0.09054748,-0.11824436,32.04,8.88,34.08
1553498056522,-9.846153999999999,-1.5149311,0.54767364,-0.14487597,-0.101200126,-0.08948222,32.04,8.1,34.08
1553498056542,-9.826402999999999,-1.5298948,0.6913256999999999,0.06178534,-0.111852765,-0.068176925,31.98,7.32,34.08
1553498056562,-9.874286999999999,-1.4496891,0.7266402,0.17896444,-0.10546118,-0.05965481,31.98,6.66,34.08
1553498056582,-10.026916499999999,-1.2467805,0.7493850999999999,0.23116238,-0.10865697,-0.04580637,32.04,6.18,34.08
1553498056602,-9.892242,-1.146224,0.7469909,0.26418558,-0.14487597,-0.03089267,32.04,5.76,34.08
1553498056621,-9.508572000000001,-1.1013328000000002,0.66020113,0.19600865,-0.13954964,-0.047936900000000005,32.1,5.4,34.08
1553498056641,-9.345168,-1.0540473,0.6171055000000001,0.10013486,-0.10972224,-0.06604639400000001,32.16,5.1,34.02
1553498056662,-9.436148,-0.89782566,0.41060558,-0.058589544,-0.051132694000000006,-0.06498113,32.22,4.86,34.02
1553498056681,-9.633071000000001,-0.87089086,0.22744916,-0.23755397,-0.02130529,-0.039414786,32.22,4.74,34.02
1553498056701,-9.540894,-0.9343372,0.19752164,-0.40266997,-0.058589544,-0.04580637,32.28,4.74,34.02
1553498056722,-9.22067,-1.1563994,0.31902736,-0.5273059,-0.094808534,-0.10865697,32.34,4.8,34.02
1553498056741,-9.138069,-1.3042414,0.59136784,-0.5305017,-0.07456851,-0.13635385,32.34,4.86,34.02
1553498056761,-9.165602999999999,-1.4119805,0.7954735,-0.46978164,-0.046871635999999994,-0.128897,32.34,4.92,34.02
1553498056782,-9.34038,-1.4790181,0.95229375,-0.30679616,-0.010652645,-0.10226539,32.34,4.98,34.02
1553498056802,-9.493608,-1.5867572,1.0205284,-0.16405073,-0.002130529,-0.10759171,32.4,4.92,34.02
1553498056822,-9.64564,-1.7142484,1.0702082,-0.05219796,-0.0063915867,-0.12037488,32.4,4.86,34.02
1553498056841,-9.776124000000001,-1.7471686999999998,1.0821792,0.04261058,0.002130529,-0.1107875,32.46,4.8,33.96
1553498056861,-9.911396,-1.8435352999999999,1.0510546,0.14487597,0.027696876000000002,-0.084155895,32.46,4.74,33.96
1553498056882,-9.975441,-1.834557,0.9498995000000001,0.2130529,0.04261058,-0.056459017,32.52,4.62,33.9
1553498056903,-9.886257,-1.7681179,0.81642276,0.24607609,0.02876214,-0.040480047000000005,32.58,4.5,33.78
1553498056923,-9.664195,-1.7932571,0.676362,0.25353295,0.015978966,-0.041545313,32.58,4.44,33.72
1553498056943,-9.5570545,-1.7495629000000001,0.57041854,0.26418558,0.007456851,-0.035153727999999995,32.64,4.32,33.6
1553498056963,-9.576208,-1.6196774,0.61890113,0.33129725,0.010652645,0.0053263223,32.64,4.38,33.54
1553498056982,-9.6845455,-1.4700398000000001,0.60333884,0.42397526,0.017044231,0.047936900000000005,32.64,4.38,33.48
1553498057002,-9.639654,-1.3599066,0.6440403,0.49854377,-0.002130529,0.060720075,32.58,4.32,33.42
1553498057022,-9.46847,-1.3365631000000002,0.6242880999999999,0.5336975,-0.01917476,0.035153727999999995,32.58,4.32,33.36
1553498057042,-9.461885,-1.3263878,0.7182605,0.5550028,-0.014913702,0.0053263223,32.58,4.32,33.36
1553498057062,-9.461286999999999,-1.3688848,0.83018947,0.60080916,-0.00958738,-0.0010652645,32.58,4.44,33.36
1553498057081,-9.509171,-1.2084733,0.94092125,0.6775081999999999,0.00958738,0.002130529,32.52,4.68,33.42
1553498057101,-9.533711,-1.1264718999999999,0.97862995,0.7456851,0.03195793,-0.004261058,32.52,4.98,33.42
1553498057122,-9.607930999999999,-1.0127473,0.9103952,0.7392935,0.051132694000000006,-0.02130529,32.46,5.58,33.42
1553498057141,-9.651027000000001,-1.0833763,0.85293436,0.6508765999999999,0.06498113,-0.047936900000000005,32.46,6.06,33.42
1553498057162,-9.669582,-1.1683705,0.8415619000000001,0.5763081,0.068176925,-0.04261058,32.46,6.48,33.42
1553498057182,-9.624691,-1.2018893,0.83737206,0.53795856,0.07350325,-0.03195793,32.46,6.72,33.42
1553498057201,-9.602545,-1.2324153,0.76434886,0.52411014,0.084155895,-0.017044231,32.46,7.44,33.42
1553498057222,-9.64564,-1.1198878,0.6991069000000001,0.5070659000000001,0.09374327,0.0,32.46,7.74,33.42
1553498057241,-9.6767645,-1.0977415000000001,0.6410475,0.49002165,0.09161274,0.0031957934000000003,32.4,8.04,33.48
1553498057261,-9.753978,-1.1121067,0.62368953,0.49428272,0.06498113,-0.014913702,32.4,8.28,33.54
1553498057285,-9.762358,-1.3084313,0.7679402,0.5699165,0.034088463,-0.04261058,32.4,8.58,33.6
1553498057302,-9.758167,-1.3964181,0.8026561,0.7233145999999999,0.0063915867,-0.060720075,32.4,8.82,33.66
1553498057323,-9.798869,-1.3874398000000001,0.78050977,0.9044095,-0.007456851,-0.043675844000000005,32.4,9.18,33.72
1553498057342,-9.767744,-1.2707225,0.7206547,1.0258497,-0.018109497,0.008522116,32.34,9.54,33.78
1553498057362,-9.718064,-1.0211270000000001,0.664391,1.0375676,-0.033023197000000004,0.051132694000000006,32.34,10.02,33.84
1553498057382,-9.652822500000001,-0.83737206,0.5602431999999999,0.96406436,-0.043675844000000005,0.056459017,32.34,10.56,33.84
1553498057402,-9.603143,-0.7978677,0.7200562,0.8692558000000001,-0.06391586,0.029827405,32.34,11.28,33.84
1553498057422,-9.5570545,-0.78888947,0.8924386999999999,0.7882956999999999,-0.05752428,-0.0053263223,32.34,12.0,33.84
1553498057441,-9.560646,-0.7553706,0.8924386999999999,0.7275756,-0.03195793,-0.0063915867,32.34,12.6,33.84
1553498057461,-9.5798,-0.66738373,0.9816226999999998,0.6444850000000001,-0.017044231,0.022370555,32.34,13.26,33.78
1553498057482,-9.545084,-0.5662286999999999,0.92057055,0.53476274,0.0010652645,0.03195793,32.34,13.8,33.72
1553498057502,-9.521142,-0.5434838000000001,0.9235633,0.45486793,0.011717908999999999,0.013848438000000001,32.34,14.1,33.66
1553498057521,-9.633669,-0.6380547,0.9020155000000001,0.34408042,0.017044231,-0.034088463,32.34,14.76,33.36
1553498057542,-9.630676,-0.712275,0.9403226999999998,0.28442562,0.01917476,-0.04580637,32.34,15.12,33.24
1553498057561,-9.587581,-0.75357497,0.9684546,0.257794,0.022370555,-0.035153727999999995,32.34,15.36,33.12
1553498057581,-9.617508,-0.7158663000000001,0.9247603999999999,0.22796659,0.02876214,-0.025566347000000003,32.34,15.6,33.0
1553498057603,-9.585187,-0.66498953,0.9696517,0.19707392,0.025566347000000003,-0.029827405,32.34,15.84,32.88
1553498057622,-9.594764,-0.7086836999999999,0.9498995000000001,0.18748654,0.022370555,-0.043675844000000005,32.34,16.08,32.76
1553498057642,-9.688736,-0.7673416999999999,0.9319430000000001,0.16724652,0.01917476,-0.05006743,32.34,16.32,32.7
1553498057661,-9.727641,-0.7224503999999999,0.9211690999999999,0.14274544,0.017044231,-0.04261058,32.34,16.5,32.7
1553498057682,-9.727641,-0.7068880999999999,0.9528923,0.10333065,0.017044231,-0.034088463,32.34,16.68,32.76
1553498057702,-9.729436999999999,-0.66738373,0.9235633,0.06178534,0.02130529,-0.034088463,32.28,16.92,32.76
1553498057722,-9.707291,-0.6560113000000001,0.8810662,0.027696876000000002,0.024501082,-0.04474111,32.22,17.04,32.76
1553498057742,-9.728839,-0.6853402,0.81881696,-0.004261058,0.014913702,-0.05219796,32.16,17.04,32.82
1553498057762,-9.703699,-0.6745663000000001,0.8026561,-0.026631612000000002,0.002130529,-0.04474111,32.1,17.04,32.82
1553498057781,-9.689933,-0.66618663,0.84814596,-0.041545313,-0.011717908999999999,-0.037284255,32.1,17.1,32.82
1553498057801,-9.707291,-0.6548142,0.7966706,-0.07350325,-0.012783173500000002,-0.037284255,32.04,17.1,32.82
1553498057821,-9.810242,-0.6607997,0.7637503000000001,-0.13315806,-0.023435817999999997,-0.037284255,31.98,17.16,32.82
1553498057843,-9.77373,-0.6925228,0.75237787,-0.22370553,-0.02876214,-0.029827405,31.92,17.22,32.82
1553498057863,-9.723452,-0.6745663000000001,0.8122329,-0.30786142,-0.03195793,-0.022370555,31.92,17.22,32.82
1553498057882,-9.639056,-0.7128736,0.84096336,-0.3898868,-0.033023197000000004,-0.022370555,31.98,17.22,32.82
1553498057902,-9.560047,-0.7134720999999999,0.87807345,-0.45806372,-0.022370555,-0.01917476,32.04,17.16,32.82
1553498057924,-9.504382000000001,-0.7751228,0.92895025,-0.49108690000000005,-0.00958738,-0.018109497,32.1,17.16,32.88
1553498057947,-9.534309,-0.78649527,1.0049661,-0.45699844,0.0063915867,-0.037284255,32.1,17.04,32.88
1553498057962,-9.534309,-0.7930793,0.98581254,-0.42717105,0.012783173500000002,-0.041545313,32.16,16.86,32.94
1553498057981,-9.539697,-0.81163436,0.94930094,-0.34834146,0.00958738,-0.047936900000000005,32.16,16.8,33.0
1553498058002,-9.564238000000001,-0.84814596,0.94331545,-0.24394555,-0.0010652645,-0.051132694000000006,32.1,16.44,33.06
1553498058022,-9.613318,-0.83138657,0.9091981,-0.17044231,0.0031957934000000003,-0.05219796,32.1,16.14,33.06
1553498058041,-9.625888,-0.90141696,0.8912416,-0.13528858,0.0010652645,-0.05539375,32.1,16.02,33.12
1553498058061,-9.685742999999999,-0.87208796,0.9103952,-0.12037488,-0.0053263223,-0.056459017,32.1,15.66,33.12
1553498058082,-9.696517,-0.86849666,0.92057055,-0.10333065,-0.010652645,-0.060720075,32.04,15.24,33.18
1553498058101,-9.671378,-0.9080010000000001,0.94451255,-0.09267801,-0.014913702,-0.05965481,32.1,15.0,33.24
1553498058121,-9.648033999999999,-0.96905315,1.0163386,-0.06498113,-0.010652645,-0.056459017,32.1,14.94,33.24
1553498058142,-9.628283,-1.0001777,1.0606314,0.008522116,-0.0031957934000000003,-0.056459017,32.16,14.7,33.24
1553498058162,-9.639056,-0.9343372,1.0324994,0.07776430000000001,0.008522116,-0.053263225,32.16,14.64,33.3
1553498058182,-9.667188000000001,-0.94331545,0.97862995,0.13422333,0.01917476,-0.047936900000000005,32.22,14.64,33.3
1553498058202,-9.697714,-0.9540894,0.88286185,0.16192019,0.02130529,-0.04580637,32.28,14.64,33.36
1553498058222,-9.713875,-0.92655605,0.8523358,0.18109496,0.02130529,-0.043675844000000005,32.34,14.7,33.36
1553498058242,-9.745598,-0.9187749,0.84335756,0.19920446,0.015978966,-0.035153727999999995,32.34,14.7,33.42
1553498058262,-9.71986,-0.90381116,0.8714894,0.22370553,0.008522116,-0.03089267,32.4,14.7,33.42
1553498058282,-9.715072,-0.8888474000000001,0.8595184000000001,0.24501082,0.007456851,-0.02876214,32.4,14.76,33.48
1553498058302,-9.704897,-0.7990648,0.87807345,0.25992453,0.0010652645,-0.023435817999999997,32.4,14.76,33.54
1553498058322,-9.674371,-0.7685388000000001,0.8391677,0.25672874,-0.002130529,-0.01917476,32.4,14.76,33.54
1553498058341,-9.701903999999999,-0.7433996,0.83856916,0.23968449999999997,-0.007456851,-0.018109497,32.34,14.82,33.54
1553498058362,-9.671378,-0.7182605,0.8619126,0.19600865,-0.007456851,-0.017044231,32.34,14.82,33.54
1553498058382,-9.655217,-0.6823475,0.8487445,0.16085494,-0.008522116,-0.014913702,32.28,14.88,33.6
1553498058402,-9.657611,-0.6937199000000001,0.8631097,0.13102753,-0.011717908999999999,-0.015978966,32.16,15.0,33.6
1553498058421,-9.653421,-0.7074866,0.84814596,0.10759171,-0.013848438000000001,-0.022370555,32.16,15.12,33.6
1553498058441,-9.639654,-0.6135142,0.84455466,0.07563378,-0.02130529,-0.02876214,32.1,15.3,33.6
1553498058462,-9.594165,-0.6039374,0.79248077,0.039414786,-0.025566347000000003,-0.036218993,32.1,15.48,33.6
1553498058482,-9.668385,-0.60453594,0.78170687,-0.018109497,-0.03089267,-0.040480047000000005,32.1,15.66,33.66
1553498058501,-9.718663000000001,-0.61770403,0.81642276,-0.098004326,-0.033023197000000004,-0.04261058,32.1,15.84,33.66
1553498058522,-9.65821,-0.58777654,0.84814596,-0.16192019,-0.02876214,-0.05752428,32.1,15.96,33.66
1553498058542,-9.663596,-0.6997054,0.7811083000000001,-0.21518342,-0.03195793,-0.07456851,32.16,16.08,33.66
1553498058562,-9.6845455,-0.7242460000000001,0.82480246,-0.2972088,-0.037284255,-0.06711166,32.22,16.14,33.66
1553498058582,-9.664794,-0.7086836999999999,0.79487497,-0.406931,-0.04580637,-0.043675844000000005,32.28,16.14,33.66
1553498058602,-9.630077,-0.6536171,0.7356185000000001,-0.53795856,-0.046871635999999994,-0.036218993,32.28,16.08,33.6
1553498058621,-9.603143,-0.6183026,0.81402856,-0.67005134,-0.03834952,-0.047936900000000005,32.28,16.08,33.6
1553498058641,-9.595362,-0.729633,0.8774749,-0.72970617,-0.03195793,-0.07137272,32.28,16.02,33.6
1553498058663,-9.621099000000001,-0.90979666,1.0109516,-0.70627034,-0.027696876000000002,-0.08948222,32.28,15.96,33.6
1553498058683,-9.614514999999999,-1.0863690000000001,1.0283096,-0.6135923000000001,-0.023435817999999997,-0.09054748,32.28,15.84,33.54
1553498058702,-9.644442999999999,-1.074398,0.97862995,-0.535828,-0.012783173500000002,-0.07243799,32.34,15.54,33.6
1553498058722,-9.615712,-0.9319430000000001,0.86011696,-0.5432849000000001,0.0,-0.05006743,32.46,15.24,33.6
1553498058742,-9.613917,-0.87328506,0.8218097,-0.60720074,0.010652645,-0.03834952,32.52,14.94,33.6
1553498058762,-9.618706,-1.0061632,0.8972271,-0.6263755,0.012783173500000002,-0.058589544,32.58,14.64,33.6
1553498058782,-9.6923275,-1.258153,0.9427169,-0.5336975,0.0063915867,-0.096939065,32.64,14.28,33.6
1553498058801,-9.735422999999999,-1.3575124,0.9319430000000001,-0.3568636,-0.0063915867,-0.10865697,32.7,13.98,33.6
1553498058821,-9.730036,-1.3515268999999999,0.9427169,-0.14807177,-0.017044231,-0.06391586,32.7,13.56,33.6
1553498058842,-9.679159,-1.2533646,0.89064306,0.051132694000000006,-0.02876214,-0.00958738,32.76,12.96,33.6
1553498058862,-9.634267999999999,-1.1516110000000002,0.89543146,0.12144015,-0.034088463,-0.007456851,32.7,12.78,33.6
1553498058881,-9.586383999999999,-1.0043676,0.8714894,0.15446335,-0.035153727999999995,-0.025566347000000003,32.58,12.42,33.6
1553498058901,-9.614514999999999,-0.9163806999999999,0.8924386999999999,0.1438107,-0.029827405,-0.034088463,32.52,12.12,33.6
1553498058922,-9.633669,-0.9564835999999999,0.92895025,0.10759171,-0.020240024,-0.02876214,32.46,11.7,33.6
1553498058941,-9.643246000000001,-1.0354922,0.87807345,0.08628642,-0.012783173500000002,-0.025566347000000003,32.46,11.46,33.6
1553498058961,-9.648633,-0.98222125,0.92057055,0.058589544,-0.010652645,-0.02876214,32.4,11.34,33.6
1553498058982,-9.586982,-0.9115923,0.8643068000000002,0.09374327,-0.0010652645,-0.033023197000000004,32.34,11.28,33.54
1553498059003,-9.639056,-0.9498995000000001,0.8283938,0.112918034,-0.0063915867,-0.041545313,32.28,11.34,33.54
1553498059021,-9.627085000000001,-0.99898064,0.8714894,0.12463594,-0.011717908999999999,-0.04580637,32.22,11.46,33.54
1553498059042,-9.618706,-1.0971429,0.8559271,0.17044231,-0.013848438000000001,-0.049002163,32.16,11.58,33.54
1553498059062,-9.627085000000001,-1.1312603,0.9008184000000001,0.22583607,-0.018109497,-0.04261058,32.16,11.64,33.48
1553498059082,-9.620500999999999,-1.0271125,0.8948328999999999,0.28549087,-0.014913702,-0.02876214,32.16,11.7,33.48
1553498059102,-9.643844999999999,-0.94930094,0.84335756,0.32170987,-0.014913702,-0.02130529,32.16,11.82,33.48
1553498059121,-9.618706,-0.8146270999999999,0.78769237,0.28229508,-0.015978966,-0.025566347000000003,32.22,11.88,33.48
1553498059141,-9.643246000000001,-0.705691,0.7242460000000001,0.18748654,-0.03089267,-0.03195793,32.34,11.94,33.48
1553498059162,-9.640852,-0.7685388000000001,0.7697359,0.029827405,-0.036218993,-0.05006743,32.4,12.06,33.54
1553498059182,-9.634267999999999,-0.81343,0.8655039000000001,-0.068176925,-0.03834952,-0.060720075,32.46,12.12,33.54
1553498059201,-9.619304,-0.90141696,0.8822633,-0.10226539,-0.041545313,-0.06285059999999999,32.52,12.24,33.54
1553498059221,-9.620500999999999,-0.98222125,0.9528923,-0.10972224,-0.03834952,-0.05965481,32.52,12.36,33.48
1553498059241,-9.665392,-1.0301052,0.93014735,-0.09267801,-0.037284255,-0.05006743,32.52,12.48,33.48
1553498059261,-9.669582,-1.0133458,0.9660603999999999,-0.080960095,-0.04261058,-0.04261058,32.46,12.54,33.48
1553498059282,-9.623494,-1.002572,0.99538934,-0.07563378,-0.040480047000000005,-0.041545313,32.46,12.6,33.48
1553498059302,-9.647436,-0.91458505,1.0175357,-0.07669904,-0.029827405,-0.04474111,32.46,12.6,33.48
1553498059322,-9.648633,-0.9439139999999999,1.0001777,-0.08841695,-0.023435817999999997,-0.043675844000000005,32.46,12.66,33.48
1553498059341,-9.638457,-0.9900024,0.9995792,-0.099069595,-0.01917476,-0.041545313,32.46,12.6,33.48
1553498059361,-9.607333,-0.99179804,1.0283096,-0.10226539,-0.011717908999999999,-0.036218993,32.46,12.6,33.48
1553498059382,-9.603143,-0.97025025,0.97743285,-0.10546118,-0.00958738,-0.029827405,32.46,12.54,33.42
1553498059401,-9.589376,-0.93134445,0.98581254,-0.10652645,-0.0053263223,-0.029827405,32.46,12.54,33.42
1553498059422,-9.574411999999999,-0.9391255999999999,1.0426749,-0.094808534,-0.002130529,-0.040480047000000005,32.46,12.54,33.42
1553498059441,-9.58818,-1.0043676,0.98222125,-0.07669904,0.0,-0.05006743,32.46,12.48,33.36
1553498059461,-9.628283,-1.0767921999999999,1.0163386,-0.04580637,0.0010652645,-0.049002163,32.46,12.48,33.3
1553498059482,-9.639056,-1.1264718999999999,1.0564415,0.022370555,-0.002130529,-0.040480047000000005,32.46,12.48,33.18
1553498059502,-9.629479,-1.1647792,1.1857284,0.13102753,-0.0053263223,-0.036218993,32.46,12.48,33.12
1553498059521,-9.651027000000001,-1.1695676000000002,1.1833341999999998,0.27164245,0.007456851,-0.03834952,32.46,12.48,33.06
1553498059541,-9.662998,-1.1294646000000002,1.2156559,0.40906155,0.023435817999999997,-0.03195793,32.46,12.42,33.0
1553498059563,-9.639056,-1.1294646000000002,1.1893197,0.531567,0.041545313,-0.022370555,32.46,12.42,32.94
1553498059582,-9.624691,-1.1641805,1.1833341999999998,0.6466155,0.05219796,-0.023435817999999997,32.46,12.42,32.88
1553498059603,-9.621698,-1.0881646999999999,1.1055226,0.737163,0.06711166,-0.024501082,32.52,12.54,32.88
1553498059623,-9.657611,-0.96665895,1.0097545,0.79042625,0.07776430000000001,-0.011717908999999999,32.52,12.6,32.94
1553498059642,-9.663596,-0.825401,0.83138657,0.77870834,0.07776430000000001,0.0063915867,32.46,12.84,33.0
1553498059662,-9.625888,-0.7278373,0.81163436,0.68176925,0.07776430000000001,0.011717908999999999,32.46,12.9,33.0
1553498059682,-9.631275,-0.64583594,0.7386111999999999,0.5432849000000001,0.07456851,0.007456851,32.46,13.08,33.06
1553498059702,-9.667786999999999,-0.6123171,0.75836337,0.38456047,0.056459017,-0.0063915867,32.4,13.5,33.12
1553498059722,-9.615712,-0.6428431,0.7649474,0.30466563,0.054328485999999995,-0.00958738,32.4,13.8,33.12
1553498059745,-9.623494,-0.6440403,0.8319851,0.25246766,0.04580637,-0.013848438000000001,32.34,13.98,33.18
1553498059762,-9.635465,-0.6937199000000001,0.8559271,0.27590349999999997,0.03089267,-0.026631612000000002,32.34,14.4,33.18
1553498059784,-9.676167,-0.7290344,0.90261406,0.31638354,0.02130529,-0.035153727999999995,32.34,14.7,33.24
1553498059802,-9.677363,-0.717662,0.90979666,0.33875409999999995,0.022370555,-0.035153727999999995,32.34,15.06,33.24
1553498059822,-9.661800999999999,-0.7009025,0.9307459000000001,0.34408042,0.020240024,-0.027696876000000002,32.34,15.36,33.24
1553498059841,-9.674371,-0.6596026,0.87567925,0.3174488,0.020240024,-0.023435817999999997,32.34,15.66,33.24
1553498059862,-9.679159,-0.6727706999999999,0.8475474000000001,0.2790993,0.020240024,-0.023435817999999997,32.4,15.96,33.24
1553498059883,-9.668385,-0.6943185000000001,0.82719666,0.24074976,0.018109497,-0.023435817999999997,32.34,16.14,33.24
1553498059903,-9.686341,-0.7020996,0.85173726,0.20985709,0.010652645,-0.02130529,32.34,16.32,33.24
1553498059922,-9.660006,-0.6715736,0.82121116,0.18642128,0.0031957934000000003,-0.015978966,32.34,16.5,33.24
1553498059942,-9.660604,-0.6266823,0.8343792999999999,0.18429075,-0.0031957934000000003,-0.018109497,32.34,16.62,33.18
1553498059962,-9.679159,-0.6793547,0.9080010000000001,0.19387813,-0.013848438000000001,-0.020240024,32.34,16.8,33.18
1553498059982,-9.681553,-0.6242880999999999,0.90381116,0.19068234,-0.015978966,-0.02130529,32.34,16.98,33.18
1553498060002,-9.6288805,-0.57520694,0.9044097,0.17576863,-0.022370555,-0.02130529,32.22,17.1,33.12
1553498060022,-9.643844999999999,-0.52852005,0.7930793,0.15020229,-0.03089267,-0.027696876000000002,32.16,17.28,33.12
1553498060041,-9.659407,-0.5506664000000001,0.89064306,0.111852765,-0.051132694000000006,-0.029827405,32.1,17.4,33.12
1553498060065,-9.607930999999999,-0.53929394,0.9127894,0.07563378,-0.053263225,-0.035153727999999995,32.1,17.46,33.12
1553498060082,-9.664195,-0.5494693,1.0342950999999998,0.034088463,-0.041545313,-0.04261058,32.04,17.7,33.06
1553498060103,-9.681553,-0.66858083,1.0420763000000002,0.024501082,-0.02876214,-0.04261058,32.1,17.76,33.06
1553498060121,-9.671975999999999,-0.6943185000000001,1.1210848999999998,0.051132694000000006,-0.022370555,-0.046871635999999994,32.22,17.82,33.06
1553498060142,-9.653421,-0.7080852,1.1067197,0.10226539,-0.017044231,-0.054328485999999995,32.34,17.76,33.0
1553498060164,-9.644442999999999,-0.6787562,1.0259154000000001,0.12570119999999999,-0.011717908999999999,-0.054328485999999995,32.52,17.7,32.94
1553498060181,-9.636662,-0.66498953,0.89064306,0.099069595,-0.004261058,-0.04474111,32.7,17.58,32.82
1553498060201,-9.64145,-0.60214174,0.8367735000000001,0.036218993,0.0,-0.047936900000000005,32.7,17.34,32.76
1553498060221,-9.68275,-0.5895722,0.8810662,-0.018109497,-0.010652645,-0.056459017,32.64,17.04,32.64
1553498060241,-9.716867,-0.6386533000000001,0.81283146,-0.080960095,-0.013848438000000001,-0.05965481,32.34,16.68,32.58
1553498060261,-9.749788,-0.70509243,0.98461545,-0.10226539,-0.014913702,-0.043675844000000005,32.1,16.26,32.52
1553498060281,-9.685742999999999,-0.6877344,1.1270704,-0.07989483,-0.0031957934000000003,-0.040480047000000005,31.8,15.9,32.46
1553498060302,-9.643844999999999,-0.6123171,1.1689690000000001,-0.01917476,0.014913702,-0.05006743,31.5,15.48,32.4
1553498060321,-9.680356,-0.56084174,1.1186907,0.018109497,0.013848438000000001,-0.06178534,31.26,15.18,32.4
1553498060341,-9.692925,-0.6500258000000001,0.9983820999999999,0.035153727999999995,0.022370555,-0.06924219,31.08,14.88,32.4
1553498060361,-9.683349,-0.7398083000000001,0.9115923,0.0063915867,0.02876214,-0.06498113,31.02,14.7,32.4
1553498060382,-9.660604,-0.81343,0.8714894,-0.034088463,0.03089267,-0.07669904,31.08,14.58,32.4
1553498060401,-9.695917999999999,-0.82360536,0.9211690999999999,-0.056459017,0.029827405,-0.096939065,31.26,14.58,32.46
1553498060421,-9.743802,-0.8158241999999999,0.96546185,-0.051132694000000006,0.03195793,-0.094808534,31.32,14.58,32.46
1553498060441,-9.7563715,-0.81163436,1.0151415000000001,-0.007456851,0.033023197000000004,-0.06178534,31.44,14.64,32.46
1553498060461,-9.709086,-0.78050977,1.0324994,0.06924219,0.04580637,-0.037284255,31.5,14.7,32.46
1553498060482,-9.646837,-0.7116765,0.96785605,0.13102753,0.049002163,-0.036218993,31.56,14.76,32.52
1553498060501,-9.653421,-0.6392518,0.97503865,0.1587244,0.05006743,-0.03834952,31.5,14.76,32.52
1553498060521,-9.653421,-0.5805939,0.95588505,0.13528858,0.041545313,-0.020240024,31.44,14.88,32.58
1553498060541,-9.581595,-0.54647654,0.96905315,0.111852765,0.040480047000000005,-0.0010652645,31.44,15.06,32.58
1553498060561,-9.529521,-0.54408234,0.9391255999999999,0.09587380000000001,0.040480047000000005,0.0031957934000000003,31.5,15.24,32.58
1553498060581,-9.518747,-0.5410896,0.98820674,0.084155895,0.03834952,-0.0053263223,31.5,15.48,32.64
1553498060601,-9.515156,-0.5422866999999999,0.92176765,0.07669904,0.034088463,-0.013848438000000001,31.5,15.6,32.64
1553498060622,-9.546281,-0.5177461,0.92057055,0.07030745599999999,0.024501082,-0.018109497,31.5,15.96,32.7
1553498060641,-9.572019000000001,-0.53809685,0.93254155,0.082025364,0.022370555,-0.020240024,31.5,16.2,32.7
1553498060662,-9.628283,-0.5907693,0.92895025,0.113983296,0.018109497,-0.037284255,31.56,16.44,32.7
1553498060681,-9.677961,-0.641646,0.9008184000000001,0.13848437,0.012783173500000002,-0.049002163,31.56,16.68,32.7
1553498060701,-9.676167,-0.6368576,0.8972271,0.15659387,0.008522116,-0.046871635999999994,31.62,16.92,32.7
1553498060721,-9.725846,-0.6362591,0.9080010000000001,0.15765914,0.017044231,-0.036218993,31.68,17.16,32.7
1553498060741,-9.665991,-0.6440403,0.8523358,0.16192019,0.018109497,-0.03834952,31.68,17.34,32.7
1553498060762,-9.680955,-0.60932434,0.82899237,0.15339808,0.017044231,-0.04261058,31.74,17.52,32.7
1553498060782,-9.679159,-0.50038815,0.7769185000000001,0.10013486,0.011717908999999999,-0.039414786,31.8,17.7,32.64
1553498060802,-9.687539,-0.47225627,0.770933,0.051132694000000006,0.007456851,-0.03834952,31.86,17.88,32.7
1553498060821,-9.674371,-0.4878186,0.80564886,-0.014913702,0.007456851,-0.04474111,31.92,18.0,32.7
1553498060841,-9.66659,-0.52253455,0.8295909,-0.04580637,0.008522116,-0.05006743,31.92,18.18,32.7
1553498060861,-9.648633,-0.58657944,0.91697925,-0.04474111,0.00958738,-0.054328485999999995,31.98,18.36,32.7
1553498060882,-9.685144000000001,-0.62608373,0.825401,0.0031957934000000003,0.0031957934000000003,-0.05752428,31.98,18.42,32.64
1553498060901,-9.716269500000001,-0.62129533,0.825401,0.026631612000000002,-0.0031957934000000003,-0.05006743,31.98,18.42,32.64
1553498060922,-9.703699,-0.623091,0.7751228,0.02876214,-0.0031957934000000003,-0.04261058,31.98,18.42,32.64
1553498060941,-9.729436999999999,-0.6075286999999999,0.7954735,0.011717908999999999,-0.0063915867,-0.043675844000000005,31.92,18.42,32.64
1553498060962,-9.705494999999999,-0.59017074,0.7721300999999999,-0.00958738,-0.0031957934000000003,-0.049002163,31.92,18.42,32.64
1553498060982,-9.706094,-0.6051345,0.85772276,-0.024501082,-0.010652645,-0.05219796,31.92,18.42,32.58
1553498061001,-9.719261999999999,-0.6099229,0.83856916,-0.023435817999999997,-0.0053263223,-0.053263225,31.92,18.36,32.58
1553498061022,-9.733028,-0.66259533,0.86131406,-0.023435817999999997,-0.002130529,-0.05006743,31.92,18.3,32.58
1553498061041,-9.680955,-0.6841431,0.83497787,-0.022370555,0.0,-0.046871635999999994,31.92,18.24,32.58
1553498061061,-9.763555,-0.6703765,0.6841431,-0.022370555,-0.0063915867,-0.036218993,31.92,18.12,32.58
1553498061082,-9.770139,-0.6823475,0.760159,-0.039414786,-0.022370555,-0.010652645,31.92,18.06,32.58
1553498061101,-9.612122,-0.5991489999999999,0.8912416,-0.03195793,-0.02130529,-0.0063915867,31.86,18.0,32.64
1553498061121,-9.634866,-0.4818331,0.9379284999999999,-0.0031957934000000003,-0.013848438000000001,-0.03089267,31.86,17.88,32.7
1553498061142,-9.674371,-0.47105917,0.90979666,0.007456851,-0.007456851,-0.04261058,31.86,17.7,32.76
1553498061162,-9.665991,-0.51475334,0.92535895,0.018109497,-0.0010652645,-0.04474111,31.8,17.58,32.82
1553498061181,-9.642049,-0.55964464,0.8948328999999999,0.026631612000000002,0.0010652645,-0.047936900000000005,31.8,17.46,32.88
1553498061201,-9.662399,-0.6039374,0.90740246,0.012783173500000002,0.010652645,-0.04474111,31.74,17.34,32.88
1553498061221,-9.615712,-0.6206968,0.9959879,-0.014913702,0.01917476,-0.040480047000000005,31.68,17.28,32.82
1553498061241,-9.516354,-0.5823896,0.9139864999999999,-0.02130529,0.037284255,-0.040480047000000005,31.62,17.1,32.82
1553498061262,-9.660604,-0.7272388000000001,0.7685388000000001,0.033023197000000004,0.02130529,-0.049002163,31.5,16.98,32.82
1553498061281,-9.636662,-0.7206547,0.82001406,0.060720075,0.012783173500000002,-0.046871635999999994,31.44,16.92,32.76
1553498061301,-9.640253,-0.6422445999999999,0.82121116,0.09267801,0.020240024,-0.04261058,31.44,16.86,32.7
1553498061321,-9.698313,-0.57400984,0.7918821999999999,0.08841695,0.020240024,-0.039414786,31.38,16.8,32.64
1553498061342,-9.670779,-0.5823896,0.8690952,0.05539375,0.02130529,-0.051132694000000006,31.44,16.8,32.58
1553498061361,-9.683349,-0.63087213,0.8714894,0.049002163,0.01917476,-0.056459017,31.44,16.8,32.58
1553498061381,-9.741408,-0.6063316,0.79846627,0.056459017,0.011717908999999999,-0.05219796,31.5,16.86,32.58
1553498061401,-9.7007065,-0.56443304,0.81402856,0.06285059999999999,0.004261058,-0.041545313,31.56,16.98,32.64
1553498061421,-9.653421,-0.4985925,0.79008657,0.051132694000000006,0.00958738,-0.04580637,31.56,17.04,32.7
1553498061442,-9.730036,-0.50397944,0.6991069000000001,0.033023197000000004,0.013848438000000001,-0.06924219,31.56,17.16,32.82
1553498061461,-9.742006,-0.54767364,0.7015011,0.0,0.008522116,-0.07776430000000001,31.5,17.28,32.94
1553498061481,-9.714474000000001,-0.5506664000000001,0.729633,-0.02876214,0.00958738,-0.07137272,31.44,17.28,33.06
1553498061501,-9.688736,-0.55605334,0.700304,-0.04580637,0.0,-0.07669904,31.38,17.34,33.18
1553498061521,-9.688736,-0.58777654,0.6548142,-0.06498113,-0.007456851,-0.08735169,31.26,17.4,33.3
1553498061542,-9.679757,-0.6242880999999999,0.7086836999999999,-0.09054748,-0.015978966,-0.08735169,31.2,17.4,33.36
1553498061561,-9.713875,-0.65242,0.5943606,-0.13102753,-0.017044231,-0.07456851,31.2,17.34,33.42
1553498061581,-9.696517,-0.61052144,0.52253455,-0.18961707,-0.026631612000000002,-0.05752428,31.14,17.28,33.42
1553498061601,-9.742006,-0.5955577,0.55006784,-0.25672874,-0.04474111,-0.053263225,31.08,17.22,33.36
1553498061622,-9.695319999999999,-0.6242880999999999,0.5781997,-0.32597092,-0.06711166,-0.058589544,31.02,17.22,33.24
1553498061641,-9.651626,-0.6787562,0.66858083,-0.37923414,-0.07776430000000001,-0.06498113,31.02,17.1,33.18
1553498061661,-9.640852,-0.7038953,0.75836337,-0.39308259999999995,-0.08628642,-0.068176925,30.96,17.04,33.06
1553498061681,-9.64145,-0.7140707,0.7787141,-0.39414784,-0.09374327,-0.07137272,30.96,16.98,33.0
1553498061701,-9.627085000000001,-0.7589619000000001,0.866701,-0.406931,-0.10759171,-0.082025364,30.9,16.98,32.94
1553498061722,-9.6288805,-0.801459,0.9068039000000001,-0.40906155,-0.10865697,-0.08841695,30.9,16.98,32.88
1553498061741,-9.654618,-0.87448215,0.9187749,-0.42930159999999995,-0.101200126,-0.08948222,30.9,16.98,32.82
1553498061761,-9.683349,-0.8655039000000001,0.9828198,-0.44421527,-0.094808534,-0.07776430000000001,30.84,16.98,32.76
1553498061781,-9.680955,-0.9295488000000001,1.0636241000000002,-0.41758367,-0.08735169,-0.07243799,30.84,16.92,32.76
1553498061801,-9.652225,-0.99060094,1.0737995,-0.35473305,-0.07456851,-0.06924219,30.84,16.74,32.76
1553498061822,-9.653421,-0.96067345,1.0785878999999998,-0.28336033,-0.06604639400000001,-0.06285059999999999,30.84,16.5,32.82
1553498061841,-9.660604,-0.9307459000000001,1.0839748,-0.23755397,-0.05219796,-0.051132694000000006,30.9,16.14,32.82
1553498061861,-9.605537,-0.9127894,1.0522517,-0.21624869,-0.041545313,-0.046871635999999994,30.84,15.72,32.88
1553498061881,-9.587581,-0.89543146,1.0247183000000002,-0.20985709,-0.023435817999999997,-0.051132694000000006,30.9,15.3,32.88
1553498061902,-9.579201,-0.86969376,0.9247603999999999,-0.21518342,-0.011717908999999999,-0.053263225,30.9,14.82,32.94
1553498061921,-9.637260000000001,-0.8655039000000001,0.92775315,-0.22370553,-0.007456851,-0.047936900000000005,30.9,14.4,32.94
1553498061941,-9.661202000000001,-0.8810662,0.8858546,-0.23968449999999997,-0.0063915867,-0.039414786,30.9,14.04,33.0
1553498061961,-9.694721000000001,-0.8750806999999999,0.86849666,-0.26418558,-0.0063915867,-0.036218993,30.9,13.8,33.0
1553498061981,-9.693524,-0.86849666,0.87448215,-0.29188246,-0.012783173500000002,-0.037284255,30.9,13.68,33.06
1553498062002,-9.652225,-0.8074445,0.91458505,-0.330232,-0.02130529,-0.047936900000000005,30.9,13.56,33.12
1553498062021,-9.604341,-0.7152678000000001,0.830788,-0.35153726,-0.0053263223,-0.06498113,30.96,13.56,33.24
1553498062041,-9.733627,-0.9588778,0.6769605,-0.4165184,-0.012783173500000002,-0.06711166,30.96,13.5,33.3
1553498062061,-9.706693,-1.0893618,0.81283146,-0.49960902,-0.035153727999999995,-0.049002163,30.96,13.5,33.36
1553498062082,-9.554062,-1.0791864,0.91338795,-0.49428272,-0.037284255,-0.03089267,31.02,13.38,33.48
1553498062102,-9.609129,-1.039682,0.8523358,-0.47723848,-0.024501082,-0.020240024,31.08,13.26,33.54
1553498062121,-9.638457,-0.9415198,0.85293436,-0.49428272,-0.020240024,-0.012783173500000002,31.14,13.02,33.6
1553498062142,-9.618107,-0.9283517,0.8547299999999999,-0.55606806,-0.008522116,-0.02130529,31.2,12.48,33.6
1553498062161,-9.6288805,-0.96426475,0.86011696,-0.588026,-0.00958738,-0.040480047000000005,31.26,12.24,33.6
1553498062181,-9.642648,-1.1534066,0.88944596,-0.5550028,-0.012783173500000002,-0.06604639400000001,31.32,11.64,33.66
1553498062202,-9.695917999999999,-1.252766,0.9624690999999999,-0.45060685,-0.012783173500000002,-0.060720075,31.38,11.22,33.66
1553498062221,-9.707291,-1.3239936,0.96905315,-0.29188246,-0.012783173500000002,-0.040480047000000005,31.44,10.92,33.66
1553498062241,-9.662998,-1.3670892,0.97503865,-0.12037488,-0.014913702,-0.02130529,31.44,10.62,33.72
1553498062261,-9.627085000000001,-1.287482,0.9624690999999999,0.05006743,-0.013848438000000001,-0.015978966,31.5,10.38,33.72
1553498062282,-9.650428999999999,-1.1851299,0.91219085,0.17363810000000002,-0.007456851,-0.012783173500000002,31.5,10.26,33.72
1553498062301,-9.627684,-1.0690111,0.88046765,0.22690132,-0.00958738,-0.004261058,31.56,10.14,33.78
1553498062322,-9.586383999999999,-0.98700964,0.9103952,0.2428803,-0.008522116,-0.0031957934000000003,31.56,10.2,33.78
1553498062341,-9.575610000000001,-1.0223241,0.8403648000000001,0.26312032,-0.007456851,-0.02130529,31.62,10.2,33.78
1553498062361,-9.628283,-1.0426749,0.87328506,0.28442562,0.0010652645,-0.036218993,31.62,10.2,33.78
1553498062381,-9.664195,-0.9995792,0.8726865,0.294013,0.0031957934000000003,-0.027696876000000002,31.68,10.26,33.72
1553498062401,-9.67018,-1.0726023999999998,0.9271546,0.32490566,-0.0031957934000000003,-0.014913702,31.68,10.32,33.72
1553498062422,-9.644442999999999,-1.1569979,0.97743285,0.41119209999999995,-0.0053263223,-0.025566347000000003,31.68,10.32,33.72
1553498062441,-9.621099000000001,-1.2150573999999998,1.0247183000000002,0.50600064,-0.0031957934000000003,-0.035153727999999995,31.68,10.38,33.72
