TimeStamp,Ax,Ay,Az,Gx,Gy,Gz,Mx,My,Mz
1553497873966,-9.701903999999999,0.4890157,-0.026934769,0.10226539,0.101200126,-0.039414786,31.86,24.12,32.28
1553497873986,-9.69951,0.52971715,-0.08559271,0.12783173,0.09161274,-0.060720075,31.8,24.24,32.22
1553497874006,-9.7084875,0.61112,-0.11552023,0.12570119999999999,0.07030745599999999,-0.07243799,31.74,24.18,32.16
1553497874026,-9.653421,0.65900403,-0.094570965,0.10652645,0.05539375,-0.08628642,31.68,24.12,32.1
1553497874046,-9.7007065,0.6572084,-0.088585466,0.07563378,0.049002163,-0.10333065,31.62,24.06,32.1
1553497874066,-9.76116,0.57400984,-0.11252748,0.033023197000000004,0.051132694000000006,-0.11611383,31.56,24.0,32.16
1553497874086,-9.821015,0.42975920000000006,-0.12988544,-0.01917476,0.051132694000000006,-0.112918034,31.44,23.94,32.22
1553497874106,-9.898827,0.3824737,-0.08559271,-0.060720075,0.054328485999999995,-0.09267801,31.38,24.0,32.34
1553497874126,-9.919775999999999,0.31004912,-0.076614454,-0.07350325,0.054328485999999995,-0.07882957,31.26,24.0,32.4
1553497874146,-9.983222999999999,0.29149407,-0.12928689,-0.06924219,0.06391586,-0.07137272,31.26,24.06,32.52
1553497874166,-9.966463000000001,0.29508537,-0.1604115,-0.049002163,0.056459017,-0.06391586,31.2,24.18,32.58
1553497874185,-9.910798,0.28012159999999997,-0.17238252,-0.03834952,0.049002163,-0.058589544,31.2,24.3,32.7
1553497874206,-9.8515415,0.2645593,-0.20709845,-0.027696876000000002,0.05219796,-0.056459017,31.2,24.42,32.76
1553497874226,-9.849147,0.20949265,-0.25677812,-0.033023197000000004,0.05006743,-0.05006743,31.2,24.54,32.7
1553497874246,-9.83957,0.25378537,-0.23762453,-0.03834952,0.034088463,-0.041545313,31.2,24.66,32.7
1553497874266,-9.798869,0.30286652,-0.26336220000000005,-0.023435817999999997,0.027696876000000002,-0.034088463,31.2,24.78,32.64
1553497874286,-9.801263,0.35793316,-0.24361002,-0.020240024,0.010652645,-0.033023197000000004,31.2,24.84,32.58
1553497874305,-9.752781,0.3441665,-0.12569559,-0.03089267,-0.004261058,-0.036218993,31.26,24.96,32.58
1553497874326,-9.711481,0.35553896,-0.08918401599999999,-0.022370555,-0.0063915867,-0.046871635999999994,31.26,24.96,32.52
1553497874346,-9.744401,0.29688102,-0.032920275,0.004261058,0.004261058,-0.049002163,31.26,24.96,32.52
1553497874365,-9.8276,0.32501290000000005,-0.076614454,0.026631612000000002,-0.0010652645,-0.03834952,31.26,24.9,32.58
1553497874386,-9.797672,0.3238158,-0.07003039999999999,0.04261058,-0.00958738,-0.033023197000000004,31.2,24.78,32.7
1553497874405,-9.77792,0.31423897,-0.05267244,0.05006743,-0.02130529,-0.049002163,31.14,24.78,32.76
1553497874425,-9.768343,0.28431144,-0.005985504,0.043675844000000005,-0.013848438000000001,-0.06604639400000001,31.14,24.72,32.88
1553497874445,-9.794678999999999,0.22385786,-0.019752163,0.02876214,-0.018109497,-0.058589544,31.08,24.66,33.0
1553497874466,-9.7719345,0.2621651,-0.009576807,0.03195793,-0.013848438000000001,-0.035153727999999995,31.08,24.66,33.06
1553497874485,-9.768942,0.26515785,-0.09636662,0.049002163,-0.014913702,-0.02876214,31.08,24.6,33.12
1553497874506,-9.791686,0.31064767,-0.073023155,0.05965481,-0.013848438000000001,-0.02876214,31.08,24.6,33.18
1553497874526,-9.764750999999999,0.39683893,-0.12928689,0.07563378,-0.013848438000000001,-0.027696876000000002,31.08,24.6,33.12
1553497874546,-9.746197,0.4261679,-0.22984336,0.07989483,-0.020240024,-0.029827405,31.08,24.6,33.12
1553497874565,-9.746795,0.4985925,-0.20470424,0.06711166,-0.024501082,-0.03195793,31.08,24.6,33.12
1553497874586,-9.744401,0.56084174,-0.17956513,0.027696876000000002,-0.01917476,-0.03834952,31.08,24.6,33.12
1553497874606,-9.7084875,0.53091425,-0.20949265,-0.024501082,-0.027696876000000002,-0.05006743,31.08,24.6,33.06
1553497874626,-9.692925,0.45789108,-0.1388637,-0.07776430000000001,-0.027696876000000002,-0.05965481,31.02,24.6,33.0
1553497874646,-9.721656,0.39863458,-0.110133275,-0.113983296,-0.023435817999999997,-0.06178534,30.96,24.6,32.94
1553497874665,-9.738416,0.35494040000000004,-0.06344634,-0.12357068,-0.020240024,-0.05965481,30.96,24.6,32.88
1553497874686,-9.771336,0.27533320000000006,-0.047285482000000004,-0.10652645,-0.02130529,-0.06391586,30.96,24.6,32.88
1553497874705,-9.767744,0.26156655,-0.050278235,-0.09161274,-0.024501082,-0.06924219,30.96,24.6,32.82
1553497874726,-9.765948,0.27473465,-0.045489833,-0.080960095,-0.02130529,-0.07456851,30.96,24.6,32.76
1553497874746,-9.765948,0.24600422,-0.038307227,-0.07243799,-0.017044231,-0.07137272,30.96,24.6,32.7
1553497874766,-9.737817,0.25677812,-0.002992752,-0.08628642,-0.020240024,-0.068176925,30.96,24.6,32.64
1553497874785,-9.700109,0.22625206,0.051475335,-0.083090626,-0.015978966,-0.06711166,30.96,24.6,32.64
1553497874805,-9.733028,0.21487960000000003,0.06703765,-0.07350325,0.0,-0.06924219,30.96,24.54,32.64
1553497874826,-9.77373,0.20470424,0.08319851,-0.058589544,0.007456851,-0.06391586,30.96,24.54,32.64
1553497874846,-9.809643,0.21009120000000003,0.04129998,-0.03834952,0.0031957934000000003,-0.05965481,30.96,24.48,32.64
1553497874866,-9.835979,0.19393034,0.006584055,-0.024501082,-0.010652645,-0.06391586,30.96,24.48,32.64
1553497874885,-9.828796,0.21308395,0.0035913025,-0.029827405,-0.013848438000000001,-0.06285059999999999,30.96,24.42,32.64
1553497874905,-9.797672,0.18674773,-0.009576807,-0.036218993,-0.01917476,-0.05539375,30.96,24.36,32.7
1553497874926,-9.755774,0.20649989,0.007182605,-0.04261058,-0.017044231,-0.05539375,30.96,24.3,32.76
1553497874946,-9.755774,0.20470424,-0.020350715,-0.03834952,-0.013848438000000001,-0.05539375,30.96,24.24,32.76
1553497874966,-9.762358,0.19512744,-0.010773907,-0.029827405,-0.020240024,-0.056459017,30.96,24.24,32.82
1553497874986,-9.778519000000001,0.18315643,-0.010175358,-0.02876214,-0.022370555,-0.058589544,30.96,24.18,32.88
1553497875006,-9.798869,0.25917232,0.008379705999999999,-0.024501082,-0.027696876000000002,-0.046871635999999994,30.9,24.18,32.88
1553497875026,-9.743203999999999,0.22685061,-0.0023942017,-0.015978966,-0.024501082,-0.041545313,30.9,24.18,32.94
1553497875046,-9.715072,0.28191724,0.023343466,-0.010652645,-0.023435817999999997,-0.04474111,30.96,24.18,32.94
1553497875065,-9.702502,0.30466217,0.046686932,-0.0053263223,-0.013848438000000001,-0.04580637,30.96,24.18,32.94
1553497875085,-9.711481,0.24420857,0.055066638,-0.018109497,-0.0031957934000000003,-0.046871635999999994,30.96,24.18,32.94
1553497875106,-9.745,0.20530279,0.012569559,-0.03195793,0.011717908999999999,-0.049002163,30.96,24.18,32.94
1553497875126,-9.807847,0.14065935,0.033518825,-0.03834952,0.026631612000000002,-0.05006743,30.96,24.24,33.0
1553497875146,-9.83957,0.1364695,-0.008379705999999999,-0.027696876000000002,0.025566347000000003,-0.04261058,31.02,24.24,33.0
1553497875166,-9.796474,0.11552023,0.03232172,0.0010652645,0.02130529,-0.03089267,31.02,24.3,33.0
1553497875186,-9.76535,0.16160862,0.0,0.01917476,0.025566347000000003,-0.023435817999999997,31.02,24.3,33.0
1553497875206,-9.753978,0.19393034,-0.011372458,0.026631612000000002,0.01917476,-0.02130529,31.02,24.36,33.06
1553497875226,-9.761759,0.20171149,-0.044292733,0.02130529,0.017044231,-0.022370555,31.02,24.36,33.06
1553497875246,-9.753378999999999,0.23882163,-0.05327099,0.012783173500000002,0.00958738,-0.02130529,31.08,24.36,33.06
1553497875267,-9.756969999999999,0.27832595,-0.08738836,0.007456851,0.002130529,-0.025566347000000003,31.08,24.36,33.06
1553497875285,-9.746795,0.30765492,-0.05925649,0.002130529,0.0031957934000000003,-0.027696876000000002,31.08,24.36,33.12
1553497875306,-9.750386,0.32561144,-0.06344634,-0.020240024,0.0053263223,-0.036218993,31.08,24.3,33.12
1553497875326,-9.766547000000001,0.28790274,-0.05805939,-0.035153727999999995,0.0,-0.03834952,31.14,24.3,33.12
1553497875346,-9.77792,0.2765303,-0.090381116,-0.04580637,0.0010652645,-0.040480047000000005,31.14,24.24,33.12
1553497875366,-9.784504,0.23403321,-0.0017956513,-0.041545313,-0.0063915867,-0.039414786,31.14,24.24,33.12
1553497875386,-9.756969999999999,0.22445641,-0.053869538,-0.01917476,-0.0053263223,-0.04261058,31.14,24.18,33.12
1553497875408,-9.783905,0.25977087,-0.053869538,-0.0031957934000000003,-0.004261058,-0.04474111,31.08,24.18,33.12
1553497875427,-9.791686,0.2645593,-0.05566519,-0.0063915867,-0.0063915867,-0.04261058,31.02,24.18,33.12
1553497875445,-9.782708,0.24899697,-0.065242,-0.025566347000000003,-0.011717908999999999,-0.03834952,30.96,24.12,33.12
1553497875465,-9.77373,0.23343466,-0.07003039999999999,-0.04261058,-0.010652645,-0.035153727999999995,30.9,24.12,33.06
1553497875485,-9.752182000000001,0.24241292,-0.05267244,-0.041545313,-0.00958738,-0.037284255,30.84,24.12,33.06
1553497875505,-9.751583,0.2645593,-0.061052144,-0.033023197000000004,-0.012783173500000002,-0.03834952,30.84,24.06,33.06
1553497875527,-9.757569,0.27593175,-0.044292733,-0.01917476,-0.008522116,-0.040480047000000005,30.78,24.06,33.06
1553497875547,-9.774927,0.34117374,-0.05805939,-0.017044231,-0.008522116,-0.043675844000000005,30.84,24.06,33.06
1553497875566,-9.767744,0.30825347,-0.075417355,-0.036218993,-0.0063915867,-0.05219796,30.84,24.06,33.06
1553497875586,-9.788095,0.3274071,-0.044891283,-0.09267801,-0.00958738,-0.06285059999999999,30.84,24.06,33.06
1553497875605,-9.768942,0.24241292,-0.04070143,-0.14594123,-0.0053263223,-0.05965481,30.9,24.12,33.06
1553497875626,-9.770139,0.16400282,-0.075417355,-0.16831179,-0.0010652645,-0.051132694000000006,30.9,24.12,33.06
1553497875645,-9.765948,0.13168110000000002,-0.032920275,-0.14807177,-0.0063915867,-0.04580637,30.9,24.18,33.12
1553497875665,-9.776124000000001,0.18195933,-0.020350715,-0.07882957,-0.00958738,-0.04580637,30.9,24.18,33.18
1553497875685,-9.772532,0.17836803,-0.021547815,-0.018109497,-0.013848438000000001,-0.04580637,30.9,24.24,33.24
1553497875705,-9.7803135,0.1448492,0.033518825,0.022370555,-0.00958738,-0.040480047000000005,30.9,24.24,33.36
1553497875726,-9.766547000000001,0.15203181,0.031124622,0.033023197000000004,-0.0063915867,-0.034088463,30.84,24.24,33.42
1553497875746,-9.758167,0.16519992,0.019752163,0.041545313,-0.0063915867,-0.025566347000000003,30.84,24.24,33.54
1553497875766,-9.727641,0.18614918,0.036511577999999996,0.046871635999999994,-0.013848438000000001,-0.023435817999999997,30.9,24.18,33.6
1553497875786,-9.672575,0.24660277,0.046686932,0.054328485999999995,-0.0031957934000000003,-0.026631612000000002,30.9,24.12,33.66
1553497875806,-9.715671,0.22206220000000004,0.025737667000000002,0.060720075,0.007456851,-0.03195793,30.9,24.06,33.72
1553497875826,-9.739014,0.2124854,0.0035913025,0.05006743,0.015978966,-0.034088463,30.96,24.0,33.72
1553497875846,-9.771336,0.18495208,-0.075417355,0.05006743,0.018109497,-0.034088463,30.96,23.94,33.72
1553497875866,-9.803658,0.24480712,-0.08200141,0.05006743,0.007456851,-0.033023197000000004,30.96,23.88,33.72
1553497875886,-9.792883999999999,0.21068975,-0.089782566,0.05539375,0.0053263223,-0.026631612000000002,31.02,23.82,33.66
1553497875906,-9.760562,0.22804771,-0.10414778,0.058589544,0.0010652645,-0.024501082,31.02,23.76,33.6
1553497875926,-9.7719345,0.3513491,-0.045489833,0.053263225,0.0010652645,-0.023435817999999997,31.02,23.76,33.54
1553497875946,-9.74859,0.31543607,-0.11133038,0.053263225,0.0031957934000000003,-0.02876214,31.02,23.7,33.48
1553497875966,-9.758167,0.29149407,-0.11192893,0.025566347000000003,0.0,-0.037284255,31.08,23.7,33.42
1553497875986,-9.751583,0.3226187,-0.10833762599999999,0.004261058,-0.0031957934000000003,-0.03834952,31.08,23.7,33.36
1553497876006,-9.743203999999999,0.3196259,-0.107739076,-0.008522116,-0.0010652645,-0.043675844000000005,31.14,23.7,33.24
1553497876026,-9.737817,0.34596214,-0.09995792,-0.018109497,-0.007456851,-0.051132694000000006,31.14,23.7,33.18
1553497876046,-9.730635000000001,0.35553896,-0.093373865,-0.03195793,-0.010652645,-0.056459017,31.2,23.7,33.18
1553497876066,-9.730635000000001,0.2885013,-0.08439561,-0.05219796,-0.00958738,-0.05965481,31.26,23.76,33.18
1553497876086,-9.757569,0.21428105,-0.05686229,-0.07669904,-0.0053263223,-0.060720075,31.26,23.76,33.18
1553497876106,-9.802461,0.19033903,0.0041898529999999995,-0.07882957,-0.0010652645,-0.054328485999999995,31.26,23.7,33.24
1553497876126,-9.79827,0.16639702,0.0017956513,-0.056459017,-0.002130529,-0.051132694000000006,31.2,23.7,33.24
1553497876146,-9.796474,0.16519992,0.013766658999999999,-0.023435817999999997,-0.004261058,-0.05006743,31.2,23.7,33.3
1553497876167,-9.800066000000001,0.20470424,-0.025139118,0.007456851,-0.0053263223,-0.04580637,31.14,23.64,33.3
1553497876186,-9.758766,0.18914193,-0.020350715,0.015978966,-0.007456851,-0.049002163,31.14,23.64,33.36
1553497876206,-9.770736999999999,0.19632454,-0.044891283,0.0031957934000000003,-0.0010652645,-0.047936900000000005,31.08,23.58,33.42
1553497876226,-9.767146,0.22026655,-0.04249708,-0.002130529,0.002130529,-0.040480047000000005,31.02,23.52,33.48
1553497876246,-9.791686,0.19632454,-0.06584055,0.002130529,0.0010652645,-0.035153727999999995,31.02,23.52,33.48
1553497876266,-9.803059,0.21068975,-0.08319851,0.010652645,-0.002130529,-0.036218993,30.96,23.52,33.54
1553497876286,-9.793482000000001,0.23822308,-0.046686932,0.023435817999999997,-0.010652645,-0.041545313,30.96,23.52,33.54
1553497876306,-9.761759,0.24001873,-0.032920275,0.025566347000000003,-0.012783173500000002,-0.03834952,30.9,23.52,33.54
1553497876326,-9.737217999999999,0.25797522,-0.015562311,0.013848438000000001,-0.0063915867,-0.036218993,30.9,23.52,33.54
1553497876346,-9.74859,0.25977087,-0.01316811,0.0063915867,-0.0010652645,-0.035153727999999995,30.84,23.52,33.48
1553497876365,-9.746197,0.24061728,-0.046088383,0.0063915867,0.0010652645,-0.043675844000000005,30.84,23.52,33.48
1553497876385,-9.7641535,0.25917232,-0.05746084,0.007456851,-0.0010652645,-0.049002163,30.84,23.52,33.48
1553497876406,-9.755175,0.260968,-0.031124622,0.013848438000000001,-0.004261058,-0.043675844000000005,30.84,23.52,33.42
1553497876426,-9.736021000000001,0.24600422,-0.035913024,0.018109497,0.0031957934000000003,-0.03834952,30.84,23.46,33.42
1553497876445,-9.772532,0.23762453,-0.06344634,0.012783173500000002,0.0063915867,-0.03834952,30.84,23.46,33.42
1553497876466,-9.767744,0.23403321,-0.062249242999999996,0.0053263223,0.007456851,-0.03834952,30.84,23.46,33.36
1553497876486,-9.786897999999999,0.23523031,-0.090979666,-0.007456851,-0.0053263223,-0.040480047000000005,30.9,23.52,33.36
1553497876506,-9.7641535,0.2693477,-0.020949265,-0.00958738,-0.0063915867,-0.037284255,30.9,23.58,33.36
1553497876526,-9.798869,0.20290859,0.0047884034,-0.008522116,0.0010652645,-0.037284255,30.9,23.64,33.3
1553497876546,-9.820416,0.22864626,0.0005985504,0.002130529,0.008522116,-0.046871635999999994,30.9,23.7,33.24
1553497876566,-9.834782,0.29568392,-0.05267244,0.017044231,-0.0010652645,-0.05219796,30.9,23.82,33.24
1553497876585,-9.800664999999999,0.32800564,-0.08918401599999999,0.010652645,-0.014913702,-0.051132694000000006,30.96,23.88,33.18
1553497876605,-9.807249,0.30286652,-0.055066638,-0.012783173500000002,-0.018109497,-0.049002163,30.96,23.94,33.18
1553497876625,-9.762955999999999,0.30166942,-0.09876082,-0.046871635999999994,-0.017044231,-0.047936900000000005,30.96,24.0,33.18
1553497876646,-9.751583,0.27892449999999996,-0.093972415,-0.07243799,-0.024501082,-0.046871635999999994,30.96,24.06,33.18
1553497876666,-9.738416,0.26635495,-0.025737667000000002,-0.07243799,-0.027696876000000002,-0.04474111,30.96,24.12,33.24
1553497876686,-9.752781,0.23822308,-0.047285482000000004,-0.053263225,-0.018109497,-0.04261058,31.02,24.12,33.24
1553497876710,-9.768343,0.23223756,-0.06404489,-0.02876214,-0.017044231,-0.041545313,31.08,24.12,33.3
1553497876726,-9.76116,0.27832595,-0.047884032,-0.022370555,-0.018109497,-0.047936900000000005,31.08,24.12,33.3
1553497876746,-9.777321,0.24899697,-0.10115502,-0.029827405,-0.017044231,-0.054328485999999995,31.08,24.06,33.3
1553497876766,-9.7863,0.21188685,-0.11971009,-0.060720075,-0.00958738,-0.058589544,31.08,24.0,33.3
1553497876786,-9.817424,0.25737667,-0.09935937,-0.111852765,-0.011717908999999999,-0.054328485999999995,31.08,23.94,33.3
1553497876805,-9.800664999999999,0.30645782,-0.019153614,-0.14807177,-0.02130529,-0.049002163,31.08,23.88,33.3
1553497876826,-9.72824,0.17537527,0.015562311,-0.13848437,-0.025566347000000003,-0.05219796,31.08,23.82,33.3
1553497876847,-9.778519000000001,0.12330139,0.05267244,-0.1107875,-0.02130529,-0.05752428,31.02,23.7,33.3
1553497876865,-9.774927,0.16759412,0.07841010400000001,-0.068176925,-0.020240024,-0.04580637,31.02,23.64,33.3
1553497876885,-9.755774,0.13826515,0.04129998,-0.03089267,-0.017044231,-0.04261058,30.96,23.52,33.3
1553497876906,-9.754577000000001,0.15502456,0.022146367,-0.014913702,-0.024501082,-0.04474111,30.96,23.46,33.3
1553497876926,-9.725846,0.16759412,0.015562311,-0.008522116,-0.03195793,-0.047936900000000005,30.96,23.4,33.24
1553497876946,-9.741408,0.18315643,0.0724246,-0.004261058,-0.018109497,-0.043675844000000005,30.96,23.34,33.24
1553497876966,-9.739613,0.16400282,0.09696517,-0.0063915867,-0.010652645,-0.035153727999999995,30.9,23.28,33.24
1553497876986,-9.774328,0.16759412,-0.037708677,-0.015978966,-0.0010652645,-0.03089267,30.84,23.22,33.24
1553497877005,-9.847352,0.13587095,-0.12509704,-0.014913702,-0.015978966,-0.024501082,30.9,23.16,33.24
1553497877025,-9.868899,0.27593175,0.06464344,0.0063915867,-0.039414786,-0.018109497,30.9,23.16,33.24
1553497877046,-9.785102,0.23283611,0.12868834,0.05006743,-0.024501082,-0.035153727999999995,30.9,23.16,33.24
1553497877066,-9.878476,0.22625206,0.051475335,0.056459017,-0.014913702,-0.047936900000000005,30.9,23.16,33.24
1553497877086,-9.816227,0.20530279,0.05207389,0.05006743,-0.014913702,-0.02876214,30.9,23.16,33.24
1553497877106,-9.742605000000001,0.15502456,0.009576807,0.047936900000000005,-0.008522116,-0.015978966,30.9,23.16,33.24
1553497877126,-9.705494999999999,0.13467385,0.020350715,0.05006743,-0.014913702,-0.02130529,30.96,23.16,33.24
1553497877146,-9.655814999999999,0.16340427,0.10474633,0.056459017,-0.017044231,-0.024501082,30.96,23.16,33.3
1553497877166,-9.667786999999999,0.13766660000000003,0.09636662,0.06498113,0.0063915867,-0.020240024,31.02,23.16,33.3
1553497877185,-9.680955,0.22266077,0.13108255,0.07563378,0.017044231,-0.022370555,31.08,23.16,33.36
1553497877205,-9.632472,0.15502456,0.08439561,0.09161274,0.023435817999999997,-0.039414786,31.14,23.16,33.42
1553497877226,-9.640253,0.14844051,0.092775315,0.096939065,0.033023197000000004,-0.06498113,31.14,23.16,33.42
1553497877246,-9.681553,0.110731825,-0.05267244,0.09054748,0.04261058,-0.068176925,31.14,23.16,33.42
1553497877267,-9.739014,0.21607670000000004,-0.11133038,0.07563378,0.046871635999999994,-0.06285059999999999,31.2,23.22,33.48
1553497877285,-9.739613,0.22864626,-0.18495208,0.07243799,0.027696876000000002,-0.06285059999999999,31.2,23.22,33.54
1553497877305,-9.778519000000001,0.31423897,-0.073023155,0.06924219,0.010652645,-0.06711166,31.2,23.22,33.54
1553497877326,-9.821614,0.20829555,-0.073621705,0.084155895,0.007456851,-0.05752428,31.14,23.22,33.6
1553497877345,-9.835381,0.1933318,-0.02813187,0.09587380000000001,0.01917476,-0.040480047000000005,31.2,23.22,33.6
1553497877366,-9.797672,0.12928689,-0.010175358,0.13635385,0.03195793,-0.004261058,31.2,23.28,33.6
1553497877386,-9.788095,0.06943185,0.18614918,0.17363810000000002,0.024501082,0.0010652645,31.2,23.28,33.66
1553497877405,-9.752781,0.065242,0.23044191,0.22903186,0.03834952,-0.0063915867,31.26,23.28,33.66
1553497877426,-9.850943,0.17836803,0.12509704,0.3568636,0.07456851,-0.011717908999999999,31.32,23.28,33.66
1553497877446,-9.844957,0.24301147,0.12988544,0.43249738,0.07563378,0.0031957934000000003,31.32,23.34,33.66
1553497877466,-9.726444,0.16340427,-0.15263036,0.43569317,0.08948222,0.0053263223,31.32,23.46,33.66
1553497877486,-9.825804,0.107739076,-0.3866636,0.34301516,0.068176925,-0.011717908999999999,31.32,23.58,33.6
1553497877506,-9.848549,0.23642741,-0.41359833,0.22690132,0.040480047000000005,-0.011717908999999999,31.32,23.76,33.54
1553497877525,-9.814430999999999,0.3184288,-0.37110126,0.13315806,0.012783173500000002,0.0053263223,31.26,23.94,33.48
1553497877546,-9.882666,0.39624038,-0.45370123,0.041545313,0.010652645,0.012783173500000002,31.2,24.18,33.42
1553497877566,-9.918579,0.42676646,-0.42197806,-0.033023197000000004,0.0010652645,0.027696876000000002,31.14,24.36,33.42
1553497877587,-9.929353,0.42078096,-0.42916065,-0.10333065,-0.023435817999999997,0.033023197000000004,31.08,24.6,33.42
1553497877606,-9.794081,0.60094464,-0.35254622,-0.13954964,-0.05006743,0.034088463,31.02,24.84,33.42
1553497877626,-9.704897,0.635062,-0.23343466,-0.14274544,-0.047936900000000005,0.0063915867,30.96,24.96,33.36
1553497877646,-9.693524,0.62728083,-0.15562311,-0.15126756,-0.04474111,-0.029827405,30.96,25.02,33.3
1553497877666,-9.646837,0.58298814,-0.14963761,-0.19813919,-0.033023197000000004,-0.049002163,30.9,25.08,33.24
1553497877686,-9.613318,0.62488663,-0.20231004,-0.26844665,-0.018109497,-0.053263225,30.9,25.08,33.18
1553497877706,-9.589975,0.56922144,-0.13108255,-0.34194988,-0.010652645,-0.06391586,30.9,25.08,33.06
1553497877726,-9.562441999999999,0.4938041,-0.10055647,-0.37923414,-0.004261058,-0.08948222,30.84,25.08,32.94
1553497877745,-9.555259,0.46028528,-0.06943185,-0.38775626,0.014913702,-0.11504856,30.84,25.02,32.82
1553497877766,-9.68275,0.44951138,-0.044292733,-0.38136467,0.033023197000000004,-0.113983296,30.84,24.96,32.7
1553497877786,-9.76116,0.40821138,-0.08140286,-0.37284255,0.037284255,-0.111852765,30.84,24.9,32.64
1553497877806,-9.830592,0.29747957,-0.027533319,-0.35579833,0.033023197000000004,-0.11824436,30.84,24.84,32.7
1553497877826,-9.843162,0.22565351,0.007182605,-0.3206446,0.027696876000000002,-0.13102753,30.84,24.72,32.76
1553497877845,-9.8437605,0.01436521,-0.037708677,-0.25566345,0.015978966,-0.12463594,30.84,24.54,32.82
1553497877865,-9.8916445,-0.13467385,-0.11791443,-0.165116,-0.002130529,-0.099069595,30.84,24.3,33.0
1553497877889,-9.904214,-0.090381116,-0.094570965,-0.08628642,-0.03089267,-0.07456851,30.9,24.06,33.12
1553497877905,-9.850344999999999,-0.11192893,-0.077213004,-0.018109497,-0.03834952,-0.068176925,30.9,23.88,33.24
1553497877925,-9.828796,-0.130484,-0.046686932,0.012783173500000002,-0.04580637,-0.06498113,30.9,23.7,33.3
1553497877946,-9.788692999999999,-0.029927522,0.020350715,0.04474111,-0.036218993,-0.05006743,30.9,23.52,33.36
1553497877966,-9.783307,0.12210429,0.02873042,0.08948222,-0.018109497,-0.027696876000000002,30.9,23.4,33.42
1553497877986,-9.72824,0.20111294,-0.045489833,0.13209279,-0.007456851,-0.020240024,30.9,23.34,33.42
1553497878006,-9.746795,0.25797522,-0.093373865,0.13954964,-0.002130529,-0.03195793,30.9,23.28,33.48
1553497878026,-9.737817,0.3357868,-0.14963761,0.11504856,-0.0031957934000000003,-0.035153727999999995,30.9,23.22,33.48
1553497878046,-9.753978,0.30466217,-0.20410569,0.08948222,-0.0063915867,-0.03195793,30.96,23.22,33.54
1553497878066,-9.722853,0.30705637,-0.20410569,0.04261058,-0.00958738,-0.037284255,30.96,23.22,33.54
1553497878086,-9.7479925,0.3357868,-0.17836803,0.0063915867,-0.004261058,-0.047936900000000005,30.96,23.16,33.6
1553497878106,-9.834782,0.30885202,-0.18136078,-0.024501082,-0.007456851,-0.056459017,31.02,23.22,33.6
1553497878126,-9.803059,0.26515785,-0.13706805,-0.040480047000000005,-0.00958738,-0.060720075,31.02,23.22,33.6
1553497878145,-9.810242,0.20590134,-0.1604115,-0.041545313,-0.012783173500000002,-0.06178534,31.02,23.22,33.54
1553497878165,-9.800664999999999,0.18614918,-0.12808979,-0.05006743,-0.018109497,-0.05965481,31.02,23.22,33.54
1553497878185,-9.792883999999999,0.16220717,-0.10474633,-0.05219796,-0.02130529,-0.05219796,31.02,23.22,33.6
1553497878206,-9.803658,0.16639702,-0.109534726,-0.06285059999999999,-0.018109497,-0.051132694000000006,31.02,23.16,33.54
1553497878226,-9.792285000000001,0.18255788,-0.074220255,-0.06604639400000001,-0.01917476,-0.046871635999999994,30.96,23.1,33.54
1553497878246,-9.785102,0.16160862,-0.02873042,-0.05539375,-0.020240024,-0.047936900000000005,30.96,23.04,33.54
1553497878266,-9.7479925,0.14544775,-0.03232172,-0.04261058,-0.017044231,-0.051132694000000006,30.96,22.98,33.54
1553497878286,-9.758167,0.19393034,-0.020949265,-0.029827405,-0.00958738,-0.053263225,30.96,22.98,33.54
1553497878306,-9.768942,0.22685061,-0.034117375,-0.01917476,-0.004261058,-0.054328485999999995,30.96,22.92,33.54
1553497878325,-9.770139,0.17597382,-0.05267244,-0.020240024,-0.0010652645,-0.05752428,30.96,22.92,33.54
1553497878346,-9.695319999999999,0.11731588,-0.14784196,-0.040480047000000005,0.002130529,-0.06178534,31.02,22.86,33.48
1553497878367,-9.753378999999999,0.10115502,-0.10594343,-0.056459017,0.0,-0.054328485999999995,31.02,22.92,33.48
1553497878386,-9.777321,0.10235212,-0.09935937,-0.05006743,0.0010652645,-0.047936900000000005,31.02,22.92,33.48
1553497878406,-9.758766,0.073621705,-0.0724246,-0.033023197000000004,-0.007456851,-0.05752428,31.08,22.92,33.48
1553497878426,-9.792883999999999,0.08259996,-0.021547815,-0.014913702,-0.007456851,-0.05965481,31.08,22.98,33.48
1553497878446,-9.76954,0.09876082,-0.0796072,-0.007456851,-0.007456851,-0.04261058,31.08,22.98,33.54
1553497878466,-9.739014,0.088585466,-0.10055647,-0.0053263223,0.0,-0.02130529,31.08,22.98,33.54
1553497878486,-9.72824,0.09756372,-0.094570965,0.004261058,-0.002130529,-0.01917476,31.02,22.98,33.54
1553497878506,-9.742006,0.14305355,-0.032920275,0.01917476,-0.0010652645,-0.027696876000000002,31.02,23.04,33.54
1553497878526,-9.761759,0.19572599,-0.04189853,0.033023197000000004,-0.002130529,-0.03195793,31.02,23.04,33.6
1553497878546,-9.773131,0.20111294,-0.02633622,0.033023197000000004,0.004261058,-0.033023197000000004,30.96,23.04,33.6
1553497878567,-9.776124000000001,0.18195933,-0.061650693,0.014913702,0.00958738,-0.03195793,30.96,23.1,33.66
1553497878586,-9.798869,0.17776948,-0.130484,-0.007456851,0.00958738,-0.027696876000000002,30.96,23.04,33.66
1553497878606,-9.791088,0.18555063,-0.17357962,-0.01917476,0.00958738,-0.02876214,30.9,22.98,33.72
1553497878625,-9.737817,0.22924481,-0.21128829999999998,-0.03089267,-0.002130529,-0.035153727999999995,30.9,22.92,33.72
1553497878645,-9.725846,0.31783026,-0.26874915,-0.068176925,-0.00958738,-0.043675844000000005,30.84,22.86,33.78
1553497878665,-9.744401,0.51116204,-0.35553896,-0.20772657,-0.022370555,-0.04580637,30.84,22.8,33.78
1553497878686,-9.7479925,0.91458505,-0.45070848,-0.59228706,-0.041545313,-0.07776430000000001,30.78,22.68,33.78
1553497878705,-9.694721000000001,1.1318588,-0.53450555,-0.95660746,-0.039414786,-0.12144015,30.78,22.68,33.78
1553497878725,-9.627684,1.1330559,-0.8391677,-1.5531555000000001,-0.017044231,-0.19600865,30.78,22.62,33.78
1553497878746,-9.7084875,0.6973111999999999,-0.5674258000000001,-2.15503,-0.024501082,-0.28122982,30.72,22.56,33.78
1553497878766,-9.745598,0.019153614,-0.11133038,-2.3084279999999997,-0.026631612000000002,-0.31851408,30.72,22.32,33.84
1553497878786,-9.794678999999999,-0.57999533,0.24001873,-2.102832,-0.02130529,-0.31318775,30.72,21.72,33.96
1553497878805,-9.788692999999999,-1.0696096000000002,0.45609543,-1.7406421000000003,-0.018109497,-0.28655612,30.78,21.0,34.08
1553497878825,-9.764750999999999,-1.34195,0.46208093,-1.0897655000000002,-0.00958738,-0.24074976,30.78,19.98,34.26
1553497878847,-9.810242,-1.3060371000000002,0.3633201,-0.4079963,0.0053263223,-0.17257284,30.78,18.9,34.44
1553497878867,-9.844358,-1.1486181999999998,0.18375498,0.17896444,0.011717908999999999,-0.084155895,30.78,17.88,34.68
1553497878887,-9.821614,-0.93852705,0.045489833,0.5901565,-0.002130529,-0.022370555,30.72,16.86,34.86
1553497878906,-9.836577,-0.6985083000000001,-0.020949265,0.8341021000000001,-0.017044231,0.012783173500000002,30.72,15.9,35.04
1553497878926,-9.800664999999999,-0.49200845,-0.023343466,0.9406285,-0.03195793,0.039414786,30.72,15.24,35.16
1553497878946,-9.750386,-0.17058687,-0.044292733,0.9267801,-0.033023197000000004,0.05752428,30.72,14.88,35.22
1553497878966,-9.758766,0.08678981,-0.12330139,0.8064051999999999,-0.033023197000000004,0.051132694000000006,30.72,14.76,35.28
1553497878987,-9.727043,0.24720132,-0.19512744,0.6295713000000001,-0.035153727999999995,0.017044231,30.72,15.0,35.28
1553497879006,-9.745598,0.16101007,-0.11432313,0.5613944000000001,-0.04580637,-0.027696876000000002,30.72,15.3,35.28
1553497879026,-9.838972,-0.36032736,0.23223756,0.7701861999999999,-0.10013486,-0.07350325,30.78,15.78,35.28
1553497879047,-9.783307,-0.60573304,0.48722005,1.1238540000000001,-0.113983296,-0.080960095,30.78,16.32,35.28
1553497879065,-9.665392,-0.6560113000000001,0.54887074,1.4317155000000001,-0.08522116,-0.047936900000000005,30.78,16.92,35.22
1553497879085,-9.677363,-0.5686229,0.40462008,1.7811221999999998,-0.03195793,0.022370555,30.78,17.58,35.22
1553497879106,-9.788095,-0.3537433,0.36152446,2.0421119,-0.00958738,0.07669904,30.78,18.36,35.16
1553497879125,-9.829993,-0.07182605,0.19393034,2.0889835,-0.018109497,0.05539375,30.72,19.26,34.98
1553497879145,-9.831191,0.24361002,-0.1448492,1.9920446,-0.014913702,0.0031957934000000003,30.72,20.16,34.8
1553497879166,-9.875483500000001,0.43993455,-0.37289690000000003,1.7608821,-0.024501082,-0.035153727999999995,30.72,21.0,34.62
1553497879186,-9.79827,0.5069722,-0.39205053,1.5180018,-0.004261058,-0.046871635999999994,30.72,21.78,34.32
1553497879206,-9.678560000000001,0.57999533,-0.22266077,1.0013485999999998,0.04474111,-0.04261058,30.72,22.74,34.02
1553497879226,-9.637260000000001,0.60453594,-0.18076223,0.5400891,0.080960095,-0.04580637,30.78,23.76,33.54
1553497879246,-9.619304,0.54049104,-0.20290859,0.12463594,0.09587380000000001,-0.06711166,30.84,24.72,33.06
1553497879266,-9.632472,0.36930559999999996,-0.21487960000000003,-0.17363810000000002,0.099069595,-0.09161274,30.9,25.5,32.52
1553497879286,-9.733627,0.1592144,-0.21188685,-0.32490566,0.083090626,-0.10652645,30.96,26.16,32.16
1553497879307,-9.740211500000001,0.005985504,-0.094570965,-0.34621096,0.060720075,-0.101200126,31.02,26.76,31.8
1553497879325,-9.721656,-0.11492168,0.020949265,-0.30253512,0.05219796,-0.09587380000000001,31.08,27.36,31.44
1553497879347,-9.721058,-0.23044191,0.06344634,-0.20133498,0.03834952,-0.096939065,30.96,27.78,31.2
1553497879367,-9.766547000000001,-0.28371290000000005,0.15203181,-0.07669904,0.041545313,-0.09374327,30.9,27.9,31.02
1553497879387,-9.83957,-0.23463176,0.04189853,0.05539375,0.040480047000000005,-0.07776430000000001,30.84,27.9,30.96
1553497879406,-9.8683,-0.17537527,-0.06464344,0.15978967,0.024501082,-0.05752428,30.72,27.9,30.96
1553497879426,-9.89344,-0.10295067,-0.10354923,0.20026971,0.00958738,-0.04261058,30.6,27.9,31.08
1553497879447,-9.787497,-0.008379705999999999,-0.15382746,0.18855181,0.0063915867,-0.033023197000000004,30.48,27.9,31.14
1553497879466,-9.751583,-0.011372458,-0.09696517,0.14274544,0.01917476,-0.03089267,30.36,27.9,31.2
1553497879485,-9.712079,-0.020350715,-0.09696517,0.084155895,0.024501082,-0.029827405,30.24,27.96,31.26
1553497879505,-9.730036,-0.002992752,-0.05865794,0.041545313,0.041545313,-0.020240024,30.3,28.02,31.32
1553497879527,-9.771336,-0.0041898529999999995,-0.046686932,0.018109497,0.05539375,0.0010652645,30.3,28.2,31.38
1553497879545,-9.783905,-0.032920275,-0.073621705,0.022370555,0.053263225,0.00958738,30.3,28.26,31.44
1553497879566,-9.829395,-0.009576807,-0.19692309,0.05539375,0.046871635999999994,0.008522116,30.36,28.5,31.44
1553497879585,-9.867104,-0.0041898529999999995,-0.25677812,0.07776430000000001,0.020240024,0.007456851,30.42,28.62,31.5
1553497879606,-9.834782,0.073023155,-0.28311434,0.094808534,0.0010652645,0.0063915867,30.42,28.68,31.62
1553497879625,-9.807847,0.09995792,-0.31244332,0.098004326,-0.013848438000000001,-0.0053263223,30.48,28.68,31.74
1553497879648,-9.855133,0.17537527,-0.2645593,0.06924219,-0.025566347000000003,-0.014913702,30.48,28.68,31.8
1553497879666,-9.835381,0.23403321,-0.23343466,0.039414786,-0.05006743,-0.01917476,30.54,28.68,31.92
1553497879686,-9.831789,0.23642741,-0.21966799999999997,0.018109497,-0.06285059999999999,-0.02876214,30.54,28.62,31.98
1553497879706,-9.784504,0.1436521,-0.17178397,-0.0063915867,-0.07882957,-0.040480047000000005,30.54,28.56,32.04
1553497879725,-9.772532,0.18076223,-0.14425065,-0.05539375,-0.083090626,-0.05752428,30.54,28.5,32.04
1553497879746,-9.71986,0.14724341,-0.11432313,-0.112918034,-0.083090626,-0.06924219,30.54,28.44,32.04
1553497879766,-9.694122,0.11312603,-0.095768064,-0.16937704,-0.06391586,-0.07882957,30.54,28.44,31.92
1553497879786,-9.74859,0.10354923,-0.044292733,-0.23116238,-0.049002163,-0.07776430000000001,30.6,28.44,31.92
1553497879806,-9.759364999999999,0.05805939,-0.04070143,-0.31212249999999997,-0.04261058,-0.07989483,30.6,28.44,31.86
1553497879825,-9.791088,0.010773907,-0.05267244,-0.39095205,-0.041545313,-0.080960095,30.66,28.44,31.8
1553497879846,-9.758167,-0.05746084,-0.0053869537,-0.4261058,-0.041545313,-0.07989483,30.66,28.44,31.74
1553497879865,-9.715072,-0.18435353,-0.023343466,-0.43462790000000007,-0.033023197000000004,-0.06498113,30.72,28.44,31.74
1553497879886,-9.722255,-0.1933318,0.074818805,-0.406931,-0.025566347000000003,-0.05006743,30.78,28.44,31.74
1553497879906,-9.707889999999999,-0.2693477,0.11971009,-0.3685815,-0.02130529,-0.040480047000000005,30.84,28.32,31.74
1553497879925,-9.739613,-0.25498247,0.05746084,-0.31105720000000003,-0.00958738,-0.035153727999999995,30.84,28.26,31.74
1553497879946,-9.783905,-0.11791443,0.006584055,-0.23861924,-0.013848438000000001,-0.027696876000000002,30.9,28.14,31.74
1553497879966,-9.821614,-0.02873042,0.014963761,-0.19068234,-0.02876214,-0.014913702,30.9,28.02,31.74
1553497879986,-9.78989,-0.0041898529999999995,0.002992752,-0.15126756,-0.035153727999999995,-0.013848438000000001,30.9,27.96,31.8
1553497880005,-9.806051,0.044891283,-0.018555064,-0.11930962,-0.033023197000000004,-0.023435817999999997,30.9,27.84,31.86
1553497880026,-9.757569,0.073023155,-0.074220255,-0.101200126,-0.037284255,-0.029827405,30.84,27.72,31.92
1553497880045,-9.750985,0.076614454,-0.015562311,-0.10439592,-0.04474111,-0.02876214,30.84,27.54,32.04
1553497880065,-9.734225,0.08738836,0.044292733,-0.111852765,-0.041545313,-0.03195793,30.78,27.36,32.1
1553497880085,-9.716269500000001,0.09995792,0.05865794,-0.14061491,-0.04261058,-0.036218993,30.78,27.24,32.16
1553497880105,-9.7324295,0.12569559,0.032920275,-0.18002969,-0.034088463,-0.043675844000000005,30.78,27.06,32.28
1553497880126,-9.778519000000001,0.14844051,0.05327099,-0.22796659,-0.025566347000000003,-0.05219796,30.72,26.88,32.28
1553497880148,-9.792883999999999,0.10175357,0.03232172,-0.28868666,-0.025566347000000003,-0.058589544,30.72,26.76,32.34
1553497880168,-9.774927,0.05865794,0.05566519,-0.33875409999999995,-0.024501082,-0.06498113,30.72,26.58,32.4
1553497880188,-9.758167,0.07182605,0.0676362,-0.40266997,-0.010652645,-0.06604639400000001,30.78,26.46,32.34
1553497880207,-9.72824,0.089782566,0.095768064,-0.49108690000000005,0.002130529,-0.058589544,30.78,26.34,32.34
1553497880226,-9.706693,0.0796072,0.14903906,-0.5944176,0.03089267,-0.05539375,30.84,26.22,32.34
1553497880246,-9.740809,0.0035913025,0.16759412,-0.6956177,0.05752428,-0.06391586,30.84,26.04,32.34
1553497880267,-9.7479925,0.03172317,0.11911154,-0.7861651999999999,0.07563378,-0.07563378,30.84,25.8,32.28
1553497880286,-9.665991,0.18195933,-0.08678981,-1.0418286,0.101200126,-0.09054748,30.78,25.38,32.34
1553497880305,-9.664195,0.18794483,-0.09696517,-1.2463594999999998,0.10652645,-0.1107875,30.78,24.9,32.4
1553497880328,-9.742605000000001,-0.20590134,-0.030526072,-1.325189,0.10013486,-0.13209279,30.78,24.24,32.64
1553497880346,-9.833585000000001,-0.46267948,0.037708677,-1.2900352,0.10226539,-0.13422333,30.78,24.06,32.76
1553497880366,-9.89344,-0.74519527,0.12389994,-1.1121361,0.08948222,-0.10226539,30.72,23.64,33.18
1553497880386,-9.832987,-0.8499416,0.054468088,-0.81705785,0.07776430000000001,-0.043675844000000005,30.72,22.92,33.54
1553497880405,-9.847352,-0.8343792999999999,-0.020350715,-0.47297743,0.068176925,0.01917476,30.72,22.38,33.84
1553497880426,-9.858125999999999,-0.7164649000000001,-0.051475335,-0.047936900000000005,0.053263225,0.053263225,30.66,21.78,34.14
1553497880446,-9.83957,-0.5847838000000001,-0.13407529999999998,0.24607609,0.043675844000000005,0.07563378,30.6,21.24,34.44
1553497880469,-9.870695,-0.38367084,-0.17477672,0.5209143,0.02130529,0.10333065,30.48,20.7,34.68
1553497880486,-9.89344,-0.2861071,-0.22924481,0.62744075,0.004261058,0.113983296,30.36,20.1,34.86
1553497880508,-9.872491,-0.109534726,-0.17657238,0.7137272,-0.010652645,0.12570119999999999,30.24,19.62,34.92
1553497880525,-9.865907,0.04070143,-0.2777274,0.72651035,-0.011717908999999999,0.12676647,30.12,19.26,34.98
1553497880547,-9.862914,0.21787235,-0.27533320000000006,0.67537767,-0.018109497,0.12996227,30.0,19.14,34.98
1553497880567,-9.788095,0.35673606,-0.29807812,0.58269966,-0.023435817999999997,0.12463594,29.94,19.14,34.98
1553497880587,-9.776722999999999,0.45789108,-0.25139117,0.46765109999999993,-0.02876214,0.10333065,30.0,19.32,34.98
1553497880607,-9.735422999999999,0.5303157,-0.23283611,0.34514567,-0.027696876000000002,0.07669904,30.06,19.56,34.92
1553497880626,-9.725846,0.59855044,-0.20949265,0.23542345,-0.027696876000000002,0.04580637,30.18,19.86,34.86
1553497880646,-9.713875,0.61530983,-0.18854338,0.13528858,-0.020240024,0.017044231,30.24,20.1,34.74
1553497880665,-9.707889999999999,0.54887074,-0.1364695,0.047936900000000005,-0.02130529,-0.00958738,30.36,20.4,34.68
1553497880686,-9.679159,0.4818331,-0.18674773,-0.02130529,-0.01917476,-0.036218993,30.42,20.52,34.56
1553497880706,-9.718064,0.3238158,-0.16579847,-0.07669904,-0.01917476,-0.05752428,30.48,20.58,34.5
1553497880726,-9.68694,0.25558102,-0.19752164,-0.09587380000000001,-0.03195793,-0.07350325,30.54,20.7,34.38
1553497880745,-9.736021000000001,0.17836803,-0.16938977,-0.07563378,-0.037284255,-0.08841695,30.6,20.82,34.38
1553497880765,-9.79827,0.16101007,-0.15741876,-0.039414786,-0.047936900000000005,-0.10759171,30.6,20.94,34.32
1553497880786,-9.806051,0.14006079999999999,-0.15203181,-0.0063915867,-0.054328485999999995,-0.11611383,30.66,21.06,34.32
1553497880805,-9.845556,0.1352724,-0.12330139,-0.022370555,-0.05752428,-0.111852765,30.72,21.18,34.26
1553497880825,-9.804853999999999,0.05805939,-0.08080431,-0.040480047000000005,-0.04580637,-0.09161274,30.78,21.36,34.2
1553497880846,-9.780911999999999,0.0047884034,-0.040102877,-0.047936900000000005,-0.04474111,-0.07563378,30.84,21.42,34.14
1553497880865,-9.76535,-0.023942016,-0.018555064,-0.047936900000000005,-0.04474111,-0.058589544,30.9,21.48,34.08
1553497880886,-9.750386,-0.038307227,-0.008978256,-0.03834952,-0.037284255,-0.04580637,30.9,21.54,34.02
1553497880907,-9.741408,-0.014963761,-0.002992752,-0.025566347000000003,-0.026631612000000002,-0.034088463,30.9,21.54,33.96
1553497880928,-9.741408,-0.034117375,-0.01316811,-0.012783173500000002,-0.020240024,-0.023435817999999997,30.84,21.6,33.9
1553497880945,-9.742006,-0.013766658999999999,-0.023343466,-0.0010652645,-0.018109497,-0.020240024,30.72,21.66,33.84
1553497880966,-9.727641,0.0011971008,0.0011971008,0.010652645,-0.013848438000000001,-0.02130529,30.66,21.66,33.84
1553497880985,-9.738416,0.014963761,0.025737667000000002,0.022370555,-0.011717908999999999,-0.018109497,30.6,21.6,33.84
1553497881006,-9.743203999999999,0.06284779,0.008978256,0.025566347000000003,-0.00958738,-0.018109497,30.54,21.6,33.84
1553497881027,-9.727641,0.06284779,-0.05327099,0.033023197000000004,-0.014913702,-0.01917476,30.48,21.6,33.84
1553497881047,-9.7479925,0.11731588,-0.0011971008,0.035153727999999995,-0.013848438000000001,-0.02876214,30.48,21.6,33.84
1553497881067,-9.722853,0.1604115,-0.011372458,0.03089267,-0.011717908999999999,-0.033023197000000004,30.42,21.54,33.84
1553497881086,-9.739613,0.16460137,-0.061052144,0.024501082,-0.007456851,-0.03195793,30.42,21.54,33.84
1553497881106,-9.767744,0.19752164,-0.035913024,0.012783173500000002,-0.008522116,-0.033023197000000004,30.48,21.54,33.84
1553497881126,-9.76116,0.17357962,-0.046686932,0.0,-0.00958738,-0.035153727999999995,30.54,21.54,33.84
1553497881147,-9.78989,0.17836803,-0.047884032,-0.0063915867,-0.00958738,-0.03834952,30.54,21.54,33.84
1553497881166,-9.788692999999999,0.17477672,-0.050278235,-0.013848438000000001,-0.013848438000000001,-0.043675844000000005,30.6,21.54,33.9
1553497881186,-9.802461,0.17896658,-0.110133275,-0.020240024,-0.014913702,-0.04261058,30.6,21.48,33.96
1553497881206,-9.787497,0.1448492,-0.053869538,-0.03195793,-0.020240024,-0.041545313,30.6,21.48,34.08
1553497881226,-9.762358,0.16998832,-0.06284779,-0.041545313,-0.015978966,-0.039414786,30.66,21.48,34.14
1553497881245,-9.7803135,0.12569559,-0.03172317,-0.03834952,-0.00958738,-0.039414786,30.66,21.48,34.26
1553497881265,-9.786897999999999,0.12090719,-0.02873042,-0.029827405,-0.00958738,-0.035153727999999995,30.66,21.48,34.32
1553497881287,-9.787497,0.12808979,-0.019752163,-0.012783173500000002,-0.010652645,-0.03089267,30.66,21.42,34.38
1553497881305,-9.801263,0.14604631,-0.049679685,-0.004261058,-0.007456851,-0.03195793,30.6,21.42,34.38
1553497881326,-9.738416,0.15562311,-0.026934769,-0.004261058,-0.017044231,-0.034088463,30.6,21.36,34.38
1553497881351,-9.742006,0.15322891,-0.0011971008,-0.007456851,-0.012783173500000002,-0.034088463,30.6,21.36,34.32
1553497881366,-9.76116,0.13826515,-0.006584055,-0.00958738,-0.010652645,-0.033023197000000004,30.6,21.3,34.26
1553497881386,-9.763555,0.14065935,-0.01316811,-0.010652645,-0.004261058,-0.034088463,30.6,21.24,34.26
1553497881406,-9.7479925,0.11252748,-0.009576807,-0.002130529,-0.0053263223,-0.039414786,30.6,21.24,34.14
1553497881426,-9.801263,0.130484,-0.010773907,0.007456851,-0.0063915867,-0.04474111,30.6,21.18,34.14
1553497881445,-9.764750999999999,0.09876082,-0.014963761,0.0010652645,-0.010652645,-0.04261058,30.6,21.18,34.08
1553497881465,-9.741408,0.093972415,-0.033518825,-0.0010652645,-0.0053263223,-0.03834952,30.6,21.24,34.08
1553497881486,-9.756969999999999,0.05925649,-0.0047884034,0.0031957934000000003,-0.0031957934000000003,-0.037284255,30.6,21.24,34.02
1553497881506,-9.733627,0.08499416,-0.017357962,0.008522116,-0.0010652645,-0.036218993,30.66,21.3,34.02
1553497881525,-9.682152,0.08200141,0.034715924,0.02130529,-0.0010652645,-0.039414786,30.66,21.3,34.02
1553497881547,-9.706094,0.1364695,0.09636662,0.03834952,0.0010652645,-0.04261058,30.72,21.36,34.02
1553497881566,-9.7863,0.17537527,0.051475335,0.05006743,0.010652645,-0.03834952,30.78,21.36,34.02
1553497881585,-9.76535,0.17597382,-0.03172317,0.05965481,0.014913702,-0.034088463,30.78,21.36,34.08
1553497881606,-9.77373,0.17178397,0.076614454,0.08628642,0.018109497,-0.03834952,30.84,21.36,34.08
1553497881626,-9.7803135,-0.019752163,0.05805939,0.14913702,0.018109497,-0.04474111,30.84,21.3,34.08
1553497881646,-9.809045,-0.18315643,0.0664391,0.21731395,0.007456851,-0.037284255,30.9,21.3,34.08
1553497881666,-9.77792,-0.42377370000000003,0.15741876,0.42397526,-0.0063915867,0.004261058,30.9,21.3,34.08
1553497881687,-9.7863,-0.47225627,0.19512744,0.6764429,-0.004261058,0.051132694000000006,30.9,21.3,34.08
1553497881706,-9.809045,-0.4369418,0.16340427,0.94488955,0.0031957934000000003,0.09267801,30.9,21.3,34.14
1553497881726,-9.803658,-0.15442601,0.047884032,1.139833,0.011717908999999999,0.12570119999999999,30.9,21.36,34.14
1553497881747,-9.833585000000001,0.207697,-0.055066638,1.2122709999999999,0.018109497,0.13848437,30.9,21.42,34.14
1553497881766,-9.812037,0.47764325,-0.12629414,1.1472898999999999,0.011717908999999999,0.12783173,30.9,21.6,34.08
1553497881786,-9.711481,0.7062895,-0.15622166,0.9832390999999999,0.02876214,0.10226539,30.84,21.9,34.08
1553497881806,-9.69951,0.7721300999999999,-0.19033903,0.7669904000000001,0.04261058,0.07137272,30.84,22.2,33.96
1553497881826,-9.730036,0.78290397,-0.10594343,0.56245965,0.056459017,0.054328485999999995,30.84,22.68,33.72
1553497881847,-9.6767645,0.736217,-0.12749124,0.4282363,0.07989483,0.03834952,30.9,23.16,33.48
1553497881866,-9.706094,0.6727706999999999,-0.15442601,0.3717773,0.096939065,0.023435817999999997,30.9,23.64,33.24
1553497881886,-9.76535,0.6991069000000001,-0.24121583,0.32490566,0.1107875,0.0010652645,30.96,24.12,33.06
1553497881906,-9.781511,0.6835446,-0.33997664,0.28655612,0.10226539,-0.01917476,31.02,24.54,32.82
1553497881925,-9.766547000000001,0.66738373,-0.42078096,0.23116238,0.08735169,-0.033023197000000004,31.08,24.96,32.58
1553497881953,-9.721058,0.59735334,-0.5446809,0.112918034,0.07030745599999999,-0.047936900000000005,31.14,25.32,32.28
1553497881966,-9.735422999999999,0.56084174,-0.5943606,0.06498113,0.06498113,-0.049002163,31.14,25.38,32.16
1553497881986,-9.858125999999999,0.5093664000000001,-0.59256494,-0.03089267,0.053263225,-0.047936900000000005,31.2,25.5,32.1
1553497882005,-9.8677025,0.48841715,-0.6135142,-0.10546118,0.03195793,-0.04261058,31.14,25.68,31.98
1553497882026,-9.898228999999999,0.5823896,-0.46926352,-0.15020229,0.0053263223,-0.051132694000000006,31.14,25.86,31.92
1553497882046,-9.936536,0.6063316,-0.3669114,-0.16937704,-0.013848438000000001,-0.056459017,31.08,26.04,31.8
1553497882066,-10.092158,0.53330845,-0.25079262,-0.19387813,-0.027696876000000002,-0.04580637,31.02,26.22,31.68
1553497882086,-10.150217999999999,0.53330845,-0.18734628,-0.23542345,-0.025566347000000003,-0.02130529,30.96,26.34,31.62
1553497882105,-10.016143,0.46208093,-0.029927522,-0.26312032,-0.023435817999999997,0.0,30.9,26.4,31.56
1553497882126,-9.783307,0.38187516,0.12210429,-0.25246766,-0.010652645,0.012783173500000002,30.9,26.34,31.56
1553497882146,-9.650428999999999,0.2896984,0.040102877,-0.18216023,0.05752428,0.037284255,30.84,26.28,31.56
1553497882165,-9.704298,0.26755205,-0.1364695,-0.098004326,0.094808534,0.056459017,30.78,26.04,31.62
1553497882186,-9.716867,0.29269117,-0.18195933,-0.008522116,0.10226539,0.037284255,30.78,25.86,31.68
1553497882206,-9.554062,0.29987377,-0.2861071,0.07563378,0.094808534,-0.012783173500000002,30.72,25.74,31.8
1553497882226,-9.548675,0.32022446,-0.30825347,0.13954964,0.113983296,-0.039414786,30.72,25.56,31.92
1553497882246,-9.598353999999999,0.2885013,-0.4405331,0.18322548,0.10652645,-0.033023197000000004,30.66,25.44,32.04
1553497882266,-9.622895,0.29987377,-0.587178,0.19387813,0.07882957,-0.027696876000000002,30.66,25.38,32.22
1553497882286,-9.663596,0.41838676,-0.5955577,0.16618125,0.018109497,-0.027696876000000002,30.66,25.38,32.34
1553497882306,-9.64983,0.56563014,-0.5506664000000001,0.14274544,-0.03834952,-0.02876214,30.72,25.44,32.46
1553497882326,-9.686341,0.6793547,-0.50757074,0.14168017,-0.04580637,-0.03834952,30.72,25.44,32.52
1553497882346,-9.778519000000001,0.7278373,-0.5422866999999999,0.12570119999999999,-0.037284255,-0.051132694000000006,30.78,25.5,32.64
1553497882366,-9.854534,0.7858967,-0.5991489999999999,0.083090626,-0.020240024,-0.047936900000000005,30.78,25.5,32.64
1553497882386,-9.840767999999999,0.83737206,-0.521936,0.056459017,-0.024501082,-0.035153727999999995,30.78,25.56,32.7
1553497882405,-9.743802,0.7493850999999999,-0.46986207,0.035153727999999995,-0.024501082,-0.039414786,30.78,25.56,32.7
1553497882425,-9.734225,0.7356185000000001,-0.34715924,0.014913702,-0.039414786,-0.06498113,30.78,25.62,32.7
1553497882447,-9.662998,0.61291564,-0.35075054,-0.002130529,-0.03834952,-0.08735169,30.78,25.62,32.7
1553497882467,-9.729436999999999,0.59495914,-0.34955344,-0.027696876000000002,-0.01917476,-0.08735169,30.72,25.62,32.7
1553497882485,-9.773131,0.55126494,-0.40282443,-0.046871635999999994,-0.01917476,-0.084155895,30.72,25.62,32.64
1553497882505,-9.772532,0.45789108,-0.34955344,-0.05965481,-0.022370555,-0.08628642,30.72,25.68,32.64
1553497882526,-9.829993,0.3854665,-0.31364042,-0.07776430000000001,-0.027696876000000002,-0.07563378,30.78,25.68,32.64
1553497882546,-9.808446,0.36990416,-0.31004912,-0.07776430000000001,-0.033023197000000004,-0.05965481,30.84,25.68,32.58
1553497882566,-9.8515415,0.44651863,-0.35194764,-0.06498113,-0.027696876000000002,-0.034088463,30.84,25.74,32.58
1553497882592,-9.847352,0.50637364,-0.34117374,-0.06285059999999999,-0.037284255,-0.026631612000000002,30.9,25.8,32.58
1553497882608,-9.782708,0.4985925,-0.27832595,-0.083090626,-0.040480047000000005,-0.043675844000000005,30.96,25.86,32.58
1553497882626,-9.733627,0.49260699999999996,-0.24480712,-0.08522116,-0.046871635999999994,-0.06178534,31.02,25.98,32.58
1553497882645,-9.686341,0.47405192,-0.21487960000000003,-0.07030745599999999,-0.035153727999999995,-0.05965481,31.08,25.98,32.52
1553497882665,-9.634267999999999,0.45908818,-0.1604115,-0.043675844000000005,-0.01917476,-0.05539375,31.02,25.98,32.52
1553497882686,-9.534908,0.43514615,-0.15382746,-0.013848438000000001,-0.0053263223,-0.06711166,31.02,25.86,32.52
1553497882705,-9.580399,0.41838676,-0.24361002,0.0063915867,0.013848438000000001,-0.07776430000000001,30.9,25.62,32.46
1553497882725,-9.591172,0.43514615,-0.24241292,0.014913702,0.004261058,-0.068176925,30.84,25.32,32.4
1553497882746,-9.5385,0.35194764,-0.24540567,0.017044231,0.007456851,-0.06604639400000001,30.78,24.96,32.34
1553497882765,-9.685742999999999,0.36032736,-0.29029694,-0.0031957934000000003,0.0063915867,-0.07989483,30.66,24.54,32.34
1553497882785,-9.745598,0.415394,-0.29807812,-0.0063915867,-0.011717908999999999,-0.083090626,30.6,24.18,32.28
1553497882806,-9.771336,0.47165772,-0.40761283,0.00958738,-0.022370555,-0.09374327,30.48,23.7,32.28
1553497882826,-9.922171,0.4141969,-0.44352585,0.0010652645,-0.034088463,-0.099069595,30.48,23.58,32.28
1553497882845,-9.977236999999999,0.4770447,-0.41599256,-0.049002163,-0.05965481,-0.09054748,30.48,23.52,32.22
1553497882866,-9.870695,0.52253455,-0.44532153,-0.06604639400000001,-0.05539375,-0.08948222,30.48,23.58,32.22
1553497882885,-9.777321,0.43873745,-0.33279404,-0.101200126,-0.04261058,-0.09161274,30.48,23.76,32.28
1553497882905,-9.533113,0.47105917,0.0011971008,-0.15339808,-0.034088463,-0.08735169,30.54,24.18,32.28
1553497882925,-9.440936,0.45310268,0.032920275,-0.14168017,-0.012783173500000002,-0.07882957,30.54,24.3,32.34
1553497882945,-9.454702000000001,0.37948096,-0.08738836,-0.084155895,0.02876214,-0.07456851,30.54,24.66,32.34
1553497882966,-9.714474000000001,0.22984336,-0.4357447,-0.051132694000000006,0.040480047000000005,-0.07776430000000001,30.54,24.9,32.4
1553497882985,-9.928755,0.15023616,-0.6422445999999999,-0.07137272,0.017044231,-0.082025364,30.6,25.08,32.4
1553497883005,-10.032304,0.19512744,-0.54767364,-0.098004326,-0.039414786,-0.08735169,30.6,25.14,32.4
1553497883026,-10.016742,0.16280572,-0.44951138,-0.111852765,-0.05752428,-0.101200126,30.6,25.14,32.46
1553497883046,-10.10413,0.17537527,-0.36870706,-0.12676647,-0.068176925,-0.101200126,30.66,25.14,32.46
1553497883068,-10.062231,0.24600422,-0.30346507,-0.12357068,-0.08735169,-0.07882957,30.66,25.14,32.46
1553497883086,-9.879673,0.33877954,-0.26336220000000005,-0.07350325,-0.08841695,-0.037284255,30.72,25.08,32.52
1553497883105,-9.88925,0.37469256,-0.2741361,-0.07350325,-0.084155895,-0.027696876000000002,30.72,25.08,32.58
1553497883126,-9.724648,0.42437226,-0.18555063,-0.098004326,-0.09054748,-0.03089267,30.72,25.08,32.7
1553497883146,-9.589376,0.48841715,-0.14006079999999999,-0.12570119999999999,-0.07030745599999999,-0.04474111,30.72,25.08,32.88
1553497883166,-9.577405,0.5530606,-0.073621705,-0.15020229,-0.047936900000000005,-0.05539375,30.72,25.14,33.0
1553497883186,-9.576807,0.57400984,-0.18136078,-0.20772657,-0.029827405,-0.058589544,30.78,25.2,33.12
1553497883207,-9.5492735,0.56982,-0.17836803,-0.30892670000000005,-0.026631612000000002,-0.083090626,30.78,25.26,33.12
1553497883226,-9.5809965,0.5554548,-0.24301147,-0.42717105,-0.015978966,-0.12570119999999999,30.78,25.26,33.12
1553497883246,-9.739613,0.54887074,-0.3357868,-0.56672066,-0.011717908999999999,-0.15765914,30.78,25.32,33.06
1553497883266,-9.833585000000001,0.5470751,-0.39683893,-0.7616641,-0.026631612000000002,-0.165116,30.78,25.32,33.0
1553497883286,-9.77792,0.4405331,-0.3184288,-1.010936,-0.04261058,-0.19600865,30.78,25.26,32.94
1553497883306,-9.766547000000001,0.3333926,-0.22086509999999998,-1.1046791999999999,-0.040480047000000005,-0.22903186,30.78,25.2,32.82
1553497883325,-9.828796,0.1604115,-0.22804771,-1.1899004,-0.040480047000000005,-0.26205507,30.78,25.02,32.7
1553497883345,-9.836577,0.08200141,-0.11312603,-1.2026836,-0.051132694000000006,-0.25353295,30.72,24.66,32.7
1553497883365,-9.803059,-0.15083471,-0.08559271,-1.1217233999999998,-0.054328485999999995,-0.24394555,30.72,24.3,32.76
1553497883385,-9.822811,-0.36631286,-0.025139118,-1.0322412,-0.05752428,-0.24181503,30.66,23.82,32.94
1553497883405,-9.792285000000001,-0.43873745,0.079008654,-0.86606,-0.07030745599999999,-0.22796659,30.66,23.34,33.18
1553497883426,-9.755175,-0.49799395,0.16759412,-0.6530071,-0.06498113,-0.19813919,30.6,22.8,33.42
1553497883446,-9.763555,-0.5351041,0.15203181,-0.44315,-0.05539375,-0.17044231,30.6,22.2,33.6
1553497883466,-9.762358,-0.43754035,0.03172317,-0.29188246,-0.04580637,-0.14274544,30.6,21.66,33.84
1553497883488,-9.752182000000001,-0.3333926,-0.12689269,-0.257794,-0.043675844000000005,-0.12037488,30.6,21.18,34.02
1553497883506,-9.750386,-0.24779987,-0.1328782,-0.2790993,-0.047936900000000005,-0.111852765,30.6,20.82,34.2
1553497883526,-9.766547000000001,-0.23104046,-0.16160862,-0.28868666,-0.05539375,-0.113983296,30.66,20.4,34.38
1553497883547,-9.816227,-0.24061728,-0.075417355,-0.25992453,-0.068176925,-0.11824436,30.72,20.04,34.44
1553497883566,-9.847352,-0.27952304,-0.061052144,-0.19707392,-0.07243799,-0.11504856,30.72,19.8,34.5
1553497883586,-9.858724,-0.22086509999999998,-0.08678981,-0.13422333,-0.06924219,-0.1107875,30.78,19.5,34.62
1553497883606,-9.772532,-0.24600422,-0.17477672,-0.101200126,-0.07030745599999999,-0.10865697,30.84,19.26,34.68
1553497883626,-9.751583,-0.2741361,-0.14604631,-0.12037488,-0.06498113,-0.11824436,30.84,19.08,34.74
1553497883646,-9.733028,-0.30226797,-0.054468088,-0.1768339,-0.07243799,-0.12250541,30.84,18.9,34.86
1553497883669,-9.653421,-0.272939,0.045489833,-0.23009712,-0.07563378,-0.12357068,30.78,18.66,34.92
1553497883686,-9.620500999999999,-0.32561144,0.12030864,-0.22690132,-0.07882957,-0.12250541,30.78,18.6,34.92
1553497883707,-9.633071000000001,-0.37529109999999993,0.14544775,-0.20879184,-0.07563378,-0.12463594,30.72,18.54,34.98
1553497883725,-9.696517,-0.3226187,0.26336220000000005,-0.18322548,-0.082025364,-0.12037488,30.72,18.48,34.98
1553497883746,-9.689333999999999,-0.38606504,0.3405752,-0.15020229,-0.082025364,-0.11611383,30.66,18.48,34.98
1553497883765,-9.718663000000001,-0.45190558,0.37708676,-0.12463594,-0.049002163,-0.12357068,30.66,18.42,34.86
1553497883785,-9.718663000000001,-0.48362875,0.36032736,-0.12463594,-0.034088463,-0.12463594,30.6,18.36,34.86
1553497883805,-9.730635000000001,-0.49799395,0.25977087,-0.16298546,-0.02130529,-0.12463594,30.66,18.24,34.8
1553497883825,-9.756969999999999,-0.50996494,0.18734628,-0.23009712,-0.024501082,-0.113983296,30.66,18.12,34.8
1553497883846,-9.718064,-0.5291186,0.15442601,-0.33662358,-0.03195793,-0.11611383,30.66,17.88,34.8
1553497883865,-9.747394,-0.5069722,0.16879122,-0.42184472,-0.022370555,-0.13102753,30.66,17.64,34.8
1553497883885,-9.77792,-0.56682724,0.13227965,-0.49321744,-0.01917476,-0.14168017,30.6,17.4,34.8
1553497883906,-9.768343,-0.5243302,0.14425065,-0.5592638000000001,-0.013848438000000001,-0.13954964,30.54,17.16,34.86
1553497883925,-9.755175,-0.5153519,0.073621705,-0.6508765999999999,-0.0031957934000000003,-0.12996227,30.42,16.86,34.86
1553497883945,-9.76535,-0.5614403,0.079008654,-0.7286409,-0.0031957934000000003,-0.13102753,30.3,16.56,34.86
1553497883965,-9.685144000000001,-0.623091,0.10175357,-0.7765778,-0.0031957934000000003,-0.14594123,30.18,16.2,34.92
1553497883986,-9.730036,-0.6787562,0.06823475,-0.813862,-0.0031957934000000003,-0.15446335,30.06,15.78,34.92
1553497884006,-9.763555,-0.7290344,0.093373865,-0.8213189000000001,-0.002130529,-0.14487597,29.94,15.42,34.92
1553497884026,-9.759364999999999,-0.79846627,0.12330139,-0.7819041,-0.011717908999999999,-0.12783173,29.82,15.0,34.92
1553497884045,-9.776124000000001,-0.79248077,0.15023616,-0.72970617,-0.010652645,-0.12463594,29.76,14.58,34.86
1553497884065,-9.772532,-0.7433996,0.15442601,-0.7105314,-0.004261058,-0.11824436,29.7,14.1,34.92
1553497884086,-9.751583,-0.7308300999999999,0.076015905,-0.6924219,0.007456851,-0.111852765,29.76,13.68,34.92
1553497884105,-9.76116,-0.8146270999999999,0.04189853,-0.7105314,0.011717908999999999,-0.11717909,29.76,13.14,34.92
1553497884125,-9.750386,-0.84216046,0.06883330000000001,-0.716923,0.0031957934000000003,-0.12676647,29.76,12.66,35.04
1553497884145,-9.697714,-0.95588505,0.088585466,-0.65513766,0.0010652645,-0.13528858,29.82,12.24,35.1
1553497884165,-9.716867,-1.1127052,0.13766660000000003,-0.52411014,0.004261058,-0.13209279,29.88,11.82,35.22
1553497884185,-9.733627,-1.2683283,0.17776948,-0.3270362,0.0010652645,-0.10865697,29.94,11.4,35.34
1553497884205,-9.733028,-1.3928268,0.15801731,-0.07776430000000001,0.00958738,-0.07456851,29.94,10.98,35.46
1553497884225,-9.772532,-1.4335283,0.17717093,0.19068234,0.0010652645,-0.033023197000000004,30.06,10.56,35.52
1553497884245,-9.744401,-1.4742297,0.2873042,0.47510794,-0.008522116,0.0063915867,30.12,10.2,35.64
1553497884265,-9.750386,-1.4556746,0.22685061,0.78723043,0.007456851,0.04261058,30.12,9.96,35.7
1553497884285,-9.76535,-1.4053963,0.23523031,1.0908308,0.0053263223,0.07776430000000001,30.12,9.72,35.76
1553497884305,-9.791088,-1.2802993,0.28191724,1.3646038,0.007456851,0.10972224,30.12,9.6,35.76
1553497884325,-9.772532,-1.1354501000000001,0.16519992,1.5797871,0.020240024,0.12783173,30.06,9.66,35.76
1553497884345,-9.840169,-0.9163806999999999,0.051475335,1.6948358000000001,0.034088463,0.1438107,30.06,9.78,35.76
1553497884365,-9.82341,-0.7098808000000001,0.007182605,1.7108147,0.02876214,0.15978967,30.0,10.14,35.76
1553497884385,-9.803658,-0.52373165,-0.039504327,1.6511599,0.020240024,0.15978967,30.0,10.68,35.64
1553497884406,-9.77792,-0.41060558,-0.059855044,1.5733956,0.020240024,0.15126756,30.0,11.34,35.46
1553497884425,-9.743203999999999,-0.33399114,-0.08798691,1.4199976,0.00958738,0.1438107,30.0,12.18,35.34
1553497884445,-9.706094,-0.28371290000000005,-0.002992752,1.2687298999999999,0.008522116,0.13848437,30.0,13.02,35.16
1553497884465,-9.654618,-0.3405752,0.074220255,1.1973573,0.002130529,0.12676647,30.0,13.8,35.04
1553497884486,-9.667786999999999,-0.4985925,0.18435353,1.2335763000000002,-0.00958738,0.10013486,30.0,14.58,34.86
1553497884505,-9.69951,-0.533907,0.21906945,1.3379722,-0.01917476,0.07669904,30.0,15.3,34.74
1553497884525,-9.72824,-0.4333505,0.20649989,1.433846,-0.00958738,0.08948222,30.06,16.08,34.62
1553497884546,-9.707291,-0.24121583,0.16519992,1.5052186,0.0063915867,0.13102753,30.0,16.86,34.56
1553497884565,-9.758766,-0.14305355,0.10474633,1.5169365,0.011717908999999999,0.13528858,30.06,17.7,34.5
1553497884585,-9.774328,0.073621705,-0.04189853,1.4061489999999999,0.004261058,0.096939065,30.06,18.84,34.2
1553497884606,-9.710882000000002,0.25318682,-0.06943185,1.2271847,-0.0010652645,0.058589544,30.12,19.62,34.02
1553497884625,-9.767744,0.32022446,-0.051475335,1.0215886,-0.017044231,0.025566347000000003,30.24,20.46,33.78
1553497884646,-9.707889999999999,0.3441665,0.005985504,0.8042746999999999,-0.017044231,0.0,30.3,21.3,33.54
1553497884665,-9.688137,0.30765492,-0.05805939,0.5773733,-0.01917476,-0.017044231,30.36,22.14,33.24
1553497884685,-9.718663000000001,0.25079262,-0.051475335,0.34088463,-0.007456851,-0.024501082,30.48,22.74,32.88
1553497884705,-9.729436999999999,0.21787235,-0.031124622,0.128897,-0.017044231,-0.035153727999999995,30.54,23.28,32.52
1553497884726,-9.703699,0.16819267,0.050278235,-0.03195793,-0.024501082,-0.051132694000000006,30.6,23.7,32.22
1553497884746,-9.742006,0.10833762599999999,0.08080431,-0.16298546,-0.01917476,-0.058589544,30.6,24.0,32.04
1553497884765,-9.788692999999999,0.079008654,0.12509704,-0.27164245,-0.02130529,-0.06178534,30.6,24.24,31.86
1553497884785,-9.763555,-0.010175358,0.22804771,-0.33555830000000003,-0.024501082,-0.06391586,30.48,24.24,31.74
1553497884807,-9.757569,-0.08619126,0.338181,-0.36218992,-0.013848438000000001,-0.07350325,30.42,24.24,31.62
1553497884827,-9.798869,-0.13168110000000002,0.36032736,-0.34727620000000003,-0.004261058,-0.07243799,30.24,24.24,31.5
1553497884846,-9.810839999999999,-0.15801731,0.36272156,-0.3153183,0.002130529,-0.06711166,30.06,24.06,31.5
1553497884865,-9.789292,-0.20649989,0.36631286,-0.25672874,0.0063915867,-0.058589544,29.94,23.94,31.5
1553497884887,-9.775525,-0.2669535,0.26815059999999996,-0.17150758,0.012783173500000002,-0.05219796,29.76,23.76,31.5
1553497884906,-9.761759,-0.28072014,0.27832595,-0.12250541,0.008522116,-0.04580637,29.7,23.64,31.5
1553497884926,-9.746795,-0.2813187,0.31184477,-0.07669904,0.0031957934000000003,-0.036218993,29.7,23.52,31.5
1553497884946,-9.726444,-0.26815059999999996,0.26994625,-0.0053263223,0.010652645,-0.02876214,29.76,23.52,31.5
1553497884966,-9.785102,-0.18854338,0.25617957,0.05539375,0.017044231,-0.020240024,29.82,23.52,31.56
1553497884985,-9.777321,-0.11611878,0.21308395,0.10013486,0.013848438000000001,-0.011717908999999999,29.88,23.58,31.56
1553497885006,-9.787497,-0.038905777,0.1388637,0.113983296,0.017044231,-0.013848438000000001,30.0,23.64,31.56
1553497885025,-9.785102,0.015562311,0.09816227,0.09267801,0.012783173500000002,-0.018109497,30.12,23.7,31.56
1553497885046,-9.7563715,0.07841010400000001,0.093373865,0.03195793,0.0031957934000000003,-0.022370555,30.24,23.88,31.62
1553497885065,-9.768343,0.05805939,0.108936176,-0.023435817999999997,-0.002130529,-0.027696876000000002,30.3,24.12,31.62
1553497885086,-9.7719345,0.0676362,0.13467385,-0.06924219,-0.007456851,-0.037284255,30.36,24.36,31.62
1553497885106,-9.723452,0.05267244,0.14784196,-0.098004326,-0.008522116,-0.049002163,30.42,24.6,31.56
1553497885125,-9.785701,0.038905777,0.1592144,-0.113983296,-0.0053263223,-0.05219796,30.48,24.84,31.56
1553497885146,-9.767146,-0.0023942017,0.15861586,-0.12996227,-0.008522116,-0.053263225,30.6,25.08,31.56
1553497885166,-9.737817,-0.045489833,0.17717093,-0.14594123,-0.012783173500000002,-0.060720075,30.66,25.32,31.56
1553497885186,-9.772532,-0.107140526,0.18974048,-0.13741912,-0.014913702,-0.06178534,30.72,25.5,31.56
1553497885208,-9.751583,-0.15263036,0.17896658,-0.12570119999999999,-0.015978966,-0.058589544,30.78,25.56,31.56
1553497885226,-9.783905,-0.19871874,0.24540567,-0.10333065,-0.02130529,-0.049002163,30.78,25.56,31.56
1553497885245,-9.76954,-0.23343466,0.2741361,-0.05965481,-0.02130529,-0.05006743,30.78,25.56,31.62
1553497885265,-9.774328,-0.2693477,0.30406362,-0.0053263223,-0.022370555,-0.04474111,30.78,25.56,31.62
1553497885286,-9.807847,-0.22325931,0.17776948,0.03195793,-0.02130529,-0.03089267,30.78,25.5,31.62
1553497885306,-9.867104,-0.19692309,0.18076223,0.060720075,-0.025566347000000003,-0.010652645,30.78,25.38,31.68
1553497885326,-9.828198,-0.17118542,0.18974048,0.07882957,-0.03089267,-0.0063915867,30.78,25.32,31.68
1553497885346,-9.767146,-0.108936176,0.18854338,0.07882957,-0.035153727999999995,-0.012783173500000002,30.78,25.2,31.74
1553497885365,-9.707291,-0.025737667000000002,0.1448492,0.07350325,-0.035153727999999995,-0.012783173500000002,30.84,25.08,31.8
1553497885387,-9.697714,0.073023155,0.10115502,0.056459017,-0.037284255,-0.0053263223,30.84,25.08,31.8
1553497885406,-9.707889999999999,0.18195933,-0.019153614,0.014913702,-0.04261058,-0.004261058,30.84,25.02,31.86
1553497885426,-9.709086,0.2693477,-0.18435353,-0.04580637,-0.060720075,-0.012783173500000002,30.9,25.02,31.92
1553497885445,-9.66659,0.33159694,-0.30526072,-0.16085494,-0.096939065,-0.03834952,30.9,25.08,31.92
1553497885465,-9.643844999999999,0.31423897,-0.29448682,-0.28975195,-0.15659387,-0.07456851,30.9,25.14,31.98
1553497885486,-9.605537,0.26874915,-0.29388827,-0.39627838,-0.22690132,-0.1107875,30.9,25.2,31.98
1553497885506,-9.664794,0.1388637,-0.12808979,-0.49534798,-0.27483824,-0.12783173,30.9,25.26,31.92
1553497885526,-9.637260000000001,0.049081136,0.12808979,-0.55287224,-0.32170987,-0.13422333,30.96,25.26,31.92
1553497885545,-9.627684,-0.12210429,0.29328972,-0.5613944000000001,-0.33875409999999995,-0.15126756,31.02,25.26,31.86
1553497885566,-9.615114,-0.2885013,0.46746787,-0.54435015,-0.36112466,-0.17789917,31.14,25.2,31.8
1553497885586,-9.712678,-0.37469256,0.59376204,-0.5187838,-0.3717773,-0.18855181,31.2,25.14,31.74
1553497885605,-9.749189,-0.37469256,0.6655880999999999,-0.49215218,-0.38562572,-0.18322548,31.32,25.02,31.74
1553497885626,-9.7803135,-0.33758244,0.7811083000000001,-0.48149952,-0.39201729999999996,-0.17363810000000002,31.38,24.9,31.68
1553497885646,-9.812635,-0.3645172,0.9080010000000001,-0.49428272,-0.406931,-0.17789917,31.5,24.72,31.68
1553497885665,-9.792285000000001,-0.39624038,1.258153,-0.5294364,-0.40373522,-0.19174760000000002,31.62,24.6,31.68
1553497885685,-9.610325999999999,-0.6356605,1.5316905,-0.5411543000000001,-0.35153726,-0.20985709,31.68,24.36,31.68
1553497885706,-9.581595,-0.7302314999999999,1.7645266,-0.5049353,-0.26525086,-0.20559604,31.74,24.18,31.68
1553497885726,-9.697116000000001,-0.82240826,1.8255788,-0.41864893,-0.17470337,-0.16724652,31.8,24.0,31.68
1553497885746,-9.61691,-0.748188,1.7758990000000001,-0.35473305,-0.10865697,-0.11717909,31.86,23.82,31.68
1553497885765,-9.559449,-0.6895300999999999,1.5873556999999998,-0.33449304,-0.047936900000000005,-0.10226539,31.92,23.7,31.68
1553497885786,-9.634866,-0.59136784,1.4496891,-0.330232,-0.0031957934000000003,-0.111852765,31.98,23.46,31.68
1553497885806,-9.606734,-0.6739678000000001,1.3814543,-0.30892670000000005,0.017044231,-0.128897,31.98,23.28,31.68
1553497885825,-9.54209,-0.7637503000000001,1.3090298,-0.25140239999999997,0.03195793,-0.1438107,32.04,23.04,31.68
1553497885845,-9.618107,-0.7751228,1.1552023,-0.19387813,0.054328485999999995,-0.13528858,32.1,22.92,31.68
1553497885866,-9.602545,-0.78888947,1.0600328,-0.15126756,0.05539375,-0.101200126,32.28,22.74,31.68
1553497885885,-9.596559,-0.82240826,0.97982705,-0.12250541,0.06285059999999999,-0.10972224,32.4,22.56,31.8
1553497885905,-9.664195,-0.83737206,0.97623575,-0.10546118,0.05006743,-0.12250541,32.58,22.38,31.92
1553497885927,-9.664195,-0.81283146,0.9852139999999999,-0.08735169,0.04261058,-0.11824436,32.58,22.2,31.98
1553497885946,-9.694122,-0.7445967,0.90381116,-0.051132694000000006,0.029827405,-0.101200126,32.64,22.08,32.1
1553497885966,-9.683349,-0.6667852,0.8343792999999999,-0.054328485999999995,0.011717908999999999,-0.083090626,32.64,22.02,32.22
1553497885986,-9.667786999999999,-0.62368953,0.85173726,-0.113983296,0.002130529,-0.07669904,32.7,21.96,32.28
1553497886005,-9.643844999999999,-0.61291564,0.8678981,-0.25246766,-0.004261058,-0.096939065,32.64,21.9,32.4
1553497886026,-9.654019,-0.6338649000000001,0.8631097,-0.3749731,-0.0010652645,-0.12676647,32.46,21.84,32.46
1553497886046,-9.634267999999999,-0.7517793,0.87807345,-0.49002165,0.0031957934000000003,-0.13954964,32.34,21.84,32.4
1553497886066,-9.672575,-0.82599956,0.86490536,-0.588026,0.0,-0.13741912,32.28,21.9,32.4
1553497886086,-9.643844999999999,-0.9947908000000001,0.98940384,-0.6583334,0.0010652645,-0.12783173,32.22,21.9,32.4
1553497886106,-9.6288805,-1.1444284,1.0875661,-0.63915867,0.007456851,-0.13102753,32.28,21.9,32.4
1553497886126,-9.67018,-1.2725182,1.0977415000000001,-0.5187838,0.015978966,-0.12570119999999999,32.22,21.84,32.46
1553497886149,-9.706094,-1.3437457,1.0887632,-0.3153183,0.014913702,-0.09161274,32.22,21.66,32.58
1553497886166,-9.653421,-1.3186066,1.0720038,-0.20133498,0.017044231,-0.056459017,32.16,21.54,32.58
1553497886186,-9.631275,-1.2234371000000002,1.0085574000000002,-0.10226539,0.022370555,-0.023435817999999997,32.16,21.36,32.7
1553497886206,-9.622296,-1.1049241,0.9211690999999999,-0.047936900000000005,0.022370555,-0.022370555,32.1,21.12,32.76
1553497886226,-9.609727000000001,-1.0456676,0.8936358,-0.041545313,0.014913702,-0.040480047000000005,32.1,20.88,32.88
1553497886246,-9.602545,-0.93254155,0.8415619000000001,-0.07776430000000001,0.01917476,-0.049002163,32.1,20.64,33.0
1553497886265,-9.611523,-0.8702923,0.8122329,-0.14274544,0.02130529,-0.04580637,32.1,20.34,33.06
1553497886287,-9.651027000000001,-0.8960299999999999,0.8038531999999999,-0.22796659,0.024501082,-0.06498113,32.1,20.04,33.06
1553497886306,-9.648633,-0.95588505,0.7781156,-0.2727077,0.022370555,-0.080960095,32.1,19.98,33.06
1553497886326,-9.690532000000001,-1.0223241,0.8319851,-0.3334278,0.02130529,-0.08628642,32.04,19.86,33.06
1553497886346,-9.652822500000001,-1.0869676000000001,0.8607155000000001,-0.36325517,0.008522116,-0.07350325,32.04,19.8,33.12
1553497886365,-9.621099000000001,-1.1725603,0.88525605,-0.34834146,0.00958738,-0.06285059999999999,31.98,19.74,33.12
1553497886385,-9.604341,-1.2294226000000001,0.8924386999999999,-0.29507825,0.015978966,-0.06285059999999999,31.92,19.62,33.12
1553497886406,-9.645041,-1.1677719,0.86849666,-0.23542345,0.020240024,-0.054328485999999995,31.8,19.32,33.18
1553497886426,-9.618107,-1.1097125,0.7811083000000001,-0.2428803,0.022370555,-0.043675844000000005,31.74,19.14,33.3
1553497886446,-9.625289,-1.0462662,0.8451531999999999,-0.26312032,0.020240024,-0.04261058,31.68,18.96,33.36
1553497886466,-9.60853,-1.0247183000000002,0.79128367,-0.26205507,0.015978966,-0.058589544,31.62,18.78,33.48
1553497886486,-9.592369,-0.9319430000000001,0.6901286,-0.29614353,0.025566347000000003,-0.07456851,31.62,18.6,33.6
1553497886505,-9.603143,-0.8643068000000002,0.5979519,-0.4708469,0.03089267,-0.07456851,31.56,18.42,33.72
1553497886526,-9.562441999999999,-0.89543146,0.56922144,-0.6924219,0.024501082,-0.08841695,31.56,18.3,33.84
1553497886546,-9.630676,-1.1067197,0.6356605,-0.80533993,0.02876214,-0.14061491,31.56,18.12,33.96
1553497886566,-9.738416,-1.3084313,0.6955156,-0.78083885,0.02876214,-0.18109496,31.56,17.94,34.08
1553497886586,-9.725247,-1.365892,0.7074866,-0.69987875,0.02130529,-0.16618125,31.56,17.64,34.08
1553497886606,-9.637260000000001,-1.2042834999999998,0.62009823,-0.69774824,0.024501082,-0.12144015,31.56,17.34,34.14
1553497886626,-9.545682000000001,-0.99778354,0.38127659999999997,-0.89162636,0.03834952,-0.111852765,31.56,16.92,34.14
1553497886646,-9.522936999999999,-1.0420763000000002,0.25797522,-1.1781825000000001,0.039414786,-0.165116,31.56,16.44,34.14
1553497886666,-9.613318,-1.2270284,0.35075054,-1.3965617000000001,0.040480047000000005,-0.23329292,31.56,15.84,34.14
1553497886685,-9.660006,-1.5610195,0.45908818,-1.4274544,0.029827405,-0.25885928,31.56,15.24,34.14
1553497886706,-9.646837,-1.8513165,0.5303157,-1.2879047,0.03195793,-0.23542345,31.56,14.64,34.2
1553497886725,-9.618107,-1.9734207,0.4950012,-0.99708754,0.049002163,-0.18642128,31.5,14.16,34.26
1553497886745,-9.633669,-1.9339164,0.39145198,-0.76272935,0.05006743,-0.16298546,31.5,13.56,34.32
1553497886765,-9.636064,-1.963844,0.36212300000000003,-0.6135923000000001,0.035153727999999995,-0.15233281,31.44,13.02,34.44
1553497886786,-9.598353999999999,-2.0117279999999997,0.34117374,-0.37923414,0.018109497,-0.14594123,31.44,12.3,34.56
1553497886805,-9.595961,-2.1362264,0.32142156,-0.18748654,0.011717908999999999,-0.13315806,31.44,11.64,34.62
1553497886825,-9.587581,-2.203264,0.36511576,0.011717908999999999,0.0053263223,-0.10226539,31.38,11.1,34.74
1553497886846,-9.633071000000001,-2.2439656,0.2885013,0.21518342,0.008522116,-0.056459017,31.38,10.56,34.8
1553497886865,-9.613318,-2.1709423,0.33039984,0.39201729999999996,0.0031957934000000003,-0.00958738,31.38,10.14,34.86
1553497886886,-9.626487,-1.9512744,0.23582886,0.4878911,0.0031957934000000003,0.023435817999999997,31.38,9.72,34.92
1553497886906,-9.61691,-1.763928,0.24779987,0.46978164,-0.002130529,0.043675844000000005,31.32,9.42,35.04
1553497886925,-9.566033000000001,-1.6406266999999999,0.24121583,0.3749731,-0.012783173500000002,0.037284255,31.32,9.24,35.16
1553497886946,-9.576807,-1.5807717,0.2777274,0.26844665,-0.007456851,0.00958738,31.32,9.24,35.28
1553497886966,-9.637260000000001,-1.5460558,0.20530279,0.18216023,-0.007456851,-0.0063915867,31.26,9.42,35.34
1553497886988,-9.649231,-1.5705963,0.23163901,0.13422333,-0.004261058,-0.007456851,31.26,9.48,35.4
1553497887008,-9.588778,-1.5969325,0.25438392,0.018109497,-0.013848438000000001,0.007456851,31.2,9.9,35.58
1553497887026,-9.60015,-1.5957354,0.25677812,-0.0031957934000000003,-0.020240024,0.007456851,31.2,9.96,35.58
1553497887045,-9.589376,-1.6525976999999998,0.31184477,0.008522116,-0.024501082,-0.0031957934000000003,31.2,10.14,35.58
1553497887066,-9.5798,-1.6735470000000001,0.3537433,0.05006743,-0.033023197000000004,-0.007456851,31.2,10.32,35.52
1553497887086,-9.624691,-1.6759412,0.40521863,0.1107875,-0.037284255,0.004261058,31.2,10.44,35.46
1553497887105,-9.637260000000001,-1.6717514,0.5009867,0.23116238,-0.03834952,0.024501082,31.2,10.5,35.28
1553497887126,-9.533711,-1.7633294999999998,0.4985925,0.35579833,-0.04474111,0.018109497,31.14,10.56,35.22
1553497887146,-9.561244,-1.7316063999999998,0.5141548,0.43888897,-0.041545313,0.008522116,31.14,10.56,35.16
1553497887166,-9.592369,-1.6968904999999999,0.5482722,0.5486112,-0.036218993,0.012783173500000002,31.08,10.62,35.1
1553497887186,-9.552864999999999,-1.7094599999999998,0.47824179999999994,0.64555025,-0.033023197000000004,0.017044231,31.08,10.74,35.04
1553497887205,-9.631275,-1.7190368000000003,0.5470751,0.7850999,-0.04474111,0.017044231,31.02,10.86,35.04
1553497887225,-9.598353999999999,-1.9339164,0.6997054,1.0386329,-0.07350325,0.0031957934000000003,31.02,10.98,34.98
1553497887246,-9.664195,-2.1625626000000002,0.82240826,1.381648,-0.083090626,-0.010652645,30.96,11.1,34.92
1553497887266,-9.631275,-2.4552537999999995,1.0055646999999999,1.9728698,-0.10439592,0.03089267,30.9,11.46,34.8
1553497887286,-9.66659,-2.5755625,1.0696096000000002,2.5523736,-0.09267801,0.07243799,30.9,11.88,34.74
1553497887305,-9.797073,-2.385822,1.13964,3.1425302000000004,-0.05219796,0.13954964,30.9,12.6,34.68
1553497887326,-9.690532000000001,-2.099715,0.96665895,3.6336171999999998,-0.039414786,0.23542345,30.9,13.68,34.62
1553497887346,-9.646837,-1.5765818,0.7445967,3.8211036,-0.0053263223,0.3057309,30.96,15.0,34.5
1553497887366,-9.61691,-0.83018947,0.51595044,3.6218991000000003,-0.015978966,0.3334278,31.02,16.5,34.26
1553497887386,-9.526527999999999,-0.065242,0.35793316,3.08181,-0.018109497,0.31638354,31.08,18.12,33.96
1553497887406,-9.403227000000001,0.46986207,0.3800795,2.3137543,-0.0053263223,0.2545982,31.2,19.98,33.54
1553497887426,-9.3978405,0.80924016,0.42556936,1.4583471000000001,0.04580637,0.15126756,31.38,21.96,32.88
1553497887446,-9.518148,0.95827925,0.4357447,0.6423545,0.06924219,0.07137272,31.5,23.82,32.16
1553497887466,-9.566631,0.91458505,0.57400984,-0.049002163,0.07563378,0.04261058,31.68,25.38,31.5
1553497887486,-9.575610000000001,0.6973111999999999,0.7086836999999999,-0.55287224,0.06924219,0.02876214,31.86,26.64,30.78
1553497887505,-9.569624000000001,0.4189853,0.8038531999999999,-0.7914915,0.06924219,-0.002130529,31.98,27.6,30.18
1553497887526,-9.640253,0.074818805,0.89543146,-0.92784536,0.06178534,-0.06285059999999999,32.04,28.32,29.64
1553497887546,-9.685144000000001,-0.34476504,0.9995792,-0.9171927,0.034088463,-0.12250541,32.16,28.86,29.28
1553497887566,-9.68694,-0.53689975,1.049259,-0.7882956999999999,0.017044231,-0.12250541,32.16,29.04,29.1
1553497887586,-9.6923275,-0.7272388000000001,1.0498575,-0.66365975,0.00958738,-0.096939065,32.1,29.04,29.16
1553497887607,-9.701305,-0.7739256999999999,1.1031284,-0.5592638000000001,0.008522116,-0.06924219,32.04,28.92,29.34
1553497887625,-9.698313,-0.7541734999999999,1.0031705,-0.49747851,0.0053263223,-0.05752428,32.04,28.62,29.52
1553497887646,-9.689333999999999,-0.736217,0.96785605,-0.4708469,0.0,-0.05219796,31.98,28.32,29.7
1553497887665,-9.6923275,-0.7212533,1.0247183000000002,-0.46019423,0.0031957934000000003,-0.039414786,31.92,27.84,29.94
1553497887686,-9.680955,-0.6967127,1.079785,-0.42184472,0.0063915867,-0.029827405,32.04,27.3,30.18
1553497887706,-9.643246000000001,-0.688333,1.0708067,-0.36432046,0.0,-0.033023197000000004,32.1,26.82,30.36
1553497887726,-9.665991,-0.6266823,1.0941502,-0.30466563,0.0063915867,-0.03195793,32.16,26.4,30.54
1553497887746,-9.660006,-0.63087213,1.1252748,-0.2428803,0.002130529,-0.026631612000000002,32.28,26.04,30.6
1553497887766,-9.639654,-0.56203884,1.0785878999999998,-0.19600865,0.00958738,-0.024501082,32.34,25.74,30.66
1553497887786,-9.635465,-0.55725044,1.062427,-0.1768339,0.008522116,-0.023435817999999997,32.4,25.44,30.78
1553497887806,-9.61272,-0.50996494,1.002572,-0.19920446,0.012783173500000002,-0.034088463,32.46,25.2,30.9
1553497887826,-9.625289,-0.48662150000000004,0.94331545,-0.22903186,0.012783173500000002,-0.04580637,32.52,25.08,31.02
1553497887846,-9.656414,-0.5255273,0.9552864999999999,-0.2609898,0.012783173500000002,-0.05006743,32.46,25.08,31.14
1553497887866,-9.66659,-0.5674258000000001,0.91099375,-0.2790993,0.002130529,-0.05539375,32.4,25.02,31.26
1553497887886,-9.689933,-0.6063316,0.96187055,-0.27803403,-0.004261058,-0.058589544,32.34,25.02,31.38
1553497887906,-9.704897,-0.670975,0.98222125,-0.26738137,-0.0053263223,-0.05539375,32.28,24.9,31.5
1553497887926,-9.683349,-0.6913256999999999,0.97743285,-0.23222765,-0.00958738,-0.051132694000000006,32.22,24.78,31.62
1553497887946,-9.655217,-0.7350199000000001,0.98102415,-0.19174760000000002,-0.004261058,-0.051132694000000006,32.16,24.66,31.68
1553497887966,-9.672575,-0.748188,0.99778354,-0.13848437,-0.0053263223,-0.049002163,32.1,24.48,31.74
1553497887987,-9.649231,-0.7457938000000001,1.0462662,-0.068176925,-0.008522116,-0.03834952,32.04,24.36,31.8
1553497888006,-9.631275,-0.7757214,1.0887632,0.03195793,-0.0053263223,-0.033023197000000004,32.04,24.24,31.8
1553497888026,-9.668385,-0.7679402,1.0600328,0.13848437,-0.0063915867,-0.03089267,32.04,24.12,31.86
1553497888046,-9.647436,-0.7128736,1.0223241,0.2034655,-0.002130529,-0.034088463,31.98,24.0,31.92
1553497888066,-9.660604,-0.6907272,0.99299514,0.28016454,-0.0010652645,-0.03089267,31.98,23.94,31.98
1553497888085,-9.677961,-0.6961141,1.0366893,0.35899413,0.0053263223,-0.026631612000000002,31.98,23.94,31.98
1553497888106,-9.658808,-0.7697359,1.0666169,0.49428272,-0.00958738,-0.033023197000000004,31.98,23.88,32.1
1553497888126,-9.671975999999999,-0.7308300999999999,1.0360907,0.60080916,-0.007456851,-0.037284255,31.98,23.88,32.1
1553497888146,-9.688137,-0.6817489000000001,1.0055646999999999,0.6689861,-0.0063915867,-0.025566347000000003,32.04,23.88,32.16
1553497888166,-9.690532000000001,-0.53091425,0.9516952,0.6562029,-0.007456851,-0.002130529,32.04,23.88,32.16
1553497888186,-9.638457,-0.40761283,0.92176765,0.5635249,-0.00958738,0.004261058,32.04,23.94,32.1
1553497888206,-9.638457,-0.2861071,0.83617496,0.4079963,-0.0053263223,-0.010652645,32.04,24.18,31.98
1553497888226,-9.621099000000001,-0.16579847,0.81343,0.2130529,-0.011717908999999999,-0.02876214,32.04,24.36,31.86
1553497888246,-9.615712,-0.17896658,0.84216046,0.010652645,-0.011717908999999999,-0.037284255,32.04,24.6,31.68
1553497888266,-9.646238,-0.25797522,0.92416185,-0.14913702,-0.0010652645,-0.037284255,32.04,24.78,31.5
1553497888285,-9.674371,-0.40581718,0.9947908000000001,-0.23861924,0.0031957934000000003,-0.043675844000000005,32.04,25.02,31.38
1553497888306,-9.695917999999999,-0.53809685,1.0181341999999998,-0.25353295,0.0053263223,-0.05965481,32.04,25.26,31.26
1553497888327,-9.686341,-0.64823014,1.074398,-0.20985709,-0.0010652645,-0.060720075,32.04,25.44,31.08
1553497888347,-9.691728999999999,-0.65242,1.0366893,-0.13422333,-0.004261058,-0.04474111,32.04,25.5,31.02
1553497888367,-9.661800999999999,-0.6955156,1.0498575,-0.049002163,-0.0031957934000000003,-0.024501082,31.98,25.5,31.02
1553497888386,-9.67018,-0.6739678000000001,1.0905589,0.025566347000000003,-0.0053263223,-0.017044231,31.98,25.5,31.02
1553497888407,-9.664195,-0.55725044,1.0193313,0.07882957,-0.0010652645,-0.012783173500000002,31.98,25.44,31.08
1553497888426,-9.677961,-0.46746787,0.96067345,0.082025364,-0.0010652645,-0.00958738,31.92,25.44,31.14
1553497888446,-9.659407,-0.41060558,0.9864110999999999,0.049002163,-0.0053263223,-0.0053263223,31.86,25.38,31.2
1553497888465,-9.645041,-0.4141969,1.0037690000000001,0.015978966,-0.007456851,-0.011717908999999999,31.86,25.32,31.26
1553497888485,-9.646238,-0.40581718,1.0043676,-0.008522116,-0.0063915867,-0.024501082,31.8,25.26,31.32
1553497888506,-9.623494,-0.41838676,1.0121487,-0.02130529,-0.010652645,-0.035153727999999995,31.8,25.26,31.32
1553497888526,-9.636064,-0.43933599999999995,1.027711,-0.037284255,-0.008522116,-0.033023197000000004,31.8,25.2,31.38
1553497888546,-9.656414,-0.4429273,1.0109516,-0.04261058,-0.0053263223,-0.03089267,31.74,25.2,31.44
1553497888566,-9.662399,-0.4405331,0.96785605,-0.05006743,-0.0053263223,-0.036218993,31.74,25.2,31.44
1553497888586,-9.707291,-0.39564183,0.9487024,-0.07030745599999999,-0.0053263223,-0.041545313,31.74,25.2,31.38
1553497888605,-9.702502,-0.37708676,0.8810662,-0.11717909,-0.011717908999999999,-0.037284255,31.74,25.2,31.38
1553497888625,-9.663596,-0.3357868,0.84814596,-0.20133498,-0.017044231,-0.03834952,31.8,25.26,31.32
1553497888646,-9.646238,-0.32321724,0.8331822,-0.314253,-0.014913702,-0.047936900000000005,31.8,25.26,31.32
1553497888666,-9.642049,-0.3441665,0.8499416,-0.41864893,-0.017044231,-0.05752428,31.74,25.32,31.32
1553497888686,-9.652822500000001,-0.3716998,0.8750806999999999,-0.49108690000000005,-0.01917476,-0.06391586,31.74,25.32,31.26
1553497888705,-9.671975999999999,-0.48542440000000003,0.8714894,-0.51665324,-0.034088463,-0.07243799,31.68,25.14,31.26
1553497888726,-9.655217,-0.52492875,0.93493575,-0.5134575,-0.039414786,-0.07456851,31.68,25.08,31.26
1553497888746,-9.652822500000001,-0.61291564,0.95827925,-0.5006742999999999,-0.05006743,-0.07669904,31.68,24.96,31.32
1553497888766,-9.607333,-0.6691794,1.110311,-0.47297743,-0.04474111,-0.07989483,31.68,24.78,31.32
1553497888786,-9.634866,-0.7170634,1.091756,-0.44741106,-0.03089267,-0.07776430000000001,31.68,24.54,31.38
1553497888806,-9.658808,-0.7308300999999999,1.0773908,-0.43888897,-0.022370555,-0.06711166,31.68,24.24,31.38
1553497888826,-9.604341,-0.7260416999999999,1.0139444,-0.46019423,-0.01917476,-0.05219796,31.74,23.94,31.44
1553497888845,-9.6288805,-0.6895300999999999,0.9995792,-0.50387007,-0.012783173500000002,-0.051132694000000006,31.8,23.58,31.5
1553497888866,-9.60853,-0.6889314999999999,0.9947908000000001,-0.5209143,-0.00958738,-0.056459017,31.86,23.22,31.62
1553497888885,-9.592369,-0.7457938000000001,0.97862995,-0.49747851,-0.008522116,-0.07137272,31.98,22.68,31.8
1553497888905,-9.583391,-0.7278373,0.92416185,-0.49321744,-0.0010652645,-0.07137272,32.04,22.26,31.92
1553497888926,-9.64145,-0.6967127,0.8822633,-0.51452273,0.0010652645,-0.06178534,32.04,21.9,32.04
1553497888945,-9.595961,-0.6805518,0.80445176,-0.57311225,-0.0010652645,-0.06178534,31.98,21.54,32.16
1553497888966,-9.66659,-0.6745663000000001,0.79607207,-0.65194184,0.010652645,-0.080960095,31.92,21.18,32.34
1553497888985,-9.798869,-0.7038953,0.7966706,-0.7392935,0.010652645,-0.10013486,31.86,20.82,32.52
1553497889007,-9.794678999999999,-0.75716627,0.8690952,-0.7946873000000001,-0.004261058,-0.10972224,31.8,20.58,32.64
1553497889026,-9.739613,-0.83258367,0.9187749,-0.793622,-0.017044231,-0.11504856,31.74,20.4,32.7
1553497889046,-9.711481,-1.0121487,1.0133458,-0.70200926,-0.024501082,-0.112918034,31.74,20.04,32.82
1553497889066,-9.625289,-1.1414356,1.0049661,-0.5933523,-0.020240024,-0.09374327,31.74,19.8,32.94
1553497889085,-9.603143,-1.1599906999999998,0.99538934,-0.5134575,-0.014913702,-0.07882957,31.8,19.62,33.0
1553497889107,-9.561244,-1.1941081,0.9564835999999999,-0.4079963,-0.008522116,-0.07137272,31.92,19.38,33.18
1553497889126,-9.565434,-1.2150573999999998,0.9708488000000001,-0.31105720000000003,-0.0053263223,-0.07563378,31.86,19.08,33.3
1553497889146,-9.626487,-1.2300211,0.9708488000000001,-0.23009712,-0.0031957934000000003,-0.07243799,31.8,18.84,33.42
1553497889166,-9.631275,-1.2186487,0.94331545,-0.14274544,0.004261058,-0.051132694000000006,31.8,18.6,33.48
1553497889186,-9.660006,-1.2659341,0.9367314,-0.054328485999999995,0.008522116,-0.027696876000000002,31.68,18.36,33.54
1553497889205,-9.689333999999999,-1.1354501000000001,0.93134445,0.039414786,0.011717908999999999,-0.013848438000000001,31.68,18.12,33.66
1553497889225,-9.676167,-1.079785,0.87807345,0.112918034,0.014913702,-0.008522116,31.62,17.88,33.72
1553497889246,-9.685742999999999,-0.9427169,0.83138657,0.12996227,0.010652645,-0.0031957934000000003,31.62,17.7,33.78
1553497889266,-9.657611,-0.8774749,0.78050977,0.10546118,0.0053263223,-0.00958738,31.62,17.52,33.9
1553497889286,-9.692925,-0.8367735000000001,0.80086046,0.05752428,0.002130529,-0.022370555,31.68,17.4,33.9
1553497889306,-9.689333999999999,-0.85891986,0.78050977,-0.013848438000000001,-0.0053263223,-0.036218993,31.86,17.4,33.9
1553497889326,-9.639056,-0.86251116,0.80564886,-0.058589544,-0.007456851,-0.035153727999999995,31.98,17.34,33.9
1553497889346,-9.633071000000001,-0.9516952,0.80445176,-0.07776430000000001,-0.004261058,-0.03834952,32.04,17.34,33.9
1553497889366,-9.618706,-0.9864110999999999,0.7811083000000001,-0.084155895,-0.007456851,-0.04261058,32.1,17.34,33.9
1553497889386,-9.618706,-0.98102415,0.7846996,-0.068176925,-0.0053263223,-0.040480047000000005,32.1,17.22,33.9
1553497889405,-9.624092,-1.0115502,0.81642276,-0.046871635999999994,-0.008522116,-0.035153727999999995,32.1,17.1,33.9
1553497889426,-9.630676,-1.0031705,0.8158241999999999,-0.020240024,-0.004261058,-0.033023197000000004,32.1,16.98,33.9
1553497889446,-9.639056,-1.0265139,0.8475474000000001,0.0053263223,-0.002130529,-0.034088463,32.1,16.86,33.9
1553497889466,-9.648633,-1.0342950999999998,0.8265981,0.03195793,0.0053263223,-0.033023197000000004,32.04,16.74,33.9
1553497889486,-9.674371,-0.997185,0.83258367,0.049002163,0.007456851,-0.02876214,32.04,16.68,33.9
1553497889505,-9.688137,-0.98461545,0.78529817,0.041545313,0.002130529,-0.027696876000000002,31.98,16.56,33.84
1553497889526,-9.68694,-0.9612719999999999,0.76075757,0.020240024,0.0010652645,-0.02876214,31.98,16.5,33.84
1553497889546,-9.662998,-0.94451255,0.7823054,0.012783173500000002,-0.004261058,-0.033023197000000004,31.92,16.5,33.84
1553497889566,-9.65821,-0.9540894,0.825401,0.017044231,-0.008522116,-0.035153727999999995,31.92,16.5,33.84
1553497889586,-9.633669,-0.9768343,0.80086046,0.024501082,-0.008522116,-0.034088463,31.86,16.56,33.78
1553497889605,-9.607930999999999,-0.99179804,0.84575176,0.029827405,-0.00958738,-0.033023197000000004,31.86,16.56,33.78
1553497889626,-9.598353999999999,-0.9391255999999999,0.8487445,0.039414786,-0.004261058,-0.033023197000000004,31.86,16.62,33.78
1553497889645,-9.605537,-0.95588505,0.82719666,0.04474111,-0.002130529,-0.033023197000000004,31.86,16.62,33.72
1553497889666,-9.609727000000001,-0.93613285,0.86131406,0.040480047000000005,0.002130529,-0.034088463,31.86,16.68,33.72
1553497889686,-9.653421,-0.93014735,0.83018947,0.04261058,0.007456851,-0.036218993,31.8,16.68,33.72
1553497889706,-9.668983,-0.94690675,0.84575176,0.05219796,0.010652645,-0.039414786,31.8,16.74,33.72
1553497889725,-9.654019,-0.93493575,0.86011696,0.054328485999999995,0.008522116,-0.043675844000000005,31.8,16.86,33.72
1553497889745,-9.655217,-0.9804255999999999,0.79966336,0.06285059999999999,0.008522116,-0.041545313,31.8,16.92,33.72
1553497889765,-9.682152,-0.99299514,0.7954735,0.07137272,0.0031957934000000003,-0.036218993,31.74,17.04,33.72
1553497889786,-9.668385,-0.9636662,0.8194155000000001,0.07989483,-0.0031957934000000003,-0.03195793,31.74,17.16,33.72
1553497889805,-9.674371,-0.93373865,0.8098387,0.096939065,-0.002130529,-0.03089267,31.68,17.28,33.72
1553497889825,-9.655814999999999,-0.9091981,0.8146270999999999,0.10439592,-0.0010652645,-0.029827405,31.62,17.28,33.72
1553497889845,-9.640253,-0.84216046,0.825401,0.09374327,-0.0010652645,-0.03089267,31.62,17.34,33.66
1553497889866,-9.644442999999999,-0.8062474000000001,0.7733272,0.06498113,-0.002130529,-0.036218993,31.56,17.4,33.66
1553497889886,-9.657611,-0.7691373,0.78529817,0.03089267,0.0010652645,-0.046871635999999994,31.5,17.34,33.66
1553497889906,-9.624691,-0.74639237,0.7721300999999999,0.0,-0.007456851,-0.06285059999999999,31.5,17.34,33.66
1553497889925,-9.619304,-0.6985083000000001,0.729633,-0.04261058,-0.010652645,-0.07989483,31.5,17.28,33.66
1553497889946,-9.627085000000001,-0.6488286999999999,0.64463884,-0.1438107,-0.013848438000000001,-0.08628642,31.5,17.22,33.6
1553497889966,-9.646837,-0.62488663,0.5943606,-0.3174488,-0.017044231,-0.099069595,31.5,17.22,33.6
1553497889986,-9.623494,-0.6368576,0.57400984,-0.51771855,-0.020240024,-0.12783173,31.5,17.16,33.6
1553497890006,-9.638457,-0.6703765,0.52253455,-0.79681784,-0.01917476,-0.14807177,31.56,17.16,33.6
1553497890026,-9.6049385,-0.7200562,0.46986207,-1.1728562,-0.015978966,-0.15020229,31.56,17.1,33.6
1553497890045,-9.55885,-0.8678981,0.55725044,-1.5148059999999999,-0.0063915867,-0.16618125,31.56,17.1,33.6
1553497890067,-9.596559,-1.1671733999999998,0.7625531999999999,-1.6479641,0.0010652645,-0.20133498,31.62,16.98,33.6
1553497890085,-9.623494,-1.5807717,0.93014735,-1.5350461000000002,0.012783173500000002,-0.22264028,31.62,16.8,33.6
1553497890106,-9.683349,-1.8435352999999999,0.997185,-1.2314457,0.022370555,-0.2034655,31.68,16.38,33.6
1553497890125,-9.649231,-2.0027497,0.96067345,-0.8021441,0.035153727999999995,-0.14913702,31.68,15.78,33.72
1553497890146,-9.635465,-2.0201077,0.80205756,-0.36005938,0.03834952,-0.08841695,31.68,15.06,33.78
1553497890166,-9.652225,-1.9087773999999997,0.6787562,0.0,0.034088463,-0.043675844000000005,31.68,14.4,33.84
1553497890186,-9.619903,-1.7920599999999998,0.59136784,0.25140239999999997,0.01917476,-0.025566347000000003,31.68,13.68,33.96
1553497890206,-9.661202000000001,-1.6352396999999999,0.5823896,0.40586576,0.00958738,-0.015978966,31.62,12.96,34.08
1553497890226,-9.677363,-1.4921862,0.5793968,0.47297743,0.0,0.0010652645,31.62,12.36,34.14
1553497890246,-9.662998,-1.3042414,0.5470751,0.4644553,-0.0053263223,0.018109497,31.62,11.88,34.26
1553497890266,-9.646837,-1.1827357,0.5614403,0.38882150000000004,0.0,0.013848438000000001,31.56,11.64,34.32
1553497890286,-9.588778,-1.0684125,0.5177461,0.25246766,0.002130529,-0.0063915867,31.56,11.58,34.38
1553497890306,-9.593566000000001,-1.0666169,0.5859809,0.10759171,0.004261058,-0.033023197000000004,31.5,11.7,34.38
1553497890326,-9.5570545,-1.1300632,0.5781997,-0.00958738,0.007456851,-0.05006743,31.5,11.76,34.38
1553497890345,-9.592369,-1.2563573000000001,0.6123171,-0.07243799,0.007456851,-0.05752428,31.44,11.88,34.38
1553497890366,-9.648033999999999,-1.3108255,0.6422445999999999,-0.082025364,0.012783173500000002,-0.047936900000000005,31.44,12.0,34.38
1553497890386,-9.656414,-1.3371617,0.65301853,-0.041545313,0.014913702,-0.041545313,31.38,12.18,34.38
1553497890406,-9.651626,-1.2982559,0.6374562,0.012783173500000002,0.023435817999999997,-0.04474111,31.38,12.36,34.44
1553497890426,-9.650428999999999,-1.2354081000000001,0.5129577000000001,0.02876214,0.024501082,-0.047936900000000005,31.38,12.48,34.44
1553497890446,-9.637858999999999,-1.2473791,0.47046062,-0.007456851,0.017044231,-0.046871635999999994,31.38,12.6,34.44
1553497890469,-9.670779,-1.2677298000000001,0.5279215,-0.06924219,0.017044231,-0.049002163,31.38,12.72,34.44
1553497890487,-9.642648,-1.2749124,0.52073884,-0.09161274,0.013848438000000001,-0.049002163,31.38,12.78,34.44
1553497890506,-9.619304,-1.2593501,0.55126494,-0.101200126,0.007456851,-0.051132694000000006,31.38,12.84,34.44
1553497890526,-9.624691,-1.2653356000000002,0.59017074,-0.09587380000000001,0.007456851,-0.05752428,31.38,12.84,34.44
1553497890546,-9.616311,-1.3024458,0.57281274,-0.07350325,0.0053263223,-0.06498113,31.38,12.84,34.44
1553497890566,-9.631275,-1.3634979,0.65242,-0.041545313,0.0063915867,-0.07563378,31.38,12.78,34.38
1553497890586,-9.630676,-1.4227544,0.66020113,0.0031957934000000003,0.01917476,-0.07669904,31.44,12.78,34.38
1553497890606,-9.624691,-1.3892354999999998,0.6464345,0.05219796,0.020240024,-0.07456851,31.44,12.72,34.32
1553497890626,-9.605537,-1.3443443000000002,0.61770403,0.099069595,0.024501082,-0.07137272,31.44,12.72,34.32
1553497890646,-9.631872999999999,-1.3275848999999997,0.56982,0.13954964,0.02130529,-0.07669904,31.44,12.66,34.32
1553497890666,-9.567828,-1.376666,0.5231331,0.15020229,0.012783173500000002,-0.096939065,31.44,12.66,34.26
1553497890686,-9.605537,-1.328782,0.47225627,0.14487597,0.015978966,-0.111852765,31.44,12.66,34.26
1553497890705,-9.665991,-1.3066356000000001,0.45549688,0.13741912,0.018109497,-0.10865697,31.38,12.6,34.26
1553497890726,-9.655217,-1.3802572,0.44532153,0.10226539,0.013848438000000001,-0.09587380000000001,31.38,12.66,34.32
1553497890745,-9.681553,-1.400608,0.46986207,0.05539375,0.0031957934000000003,-0.08948222,31.38,12.72,34.32
1553497890766,-9.639654,-1.4784195,0.46866497,0.024501082,-0.002130529,-0.082025364,31.32,12.78,34.38
1553497890786,-9.674371,-1.4736311000000002,0.49081135,0.0063915867,-0.008522116,-0.07137272,31.32,12.84,34.44
1553497890806,-9.646238,-1.5215151000000002,0.5374983,0.017044231,-0.00958738,-0.060720075,31.32,12.9,34.5
1553497890826,-9.619304,-1.5280992,0.60932434,0.04474111,-0.00958738,-0.054328485999999995,31.32,12.96,34.56
1553497890846,-9.581595,-1.5275006000000002,0.61890113,0.08948222,-0.007456851,-0.046871635999999994,31.26,13.02,34.62
1553497890866,-9.587581,-1.5310919,0.60932434,0.12357068,0.0010652645,-0.039414786,31.26,13.14,34.68
1553497890886,-9.605537,-1.5424645000000001,0.5614403,0.14594123,0.007456851,-0.027696876000000002,31.26,13.2,34.74
1553497890906,-9.642648,-1.5807717,0.52732295,0.16192019,0.008522116,-0.011717908999999999,31.26,13.26,34.74
1553497890926,-9.691728999999999,-1.5688007,0.53330845,0.16831179,0.011717908999999999,0.00958738,31.26,13.38,34.74
1553497890945,-9.651027000000001,-1.6071079,0.48722005,0.16831179,0.0053263223,0.03089267,31.26,13.5,34.8
1553497890965,-9.711481,-1.5436616,0.55365914,0.18002969,-0.0010652645,0.04580637,31.26,13.62,34.86
1553497890986,-9.683349,-1.5191208999999999,0.6386533000000001,0.26631612,-0.004261058,0.06604639400000001,31.26,13.74,34.86
1553497891006,-9.671378,-1.520318,0.6805518,0.37923414,-0.007456851,0.07243799,31.26,13.86,34.92
1553497891027,-9.640852,-1.4903905000000002,0.6428431,0.51452273,-0.007456851,0.07669904,31.26,13.98,34.98
1553497891046,-9.638457,-1.489792,0.7278373,0.66152924,-0.0031957934000000003,0.08948222,31.26,14.1,34.98
1553497891066,-9.610325999999999,-1.3862427,0.7433996,0.8042746999999999,-0.0010652645,0.10439592,31.26,14.16,34.98
1553497891086,-9.583391,-1.2731166999999999,0.7314286,0.89375687,0.0031957934000000003,0.111852765,31.26,14.22,34.98
1553497891105,-9.609129,-1.0761937,0.6488286999999999,0.95447695,0.014913702,0.10972224,31.32,14.34,34.98
1553497891126,-9.627085000000001,-0.9540894,0.6171055000000001,0.9267801,0.014913702,0.09267801,31.32,14.52,34.92
1553497891146,-9.662998,-0.8511386999999999,0.57041854,0.85753787,0.014913702,0.068176925,31.32,14.82,34.86
1553497891166,-9.665392,-0.80086046,0.5542577,0.7840345999999999,0.010652645,0.04580637,31.38,15.18,34.74
1553497891186,-9.67018,-0.76554596,0.58538234,0.71585774,0.014913702,0.035153727999999995,31.38,15.6,34.68
1553497891206,-9.634267999999999,-0.8194155000000001,0.60214174,0.66365975,0.012783173500000002,0.03089267,31.44,16.08,34.62
1553497891225,-9.651626,-0.7553706,0.65780693,0.59122175,0.013848438000000001,0.029827405,31.5,16.56,34.5
1553497891246,-9.642049,-0.7128736,0.6991069000000001,0.5390238,0.002130529,0.020240024,31.5,17.04,34.44
1553497891266,-9.627085000000001,-0.6793547,0.6991069000000001,0.4857606,0.0053263223,0.0053263223,31.56,17.52,34.38
1553497891285,-9.629479,-0.66858083,0.7266402,0.43675843,-0.0010652645,-0.014913702,31.56,17.94,34.26
1553497891305,-9.655814999999999,-0.6781576,0.729633,0.4048005,0.002130529,-0.035153727999999995,31.56,18.24,34.08
1553497891325,-9.700109,-0.7350199000000001,0.748188,0.4133226,-0.008522116,-0.05006743,31.56,18.6,33.9
1553497891346,-9.636064,-0.82001406,0.8110358,0.4261058,-0.010652645,-0.060720075,31.62,18.9,33.78
1553497891366,-9.61691,-0.81881696,0.86011696,0.43569317,0.0063915867,-0.05752428,31.56,19.14,33.6
1553497891386,-9.683948,-0.7870938000000001,0.8607155000000001,0.43462790000000007,0.014913702,-0.05539375,31.56,19.32,33.54
1553497891406,-9.676167,-0.7565677,0.7757214,0.41545314,0.015978966,-0.05965481,31.56,19.62,33.42
1553497891425,-9.668983,-0.7380127,0.74639237,0.39734364,0.017044231,-0.07030745599999999,31.56,19.86,33.36
1553497891445,-9.698911,-0.74639237,0.6679823,0.36645097,0.007456851,-0.07243799,31.5,20.04,33.3
1553497891467,-9.692925,-0.7284359,0.6607997,0.32170987,-0.004261058,-0.07030745599999999,31.5,20.22,33.36
1553497891486,-9.707889999999999,-0.7170634,0.6398504,0.25992453,-0.012783173500000002,-0.060720075,31.5,20.4,33.36
1553497891506,-9.685742999999999,-0.6895300999999999,0.6087258000000001,0.17363810000000002,-0.015978966,-0.046871635999999994,31.44,20.64,33.3
1553497891525,-9.663596,-0.6805518,0.6787562,0.03089267,-0.020240024,-0.033023197000000004,31.5,21.06,33.24
1553497891546,-9.636662,-0.7074866,0.6841431,-0.07882957,-0.022370555,-0.033023197000000004,31.5,21.3,33.12
1553497891566,-9.681553,-0.6596026,0.7146691999999999,-0.14061491,-0.039414786,-0.041545313,31.5,21.48,33.06
1553497891585,-9.704897,-0.6985083000000001,0.7625531999999999,-0.1587244,-0.05219796,-0.051132694000000006,31.5,21.72,32.94
1553497891606,-9.638457,-0.700304,0.801459,-0.15765914,-0.046871635999999994,-0.06498113,31.5,21.96,32.82
1553497891626,-9.646837,-0.7553706,0.8822633,-0.14168017,-0.039414786,-0.084155895,31.56,22.14,32.76
1553497891646,-9.671378,-0.8319851,0.9091981,-0.12463594,-0.029827405,-0.09374327,31.56,22.26,32.7
1553497891666,-9.677961,-0.8631097,0.8511386999999999,-0.12783173,-0.03089267,-0.08841695,31.62,22.26,32.76
1553497891686,-9.669582,-0.88046765,0.84096336,-0.13209279,-0.024501082,-0.07882957,31.56,22.26,32.82
1553497891705,-9.707291,-0.9355343,0.83976626,-0.13528858,-0.020240024,-0.07563378,31.62,22.26,32.94
1553497891726,-9.662998,-0.9367314,0.8559271,-0.14061491,-0.024501082,-0.07030745599999999,31.62,22.26,33.06
1553497891746,-9.656414,-0.9498995000000001,0.8619126,-0.14487597,-0.022370555,-0.06391586,31.62,22.2,33.12
1553497891766,-9.625888,-0.9852139999999999,0.90381116,-0.13422333,-0.025566347000000003,-0.054328485999999995,31.62,22.14,33.12
1553497891786,-9.592369,-0.97025025,0.9319430000000001,-0.112918034,-0.027696876000000002,-0.05006743,31.62,22.08,33.12
1553497891806,-9.630676,-0.9959879,0.89902276,-0.07350325,-0.017044231,-0.053263225,31.68,22.02,33.12
1553497891826,-9.64145,-0.96546185,0.87927055,-0.03089267,-0.010652645,-0.046871635999999994,31.68,22.02,33.0
1553497891846,-9.64983,-0.94690675,0.88944596,-0.010652645,-0.0063915867,-0.039414786,31.74,21.96,32.88
1553497891866,-9.671975999999999,-0.9044097,0.84575176,0.004261058,-0.00958738,-0.034088463,31.74,21.96,32.76
1553497891885,-9.662998,-0.87208796,0.83258367,0.004261058,-0.012783173500000002,-0.035153727999999995,31.8,21.9,32.64
1553497891905,-9.690532000000001,-0.8547299999999999,0.7206547,-0.033023197000000004,-0.02130529,-0.035153727999999995,31.8,21.9,32.52
1553497891926,-9.675568,-0.84096336,0.7374141,-0.09161274,-0.029827405,-0.024501082,31.86,21.84,32.52
1553497891946,-9.652225,-0.8643068000000002,0.74399817,-0.12676647,-0.035153727999999995,-0.017044231,31.86,21.78,32.52
1553497891966,-9.689333999999999,-0.8631097,0.7242460000000001,-0.14913702,-0.039414786,-0.024501082,31.86,21.72,32.46
1553497891985,-9.656414,-0.84216046,0.6943185000000001,-0.17363810000000002,-0.05219796,-0.023435817999999997,31.86,21.6,32.46
1553497892006,-9.642648,-0.81522566,0.75237787,-0.20772657,-0.06391586,-0.01917476,31.86,21.42,32.52
1553497892026,-9.616311,-0.7697359,0.7272388000000001,-0.24714136,-0.07456851,-0.024501082,31.86,21.36,32.52
1553497892046,-9.668983,-0.7882909,0.7823054,-0.27483824,-0.09161274,-0.037284255,31.86,21.24,32.52
1553497892066,-9.651027000000001,-0.8170213000000001,0.8218097,-0.294013,-0.096939065,-0.04580637,31.86,21.12,32.58
1553497892086,-9.624092,-0.88645315,0.83138657,-0.29507825,-0.10652645,-0.05965481,31.8,21.0,32.64
1553497892106,-9.604341,-0.90740246,0.8726865,-0.30360037,-0.10333065,-0.07137272,31.74,20.88,32.64
1553497892126,-9.664195,-0.9044097,0.88166475,-0.3270362,-0.10333065,-0.07137272,31.68,20.82,32.7
1553497892146,-9.613318,-0.94930094,0.8900445,-0.35899413,-0.10226539,-0.07137272,31.62,20.76,32.76
1553497892166,-9.630077,-0.97264445,0.94690675,-0.4016047,-0.10226539,-0.07669904,31.62,20.7,32.82
1553497892185,-9.607333,-1.0037690000000001,1.0372878,-0.43888897,-0.098004326,-0.08628642,31.74,20.7,32.88
1553497892205,-9.587581,-1.0875661,1.1127052,-0.45060685,-0.09374327,-0.09374327,31.8,20.58,32.94
1553497892225,-9.618706,-1.1821371,1.1073183000000002,-0.43675843,-0.07669904,-0.09267801,31.86,20.46,33.06
1553497892246,-9.607930999999999,-1.2318168,1.22224,-0.37284255,-0.06711166,-0.07137272,31.98,20.34,33.12
1553497892266,-9.572019000000001,-1.2641385,1.2970588,-0.29294774,-0.054328485999999995,-0.060720075,32.1,20.1,33.18
1553497892286,-9.598353999999999,-1.2593501,1.3317747,-0.17470337,-0.029827405,-0.046871635999999994,32.22,19.86,33.24
1553497892306,-9.628283,-1.204882,1.2922704,-0.06178534,-0.008522116,-0.03195793,32.28,19.56,33.3
1553497892326,-9.624691,-1.1677719,1.2773066000000002,0.029827405,0.0031957934000000003,-0.013848438000000001,32.34,19.32,33.36
1553497892346,-9.593566000000001,-1.1402385,1.1198878,0.084155895,0.014913702,-0.00958738,32.28,19.02,33.36
1553497892366,-9.634866,-1.1264718999999999,1.0911574,0.10333065,0.020240024,-0.011717908999999999,32.22,18.84,33.36
1553497892385,-9.673772,-1.0456676,0.97862995,0.10759171,0.01917476,-0.010652645,32.22,18.54,33.36
1553497892406,-9.639654,-0.98700964,0.95708215,0.10652645,0.012783173500000002,-0.0053263223,32.16,18.42,33.36
1553497892426,-9.665991,-0.96546185,0.9451110999999999,0.10546118,0.0053263223,-0.011717908999999999,32.16,18.36,33.36
1553497892446,-9.637858999999999,-0.9044097,0.91817635,0.09054748,0.0010652645,-0.018109497,32.1,18.42,33.36
1553497892466,-9.651027000000001,-0.9343372,0.93373865,0.06604639400000001,-0.008522116,-0.025566347000000003,32.04,18.48,33.3
1553497892486,-9.640253,-0.92416185,0.94810385,0.03195793,-0.014913702,-0.027696876000000002,32.04,18.54,33.3
1553497892506,-9.61691,-0.9780314,0.9504981,0.0063915867,-0.020240024,-0.029827405,31.98,18.54,33.3
1553497892528,-9.586982,-0.9696517,0.9708488000000001,-0.012783173500000002,-0.020240024,-0.033023197000000004,31.92,18.6,33.24
1553497892548,-9.574411999999999,-0.97503865,1.0372878,-0.017044231,-0.01917476,-0.03089267,31.86,18.6,33.24
1553497892566,-9.576208,-0.98341835,0.9983820999999999,-0.013848438000000001,-0.011717908999999999,-0.029827405,31.86,18.66,33.18
1553497892587,-9.57142,-0.97982705,0.9959879,-0.00958738,-0.008522116,-0.03089267,31.8,18.66,33.18
1553497892606,-9.630077,-1.0061632,0.97623575,-0.010652645,0.0,-0.033023197000000004,31.86,18.66,33.18
1553497892625,-9.694122,-0.98102415,1.0133458,-0.012783173500000002,0.0053263223,-0.029827405,31.86,18.6,33.24
1553497892646,-9.671975999999999,-0.9648633,0.96426475,-0.00958738,0.0,-0.029827405,31.86,18.6,33.24
1553497892666,-9.67018,-0.94451255,0.9528923,-0.024501082,-0.0031957934000000003,-0.036218993,31.92,18.66,33.3
1553497892686,-9.650428999999999,-0.93613285,0.84814596,-0.084155895,-0.008522116,-0.036218993,31.92,18.66,33.36
1553497892706,-9.637858999999999,-0.8960299999999999,0.8571242,-0.14274544,-0.011717908999999999,-0.036218993,31.92,18.72,33.36
1553497892725,-9.621698,-0.90979666,0.85532856,-0.23542345,-0.022370555,-0.047936900000000005,31.92,18.6,33.3
1553497892746,-9.614514999999999,-0.9540894,0.96905315,-0.29294774,-0.01917476,-0.06285059999999999,31.92,18.54,33.3
1553497892765,-9.625888,-1.0061632,1.0043676,-0.30999196,-0.020240024,-0.07030745599999999,31.92,18.42,33.24
1553497892786,-9.6288805,-1.0486604,1.0594343000000002,-0.31105720000000003,-0.018109497,-0.06391586,31.92,18.3,33.18
1553497892806,-9.624092,-1.127669,1.0983399999999999,-0.28442562,-0.015978966,-0.053263225,31.86,18.24,33.12
1553497892826,-9.599552000000001,-1.1695676000000002,1.0468647,-0.24074976,-0.012783173500000002,-0.049002163,31.86,18.06,33.06
1553497892846,-9.5971575,-1.2126632,1.073201,-0.17150758,-0.02130529,-0.047936900000000005,31.86,17.94,33.12
1553497892866,-9.586982,-1.2120646000000002,1.0432734000000001,-0.09374327,-0.018109497,-0.039414786,31.86,17.82,33.24
1553497892886,-9.604341,-1.1504139,1.0205284,-0.022370555,-0.008522116,-0.024501082,31.86,17.76,33.42
1553497892905,-9.609129,-1.0193313,0.99538934,0.012783173500000002,-0.0053263223,-0.017044231,31.92,17.64,33.6
1553497892925,-9.590573,-0.9552864999999999,0.8924386999999999,-0.01917476,-0.0053263223,-0.029827405,31.98,17.58,33.78
1553497892946,-9.655217,-0.9151836,0.85532856,-0.10013486,-0.008522116,-0.049002163,31.98,17.46,33.96
1553497892966,-9.638457,-0.96785605,0.8607155000000001,-0.18642128,-0.017044231,-0.058589544,32.04,17.28,34.08
1553497892986,-9.621099000000001,-1.0127473,0.84934306,-0.25672874,-0.023435817999999997,-0.06178534,32.1,17.16,34.14
1553497893006,-9.631275,-0.96785605,0.89423436,-0.3153183,-0.023435817999999997,-0.05752428,32.16,17.04,34.2
1553497893026,-9.615712,-0.9983820999999999,0.83737206,-0.37071204,-0.03195793,-0.05965481,32.22,16.98,34.14
1553497893046,-9.613318,-1.0127473,0.8655039000000001,-0.41225734,-0.03195793,-0.06924219,32.22,16.92,34.02
1553497893066,-9.626487,-1.0833763,0.9115923,-0.43995422,-0.037284255,-0.080960095,32.22,16.92,33.9
1553497893086,-9.61272,-1.1438298,0.9756372,-0.45060685,-0.03089267,-0.080960095,32.16,16.86,33.78
1553497893105,-9.618107,-1.2156559,0.97982705,-0.45060685,-0.025566347000000003,-0.07669904,32.16,16.8,33.72
1553497893125,-9.637858999999999,-1.2318168,0.97862995,-0.43782368,-0.018109497,-0.06711166,32.1,16.74,33.66
1553497893146,-9.598953,-1.2671312,0.93014735,-0.42077947,-0.025566347000000003,-0.06391586,32.1,16.62,33.6
1553497893166,-9.603143,-1.2593501,0.9528923,-0.40906155,-0.026631612000000002,-0.06604639400000001,32.22,16.2,33.54
1553497893186,-9.60853,-1.3221979,0.9564835999999999,-0.38456047,-0.025566347000000003,-0.068176925,32.34,15.96,33.6
1553497893206,-9.61691,-1.3874398000000001,0.97144735,-0.33981937,-0.027696876000000002,-0.07137272,32.46,15.66,33.6
1553497893226,-9.591172,-1.4089876000000001,0.97862995,-0.27590349999999997,-0.02130529,-0.06178534,32.58,15.36,33.6
1553497893246,-9.583989,-1.3676877,0.90500826,-0.2545982,-0.013848438000000001,-0.046871635999999994,32.7,15.12,33.66
1553497893266,-9.554661,-1.2904748,0.8834603999999999,-0.27377295,-0.014913702,-0.04474111,32.76,14.82,33.72
1553497893286,-9.563639,-1.3000516000000002,0.85173726,-0.30360037,-0.011717908999999999,-0.05539375,32.82,14.58,33.72
1553497893306,-9.561843,-1.3210008,0.8499416,-0.32810146,-0.004261058,-0.06285059999999999,32.76,14.4,33.78
1553497893326,-9.560646,-1.3694833999999998,0.8535328999999999,-0.330232,-0.004261058,-0.06178534,32.7,14.22,33.84
1553497893346,-9.5570545,-1.3748703000000002,0.8690952,-0.31318775,0.0,-0.05965481,32.52,14.04,33.84
1553497893366,-9.597756,-1.412579,0.8870517,-0.27057716,0.0,-0.060720075,32.4,13.8,33.9
1553497893386,-9.635465,-1.4526819,0.84934306,-0.21731395,0.002130529,-0.06178534,32.28,13.56,33.9
1553497893406,-9.604341,-1.4778209999999998,0.8146270999999999,-0.18002969,-0.0010652645,-0.05539375,32.16,13.32,33.96
1553497893426,-9.606135,-1.4646529,0.86610246,-0.14487597,0.0010652645,-0.04261058,32.04,13.08,34.02
1553497893445,-9.609727000000001,-1.5047556999999998,0.8702923,-0.09161274,-0.0010652645,-0.034088463,32.04,12.84,34.08
1553497893465,-9.595961,-1.4933833,0.9175778,-0.022370555,0.002130529,-0.029827405,32.04,12.66,34.14
1553497893486,-9.611523,-1.4706384,0.9163806999999999,0.06178534,0.0031957934000000003,-0.024501082,32.04,12.6,34.2
1553497893506,-9.598353999999999,-1.4024036,0.8750806999999999,0.128897,0.004261058,-0.015978966,32.1,12.54,34.26
1553497893526,-9.560047,-1.3275848999999997,0.8810662,0.16298546,0.004261058,-0.017044231,32.1,12.48,34.26
1553497893545,-9.584588,-1.3126211,0.80445176,0.15765914,0.0053263223,-0.022370555,32.16,12.42,34.26
1553497893566,-9.551667,-1.2958617000000001,0.830788,0.12463594,0.008522116,-0.027696876000000002,32.16,12.42,34.26
1553497893586,-9.56723,-1.2850877,0.8487445,0.09587380000000001,0.017044231,-0.03089267,32.22,12.42,34.2
1553497893606,-9.60853,-1.2976573999999998,0.8607155000000001,0.09267801,0.023435817999999997,-0.033023197000000004,32.16,12.42,34.2
1553497893626,-9.61272,-1.2940661,0.8182184,0.08628642,0.026631612000000002,-0.034088463,32.22,12.48,34.14
1553497893646,-9.630676,-1.2868833999999998,0.78290397,0.07563378,0.024501082,-0.037284255,32.22,12.48,34.14
1553497893666,-9.650428999999999,-1.3162124,0.7811083000000001,0.060720075,0.017044231,-0.040480047000000005,32.22,12.48,34.08
1553497893686,-9.660006,-1.3359646,0.75477207,0.058589544,0.00958738,-0.037284255,32.16,12.48,34.14
1553497893706,-9.652225,-1.3491327,0.8158241999999999,0.06391586,0.0031957934000000003,-0.03195793,32.1,12.54,34.14
1553497893726,-9.601946,-1.3461398999999998,0.8643068000000002,0.094808534,0.0010652645,-0.02876214,32.1,12.54,34.2
1553497893746,-9.600749,-1.3317747,0.8415619000000001,0.12144015,0.0063915867,-0.03089267,32.04,12.54,34.2
1553497893766,-9.599552000000001,-1.3126211,0.8619126,0.14487597,0.002130529,-0.029827405,31.98,12.6,34.26
1553497893786,-9.588778,-1.3006501,0.8343792999999999,0.1587244,0.008522116,-0.027696876000000002,31.98,12.6,34.26
1553497893806,-9.611523,-1.3024458,0.86131406,0.17576863,0.012783173500000002,-0.02876214,31.98,12.6,34.32
1553497893826,-9.594165,-1.3126211,0.8523358,0.18748654,0.013848438000000001,-0.02876214,31.92,12.6,34.32
1553497893846,-9.585785000000001,-1.3275848999999997,0.82899237,0.19600865,0.011717908999999999,-0.026631612000000002,31.92,12.6,34.32
1553497893866,-9.622296,-1.3120226000000001,0.8822633,0.20985709,0.014913702,-0.027696876000000002,31.98,12.66,34.32
1553497893886,-9.630676,-1.3150153,0.91099375,0.24074976,0.015978966,-0.022370555,32.04,12.72,34.26
1553497893906,-9.663596,-1.299453,0.8960299999999999,0.2790993,0.017044231,-0.020240024,32.1,12.9,34.2
1553497893926,-9.646238,-1.2671312,0.86251116,0.30679616,0.018109497,-0.015978966,32.16,13.14,34.14
1553497893946,-9.640253,-1.2844891999999999,0.90141696,0.31957933,0.018109497,-0.015978966,32.16,13.32,34.08
1553497893966,-9.594764,-1.2521674999999999,0.9163806999999999,0.33662358,0.018109497,-0.017044231,32.22,13.56,34.02
1553497893986,-9.589376,-1.2395979,0.91697925,0.35579833,0.027696876000000002,-0.014913702,32.22,13.74,33.96
1553497894006,-9.60853,-1.2240356000000001,0.8786719999999999,0.36218992,0.02876214,-0.012783173500000002,32.22,13.92,33.96
1553497894026,-9.599552000000001,-1.1785458,0.87927055,0.36964676,0.027696876000000002,-0.008522116,32.16,14.1,33.9
1553497894045,-9.615712,-1.1923125,0.8738836,0.37390783,0.03089267,-0.010652645,32.16,14.28,33.9
1553497894065,-9.619304,-1.1683705,0.90979666,0.37923414,0.035153727999999995,-0.010652645,32.1,14.28,33.9
1553497894086,-9.630676,-1.1713632,0.93254155,0.4016047,0.037284255,-0.011717908999999999,32.04,14.4,33.9
1553497894107,-9.640852,-1.210269,0.93972415,0.43036684,0.04474111,-0.008522116,31.98,14.46,33.84
1553497894125,-9.650428999999999,-1.2132617,0.9235633,0.46339005,0.047936900000000005,-0.0010652645,31.98,14.52,33.84
1553497894146,-9.664195,-1.2330139,0.91817635,0.5134575,0.047936900000000005,0.007456851,31.98,14.82,33.78
1553497894166,-9.627684,-1.2090718999999999,0.9379284999999999,0.5858955,0.05219796,0.014913702,31.92,15.06,33.78
1553497894186,-9.632472,-1.1575965,0.8882488000000002,0.6359629,0.058589544,0.027696876000000002,31.92,15.36,33.66
1553497894207,-9.634267999999999,-1.0887632,0.8738836,0.6593986999999999,0.056459017,0.04580637,31.92,15.66,33.6
1553497894226,-9.60015,-0.99060094,0.87328506,0.67324716,0.047936900000000005,0.043675844000000005,31.86,16.08,33.54
1553497894246,-9.60853,-0.9235633,0.87807345,0.680704,0.05219796,0.027696876000000002,31.8,16.44,33.48
1553497894266,-9.6767645,-0.87927055,0.9115923,0.6849651,0.051132694000000006,0.01917476,31.74,16.8,33.42
1553497894285,-9.598353999999999,-0.9540894,1.0151415000000001,0.74248934,0.04474111,0.015978966,31.68,17.1,33.42
1553497894306,-9.60853,-1.0600328,1.0432734000000001,0.8522116,0.068176925,0.007456851,31.62,17.4,33.36
1553497894326,-9.649231,-1.0330979999999998,0.97025025,0.95447695,0.083090626,0.010652645,31.56,17.7,33.3
1553497894346,-9.647436,-0.8924386999999999,0.87927055,1.0130665,0.09161274,0.039414786,31.56,18.18,33.36
1553497894366,-9.651027000000001,-0.6733691999999999,0.6973111999999999,0.9981528000000001,0.08948222,0.05219796,31.5,18.66,33.3
1553497894385,-9.721656,-0.5614403,0.6733691999999999,0.9321064,0.083090626,0.04474111,31.56,19.14,33.3
1553497894407,-9.662399,-0.48482585,0.6135142,0.7680557,0.060720075,0.02130529,31.62,19.56,33.3
1553497894426,-9.671378,-0.44592008,0.6979098000000001,0.66579026,0.053263225,0.0053263223,31.68,19.98,33.3
1553497894446,-9.668983,-0.4441244000000001,0.7062895,0.5187838,0.04261058,0.0,31.74,20.46,33.3
1553497894466,-9.6767645,-0.39863458,0.7613561,0.43782368,0.047936900000000005,0.004261058,31.8,20.94,33.18
1553497894485,-9.698911,-0.45609543,0.75716627,0.39308259999999995,0.041545313,-0.002130529,31.86,21.42,33.06
1553497894505,-9.691130000000001,-0.53330845,0.7679402,0.38882150000000004,0.036218993,-0.018109497,31.86,21.84,32.94
1553497894526,-9.731233,-0.5081693,0.80445176,0.40373522,0.037284255,-0.02876214,31.86,22.2,32.76
1553497894546,-9.720459,-0.48362875,0.7529764,0.4133226,0.026631612000000002,-0.02130529,31.86,22.56,32.58
1553497894566,-9.677363,-0.43514615,0.6769605,0.3898868,0.024501082,-0.014913702,31.8,22.92,32.46
1553497894586,-9.703101,-0.3776853,0.6619968,0.32597092,0.017044231,-0.015978966,31.8,23.28,32.28
1553497894606,-9.702502,-0.35254622,0.59974754,0.22583607,0.0031957934000000003,-0.024501082,31.74,23.58,32.1
1553497894626,-9.688736,-0.35434186,0.6452374,0.111852765,-0.008522116,-0.03195793,31.74,23.88,32.04
1553497894646,-9.702502,-0.38426940000000004,0.7116765,0.007456851,-0.018109497,-0.035153727999999995,31.68,24.12,32.04
1553497894666,-9.698313,-0.37349546,0.7667431,-0.060720075,-0.018109497,-0.036218993,31.68,24.18,32.04
1553497894686,-9.664195,-0.45489833,0.85054016,-0.07563378,-0.026631612000000002,-0.04261058,31.68,24.24,31.98
1553497894706,-9.644442999999999,-0.50996494,0.90021986,-0.058589544,-0.029827405,-0.053263225,31.68,24.3,31.92
1553497894726,-9.658808,-0.5422866999999999,0.9127894,-0.035153727999999995,-0.027696876000000002,-0.05219796,31.68,24.36,31.86
1553497894746,-9.665392,-0.5386954,0.95468795,-0.00958738,-0.026631612000000002,-0.040480047000000005,31.62,24.42,31.8
1553497894766,-9.657611,-0.59974754,0.9391255999999999,0.010652645,-0.014913702,-0.035153727999999995,31.62,24.48,31.68
1553497894786,-9.682152,-0.5398925,0.9624690999999999,0.02876214,-0.002130529,-0.035153727999999995,31.62,24.54,31.56
1553497894806,-9.671975999999999,-0.5327099000000001,0.9008184000000001,0.041545313,-0.0010652645,-0.043675844000000005,31.62,24.6,31.44
1553497894826,-9.712079,-0.48662150000000004,0.85054016,0.04261058,0.002130529,-0.043675844000000005,31.62,24.6,31.38
1553497894846,-9.7007065,-0.47524905,0.84934306,0.036218993,-0.0053263223,-0.040480047000000005,31.68,24.6,31.38
1553497894866,-9.687539,-0.50757074,0.8026561,0.012783173500000002,0.0010652645,-0.035153727999999995,31.74,24.66,31.44
1553497894886,-9.683349,-0.49559975,0.83497787,0.0,-0.0031957934000000003,-0.035153727999999995,31.8,24.66,31.5
1553497894906,-9.674969,-0.46986207,0.81163436,-0.0053263223,-0.0063915867,-0.036218993,31.86,24.66,31.5
1553497894925,-9.655217,-0.45130703,0.8146270999999999,-0.007456851,-0.010652645,-0.03834952,31.92,24.66,31.56
1553497894947,-9.673772,-0.39264908,0.76554596,-0.01917476,-0.02130529,-0.037284255,31.92,24.66,31.68
1553497894966,-9.665392,-0.35194764,0.7134720999999999,-0.049002163,-0.02876214,-0.043675844000000005,31.92,24.6,31.8
1553497894988,-9.651027000000001,-0.3345897,0.7086836999999999,-0.084155895,-0.035153727999999995,-0.05539375,31.92,24.6,31.8
1553497895005,-9.664195,-0.29029694,0.5506664000000001,-0.18642128,-0.05006743,-0.06924219,31.92,24.54,31.8
1553497895027,-9.662998,-0.29388827,0.40761283,-0.330232,-0.06498113,-0.07456851,31.86,24.48,31.86
1553497895047,-9.7240505,-0.21787235,0.27533320000000006,-0.5581986,-0.10439592,-0.07137272,31.86,24.48,31.86
1553497895066,-9.68275,-0.27114335,0.26515785,-0.83729786,-0.15552860000000002,-0.07563378,31.86,24.42,31.86
1553497895085,-9.671975999999999,-0.32022446,0.41000703,-1.0759171,-0.19281286,-0.10439592,31.8,24.3,31.86
1553497895106,-9.697116000000001,-0.57520694,0.6631939,-1.2133361999999999,-0.22690132,-0.12783173,31.8,24.18,31.92
1553497895126,-9.68694,-0.82360536,1.050456,-1.2293152,-0.24181503,-0.13209279,31.8,23.88,31.92
1553497895146,-9.652225,-1.1486181999999998,1.3904326,-1.0844392,-0.23861924,-0.12357068,31.8,23.52,31.92
1553497895165,-9.615114,-1.3335704,1.6675615000000001,-0.8064051999999999,-0.19174760000000002,-0.10652645,31.8,23.1,31.92
1553497895185,-9.598953,-1.4652513999999999,1.7705121,-0.5432849000000001,-0.15552860000000002,-0.08841695,31.8,22.92,31.92
1553497895206,-9.603143,-1.4443021999999999,1.8040310000000002,-0.18216023,-0.10546118,-0.054328485999999995,31.86,22.44,31.98
1553497895226,-9.624691,-1.2898762,1.714847,0.20240025,-0.054328485999999995,-0.013848438000000001,31.86,21.78,32.04
1553497895245,-9.598953,-1.0402806,1.4251486,0.43036684,-0.0031957934000000003,0.01917476,31.92,21.36,32.16
1553497895266,-9.609129,-0.83258367,1.1809399999999999,0.5006742999999999,0.014913702,0.02130529,31.98,21.0,32.22
1553497895286,-9.61272,-0.6326678000000001,1.0271125,0.47404268,0.013848438000000001,0.007456851,32.04,20.82,32.34
1553497895306,-9.613917,-0.533907,0.8912416,0.3653857,0.00958738,-0.0063915867,32.16,20.76,32.4
1553497895326,-9.631872999999999,-0.39743748,0.81881696,0.2034655,-0.0031957934000000003,-0.01917476,32.22,20.82,32.52
1553497895346,-9.633669,-0.37469256,0.85772276,0.008522116,-0.022370555,-0.03195793,32.28,20.88,32.58
1553497895365,-9.668983,-0.40701428,0.78290397,-0.16724652,-0.039414786,-0.047936900000000005,32.34,21.06,32.58
1553497895385,-9.71986,-0.48722005,0.84575176,-0.2876214,-0.06391586,-0.068176925,32.4,21.18,32.58
1553497895406,-9.673173,-0.56802434,0.8888474000000001,-0.37390783,-0.09054748,-0.07563378,32.4,21.3,32.52
1553497895426,-9.648033999999999,-0.6368576,0.87807345,-0.43462790000000007,-0.10652645,-0.07243799,32.4,21.36,32.46
1553497895447,-9.612122,-0.6751649000000001,0.91338795,-0.52837116,-0.11717909,-0.06285059999999999,32.4,21.42,32.4
1553497895465,-9.579201,-0.7134720999999999,1.0115502,-0.6317018,-0.13315806,-0.058589544,32.46,21.42,32.34
1553497895486,-9.582792,-0.777517,1.1007341999999998,-0.69774824,-0.13741912,-0.054328485999999995,32.46,21.3,32.28
1553497895505,-9.598353999999999,-0.8888474000000001,1.2042834999999998,-0.6956177,-0.13635385,-0.05965481,32.52,21.18,32.22
1553497895526,-9.607333,-0.98341835,1.3934253,-0.6135923000000001,-0.13422333,-0.06498113,32.52,21.06,32.22
1553497895545,-9.610325999999999,-1.0307038,1.4556746,-0.4878911,-0.111852765,-0.058589544,32.58,20.94,32.22
1553497895567,-9.592967999999999,-1.091756,1.4820108,-0.35579833,-0.10013486,-0.053263225,32.58,20.82,32.22
1553497895587,-9.5809965,-1.1174936000000002,1.4604629999999998,-0.25246766,-0.08522116,-0.04261058,32.58,20.58,32.28
1553497895605,-9.584588,-1.0552443999999999,1.4802152,-0.19707392,-0.07030745599999999,-0.023435817999999997,32.64,20.34,32.28
1553497895626,-9.530719,-1.0899603,1.5508442,-0.14168017,-0.068176925,-0.012783173500000002,32.64,20.1,32.34
1553497895646,-9.52174,-1.0582372,1.6154876,-0.033023197000000004,-0.03195793,-0.02130529,32.7,19.74,32.34
1553497895665,-9.578603,-1.0684125,1.5676036,0.04474111,-0.018109497,-0.025566347000000003,32.7,19.62,32.34
1553497895685,-9.560047,-0.9780314,1.5394716999999998,0.14168017,-0.0053263223,-0.014913702,32.76,19.08,32.4
1553497895705,-9.588778,-0.87807345,1.4993688,0.20772657,-0.0010652645,-0.008522116,32.76,18.66,32.46
1553497895725,-9.563639,-0.9199719999999999,1.5101427,0.26631612,0.010652645,-0.010652645,32.76,18.24,32.46
