TimeStamp,Ax,Ay,Az,Gx,Gy,Gz,Mx,My,Mz
1553499863761,-9.136273,-3.1387985,0.45070848,-0.36964676,-0.010652645,-0.034088463,35.82,-3.66,28.8
1553499863781,-9.166202,-3.0998926,0.65421563,-0.5784385999999999,-0.03089267,-0.018109497,35.82,-3.42,28.92
1553499863800,-9.074622999999999,-3.1609447,0.641646,-0.71479243,-0.05219796,-0.008522116,35.82,-3.24,29.1
1553499863820,-9.000402000000001,-3.1244332999999997,0.45669398,-0.7978831000000001,-0.056459017,-0.011717908999999999,35.82,-3.06,29.28
1553499863840,-9.059061,-3.153762,0.3441665,-0.9129315999999998,-0.06498113,-0.012783173500000002,35.82,-2.94,29.28
1553499863860,-9.078215,-3.329736,0.17357962,-1.0120013,-0.094808534,0.015978966,35.82,-3.06,29.22
1553499863881,-9.065046,-3.5104983,0.24660277,-1.1270498,-0.12463594,0.018109497,35.76,-3.24,29.22
1553499863901,-8.986037,-3.5104983,0.11252748,-1.2474246999999998,-0.13315806,-0.010652645,35.76,-3.66,29.16
1553499863921,-8.981249,-3.4500446000000005,0.3274071,-1.3518206,-0.09374327,-0.017044231,35.7,-4.14,28.98
1553499863941,-8.942942,-3.5841199999999995,0.06464344,-1.4189322,-0.12783173,0.002130529,35.64,-4.68,28.8
1553499863961,-8.94773,-3.6349967000000003,0.044292733,-1.442368,-0.12250541,0.01917476,35.58,-5.34,28.5
1553499863981,-8.869919,-3.7175968,-0.0712275,-1.4349113000000002,-0.12144015,-0.012783173500000002,35.58,-6.0,28.2
1553499864001,-8.948329,-3.9270894999999997,-0.15263036,-1.4199976,-0.10013486,-0.051132694000000006,35.58,-6.84,27.9
1553499864020,-9.020155,-3.9252937000000006,-0.21966799999999997,-1.3603427,-0.08522116,-0.082025364,35.64,-7.32,27.78
1553499864041,-8.902839,-3.9719806,-0.12270284,-1.1941614,-0.06924219,-0.07563378,35.64,-8.28,27.48
1553499864060,-8.851962,-4.1060557,0.06883330000000001,-0.84368944,-0.036218993,-0.06924219,35.7,-9.12,27.12
1553499864081,-8.954913000000001,-4.3406877999999995,-0.050876785,-0.34194988,0.015978966,-0.05965481,35.82,-10.26,26.4
1553499864101,-8.896255,-4.4023385,-0.08918401599999999,-0.04261058,0.04580637,-0.06285059999999999,35.88,-10.98,25.98
1553499864125,-8.886678,-4.401141,-0.12210429,0.1587244,0.053263225,-0.07030745599999999,35.88,-11.64,25.56
1553499864142,-9.02614,-4.2622776,-0.17058687,0.23755397,0.058589544,-0.07776430000000001,35.88,-12.18,25.2
1553499864161,-9.2907,-4.048595,-0.23283611,0.34940675,0.07669904,-0.07456851,35.88,-12.6,24.9
1553499864181,-9.242217,-3.807978,-0.42676646,0.47404268,0.07989483,-0.06285059999999999,35.82,-12.78,24.54
1553499864201,-9.15842,-3.738546,-0.42197806,0.5432849000000001,0.08841695,-0.053263225,35.82,-12.84,24.36
1553499864221,-9.094974,-3.8187518,-0.50517654,0.5795039000000001,0.06924219,-0.068176925,35.76,-12.9,24.3
1553499864240,-9.11293,-3.6529531000000004,-0.45370123,0.5486112,0.098004326,-0.101200126,35.76,-12.9,24.36
1553499864260,-9.013571,-3.3758245000000002,-0.30346507,0.4314321,0.07243799,-0.10759171,35.7,-12.84,24.72
1553499864281,-9.093777000000001,-3.3303347000000003,-0.36930559999999996,0.32490566,0.051132694000000006,-0.094808534,35.7,-12.78,25.02
1553499864301,-9.041103999999999,-3.3740287,-0.61112,0.20240025,0.013848438000000001,-0.09374327,35.7,-12.66,25.26
1553499864321,-9.062652,-3.3925837999999997,-0.6368576,0.07563378,0.012783173500000002,-0.11824436,35.7,-12.48,25.5
1553499864341,-9.086594,-3.4284968,-0.6374562,-0.046871635999999994,0.01917476,-0.09161274,35.7,-12.24,25.8
1553499864361,-8.986636,-3.5721489999999996,-0.6075286999999999,-0.15446335,0.0053263223,-0.06604639400000001,35.7,-11.94,25.98
1553499864381,-8.877101,-3.618836,-0.5674258000000001,-0.27483824,0.0,-0.08735169,35.7,-11.64,26.16
1553499864402,-8.886678,-3.7702692000000004,-0.34476504,-0.3898868,0.0053263223,-0.082025364,35.7,-11.4,26.16
1553499864421,-9.004593,-3.9977183,-0.16519992,-0.41119209999999995,0.026631612000000002,-0.06391586,35.76,-11.16,26.16
1553499864441,-9.036316000000001,-4.1102457,-0.17776948,-0.36645097,0.004261058,-0.05006743,35.76,-10.98,26.16
1553499864460,-9.176376,-3.8821980000000003,-0.2693477,-0.23968449999999997,0.012783173500000002,-0.07243799,35.82,-10.8,26.16
1553499864480,-9.196128999999999,-3.8229415,-0.29448682,-0.060720075,0.02876214,-0.07243799,35.82,-10.74,26.16
1553499864501,-9.15423,-3.8899790999999997,-0.32800564,0.11717909,0.040480047000000005,-0.029827405,35.88,-10.8,26.16
1553499864520,-8.98484,-3.843891,-0.42556936,0.1949434,0.033023197000000004,-0.02876214,35.88,-10.86,26.1
1553499864540,-8.9758625,-3.7804443999999995,-0.33399114,0.18429075,0.035153727999999995,-0.043675844000000005,35.94,-10.92,25.98
1553499864560,-8.905831,-3.8043866000000004,-0.33159694,0.12783173,0.020240024,-0.041545313,35.94,-10.92,25.92
1553499864580,-8.882488,-3.8211459999999997,-0.28072014,0.05752428,0.017044231,-0.046871635999999994,35.94,-10.98,25.86
1553499864601,-8.870517999999999,-3.8013937000000007,-0.34356794,0.026631612000000002,0.007456851,-0.05219796,35.94,-11.04,25.8
1553499864621,-8.898649,-3.7852328,-0.45848963,0.054328485999999995,0.013848438000000001,-0.039414786,35.94,-11.1,25.74
1553499864641,-9.005191,-3.7241807000000002,-0.5117606,0.09374327,0.02130529,-0.036218993,35.88,-11.1,25.74
1553499864661,-9.069835000000001,-3.6415808,-0.51475334,0.11930962,0.025566347000000003,-0.04261058,35.88,-11.1,25.68
1553499864681,-9.051279,-3.6134489000000003,-0.5793968,0.1470065,0.008522116,-0.034088463,35.82,-11.1,25.68
1553499864701,-8.978855000000001,-3.6050692000000004,-0.6075286999999999,0.111852765,0.027696876000000002,-0.025566347000000003,35.82,-11.1,25.74
1553499864721,-9.015367,-3.726575,-0.47105917,0.034088463,0.022370555,-0.033023197000000004,35.82,-11.1,25.74
1553499864742,-9.059659,-3.7475242999999994,-0.34356794,-0.025566347000000003,0.0053263223,-0.04261058,35.76,-11.04,25.8
1553499864762,-8.985439,-3.7822402000000004,-0.32202014,-0.017044231,-0.011717908999999999,-0.041545313,35.76,-10.98,25.8
1553499864781,-8.918402,-3.9097313999999996,-0.3477578,0.027696876000000002,0.017044231,-0.034088463,35.76,-10.92,25.8
1553499864801,-9.001000999999999,-3.9636009,-0.29747957,0.060720075,0.05006743,-0.029827405,35.7,-10.92,25.8
1553499864821,-8.999206,-3.8696284,-0.32561144,0.08522116,0.04261058,-0.051132694000000006,35.64,-10.92,25.86
1553499864840,-9.041702,-3.7463272000000005,-0.36152446,0.12037488,0.03089267,-0.056459017,35.58,-10.86,25.92
1553499864862,-9.114127,-3.7936125,-0.48602295,0.13528858,0.023435817999999997,-0.039414786,35.52,-10.92,25.98
1553499864881,-9.089587,-3.8235402,-0.5734113000000001,0.12676647,0.004261058,-0.046871635999999994,35.46,-10.92,26.1
1553499864900,-9.117719000000001,-3.7116113,-0.47884035,0.07456851,0.011717908999999999,-0.051132694000000006,35.46,-10.98,26.22
1553499864920,-9.1033535,-3.6834792999999997,-0.34356794,0.03089267,-0.0031957934000000003,-0.035153727999999995,35.4,-11.04,26.34
1553499864941,-9.062054,-3.6589386,-0.39264908,0.022370555,-0.015978966,-0.043675844000000005,35.4,-11.04,26.46
1553499864960,-8.9998045,-3.6750996,-0.3824737,-0.023435817999999997,-0.024501082,-0.05006743,35.4,-11.04,26.58
1553499864980,-8.968081,-3.774459,-0.31543607,-0.082025364,-0.051132694000000006,-0.04474111,35.46,-10.98,26.7
1553499865000,-9.008183500000001,-3.9115269999999995,-0.39444473,-0.12250541,-0.051132694000000006,-0.04580637,35.46,-10.92,26.82
1553499865021,-9.020754,-4.031237,-0.43754035,-0.12250541,-0.03834952,-0.036218993,35.58,-10.8,26.88
1553499865041,-8.963891,-4.049194,-0.30526072,-0.025566347000000003,-0.037284255,-0.029827405,35.64,-10.74,26.88
1553499865061,-8.869919,-3.9205053,-0.39264908,0.111852765,-0.03834952,-0.07563378,35.64,-10.74,26.88
1553499865081,-8.987235,-3.8319199999999998,-0.40222588,0.1768339,-0.00958738,-0.07030745599999999,35.64,-10.68,26.88
1553499865101,-9.0476885,-3.9360676,-0.17657238,0.17789917,-0.0053263223,-0.02876214,35.64,-10.68,26.82
1553499865121,-8.843582000000001,-3.774459,-0.3854665,0.21624869,-0.020240024,-0.05006743,35.64,-10.68,26.82
1553499865142,-8.916606,-3.4781766000000003,-0.48362875,0.2034655,-0.007456851,-0.07563378,35.64,-10.74,26.82
1553499865162,-8.921992,-3.6044707000000002,-0.48542440000000003,0.18216023,-0.0010652645,-0.043675844000000005,35.64,-10.74,26.82
1553499865182,-8.885481,-3.7187938999999997,-0.6039374,0.14168017,-0.014913702,-0.03195793,35.7,-10.74,26.82
1553499865201,-9.039907000000001,-3.690662,-0.4818331,0.056459017,-0.017044231,-0.07882957,35.76,-10.68,26.82
1553499865221,-9.090784,-3.7379474999999998,-0.30885202,-0.024501082,-0.02130529,-0.07776430000000001,35.88,-10.62,26.76
1553499865241,-9.024344000000001,-3.9175123999999997,-0.17776948,-0.049002163,-0.027696876000000002,-0.05752428,35.94,-10.56,26.76
1553499865261,-9.060856,-3.9923312999999996,-0.06584055,-0.007456851,-0.02876214,-0.06285059999999999,36.06,-10.44,26.76
1553499865280,-8.992023,-4.006098000000001,-0.10833762599999999,0.09267801,-0.04580637,-0.068176925,36.12,-10.38,26.7
1553499865300,-8.94773,-4.021062000000001,-0.19213470000000002,0.21731395,-0.040480047000000005,-0.060720075,36.24,-10.26,26.7
1553499865321,-8.9363575,-4.0521864999999995,-0.28491,0.35792887,-0.037284255,-0.05219796,36.24,-10.2,26.64
1553499865340,-8.817246,-3.9983168,-0.37948096,0.4133226,-0.014913702,-0.06178534,36.12,-10.08,26.64
1553499865360,-8.876503,-3.8708254999999996,-0.31004912,0.40053943,0.013848438000000001,-0.07882957,36.0,-9.96,26.64
1553499865380,-8.890269,-3.7331589999999997,-0.30885202,0.38136467,0.008522116,-0.084155895,35.82,-9.78,26.7
1553499865401,-8.941146,-3.603872,-0.49021279999999995,0.29614353,-0.0031957934000000003,-0.09374327,35.7,-9.66,26.7
1553499865421,-9.081805000000001,-3.5889084,-0.29149407,0.13528858,0.013848438000000001,-0.07669904,35.64,-9.42,26.7
1553499865441,-9.051279,-3.7630866000000003,-0.22744916,-0.01917476,-0.013848438000000001,-0.047936900000000005,35.52,-9.18,26.7
1553499865461,-8.914211,-3.8331169999999997,-0.14784196,-0.10333065,-0.046871635999999994,-0.06391586,35.46,-8.88,26.7
1553499865481,-8.9124155,-3.7696705,-0.17118542,-0.10333065,-0.053263225,-0.098004326,35.4,-8.64,26.76
1553499865501,-8.9842415,-3.9695864000000003,0.08379706,-0.098004326,-0.026631612000000002,-0.08628642,35.46,-8.4,26.76
1553499865520,-8.943541,-4.207211,0.17178397,-0.060720075,-0.014913702,-0.046871635999999994,35.52,-8.16,26.7
1553499865540,-8.9758625,-4.1341877,0.012569559,-0.022370555,-0.013848438000000001,-0.07776430000000001,35.58,-8.1,26.76
1553499865562,-9.088389,-3.9989154,-0.089782566,0.0053263223,-0.0031957934000000003,-0.06391586,35.7,-8.04,26.82
1553499865582,-9.043498,-4.0066967,-0.05626374,0.06391586,0.007456851,-0.03195793,35.7,-8.04,26.82
1553499865602,-8.93935,-3.9121256,-0.15263036,0.10972224,0.004261058,-0.05219796,35.76,-8.04,26.94
1553499865622,-8.961497,-3.7972038,-0.18555063,0.08628642,0.011717908999999999,-0.054328485999999995,35.82,-8.04,27.0
1553499865642,-8.950723,-3.7822402000000004,-0.21128829999999998,0.051132694000000006,0.015978966,-0.03089267,35.82,-8.1,27.12
1553499865661,-8.953716,-3.879804,-0.18136078,-0.008522116,0.024501082,-0.02876214,35.82,-8.16,27.18
1553499865681,-8.849568,-3.8642415999999997,-0.17836803,-0.056459017,0.0063915867,-0.03834952,35.82,-8.16,27.18
1553499865701,-8.850166,-3.7241807000000002,-0.2172738,-0.101200126,-0.008522116,-0.056459017,35.82,-8.16,27.18
1553499865721,-8.907029,-3.7152026,-0.12389994,-0.128897,0.002130529,-0.04261058,35.82,-8.16,27.06
1553499865740,-8.93935,-3.8654387000000003,-0.1388637,-0.12996227,-0.004261058,-0.017044231,35.82,-8.16,27.0
1553499865760,-8.889072,-4.004901,-0.21787235,-0.1107875,-0.024501082,-0.029827405,35.82,-8.1,26.88
1553499865781,-8.940548,-3.8995559999999996,-0.34476504,-0.10759171,-0.025566347000000003,-0.07137272,35.76,-8.1,26.76
1553499865801,-8.999206,-3.9947255,-0.22625206,-0.08735169,-0.020240024,-0.05006743,35.7,-8.1,26.58
1553499865821,-8.913014,-3.9965212,-0.1328782,-0.03089267,-0.015978966,-0.047936900000000005,35.64,-8.1,26.46
1553499865841,-8.948329,-3.8989575,-0.110133275,0.008522116,-0.00958738,-0.058589544,35.58,-8.16,26.46
1553499865861,-8.891466000000001,-3.916914,-0.03172317,0.035153727999999995,-0.007456851,-0.041545313,35.52,-8.22,26.46
1553499865880,-8.833407000000001,-4.0282445,-0.089782566,0.027696876000000002,-0.002130529,-0.02876214,35.52,-8.34,26.46
1553499865900,-8.895657,-4.0420110000000005,-0.16400282,0.012783173500000002,0.010652645,-0.027696876000000002,35.52,-8.4,26.52
1553499865921,-9.00579,-3.9851487,-0.23343466,0.020240024,0.023435817999999997,-0.02876214,35.52,-8.46,26.52
1553499865940,-9.043498,-3.9941269999999998,-0.17417817,0.05006743,0.02130529,-0.010652645,35.58,-8.52,26.58
1553499865960,-8.959702,-3.9151182,-0.16759412,0.08628642,0.017044231,0.0053263223,35.58,-8.58,26.58
1553499865981,-8.963891,-3.8349125,-0.2693477,0.112918034,0.004261058,0.002130529,35.52,-8.58,26.64
1553499866002,-8.93576,-3.7433343,-0.38127659999999997,0.096939065,-0.002130529,0.002130529,35.52,-8.64,26.7
1553499866022,-8.914810000000001,-3.6768951000000003,-0.33159694,0.04580637,0.034088463,0.022370555,35.58,-8.58,26.82
1553499866041,-9.038112,-3.8043866000000004,-0.0053869537,-0.0063915867,0.05219796,0.06498113,35.52,-8.58,26.88
1553499866061,-8.980651,-3.855862,0.074220255,-0.04580637,0.033023197000000004,0.05965481,35.52,-8.52,26.94
1553499866081,-9.066842,-3.7906199000000003,-0.1388637,-0.08522116,0.002130529,0.039414786,35.52,-8.58,27.06
1553499866101,-9.038112,-3.788824,-0.33758244,-0.12144015,-0.007456851,0.046871635999999994,35.52,-8.58,27.06
1553499866121,-9.033921000000001,-3.9079356,-0.26156655,-0.16085494,-0.010652645,0.034088463,35.52,-8.58,27.12
1553499866142,-8.998607000000002,-3.8426937999999993,-0.30047232,-0.16724652,-0.037284255,-0.03195793,35.58,-8.58,27.12
1553499866160,-9.076419,-3.6828809000000002,-0.40880993,-0.15978967,-0.036218993,-0.05539375,35.64,-8.64,27.12
1553499866180,-9.07582,-3.702633,-0.4321534000000001,-0.14061491,-0.015978966,-0.040480047000000005,35.64,-8.64,27.06
1553499866201,-8.985439,-3.7840357000000004,-0.41778820000000005,-0.13954964,-0.011717908999999999,-0.026631612000000002,35.7,-8.7,27.0
1553499866220,-9.018958,-3.7511156000000003,-0.3393781,-0.17470337,-0.00958738,-0.041545313,35.76,-8.76,27.0
1553499866240,-9.013571,-3.7038300000000004,-0.32321724,-0.21198763,-0.02130529,-0.036218993,35.76,-8.76,26.94
1553499866261,-8.968679,-3.6320040000000002,-0.32441434,-0.25140239999999997,-0.02876214,-0.03089267,35.82,-8.88,27.0
1553499866281,-8.990228,-3.8235402,-0.19991584,-0.25140239999999997,-0.013848438000000001,-0.002130529,35.82,-9.0,27.0
1553499866301,-8.991425,-3.851672,-0.16639702,-0.21944448,-0.017044231,-0.022370555,35.82,-9.12,27.0
1553499866323,-8.966286,-3.8313212,-0.29747957,-0.17363810000000002,-0.014913702,-0.018109497,35.82,-9.36,27.0
1553499866341,-8.954314,-3.8241386,-0.4321534000000001,-0.12676647,-0.014913702,-0.0053263223,35.82,-9.6,26.88
1553499866361,-8.9758625,-3.7110126000000005,-0.44113165,-0.10972224,-0.0031957934000000003,-0.0063915867,35.82,-9.84,26.82
1553499866380,-9.045294,-3.7972038,-0.36990416,-0.111852765,-0.008522116,0.0063915867,35.82,-10.02,26.76
1553499866401,-9.024344000000001,-3.8007953000000003,-0.37229836,-0.13102753,-0.02876214,-0.0031957934000000003,35.82,-10.2,26.7
1553499866420,-9.090185,-3.8235402,-0.31064767,-0.16405073,-0.033023197000000004,-0.015978966,35.82,-10.38,26.58
1553499866440,-9.027936,-3.7804443999999995,-0.14185645,-0.1587244,-0.04474111,-0.015978966,35.82,-10.5,26.46
1553499866462,-8.989628999999999,-3.7110126000000005,-0.12330139,-0.13315806,-0.068176925,-0.047936900000000005,35.82,-10.62,26.4
1553499866482,-8.943541,-3.7110126000000005,-0.27593175,-0.098004326,-0.06285059999999999,-0.05965481,35.82,-10.62,26.4
1553499866501,-8.899846,-3.7804443999999995,-0.4890157,-0.06924219,-0.054328485999999995,-0.07989483,35.82,-10.62,26.4
1553499866521,-8.921394,-3.7995980000000005,-0.54767364,-0.068176925,-0.043675844000000005,-0.10013486,35.82,-10.68,26.4
1553499866541,-8.926781,-3.7870286,-0.59376204,-0.060720075,-0.04474111,-0.096939065,35.82,-10.74,26.4
1553499866561,-8.88608,-3.8019924,-0.5201403,-0.008522116,-0.05752428,-0.05752428,35.82,-10.86,26.4
1553499866583,-8.735244999999999,-3.8283286,-0.47644615,0.07989483,-0.05006743,-0.041545313,35.76,-10.92,26.4
1553499866601,-8.722675,-3.9097313999999996,-0.27952304,0.13848437,-0.034088463,-0.051132694000000006,35.76,-10.98,26.34
1553499866621,-8.816647999999999,-3.8815994,-0.19213470000000002,0.19600865,-0.02130529,-0.049002163,35.76,-11.1,26.34
1553499866641,-8.887277000000001,-3.916914,-0.30765492,0.26205507,0.010652645,-0.008522116,35.76,-11.16,26.34
1553499866660,-8.924387,-3.9695864000000003,-0.20649989,0.32597092,0.07669904,0.025566347000000003,35.82,-11.22,26.34
1553499866680,-9.2308445,-4.248511,-0.18255788,0.36964676,0.05219796,0.051132694000000006,35.82,-11.22,26.34
1553499866701,-9.224260000000001,-4.3604400000000005,-0.0664391,0.47404268,0.043675844000000005,0.05006743,35.88,-11.22,26.34
1553499866720,-9.162011,-4.19105,-0.20470424,0.628506,0.04261058,0.008522116,35.94,-11.16,26.28
1553499866740,-9.100361,-3.7642837,-0.023942016,0.76059884,0.10013486,-0.02130529,35.94,-11.04,26.28
1553499866761,-9.1033535,-3.5895068999999995,-0.20470424,0.8969527,0.07882957,-0.051132694000000006,36.0,-10.92,26.34
1553499866780,-9.071032,-3.7163997,-0.24839842,0.94488955,0.08735169,0.00958738,36.0,-10.5,26.34
1553499866800,-9.068039,-3.804985,-0.2184709,0.97045594,0.060720075,0.007456851,36.0,-10.14,26.4
1553499866820,-8.982447,-3.5170822,-0.10594343,0.9821738000000001,0.068176925,-0.06604639400000001,36.0,-9.78,26.46
1553499866840,-9.1255,-3.2507273999999997,0.0664391,0.9289106,0.047936900000000005,-0.112918034,35.94,-9.36,26.58
1553499866873,-9.03871,-3.323152,-0.013766658999999999,0.8404937,0.020240024,-0.07669904,35.94,-9.18,26.64
1553499866881,-8.914810000000001,-3.5206735,0.19093758,0.6114618,0.01917476,-0.04261058,35.88,-8.58,26.88
1553499866901,-8.871116,-3.6056678,0.16579847,0.41971418,0.03195793,-0.06498113,35.82,-8.04,27.06
1553499866921,-9.032724,-3.6403837,0.25737667,0.27590349999999997,0.07137272,-0.040480047000000005,35.82,-7.62,27.18
1553499866940,-9.097966,-3.7104141999999998,0.2861071,0.24074976,0.054328485999999995,-0.0031957934000000003,35.76,-7.38,27.36
1553499866960,-9.038112,-3.809175,0.27952304,0.33555830000000003,0.033023197000000004,0.0010652645,35.76,-7.08,27.54
1553499866981,-9.075222,-3.918111,0.22026655,0.51771855,0.03834952,-0.0063915867,35.76,-6.84,27.72
1553499867001,-9.086594,-3.942053,0.45848963,0.7797736,0.06711166,-0.029827405,35.76,-6.48,27.9
1553499867020,-9.109938,-3.867833,0.5686229,1.0396981,0.08735169,-0.08628642,35.76,-6.12,28.14
1553499867040,-9.149442,-3.7020345,0.5805939,1.2325108999999999,0.1107875,-0.07456851,35.76,-5.7,28.26
1553499867061,-9.036316000000001,-3.642778,0.5410896,1.2953615,0.14807177,-0.07563378,35.76,-5.34,28.38
1553499867080,-9.021951,-3.6092591,0.59256494,1.2474246999999998,0.16831179,-0.07563378,35.7,-4.86,28.56
1553499867102,-9.011775,-3.5781345,0.6380547,1.1302456,0.165116,-0.05752428,35.58,-4.2,28.74
1553499867120,-8.960898,-3.4518404,0.5847838000000001,0.96619487,0.1438107,-0.051132694000000006,35.52,-3.42,28.98
1553499867140,-8.944737,-3.3369186,0.51834464,0.7946873000000001,0.11824436,-0.06924219,35.4,-2.7,29.16
1553499867161,-8.98484,-3.152565,0.6596026,0.56245965,0.11611383,-0.060720075,35.28,-2.04,29.34
1553499867180,-8.996213000000001,-3.208829,0.45190558,0.3174488,0.07243799,-0.051132694000000006,35.22,-1.38,29.52
1553499867200,-9.069236,-3.2172085999999998,0.37289690000000003,0.16405073,0.07882957,-0.04580637,35.1,-0.84,29.76
1553499867220,-9.118317999999999,-3.2273839,0.36750996,0.013848438000000001,0.05006743,-0.05539375,34.98,-0.3,30.0
1553499867241,-9.091382000000001,-3.2130187,0.44113165,-0.043675844000000005,0.0053263223,-0.07137272,34.98,0.06,30.18
1553499867261,-9.016563,-3.245939,0.45669398,-0.05965481,-0.022370555,-0.080960095,34.92,0.3,30.3
1553499867281,-9.0476885,-3.429694,0.7032967,-0.111852765,-0.027696876000000002,-0.06285059999999999,34.86,0.48,30.36
1553499867300,-8.97287,-3.5697547999999997,0.8206126,-0.14061491,-0.043675844000000005,-0.05539375,34.86,0.6,30.42
1553499867320,-8.974665,-3.6445735,0.8158241999999999,-0.12783173,-0.027696876000000002,-0.06285059999999999,34.86,0.72,30.48
1553499867340,-8.936956,-3.5643678,0.86849666,-0.09374327,-0.0053263223,-0.06711166,34.8,0.84,30.48
1553499867361,-8.983044999999999,-3.6595372999999998,0.7152678000000001,-0.033023197000000004,0.0,-0.07030745599999999,34.8,0.96,30.48
1553499867381,-9.078215,-3.6326025,0.7074866,0.0,0.026631612000000002,-0.06178534,34.74,1.02,30.48
1553499867401,-9.1590185,-3.6080620000000003,0.7990648,0.02130529,0.034088463,-0.047936900000000005,34.74,1.02,30.48
1553499867420,-9.132683,-3.7122097000000003,0.770933,0.054328485999999995,0.039414786,0.002130529,34.74,0.96,30.48
1553499867440,-9.140464,-3.6409822,0.8858546,0.10013486,0.04474111,0.008522116,34.74,0.96,30.54
1553499867461,-9.122507,-3.5152867,0.7230489,0.11717909,0.029827405,-0.022370555,34.8,0.9,30.6
1553499867480,-9.220071,-3.37762,0.6572084,0.058589544,0.02876214,0.011717908999999999,34.8,0.84,30.66
1553499867500,-9.155427,-3.7840357000000004,0.5009867,-0.04474111,0.0010652645,0.112918034,34.8,0.78,30.72
1553499867520,-9.139266000000001,-3.8833952000000003,0.54887074,-0.10013486,-0.02876214,0.10333065,34.8,0.72,30.72
1553499867541,-9.002797,-3.3405099999999996,0.7038953,-0.03195793,0.015978966,-0.03834952,34.8,0.72,30.78
1553499867561,-9.088988,-2.9370868,0.82599956,0.07669904,0.0010652645,-0.07456851,34.8,0.72,30.78
1553499867580,-9.053674,-3.1058779999999997,0.58657944,0.11824436,-0.00958738,-0.01917476,34.74,0.72,30.78
1553499867601,-8.935161,-3.3883939,0.41599256,-0.007456851,-0.06285059999999999,-0.020240024,34.74,0.72,30.78
1553499867623,-8.740632000000002,-3.4919431000000003,0.44951138,-0.12570119999999999,-0.07350325,-0.07243799,34.74,0.72,30.78
1553499867641,-8.664616,-3.6008794,0.80086046,-0.21518342,-0.11504856,-0.12996227,34.74,0.72,30.72
1553499867660,-8.77834,-3.5996822999999996,0.7781156,-0.25033715,-0.09267801,-0.10013486,34.68,0.78,30.72
1553499867682,-8.959103,-3.852869,0.207697,-0.30466563,-0.07989483,-0.06391586,34.68,0.78,30.66
1553499867702,-9.171588,-3.6194344,0.49559975,-0.3685815,0.06711166,-0.096939065,34.62,0.84,30.66
1553499867722,-9.311649000000001,-3.685275,0.86969376,-0.3653857,0.053263225,-0.02130529,34.62,0.84,30.6
1553499867741,-9.137471000000001,-3.8905778,0.8571242,-0.23648871,0.0063915867,0.056459017,34.62,0.84,30.54
1553499867761,-9.022549,-3.7714663,0.78170687,-0.06391586,0.017044231,-0.02130529,34.56,0.78,30.54
1553499867781,-9.205706,-3.4811692,0.8331822,0.11930962,0.053263225,-0.058589544,34.56,0.72,30.48
1553499867801,-9.171588,-3.5541922999999995,0.6973111999999999,0.21092236,0.053263225,0.00958738,34.56,0.66,30.48
1553499867821,-9.1255,-3.6008794,0.5626374,0.15978967,0.043675844000000005,-0.0031957934000000003,34.56,0.6,30.42
1553499867841,-9.288305000000001,-3.4344822999999995,0.6452374,0.06178534,-0.002130529,-0.05006743,34.56,0.54,30.42
1553499867860,-9.235633,-3.3985693,0.56443304,0.022370555,-0.05006743,-0.026631612000000002,34.62,0.48,30.48
1553499867880,-9.078813,-3.4733882000000005,0.61171854,0.017044231,-0.05539375,-0.010652645,34.62,0.36,30.54
1553499867900,-8.987235,-3.532046,0.6823475,-0.0010652645,-0.040480047000000005,-0.012783173500000002,34.62,0.3,30.6
1553499867921,-9.008183500000001,-3.5649664,0.83018947,-0.00958738,-0.008522116,-0.013848438000000001,34.62,0.3,30.66
1553499867941,-9.021951,-3.5577837999999997,0.7428011,0.023435817999999997,-0.018109497,-0.015978966,34.62,0.3,30.72
1553499867961,-9.021951,-3.4518404,0.49799395,0.05539375,-0.04474111,-0.033023197000000004,34.62,0.3,30.78
1553499867980,-9.033921000000001,-3.3889925,0.3657143,0.054328485999999995,-0.04474111,-0.05006743,34.62,0.24,30.78
1553499868001,-9.004593,-3.3800142,0.31902736,-0.0010652645,-0.035153727999999995,-0.053263225,34.56,0.18,30.84
1553499868020,-9.0237465,-3.4129345,0.5129577000000001,-0.060720075,-0.026631612000000002,-0.049002163,34.56,0.12,30.78
1553499868040,-9.005191,-3.3842041,0.7146691999999999,-0.113983296,-0.022370555,-0.049002163,34.5,0.12,30.72
1553499868061,-8.933365,-3.4410665000000003,0.58119243,-0.12570119999999999,-0.05219796,-0.053263225,34.5,0.06,30.66
1553499868080,-8.911219000000001,-3.465607,0.6338649000000001,-0.12783173,-0.04261058,-0.05006743,34.5,-0.06,30.6
1553499868100,-8.945934,-3.5344403,0.6380547,-0.10439592,-0.029827405,-0.051132694000000006,34.56,-0.12,30.54
1553499868121,-8.896853,-3.6050692000000004,0.61890113,-0.098004326,-0.017044231,-0.053263225,34.56,-0.24,30.54
1553499868140,-8.977658,-3.54282,0.6619968,-0.10972224,0.0010652645,-0.06604639400000001,34.62,-0.3,30.48
1553499868163,-9.072827,-3.5272577000000003,0.664391,-0.12996227,-0.00958738,-0.054328485999999995,34.68,-0.36,30.48
1553499868182,-9.170391,-3.5236663999999998,0.6799533,-0.1438107,-0.014913702,-0.040480047000000005,34.74,-0.36,30.42
1553499868202,-9.203311,-3.4763808,0.6344634,-0.11930962,-0.018109497,-0.034088463,34.8,-0.42,30.36
1553499868222,-9.144653,-3.4530375,0.56203884,-0.07243799,0.0010652645,-0.020240024,34.86,-0.42,30.3
1553499868241,-9.062652,-3.493739,0.5279215,-0.023435817999999997,0.014913702,-0.010652645,34.92,-0.42,30.18
1553499868261,-9.036914,-3.5679589999999997,0.5057751,-0.025566347000000003,0.0031957934000000003,0.0,34.92,-0.42,30.12
1553499868281,-8.981249,-3.6254199000000003,0.4758476,-0.07030745599999999,-0.004261058,-0.015978966,34.92,-0.42,30.06
1553499868300,-8.978855000000001,-3.6254199000000003,0.65421563,-0.10865697,-0.007456851,-0.026631612000000002,34.92,-0.42,29.94
1553499868320,-8.981848,-3.6391866000000004,0.6655880999999999,-0.099069595,-0.013848438000000001,-0.029827405,34.92,-0.42,29.88
1553499868341,-9.035119,-3.6505589999999994,0.63087213,-0.07137272,-0.018109497,-0.039414786,34.92,-0.48,29.88
1553499868361,-8.994417,-3.6152446000000005,0.705691,-0.002130529,-0.02130529,-0.046871635999999994,34.92,-0.48,29.88
1553499868381,-9.0237465,-3.5847184999999997,0.65660983,0.07669904,-0.00958738,-0.058589544,34.92,-0.54,29.88
1553499868400,-9.043498,-3.5643678,0.56922144,0.08948222,-0.0031957934000000003,-0.05539375,34.92,-0.6,29.94
1553499868420,-9.054871,-3.566762,0.51116204,0.06178534,0.010652645,-0.047936900000000005,34.92,-0.66,30.06
1553499868442,-9.173983,-3.5422212999999996,0.5093664000000001,0.041545313,-0.0063915867,-0.037284255,34.92,-0.78,30.12
1553499868460,-9.115923,-3.5314474000000002,0.5279215,0.03089267,-0.0053263223,-0.034088463,34.86,-0.84,30.18
1553499868481,-9.102755,-3.5404258,0.5363011999999999,0.035153727999999995,-0.03195793,-0.04261058,34.86,-0.84,30.24
1553499868500,-9.012972,-3.4548330000000003,0.6775591,0.03834952,-0.011717908999999999,-0.04474111,34.86,-0.9,30.36
1553499868520,-9.054273,-3.5051112,0.7757214,0.035153727999999995,-0.007456851,-0.049002163,34.8,-0.96,30.42
1553499868541,-9.045294,-3.4697970000000002,0.60453594,0.02876214,-0.002130529,-0.05006743,34.74,-1.02,30.48
1553499868561,-9.072827,-3.4793737,0.4321534000000001,0.004261058,-0.022370555,-0.060720075,34.74,-1.02,30.54
1553499868580,-9.096169999999999,-3.5709519999999997,0.39085343,-0.02130529,-0.022370555,-0.05752428,34.68,-1.02,30.54
1553499868600,-9.02614,-3.7008373999999997,0.52073884,-0.046871635999999994,-0.0010652645,-0.02876214,34.62,-1.02,30.54
1553499868620,-8.999206,-3.5631707,0.5470751,-0.054328485999999995,-0.0031957934000000003,-0.047936900000000005,34.62,-1.08,30.54
1553499868641,-9.0315275,-3.515885,0.54288524,-0.053263225,-0.00958738,-0.047936900000000005,34.62,-1.08,30.54
1553499868661,-9.036914,-3.5685577000000004,0.46148238,-0.05965481,-0.011717908999999999,-0.03195793,34.62,-1.08,30.48
1553499868681,-9.157822,-3.5841199999999995,0.74639237,-0.080960095,-0.002130529,-0.040480047000000005,34.68,-1.02,30.48
1553499868702,-8.982447,-3.5883097999999998,0.5955577,-0.036218993,-0.040480047000000005,-0.049002163,34.74,-1.02,30.48
1553499868720,-9.006389,-3.5194763999999994,0.5518635000000001,-0.020240024,-0.039414786,-0.05752428,34.8,-1.02,30.48
1553499868742,-9.0842,-3.6242227999999996,0.61411273,-0.0010652645,-0.033023197000000004,-0.056459017,34.92,-0.96,30.48
1553499868761,-9.098564999999999,-3.6511576,0.59974754,-0.004261058,-0.041545313,-0.060720075,34.98,-0.96,30.42
1553499868781,-9.063849000000001,-3.5715504,0.58777654,-0.012783173500000002,-0.034088463,-0.06498113,35.1,-0.96,30.42
1553499868801,-8.979453,-3.5446155,0.6584055,0.0053263223,-0.027696876000000002,-0.053263225,35.1,-0.96,30.42
1553499868821,-9.008183500000001,-3.5709519999999997,0.7254431,0.05752428,-0.026631612000000002,-0.040480047000000005,35.16,-0.96,30.36
1553499868841,-9.032724,-3.5625722,0.6356605,0.07137272,-0.024501082,-0.041545313,35.16,-0.96,30.36
1553499868861,-9.048286000000001,-3.5464113,0.5374983,0.06498113,-0.018109497,-0.041545313,35.1,-0.96,30.36
1553499868881,-9.072827,-3.5535938999999996,0.47884035,0.022370555,-0.018109497,-0.040480047000000005,35.04,-1.02,30.36
1553499868900,-9.029732000000001,-3.6086605000000005,0.5991489999999999,-0.008522116,-0.022370555,-0.039414786,35.04,-1.02,30.3
1553499868920,-8.983644,-3.5607765,0.6859388000000001,-0.0031957934000000003,-0.029827405,-0.051132694000000006,35.04,-1.02,30.24
1553499868941,-8.965088,-3.5583823,0.6955156,0.022370555,-0.024501082,-0.06285059999999999,34.98,-1.02,30.18
1553499868961,-8.985439,-3.6206315000000004,0.6452374,0.03195793,-0.023435817999999997,-0.05965481,34.98,-1.02,30.12
1553499868981,-8.926183,-3.6667199999999998,0.61890113,0.034088463,-0.015978966,-0.05965481,34.92,-1.02,30.0
1553499869001,-8.968679,-3.7104141999999998,0.7140707,0.046871635999999994,0.007456851,-0.060720075,34.92,-1.02,29.94
1553499869021,-8.971074,-3.643975,0.8475474000000001,0.07989483,0.020240024,-0.060720075,34.92,-1.02,29.88
1553499869040,-8.993219999999999,-3.6559459999999997,0.6931214,0.11717909,0.010652645,-0.041545313,34.92,-1.02,29.82
1553499869060,-8.981848,-3.6062663,0.54408234,0.13741912,0.008522116,-0.036218993,34.92,-0.96,29.76
1553499869081,-9.094974,-3.4865562999999993,0.45549688,0.13422333,-0.012783173500000002,-0.068176925,34.86,-0.9,29.76
1553499869100,-9.177572999999999,-3.3955764999999998,0.4309563,0.10546118,-0.010652645,-0.06498113,34.92,-0.78,29.82
1553499869120,-9.152434,-3.4392707000000002,0.37588966,0.04474111,-0.013848438000000001,-0.05006743,34.92,-0.66,29.82
1553499869141,-9.144653,-3.4572272000000006,0.57879823,-0.03834952,0.002130529,-0.03834952,34.92,-0.6,29.82
1553499869161,-9.107543,-3.5679589999999997,0.75836337,-0.05965481,-0.007456851,-0.034088463,34.92,-0.48,29.88
1553499869180,-9.078215,-3.6703112,0.7990648,-0.046871635999999994,-0.004261058,-0.03834952,34.92,-0.42,29.88
1553499869200,-9.239224,-3.6900635000000004,0.79966336,-0.036218993,0.02876214,-0.035153727999999995,34.86,-0.36,29.88
1553499869221,-9.752182000000001,-3.9067385000000003,0.91099375,-0.033023197000000004,0.037284255,-0.022370555,34.86,-0.3,29.94
1553499869241,-10.234015,-3.9779660000000003,0.79966336,0.002130529,0.035153727999999995,-0.011717908999999999,34.8,-0.24,29.94
1553499869261,-10.189722,-4.140772,0.8415619000000001,0.023435817999999997,-0.027696876000000002,-0.04580637,34.8,-0.24,30.0
1553499869281,-10.033501,-4.204817,0.9379284999999999,0.05006743,-0.14168017,-0.096939065,34.74,-0.3,30.06
1553499869300,-9.51336,-4.2760444,1.0462662,0.03195793,-0.24074976,-0.12570119999999999,34.74,-0.3,30.06
1553499869321,-9.101558,-4.160524,1.3263878,-0.014913702,-0.28868666,-0.12037488,34.74,-0.36,30.06
1553499869342,-8.792705999999999,-3.8672342000000004,1.376666,0.084155895,-0.330232,-0.113983296,34.74,-0.42,30.0
1553499869361,-8.779537,-3.8193502,1.2814964,0.22050974,-0.32277513,-0.12144015,34.74,-0.42,30.0
1553499869380,-8.616732,-3.803788,0.9648633,0.37390783,-0.2908172,-0.12357068,34.86,-0.48,29.94
1553499869401,-8.536526,-3.7942111000000005,0.86610246,0.47936899999999993,-0.21944448,-0.080960095,34.98,-0.54,29.82
1553499869420,-8.392874,-3.5631707,0.87328506,0.50813115,-0.17257284,-0.049002163,35.04,-0.6,29.76
1553499869440,-8.505402,-3.3937809999999997,0.88046765,0.51665324,-0.1470065,-0.029827405,35.1,-0.6,29.7
1553499869461,-8.5862055,-3.2453402999999996,0.95229375,0.5187838,-0.128897,0.011717908999999999,35.22,-0.42,29.58
1553499869481,-8.689157000000002,-3.1950622,0.9103952,0.52411014,-0.10652645,0.017044231,35.34,-0.12,29.52
1553499869500,-8.678981,-3.1405939999999997,0.8948328999999999,0.49215218,-0.098004326,0.010652645,35.46,0.18,29.4
1553499869521,-8.504802999999999,-3.1202433,1.0079589,0.3898868,-0.068176925,0.014913702,35.52,0.48,29.34
1553499869542,-8.391677,-3.2190042,1.1234791000000002,0.23968449999999997,-0.04580637,0.011717908999999999,35.58,0.78,29.28
1553499869560,-8.372523,-3.2387563999999998,1.2437878,0.14913702,-0.020240024,-0.01917476,35.64,1.08,29.22
1553499869580,-8.494628,-3.1316159,1.2533646,0.12357068,-0.0063915867,-0.046871635999999994,35.64,1.38,29.22
1553499869601,-8.683769,-3.1238346000000003,1.0582372,0.113983296,-0.0053263223,-0.049002163,35.64,1.62,29.16
1553499869621,-8.738836000000001,-3.2411506,1.1474211,0.07137272,-0.010652645,-0.04474111,35.64,1.74,29.16
1553499869640,-8.798691,-3.3482912000000002,1.3030443,0.015978966,0.0031957934000000003,-0.051132694000000006,35.64,1.74,29.1
1553499869660,-8.893262,-3.3219550000000004,1.4754268,-0.04261058,0.03195793,-0.06178534,35.64,1.74,29.1
1553499869680,-8.989628999999999,-3.3351230000000003,1.6490063999999998,-0.07563378,0.04580637,-0.046871635999999994,35.64,1.8,29.1
1553499869701,-8.848969,-3.5009214999999996,1.5741876000000001,-0.056459017,0.041545313,-0.014913702,35.64,1.8,29.1
1553499869720,-8.740632000000002,-3.6128504,1.4838065,0.007456851,0.05965481,-0.01917476,35.7,1.86,29.1
1553499869740,-8.809465,-3.4703953000000003,1.4670471,0.12676647,0.043675844000000005,-0.035153727999999995,35.7,1.86,29.1
1553499869761,-8.866926,-3.4147300000000005,1.270124,0.21518342,-0.01917476,-0.008522116,35.76,1.92,29.16
1553499869781,-8.942942,-3.3010056000000003,1.1408371000000002,0.23968449999999997,0.0063915867,0.002130529,35.82,1.98,29.16
1553499869801,-9.175778,-3.3039982000000006,1.0229226,0.16298546,0.02876214,0.0063915867,35.82,2.04,29.1
1553499869821,-9.35235,-3.2208,1.0426749,0.0063915867,0.039414786,0.034088463,35.76,2.1,29.16
1553499869841,-9.396044999999999,-3.210026,1.2132617,-0.15552860000000002,0.027696876000000002,0.05219796,35.82,2.16,29.16
1553499869860,-9.219472,-3.490746,1.2653356000000002,-0.25992453,0.013848438000000001,0.03834952,35.76,2.16,29.22
1553499869880,-8.960898,-3.7259765,1.5664065,-0.35579833,0.033023197000000004,0.0031957934000000003,35.76,2.22,29.28
1553499869901,-8.72507,-3.9600096,1.6388310000000001,-0.39840892,0.03195793,-0.008522116,35.7,2.22,29.28
1553499869921,-8.608353,-3.8720226,1.8363526999999997,-0.36751625,0.025566347000000003,-0.020240024,35.64,2.22,29.34
1553499869941,-8.556877,-3.7098155,1.8770541,-0.21624869,0.012783173500000002,-0.04261058,35.64,2.16,29.4
1553499869961,-8.627506,-3.6290112,1.7675193999999999,-0.0031957934000000003,0.020240024,-0.039414786,35.58,2.1,29.4
1553499869980,-8.668207,-3.6176388,1.5388732,0.17363810000000002,0.051132694000000006,-0.024501082,35.58,2.04,29.4
1553499870000,-8.962694,-3.394978,1.328782,0.27803403,0.06391586,-0.034088463,35.52,1.98,29.4
1553499870021,-9.444528,-3.1519666,1.0684125,0.33981937,0.024501082,-0.04261058,35.52,1.86,29.4
1553499870040,-9.3738985,-3.1076740000000003,0.83976626,0.31957933,-0.033023197000000004,-0.04474111,35.52,1.8,29.4
1553499870060,-9.085996000000002,-3.3393127999999996,1.009156,0.12357068,-0.013848438000000001,-0.037284255,35.52,1.74,29.34
1553499870082,-8.903438000000001,-3.4045547999999997,1.532289,-0.08948222,0.02130529,-0.049002163,35.52,1.68,29.34
1553499870101,-8.717887,-3.470994,1.7316063999999998,-0.18855181,0.026631612000000002,-0.04261058,35.52,1.68,29.34
1553499870121,-8.726267,-3.4075474999999997,1.7758990000000001,-0.15978967,0.02876214,-0.046871635999999994,35.52,1.68,29.34
1553499870141,-8.801085,-3.4320881,1.6041151000000002,-0.10546118,0.03834952,-0.053263225,35.52,1.74,29.34
1553499870161,-8.825626,-3.5936968,1.3377602,-0.026631612000000002,0.041545313,-0.05006743,35.52,1.8,29.34
1553499870181,-8.885481,-3.3806129,0.9792285,0.08841695,0.03089267,-0.09054748,35.52,1.8,29.4
1553499870201,-9.003395,-3.1842883,0.8391677,0.1470065,0.03834952,-0.080960095,35.58,1.86,29.4
1553499870221,-9.179967999999999,-3.09271,0.86131406,0.16192019,0.05219796,-0.024501082,35.64,1.92,29.4
1553499870240,-9.23264,-3.1806970000000003,0.9283517,0.12357068,0.04261058,-0.014913702,35.64,1.98,29.4
1553499870261,-9.291298,-3.210026,1.0181341999999998,0.014913702,0.03834952,-0.029827405,35.7,1.98,29.46
1553499870282,-9.128492,-3.3393127999999996,1.3952209999999998,-0.18429075,0.03834952,-0.036218993,35.7,1.98,29.46
1553499870300,-9.030331,-3.5194763999999994,1.5233108,-0.2545982,0.036218993,-0.036218993,35.64,1.98,29.52
1553499870321,-8.901641999999999,-3.6272156000000004,1.6262615,-0.27483824,0.018109497,-0.058589544,35.58,1.86,29.58
1553499870340,-8.978256,-3.6619315,1.4383167,-0.22370553,-0.02130529,-0.07030745599999999,35.52,1.74,29.58
1553499870360,-8.940548,-3.6379894999999998,1.1474211,-0.09267801,-0.015978966,-0.054328485999999995,35.4,1.56,29.64
1553499870380,-8.941146,-3.5661635,1.2282255,0.10759171,-0.007456851,-0.06285059999999999,35.34,1.26,29.76
1553499870400,-8.945934,-3.323152,1.1204863999999999,0.20879184,0.002130529,-0.07243799,35.28,1.02,29.82
1553499870420,-9.046491,-3.157952,0.9139864999999999,0.22583607,0.010652645,-0.03834952,35.16,0.72,29.82
1553499870441,-9.074622999999999,-3.3153707999999997,0.79128367,0.15020229,0.039414786,0.010652645,35.1,0.48,29.88
1553499870460,-9.202713000000001,-3.2609026,1.079785,0.047936900000000005,0.06178534,-0.004261058,35.1,0.24,29.88
1553499870481,-9.082403999999999,-3.2423477000000003,1.0881646999999999,-0.07669904,0.036218993,-0.02130529,35.04,0.06,29.88
1553499870500,-9.073426,-3.2944214,1.2689268999999999,-0.17470337,0.025566347000000003,-0.0053263223,34.98,-0.06,29.88
1553499870521,-8.981848,-3.520075,1.3371617,-0.221575,-0.0031957934000000003,-0.023435817999999997,34.92,-0.12,29.88
1553499870540,-9.010578,-3.6433763999999997,1.4036007,-0.23329292,-0.024501082,-0.040480047000000005,34.86,-0.12,29.88
1553499870561,-9.058461999999999,-3.7301662,1.3850456,-0.2066613,-0.037284255,-0.04261058,34.8,-0.12,29.88
1553499870581,-9.093777000000001,-3.7732617999999993,1.3467385,-0.11930962,-0.041545313,-0.051132694000000006,34.74,-0.12,29.88
1553499870600,-9.095572,-3.74094,1.5358804,0.008522116,-0.0010652645,-0.05965481,34.74,-0.12,29.88
1553499870621,-8.961497,-3.6780925000000004,1.3628993,0.1587244,-0.017044231,-0.07137272,34.68,-0.12,29.88
1553499870641,-9.061455,-3.3997664,1.2521674999999999,0.23222765,-0.013848438000000001,-0.082025364,34.74,-0.12,29.88
1553499870660,-9.050680999999999,-3.2555158,1.1372458,0.22370553,-0.020240024,-0.06924219,34.74,-0.12,29.88
1553499870681,-9.000402000000001,-3.198055,1.0408791,0.16618125,-0.027696876000000002,-0.06391586,34.8,-0.06,29.88
1553499870701,-8.90643,-3.241749,0.9624690999999999,0.07030745599999999,-0.025566347000000003,-0.06711166,34.86,0.0,29.88
1553499870720,-8.793304,-3.3237504999999996,0.90979666,-0.029827405,-0.018109497,-0.049002163,34.98,0.18,29.82
1553499870740,-8.744822000000001,-3.4332852,0.8822633,-0.08522116,0.0,-0.041545313,35.04,0.48,29.82
1553499870761,-8.782531,-3.4853592000000004,1.0708067,-0.09374327,0.012783173500000002,-0.04580637,35.16,0.78,29.76
1553499870781,-8.799889,-3.5685577000000004,1.1941081,-0.07776430000000001,0.026631612000000002,-0.041545313,35.22,1.02,29.76
1553499870801,-9.03871,-3.5619736000000004,1.3868413,-0.047936900000000005,0.041545313,-0.041545313,35.28,1.32,29.7
1553499870820,-9.157223,-3.3854012000000004,1.3730746999999999,-0.0010652645,0.027696876000000002,-0.05006743,35.34,1.56,29.7
1553499870842,-9.213486999999999,-3.317765,1.328782,0.024501082,0.022370555,-0.047936900000000005,35.34,1.74,29.7
1553499870860,-9.113529,-3.4057519999999997,1.30484,0.002130529,0.027696876000000002,-0.03195793,35.34,1.86,29.7
1553499870880,-8.979453,-3.6343982000000006,1.2545617,-0.04474111,0.015978966,-0.03195793,35.28,1.98,29.7
1553499870901,-8.909423,-3.7247794,1.2126632,-0.05965481,0.015978966,-0.05006743,35.28,1.98,29.76
1553499870921,-8.950125,-3.6194344,0.95947635,-0.04474111,-0.041545313,-0.06285059999999999,35.28,1.92,29.76
1553499870941,-8.858546,-3.5003227999999997,1.043872,-0.007456851,0.011717908999999999,-0.06711166,35.22,1.92,29.82
1553499870961,-9.029133,-3.4697970000000002,1.4538790000000001,0.08841695,0.035153727999999995,-0.046871635999999994,35.22,1.92,29.82
1553499870980,-9.126099,-3.5146879999999996,1.5095441,0.19387813,0.020240024,-0.043675844000000005,35.22,1.92,29.88
1553499871000,-9.045294,-3.2872388,1.252766,0.22264028,-0.01917476,-0.08522116,35.28,1.98,29.88
1553499871021,-9.053075,-3.1184477999999998,1.1097125,0.10652645,-0.017044231,-0.07882957,35.28,2.1,29.88
1553499871040,-8.920795,-3.3093852999999998,1.1139023000000001,0.010652645,-0.018109497,-0.053263225,35.28,2.1,29.88
1553499871061,-8.91062,-3.3560722000000003,1.0522517,-0.11611383,-0.015978966,-0.07030745599999999,35.34,2.16,29.88
1553499871081,-8.931569,-3.3476925000000004,1.158195,-0.14168017,-0.007456851,-0.084155895,35.34,2.22,29.88
1553499871101,-8.935161,-3.4602199999999996,1.1953052,-0.12144015,-0.0031957934000000003,-0.05539375,35.34,2.28,29.82
1553499871120,-8.902241,-3.5404258,1.2378023,-0.07243799,0.0,-0.039414786,35.4,2.28,29.82
1553499871141,-8.9842415,-3.6200330000000003,0.9463082,0.0053263223,-0.015978966,-0.047936900000000005,35.4,2.28,29.88
1553499871161,-9.130288,-3.5936968,0.8475474000000001,0.0031957934000000003,-0.014913702,-0.04580637,35.4,2.34,29.88
1553499871181,-9.146449,-3.4763808,0.81881696,-0.03089267,-0.03089267,-0.04474111,35.4,2.34,29.88
1553499871200,-9.130288,-3.3925837999999997,0.97264445,-0.07669904,-0.024501082,-0.037284255,35.4,2.34,29.94
1553499871221,-9.081805000000001,-3.4578260000000003,1.1234791000000002,-0.10546118,-0.020240024,-0.025566347000000003,35.4,2.4,29.94
1553499871241,-9.113529,-3.5936968,1.2204443,-0.1438107,-0.014913702,-0.004261058,35.4,2.4,29.94
1553499871261,-9.024942999999999,-3.6014779000000003,1.228824,-0.14913702,-0.023435817999999997,-0.0031957934000000003,35.4,2.4,30.0
1553499871281,-9.000402000000001,-3.5853171,1.1659763,-0.13102753,-0.035153727999999995,-0.008522116,35.4,2.4,30.0
1553499871300,-8.853758000000001,-3.5936968,0.9828198,-0.10865697,-0.04580637,0.007456851,35.34,2.34,30.0
1553499871320,-8.928576,-3.5703532999999994,0.98102415,-0.098004326,-0.022370555,0.013848438000000001,35.34,2.28,30.06
1553499871341,-8.920795,-3.5535938999999996,0.98820674,-0.094808534,-0.0031957934000000003,0.007456851,35.34,2.22,30.06
1553499871360,-8.895058,-3.527856,0.8882488000000002,-0.10865697,0.026631612000000002,0.015978966,35.34,2.16,30.12
1553499871381,-9.0794115,-3.493739,1.0821792,-0.12996227,0.0,0.01917476,35.34,1.98,30.18
1553499871401,-8.872911,-3.4674027,1.0121487,-0.12144015,-0.03089267,0.0010652645,35.34,1.86,30.24
1553499871421,-8.867524000000001,-3.5248635000000004,1.0929531000000001,-0.1107875,-0.037284255,-0.013848438000000001,35.34,1.68,30.24
1553499871441,-8.921394,-3.6224272000000006,1.1432313,-0.10439592,-0.04580637,-0.029827405,35.34,1.56,30.18
1553499871461,-8.915408,-3.6182373,1.1360487,-0.10652645,-0.051132694000000006,-0.047936900000000005,35.34,1.38,30.12
1553499871481,-8.941146,-3.614646,1.1210848999999998,-0.094808534,-0.053263225,-0.05965481,35.34,1.26,30.0
1553499871500,-9.02614,-3.6601357000000005,1.0576386,-0.09374327,-0.051132694000000006,-0.06391586,35.34,1.14,29.88
1553499871520,-9.068638,-3.5571851999999997,1.0139444,-0.07243799,-0.03834952,-0.06924219,35.34,1.02,29.7
1553499871541,-9.061455,-3.5182792999999997,1.1216834999999998,-0.036218993,-0.022370555,-0.06178534,35.28,1.02,29.58
1553499871561,-9.0794115,-3.4314894999999996,1.1552023,0.027696876000000002,-0.02130529,-0.054328485999999995,35.34,1.02,29.46
1553499871581,-9.010578,-3.3800142,1.0941502,0.07456851,-0.015978966,-0.047936900000000005,35.34,1.02,29.34
1553499871601,-9.076419,-3.2986114,1.0875661,0.09161274,-0.012783173500000002,-0.040480047000000005,35.4,1.02,29.28
1553499871621,-9.029732000000001,-3.264494,1.0749966,0.07243799,-0.00958738,-0.018109497,35.4,1.02,29.28
1553499871641,-8.915408,-3.301604,0.96187055,0.018109497,-0.02130529,-0.0053263223,35.4,0.96,29.22
1553499871661,-8.883087,-3.3602622,1.0666169,-0.041545313,-0.027696876000000002,0.0010652645,35.4,0.96,29.28
1553499871680,-8.875904,-3.4596214,0.91697925,-0.049002163,-0.037284255,-0.0031957934000000003,35.4,0.96,29.28
1553499871701,-8.990228,-3.3692403,1.0103531,-0.054328485999999995,0.012783173500000002,-0.010652645,35.4,0.96,29.28
1553499871721,-9.098564999999999,-3.3794157999999994,1.1917138999999999,-0.047936900000000005,0.037284255,-0.004261058,35.4,1.02,29.28
1553499871741,-9.096169999999999,-3.441665,1.1360487,-0.04474111,0.046871635999999994,0.011717908999999999,35.4,1.02,29.34
1553499871761,-9.102755,-3.5535938999999996,1.2401965,-0.07137272,0.046871635999999994,0.017044231,35.4,1.02,29.34
1553499871781,-9.16261,-3.6912606,1.3347674999999999,-0.07350325,0.01917476,0.008522116,35.4,1.02,29.34
1553499871800,-9.03452,-3.5649664,1.0839748,-0.041545313,-0.010652645,-0.024501082,35.4,1.02,29.4
1553499871820,-9.078813,-3.4506433,0.9911995000000001,-0.03195793,-0.012783173500000002,-0.035153727999999995,35.46,1.02,29.46
1553499871841,-8.992621,-3.5296519,1.0342950999999998,-0.022370555,-0.0010652645,-0.023435817999999997,35.52,0.96,29.52
1553499871860,-8.9998045,-3.5104983,1.1408371000000002,-0.040480047000000005,0.017044231,-0.033023197000000004,35.58,0.96,29.58
1553499871880,-9.004593,-3.5835214,1.1522094999999999,-0.049002163,0.015978966,-0.020240024,35.64,0.9,29.58
1553499871901,-9.020155,-3.490746,1.1492168,-0.03834952,0.049002163,-0.015978966,35.58,0.84,29.58
1553499871921,-8.975264,-3.5452142,0.89303726,-0.02130529,0.00958738,-0.025566347000000003,35.58,0.78,29.58
1553499871940,-9.072227999999999,-3.4542346,0.81043726,-0.026631612000000002,0.0063915867,-0.029827405,35.58,0.72,29.64
1553499871960,-9.082403999999999,-3.4751837,0.91697925,-0.04261058,0.012783173500000002,-0.034088463,35.52,0.66,29.64
1553499871981,-9.066842,-3.4272997000000003,0.96426475,-0.035153727999999995,0.02130529,-0.027696876000000002,35.46,0.6,29.64
1553499872001,-8.98903,-3.359065,0.85532856,-0.015978966,0.015978966,-0.020240024,35.4,0.48,29.64
1553499872021,-8.977658,-3.3303347000000003,0.8822633,-0.025566347000000003,0.033023197000000004,-0.026631612000000002,35.34,0.36,29.7
1553499872041,-9.053674,-3.3638535000000003,1.0031705,-0.04580637,0.040480047000000005,-0.023435817999999997,35.34,0.3,29.7
1553499872061,-9.044097,-3.3907879999999997,1.1031284,-0.06391586,0.041545313,-0.017044231,35.28,0.24,29.7
1553499872081,-8.986636,-3.394978,1.0145429,-0.07456851,0.017044231,-0.012783173500000002,35.16,0.18,29.7
1553499872101,-8.958505,-3.4249055,1.0450690999999999,-0.060720075,0.020240024,-0.013848438000000001,35.1,0.06,29.7
1553499872121,-8.957906,-3.4638114,1.0899603,-0.04474111,0.008522116,-0.027696876000000002,35.04,0.0,29.7
1553499872140,-9.044097,-3.5075053999999994,0.98820674,-0.040480047000000005,-0.00958738,-0.043675844000000005,34.98,-0.06,29.7
1553499872160,-9.0429,-3.4901476000000002,0.9379284999999999,-0.041545313,-0.0031957934000000003,-0.04261058,34.86,-0.12,29.64
1553499872181,-8.960898,-3.5452142,0.9103952,-0.024501082,-0.007456851,-0.049002163,34.8,-0.12,29.64
1553499872201,-8.93576,-3.6505589999999994,0.78170687,-0.002130529,-0.008522116,-0.047936900000000005,34.74,-0.12,29.64
1553499872221,-9.024942999999999,-3.6445735,0.8834603999999999,0.033023197000000004,-0.007456851,-0.046871635999999994,34.8,-0.18,29.64
1553499872241,-9.000402000000001,-3.5434184,0.9528923,0.07350325,-0.002130529,-0.056459017,34.8,-0.18,29.64
1553499872260,-9.133281,-3.3967736000000004,1.0360907,0.1107875,0.008522116,-0.056459017,34.86,-0.18,29.64
1553499872280,-9.140464,-3.3321302000000004,0.90620536,0.111852765,0.014913702,-0.04474111,34.92,-0.24,29.64
1553499872300,-9.176975,-3.3722332,0.8283938,0.07456851,0.024501082,-0.029827405,35.04,-0.24,29.64
1553499872321,-9.16261,-3.4039562000000005,0.84694886,0.0031957934000000003,0.024501082,-0.01917476,35.1,-0.3,29.64
1553499872341,-9.022549,-3.489549,0.866701,-0.011717908999999999,0.013848438000000001,-0.023435817999999997,35.16,-0.3,29.64
1553499872361,-9.004593,-3.394978,0.8870517,0.0031957934000000003,0.004261058,-0.04474111,35.16,-0.36,29.7
1553499872380,-9.010578,-3.4129345,0.94690675,0.039414786,-0.004261058,-0.039414786,35.16,-0.42,29.7
1553499872400,-8.967483,-3.4302924,0.9367314,0.054328485999999995,-0.015978966,-0.03089267,35.16,-0.42,29.7
1553499872420,-8.919,-3.323152,0.8265981,0.04261058,-0.02130529,-0.041545313,35.1,-0.36,29.7
1553499872441,-8.976460000000001,-3.2734723,0.88046765,0.0031957934000000003,-0.007456851,-0.012783173500000002,35.1,-0.36,29.7
1553499872461,-9.060258000000001,-3.2740707000000002,0.9115923,-0.03195793,0.00958738,0.03089267,35.04,-0.36,29.64
1553499872480,-9.123704,-3.2974143,1.0564415,-0.033023197000000004,0.027696876000000002,0.054328485999999995,34.98,-0.42,29.64
1553499872501,-9.15423,-3.4045547999999997,1.1240777,0.0,0.024501082,0.06604639400000001,34.98,-0.48,29.64
1553499872521,-9.130887,-3.3530796,1.055843,0.040480047000000005,0.015978966,0.025566347000000003,34.86,-0.6,29.64
1553499872541,-9.110536,-3.2986114,0.9804255999999999,0.05965481,0.002130529,0.0053263223,34.86,-0.72,29.64
1553499872561,-9.077616,-3.2944214,0.9199719999999999,0.06924219,-0.014913702,0.004261058,34.86,-0.78,29.64
1553499872581,-9.06744,-3.3626563999999997,0.700304,0.05752428,-0.023435817999999997,-0.0063915867,34.92,-0.9,29.64
1553499872601,-9.124901,-3.453636,0.533907,-0.008522116,-0.041545313,-0.022370555,34.98,-1.14,29.64
1553499872620,-9.107543,-3.4219127,0.61770403,-0.02876214,-0.05539375,-0.040480047000000005,35.04,-1.2,29.64
1553499872641,-9.045893,-3.4314894999999996,0.9451110999999999,-0.012783173500000002,-0.047936900000000005,-0.07776430000000001,35.1,-1.26,29.64
1553499872661,-9.036914,-3.4063504,1.1450268999999997,0.04261058,-0.07350325,-0.112918034,35.22,-1.26,29.64
1553499872681,-9.00579,-3.2878375,1.0977415000000001,0.09587380000000001,-0.098004326,-0.14913702,35.28,-1.2,29.64
1553499872700,-8.951322,-3.3848026,1.1552023,0.09587380000000001,-0.05006743,-0.12250541,35.34,-1.08,29.64
1553499872720,-8.981249,-3.4703953000000003,1.4053963,0.09587380000000001,0.013848438000000001,-0.096939065,35.4,-0.96,29.64
1553499872740,-9.041103999999999,-3.5380316,1.2838906,0.10439592,0.007456851,-0.12250541,35.46,-0.84,29.58
1553499872764,-9.007586,-3.5709519999999997,1.0181341999999998,0.09374327,0.023435817999999997,-0.10333065,35.52,-0.66,29.58
1553499872780,-9.120711,-3.5517980000000002,0.9911995000000001,0.08841695,0.034088463,-0.09267801,35.58,-0.42,29.58
1553499872800,-9.108741,-3.5703532999999994,0.7727286,0.094808534,-0.0063915867,-0.08841695,35.58,-0.3,29.58
1553499872822,-9.1272955,-3.4691982000000006,0.64942724,0.111852765,-0.010652645,-0.05752428,35.64,-0.18,29.64
1553499872842,-9.112331,-3.5110967000000004,0.79966336,0.12570119999999999,0.013848438000000001,-0.01917476,35.7,-0.12,29.7
1553499872861,-9.169792,-3.5182792999999997,0.93493575,0.1587244,0.015978966,-0.008522116,35.7,0.0,29.76
1553499872881,-9.212888000000001,-3.4662056000000003,1.0205284,0.19281286,0.010652645,-0.01917476,35.64,0.12,29.82
1553499872901,-9.323022,-3.345897,1.13964,0.2066613,-0.011717908999999999,-0.029827405,35.58,0.24,29.94
1553499872921,-9.156025999999999,-3.3812113,1.1725603,0.23116238,0.002130529,-0.014913702,35.46,0.3,30.0
1553499872941,-9.113529,-3.2902317,1.1270704,0.25566345,0.008522116,-0.041545313,35.4,0.36,30.06
1553499872961,-9.077017,-3.2986114,1.1186907,0.20240025,-0.00958738,-0.060720075,35.34,0.42,30.12
1553499872981,-9.148245,-3.276465,1.1252748,0.101200126,-0.04474111,-0.07563378,35.28,0.48,30.12
1553499873000,-9.033323,-3.3740287,1.1701661,0.03195793,-0.080960095,-0.07243799,35.22,0.54,30.06
1553499873020,-8.970475,-3.5224693,1.282095,0.025566347000000003,-0.083090626,-0.084155895,35.22,0.66,30.06
1553499873041,-8.901641999999999,-3.4326867999999995,1.2988545,0.09267801,-0.08522116,-0.096939065,35.28,0.66,30.06
1553499873061,-8.853758000000001,-3.4087446000000003,1.3760674,0.20453078,-0.07669904,-0.08841695,35.28,0.72,30.06
1553499873081,-8.929175,-3.3045970000000002,1.4131776000000003,0.34514567,-0.13102753,-0.08522116,35.34,0.78,30.0
1553499873100,-8.838196,-3.3321302000000004,1.1456255,0.40906155,-0.13209279,-0.05752428,35.34,0.78,29.94
1553499873121,-8.763975,-3.5051112,1.1456255,0.45167214,-0.082025364,0.0031957934000000003,35.34,0.84,29.94
1553499873140,-8.6334915,-3.4195184999999997,0.9355343,0.42290998,-0.05219796,0.0031957934000000003,35.4,0.96,29.88
1553499873160,-8.555679,-3.2291796,1.0390834999999998,0.33449304,-0.014913702,-0.0031957934000000003,35.4,1.08,29.82
1553499873181,-8.570642999999999,-3.1627405,1.1414356,0.23435818,0.018109497,0.03195793,35.4,1.2,29.82
1553499873201,-8.644864,-3.1304187999999997,1.30484,0.14168017,0.06178534,0.05965481,35.4,1.38,29.76
1553499873220,-8.781932000000001,-3.1226375,1.2497733,0.012783173500000002,0.07350325,0.026631612000000002,35.46,1.56,29.7
1553499873241,-8.994417,-3.1489737,1.270124,-0.11717909,0.08628642,0.00958738,35.52,1.74,29.7
1553499873262,-9.182362,-3.2746694,1.270124,-0.21837921,0.06178534,0.014913702,35.58,2.04,29.7
1553499873280,-9.199121,-3.4332852,1.2844891999999999,-0.29933932,0.029827405,0.010652645,35.7,2.22,29.7
1553499873302,-9.289502,-3.4572272000000006,1.4778209999999998,-0.33555830000000003,0.018109497,0.0053263223,35.76,2.4,29.76
1553499873322,-9.258977,-3.4542346,1.4909891000000002,-0.32597092,-0.012783173500000002,-0.0053263223,35.76,2.58,29.7
1553499873342,-9.388862,-3.4165258,1.5227122,-0.2428803,0.007456851,-0.007456851,35.7,2.64,29.7
1553499873362,-9.263166,-3.3889925,1.483208,-0.094808534,0.00958738,-0.0031957934000000003,35.64,2.58,29.7
1553499873382,-9.253589999999999,-3.3500867,1.3970166000000002,0.05752428,-0.011717908999999999,-0.041545313,35.58,2.46,29.7
1553499873401,-9.266758,-3.288436,1.2910733,0.13209279,-0.02130529,-0.06498113,35.46,2.34,29.76
1553499873421,-9.146449,-3.2788591,1.3239936,0.14168017,-0.020240024,-0.054328485999999995,35.34,2.16,29.76
1553499873440,-9.033323,-3.1854854,1.3461398999999998,0.13315806,-0.012783173500000002,-0.06604639400000001,35.22,1.98,29.76
1553499873460,-9.063251,-3.0466216,1.2366052,0.12676647,-0.035153727999999995,-0.082025364,35.16,1.8,29.82
1553499873481,-9.062054,-2.9586349,1.1899183,0.1107875,-0.037284255,-0.07456851,35.1,1.74,29.82
1553499873500,-9.033921000000001,-3.0184898,1.1845313,0.11717909,-0.041545313,-0.09161274,35.1,1.68,29.88
1553499873520,-9.164406,-3.0855273999999997,0.7685388000000001,0.13422333,-0.10759171,-0.13741912,35.16,1.8,29.88
1553499873541,-9.111733000000001,-2.866458,1.091756,0.0063915867,0.01917476,-0.12996227,35.22,2.04,29.88
1553499873561,-9.123704,-3.0550013,1.2719196000000002,-0.096939065,-0.0010652645,-0.07456851,35.22,2.22,29.88
1553499873581,-9.027936,-3.2890346,1.2198458,-0.1470065,0.007456851,-0.039414786,35.22,2.34,29.88
1553499873601,-9.066243,-3.3686419,1.352724,-0.16405073,0.00958738,-0.06178534,35.28,2.58,29.94
1553499873623,-9.041103999999999,-3.4560301,1.3096284,-0.15020229,0.011717908999999999,-0.041545313,35.28,2.64,29.94
1553499873643,-8.885481,-3.5847184999999997,1.2958617000000001,-0.12250541,0.012783173500000002,-0.0010652645,35.28,2.7,29.94
1553499873661,-8.785523,-3.6553473,1.3180081,-0.082025364,0.017044231,-0.015978966,35.28,2.76,29.88
1553499873682,-8.756793,-3.4877534,1.2545617,-0.027696876000000002,0.00958738,-0.03834952,35.28,2.76,29.82
1553499873702,-8.828619,-3.4231097999999998,1.2473791,-0.035153727999999995,0.00958738,-0.04261058,35.28,2.7,29.7
1553499873722,-8.851962,-3.594894,1.3748703000000002,-0.06604639400000001,0.03089267,-0.012783173500000002,35.28,2.64,29.64
1553499873741,-8.925583999999999,-3.5954924,1.5340848,-0.07776430000000001,0.012783173500000002,-0.036218993,35.22,2.52,29.58
1553499873761,-8.948329,-3.5817258,1.4024036,-0.08522116,-0.008522116,-0.07669904,35.22,2.4,29.52
1553499873781,-9.050680999999999,-3.6074634,1.4951789,-0.06498113,-0.0063915867,-0.05752428,35.1,2.28,29.46
1553499873800,-9.080608,-3.6116532999999995,1.5113398,-0.0031957934000000003,-0.0010652645,-0.06498113,34.98,2.16,29.4
1553499873820,-9.060258000000001,-3.5410242,1.376666,0.08841695,0.0010652645,-0.09161274,34.92,2.04,29.4
1553499873840,-9.068039,-3.37762,1.2312181999999998,0.15126756,-0.0053263223,-0.096939065,34.8,1.98,29.46
1553499873861,-9.077616,-3.3446998999999997,1.1689690000000001,0.18429075,-0.0010652645,-0.094808534,34.74,1.86,29.46
1553499873880,-9.116522,-3.2776620000000003,1.1534066,0.1949434,-0.02876214,-0.08841695,34.8,1.86,29.52
1553499873900,-9.169792,-3.2160115,0.8158241999999999,0.10013486,-0.05965481,-0.06285059999999999,34.8,1.86,29.52
1553499873920,-9.086594,-3.1693244,1.4359225,0.068176925,0.05006743,-0.026631612000000002,34.86,1.92,29.52
1553499873941,-9.141661000000001,-2.9616275,1.276708,0.08841695,0.004261058,-0.084155895,34.98,1.92,29.58
1553499873961,-9.245809,-2.9604304,1.3826513999999999,0.101200126,0.008522116,-0.02876214,35.1,1.98,29.58
1553499873981,-9.076419,-3.1334114,1.1168951,0.06178534,-0.027696876000000002,-0.008522116,35.16,2.1,29.64
1553499874002,-9.030928999999999,-3.0873232,1.1270704,-0.056459017,-0.036218993,-0.051132694000000006,35.28,2.22,29.64
1553499874022,-8.928576,-3.2890346,1.2018893,-0.16831179,-0.03834952,-0.039414786,35.34,2.34,29.7
1553499874040,-8.77834,-3.328539,1.1540052,-0.2130529,-0.043675844000000005,-0.002130529,35.34,2.52,29.7
1553499874061,-8.765771,-3.4057519999999997,1.1971009,-0.23329292,-0.027696876000000002,-0.03089267,35.28,2.64,29.76
1553499874081,-8.86932,-3.4177230000000005,1.3383588,-0.21944448,-0.025566347000000003,-0.03089267,35.34,2.76,29.82
1553499874101,-8.825626,-3.4823663000000002,1.2012907,-0.19174760000000002,-0.029827405,-0.023435817999999997,35.34,2.94,29.88
1553499874121,-8.860941,-3.5559879999999997,1.2731166999999999,-0.17363810000000002,-0.0031957934000000003,-0.04261058,35.34,3.06,29.94
1553499874142,-8.958505,-3.6493617999999994,1.3299791,-0.12250541,0.011717908999999999,-0.05965481,35.34,3.12,30.0
1553499874161,-8.895657,-3.6535518,1.4000093999999998,-0.06498113,0.020240024,-0.07989483,35.34,3.12,30.06
1553499874180,-9.027936,-3.6804867,1.174356,-0.008522116,-0.004261058,-0.07669904,35.34,3.0,30.12
1553499874201,-9.126697,-3.642778,1.252766,0.0063915867,0.023435817999999997,-0.058589544,35.34,2.94,30.12
1553499874221,-9.167398,-3.6284127,1.3485341,0.03834952,0.011717908999999999,-0.07137272,35.34,2.76,30.12
1553499874241,-9.072827,-3.5122937999999992,1.2785037000000001,0.04580637,0.0063915867,-0.058589544,35.34,2.64,30.12
1553499874260,-9.155427,-3.3818099999999998,1.3778629999999998,0.07456851,0.007456851,-0.068176925,35.34,2.46,30.12
1553499874281,-9.10455,-3.3464954,1.228824,0.10333065,-0.0010652645,-0.07776430000000001,35.34,2.28,30.12
1553499874302,-8.980651,-3.2878375,1.1821371,0.05965481,-0.004261058,-0.080960095,35.4,2.1,30.06
1553499874321,-8.910022,-3.3740287,1.1863270000000001,0.01917476,-0.008522116,-0.06924219,35.4,2.04,30.0
1553499874341,-8.909423,-3.4243068999999995,1.1079168,-0.05219796,-0.0010652645,-0.05219796,35.4,2.04,30.0
1553499874361,-8.978256,-3.4901476000000002,1.1306617,-0.084155895,-0.013848438000000001,-0.06178534,35.4,2.04,29.94
1553499874381,-9.008782,-3.4362779999999997,0.9888053,-0.080960095,-0.024501082,-0.046871635999999994,35.4,2.04,29.88
1553499874403,-8.980651,-3.532046,1.0720038,-0.07456851,-0.018109497,-0.05219796,35.4,2.04,29.82
1553499874421,-8.946533,-3.5733461,1.2509704,-0.06285059999999999,-0.017044231,-0.04261058,35.4,2.04,29.76
1553499874441,-8.874707,-3.5236663999999998,1.316811,-0.008522116,-0.004261058,-0.046871635999999994,35.4,2.04,29.7
1553499874460,-8.878299,-3.4913447,1.216853,0.026631612000000002,0.0010652645,-0.041545313,35.46,2.04,29.64
1553499874480,-8.911817999999998,-3.477578,1.1354501000000001,0.03195793,0.00958738,-0.041545313,35.52,2.04,29.64
1553499874500,-8.973467999999999,-3.5045127999999997,1.1510124,-0.018109497,0.012783173500000002,-0.049002163,35.58,1.98,29.64
1553499874521,-8.989628999999999,-3.5506010000000003,1.2234371000000002,-0.051132694000000006,-0.0063915867,-0.049002163,35.64,1.98,29.64
1553499874541,-8.971672,-3.5733461,1.311424,-0.017044231,-0.0031957934000000003,-0.051132694000000006,35.7,1.98,29.64
1553499874561,-8.940548,-3.6032736000000005,1.2779051000000001,0.047936900000000005,0.004261058,-0.03195793,35.76,1.92,29.7
1553499874582,-9.039907000000001,-3.5500026,1.2467805,0.094808534,0.011717908999999999,-0.049002163,35.76,1.92,29.7
1553499874602,-9.058461999999999,-3.4626143,1.1773487,0.07882957,0.007456851,-0.05965481,35.76,1.86,29.76
1553499874621,-9.050082000000002,-3.366846,1.1067197,0.043675844000000005,-0.002130529,-0.053263225,35.76,1.86,29.82
1553499874641,-9.032125,-3.3937809999999997,1.1611878,0.014913702,-0.0031957934000000003,-0.04261058,35.7,1.86,29.82
1553499874660,-9.025542,-3.3800142,1.1725603,-0.026631612000000002,-0.0010652645,-0.037284255,35.64,1.86,29.88
1553499874681,-9.058461999999999,-3.3464954,1.3018471999999999,-0.07776430000000001,0.014913702,-0.043675844000000005,35.58,1.86,29.94
1553499874701,-8.990228,-3.5517980000000002,1.1366472,-0.10333065,-0.008522116,-0.027696876000000002,35.52,1.86,29.94
1553499874721,-8.872911,-3.5649664,1.1162965,-0.14168017,-0.012783173500000002,-0.014913702,35.46,1.86,29.94
1553499874740,-8.898649,-3.578733,1.091756,-0.13102753,-0.015978966,-0.039414786,35.52,1.86,29.88
1553499874760,-8.899248,-3.5236663999999998,1.1575965,-0.09374327,-0.010652645,-0.039414786,35.52,1.86,29.82
1553499874781,-8.959103,-3.5649664,1.0971429,-0.05539375,0.0031957934000000003,-0.051132694000000006,35.52,1.86,29.7
1553499874801,-9.007586,-3.5996822999999996,1.1593921,-0.040480047000000005,-0.007456851,-0.05539375,35.46,1.86,29.64
1553499874821,-8.951322,-3.5853171,1.1833341999999998,-0.015978966,-0.0063915867,-0.05539375,35.46,1.86,29.58
1553499874841,-8.954913000000001,-3.5500026,1.328782,0.01917476,-0.002130529,-0.053263225,35.46,1.86,29.46
1553499874860,-8.926183,-3.5541922999999995,1.1252748,0.04474111,-0.03834952,-0.04261058,35.46,1.86,29.46
1553499874880,-8.895657,-3.4877534,1.1593921,0.05219796,0.008522116,-0.04261058,35.52,1.86,29.46
1553499874900,-9.033921000000001,-3.4464532999999995,1.1905168,0.060720075,0.029827405,-0.05219796,35.58,1.86,29.46
1553499874921,-9.026739,-3.4913447,0.9588778,0.035153727999999995,0.013848438000000001,-0.03834952,35.58,1.86,29.52
1553499874941,-9.059061,-3.470994,0.8924386999999999,-0.0010652645,0.01917476,-0.03834952,35.64,1.86,29.58
1553499874963,-9.108741,-3.4835634,1.158195,0.004261058,0.034088463,-0.051132694000000006,35.64,1.86,29.64
1553499874983,-9.069236,-3.4614172,1.1504139,0.013848438000000001,0.015978966,-0.040480047000000005,35.64,1.86,29.7
1553499875002,-9.0842,-3.4967315,1.335366,-0.018109497,0.025566347000000003,-0.03195793,35.64,1.86,29.76
1553499875021,-8.963891,-3.5583823,1.3066356000000001,-0.036218993,0.0,-0.024501082,35.64,1.92,29.82
1553499875041,-8.92319,-3.537433,1.1372458,-0.022370555,-0.02130529,-0.034088463,35.52,1.92,29.88
1553499875062,-8.872911,-3.5547910000000003,1.0007763,-0.024501082,-0.024501082,-0.049002163,35.52,1.92,29.88
1553499875082,-8.936956,-3.6212301,1.0354922,-0.015978966,-0.011717908999999999,-0.047936900000000005,35.46,1.92,29.94
1553499875102,-8.92319,-3.5823242999999994,1.0211270000000001,-0.011717908999999999,-0.013848438000000001,-0.05006743,35.4,1.98,29.94
1553499875121,-8.987235,-3.5093012000000003,1.0390834999999998,-0.008522116,-0.0053263223,-0.046871635999999994,35.4,1.98,29.94
1553499875141,-9.021352,-3.5087025,1.1719618,-0.0010652645,-0.007456851,-0.039414786,35.4,1.98,29.88
1553499875161,-8.988432000000001,-3.5206735,1.2605472,0.004261058,-0.01917476,-0.04261058,35.4,1.98,29.88
1553499875181,-8.930372,-3.5164837999999996,1.3521253999999998,0.013848438000000001,-0.025566347000000003,-0.04261058,35.34,2.04,29.88
1553499875200,-8.857947,-3.5553896000000003,0.94570965,0.03834952,-0.060720075,-0.039414786,35.34,2.04,29.94
1553499875220,-8.901641999999999,-3.5841199999999995,1.0426749,0.018109497,-0.010652645,-0.036218993,35.34,2.1,29.94
1553499875241,-8.954913000000001,-3.606865,1.2180501,0.07669904,-0.010652645,-0.027696876000000002,35.34,2.1,29.94
1553499875261,-8.965088,-3.7415388,1.2360066,0.16937704,-0.013848438000000001,-0.036218993,35.34,2.1,29.94
1553499875280,-8.966286,-3.816956,1.1863270000000001,0.26418558,0.0,-0.05752428,35.34,2.1,29.94
1553499875300,-9.027936,-3.6637269999999997,1.2515688999999999,0.30999196,0.040480047000000005,-0.11824436,35.34,2.1,29.94
1553499875321,-9.16261,-3.2980127,1.3742718,0.32810146,0.03834952,-0.15446335,35.34,2.1,29.94
1553499875342,-9.058461999999999,-3.3542766999999998,1.1354501000000001,0.3174488,0.007456851,-0.080960095,35.4,2.1,29.94
1553499875360,-9.003395,-3.3806129,1.1629834,0.22370553,0.007456851,-0.00958738,35.4,2.1,29.94
1553499875382,-8.998009,-3.3722332,1.1552023,0.16192019,0.0010652645,-0.020240024,35.4,2.1,29.94
1553499875402,-8.92738,-3.354875,1.2180501,0.011717908999999999,0.0,-0.047936900000000005,35.4,2.16,29.94
1553499875421,-8.842385,-3.435081,1.0648212,-0.018109497,-0.015978966,-0.07137272,35.4,2.22,30.0
1553499875441,-8.89446,-3.4464532999999995,1.1109096,-0.10226539,-0.026631612000000002,-0.112918034,35.4,2.28,30.0
1553499875461,-8.881291000000001,-3.6080620000000003,1.1013328000000002,-0.17150758,-0.027696876000000002,-0.07776430000000001,35.34,2.4,30.0
1553499875481,-8.89446,-3.8319199999999998,1.5382746,-0.15126756,-0.01917476,-0.036218993,35.34,2.52,30.06
1553499875501,-8.850166,-3.7313633000000004,1.3245921,-0.06178534,-0.033023197000000004,-0.10333065,35.28,2.58,30.06
1553499875521,-8.942942,-3.6014779000000003,1.4921862,-0.0010652645,0.015978966,-0.12357068,35.28,2.7,30.0
1553499875541,-8.921394,-3.6583402,1.6208745,0.1107875,0.024501082,-0.11504856,35.22,2.76,29.94
1553499875561,-8.735844,-3.3931823,1.2934675,0.23755397,0.046871635999999994,-0.18109496,35.22,2.82,29.88
1553499875580,-9.06744,-3.2106244999999998,1.3599066,0.26418558,0.05219796,-0.29294774,35.16,2.88,29.82
1553499875600,-9.209895,-3.3985693,0.78769237,0.21944448,-0.040480047000000005,-0.21518342,35.16,2.94,29.76
1553499875621,-9.060258000000001,-3.3051953000000003,0.38067806,0.014913702,-0.04474111,-0.08841695,35.16,3.0,29.7
1553499875641,-9.051878,-3.4518404,0.8026561,-0.23861924,-0.03195793,-0.084155895,35.16,3.06,29.64
1553499875660,-8.980052,-3.7762547,1.0953473,-0.37284255,-0.04474111,0.026631612000000002,35.16,3.24,29.58
1553499875680,-8.608353,-4.040814,1.3221979,-0.33555830000000003,-0.018109497,0.056459017,35.28,3.42,29.52
1553499875700,-8.683769,-3.9468415,1.4484920000000001,-0.22903186,-0.011717908999999999,-0.07882957,35.34,3.6,29.58
1553499875721,-8.737040499999999,-3.7984009,1.4778209999999998,-0.10333065,0.0031957934000000003,-0.082025364,35.4,3.78,29.58
1553499875741,-8.877101,-3.7828386,1.0336965,0.07882957,-0.053263225,-0.08841695,35.46,3.9,29.58
1553499875761,-8.883685,-3.4757824,0.6302736,0.02876214,-0.020240024,-0.18748654,35.52,3.96,29.64
1553499875780,-9.144053999999999,-3.6583402,1.2988545,-0.13102753,0.037284255,-0.06498113,35.58,3.96,29.64
1553499875800,-8.968081,-4.0456023000000005,1.4556746,-0.19068234,-0.011717908999999999,0.011717908999999999,35.64,3.96,29.64
1553499875820,-8.794501,-4.138976,1.3485341,-0.22903186,-0.011717908999999999,-0.03089267,35.64,3.9,29.7
1553499875841,-8.866926,-4.0306387,1.3946223999999998,-0.19281286,0.024501082,-0.04580637,35.64,3.78,29.7
1553499875861,-8.90643,-3.9552212,1.216853,-0.06924219,0.008522116,-0.0063915867,35.64,3.66,29.7
1553499875880,-8.876503,-3.927688,1.1049241,0.002130529,0.029827405,-0.0053263223,35.7,3.54,29.76
1553499875900,-8.957906,-3.8277300000000003,1.0474633,0.05965481,0.010652645,-0.023435817999999997,35.7,3.42,29.88
1553499875920,-8.926183,-3.5984852,0.9235633,0.05219796,0.0010652645,-0.010652645,35.76,3.36,29.94
1553499875941,-8.932167999999999,-3.6008794,1.0564415,0.017044231,0.01917476,0.013848438000000001,35.82,3.24,29.94
1553499875961,-8.950723,-3.5966894999999997,1.1797429,0.02130529,0.02130529,0.012783173500000002,35.82,3.12,30.0
1553499875981,-8.896853,-3.5655648999999996,1.1174936000000002,0.026631612000000002,0.0010652645,-0.0063915867,35.82,3.06,30.06
1553499876000,-8.871116,-3.490746,0.99658644,-0.018109497,-0.014913702,-0.018109497,35.82,2.94,30.12
1553499876020,-8.857947,-3.5924997000000003,1.0600328,-0.09161274,-0.008522116,-0.0010652645,35.82,2.88,30.18
1553499876041,-8.828619,-3.7247794,1.0851719,-0.13954964,-0.014913702,-0.004261058,35.76,2.88,30.18
1553499876061,-8.869919,-3.6834792999999997,1.0899603,-0.17363810000000002,-0.008522116,-0.047936900000000005,35.7,2.88,30.18
1553499876081,-8.889072,-3.7421372,1.043872,-0.17470337,-0.017044231,-0.04474111,35.64,2.88,30.18
1553499876100,-8.81964,-3.7421372,1.1294646000000002,-0.12144015,-0.018109497,-0.041545313,35.64,2.88,30.18
1553499876120,-8.850166,-3.767875,1.0061632,-0.01917476,-0.043675844000000005,-0.10972224,35.64,2.88,30.18
1553499876141,-8.943541,-3.614646,0.9732430000000001,-0.017044231,-0.026631612000000002,-0.113983296,35.64,2.88,30.24
1553499876161,-8.9040365,-3.8271315,1.2234371000000002,-0.026631612000000002,-0.024501082,-0.07989483,35.64,2.88,30.24
1553499876180,-8.796896,-3.8564602999999997,1.043872,-0.013848438000000001,-0.036218993,-0.10759171,35.64,2.82,30.24
1553499876203,-8.911817999999998,-3.6631286,1.0899603,-0.0010652645,0.0010652645,-0.13422333,35.58,2.76,30.18
1553499876220,-8.970475,-3.7487214,1.1569979,0.033023197000000004,0.0031957934000000003,-0.10439592,35.52,2.76,30.12
1553499876242,-8.952518,-3.7193922999999995,0.96187055,0.0010652645,-0.002130529,-0.09587380000000001,35.46,2.76,30.06
1553499876262,-8.977058999999999,-3.8480806000000003,1.1156979999999999,-0.056459017,-0.008522116,-0.06711166,35.4,2.82,30.0
1553499876281,-8.918402,-3.8331169999999997,1.0971429,-0.06178534,-0.041545313,-0.06285059999999999,35.34,2.82,29.94
1553499876301,-8.89446,-3.7217865,0.94690675,-0.054328485999999995,-0.05539375,-0.07350325,35.28,2.82,29.88
1553499876321,-8.910022,-3.6337996,1.0307038,-0.09161274,-0.027696876000000002,-0.06498113,35.28,2.88,29.88
1553499876341,-8.875904,-3.8594532,1.0480618,-0.11824436,-0.041545313,-0.026631612000000002,35.16,2.88,29.82
1553499876361,-8.720282000000001,-3.8444892999999998,1.0875661,-0.18216023,-0.010652645,-0.037284255,35.16,2.82,29.82
1553499876381,-8.853159,-4.0264487,1.3096284,-0.21092236,0.015978966,-0.015978966,35.16,2.76,29.82
1553499876401,-8.774749,-3.8612487,1.1677719,-0.21944448,0.014913702,-0.026631612000000002,35.16,2.7,29.82
1553499876421,-8.771158,-3.7846344,1.1617863000000002,-0.23435818,0.029827405,-0.07669904,35.16,2.64,29.82
1553499876440,-8.850764999999999,-3.7606924,1.0803835,-0.22583607,0.03089267,-0.049002163,35.22,2.52,29.76
1553499876460,-8.850166,-4.0054994,0.83378077,-0.19174760000000002,-0.004261058,-0.04261058,35.22,2.46,29.76
1553499876480,-8.819042,-3.9767690000000004,0.6332663000000001,-0.19920446,-0.0053263223,-0.056459017,35.22,2.4,29.76
1553499876500,-8.886678,-4.0240545,0.6979098000000001,-0.20240025,-0.0010652645,-0.054328485999999995,35.22,2.34,29.76
1553499876520,-8.871116,-4.044405,0.90381116,-0.14913702,-0.012783173500000002,-0.05006743,35.22,2.28,29.82
1553499876541,-8.845977,-3.9444472999999998,1.0426749,-0.04580637,-0.025566347000000003,-0.06498113,35.22,2.22,29.82
1553499876561,-8.871116,-3.9043443,0.99299514,0.04580637,-0.018109497,-0.05006743,35.22,2.16,29.82
1553499876581,-8.862138,-3.903746,0.997185,0.05752428,-0.0010652645,-0.02876214,35.28,1.98,29.82
1553499876601,-8.890868,-3.8857894,0.9935937,0.007456851,0.002130529,-0.023435817999999997,35.28,1.86,29.88
1553499876621,-8.841188,-3.767875,0.9223662,-0.035153727999999995,-0.011717908999999999,-0.05219796,35.28,1.74,29.88
1553499876641,-8.924387,-3.6493617999999994,0.93014735,-0.029827405,-0.010652645,-0.06604639400000001,35.34,1.62,29.94
1553499876661,-8.901043,-3.7391446000000004,0.9331401,-0.05006743,-0.018109497,-0.022370555,35.34,1.56,29.94
1553499876681,-8.814852,-3.8666358,0.8391677,-0.096939065,-0.02876214,0.0053263223,35.34,1.5,29.94
1553499876701,-8.857349000000001,-3.9073372,0.8547299999999999,-0.14274544,-0.035153727999999995,-0.024501082,35.34,1.5,29.94
1553499876721,-8.871116,-3.8786068,0.79607207,-0.17363810000000002,-0.041545313,-0.025566347000000003,35.34,1.56,29.88
1553499876741,-8.959103,-3.9749733999999997,0.8774749,-0.18429075,-0.043675844000000005,-0.018109497,35.28,1.68,29.88
1553499876761,-8.875904,-3.9803602999999996,0.90740246,-0.15978967,-0.041545313,-0.012783173500000002,35.28,1.74,29.82
1553499876780,-8.860941,-4.104858999999999,0.92057055,-0.082025364,-0.07243799,-0.041545313,35.22,1.8,29.82
1553499876800,-8.787917,-3.807978,0.50158525,-0.03089267,-0.09374327,-0.10226539,35.22,1.8,29.76
1553499876822,-8.863934,-3.7792472999999998,0.6631939,-0.06711166,-0.04261058,-0.08948222,35.22,1.8,29.7
1553499876841,-8.836999,-4.0043025000000005,0.7930793,-0.12996227,-0.03834952,-0.04580637,35.22,1.8,29.7
1553499876860,-8.744224,-4.185663,0.8391677,-0.2034655,-0.01917476,-0.023435817999999997,35.22,1.74,29.64
1553499876880,-8.806473,-4.0892963,1.1438298,-0.23648871,0.013848438000000001,-0.05752428,35.28,1.62,29.58
1553499876901,-8.924387,-4.001309399999999,1.1719618,-0.111852765,-0.002130529,-0.09267801,35.28,1.56,29.58
1553499876920,-8.817246,-3.9510313999999997,0.8463503000000001,0.015978966,0.013848438000000001,-0.06604639400000001,35.4,1.44,29.52
1553499876940,-8.808268,-4.11264,0.8762778,0.06711166,0.047936900000000005,-0.046871635999999994,35.46,1.38,29.46
1553499876961,-8.852561,-4.0330330000000005,0.8547299999999999,0.08735169,0.06391586,-0.080960095,35.52,1.2,29.4
1553499876981,-8.953716,-3.9911342000000003,0.83737206,0.080960095,0.05752428,-0.04261058,35.52,1.14,29.4
1553499877000,-8.862736,-4.0336313,0.7242460000000001,0.07989483,0.033023197000000004,-0.008522116,35.58,1.08,29.34
1553499877021,-8.855554,-4.0204629999999995,0.7206547,0.10546118,0.014913702,-0.034088463,35.58,0.96,29.34
1553499877041,-8.848969,-3.9151182,0.7673416999999999,0.10333065,0.014913702,-0.036218993,35.58,0.9,29.28
1553499877061,-8.844180999999999,-3.9079356,0.8194155000000001,0.09267801,0.015978966,-0.018109497,35.64,0.9,29.28
1553499877081,-8.831013,-3.9576154000000003,0.96905315,0.07030745599999999,0.013848438000000001,0.0,35.64,0.9,29.28
1553499877101,-8.74542,-3.9857473,0.76075757,0.053263225,-0.014913702,-0.00958738,35.64,0.9,29.34
1553499877120,-8.817844000000001,-3.9438487999999996,0.7793127,0.04474111,-0.004261058,-0.03089267,35.64,0.9,29.34
1553499877140,-8.858546,-3.9187095000000003,0.82121116,0.07030745599999999,-0.008522116,-0.037284255,35.58,0.9,29.34
1553499877160,-8.853758000000001,-3.8432922,0.85652566,0.09374327,-0.01917476,-0.051132694000000006,35.64,1.02,29.4
1553499877180,-8.863934,-3.822343,0.8463503000000001,0.07989483,-0.015978966,-0.060720075,35.64,1.08,29.4
1553499877200,-8.897452000000001,-3.858256,0.8882488000000002,0.012783173500000002,-0.018109497,-0.04261058,35.64,1.14,29.4
1553499877220,-8.867524000000001,-3.8684312999999997,0.8960299999999999,-0.040480047000000005,-0.024501082,-0.034088463,35.64,1.26,29.4
1553499877240,-8.898649,-3.916914,0.8451531999999999,-0.07350325,-0.02130529,-0.02876214,35.64,1.38,29.46
1553499877260,-8.867524000000001,-3.9869443999999996,0.89184016,-0.07563378,-0.015978966,0.0,35.64,1.5,29.46
1553499877281,-8.784326,-3.9600096,0.91937345,-0.008522116,-0.022370555,-0.0010652645,35.7,1.62,29.46
1553499877300,-8.780735,-3.9193082,0.8122329,0.040480047000000005,-0.0053263223,-0.00958738,35.7,1.68,29.46
1553499877320,-8.838794,-3.7756559999999997,0.84096336,0.05965481,0.0,-0.020240024,35.7,1.62,29.46
1553499877341,-8.829217,-3.5883097999999998,0.6697779,0.0053263223,-0.00958738,-0.05219796,35.64,1.5,29.52
1553499877360,-8.920197,-3.7319620000000002,0.8523358,-0.101200126,-0.0010652645,-0.068176925,35.64,1.44,29.52
1553499877381,-8.895657,-3.807978,0.96187055,-0.16831179,-0.017044231,-0.054328485999999995,35.58,1.32,29.52
1553499877401,-8.774749,-3.8576574,0.7978677,-0.20240025,-0.036218993,-0.07989483,35.52,1.2,29.58
1553499877421,-8.848371,-3.9163153,0.7445967,-0.18216023,-0.029827405,-0.06924219,35.46,1.08,29.58
1553499877441,-8.807071,-4.0916904999999995,0.6715736,-0.15659387,-0.020240024,-0.025566347000000003,35.4,0.96,29.64
1553499877461,-8.813655,-4.1641154,0.83497787,-0.12037488,0.008522116,-0.025566347000000003,35.46,0.9,29.64
1553499877481,-8.817844000000001,-4.1180267,0.92655605,-0.07669904,0.0053263223,-0.04261058,35.46,0.9,29.7
1553499877500,-8.840589999999999,-4.0462008,0.9451110999999999,-0.01917476,0.017044231,-0.015978966,35.4,0.9,29.7
1553499877520,-8.818442999999998,-4.0629599999999995,0.8415619000000001,0.034088463,0.011717908999999999,-0.0053263223,35.4,0.9,29.7
1553499877541,-8.853159,-4.0174704,0.6757634,0.049002163,0.012783173500000002,-0.026631612000000002,35.46,0.84,29.76
1553499877561,-8.86932,-3.9504328,0.7128736,0.014913702,0.029827405,-0.036218993,35.46,0.78,29.76
1553499877581,-8.846575999999999,-3.9911342000000003,0.8535328999999999,-0.007456851,0.023435817999999997,-0.011717908999999999,35.46,0.72,29.7
1553499877601,-8.878897,-4.028843,0.8786719999999999,-0.014913702,0.025566347000000003,-0.017044231,35.52,0.72,29.7
1553499877621,-8.970475,-4.0282445,0.84096336,-0.0031957934000000003,0.017044231,-0.018109497,35.52,0.66,29.64
1553499877641,-8.848371,-3.9456443999999995,0.75357497,0.036218993,-0.0010652645,-0.023435817999999997,35.58,0.6,29.58
1553499877661,-8.808866499999999,-3.9474400999999997,0.6548142,0.083090626,-0.011717908999999999,-0.017044231,35.58,0.6,29.52
1553499877681,-8.759786,-3.8827964999999995,0.6793547,0.09267801,0.002130529,-0.033023197000000004,35.58,0.54,29.52
1553499877701,-8.844180999999999,-3.804985,0.6991069000000001,0.07030745599999999,0.017044231,-0.035153727999999995,35.64,0.54,29.52
1553499877721,-8.869919,-3.8109705000000003,0.6769605,0.053263225,0.012783173500000002,-0.023435817999999997,35.64,0.54,29.46
1553499877741,-8.920197,-3.8361096,0.74758947,0.036218993,0.010652645,-0.03089267,35.64,0.54,29.46
1553499877760,-8.881291000000001,-3.8780080999999997,0.7811083000000001,0.026631612000000002,-0.004261058,-0.02876214,35.58,0.48,29.46
1553499877780,-8.854357,-3.9175123999999997,0.82240826,0.037284255,-0.0063915867,-0.015978966,35.58,0.48,29.46
1553499877801,-8.883087,-3.9246953,0.7428011,0.037284255,0.0031957934000000003,-0.0053263223,35.52,0.42,29.46
1553499877821,-8.943541,-3.9145198,0.7332243,0.012783173500000002,0.020240024,-0.00958738,35.46,0.42,29.46
1553499877841,-9.021951,-3.916914,0.8194155000000001,0.00958738,-0.0010652645,-0.018109497,35.46,0.42,29.4
1553499877861,-8.935161,-3.8271315,0.7254431,0.017044231,-0.010652645,-0.043675844000000005,35.46,0.42,29.4
1553499877881,-8.95611,-3.8385038000000002,0.6865373,-0.011717908999999999,-0.020240024,-0.05219796,35.4,0.42,29.4
1553499877901,-8.932167999999999,-3.843891,0.7870938000000001,-0.05006743,-0.024501082,-0.04580637,35.4,0.42,29.4
1553499877920,-8.8645315,-3.8714242,0.6769605,-0.060720075,-0.04580637,-0.05219796,35.4,0.42,29.4
1553499877940,-8.845378,-3.8786068,0.7757214,-0.06711166,-0.040480047000000005,-0.054328485999999995,35.46,0.42,29.46
1553499877960,-8.848969,-3.9115269999999995,0.78888947,-0.04580637,-0.029827405,-0.051132694000000006,35.52,0.42,29.52
1553499877980,-8.80767,-3.98874,0.8367735000000001,-0.027696876000000002,-0.011717908999999999,-0.03834952,35.64,0.36,29.58
1553499878000,-8.871116,-4.0001125,0.83737206,-0.013848438000000001,-0.022370555,-0.03195793,35.7,0.36,29.64
1553499878020,-8.825626,-3.8953662000000002,0.6242880999999999,0.023435817999999997,-0.03834952,-0.043675844000000005,35.76,0.36,29.7
1553499878040,-8.904634,-3.781043,0.7146691999999999,0.02876214,-0.010652645,-0.043675844000000005,35.82,0.3,29.76
1553499878060,-8.996812,-3.8379053999999995,0.8810662,0.0031957934000000003,0.0,-0.03834952,35.88,0.3,29.82
1553499878080,-8.925583999999999,-3.7966053,0.8295909,-0.020240024,-0.011717908999999999,-0.02876214,35.88,0.3,29.88
1553499878100,-8.849568,-3.8109705000000003,0.6919243,-0.060720075,-0.008522116,-0.018109497,35.88,0.3,29.88
1553499878121,-8.775348,-3.788824,0.6063316,-0.13741912,-0.0031957934000000003,-0.013848438000000001,35.76,0.3,29.88
1553499878141,-8.782531,-3.9031472000000003,0.7009025,-0.23755397,0.013848438000000001,0.013848438000000001,35.7,0.3,29.88
1553499878161,-8.813655,-3.982156,0.6715736,-0.30253512,0.010652645,-0.014913702,35.64,0.36,29.88
1553499878181,-8.924387,-3.8804023,0.866701,-0.350472,-0.015978966,-0.054328485999999995,35.58,0.36,29.88
1553499878200,-8.905831,-3.8397010000000003,0.9127894,-0.33875409999999995,-0.025566347000000003,-0.041545313,35.58,0.36,29.88
1553499878220,-8.884883,-3.9827545,0.770933,-0.28229508,-0.047936900000000005,-0.037284255,35.58,0.3,29.82
1553499878240,-8.887876,-3.957017,0.5662286999999999,-0.25353295,-0.041545313,-0.06178534,35.58,0.18,29.76
1553499878260,-8.882488,-3.9839516,0.5398925,-0.24181503,-0.03089267,-0.05539375,35.58,0.06,29.76
1553499878281,-8.874108,-3.9947255,0.53809685,-0.22050974,-0.020240024,-0.04580637,35.64,-0.12,29.7
1553499878300,-8.806473,-3.9641995000000003,0.6392518,-0.17150758,-0.020240024,-0.04474111,35.7,-0.3,29.7
1553499878321,-8.802282,-3.9624038,0.6488286999999999,-0.10013486,-0.015978966,-0.037284255,35.7,-0.54,29.64
1553499878341,-8.932767,-3.9755719,0.64942724,-0.041545313,-0.007456851,-0.014913702,35.76,-0.78,29.52
1553499878361,-8.867524000000001,-3.9779660000000003,0.5662286999999999,0.008522116,0.0053263223,-0.0031957934000000003,35.76,-1.02,29.4
1553499878381,-8.93576,-3.9133226999999997,0.5291186,-0.027696876000000002,0.01917476,0.008522116,35.76,-1.2,29.34
1553499878403,-8.950125,-3.933075,0.74998367,-0.10652645,0.013848438000000001,0.083090626,35.76,-1.32,29.22
1553499878422,-8.835203,-3.9719806,0.5093664000000001,-0.13315806,-0.029827405,0.06924219,35.76,-1.44,29.1
1553499878442,-8.814254,-3.7960067000000004,0.50996494,-0.13848437,-0.0010652645,-0.02876214,35.76,-1.5,29.04
1553499878461,-9.002797,-3.6074634,0.52732295,-0.12676647,-0.024501082,-0.07030745599999999,35.76,-1.56,28.98
1553499878480,-8.931569,-3.6834792999999997,0.3633201,-0.16831179,-0.023435817999999997,-0.029827405,35.76,-1.44,28.92
1553499878503,-8.949525999999999,-3.8205473,0.19213470000000002,-0.23542345,-0.020240024,0.0063915867,35.76,-1.44,28.98
1553499878520,-8.926781,-3.9971197,0.3321955,-0.38242993,0.002130529,-0.029827405,35.7,-1.44,29.04
1553499878541,-8.983644,-3.9755719,0.3633201,-0.43782368,-0.026631612000000002,-0.041545313,35.7,-1.5,29.04
1553499878560,-8.860941,-3.9630023999999997,0.48542440000000003,-0.4079963,-0.037284255,-0.025566347000000003,35.64,-1.74,29.1
1553499878580,-8.93935,-3.9893386,0.5991489999999999,-0.28975195,-0.02876214,-0.043675844000000005,35.58,-2.22,29.04
1553499878601,-8.965686999999999,-4.024653,0.47824179999999994,-0.1470065,-0.026631612000000002,-0.040480047000000005,35.46,-2.58,29.04
1553499878621,-9.024344000000001,-4.0414124,0.47824179999999994,-0.07030745599999999,0.0010652645,-0.00958738,35.4,-2.94,29.04
1553499878640,-9.00579,-4.0916904999999995,0.51355624,-0.04474111,0.004261058,0.007456851,35.34,-3.3,29.04
1553499878661,-8.903438000000001,-4.0653543,0.50397944,-0.02130529,-0.0010652645,0.0031957934000000003,35.34,-3.66,28.98
1553499878680,-8.913613,-3.982156,0.48003745,0.0063915867,-0.010652645,0.002130529,35.34,-3.96,28.98
1553499878700,-8.825027,-3.8654387000000003,0.24061728,0.06498113,-0.037284255,-0.012783173500000002,35.28,-4.14,28.92
1553499878721,-8.834005,-3.8007953000000003,0.29807812,0.06498113,-0.01917476,-0.05006743,35.28,-4.26,28.92
1553499878741,-8.803479,-3.8606502999999996,0.3669114,0.03089267,-0.020240024,-0.033023197000000004,35.28,-4.26,28.86
1553499878761,-8.765172,-3.876811,0.44352585,0.008522116,-0.013848438000000001,-0.046871635999999994,35.28,-4.26,28.86
1553499878780,-8.829217,-3.8331169999999997,0.43275195,0.017044231,-0.002130529,-0.060720075,35.28,-4.26,28.8
1553499878800,-8.884883,-3.8157589999999995,0.36990416,0.027696876000000002,0.0053263223,-0.036218993,35.28,-4.26,28.8
1553499878820,-8.917204,-3.8774097000000003,0.23882163,0.03834952,0.010652645,-0.025566347000000003,35.28,-4.26,28.74
1553499878840,-8.910022,-3.903746,0.25198972,0.023435817999999997,0.015978966,-0.033023197000000004,35.34,-4.2,28.68
1553499878861,-8.86932,-3.843891,0.24600422,0.015978966,0.014913702,-0.037284255,35.34,-4.08,28.62
1553499878881,-8.860342,-3.8115692,0.31902736,0.014913702,0.024501082,-0.037284255,35.34,-4.02,28.62
1553499878901,-8.896255,-3.8337154000000004,0.33279404,0.0053263223,0.034088463,-0.027696876000000002,35.4,-3.96,28.62
1553499878921,-8.843582000000001,-3.9025488,0.4369418,-0.00958738,0.043675844000000005,-0.014913702,35.4,-3.9,28.62
1553499878941,-8.932167999999999,-3.863643,0.50158525,-0.01917476,0.026631612000000002,-0.03089267,35.4,-3.78,28.56
1553499878961,-8.901641999999999,-3.9965212,0.29807812,0.002130529,0.007456851,0.0053263223,35.46,-3.72,28.56
1553499878980,-8.945934,-3.9618053,0.35913026,0.06285059999999999,0.053263225,-0.0010652645,35.4,-3.66,28.5
1553499879000,-9.049484,-3.9246953,0.47225627,0.12037488,0.060720075,-0.03195793,35.4,-3.6,28.5
1553499879020,-9.071032,-3.810372,0.25438392,0.14594123,0.03834952,-0.012783173500000002,35.4,-3.6,28.5
1553499879041,-9.115324000000001,-3.8127663,0.3196259,0.098004326,0.047936900000000005,-0.0063915867,35.4,-3.6,28.5
1553499879060,-9.060856,-3.8259343999999995,0.35673606,0.06711166,0.018109497,-0.022370555,35.4,-3.6,28.5
1553499879081,-9.0016,-3.7295678,0.24301147,0.041545313,-0.0010652645,-0.026631612000000002,35.34,-3.6,28.5
1553499879101,-8.900445,-3.7463272000000005,0.29328972,0.0053263223,0.002130529,-0.02876214,35.34,-3.6,28.5
1553499879120,-8.905233,-3.7475242999999994,0.36212300000000003,-0.026631612000000002,0.013848438000000001,-0.058589544,35.34,-3.6,28.56
1553499879140,-9.021951,-3.7271736000000004,0.21787235,-0.06285059999999999,0.014913702,-0.06391586,35.34,-3.66,28.62
1553499879161,-8.935161,-3.8821980000000003,0.41000703,-0.07776430000000001,0.0063915867,-0.015978966,35.34,-3.66,28.62
1553499879181,-8.908225999999999,-3.7684733999999995,0.31483752,-0.036218993,-0.033023197000000004,-0.05219796,35.34,-3.66,28.68
1553499879201,-8.9279785,-3.7110126000000005,0.27952304,-0.03195793,-0.02876214,-0.06604639400000001,35.34,-3.66,28.74
1553499879221,-8.977058999999999,-3.8043866000000004,0.32800564,-0.05539375,-0.025566347000000003,-0.04261058,35.4,-3.72,28.74
1553499879241,-8.950723,-3.8612487,0.29269117,-0.101200126,-0.027696876000000002,-0.047936900000000005,35.4,-3.78,28.8
1553499879261,-8.908225999999999,-3.9115269999999995,0.29029694,-0.11504856,-0.023435817999999997,-0.053263225,35.4,-3.78,28.8
1553499879282,-8.892664,-3.9546227,0.3633201,-0.094808534,-0.02130529,-0.049002163,35.46,-3.84,28.8
1553499879300,-8.890269,-3.9600096,0.34296940000000004,-0.049002163,-0.014913702,-0.049002163,35.46,-3.9,28.74
1553499879323,-8.952518,-3.9318779000000004,0.35254622,0.020240024,-0.0010652645,-0.053263225,35.46,-3.9,28.74
1553499879341,-8.86513,-3.8241386,0.3417723,0.082025364,0.0031957934000000003,-0.043675844000000005,35.46,-3.96,28.74
1553499879361,-8.908225999999999,-3.8588544999999996,0.27593175,0.10226539,-0.035153727999999995,-0.04580637,35.52,-3.96,28.68
1553499879381,-8.843582000000001,-3.7828386,0.032920275,0.09267801,-0.010652645,-0.054328485999999995,35.52,-3.96,28.68
1553499879401,-9.078215,-3.8361096,0.5434838000000001,0.024501082,0.01917476,-0.058589544,35.52,-3.96,28.68
1553499879421,-9.02614,-3.8738184,0.46686932,0.00958738,-0.01917476,-0.037284255,35.46,-3.96,28.68
1553499879440,-8.991425,-3.8750155,0.33997664,-0.026631612000000002,-0.014913702,-0.02876214,35.46,-3.9,28.74
1553499879460,-9.047089999999999,-3.8857894,0.3405752,-0.058589544,0.0010652645,-0.025566347000000003,35.46,-3.9,28.74
1553499879481,-9.06744,-3.9665937000000007,0.49081135,-0.033023197000000004,0.0031957934000000003,-0.017044231,35.46,-3.9,28.8
1553499879500,-8.929175,-4.0001125,0.41299978,0.033023197000000004,-0.013848438000000001,-0.022370555,35.46,-3.9,28.8
1553499879520,-8.929175,-3.9324763,0.2765303,0.094808534,-0.017044231,-0.051132694000000006,35.46,-3.96,28.86
1553499879541,-8.942942,-3.8361096,0.2908955,0.099069595,-0.004261058,-0.037284255,35.46,-3.96,28.86
1553499879560,-8.946533,-3.8133647000000006,0.3333926,0.08735169,-0.012783173500000002,-0.027696876000000002,35.46,-4.02,28.92
1553499879580,-8.919599,-3.7283707,0.25318682,0.07456851,-0.018109497,-0.05219796,35.46,-4.02,28.92
1553499879601,-8.955511,-3.6445735,0.32321724,-0.010652645,0.013848438000000001,-0.05965481,35.46,-4.08,28.92
1553499879620,-8.962694,-3.867833,0.42556936,-0.07669904,0.01917476,-0.014913702,35.4,-4.14,28.92
1553499879642,-8.878897,-3.9989154,0.4189853,-0.07456851,0.0053263223,-0.012783173500000002,35.4,-4.14,28.92
1553499879662,-8.92319,-4.0078936,0.23882163,-0.004261058,-0.026631612000000002,-0.035153727999999995,35.4,-4.14,28.92
1553499879682,-8.908825,-3.8552632000000004,0.18495208,0.07669904,-0.011717908999999999,-0.026631612000000002,35.4,-4.08,28.86
1553499879701,-8.840589999999999,-3.8486792999999997,0.33698390000000006,0.111852765,0.0031957934000000003,-0.01917476,35.34,-4.08,28.86
1553499879721,-8.858546,-3.7942111000000005,0.32022446,0.09374327,-0.0053263223,-0.024501082,35.34,-4.02,28.8
1553499879741,-8.817246,-3.6828809000000002,0.34296940000000004,0.04580637,0.0031957934000000003,-0.036218993,35.34,-3.96,28.74
1553499879761,-8.914211,-3.7044287000000002,0.33039984,0.0010652645,0.0,-0.034088463,35.34,-3.9,28.68
1553499879781,-8.905831,-3.8283286,0.2693477,-0.012783173500000002,-0.0031957934000000003,-0.033023197000000004,35.34,-3.84,28.62
1553499879800,-8.92319,-3.912724,0.25378537,-0.018109497,-0.004261058,-0.04261058,35.34,-3.84,28.56
1553499879821,-8.91062,-3.9408559999999997,0.36212300000000003,-0.0053263223,-0.04580637,-0.04261058,35.34,-3.78,28.5
1553499879841,-8.845977,-3.9875429,0.19153613,0.03089267,-0.039414786,-0.015978966,35.4,-3.72,28.5
1553499879861,-8.846575999999999,-3.942053,0.4405331,0.020240024,0.007456851,-0.008522116,35.4,-3.72,28.44
1553499879880,-8.916007,-3.8474822,0.5758055000000001,0.0053263223,0.036218993,-0.024501082,35.4,-3.72,28.5
1553499879901,-9.030928999999999,-3.915717,0.6452374,0.0031957934000000003,0.040480047000000005,0.027696876000000002,35.4,-3.72,28.62
1553499879920,-8.947132,-3.9318779000000004,0.3453636,0.014913702,0.035153727999999995,0.046871635999999994,35.4,-3.72,28.68
1553499879940,-9.074024,-3.8953662000000002,0.37828386,0.043675844000000005,0.04580637,0.029827405,35.4,-3.78,28.8
1553499879961,-9.033323,-3.8109705000000003,0.37948096,0.07776430000000001,0.04474111,0.02876214,35.4,-4.02,28.86
1553499879981,-9.036914,-3.7636849999999997,0.34835634,0.10546118,0.033023197000000004,0.033023197000000004,35.34,-4.2,28.92
1553499880000,-9.073426,-3.7493198,0.25857377,0.09267801,0.039414786,0.047936900000000005,35.28,-4.38,28.98
1553499880021,-9.095572,-3.6978445,0.26755205,0.07776430000000001,0.041545313,0.039414786,35.16,-4.56,29.04
1553499880040,-9.072827,-3.6577415,0.25617957,0.083090626,0.03089267,0.013848438000000001,35.1,-4.68,29.1
1553499880061,-9.047089999999999,-3.5799300000000005,0.24420857,0.10333065,0.010652645,-0.010652645,35.04,-4.86,29.1
1553499880080,-9.030928999999999,-3.4105402999999996,0.31663316,0.12570119999999999,-0.007456851,-0.03195793,35.04,-4.98,29.04
1553499880101,-8.951322,-3.4165258,0.19991584,0.08735169,-0.039414786,-0.036218993,34.98,-5.1,29.04
1553499880120,-8.958505,-3.5176809999999996,0.21966799999999997,-0.023435817999999997,-0.024501082,-0.02876214,34.98,-5.04,29.04
1553499880140,-8.999206,-3.6589386,0.29867667,-0.13422333,-0.02130529,-0.026631612000000002,35.04,-4.98,29.04
1553499880161,-8.995016,-3.8157589999999995,0.38726214,-0.15446335,-0.03195793,-0.0010652645,35.16,-4.98,29.04
1553499880181,-8.897452000000001,-3.8109705000000003,0.39504328,-0.06604639400000001,-0.026631612000000002,-0.014913702,35.22,-4.92,29.04
1553499880200,-8.986037,-3.7271736000000004,0.41718966,0.07030745599999999,-0.034088463,-0.034088463,35.34,-4.92,29.04
1553499880220,-8.999206,-3.7427358999999996,0.29149407,0.13635385,-0.035153727999999995,-0.020240024,35.4,-4.92,29.04
1553499880241,-8.966884,-3.7475242999999994,0.30107087,0.11930962,-0.020240024,-0.0031957934000000003,35.46,-4.74,29.04
1553499880261,-8.971672,-3.7122097000000003,0.38845924,0.08841695,-0.010652645,-0.004261058,35.52,-4.56,29.04
1553499880280,-8.949525999999999,-3.6816837999999996,0.40342298,0.08522116,-0.004261058,-0.025566347000000003,35.46,-4.38,29.04
1553499880300,-9.047089999999999,-3.6715082999999997,0.3597288,0.099069595,0.004261058,-0.053263225,35.4,-4.2,29.04
1553499880321,-9.03871,-3.6020765,0.4141969,0.13209279,0.0031957934000000003,-0.06285059999999999,35.34,-3.96,28.98
1553499880341,-9.102755,-3.6625300000000003,0.25977087,0.128897,-0.05752428,-0.056459017,35.28,-3.84,28.98
1553499880361,-8.902241,-3.7594953,0.18375498,0.1438107,-0.053263225,-0.04474111,35.28,-3.72,28.98
1553499880380,-8.942942,-3.6912606,0.3878607,0.18109496,-0.015978966,-0.07882957,35.22,-3.6,28.98
1553499880401,-9.030331,-3.7283707,0.5506664000000001,0.21731395,-0.033023197000000004,-0.080960095,35.16,-3.54,28.98
1553499880420,-9.025542,-3.8181531000000004,0.43394905,0.21198763,-0.020240024,-0.020240024,35.16,-3.54,28.98
1553499880440,-9.097368,-3.7074212999999996,0.51235914,0.18642128,-0.004261058,-0.017044231,35.16,-3.54,28.98
1553499880461,-9.106346,-3.7038300000000004,0.6183026,0.14274544,0.004261058,-0.00958738,35.16,-3.48,29.04
1553499880481,-9.166202,-3.5697547999999997,0.6422445999999999,0.128897,-0.02876214,-0.011717908999999999,35.16,-3.48,29.1
1553499880501,-9.060856,-3.5619736000000004,0.5482722,0.084155895,-0.025566347000000003,-0.03195793,35.16,-3.48,29.22
1553499880521,-9.021951,-3.530849,0.5506664000000001,0.027696876000000002,-0.022370555,-0.04580637,35.16,-3.42,29.28
1553499880541,-8.971672,-3.5440169999999998,0.4345476,-0.05219796,-0.041545313,-0.07669904,35.22,-3.42,29.4
1553499880560,-8.901641999999999,-3.6104562000000007,0.37289690000000003,-0.1438107,-0.00958738,-0.07456851,35.22,-3.36,29.46
1553499880580,-8.96449,-3.757101,0.705691,-0.21837921,0.014913702,-0.06285059999999999,35.22,-3.36,29.52
1553499880600,-8.841787,-3.8001966,0.6404489000000001,-0.19600865,-0.022370555,-0.07776430000000001,35.28,-3.36,29.58
1553499880621,-8.890269,-3.726575,0.5955577,-0.10759171,-0.02876214,-0.099069595,35.28,-3.36,29.58
1553499880641,-8.806473,-3.7553053,0.37469256,-0.03089267,-0.037284255,-0.10333065,35.34,-3.36,29.52
1553499880661,-8.845977,-3.7762547,0.4309563,0.029827405,-0.007456851,-0.09161274,35.34,-3.36,29.46
1553499880681,-8.89446,-3.8121676,0.4405331,0.053263225,0.020240024,-0.056459017,35.4,-3.42,29.34
1553499880700,-8.887277000000001,-3.7253778,0.44831428,0.06498113,0.03089267,-0.039414786,35.4,-3.42,29.28
1553499880720,-8.955511,-3.6457705000000002,0.49260699999999996,0.07669904,0.03834952,-0.040480047000000005,35.4,-3.42,29.22
1553499880740,-9.001000999999999,-3.7014358,0.5638345,0.08522116,0.02876214,-0.036218993,35.46,-3.42,29.16
1553499880761,-8.933964,-3.8606502999999996,0.35254622,0.09161274,-0.007456851,-0.02876214,35.46,-3.36,29.1
1553499880780,-8.996812,-3.807978,0.40282443,0.07669904,0.018109497,-0.037284255,35.4,-3.3,29.1
1553499880801,-9.056067,-3.8235402,0.4878186,0.06178534,0.00958738,-0.05219796,35.4,-3.24,29.16
1553499880821,-9.015367,-3.9205053,0.52852005,0.05539375,0.0053263223,-0.036218993,35.4,-3.12,29.22
1553499880840,-9.06744,-3.8881836000000005,0.6817489000000001,0.07563378,-0.0031957934000000003,-0.040480047000000005,35.4,-3.0,29.28
1553499880860,-9.117719000000001,-3.816956,0.7098808000000001,0.15233281,-0.039414786,-0.05965481,35.4,-2.88,29.34
1553499880881,-9.054871,-3.7942111000000005,0.54527944,0.25140239999999997,-0.06604639400000001,-0.05006743,35.4,-2.76,29.4
1553499880901,-9.026739,-3.7367504,0.5686229,0.31638354,-0.037284255,-0.037284255,35.34,-2.64,29.4
1553499880920,-9.066243,-3.7894227999999996,0.5967548,0.37071204,-0.037284255,-0.024501082,35.34,-2.52,29.4
1553499880940,-8.96449,-3.6739025,0.5141548,0.41758367,-0.023435817999999997,-0.014913702,35.34,-2.46,29.46
1553499880960,-9.051279,-3.5368345000000003,0.66020113,0.41758367,0.0,-0.02876214,35.28,-2.4,29.4
1553499880981,-8.986636,-3.6056678,0.57760113,0.38242993,-0.017044231,-0.010652645,35.28,-2.4,29.4
1553499881001,-8.919599,-3.5368345000000003,0.5554548,0.29507825,0.007456851,0.002130529,35.22,-2.34,29.4
1553499881021,-9.000402000000001,-3.5547910000000003,0.6961141,0.15978967,0.035153727999999995,0.0053263223,35.16,-2.28,29.34
1553499881040,-8.955511,-3.5733461,0.7350199000000001,0.04261058,0.026631612000000002,0.024501082,35.1,-2.16,29.34
1553499881060,-8.884883,-3.6254199000000003,0.7278373,-0.008522116,0.037284255,0.0010652645,35.04,-1.98,29.28
1553499881081,-8.932767,-3.5470097000000003,0.80564886,0.022370555,0.05006743,-0.056459017,34.98,-1.8,29.28
1553499881101,-9.047089999999999,-3.4859576,0.7751228,0.034088463,0.04474111,-0.07350325,34.92,-1.62,29.22
1553499881121,-9.003395,-3.6248214,0.6877344,0.007456851,0.03089267,-0.03195793,34.86,-1.44,29.22
1553499881141,-8.990826,-3.726575,0.6464345,-0.010652645,0.014913702,-0.058589544,34.8,-1.26,29.28
1553499881161,-9.023147999999999,-3.6595372999999998,0.5363011999999999,-0.007456851,0.0031957934000000003,-0.08522116,34.8,-1.08,29.28
1553499881181,-9.078215,-3.590704,0.5781997,0.02130529,0.004261058,-0.07882957,34.8,-0.96,29.28
1553499881201,-9.042301,-3.6002807999999997,0.6452374,0.033023197000000004,0.013848438000000001,-0.06178534,34.8,-0.9,29.34
1553499881221,-9.087791000000001,-3.6379894999999998,0.82360536,-0.0031957934000000003,0.0010652645,-0.04474111,34.8,-0.84,29.34
1553499881240,-8.872911,-3.6990415999999997,0.6619968,-0.03089267,-0.00958738,-0.036218993,34.8,-0.84,29.4
1553499881260,-9.081805000000001,-3.657143,0.8295909,-0.07456851,-0.010652645,-0.024501082,34.86,-0.84,29.4
1553499881281,-9.003395,-3.6230257000000003,0.7194576,-0.011717908999999999,-0.002130529,-0.026631612000000002,34.86,-0.9,29.46
1553499881300,-8.948329,-3.5440169999999998,0.7015011,0.046871635999999994,0.0053263223,-0.04474111,34.92,-0.9,29.46
1553499881320,-8.913613,-3.5470097000000003,0.5781997,0.08841695,-0.011717908999999999,-0.07243799,34.92,-0.96,29.52
1553499881342,-8.896255,-3.5763388,0.57879823,0.07563378,-0.015978966,-0.07563378,34.92,-0.96,29.52
1553499881362,-8.884883,-3.6661212,0.6362591,0.020240024,-0.011717908999999999,-0.06604639400000001,34.92,-0.96,29.58
1553499881382,-8.909423,-3.6475663000000003,0.6823475,-0.022370555,0.0010652645,-0.06391586,34.92,-1.02,29.58
1553499881402,-8.951322,-3.6894648,0.65660983,-0.026631612000000002,0.013848438000000001,-0.06711166,34.92,-1.02,29.58
1553499881421,-8.886678,-3.7187938999999997,0.6703765,0.010652645,0.0053263223,-0.05219796,34.92,-1.02,29.58
1553499881441,-8.84478,-3.7523127,0.57520694,0.03834952,-0.0010652645,-0.047936900000000005,34.92,-1.02,29.58
1553499881461,-8.995614,-3.6445735,0.6955156,0.026631612000000002,0.02130529,-0.060720075,34.92,-0.96,29.58
1553499881481,-9.157822,-3.5386300000000004,1.0223241,-0.043675844000000005,-0.00958738,-0.037284255,34.92,-0.96,29.64
1553499881500,-8.681973,-3.9815574000000002,0.30466217,-0.083090626,-0.025566347000000003,0.05752428,34.98,-0.96,29.64
1553499881520,-9.007586,-3.767875,0.87208796,-0.011717908999999999,0.043675844000000005,-0.0010652645,34.98,-0.96,29.64
1553499881541,-9.169792,-3.5709519999999997,0.8888474000000001,0.111852765,0.027696876000000002,-0.08628642,34.98,-0.96,29.7
1553499881560,-9.228451,-3.4284968,0.6733691999999999,0.16937704,0.036218993,-0.01917476,35.04,-0.96,29.76
1553499881580,-9.028535,-3.5212722000000003,0.50397944,0.02130529,0.043675844000000005,-0.010652645,35.04,-0.96,29.82
1553499881600,-9.058461999999999,-3.6176388,0.6302736,-0.10439592,0.002130529,-0.008522116,35.04,-0.96,29.88
1553499881620,-8.853159,-3.6798879999999996,0.5494693,-0.15126756,-0.017044231,-0.004261058,35.04,-0.96,29.88
1553499881641,-8.851364,-3.639785,0.57041854,-0.15233281,-0.0063915867,-0.05539375,35.04,-1.02,29.94
1553499881661,-8.902241,-3.618836,0.6464345,-0.08948222,0.010652645,-0.056459017,35.04,-1.02,29.94
1553499881681,-8.946533,-3.7152026,0.6159084,-0.04580637,0.02130529,-0.026631612000000002,35.04,-1.02,29.88
1553499881701,-9.070433,-3.764882,0.7404069000000001,-0.024501082,0.023435817999999997,-0.015978966,35.1,-1.02,29.82
1553499881721,-8.948928,-3.7122097000000003,0.49440265,0.024501082,-0.008522116,-0.034088463,35.1,-1.08,29.82
1553499881741,-9.051279,-3.5003227999999997,0.5033809,0.018109497,0.012783173500000002,-0.060720075,35.1,-1.08,29.76
1553499881761,-9.094974,-3.5452142,0.57041854,-0.00958738,0.0053263223,-0.043675844000000005,35.16,-1.14,29.7
1553499881780,-9.049484,-3.6409822,0.5859809,-0.05539375,-0.013848438000000001,-0.035153727999999995,35.16,-1.2,29.7
1553499881801,-9.003994,-3.5913025999999997,0.6003460999999999,-0.08522116,-0.013848438000000001,-0.054328485999999995,35.16,-1.26,29.7
1553499881820,-8.998607000000002,-3.685275,0.6859388000000001,-0.08841695,-0.002130529,-0.029827405,35.16,-1.32,29.76
1553499881840,-8.96449,-3.7259765,0.6907272,-0.06604639400000001,0.002130529,-0.017044231,35.1,-1.38,29.76
1553499881861,-8.938153,-3.7894227999999996,0.6266823,-0.051132694000000006,0.0,-0.026631612000000002,35.1,-1.38,29.76
1553499881881,-8.92738,-3.7499184999999997,0.6584055,-0.040480047000000005,-0.00958738,-0.026631612000000002,35.1,-1.44,29.76
1553499881901,-8.954913000000001,-3.726575,0.60333884,-0.013848438000000001,-0.013848438000000001,-0.026631612000000002,35.1,-1.44,29.76
1553499881922,-8.952518,-3.8109705000000003,0.5057751,-0.002130529,-0.04261058,-0.015978966,35.1,-1.44,29.76
1553499881941,-8.883685,-3.9264907999999994,0.31304187,0.0053263223,-0.06711166,0.0,35.1,-1.5,29.82
1553499881961,-8.815451,-3.7277720000000003,0.40102878,0.06285059999999999,-0.0031957934000000003,-0.05006743,35.1,-1.5,29.88
1553499881981,-9.029133,-3.5745432,0.7230489,0.112918034,0.02876214,-0.099069595,35.1,-1.56,29.88
1553499882001,-8.980651,-3.549404,0.712275,0.12357068,0.029827405,-0.05219796,35.1,-1.62,29.94
1553499882021,-9.01417,-3.5763388,0.6332663000000001,0.06711166,0.026631612000000002,-0.040480047000000005,35.1,-1.62,29.94
1553499882041,-9.100959,-3.6032736000000005,0.80325466,-0.029827405,0.046871635999999994,-0.035153727999999995,35.16,-1.68,30.0
1553499882060,-9.013571,-3.7553053,0.6356605,-0.037284255,-0.0031957934000000003,-0.04261058,35.16,-1.68,30.06
1553499882081,-9.071032,-3.6715082999999997,0.4369418,-0.0063915867,-0.002130529,-0.06924219,35.16,-1.62,30.12
1553499882101,-9.108141999999999,-3.7169980000000002,0.51714754,0.027696876000000002,0.004261058,-0.060720075,35.1,-1.62,30.12
1553499882120,-9.049484,-3.7241807000000002,0.5009867,0.036218993,-0.002130529,-0.04474111,35.1,-1.56,30.12
1553499882140,-9.004593,-3.6601357000000005,0.6332663000000001,0.03089267,0.004261058,-0.034088463,35.1,-1.44,30.12
1553499882161,-9.0315275,-3.5966894999999997,0.6937199000000001,0.05539375,0.013848438000000001,-0.033023197000000004,35.1,-1.38,30.12
1553499882181,-9.053674,-3.5793315999999997,0.61112,0.07669904,0.012783173500000002,-0.026631612000000002,35.1,-1.38,30.12
1553499882201,-9.011775,-3.5583823,0.5614403,0.05965481,0.0053263223,-0.024501082,35.1,-1.38,30.12
1553499882220,-9.010578,-3.6254199000000003,0.5710170999999999,0.01917476,-0.014913702,-0.011717908999999999,35.1,-1.38,30.12
1553499882240,-8.930372,-3.6864722000000003,0.2669535,-0.0010652645,-0.039414786,0.0031957934000000003,35.1,-1.44,30.12
1553499882261,-8.986037,-3.6391866000000004,0.54767364,0.011717908999999999,-0.0010652645,-0.023435817999999997,35.04,-1.5,30.12
1553499882281,-8.936956,-3.6110547,0.57400984,0.07030745599999999,0.0,-0.041545313,35.04,-1.56,30.12
1553499882301,-8.916606,-3.5362358,0.5554548,0.083090626,0.012783173500000002,-0.043675844000000005,34.98,-1.62,30.06
1553499882321,-9.024344000000001,-3.6050692000000004,0.7218518,0.049002163,0.024501082,-0.036218993,34.92,-1.68,30.06
1553499882341,-9.022549,-3.7086184,0.6374562,0.023435817999999997,-0.0063915867,-0.008522116,34.86,-1.62,30.0
1553499882360,-9.029133,-3.7116113,0.45848963,-0.008522116,-0.002130529,-0.02130529,34.86,-1.62,30.0
1553499882381,-9.113529,-3.675698,0.5434838000000001,-0.03834952,0.012783173500000002,-0.049002163,34.74,-1.5,29.94
1553499882401,-9.091382000000001,-3.6822822,0.57520694,0.0010652645,0.020240024,-0.024501082,34.74,-1.44,30.0
1553499882421,-8.983044999999999,-3.6499605,0.63206923,0.039414786,0.02876214,-0.039414786,34.74,-1.38,30.0
1553499882441,-9.036316000000001,-3.5727474999999997,0.5626374,0.06924219,0.03089267,-0.06604639400000001,34.86,-1.32,29.94
1553499882460,-9.111733000000001,-3.6355953000000003,0.6099229,0.041545313,-0.010652645,-0.05006743,34.92,-1.26,29.88
1553499882480,-8.992023,-3.7187938999999997,0.49559975,0.018109497,-0.018109497,-0.036218993,35.04,-1.26,29.88
1553499882501,-8.944139,-3.6493617999999994,0.6817489000000001,0.018109497,-0.010652645,-0.060720075,35.1,-1.26,29.82
1553499882521,-8.996213000000001,-3.5739446000000004,0.6206968,0.06391586,-0.0010652645,-0.04580637,35.04,-1.26,29.76
1553499882541,-8.932767,-3.5966894999999997,0.6159084,0.06711166,0.002130529,-0.033023197000000004,35.04,-1.26,29.7
1553499882561,-8.994417,-3.5296519,0.5943606,0.051132694000000006,-0.002130529,-0.03834952,35.04,-1.2,29.64
1553499882580,-9.006986999999999,-3.5212722000000003,0.56922144,0.03089267,-0.0053263223,-0.022370555,34.98,-1.14,29.64
1553499882600,-8.996812,-3.5404258,0.52253455,0.014913702,-0.002130529,-0.026631612000000002,34.86,-1.02,29.7
1553499882620,-9.019556,-3.5775358999999995,0.59017074,0.0,0.0010652645,-0.03089267,34.8,-0.96,29.88
1553499882640,-8.9279785,-3.6894648,0.44831428,-0.011717908999999999,-0.036218993,-0.02130529,34.74,-0.9,30.12
1553499882661,-8.911219000000001,-3.7762547,0.38486794,0.0010652645,-0.03834952,-0.017044231,34.74,-0.84,30.3
1553499882681,-8.89446,-3.7307648999999996,0.36930559999999996,0.034088463,-0.02130529,-0.05965481,34.8,-0.78,30.54
1553499882701,-9.019556,-3.7056258,0.6171055000000001,0.054328485999999995,0.014913702,-0.06391586,34.8,-0.78,30.66
1553499882721,-9.006986999999999,-3.7720647000000005,0.717662,0.08628642,0.018109497,-0.058589544,34.86,-0.78,30.78
1553499882741,-9.0842,-3.639785,0.7577648,0.11504856,0.023435817999999997,-0.060720075,34.86,-0.78,30.78
1553499882761,-9.114726,-3.5709519999999997,0.7398083000000001,0.12996227,0.035153727999999995,-0.035153727999999995,34.92,-0.84,30.72
1553499882780,-9.205706,-3.5835214,0.80564886,0.10546118,0.023435817999999997,-0.008522116,34.98,-0.84,30.66
1553499882800,-9.106945,-3.5631707,0.6326678000000001,0.07456851,0.020240024,-0.004261058,35.04,-0.84,30.48
1553499882822,-9.143456,-3.5476084,0.52852005,0.06285059999999999,-0.014913702,-0.037284255,35.1,-0.9,30.42
1553499882840,-9.085996000000002,-3.4440591,0.4189853,0.02876214,-0.025566347000000003,-0.043675844000000005,35.1,-0.9,30.3
1553499882860,-9.008782,-3.5302502999999996,0.53091425,0.0031957934000000003,-0.03089267,-0.035153727999999995,35.16,-0.96,30.24
1553499882881,-8.95611,-3.5954924,0.58418524,-0.008522116,-0.034088463,-0.043675844000000005,35.16,-0.96,30.24
1553499882901,-8.932167999999999,-3.5446155,0.6440403,0.0,-0.037284255,-0.04261058,35.16,-0.96,30.24
1553499882921,-8.93935,-3.5589809999999997,0.7236475,0.007456851,-0.01917476,-0.020240024,35.1,-1.02,30.24
1553499882941,-8.940548,-3.630807,0.6799533,0.002130529,-0.022370555,-0.02876214,35.04,-0.96,30.24
1553499882960,-9.029732000000001,-3.6206315000000004,0.635062,-0.025566347000000003,-0.017044231,-0.035153727999999995,34.98,-0.84,30.24
1553499882980,-8.969278,-3.7283707,0.51355624,-0.03195793,-0.029827405,-0.022370555,34.92,-0.78,30.24
1553499883001,-8.905831,-3.7391446000000004,0.48003745,0.002130529,-0.037284255,-0.024501082,34.86,-0.66,30.24
1553499883021,-8.954913000000001,-3.6661212,0.7230489,0.06391586,-0.0053263223,-0.040480047000000005,34.8,-0.54,30.18
1553499883041,-8.942942,-3.6834792999999997,0.7344214,0.12250541,-0.002130529,-0.046871635999999994,34.74,-0.42,30.18
1553499883061,-8.993818,-3.6194344,0.7278373,0.12783173,-0.002130529,-0.058589544,34.74,-0.3,30.18
1553499883081,-9.052477,-3.6541502,0.6847416999999999,0.15978967,-0.013848438000000001,-0.07563378,34.68,-0.24,30.18
1553499883101,-9.024344000000001,-3.6218286,0.65062433,0.165116,0.002130529,-0.056459017,34.68,-0.18,30.12
1553499883121,-9.045294,-3.639785,0.7326256999999999,0.15765914,-0.0053263223,-0.047936900000000005,34.74,-0.24,30.12
1553499883141,-9.099762,-3.5416229,0.7032967,0.12463594,-0.008522116,-0.04261058,34.74,-0.24,30.06
1553499883161,-9.083601,-3.5242648,0.6961141,0.08841695,0.0063915867,-0.025566347000000003,34.74,-0.24,30.0
1553499883181,-9.022549,-3.5224693,0.74758947,0.05006743,0.008522116,-0.024501082,34.74,-0.24,30.0
1553499883201,-9.0716305,-3.4434607,0.78649527,0.026631612000000002,0.0,-0.03834952,34.8,-0.24,29.94
1553499883221,-9.072827,-3.489549,0.84814596,-0.0063915867,0.0031957934000000003,-0.02876214,34.8,-0.24,29.88
1553499883241,-9.037513,-3.602675,0.8206126,-0.01917476,-0.012783173500000002,-0.027696876000000002,34.8,-0.24,29.88
1553499883260,-8.965088,-3.5458126000000005,0.62249243,-0.007456851,-0.027696876000000002,-0.053263225,34.74,-0.24,29.88
1553499883281,-8.967483,-3.5871127,0.62009823,-0.004261058,-0.020240024,-0.053263225,34.74,-0.18,29.88
1553499883300,-9.007586,-3.6421792999999996,0.6500258000000001,-0.0063915867,-0.020240024,-0.046871635999999994,34.74,-0.18,29.88
1553499883320,-9.01417,-3.590704,0.6332663000000001,-0.014913702,-0.027696876000000002,-0.060720075,34.68,-0.12,29.94
1553499883340,-8.993818,-3.6074634,0.7158663000000001,-0.029827405,-0.025566347000000003,-0.05965481,34.68,-0.12,29.94
1553499883361,-8.978855000000001,-3.6403837,0.7553706,-0.02876214,-0.027696876000000002,-0.051132694000000006,34.68,-0.06,30.0
1553499883380,-8.9842415,-3.618836,0.7410054,0.00958738,-0.046871635999999994,-0.05965481,34.68,-0.12,30.06
1553499883401,-8.96449,-3.6152446000000005,0.670975,0.037284255,-0.029827405,-0.053263225,34.68,-0.12,30.06
1553499883420,-8.932767,-3.5721489999999996,0.6943185000000001,0.047936900000000005,-0.023435817999999997,-0.06498113,34.74,-0.12,30.06
1553499883441,-8.989628999999999,-3.5523968,0.7332243,0.017044231,-0.0053263223,-0.068176925,34.74,-0.12,30.12
1553499883460,-8.9758625,-3.6320040000000002,0.75716627,-0.025566347000000003,0.004261058,-0.049002163,34.74,-0.12,30.06
1553499883481,-8.971074,-3.6505589999999994,0.7745243,-0.025566347000000003,-0.008522116,-0.06391586,34.74,-0.06,30.06
1553499883501,-9.008782,-3.5446155,0.6817489000000001,0.008522116,0.0031957934000000003,-0.096939065,34.74,-0.06,30.06
1553499883521,-9.1829605,-3.5410242,0.87328506,0.02130529,0.0053263223,-0.07882957,34.74,0.06,30.06
1553499883541,-9.068638,-3.690662,0.7433996,0.008522116,-0.00958738,-0.037284255,34.68,0.12,30.06
1553499883561,-8.950723,-3.6667199999999998,0.82001406,-0.01917476,0.018109497,-0.043675844000000005,34.74,0.12,30.06
1553499883581,-9.012972,-3.697246,0.79128367,-0.026631612000000002,0.002130529,-0.056459017,34.8,0.18,30.06
1553499883600,-8.9842415,-3.7193922999999995,0.7541734999999999,0.007456851,0.002130529,-0.013848438000000001,34.8,0.18,30.06
1553499883620,-8.932767,-3.6996403,0.6841431,0.049002163,0.004261058,-0.020240024,34.86,0.18,30.06
1553499883642,-9.012972,-3.602675,0.7278373,0.07030745599999999,-0.012783173500000002,-0.035153727999999995,34.92,0.12,30.06
1553499883661,-8.941745,-3.5685577000000004,0.7242460000000001,0.049002163,-0.024501082,-0.035153727999999995,34.92,0.12,30.06
1553499883681,-8.926183,-3.6511576,0.8218097,0.00958738,-0.034088463,-0.029827405,34.98,0.12,30.06
1553499883700,-8.944737,-3.7056258,0.80445176,-0.004261058,-0.037284255,-0.043675844000000005,35.04,0.12,30.06
1553499883721,-8.971074,-3.681085,0.748188,0.01917476,-0.03089267,-0.054328485999999995,35.1,0.18,30.06
1553499883741,-8.9519205,-3.6487634,0.7110779,0.03834952,-0.0063915867,-0.049002163,35.1,0.24,30.06
1553499883760,-9.078813,-3.675698,0.7954735,0.010652645,0.0031957934000000003,-0.037284255,35.1,0.36,30.06
1553499883781,-9.015965,-3.6828809000000002,0.6380547,-0.0053263223,-0.011717908999999999,-0.02876214,35.16,0.48,30.06
1553499883801,-8.991425,-3.6936547999999996,0.7787141,0.011717908999999999,-0.014913702,-0.039414786,35.16,0.54,30.06
1553499883821,-8.962694,-3.5972881,0.7625531999999999,0.05539375,-0.015978966,-0.04261058,35.16,0.6,30.06
1553499883841,-8.925583999999999,-3.5386300000000004,0.7565677,0.07137272,0.008522116,-0.04474111,35.16,0.66,30.0
1553499883863,-8.953716,-3.5709519999999997,0.78410107,0.04474111,0.011717908999999999,-0.039414786,35.16,0.72,30.0
1553499883883,-8.957906,-3.5972881,0.7248446,0.010652645,0.008522116,-0.037284255,35.16,0.72,30.0
1553499883901,-9.019556,-3.54282,0.6955156,-0.04474111,-0.002130529,-0.041545313,35.16,0.66,30.0
1553499883923,-9.005191,-3.5841199999999995,0.6973111999999999,-0.051132694000000006,-0.008522116,-0.034088463,35.1,0.54,30.06
1553499883942,-8.966884,-3.6224272000000006,0.7098808000000001,-0.037284255,-0.0063915867,-0.027696876000000002,35.1,0.48,30.06
1553499883962,-8.95611,-3.6355953000000003,0.7685388000000001,-0.013848438000000001,-0.007456851,-0.033023197000000004,35.1,0.42,30.06
1553499883982,-8.941745,-3.6780925000000004,0.8265981,-0.002130529,-0.013848438000000001,-0.039414786,35.04,0.36,30.12
1553499884002,-8.996213000000001,-3.6697125,0.7529764,0.00958738,-0.01917476,-0.051132694000000006,35.04,0.3,30.12
1553499884021,-8.980651,-3.6637269999999997,0.6147113000000001,0.008522116,-0.018109497,-0.049002163,35.04,0.36,30.12
1553499884041,-8.963891,-3.6774937999999993,0.76075757,-0.010652645,-0.0010652645,-0.033023197000000004,35.04,0.36,30.12
1553499884060,-8.98484,-3.6816837999999996,0.7835025,0.0063915867,0.0,-0.037284255,35.04,0.36,30.12
1553499884080,-9.011775,-3.5895068999999995,0.7206547,0.022370555,-0.011717908999999999,-0.04474111,35.04,0.42,30.06
1553499884101,-9.033921000000001,-3.5422212999999996,0.79966336,0.017044231,-0.0010652645,-0.033023197000000004,35.04,0.48,30.06
1553499884120,-9.033323,-3.5960910000000004,0.7326256999999999,0.011717908999999999,-0.002130529,-0.01917476,35.04,0.48,30.0
1553499884141,-8.974665,-3.5625722,0.7098808000000001,-0.017044231,0.012783173500000002,-0.03089267,35.04,0.54,30.0
1553499884161,-9.054273,-3.6176388,0.748188,-0.034088463,-0.013848438000000001,-0.037284255,35.04,0.54,30.0
1553499884180,-8.962095,-3.6032736000000005,0.6607997,-0.082025364,-0.018109497,-0.026631612000000002,35.04,0.54,30.0
1553499884200,-8.868122999999999,-3.6098576,0.7589619000000001,-0.094808534,-0.0031957934000000003,-0.05006743,35.04,0.48,30.0
1553499884221,-8.992023,-3.5110967000000004,0.8182184,-0.05006743,0.002130529,-0.07776430000000001,35.04,0.42,30.0
1553499884241,-8.988432000000001,-3.5727474999999997,0.76434886,0.0,-0.0031957934000000003,-0.060720075,35.04,0.36,30.0
1553499884261,-8.96449,-3.6583402,0.6464345,0.00958738,-0.014913702,-0.040480047000000005,35.04,0.3,30.0
1553499884281,-8.977658,-3.7954082000000002,0.55964464,-0.040480047000000005,-0.007456851,-0.02876214,35.04,0.24,30.0
1553499884301,-8.932767,-3.8564602999999997,0.80684596,-0.034088463,-0.002130529,-0.017044231,35.04,0.18,29.94
1553499884320,-8.933365,-3.6553473,0.6123171,0.029827405,-0.040480047000000005,-0.058589544,35.04,0.18,29.94
1553499884340,-9.035717,-3.6260185,0.682946,0.01917476,0.0010652645,-0.025566347000000003,35.04,0.12,29.94
1553499884360,-9.069236,-3.74094,0.86011696,0.011717908999999999,0.011717908999999999,0.013848438000000001,35.04,0.06,29.88
1553499884380,-9.045893,-3.7433343,0.7290344,-0.0010652645,0.007456851,0.0010652645,35.04,0.06,29.94
1553499884402,-9.196128999999999,-3.6056678,0.7272388000000001,-0.01917476,0.026631612000000002,0.0,35.1,0.06,29.94
1553499884422,-9.1590185,-3.6242227999999996,0.84814596,-0.017044231,0.035153727999999995,0.03089267,35.1,0.06,30.0
1553499884442,-9.048885,-3.6559459999999997,0.7679402,0.05006743,-0.008522116,0.020240024,35.16,0.06,30.0
1553499884462,-8.960898,-3.4284968,0.5805939,0.08628642,-0.015978966,-0.03834952,35.16,0.06,30.06
1553499884482,-8.972271000000001,-3.3608606,0.688333,0.09161274,-0.012783173500000002,-0.039414786,35.22,0.06,30.06
1553499884501,-8.845977,-3.4045547999999997,0.6991069000000001,0.06391586,-0.022370555,0.0010652645,35.22,0.06,30.06
1553499884521,-8.842984,-3.627814,0.7338228,0.01917476,-0.014913702,0.0031957934000000003,35.22,0.06,30.06
1553499884541,-8.855554,-3.642778,0.7673416999999999,-0.010652645,-0.029827405,-0.046871635999999994,35.22,0.0,30.0
1553499884561,-9.005191,-3.5757402999999996,0.7781156,0.0,-0.037284255,-0.07030745599999999,35.16,0.0,30.0
1553499884580,-9.039309,-3.590704,0.7026982,0.02130529,-0.05965481,-0.06178534,35.16,0.0,30.0
1553499884600,-8.941745,-3.5595794,0.6991069000000001,0.017044231,-0.02130529,-0.083090626,35.16,-0.06,29.94
1553499884620,-9.006389,-3.5847184999999997,0.8702923,0.020240024,0.0053263223,-0.1107875,35.1,-0.12,29.94
1553499884641,-9.168595,-3.4584242999999995,1.0043676,0.0063915867,0.041545313,-0.15339808,35.04,-0.18,29.94
1553499884660,-9.126099,-3.5853171,0.6859388000000001,-0.02876214,-0.012783173500000002,-0.094808534,35.04,-0.18,30.0
1553499884680,-8.9519205,-3.8420951,0.7164649000000001,-0.07350325,0.017044231,0.02130529,34.98,-0.24,30.0
1553499884700,-9.033323,-3.9803602999999996,0.664391,-0.13209279,0.010652645,0.011717908999999999,34.98,-0.24,30.0
1553499884721,-8.990826,-3.945046,0.6703765,-0.12463594,0.013848438000000001,0.026631612000000002,34.92,-0.3,30.0
1553499884740,-8.92319,-3.8504747999999998,0.8571242,-0.054328485999999995,0.036218993,0.05006743,34.92,-0.36,30.0
1553499884762,-8.952518,-3.8456864,0.8678981,0.041545313,0.040480047000000005,0.047936900000000005,34.92,-0.48,30.0
1553499884782,-8.982447,-3.6140475,0.7625531999999999,0.14594123,0.046871635999999994,0.049002163,34.98,-0.6,30.0
1553499884804,-9.064447,-3.5541922999999995,0.65900403,0.19068234,0.05752428,0.06391586,34.98,-0.66,30.0
1553499884823,-9.085996000000002,-3.4883518,0.7266402,0.18642128,0.056459017,0.06178534,34.98,-0.78,30.06
1553499884842,-9.109339,-3.3680432000000002,0.5315128,0.1587244,-0.0010652645,0.03834952,34.98,-0.9,30.06
1553499884861,-9.050680999999999,-3.252523,0.50996494,0.12144015,0.004261058,0.015978966,34.98,-0.96,30.06
1553499884881,-9.047089999999999,-3.2040405,0.7428011,0.06924219,0.012783173500000002,0.0031957934000000003,34.98,-1.02,30.12
1553499884901,-8.951322,-3.2190042,0.74639237,0.025566347000000003,0.0063915867,0.004261058,34.98,-1.02,30.12
1553499884921,-8.926781,-3.2776620000000003,0.664391,-0.03834952,0.014913702,0.0053263223,34.98,-0.96,30.12
1553499884940,-9.012972,-3.4542346,0.6703765,-0.09054748,0.02876214,0.0053263223,34.92,-0.84,30.12
1553499884960,-9.015367,-3.5763388,0.7799111999999999,-0.07563378,0.013848438000000001,-0.01917476,34.92,-0.72,30.12
1553499884980,-8.977658,-3.4877534,0.5386954,-0.033023197000000004,-0.012783173500000002,-0.051132694000000006,34.92,-0.66,30.12
1553499885001,-8.983044999999999,-3.4877534,0.55246204,-0.03089267,0.022370555,-0.022370555,34.86,-0.54,30.12
1553499885020,-8.978855000000001,-3.5559879999999997,0.6679823,-0.00958738,0.026631612000000002,-0.002130529,34.86,-0.54,30.12
1553499885040,-9.062652,-3.5260606,0.7350199000000001,0.029827405,0.041545313,-0.024501082,34.86,-0.48,30.12
