TimeStamp,Ax,Ay,Az,Gx,Gy,Gz,Mx,My,Mz
1554206669667,-9.763555,-0.8960299999999999,0.6314706999999999,0.08628642,0.026631612000000002,-0.013848438000000001,103.56,13.32,-13.14
1554206669686,-9.830592,-0.8146270999999999,0.44472298,0.10546118,0.03089267,-0.011717908999999999,103.56,13.38,-13.08
1554206669706,-9.816227,-0.84814596,0.38726214,0.07563378,0.022370555,-0.015978966,103.62,13.38,-12.96
1554206669727,-9.725247,-0.84814596,0.28670564,0.03834952,-0.0053263223,-0.018109497,103.56,13.38,-12.9
1554206669746,-9.677363,-0.9343372,0.29149407,0.03195793,-0.013848438000000001,-0.02876214,103.56,13.38,-12.84
1554206669767,-9.619903,-0.9391255999999999,0.49739540000000004,0.034088463,-0.033023197000000004,-0.04261058,103.5,13.38,-12.84
1554206669787,-9.68694,-0.95349085,0.6985083000000001,0.024501082,-0.03834952,-0.040480047000000005,103.44,13.32,-12.84
1554206669807,-9.701305,-0.9008184000000001,0.75596917,-0.013848438000000001,-0.02876214,-0.025566347000000003,103.32,13.32,-12.84
1554206669826,-9.68694,-0.95827925,0.74639237,-0.05219796,-0.017044231,-0.018109497,103.26,13.26,-12.84
1554206669846,-9.629479,-0.96785605,0.54049104,-0.037284255,-0.008522116,-0.02876214,103.2,13.26,-12.84
1554206669867,-9.648633,-0.9439139999999999,0.54049104,0.06178534,0.002130529,-0.040480047000000005,103.2,13.2,-12.84
1554206669887,-9.619903,-0.9008184000000001,0.6027403,0.15020229,0.0010652645,-0.025566347000000003,103.2,13.14,-12.84
1554206669906,-9.739613,-0.87208796,0.6218939,0.128897,0.012783173500000002,-0.008522116,103.26,13.14,-12.78
1554206669926,-9.619903,-0.84335756,0.7272388000000001,0.05752428,0.033023197000000004,-0.014913702,103.32,13.14,-12.78
1554206669947,-9.634267999999999,-0.66618663,0.6171055000000001,0.033023197000000004,0.04580637,-0.037284255,103.32,13.14,-12.78
1554206669967,-9.677363,-0.6997054,0.23882163,0.01917476,0.034088463,-0.051132694000000006,103.38,13.08,-12.78
1554206669987,-9.682152,-0.8050503000000001,0.3345897,-0.029827405,0.0010652645,-0.037284255,103.44,13.08,-12.78
1554206670007,-9.730036,-0.8960299999999999,0.39683893,-0.07350325,-0.026631612000000002,-0.039414786,103.44,13.08,-12.78
1554206670027,-9.816227,-0.98222125,0.34895490000000007,-0.094808534,-0.05006743,-0.041545313,103.44,13.08,-12.84
1554206670046,-9.763555,-0.76195467,0.8182184,-0.12357068,-0.058589544,-0.026631612000000002,103.44,13.02,-12.84
1554206670066,-9.65821,-0.8912416,0.65541273,-0.1438107,-0.047936900000000005,-0.02130529,103.44,12.96,-12.84
1554206670087,-9.801862,-0.9199719999999999,0.66498953,-0.13422333,-0.036218993,-0.03089267,103.44,12.96,-12.84
1554206670106,-9.749189,-1.0253168,0.6937199000000001,-0.07137272,-0.04261058,-0.02876214,103.44,12.9,-12.78
1554206670126,-9.744401,-1.0923545000000001,0.49739540000000004,0.0053263223,-0.047936900000000005,-0.020240024,103.44,12.9,-12.72
1554206670146,-9.749189,-0.9439139999999999,0.7368156,0.054328485999999995,-0.049002163,-0.015978966,103.44,12.9,-12.66
1554206670166,-9.619903,-0.96785605,0.6314706999999999,0.06924219,-0.05006743,-0.01917476,103.44,12.9,-12.66
1554206670187,-9.557653,-0.88645315,0.6985083000000001,0.05219796,-0.04580637,-0.022370555,103.5,12.9,-12.6
1554206670206,-9.600749,-0.9295488000000001,0.7272388000000001,0.011717908999999999,-0.036218993,-0.015978966,103.5,12.96,-12.6
1554206670227,-9.701305,-0.84814596,0.7703344,-0.0010652645,-0.02876214,-0.011717908999999999,103.44,13.02,-12.6
1554206670246,-9.773131,-0.82899237,0.7990648,0.0031957934000000003,-0.029827405,-0.014913702,103.44,13.08,-12.6
1554206670267,-9.667786999999999,-0.84814596,0.75118077,0.00958738,-0.03834952,-0.023435817999999997,103.44,13.14,-12.6
1554206670293,-9.634267999999999,-0.83378077,0.6410475,-0.024501082,-0.03195793,-0.02876214,103.5,13.14,-12.66
1554206670307,-9.639056,-0.7715314999999999,0.64583594,-0.05006743,-0.024501082,-0.029827405,103.5,13.2,-12.72
1554206670327,-9.619903,-0.8146270999999999,0.55964464,-0.12570119999999999,-0.0063915867,-0.029827405,103.5,13.14,-12.78
1554206670346,-9.725247,-0.7428011,0.3633201,-0.14594123,-0.0063915867,-0.02876214,103.44,13.14,-12.84
1554206670367,-9.662998,-0.6278794,0.3298013,-0.20026971,-0.037284255,-0.033023197000000004,103.44,13.14,-12.84
1554206670387,-9.586383999999999,-0.55605334,0.38726214,-0.2727077,-0.058589544,-0.043675844000000005,103.44,13.14,-12.9
1554206670407,-9.595961,-0.75237787,0.5979519,-0.33129725,-0.06178534,-0.06391586,103.44,13.14,-12.96
1554206670427,-9.643844999999999,-0.84335756,0.75118077,-0.34621096,-0.054328485999999995,-0.06604639400000001,103.38,13.14,-12.96
1554206670447,-9.624691,-0.84335756,0.6027403,-0.30253512,-0.041545313,-0.051132694000000006,103.44,13.14,-12.96
1554206670467,-9.725247,-0.9487024,0.55964464,-0.27057716,-0.05219796,-0.04580637,103.5,13.14,-12.96
1554206670487,-9.643844999999999,-0.99179804,0.65541273,-0.25885928,-0.07137272,-0.043675844000000005,103.56,13.2,-12.9
1554206670507,-9.615114,-0.98222125,0.64583594,-0.22796659,-0.07669904,-0.033023197000000004,103.68,13.32,-12.84
1554206670526,-9.662998,-1.0157399999999999,0.75118077,-0.15765914,-0.07669904,-0.023435817999999997,103.74,13.44,-12.78
1554206670546,-9.696517,-0.96306765,0.96187055,-0.08735169,-0.07563378,-0.020240024,103.8,13.62,-12.72
1554206670566,-9.581595,-0.9008184000000001,0.8182184,0.00958738,-0.05965481,-0.013848438000000001,103.86,13.8,-12.6
1554206670587,-9.715671,-0.84335756,0.76554596,0.06391586,-0.035153727999999995,-0.007456851,103.98,13.98,-12.54
1554206670607,-9.576807,-0.7188591,0.7032967,0.04474111,-0.022370555,-0.0063915867,103.98,14.16,-12.48
1554206670626,-9.600749,-0.7858967,0.87567925,-0.014913702,-0.0053263223,-0.011717908999999999,103.92,14.34,-12.48
1554206670647,-9.672575,-0.66139823,0.7942764,-0.06498113,-0.0010652645,-0.014913702,103.86,14.46,-12.42
1554206670667,-9.572019000000001,-0.6997054,0.65062433,-0.13954964,0.007456851,-0.018109497,103.86,14.58,-12.36
1554206670686,-9.734824,-0.6135142,0.41599256,-0.22796659,0.0031957934000000003,-0.013848438000000001,103.8,14.7,-12.36
1554206670707,-9.643844999999999,-0.57999533,0.3633201,-0.39521313,-0.012783173500000002,-0.0031957934000000003,103.74,14.76,-12.36
1554206670727,-9.792285000000001,-0.40761283,-0.20171149,-0.65194184,-0.051132694000000006,-0.0053263223,103.74,14.82,-12.3
1554206670747,-9.749189,-0.41718966,-0.22565351,-0.99495703,-0.09161274,-0.026631612000000002,103.68,14.88,-12.3
1554206670767,-9.840169,-0.55126494,0.0041898529999999995,-1.3156016000000001,-0.15126756,-0.05965481,103.62,14.94,-12.24
1554206670786,-9.615114,-0.6183026,0.41599256,-1.4594122999999999,-0.20133498,-0.07776430000000001,103.5,15.0,-12.12
1554206670806,-9.615114,-0.86251116,0.6937199000000001,-1.4476944,-0.2066613,-0.099069595,103.44,15.18,-11.88
1554206670827,-9.706094,-0.7858967,0.7080852,-1.438107,-0.19281286,-0.113983296,103.32,15.42,-11.46
1554206670846,-9.672575,-0.5033809,0.3537433,-1.5883093000000001,-0.17789917,-0.10865697,103.26,15.78,-10.98
1554206670866,-9.749189,-0.3405752,-0.31184477,-1.9419771000000001,-0.18216023,-0.13422333,103.2,16.44,-10.26
1554206670887,-9.682152,-0.6039374,-0.019752163,-2.396845,-0.22583607,-0.20453078,103.14,17.1,-9.48
1554206670906,-9.543288,-1.1210848999999998,0.22445641,-2.6876621,-0.22583607,-0.28122982,103.08,17.82,-8.7
1554206670926,-9.667786999999999,-1.6717514,0.5117606,-2.7814054,-0.22264028,-0.3153183,103.02,18.66,-7.8
1554206670947,-9.557653,-1.9925743000000002,0.6218939,-2.6961844,-0.20559604,-0.28655612,102.96,19.62,-6.78
1554206670967,-9.447519999999999,-2.0691888,0.5883751,-2.5108283,-0.16937704,-0.25672874,102.9,20.64,-5.7
1554206670987,-9.461885,-1.7435773999999997,0.4878186,-2.4149543999999996,-0.12463594,-0.24607609,102.84,21.72,-4.44
1554206671006,-9.581595,-1.762731,0.44951138,-2.4437168,-0.08628642,-0.24927188,102.78,22.68,-3.24
1554206671026,-9.629479,-1.9351135,0.40641573,-2.514024,-0.06178534,-0.28442562,102.72,23.4,-1.92
1554206671046,-9.552864999999999,-2.461838,0.22445641,-2.385127,-0.037284255,-0.31105720000000003,102.66,24.12,-0.6
1554206671067,-9.701305,-3.0460230999999998,-0.30226797,-2.0186759999999997,-0.056459017,-0.30892670000000005,102.54,24.84,0.96
1554206671086,-9.619903,-3.4099417,0.05207389,-1.5169365,-0.12037488,-0.23861924,102.42,25.56,2.52
1554206671107,-9.394848,-3.3141737,0.48303019999999997,-0.8905610999999999,-0.1470065,-0.14274544,102.24,26.16,4.2
1554206671127,-9.212888000000001,-3.232771,0.76554596,-0.23329292,-0.14487597,-0.094808534,102.06,26.64,5.7
1554206671146,-9.399636,-3.2279825,0.66020113,0.39414784,-0.12783173,-0.07456851,101.88,27.06,6.9
1554206671166,-9.586383999999999,-2.7299886000000004,0.49260699999999996,0.8767126000000001,-0.101200126,-0.0010652645,101.58,27.66,8.46
1554206671187,-9.595961,-1.9255368000000002,0.09516951400000001,0.850081,-0.07776430000000001,0.07137272,101.4,28.02,9.24
1554206671207,-9.428367,-1.3605051000000001,-0.091578215,0.42717105,-0.082025364,0.112918034,101.22,28.2,9.6
1554206671226,-9.519346,-1.0109516,-0.110731825,-0.15659387,-0.07989483,0.011717908999999999,100.92,28.56,10.26
1554206671247,-9.634267999999999,-1.7914615000000003,0.11432313,-0.6412892,-0.080960095,-0.165116,100.74,28.68,10.26
1554206671267,-9.533711,-2.3038206000000003,0.38726214,-0.68176925,-0.12463594,-0.18961707,100.68,28.8,10.2
1554206671287,-9.514558000000001,-2.6150667999999997,0.49739540000000004,-0.43356264,-0.12250541,-0.12037488,100.62,28.86,10.08
1554206671306,-9.433155000000001,-2.4187422,0.43993455,-0.19813919,-0.10546118,-0.056459017,100.56,28.86,9.96
1554206671326,-9.375694000000001,-2.2463598,0.3681085,0.037284255,-0.10759171,-0.010652645,100.5,28.8,9.78
1554206671369,-9.323022,-2.2750902,0.95229375,0.084155895,-0.08735169,-0.08522116,100.56,28.68,9.6
1554206671369,-9.323022,-2.2750902,0.95229375,0.084155895,-0.08735169,-0.08522116,100.56,28.68,9.6
1554206671386,-9.595961,-2.1649568,0.99538934,0.07989483,-0.013848438000000001,-0.049002163,100.56,28.56,9.54
1554206671406,-9.552864999999999,-1.9686323000000001,0.6889314999999999,0.026631612000000002,0.03089267,0.010652645,100.62,28.32,9.6
1554206671426,-9.634267999999999,-1.9207484000000001,0.47824179999999994,-0.02130529,0.06178534,0.00958738,100.62,28.02,9.6
1554206671446,-9.65821,-1.9111716,0.22445641,-0.04261058,0.04474111,-0.020240024,100.62,27.72,9.6
1554206671466,-9.773131,-1.9207484000000001,0.076015905,-0.024501082,0.013848438000000001,-0.020240024,100.5,27.42,9.6
1554206671487,-9.619903,-1.8537107,0.12389994,-0.026631612000000002,-0.037284255,0.0,100.44,27.12,9.6
1554206671506,-9.495403999999999,-1.7100586,0.17657238,-0.043675844000000005,-0.06391586,0.020240024,100.32,26.82,9.54
1554206671526,-9.414000999999999,-1.6382325,0.20051439,-0.15339808,-0.082025364,0.026631612000000002,100.26,26.46,9.54
1554206671546,-9.337387,-1.6095021,0.28191724,-0.34194988,-0.09587380000000001,0.015978966,100.14,26.16,9.54
1554206671566,-9.323022,-1.9351135,0.74639237,-0.47404268,-0.09267801,0.020240024,100.08,25.92,9.54
1554206671587,-9.246407000000001,-2.0165164,0.83737206,-0.46232477,-0.08522116,-0.008522116,100.02,25.8,9.6
1554206671606,-9.466674000000001,-2.3708582000000002,0.7990648,-0.34408042,-0.03089267,-0.026631612000000002,100.02,25.8,9.72
1554206671626,-9.605537,-2.356493,0.83737206,-0.2695119,0.013848438000000001,-0.015978966,100.02,25.74,9.78
1554206671646,-9.5385,-2.380435,0.5931635000000001,-0.20772657,0.06498113,0.046871635999999994,100.02,25.68,10.08
1554206671667,-9.500193,-2.2511482000000003,0.56443304,-0.14061491,0.10439592,0.099069595,100.02,25.68,10.32
1554206671686,-9.581595,-2.332551,0.21487960000000003,-0.026631612000000002,0.12783173,0.10226539,100.02,25.56,10.62
1554206671707,-9.615114,-2.1745335999999997,0.13826515,0.13209279,0.13209279,0.1107875,100.02,25.44,10.92
1554206671726,-9.543288,-2.059612,-0.0005985504,0.26205507,0.1107875,0.12463594,99.96,25.32,11.22
1554206671747,-9.696517,-1.7579426,-0.20649989,0.2972088,0.07137272,0.12144015,99.9,25.08,11.46
1554206671766,-9.710882000000002,-1.5903485000000002,-0.32142156,0.25033715,0.04261058,0.11717909,99.9,24.96,11.52
1554206671786,-9.682152,-1.513734,-0.46507367,0.01917476,-0.002130529,0.094808534,99.84,24.72,11.52
1554206671806,-9.662998,-1.2838906,-0.15382746,-0.23222765,-0.05539375,0.07989483,99.78,24.54,11.4
1554206671827,-9.548077000000001,-1.3748703000000002,-0.05327099,-0.4250405,-0.082025364,0.04474111,99.78,24.42,11.22
1554206671846,-9.490616000000001,-1.4993688,0.13347675,-0.5294364,-0.080960095,-0.00958738,99.84,24.48,11.04
1554206671866,-9.557653,-1.6190788999999999,0.46387658,-0.5496765,-0.09161274,-0.035153727999999995,100.02,24.48,10.86
1554206671886,-9.409213000000001,-1.9015948,0.83737206,-0.45912898,-0.08522116,-0.043675844000000005,100.2,24.54,10.68
1554206671907,-9.284714,-2.212841,0.5979519,-0.26738137,-0.05219796,-0.06285059999999999,100.38,24.6,10.62
1554206671926,-9.562441999999999,-2.3181857999999997,0.41120413,-0.08735169,-0.008522116,-0.06711166,100.56,24.6,10.62
1554206671946,-9.667786999999999,-2.203264,0.30585927,0.068176925,0.0,-0.018109497,100.74,24.66,10.68
1554206671966,-9.524135000000001,-2.1218612,0.14784196,0.14487597,0.002130529,0.008522116,100.92,24.66,10.8
1554206671987,-9.543288,-2.0069396,0.24839842,0.14274544,0.018109497,-0.0053263223,101.1,24.66,10.98
1554206672006,-9.682152,-1.8584990000000001,0.08559271,0.07882957,0.013848438000000001,-0.0063915867,101.16,24.66,11.16
1554206672026,-9.634267999999999,-1.8201918999999998,0.19093758,0.011717908999999999,0.00958738,0.013848438000000001,101.16,24.66,11.34
1554206672046,-9.725247,-1.5951369,0.12868834,-0.025566347000000003,-0.004261058,0.02130529,101.1,24.6,11.58
1554206672066,-9.720459,-1.6095021,0.09516951400000001,-0.02876214,-0.020240024,0.004261058,101.04,24.6,11.76
1554206672086,-9.619903,-1.6286557,0.21009120000000003,0.0,-0.035153727999999995,-0.023435817999999997,101.04,24.6,11.94
1554206672106,-9.710882000000002,-1.738789,0.22445641,0.05006743,-0.041545313,-0.036218993,101.04,24.6,12.06
1554206672126,-9.600749,-1.8154035,0.31064767,0.15233281,-0.04261058,-0.04261058,101.04,24.66,12.12
1554206672146,-9.591172,-1.7579426,0.28191724,0.27803403,-0.049002163,-0.06178534,100.98,24.72,12.18
1554206672166,-9.653421,-1.8920178,0.22445641,0.40906155,-0.056459017,-0.07776430000000001,101.04,24.78,12.18
1554206672186,-9.562441999999999,-2.03567,0.44951138,0.50387007,-0.068176925,-0.06924219,101.04,24.78,12.12
1554206672206,-9.662998,-1.8968061999999999,0.38726214,0.59867865,-0.07776430000000001,-0.043675844000000005,100.98,24.78,12.06
1554206672226,-9.677363,-1.9925743000000002,0.38726214,0.7414241,-0.083090626,-0.014913702,100.98,24.72,11.94
1554206672247,-9.672575,-1.8393455,0.7080852,0.7978831000000001,-0.07350325,-0.014913702,100.92,24.72,11.82
1554206672266,-9.543288,-1.8537107,0.43993455,0.87032104,-0.06391586,-0.010652645,100.92,24.72,11.64
1554206672287,-9.524135000000001,-1.7004818,0.6985083000000001,0.9235843,-0.05539375,0.002130529,100.92,24.9,11.4
1554206672306,-9.485827,-1.6525976999999998,0.6841431,0.9896306999999999,-0.046871635999999994,0.002130529,100.92,25.14,11.1
1554206672326,-9.65821,-1.5472529,0.65541273,1.0833739,-0.035153727999999995,-0.020240024,100.92,25.38,10.74
1554206672347,-9.629479,-1.5328877,0.6410475,1.1014834999999998,-0.025566347000000003,-0.029827405,100.92,25.68,10.14
1554206672366,-9.576807,-1.4754268,0.9235633,0.9598033000000001,-0.00958738,-0.024501082,101.04,25.98,9.36
1554206672387,-9.414000999999999,-1.4036007,0.6697779,0.74461985,0.037284255,-0.0053263223,101.16,26.34,8.64
1554206672406,-9.672575,-1.4514848,0.6745663000000001,0.5603291,0.05539375,0.002130529,101.22,26.64,7.98
1554206672427,-9.701305,-1.4802152,0.85173726,0.5091964,0.05219796,0.0063915867,101.34,26.88,7.32
1554206672449,-9.610325999999999,-1.441908,0.54527944,0.5933523,0.02876214,0.004261058,101.46,26.88,6.42
1554206672466,-9.706094,-1.3413515,0.44472298,0.6125271,0.018109497,-0.002130529,101.52,26.82,6.18
1554206672486,-9.682152,-1.1306617,0.32501290000000005,0.5432849000000001,-0.012783173500000002,-0.0063915867,101.58,26.52,5.64
1554206672506,-9.605537,-1.2312181999999998,0.41599256,0.37816888,-0.035153727999999995,-0.002130529,101.58,26.22,5.28
1554206672526,-9.591172,-1.3126211,0.6027403,0.24927188,-0.05219796,-0.002130529,101.64,25.86,4.92
1554206672547,-9.648633,-1.264737,0.64583594,0.14807177,-0.05752428,-0.011717908999999999,101.64,25.56,4.56
1554206672566,-9.639056,-1.2838906,0.8038531999999999,0.07350325,-0.06391586,-0.020240024,101.64,25.2,4.2
1554206672586,-9.591172,-1.2934675,0.7272388000000001,-0.004261058,-0.06498113,-0.03195793,101.64,24.84,3.84
1554206672606,-9.557653,-1.3605051000000001,0.9091981,-0.10546118,-0.05965481,-0.036218993,101.64,24.6,3.54
1554206672626,-9.581595,-1.5664065,0.82779527,-0.17789917,-0.05219796,-0.033023197000000004,101.64,24.48,3.24
1554206672646,-9.710882000000002,-1.5568296999999998,1.1198878,-0.17470337,-0.04474111,-0.014913702,101.7,24.48,2.88
1554206672666,-9.672575,-1.6382325,0.87567925,-0.10652645,-0.04261058,-0.0053263223,101.7,24.42,2.88
1554206672686,-9.557653,-1.4993688,1.0001777,0.017044231,-0.039414786,-0.007456851,101.7,24.36,2.94
1554206672706,-9.591172,-1.4610616,0.789488,0.099069595,-0.036218993,-0.008522116,101.7,24.3,3.0
1554206672726,-9.591172,-1.3892354999999998,0.86610246,0.14594123,-0.03089267,-0.023435817999999997,101.7,24.18,3.0
1554206672746,-9.576807,-1.2551602,0.86610246,0.15552860000000002,-0.03089267,-0.026631612000000002,101.7,24.06,3.06
1554206672766,-9.509769,-1.264737,0.75118077,0.16405073,-0.03195793,-0.034088463,101.64,23.88,3.06
1554206672786,-9.500193,-1.240795,0.74639237,0.14168017,-0.029827405,-0.054328485999999995,101.64,23.64,3.06
1554206672806,-9.667786999999999,-1.1833341999999998,0.8086416000000001,0.096939065,-0.02876214,-0.07776430000000001,101.58,23.4,3.06
1554206672827,-9.552864999999999,-1.2455834,0.7128736,-0.017044231,-0.03834952,-0.083090626,101.58,23.1,2.94
1554206672846,-9.581595,-1.3748703000000002,0.9187749,-0.13741912,-0.033023197000000004,-0.07989483,101.52,22.86,2.94
1554206672866,-9.461885,-1.5568296999999998,0.83737206,-0.19707392,-0.033023197000000004,-0.06711166,101.52,22.74,2.88
1554206672887,-9.504980999999999,-1.6190788999999999,1.134253,-0.18322548,-0.025566347000000003,-0.053263225,101.46,22.74,2.82
1554206672907,-9.615114,-1.5951369,1.0241197,-0.09587380000000001,-0.010652645,-0.04474111,101.4,22.68,2.82
1554206672927,-9.466674000000001,-1.441908,1.0241197,-0.02876214,-0.004261058,-0.03834952,101.28,22.74,2.76
1554206672947,-9.543288,-1.3413515,0.9427169,0.043675844000000005,0.0031957934000000003,-0.037284255,101.22,22.86,2.7
1554206672967,-9.615114,-1.5903485000000002,0.85173726,0.07030745599999999,0.0010652645,-0.039414786,101.16,23.04,2.76
1554206672986,-9.624691,-1.5520413,0.8948328999999999,0.09587380000000001,0.004261058,-0.033023197000000004,101.1,23.16,2.82
1554206673006,-9.643844999999999,-1.5520413,0.88046765,0.16405073,0.007456851,-0.015978966,101.04,23.28,2.82
1554206673027,-9.634267999999999,-1.4993688,0.88046765,0.19387813,-0.0031957934000000003,-0.01917476,101.04,23.4,2.82
1554206673046,-9.667786999999999,-1.4562732,0.84694886,0.21837921,-0.007456851,-0.029827405,101.04,23.46,2.88
1554206673067,-9.715671,-1.3988123,0.85173726,0.2428803,-0.022370555,-0.039414786,101.1,23.52,2.88
1554206673086,-9.619903,-1.4562732,0.88046765,0.26738137,-0.034088463,-0.034088463,101.16,23.76,2.88
1554206673107,-9.643844999999999,-1.3652935,0.7751228,0.27164245,-0.041545313,-0.02876214,101.28,24.06,2.88
1554206673126,-9.629479,-1.3461398999999998,1.0911574,0.2695119,-0.03834952,-0.03089267,101.4,24.36,2.82
1554206673147,-9.581595,-1.3365631000000002,0.9379284999999999,0.18002969,-0.03195793,-0.02130529,101.52,24.66,2.82
1554206673166,-9.648633,-1.4083891000000002,1.2443863000000002,0.08522116,-0.024501082,-0.0053263223,101.64,24.96,2.7
1554206673186,-9.562441999999999,-1.5041572,1.2012907,0.084155895,-0.01917476,0.0053263223,101.76,25.26,2.64
1554206673207,-9.495403999999999,-1.4466964,1.0432734000000001,0.112918034,-0.011717908999999999,-0.0053263223,101.88,25.56,2.52
1554206673226,-9.495403999999999,-1.3126211,1.1486181999999998,0.16298546,-0.007456851,-0.012783173500000002,101.94,25.74,2.34
1554206673247,-9.552864999999999,-1.2886791000000002,1.1294646000000002,0.20453078,0.004261058,-0.010652645,102.06,25.8,2.16
1554206673266,-9.600749,-1.3030443,1.1198878,0.24394555,0.007456851,-0.011717908999999999,102.12,25.8,1.92
1554206673287,-9.65821,-1.1689690000000001,1.0001777,0.26312032,0.007456851,-0.020240024,102.12,25.74,1.8
1554206673306,-9.619903,-1.2934675,0.96665895,0.25140239999999997,0.0010652645,-0.03195793,102.18,25.74,1.62
1554206673327,-9.533711,-1.1402385,0.96187055,0.2066613,-0.010652645,-0.035153727999999995,102.18,25.68,1.44
1554206673347,-9.619903,-1.192911,0.8086416000000001,0.13528858,-0.02130529,-0.02876214,102.18,25.68,1.32
1554206673366,-9.648633,-1.1210848999999998,0.83737206,0.058589544,-0.03089267,-0.029827405,102.24,25.68,1.14
1554206673387,-9.509769,-1.0827777,0.97623575,0.002130529,-0.043675844000000005,-0.03834952,102.3,25.62,1.08
1554206673406,-9.457097000000001,-1.1402385,0.96665895,-0.025566347000000003,-0.035153727999999995,-0.046871635999999994,102.36,25.62,1.02
1554206673427,-9.562441999999999,-1.1306617,0.95229375,-0.04474111,-0.033023197000000004,-0.054328485999999995,102.36,25.62,0.96
1554206673447,-9.552864999999999,-1.1833341999999998,0.7272388000000001,-0.049002163,-0.036218993,-0.056459017,102.36,25.62,0.96
1554206673467,-9.624691,-1.240795,1.0384849,-0.05539375,-0.041545313,-0.058589544,102.42,25.62,0.9
1554206673486,-9.519346,-1.2886791000000002,0.95229375,-0.101200126,-0.04474111,-0.043675844000000005,102.42,25.62,0.84
1554206673506,-9.619903,-1.3126211,1.2348095,-0.1587244,-0.022370555,-0.017044231,102.48,25.62,0.84
1554206673527,-9.629479,-1.2838906,1.0384849,-0.15339808,-0.020240024,0.0053263223,102.48,25.62,0.84
1554206673548,-9.696517,-1.1881226,1.1294646000000002,-0.096939065,-0.027696876000000002,0.0053263223,102.48,25.62,0.9
1554206673566,-9.65821,-1.2743138,0.95708215,-0.022370555,-0.03834952,0.0031957934000000003,102.48,25.62,0.9
1554206673587,-9.720459,-1.1019313,1.0001777,0.035153727999999995,-0.040480047000000005,-0.004261058,102.48,25.62,0.9
1554206673607,-9.801862,-1.073201,0.88046765,0.05752428,-0.058589544,-0.002130529,102.48,25.62,0.9
1554206673627,-9.868899,-0.95349085,0.74639237,0.00958738,-0.07776430000000001,0.0053263223,102.54,25.62,0.9
1554206673646,-9.715671,-0.87687635,0.9235633,-0.12463594,-0.10013486,0.007456851,102.54,25.56,0.96
1554206673666,-9.586383999999999,-0.88166475,0.9379284999999999,-0.27803403,-0.11717909,0.0,102.54,25.56,0.96
1554206673687,-9.504980999999999,-0.9343372,0.9139864999999999,-0.4314321,-0.12144015,-0.011717908999999999,102.6,25.5,0.96
1554206673706,-9.461885,-1.0779893,1.2539631000000002,-0.57311225,-0.096939065,-0.02130529,102.6,25.44,0.96
1554206673727,-9.543288,-1.3221979,1.3545196000000002,-0.6146576,-0.080960095,-0.01917476,102.6,25.38,0.96
1554206673748,-9.586383999999999,-1.4227544,1.4215573000000001,-0.5965481,-0.05965481,-0.0053263223,102.6,25.38,0.96
1554206673766,-9.327810000000001,-1.3940238999999999,1.0959458,-0.5411543000000001,-0.047936900000000005,0.0,102.6,25.38,0.96
1554206673786,-9.490616000000001,-1.3365631000000002,1.2156559,-0.41545314,-0.03195793,0.002130529,102.54,25.56,1.02
1554206673806,-9.466674000000001,-1.3413515,1.1965023000000001,-0.33768883,-0.025566347000000003,0.010652645,102.54,25.74,1.14
1554206673827,-9.500193,-1.4371196000000002,1.2683283,-0.28442562,-0.011717908999999999,0.024501082,102.54,25.86,1.38
1554206673847,-9.471461999999999,-1.192911,1.1917138999999999,-0.23755397,0.010652645,0.039414786,102.48,25.98,1.68
1554206673867,-9.519346,-1.1737574,1.0767921999999999,-0.17789917,0.023435817999999997,0.04580637,102.48,26.1,2.04
1554206673886,-9.634267999999999,-1.1785458,0.83737206,-0.11930962,0.025566347000000003,0.034088463,102.42,26.22,2.4
1554206673907,-9.758766,-1.1976993999999999,0.9427169,-0.09374327,0.011717908999999999,0.033023197000000004,102.42,26.34,2.76
1554206673926,-9.739613,-1.1354501000000001,1.1294646000000002,-0.07882957,0.00958738,0.05219796,102.42,26.4,3.06
1554206673946,-9.682152,-1.1737574,1.1773487,-0.08735169,0.018109497,0.083090626,102.36,26.34,3.3
1554206673966,-9.428367,-1.1737574,1.2156559,-0.029827405,0.014913702,0.07243799,102.36,26.28,3.54
1554206673986,-9.868899,-0.88645315,0.97623575,0.18109496,0.007456851,0.015978966,102.42,26.16,3.66
1554206674007,-9.888053,-1.0684125,0.55485624,0.112918034,-0.013848438000000001,-0.015978966,102.42,25.98,3.66
1554206674026,-9.720459,-1.2982559,0.8900445,-0.24074976,-0.035153727999999995,0.010652645,102.48,25.86,3.66
1554206674046,-9.605537,-1.5807717,0.95229375,-0.39095205,-0.029827405,0.058589544,102.54,25.68,3.66
1554206674066,-9.41879,-1.4227544,1.7328035,-0.33662358,-0.01917476,0.07989483,102.66,25.56,3.66
1554206674087,-9.337387,-1.2360066,1.584363,-0.035153727999999995,0.010652645,0.025566347000000003,102.72,25.5,3.66
1554206674106,-9.41879,-1.1689690000000001,1.5316905,0.2727077,0.043675844000000005,-0.013848438000000001,102.84,25.44,3.72
1554206674126,-9.533711,-1.1833341999999998,1.2060791000000002,0.46125950000000004,0.07776430000000001,-0.022370555,102.96,25.44,3.72
1554206674147,-9.615114,-1.1785458,0.99060094,0.5113269,0.08628642,-0.015978966,103.02,25.56,3.72
1554206674167,-9.648633,-1.1019313,0.9379284999999999,0.45806372,0.083090626,-0.024501082,103.14,25.62,3.72
1554206674187,-9.706094,-1.2120646000000002,0.97623575,0.38456047,0.083090626,-0.037284255,103.2,25.74,3.66
1554206674206,-9.725247,-1.192911,0.96187055,0.33555830000000003,0.05965481,-0.035153727999999995,103.32,25.8,3.6
1554206674227,-9.662998,-1.3078326999999998,1.2204443,0.38136467,0.03089267,-0.029827405,103.32,25.86,3.48
1554206674247,-9.610325999999999,-1.3269863000000002,1.1725603,0.51452273,0.02876214,-0.047936900000000005,103.32,25.92,3.36
1554206674267,-9.595961,-1.2216414,1.062427,0.6402239000000001,0.035153727999999995,-0.056459017,103.32,25.86,3.24
1554206674287,-9.701305,-1.1402385,0.99538934,0.7233145999999999,0.03089267,-0.041545313,103.32,25.8,3.12
1554206674307,-9.701305,-0.99179804,0.96665895,0.7233145999999999,0.024501082,-0.035153727999999995,103.26,25.74,3.0
1554206674327,-9.696517,-0.7763199000000001,0.8182184,0.6359629,0.008522116,-0.043675844000000005,103.26,25.62,2.76
1554206674347,-9.586383999999999,-0.7954735,0.9235633,0.50600064,-0.00958738,-0.043675844000000005,103.2,25.5,2.4
1554206674367,-9.682152,-0.694917,0.98102415,0.38456047,-0.011717908999999999,-0.03834952,103.26,25.32,2.1
1554206674386,-9.615114,-0.75716627,1.1438298,0.34088463,-0.00958738,-0.039414786,103.32,25.2,1.74
1554206674406,-9.586383999999999,-0.95349085,1.2108675,0.38029942,-0.008522116,-0.054328485999999995,103.38,25.08,1.44
1554206674427,-9.605537,-0.97743285,1.2204443,0.4133226,0.004261058,-0.06391586,103.44,24.96,1.08
1554206674447,-9.509769,-1.049259,1.3018471999999999,0.44741106,0.024501082,-0.05219796,103.5,24.78,0.6
1554206674467,-9.442732000000001,-0.95349085,1.2826935,0.49321744,0.041545313,-0.04580637,103.56,24.78,0.48
1554206674487,-9.548077000000001,-1.1498153,1.4167688999999999,0.56672066,0.068176925,-0.049002163,103.62,24.72,0.24
1554206674507,-9.461885,-1.073201,1.4167688999999999,0.6689861,0.094808534,-0.05006743,103.68,24.72,0.12
1554206674527,-9.672575,-1.1115081,1.2060791000000002,0.74248934,0.11824436,-0.04474111,103.68,24.66,0.0
1554206674547,-9.648633,-0.86251116,1.1486181999999998,0.7456851,0.13422333,-0.040480047000000005,103.62,24.54,-0.18
1554206674567,-9.56723,-0.8098387,1.0815806000000001,0.7030744999999999,0.1470065,-0.023435817999999997,103.62,24.48,-0.42
1554206674587,-9.619903,-0.7763199000000001,0.8996213,0.66579026,0.15020229,-0.02130529,103.62,24.36,-0.72
1554206674606,-9.562441999999999,-0.7715314999999999,1.0001777,0.6828345,0.14061491,-0.03195793,103.56,24.18,-1.2
1554206674627,-9.56723,-1.039682,1.0432734000000001,0.85540736,0.11717909,-0.037284255,103.56,23.94,-1.56
1554206674647,-9.691728999999999,-0.95827925,0.95708215,1.0546118,0.10333065,-0.033023197000000004,103.5,23.64,-1.98
1554206674667,-9.744401,-0.7140707,0.96665895,1.2261194,0.08735169,-0.020240024,103.5,23.34,-2.34
1554206674687,-9.844957,-0.4938041,0.7224503999999999,1.284709,0.07137272,-0.014913702,103.5,22.98,-2.76
1554206674707,-9.753978,-0.3357868,0.9235633,1.257012,0.053263225,-0.02130529,103.5,22.62,-3.36
1554206674727,-9.816227,-0.36930559999999996,0.96665895,1.2122709999999999,0.047936900000000005,-0.03195793,103.5,22.26,-3.9
1554206674747,-9.835381,-0.29269117,1.0241197,1.1238540000000001,0.043675844000000005,-0.02130529,103.5,21.78,-4.5
1554206674766,-9.883265,-0.077213004,0.75596917,0.9896306999999999,0.027696876000000002,0.007456851,103.5,21.36,-5.16
1554206674786,-9.797073,-0.014963761,0.85652566,0.80533993,0.004261058,0.01917476,103.5,20.82,-5.88
1554206674807,-9.65821,0.013766658999999999,0.76554596,0.55074173,0.0,-0.008522116,103.56,20.34,-6.54
1554206674827,-9.758766,0.013766658999999999,0.81343,0.33555830000000003,-0.002130529,-0.023435817999999997,103.68,19.8,-7.26
1554206674846,-9.677363,0.061650693,0.81343,0.16405073,-0.007456851,-0.014913702,103.74,19.32,-7.8
1554206674866,-9.619903,-0.05327099,1.1246762,-0.018109497,0.002130529,-0.0063915867,103.86,18.84,-8.28
1554206674887,-9.619903,-0.32142156,1.2060791000000002,-0.041545313,0.017044231,-0.02130529,103.92,18.36,-8.64
1554206674906,-9.696517,-0.44113165,1.2252326999999998,0.036218993,0.027696876000000002,-0.035153727999999995,103.98,17.94,-8.94
1554206674927,-9.677363,-0.5033809,1.110311,0.16724652,0.039414786,-0.022370555,103.98,17.64,-9.12
1554206674946,-9.552864999999999,-0.40761283,0.9283517,0.28868666,0.043675844000000005,-0.0063915867,103.98,17.4,-9.24
1554206674966,-9.725247,-0.32621,0.87567925,0.2876214,0.041545313,-0.004261058,103.92,17.22,-9.36
1554206674987,-9.68694,-0.22086509999999998,0.86610246,0.23648871,0.035153727999999995,0.004261058,103.86,17.1,-9.42
1554206675007,-9.629479,-0.21607670000000004,0.7990648,0.18748654,0.015978966,0.0063915867,103.8,16.98,-9.48
1554206675026,-9.572019000000001,-0.19213470000000002,0.99060094,0.18322548,0.0063915867,-0.0010652645,103.86,16.92,-9.54
1554206675046,-9.5385,-0.22565351,0.9044097,0.20772657,-0.002130529,-0.012783173500000002,103.86,16.92,-9.6
1554206675067,-9.595961,-0.18734628,0.9044097,0.22370553,-0.011717908999999999,-0.024501082,103.92,16.86,-9.66
1554206675087,-9.586383999999999,-0.19692309,0.789488,0.19600865,-0.034088463,-0.027696876000000002,103.98,16.8,-9.72
1554206675106,-9.643844999999999,-0.15861586,0.8948328999999999,0.10333065,-0.03834952,-0.02876214,104.04,16.68,-9.78
1554206675126,-9.672575,-0.12509704,1.0384849,-0.0010652645,-0.035153727999999995,-0.039414786,104.16,16.62,-9.84
1554206675147,-9.744401,-0.08678981,1.0480618,-0.10546118,-0.020240024,-0.054328485999999995,104.22,16.5,-9.9
1554206675167,-9.768343,-0.13467385,1.0815806000000001,-0.16405073,-0.008522116,-0.056459017,104.34,16.38,-9.96
1554206675187,-9.753978,-0.31663316,1.0289081,-0.13422333,-0.010652645,-0.054328485999999995,104.34,16.32,-9.96
1554206675207,-9.643844999999999,-0.35494040000000004,1.0528502,-0.06178534,-0.018109497,-0.05219796,104.34,16.26,-10.02
1554206675226,-9.701305,-0.31184477,1.0672153999999998,-0.015978966,-0.017044231,-0.046871635999999994,104.34,16.2,-10.08
1554206675246,-9.643844999999999,-0.30226797,0.9379284999999999,-0.017044231,-0.011717908999999999,-0.040480047000000005,104.34,16.2,-10.14
1554206675267,-9.710882000000002,-0.22086509999999998,1.110311,-0.03195793,-0.0063915867,-0.03834952,104.4,16.14,-10.14
1554206675287,-9.653421,-0.35494040000000004,1.1055226,-0.06498113,0.0053263223,-0.04261058,104.4,16.14,-10.2
1554206675307,-9.643844999999999,-0.26396075,0.96665895,-0.098004326,0.018109497,-0.051132694000000006,104.4,16.14,-10.2
1554206675327,-9.600749,-0.3597288,1.1677719,-0.1107875,0.033023197000000004,-0.06178534,104.46,16.2,-10.2
1554206675346,-9.634267999999999,-0.44113165,1.2539631000000002,-0.083090626,0.05006743,-0.07030745599999999,104.4,16.2,-10.2
1554206675366,-9.643844999999999,-0.5129577000000001,1.2826935,-0.037284255,0.05965481,-0.07243799,104.4,16.26,-10.14
1554206675386,-9.691728999999999,-0.38367084,1.0097545,0.025566347000000003,0.06604639400000001,-0.07030745599999999,104.4,16.26,-10.14
1554206675407,-9.744401,-0.41240123,0.8948328999999999,0.060720075,0.06711166,-0.06711166,104.46,16.32,-10.14
1554206675427,-9.682152,-0.32142156,0.7846996,0.046871635999999994,0.07030745599999999,-0.07137272,104.46,16.32,-10.08
1554206675447,-9.734824,-0.38845924,0.9427169,-0.002130529,0.060720075,-0.07456851,104.4,16.38,-10.02
1554206675466,-9.734824,-0.3309984,0.741604,-0.07243799,0.04580637,-0.07137272,104.4,16.38,-10.02
1554206675487,-9.648633,-0.39324763,0.741604,-0.15233281,0.03089267,-0.068176925,104.34,16.38,-9.96
1554206675507,-9.773131,-0.39803603,0.87567925,-0.20772657,0.023435817999999997,-0.07563378,104.28,16.32,-9.9
1554206675527,-9.65821,-0.52732295,0.82779527,-0.24501082,0.024501082,-0.08628642,104.22,16.32,-9.9
1554206675547,-9.734824,-0.42197806,0.8230068000000001,-0.28975195,0.015978966,-0.08948222,104.22,16.38,-9.84
1554206675566,-9.739613,-0.42676646,0.789488,-0.32597092,0.004261058,-0.084155895,104.16,16.44,-9.78
1554206675586,-9.734824,-0.47465047,0.82779527,-0.33981937,-0.002130529,-0.08522116,104.1,16.56,-9.66
1554206675606,-9.773131,-0.4938041,0.88046765,-0.33875409999999995,0.0,-0.098004326,104.1,16.74,-9.36
1554206675627,-9.739613,-0.6135142,0.99060094,-0.33449304,-0.0031957934000000003,-0.099069595,104.1,16.86,-9.06
1554206675646,-9.753978,-0.53211135,0.99538934,-0.2972088,-0.0010652645,-0.07456851,104.04,17.04,-8.82
1554206675666,-9.682152,-0.64703304,1.0001777,-0.21731395,0.002130529,-0.068176925,104.04,17.22,-8.64
1554206675686,-9.485827,-0.7858967,1.0720038,-0.10865697,0.004261058,-0.08522116,104.04,17.4,-8.4
1554206675707,-9.572019000000001,-0.84335756,1.0528502,-0.010652645,0.0063915867,-0.08841695,104.04,17.58,-8.16
1554206675726,-9.552864999999999,-0.7188591,1.062427,0.07989483,0.011717908999999999,-0.07137272,104.04,17.7,-7.98
1554206675746,-9.639056,-0.75716627,1.0241197,0.128897,0.022370555,-0.07243799,104.1,17.76,-7.86
1554206675767,-9.667786999999999,-0.6757634,1.0528502,0.11611383,0.04474111,-0.08948222,104.1,17.76,-7.92
1554206675787,-9.763555,-0.84814596,0.9139864999999999,0.10865697,0.056459017,-0.09161274,104.1,17.76,-7.92
1554206675806,-9.811439,-0.86729956,0.9379284999999999,0.12996227,0.06924219,-0.07137272,104.16,17.82,-7.98
1554206675826,-9.811439,-0.88166475,0.7703344,0.20453078,0.068176925,-0.04261058,104.16,17.88,-8.04
1554206675847,-9.662998,-0.7380127,0.9427169,0.28229508,0.06498113,-0.029827405,104.16,17.88,-8.1
1554206675867,-9.514558000000001,-0.55605334,0.7846996,0.30679616,0.07882957,-0.029827405,104.16,17.88,-8.16
1554206675886,-9.466674000000001,-0.38367084,0.7703344,0.28336033,0.10333065,-0.041545313,104.16,17.88,-8.22
1554206675907,-9.414000999999999,-0.5129577000000001,0.9475053,0.24607609,0.11824436,-0.06285059999999999,104.1,17.88,-8.28
1554206675927,-9.437942999999999,-0.7044938000000001,0.9283517,0.23968449999999997,0.12357068,-0.083090626,104.04,17.88,-8.4
1554206675947,-9.595961,-0.7811083000000001,0.8038531999999999,0.2908172,0.12783173,-0.083090626,104.04,17.88,-8.46
1554206675966,-9.643844999999999,-0.75716627,0.76554596,0.38136467,0.12037488,-0.080960095,104.04,17.82,-8.58
1554206675987,-9.744401,-0.6757634,0.7846996,0.46871635,0.11611383,-0.08841695,104.1,17.82,-8.64
1554206676007,-9.753978,-0.66139823,0.56922144,0.5187838,0.10759171,-0.09161274,104.1,17.76,-8.7
1554206676026,-9.816227,-0.6087258000000001,0.57400984,0.52411014,0.10652645,-0.08522116,104.16,17.7,-8.82
1554206676046,-9.964667,-0.46507367,0.54527944,0.49854377,0.112918034,-0.06498113,104.22,17.58,-8.94
1554206676067,-9.873688000000001,-0.54168814,0.5069722,0.48682585,0.1107875,-0.04261058,104.22,17.46,-9.06
1554206676087,-9.911995,-0.52253455,0.54527944,0.46765109999999993,0.111852765,-0.027696876000000002,104.28,17.28,-9.12
1554206676106,-9.801862,-0.3788824,0.45908818,0.49321744,0.10759171,-0.02876214,104.34,17.1,-9.24
1554206676126,-9.830592,-0.31184477,0.5021838,0.52624065,0.10652645,-0.029827405,104.46,16.86,-9.42
1554206676147,-9.725247,-0.39803603,0.42078096,0.5432849000000001,0.10972224,-0.034088463,104.46,16.62,-9.66
1554206676167,-9.753978,-0.3405752,0.3393781,0.51452273,0.1107875,-0.041545313,104.46,16.38,-9.96
1554206676186,-9.835381,-0.3645172,0.3393781,0.49002165,0.10759171,-0.049002163,104.52,16.14,-10.26
1554206676206,-9.816227,-0.35494040000000004,0.3298013,0.46765109999999993,0.10439592,-0.05539375,104.52,15.96,-10.56
1554206676227,-9.710882000000002,-0.24959552,0.34895490000000007,0.44528055,0.094808534,-0.05752428,104.52,15.66,-10.86
1554206676247,-9.773131,-0.27353755,0.26276365,0.43675843,0.07350325,-0.06604639400000001,104.58,15.24,-11.16
1554206676266,-9.80665,-0.39803603,0.29149407,0.39521313,0.051132694000000006,-0.07669904,104.58,14.82,-11.4
1554206676286,-9.830592,-0.24480712,0.19093758,0.32810146,0.03195793,-0.07776430000000001,104.52,14.46,-11.64
1554206676307,-9.902417999999999,-0.57999533,0.3345897,0.20026971,0.010652645,-0.049002163,104.52,14.1,-11.76
1554206676327,-9.902417999999999,-0.53211135,0.6937199000000001,0.20985709,0.011717908999999999,-0.051132694000000006,104.52,13.8,-11.94
1554206676346,-9.892841,-0.26874915,0.6985083000000001,0.34621096,0.02130529,-0.068176925,104.58,13.26,-12.18
1554206676366,-9.9550905,-0.19213470000000002,0.7942764,0.42717105,0.029827405,-0.09267801,104.58,12.96,-12.3
1554206676387,-9.734824,-0.14903906,0.54049104,0.44315,0.025566347000000003,-0.12783173,104.64,12.84,-12.42
1554206676407,-9.844957,-0.21128829999999998,0.43035775,0.34088463,0.008522116,-0.14807177,104.76,12.78,-12.6
1554206676428,-9.935937,-0.39803603,0.6218939,0.20026971,-0.00958738,-0.165116,104.82,12.72,-12.78
1554206676447,-9.849746000000001,-0.46986207,0.5021838,0.13954964,-0.017044231,-0.17576863,104.94,12.72,-12.9
1554206676466,-9.792285000000001,-0.52253455,0.44472298,0.05219796,-0.02876214,-0.18748654,105.0,12.66,-13.02
1554206676488,-9.77792,-0.4890157,0.7032967,0.017044231,-0.036218993,-0.21731395,105.06,12.6,-13.02
1554206676507,-9.634267999999999,-0.42197806,0.81343,0.017044231,-0.049002163,-0.26312032,105.12,12.54,-13.14
1554206676526,-9.471461999999999,-0.3405752,0.6889314999999999,-0.004261058,-0.060720075,-0.28229508,105.12,12.48,-13.38
1554206676546,-9.3661175,-0.42197806,0.7080852,-0.053263225,-0.06924219,-0.27483824,105.18,12.42,-13.56
1554206676566,-9.404425,-0.32621,0.9044097,-0.13954964,-0.05965481,-0.27377295,105.12,12.36,-13.74
1554206676586,-9.390058999999999,-0.4842273,0.9091981,-0.24074976,-0.041545313,-0.2790993,105.06,12.3,-13.86
1554206676607,-9.490616000000001,-0.47465047,0.7990648,-0.31638354,-0.025566347000000003,-0.28549087,104.94,12.3,-13.98
1554206676626,-9.586383999999999,-0.66139823,0.7272388000000001,-0.39414784,-0.014913702,-0.28975195,104.76,12.24,-14.04
1554206676646,-9.648633,-0.6757634,0.7272388000000001,-0.50387007,-0.010652645,-0.2908172,104.58,12.24,-13.98
1554206676666,-9.648633,-1.1067197,0.5979519,-0.6061354999999999,-0.025566347000000003,-0.28336033,104.4,12.42,-13.8
1554206676686,-9.677363,-1.264737,0.5835866999999999,-0.6242449999999999,-0.039414786,-0.26631612,104.22,12.6,-13.62
1554206676706,-9.859323,-1.1737574,0.8996213,-0.5475459,-0.05752428,-0.20240025,104.04,12.78,-13.38
1554206676727,-10.218452000000001,-1.3221979,0.9044097,-0.4133226,-0.05219796,-0.13954964,103.92,13.02,-13.2
1554206676747,-10.409989,-1.2791021999999999,0.76075757,-0.29294774,-0.033023197000000004,-0.099069595,103.8,13.32,-12.96
1554206676767,-10.625467,-1.2982559,0.8182184,-0.26525086,-0.007456851,-0.09161274,103.74,13.68,-12.66
1554206676786,-10.333375,-1.4036007,0.39683893,-0.32384038,0.0010652645,-0.08628642,103.68,14.1,-12.48
1554206676806,-9.911995,-1.4514848,0.40641573,-0.42290998,0.0010652645,-0.06285059999999999,103.68,14.46,-12.3
1554206676827,-9.404425,-1.3844471,0.3537433,-0.46871635,0.017044231,-0.0010652645,103.68,14.7,-12.12
1554206676847,-9.481038999999999,-1.2120646000000002,0.48303019999999997,-0.40053943,0.025566347000000003,0.058589544,103.68,14.94,-11.94
1554206676867,-9.749189,-1.0923545000000001,0.23403321,-0.29294774,0.033023197000000004,0.111852765,103.68,15.18,-11.76
1554206676886,-9.768343,-1.1019313,0.12389994,-0.26312032,0.013848438000000001,0.15659387,103.62,15.36,-11.58
1554206676907,-9.710882000000002,-0.9439139999999999,0.34895490000000007,-0.29188246,0.002130529,0.20026971,103.62,15.6,-11.28
1554206676927,-9.619903,-0.86251116,0.5069722,-0.3206446,-0.022370555,0.22903186,103.62,15.78,-10.98
1554206676947,-9.476251,-1.0205284,0.55485624,-0.32597092,-0.02876214,0.22796659,103.62,15.96,-10.74
1554206676967,-9.370906,-0.86251116,0.5069722,-0.33875409999999995,-0.035153727999999995,0.18429075,103.56,16.14,-10.56
1554206676987,-9.485827,-0.9056068000000002,0.28191724,-0.41545314,-0.05006743,0.12570119999999999,103.56,16.38,-10.38
1554206677007,-9.390058999999999,-1.0348936,0.23403321,-0.572047,-0.07456851,0.05219796,103.56,16.56,-10.14
1554206677027,-9.188946000000001,-1.1067197,0.09516951400000001,-0.6849651,-0.07350325,-0.020240024,103.56,16.8,-9.96
1554206677046,-9.212888000000001,-1.1689690000000001,-0.11552023,-0.7819041,-0.07882957,-0.10759171,103.56,17.04,-9.54
1554206677067,-9.313444,-1.2264298,-0.45549688,-0.8831041999999999,-0.10546118,-0.13954964,103.56,17.22,-9.42
1554206677086,-9.279925,-1.0827777,-0.31663316,-0.99282646,-0.12783173,-0.13422333,103.56,17.28,-9.3
1554206677107,-8.930372,-1.073201,-0.12988544,-1.2186625,-0.13209279,-0.098004326,103.62,17.58,-9.06
1554206677127,-8.848969,-1.2743138,0.15263036,-1.2655341999999998,-0.12144015,-0.080960095,103.62,17.94,-8.82
1554206677147,-8.690952000000001,-1.3844471,0.25318682,-1.2080098,-0.10546118,-0.046871635999999994,103.68,18.18,-8.58
1554206677166,-8.647857,-1.2120646000000002,0.7080852,-0.99069595,-0.06711166,0.049002163,103.68,18.66,-8.04
1554206677186,-8.7771435,-0.7284359,0.5931635000000001,-0.6530071,0.023435817999999997,0.15978967,103.68,19.2,-7.44
1554206677206,-9.222465,-0.31663316,0.11432313,-0.31318775,0.12676647,0.23435818,103.68,19.98,-6.78
1554206677227,-9.619903,-0.077213004,0.15263036,-0.20985709,0.18429075,0.22264028,103.68,20.46,-6.36
1554206677247,-10.031705,-0.24959552,-0.32621,-0.19068234,0.221575,0.17470337,103.62,20.88,-5.88
1554206677266,-10.28549,-0.53211135,-0.28311434,-0.28868666,0.2066613,0.12570119999999999,103.62,21.24,-5.52
1554206677286,-10.31901,-0.7332243,-0.5129577000000001,-0.36751625,0.17789917,0.11717909,103.56,21.36,-5.04
1554206677307,-10.366894,-0.7811083000000001,-0.55605334,-0.59122175,0.10759171,0.10226539,103.56,21.42,-4.68
1554206677326,-10.261548,-0.66618663,-0.3645172,-0.8607336999999999,0.04261058,0.053263225,103.56,21.48,-4.44
1554206677346,-10.242394,-0.7811083000000001,-0.20649989,-1.0503508,-0.017044231,0.008522116,103.56,21.48,-4.08
1554206677368,-10.314221,-0.95349085,0.08559271,-1.1632688,-0.10972224,-0.036218993,103.62,21.54,-3.78
1554206677386,-10.34774,-1.1019313,0.14784196,-1.0972224,-0.16298546,-0.07030745599999999,103.74,21.6,-3.42
1554206677407,-10.266336,-1.0779893,0.34895490000000007,-0.90014845,-0.21198763,-0.14168017,103.86,21.66,-3.0
1554206677427,-10.247183,-0.9343372,0.21009120000000003,-0.7595335999999999,-0.22583607,-0.18109496,103.98,21.84,-2.52
1554206677447,-10.113108,-0.8242039000000001,0.09516951400000001,-0.6892261,-0.25672874,-0.20772657,104.04,22.02,-2.04
1554206677467,-9.959878999999999,-0.8098387,0.14305355,-0.68816084,-0.29507825,-0.23861924,104.16,22.26,-1.62
1554206677487,-9.921572,-0.7954735,0.24839842,-0.7286409,-0.30466563,-0.26418558,104.28,22.62,-1.26
1554206677506,-9.911995,-0.5943606,0.10474633,-0.83729786,-0.28975195,-0.25140239999999997,104.34,22.98,-0.84
1554206677526,-9.859323,-0.16819267,-0.12030864,-1.0418286,-0.2790993,-0.23755397,104.34,23.4,-0.42
1554206677547,-9.782708,-0.05805939,-0.41718966,-1.252751,-0.31638354,-0.27164245,104.28,23.7,0.0
1554206677566,-9.41879,-0.6039374,-0.21607670000000004,-1.4349113000000002,-0.37710363,-0.36112466,104.16,24.12,0.48
1554206677587,-9.241617999999999,-0.97743285,-0.019752163,-1.5712651000000002,-0.4048005,-0.43569317,103.98,24.48,1.02
1554206677607,-9.107543,-1.5807717,0.25318682,-1.6181368,-0.39308259999999995,-0.44208476,103.74,24.9,1.5
1554206677626,-9.050082000000002,-1.7818846999999998,0.3824737,-1.6543556000000001,-0.37923414,-0.4016047,103.5,25.26,2.1
1554206677647,-8.872911,-1.9063831999999998,0.56443304,-1.603223,-0.3206446,-0.35473305,103.2,25.5,2.7
1554206677666,-9.074024,-1.8441339,0.43514615,-1.5584818999999999,-0.25885928,-0.33768883,102.9,25.74,3.3
1554206677687,-9.313444,-1.738789,0.7990648,-1.5222628999999999,-0.23435818,-0.28655612,102.6,25.98,3.96
1554206677706,-9.447519999999999,-1.9446903000000002,1.0480618,-1.3337111000000001,-0.21092236,-0.21944448,102.42,26.22,4.74
1554206677727,-9.821015,-2.0213048,1.2491747,-0.96619487,-0.19281286,-0.165116,102.24,26.46,5.7
1554206677747,-9.892841,-2.131438,1.407192,-0.40266997,-0.18322548,-0.11504856,102.12,26.76,6.54
1554206677767,-10.060435,-2.2511482000000003,1.3976152,0.24394555,-0.14061491,-0.051132694000000006,102.0,27.0,7.44
1554206677787,-10.079589,-2.0883423999999997,1.0959458,0.7414241,-0.10226539,0.035153727999999995,101.88,27.24,8.16
1554206677806,-10.070012,-1.6621746,0.45908818,0.82557994,-0.111852765,0.13848437,101.82,27.48,8.82
1554206677826,-9.907207000000001,-1.0971429,0.17657238,0.5336975,-0.15552860000000002,0.19387813,101.82,27.72,9.48
1554206677846,-9.725247,-1.0013748,0.13826515,0.20453078,-0.21731395,0.17044231,101.76,27.96,9.9
1554206677867,-9.457097000000001,-1.1737574,0.46387658,-0.3334278,-0.28549087,0.06391586,101.76,28.2,10.14
1554206677886,-9.442732000000001,-1.5233108,0.84216046,-0.51026165,-0.30786142,0.0063915867,101.76,28.26,10.08
1554206677908,-9.619903,-1.8106151000000001,0.99060094,-0.515588,-0.2876214,-0.04261058,101.76,28.2,10.02
1554206677928,-9.634267999999999,-1.9734207,0.6362591,-0.3653857,-0.25140239999999997,-0.058589544,101.76,28.2,9.84
1554206677946,-9.629479,-1.9782091,0.41599256,-0.23542345,-0.25566345,-0.06711166,101.76,28.08,9.6
1554206677967,-9.591172,-1.8728642,0.3393781,-0.28655612,-0.28442562,-0.06924219,101.88,27.96,9.3
1554206677987,-9.758766,-1.834557,0.46866497,-0.49215218,-0.314253,-0.056459017,101.94,27.9,9.24
1554206678007,-9.653421,-1.8489223000000001,0.86131406,-0.6199839,-0.32597092,-0.035153727999999995,102.0,27.84,9.12
1554206678027,-9.457097000000001,-1.9255368000000002,0.86131406,-0.6221144000000001,-0.314253,-0.041545313,102.12,27.72,9.18
1554206678047,-9.442732000000001,-1.738789,1.1294646000000002,-0.5368933000000001,-0.2972088,-0.046871635999999994,102.18,27.66,9.24
1554206678067,-9.370906,-1.7483658,1.2683283,-0.4133226,-0.25885928,-0.060720075,102.24,27.66,9.36
1554206678087,-9.275136999999999,-1.8537107,1.4311341,-0.2545982,-0.20453078,-0.09267801,102.3,27.66,9.48
1554206678107,-9.188946000000001,-1.9782091,1.5221136999999998,-0.084155895,-0.1470065,-0.11824436,102.24,27.66,9.54
1554206678126,-9.227253,-2.107496,1.4167688999999999,0.058589544,-0.094808534,-0.12463594,102.06,27.66,9.72
1554206678146,-9.3182335,-2.0213048,1.3257892,0.12783173,-0.046871635999999994,-0.11504856,101.94,27.66,9.84
1554206678167,-9.351752000000001,-1.8632874,1.1821371,0.07776430000000001,-0.018109497,-0.10546118,101.82,27.72,10.02
1554206678187,-9.404425,-1.7531542000000002,1.2252326999999998,-0.068176925,0.002130529,-0.10013486,101.76,27.72,10.14
1554206678206,-9.332599,-2.1601684,1.3018471999999999,-0.15978967,0.008522116,-0.10226539,101.64,27.72,10.26
1554206678226,-9.423578,-2.2559366,1.2683283,-0.10759171,0.007456851,-0.09267801,101.58,27.72,10.38
1554206678246,-9.481038999999999,-2.2990322,1.2587515,0.06711166,0.010652645,-0.029827405,101.58,27.78,10.44
1554206678267,-9.629479,-1.8489223000000001,0.98102415,0.22690132,0.004261058,0.046871635999999994,101.64,27.78,10.56
1554206678287,-9.65821,-1.6382325,0.789488,0.18642128,-0.0010652645,0.046871635999999994,101.7,27.78,10.56
1554206678306,-9.835381,-1.738789,0.7032967,0.0053263223,-0.011717908999999999,0.020240024,101.76,27.78,10.62
1554206678327,-9.624691,-2.1266496,0.74639237,-0.18961707,-0.036218993,-0.014913702,101.82,27.84,10.68
1554206678347,-9.279925,-2.1936872000000003,1.3449427999999999,-0.23968449999999997,-0.080960095,-0.012783173500000002,101.88,27.84,10.68
1554206678367,-9.102755,-2.179322,1.4646529,-0.025566347000000003,-0.058589544,0.017044231,101.94,27.84,10.68
1554206678386,-9.294291000000001,-1.9111716,1.9482816000000003,0.29933932,-0.008522116,0.05539375,101.94,27.84,10.68
1554206678407,-9.380483,-1.9877859,2.1110873,0.61891866,0.053263225,0.07669904,101.94,27.78,10.56
1554206678427,-9.428367,-1.8584990000000001,1.929128,0.75633776,0.12250541,0.058589544,101.88,27.78,10.44
1554206678447,-9.471461999999999,-1.8968061999999999,1.8189948,1.0823087,0.1587244,0.05539375,101.88,27.78,10.38
1554206678467,-9.3182335,-1.963844,1.7375918999999997,1.2644688999999998,0.21092236,0.06391586,101.82,27.78,10.26
1554206678486,-9.184157,-2.0069396,1.6418238,1.4626081,0.25885928,0.06924219,101.82,27.78,10.08
1554206678506,-9.26556,-1.9590555,1.7375918999999997,1.6831179,0.30999196,0.07137272,101.76,27.78,9.9
1554206678527,-9.414000999999999,-2.0213048,1.5699978,1.9494339,0.36112466,0.07030745599999999,101.76,27.78,9.66
1554206678547,-9.749189,-1.9925743000000002,1.4790181,2.139051,0.39947417,0.07882957,101.76,27.72,9.3
1554206678567,-9.907207000000001,-1.6813281999999998,1.4885948999999998,2.267948,0.39947417,0.10439592,101.82,27.54,8.64
1554206678587,-9.80665,-1.417966,1.0145429,2.3190807999999996,0.4101268,0.11717909,101.94,27.42,7.74
1554206678607,-9.797073,-1.2695253999999998,1.1773487,2.2477080000000003,0.4165184,0.10759171,102.06,27.24,6.78
1554206678627,-9.739613,-0.9056068000000002,0.99060094,2.1124194,0.43569317,0.10439592,102.18,27.06,5.76
1554206678647,-9.753978,-0.75716627,0.82779527,1.9409119,0.46765109999999993,0.1107875,102.36,26.88,4.62
1554206678666,-9.672575,-0.6183026,0.57400984,1.7832526999999998,0.46978164,0.112918034,102.54,26.52,3.3
1554206678687,-9.524135000000001,-0.54647654,0.17178397,1.5648735,0.44847634,0.08948222,102.78,25.98,2.1
1554206678707,-9.557653,-0.57041854,0.3393781,1.397627,0.41545314,0.041545313,103.02,25.32,0.84
1554206678727,-9.557653,-0.65660983,0.3776853,1.2879047,0.35579833,0.013848438000000001,103.2,24.84,-0.12
1554206678747,-9.519346,-0.66139823,0.24361002,1.2325108999999999,0.30892670000000005,0.007456851,103.38,24.24,-0.9
1554206678766,-9.619903,-0.5943606,0.21487960000000003,1.2016183,0.26525086,0.004261058,103.5,23.64,-1.74
1554206678786,-9.753978,-0.3405752,0.13826515,1.1653993,0.19387813,-0.004261058,103.62,22.98,-2.58
1554206678807,-9.624691,-0.32142156,0.09995792,1.0982877,0.11930962,-0.029827405,103.74,22.44,-3.36
1554206678827,-9.749189,-0.29747957,0.21009120000000003,0.9938916999999999,0.06711166,-0.06498113,103.8,21.96,-4.08
1554206678847,-9.586383999999999,-0.08678981,0.3537433,0.7637946,0.018109497,-0.07882957,103.86,21.18,-5.04
1554206678867,-9.481038999999999,-0.010175358,0.44472298,0.5581986,0.01917476,-0.094808534,103.92,20.7,-5.64
1554206678887,-9.509769,-0.077213004,0.6075286999999999,0.32597092,0.024501082,-0.10652645,103.92,20.16,-6.12
1554206678907,-9.624691,-0.27832595,0.741604,0.12357068,0.043675844000000005,-0.10546118,103.98,19.62,-6.6
1554206678927,-9.634267999999999,-0.41240123,0.7846996,0.024501082,0.06711166,-0.10972224,104.04,19.14,-6.96
1554206678947,-9.715671,-0.46507367,0.9091981,-0.002130529,0.09054748,-0.11824436,104.1,18.72,-7.26
1554206678967,-9.648633,-0.55605334,0.8086416000000001,0.010652645,0.10972224,-0.10972224,104.1,18.3,-7.56
1554206678987,-9.65821,-0.75716627,0.88046765,0.06498113,0.11824436,-0.08841695,104.16,17.94,-7.74
1554206679006,-9.710882000000002,-0.8960299999999999,0.5979519,0.17044231,0.13422333,-0.07456851,104.22,17.88,-7.92
1554206679026,-9.77792,-0.9391255999999999,0.6218939,0.24501082,0.13209279,-0.06924219,104.22,17.88,-8.04
1554206679047,-9.763555,-0.86729956,0.7032967,0.3323625,0.12037488,-0.034088463,104.22,17.94,-8.16
1554206679066,-9.773131,-0.7667431,0.5883751,0.37071204,0.098004326,-0.0063915867,104.28,18.0,-8.16
1554206679087,-9.859323,-0.6805518,0.49260699999999996,0.37816888,0.094808534,0.00958738,104.34,18.06,-8.16
1554206679107,-9.667786999999999,-0.5991489999999999,0.55964464,0.35473305,0.06178534,0.037284255,104.34,18.06,-8.16
1554206679127,-9.629479,-0.5943606,0.54527944,0.35473305,0.05219796,0.040480047000000005,104.4,18.0,-8.22
1554206679147,-9.734824,-0.6087258000000001,0.6314706999999999,0.36751625,0.056459017,0.04261058,104.46,17.88,-8.34
1554206679166,-9.80665,-0.45549688,0.49739540000000004,0.350472,0.07243799,0.05965481,104.52,17.76,-8.52
1554206679186,-9.844957,-0.31184477,0.48303019999999997,0.27696875,0.080960095,0.07776430000000001,104.58,17.52,-8.7
1554206679207,-9.682152,-0.08200141,0.5165489999999999,0.20879184,0.07882957,0.07563378,104.64,17.22,-8.94
1554206679227,-9.744401,-0.26396075,0.56443304,0.17470337,0.08841695,0.043675844000000005,104.7,16.98,-9.12
1554206679246,-9.758766,-0.3788824,0.5931635000000001,0.19920446,0.09161274,0.033023197000000004,104.76,16.74,-9.3
1554206679267,-9.873688000000001,-0.4985925,0.43035775,0.25353295,0.09267801,0.043675844000000005,104.76,16.5,-9.48
1554206679287,-9.964667,-0.39803603,0.41120413,0.30466563,0.07882957,0.043675844000000005,104.76,16.26,-9.6
1554206679307,-9.92636,-0.3357868,0.46866497,0.34621096,0.054328485999999995,0.029827405,104.82,16.14,-9.6
1554206679326,-9.92636,-0.3357868,0.26276365,0.3749731,0.03195793,0.011717908999999999,104.82,16.02,-9.66
1554206679346,-9.883265,-0.19692309,0.42078096,0.406931,0.008522116,0.0010652645,104.82,15.96,-9.66
1554206679366,-9.868899,-0.16819267,0.43514615,0.46871635,-0.0010652645,-0.025566347000000003,104.82,15.78,-9.66
1554206679387,-9.758766,-0.18255788,0.25318682,0.49108690000000005,-0.022370555,-0.05965481,104.82,15.54,-9.66
1554206679406,-9.749189,-0.0676362,0.05207389,0.35899413,-0.056459017,-0.068176925,104.94,15.3,-9.72
1554206679427,-9.80665,-0.20649989,0.19093758,0.19281286,-0.07030745599999999,-0.07030745599999999,105.0,15.0,-9.78
1554206679447,-9.710882000000002,-0.55605334,0.43514615,0.05539375,-0.06604639400000001,-0.08735169,105.12,14.7,-9.9
1554206679467,-9.768343,-0.6422445999999999,0.54527944,0.04580637,-0.05539375,-0.09054748,105.18,14.46,-10.08
1554206679487,-9.667786999999999,-0.5129577000000001,0.45429978,0.10972224,-0.054328485999999995,-0.07030745599999999,105.24,14.16,-10.32
1554206679507,-9.662998,-0.26874915,0.44951138,0.17789917,-0.06498113,-0.039414786,105.3,13.98,-10.56
1554206679527,-9.653421,-0.13946225,0.4878186,0.2066613,-0.06285059999999999,-0.043675844000000005,105.36,13.86,-10.74
1554206679546,-9.77792,-0.034117375,0.43993455,0.18216023,-0.053263225,-0.068176925,105.42,13.8,-10.98
1554206679567,-9.77792,0.02813187,0.24839842,0.07137272,-0.054328485999999995,-0.07776430000000001,105.42,13.74,-11.16
1554206679587,-9.744401,0.12389994,0.27712885,-0.08735169,-0.05752428,-0.06711166,105.42,13.62,-11.34
1554206679607,-9.643844999999999,0.032920275,0.28670564,-0.24820662,-0.06604639400000001,-0.07030745599999999,105.36,13.62,-11.4
1554206679627,-9.56723,-0.0724246,0.22924481,-0.3898868,-0.082025364,-0.10333065,105.36,13.56,-11.46
1554206679646,-9.581595,-0.09636662,0.20051439,-0.48682585,-0.098004326,-0.11717909,105.36,13.5,-11.4
1554206679666,-9.504980999999999,-0.22565351,0.43993455,-0.5411543000000001,-0.099069595,-0.10546118,105.36,13.44,-11.4
1554206679687,-9.543288,-0.39803603,0.5883751,-0.48682585,-0.07030745599999999,-0.111852765,105.24,13.44,-11.4
1554206679707,-9.744401,-0.5129577000000001,0.7080852,-0.44847634,-0.054328485999999995,-0.12357068,105.18,13.5,-11.4
1554206679727,-9.92636,-0.6374562,0.5069722,-0.39095205,-0.04580637,-0.09054748,105.0,13.68,-11.34
1554206679747,-9.921572,-0.6805518,0.52133745,-0.3685815,-0.05219796,-0.03834952,104.82,13.8,-11.22
1554206679767,-9.80665,-0.6853402,0.54049104,-0.37923414,-0.06498113,-0.004261058,104.7,13.98,-11.04
1554206679787,-9.662998,-0.5129577000000001,0.6889314999999999,-0.39201729999999996,-0.06711166,-0.0010652645,104.52,14.22,-10.92
1554206679807,-9.56723,-0.39803603,0.6745663000000001,-0.37284255,-0.058589544,-0.0063915867,104.4,14.4,-10.8
1554206679827,-9.696517,-0.3645172,0.717662,-0.31851408,-0.05006743,-0.015978966,104.34,14.58,-10.68
1554206679847,-9.648633,-0.57999533,0.8182184,-0.20559604,-0.046871635999999994,-0.029827405,104.34,14.88,-10.5
1554206679866,-9.706094,-0.65182143,0.7032967,-0.101200126,-0.04261058,-0.039414786,104.34,15.0,-10.44
1554206679887,-9.653421,-0.6278794,0.5883751,0.046871635999999994,-0.040480047000000005,-0.040480047000000005,104.46,15.36,-10.2
1554206679906,-9.859323,-0.4890157,0.5835866999999999,0.09161274,-0.049002163,-0.025566347000000003,104.58,15.6,-10.08
1554206679926,-9.706094,-0.3357868,0.5979519,0.07243799,-0.06391586,-0.015978966,104.7,15.84,-9.96
1554206679947,-9.787497,-0.3645172,0.6075286999999999,0.025566347000000003,-0.07563378,-0.022370555,104.82,15.96,-9.78
1554206679967,-9.619903,-0.44592008,0.5979519,-0.007456851,-0.07882957,-0.03834952,104.94,16.08,-9.72
1554206679987,-9.739613,-0.3357868,0.6123171,-0.02876214,-0.07563378,-0.049002163,104.94,16.2,-9.6
1554206680006,-9.667786999999999,-0.39803603,0.6985083000000001,-0.053263225,-0.07456851,-0.046871635999999994,104.94,16.2,-9.48
1554206680026,-9.701305,-0.45070848,0.66498953,-0.06498113,-0.07137272,-0.03834952,105.0,16.2,-9.42
1554206680047,-9.758766,-0.52253455,0.83737206,-0.06285059999999999,-0.06924219,-0.02876214,104.88,16.2,-9.42
1554206680067,-9.840169,-0.44592008,0.5931635000000001,-0.047936900000000005,-0.06178534,-0.022370555,104.82,16.26,-9.42
1554206680086,-9.830592,-0.43155485,0.75596917,-0.004261058,-0.05752428,-0.011717908999999999,104.76,16.26,-9.48
1554206680107,-9.840169,-0.38845924,0.75118077,0.014913702,-0.054328485999999995,-0.015978966,104.64,16.32,-9.54
1554206680126,-9.720459,-0.45549688,0.57400984,0.0,-0.046871635999999994,-0.011717908999999999,104.52,16.38,-9.6
1554206680147,-9.653421,-0.350152,0.6889314999999999,-0.012783173500000002,-0.04261058,-0.007456851,104.4,16.44,-9.6
1554206680167,-9.600749,-0.41240123,0.85173726,-0.014913702,-0.03834952,-0.013848438000000001,104.28,16.5,-9.66
1554206680187,-9.605537,-0.39324763,0.83737206,-0.0031957934000000003,-0.03089267,-0.027696876000000002,104.22,16.5,-9.66
1554206680207,-9.682152,-0.54168814,0.8900445,0.014913702,-0.022370555,-0.029827405,104.1,16.5,-9.66
1554206680226,-9.639056,-0.4985925,0.75118077,0.018109497,-0.013848438000000001,-0.022370555,104.04,16.5,-9.66
1554206680246,-9.591172,-0.46507367,0.8182184,0.0010652645,-0.0063915867,-0.012783173500000002,103.98,16.5,-9.66
1554206680267,-9.509769,-0.44592008,0.75596917,-0.0053263223,-0.0053263223,-0.02130529,103.98,16.5,-9.66
1554206680286,-9.576807,-0.4938041,0.7846996,0.008522116,0.004261058,-0.036218993,103.92,16.5,-9.66
1554206680306,-9.552864999999999,-0.44592008,0.86610246,0.014913702,0.0063915867,-0.034088463,103.98,16.5,-9.66
1554206680327,-9.677363,-0.38845924,0.65541273,0.022370555,0.010652645,-0.024501082,103.98,16.5,-9.66
1554206680346,-9.753978,-0.42197806,0.7990648,0.02876214,0.008522116,-0.033023197000000004,103.98,16.5,-9.66
1554206680366,-9.734824,-0.3357868,0.83737206,0.013848438000000001,-0.0010652645,-0.03834952,104.04,16.44,-9.66
1554206680387,-9.849746000000001,-0.32621,0.9044097,0.0063915867,-0.008522116,-0.041545313,104.04,16.44,-9.66
1554206680407,-9.883265,-0.41240123,0.7990648,0.015978966,0.004261058,-0.04261058,104.1,16.38,-9.66
1554206680426,-9.859323,-0.52253455,0.8996213,0.046871635999999994,0.002130529,-0.036218993,104.1,16.38,-9.72
1554206680447,-9.868899,-0.40761283,0.75596917,0.08628642,0.0063915867,-0.02130529,104.16,16.38,-9.72
1554206680466,-9.782708,-0.32142156,0.6362591,0.11930962,-0.0031957934000000003,-0.002130529,104.16,16.32,-9.78
1554206680487,-9.730036,-0.18734628,0.82779527,0.12250541,-0.0063915867,0.007456851,104.16,16.2,-9.78
1554206680507,-9.758766,-0.21128829999999998,0.6123171,0.12676647,-0.008522116,0.0053263223,104.22,16.14,-9.84
1554206680526,-9.758766,-0.24001873,0.82779527,0.10652645,-0.008522116,-0.0063915867,104.22,16.02,-9.84
1554206680547,-9.619903,-0.19692309,0.6889314999999999,0.07456851,0.0063915867,-0.011717908999999999,104.28,15.96,-9.9
1554206680566,-9.619903,-0.20649989,0.6362591,0.058589544,0.017044231,-0.017044231,104.34,15.9,-9.96
1554206680586,-9.677363,-0.18734628,0.56922144,0.034088463,0.013848438000000001,-0.024501082,104.34,15.84,-9.96
1554206680606,-9.730036,-0.19213470000000002,0.81343,-0.013848438000000001,0.010652645,-0.025566347000000003,104.4,15.78,-9.96
1554206680627,-9.562441999999999,-0.26874915,0.789488,-0.04474111,0.0053263223,-0.02876214,104.46,15.72,-10.02
1554206680646,-9.619903,-0.24480712,0.84216046,-0.036218993,0.014913702,-0.053263225,104.46,15.78,-10.02
1554206680668,-9.591172,-0.28311434,0.789488,-0.05006743,0.01917476,-0.060720075,104.46,15.78,-10.08
1554206680686,-9.667786999999999,-0.3788824,0.9427169,-0.040480047000000005,0.023435817999999997,-0.056459017,104.52,15.72,-10.08
1554206680707,-9.68694,-0.4938041,0.86131406,-0.02876214,0.026631612000000002,-0.06711166,104.52,15.72,-10.08
1554206680727,-9.710882000000002,-0.47465047,0.88046765,0.008522116,0.037284255,-0.06178534,104.52,15.72,-10.08
1554206680746,-9.725247,-0.46986207,0.84694886,0.080960095,0.05219796,-0.033023197000000004,104.52,15.66,-10.08
1554206680766,-9.763555,-0.41718966,0.7272388000000001,0.1587244,0.056459017,-0.017044231,104.52,15.66,-10.08
1554206680787,-9.720459,-0.26874915,0.43993455,0.18535602,0.039414786,-0.022370555,104.52,15.6,-10.02
1554206680807,-9.730036,-0.0676362,0.6314706999999999,0.17789917,0.03089267,-0.027696876000000002,104.52,15.6,-10.08
1554206680826,-9.696517,-0.18734628,0.53570265,0.15020229,0.017044231,-0.04261058,104.52,15.54,-10.08
1554206680846,-9.753978,-0.25438392,0.45908818,0.09374327,0.012783173500000002,-0.054328485999999995,104.52,15.54,-10.08
1554206680867,-9.68694,-0.3405752,0.7224503999999999,0.01917476,0.008522116,-0.06285059999999999,104.58,15.48,-10.14
1554206680887,-9.643844999999999,-0.35494040000000004,0.717662,0.0053263223,0.00958738,-0.06285059999999999,104.58,15.48,-10.2
1554206680906,-9.787497,-0.3597288,0.6841431,-0.01917476,0.004261058,-0.05752428,104.58,15.48,-10.26
1554206680926,-9.667786999999999,-0.25917232,0.57400984,-0.06391586,-0.0031957934000000003,-0.046871635999999994,104.58,15.48,-10.32
1554206680947,-9.730036,-0.31663316,0.40641573,-0.13422333,-0.0031957934000000003,-0.043675844000000005,104.58,15.42,-10.38
1554206680967,-9.734824,-0.21607670000000004,0.49260699999999996,-0.2066613,0.0031957934000000003,-0.037284255,104.58,15.42,-10.38
1554206680987,-9.787497,-0.25917232,0.5835866999999999,-0.23542345,0.007456851,-0.024501082,104.58,15.42,-10.38
1554206681007,-9.768343,-0.22565351,0.66498953,-0.20240025,0.007456851,-0.018109497,104.58,15.42,-10.32
1554206681026,-9.744401,-0.19692309,0.7990648,-0.13528858,0.023435817999999997,-0.017044231,104.52,15.42,-10.26
1554206681047,-9.758766,-0.23044191,0.64583594,-0.083090626,0.025566347000000003,-0.017044231,104.58,15.48,-10.2
1554206681067,-9.768343,-0.08678981,0.46387658,-0.11504856,0.022370555,-0.014913702,104.64,15.48,-10.08
1554206681086,-9.902417999999999,-0.048482585999999994,0.39683893,-0.21092236,0.00958738,-0.017044231,104.7,15.54,-9.96
1554206681106,-9.677363,-0.16819267,0.31543607,-0.33768883,-0.013848438000000001,-0.04261058,104.76,15.6,-9.9
1554206681127,-9.667786999999999,-0.14903906,0.43514615,-0.41864893,-0.025566347000000003,-0.06711166,104.82,15.66,-9.84
1554206681147,-9.691728999999999,-0.21607670000000004,0.5117606,-0.48682585,-0.039414786,-0.07989483,104.88,15.78,-9.78
1554206681167,-9.667786999999999,-0.24480712,0.5021838,-0.51452273,-0.05219796,-0.07669904,104.94,15.84,-9.66
1554206681187,-9.773131,-0.29269117,0.43035775,-0.5049353,-0.07243799,-0.08841695,104.94,15.9,-9.48
1554206681207,-9.854534,-0.3597288,0.45908818,-0.45912898,-0.12144015,-0.11611383,104.94,16.08,-9.36
1554206681226,-9.830592,-0.36930559999999996,0.5979519,-0.39521313,-0.16724652,-0.14487597,104.82,16.26,-9.24
1554206681246,-9.811439,-0.16819267,0.17657238,-0.45699844,-0.20985709,-0.14487597,104.76,16.5,-9.12
1554206681266,-9.595961,0.13347675,0.18136078,-0.77870834,-0.23222765,-0.13315806,104.7,16.8,-9.0
1554206681287,-9.548077000000001,0.21487960000000003,0.16220717,-1.1504856,-0.24501082,-0.15659387,104.64,17.1,-8.82
1554206681307,-9.706094,-0.42676646,0.54527944,-1.3539511,-0.24927188,-0.22264028,104.52,17.4,-8.58
1554206681326,-9.77792,-0.9391255999999999,0.65541273,-1.3954965,-0.27696875,-0.24927188,104.46,17.76,-8.28
1554206681348,-9.696517,-1.1162965,1.3449427999999999,-1.3912354,-0.2695119,-0.18855181,104.34,18.12,-7.86
1554206681368,-9.543288,-1.1402385,1.6944963,-1.2154667,-0.20026971,-0.08841695,104.28,18.78,-7.02
1554206681387,-9.504980999999999,-1.1833341999999998,1.8189948,-0.9917611999999999,-0.13422333,-0.07882957,104.22,19.08,-6.72
1554206681407,-9.595961,-1.1115081,1.6274586000000002,-0.5539375,-0.054328485999999995,-0.113983296,104.1,19.86,-5.88
1554206681427,-9.706094,-1.1402385,1.3210008,-0.36645097,-0.036218993,-0.10972224,104.04,20.16,-5.64
1554206681447,-9.730036,-0.9056068000000002,1.0480618,-0.2609898,-0.033023197000000004,-0.06711166,103.98,20.64,-5.04
1554206681467,-9.629479,-0.99658644,0.98102415,-0.23648871,-0.039414786,-0.046871635999999994,103.86,21.18,-4.56
1554206681487,-9.471461999999999,-1.1115081,1.1246762,-0.20879184,-0.027696876000000002,-0.060720075,103.8,21.66,-4.2
1554206681507,-9.495403999999999,-1.1546037,1.1677719,-0.096939065,-0.0031957934000000003,-0.033023197000000004,103.68,22.2,-3.9
1554206681527,-9.562441999999999,-0.86251116,1.0145429,-0.03089267,0.02130529,0.0063915867,103.68,22.38,-3.84
1554206681547,-9.744401,-0.8098387,0.7990648,0.03195793,0.012783173500000002,0.035153727999999995,103.56,22.62,-3.72
1554206681567,-9.744401,-0.7236475,0.64583594,0.0053263223,-0.008522116,0.0010652645,103.56,22.74,-3.66
1554206681587,-9.715671,-0.64703304,0.8182184,-0.060720075,-0.035153727999999995,-0.025566347000000003,103.56,22.8,-3.6
1554206681606,-9.624691,-0.5943606,0.6218939,-0.1438107,-0.03834952,-0.010652645,103.56,22.86,-3.42
1554206681626,-9.753978,-0.6087258000000001,0.48303019999999997,-0.3057309,-0.046871635999999994,0.0053263223,103.56,22.92,-3.24
1554206681647,-9.801862,-0.56084174,0.28191724,-0.5336975,-0.06178534,-0.004261058,103.56,22.98,-3.12
1554206681667,-9.749189,-0.7044938000000001,0.5021838,-0.737163,-0.10333065,-0.03834952,103.56,22.98,-2.94
1554206681686,-9.696517,-0.75237787,0.7942764,-0.83516735,-0.14913702,-0.07882957,103.56,22.98,-2.7
1554206681707,-9.643844999999999,-1.1162965,1.1150993999999999,-0.8298409999999999,-0.14807177,-0.09054748,103.5,23.04,-2.52
1554206681726,-9.481038999999999,-1.1402385,1.2826935,-0.8383630999999999,-0.13741912,-0.07243799,103.5,23.1,-2.28
1554206681747,-9.672575,-1.0588357,0.9379284999999999,-0.95447695,-0.08735169,-0.03089267,103.44,23.28,-2.1
1554206681767,-9.476251,-0.9487024,1.0097545,-1.2357068000000002,-0.06498113,0.0010652645,103.38,23.52,-1.98
1554206681786,-9.691728999999999,-1.0061632,1.0480618,-1.4807175,-0.056459017,-0.015978966,103.32,23.76,-1.74
1554206681806,-9.543288,-1.1785458,1.2826935,-1.5318503,-0.056459017,-0.051132694000000006,103.32,24.0,-1.32
1554206681827,-9.495403999999999,-1.738789,1.335366,-1.2793826000000001,-0.040480047000000005,-0.111852765,103.32,24.24,-0.84
1554206681846,-9.639056,-1.8201918999999998,1.1438298,-0.89375687,-0.026631612000000002,-0.10333065,103.32,24.48,-0.24
1554206681866,-9.720459,-1.7244238,1.1486181999999998,-0.49002165,-0.020240024,-0.022370555,103.32,24.66,0.42
1554206681886,-9.476251,-1.4610616,0.9044097,-0.15552860000000002,-0.035153727999999995,0.025566347000000003,103.32,24.84,1.2
1554206681907,-9.485827,-1.3365631000000002,1.0241197,0.07669904,-0.02130529,0.0010652645,103.32,24.96,1.92
1554206681926,-9.725247,-1.1641805,0.9139864999999999,0.19920446,-0.0053263223,-0.012783173500000002,103.32,25.2,2.58
1554206681946,-9.581595,-0.99658644,0.83737206,0.17470337,-0.0063915867,0.013848438000000001,103.32,25.44,3.18
1554206681967,-9.619903,-0.7667431,0.6410475,0.01917476,-0.0053263223,0.03834952,103.26,25.68,3.6
1554206681987,-9.68694,-0.7667431,0.7224503999999999,-0.18322548,-0.0010652645,0.007456851,103.26,25.92,3.84
1554206682007,-9.691728999999999,-0.7906850999999999,0.7368156,-0.3334278,-0.007456851,-0.04261058,103.26,26.16,3.96
1554206682027,-9.744401,-1.0253168,0.76075757,-0.38136467,-0.01917476,-0.058589544,103.26,26.34,4.02
1554206682047,-9.610325999999999,-1.3221979,0.98102415,-0.31638354,-0.03089267,-0.041545313,103.26,26.52,4.08
1554206682066,-9.504980999999999,-1.3317747,1.1534066,-0.20133498,-0.027696876000000002,-0.02876214,103.26,26.64,4.14
1554206682087,-9.595961,-1.3605051000000001,1.1486181999999998,-0.07030745599999999,-0.010652645,-0.027696876000000002,103.26,26.7,4.2
1554206682107,-9.634267999999999,-1.3557166999999999,1.110311,0.03089267,0.0010652645,-0.017044231,103.38,26.64,4.26
1554206682127,-9.648633,-1.1689690000000001,1.0959458,0.05752428,0.013848438000000001,-0.004261058,103.5,26.64,4.32
1554206682146,-9.696517,-1.1067197,0.8900445,0.03089267,0.014913702,-0.011717908999999999,103.56,26.64,4.38
1554206682167,-9.629479,-0.9295488000000001,0.6985083000000001,-0.034088463,0.010652645,-0.026631612000000002,103.68,26.64,4.5
1554206682187,-9.65821,-1.039682,0.741604,-0.11504856,0.002130529,-0.039414786,103.74,26.64,4.56
1554206682207,-9.648633,-1.0205284,0.7990648,-0.16298546,-0.00958738,-0.041545313,103.8,26.64,4.62
1554206682227,-9.715671,-1.1881226,0.7990648,-0.17576863,-0.023435817999999997,-0.03834952,103.8,26.64,4.62
1554206682247,-9.758766,-1.1546037,0.86610246,-0.1587244,-0.02876214,-0.035153727999999995,103.8,26.58,4.68
1554206682267,-9.677363,-1.2264298,0.9379284999999999,-0.15339808,-0.029827405,-0.03195793,103.8,26.58,4.74
1554206682287,-9.495403999999999,-1.240795,0.9139864999999999,-0.12570119999999999,-0.026631612000000002,-0.037284255,103.68,26.52,4.86
1554206682307,-9.572019000000001,-1.2120646000000002,0.8996213,-0.10333065,-0.027696876000000002,-0.043675844000000005,103.68,26.52,4.92
1554206682329,-9.610325999999999,-1.216853,1.0911574,-0.03834952,-0.023435817999999997,-0.051132694000000006,103.62,26.46,4.98
1554206682346,-9.68694,-1.2312181999999998,1.0001777,0.046871635999999994,-0.010652645,-0.043675844000000005,103.56,26.46,5.04
1554206682366,-9.710882000000002,-1.049259,1.158195,0.099069595,-0.007456851,-0.036218993,103.5,26.46,5.1
1554206682386,-9.629479,-1.0684125,0.86131406,0.07030745599999999,-0.0063915867,-0.034088463,103.5,26.52,5.1
1554206682407,-9.576807,-1.0971429,0.9235633,-0.024501082,-0.004261058,-0.04261058,103.44,26.58,5.16
1554206682426,-9.524135000000001,-1.0588357,0.7990648,-0.07776430000000001,-0.004261058,-0.05219796,103.38,26.58,5.16
1554206682447,-9.629479,-1.3365631000000002,1.0145429,-0.080960095,-0.0031957934000000003,-0.06178534,103.38,26.64,5.16
1554206682466,-9.557653,-1.2934675,1.0528502,-0.025566347000000003,-0.007456851,-0.05006743,103.38,26.7,5.16
1554206682487,-9.595961,-1.2216414,0.98102415,0.046871635999999994,-0.002130529,-0.037284255,103.32,26.7,5.16
1554206682506,-9.572019000000001,-1.264737,0.9475053,0.12037488,0.012783173500000002,-0.037284255,103.32,26.7,5.16
1554206682526,-9.643844999999999,-1.2695253999999998,1.0767921999999999,0.1949434,0.018109497,-0.039414786,103.26,26.58,5.16
1554206682547,-9.701305,-1.2455834,0.99538934,0.23116238,0.022370555,-0.034088463,103.2,26.52,5.16
1554206682566,-9.548077000000001,-1.2072762,0.86131406,0.23222765,0.024501082,-0.03834952,103.14,26.4,5.16
1554206682586,-9.667786999999999,-1.0923545000000001,0.6362591,0.1470065,0.01917476,-0.040480047000000005,103.02,26.28,5.16
1554206682606,-9.706094,-0.95349085,0.65541273,-0.012783173500000002,0.013848438000000001,-0.047936900000000005,102.9,26.16,5.16
1554206682626,-9.595961,-0.9487024,0.6410475,-0.19600865,-0.002130529,-0.06498113,102.78,26.04,5.1
1554206682646,-9.662998,-0.99658644,0.6985083000000001,-0.37390783,-0.010652645,-0.08735169,102.72,25.92,5.1
1554206682666,-9.662998,-1.1785458,0.8086416000000001,-0.48682585,-0.02130529,-0.101200126,102.72,25.8,5.1
1554206682686,-9.672575,-1.2695253999999998,0.9044097,-0.5113269,-0.03195793,-0.112918034,102.72,25.74,5.04
1554206682707,-9.519346,-1.3413515,1.0193313,-0.4133226,-0.04580637,-0.11824436,102.72,25.62,5.04
1554206682726,-9.710882000000002,-1.3844471,1.1246762,-0.21837921,-0.035153727999999995,-0.128897,102.72,25.56,5.04
1554206682746,-9.734824,-1.2695253999999998,0.95708215,-0.112918034,-0.039414786,-0.10652645,102.72,25.5,5.16
1554206682766,-9.461885,-1.2934675,0.86610246,-0.14274544,-0.03195793,-0.099069595,102.72,25.44,5.28
1554206682787,-9.504980999999999,-1.3796587,0.84216046,-0.34834146,0.0063915867,-0.12250541,102.72,25.26,5.52
1554206682806,-9.548077000000001,-1.5520413,0.789488,-0.47404268,0.025566347000000003,-0.1107875,102.72,25.2,5.58
1554206682826,-9.552864999999999,-1.6095021,0.82779527,-0.51026165,0.033023197000000004,-0.07563378,102.66,25.08,5.76
1554206682846,-9.56723,-1.5711948999999998,1.0193313,-0.37710363,0.03195793,-0.054328485999999995,102.6,25.02,6.12
1554206682866,-9.509769,-1.5376761,0.82779527,-0.19281286,0.026631612000000002,-0.046871635999999994,102.54,24.9,6.24
1554206682887,-9.653421,-1.1546037,0.6123171,-0.09587380000000001,0.02876214,-0.035153727999999995,102.48,24.72,6.66
1554206682906,-9.730036,-1.049259,0.43035775,-0.15659387,0.014913702,-0.024501082,102.48,24.6,6.9
1554206682926,-9.801862,-1.1641805,0.34895490000000007,-0.30466563,-0.008522116,-0.033023197000000004,102.42,24.42,7.08
1554206682946,-9.753978,-1.1067197,0.47824179999999994,-0.4250405,-0.03195793,-0.058589544,102.36,24.3,7.32
1554206682966,-9.753978,-1.2743138,0.42078096,-0.49002165,-0.06285059999999999,-0.058589544,102.3,24.24,7.5
1554206682987,-9.773131,-1.3940238999999999,0.66498953,-0.49428272,-0.08948222,-0.03089267,102.18,24.12,7.68
1554206683006,-9.706094,-1.4466964,0.6841431,-0.44208476,-0.10759171,-0.022370555,102.12,24.0,7.8
1554206683026,-9.710882000000002,-1.4945803999999998,0.7751228,-0.37603834,-0.12463594,-0.03089267,102.06,23.94,7.92
1554206683046,-9.634267999999999,-1.5089456,0.6218939,-0.3153183,-0.12250541,-0.03834952,102.0,23.88,7.92
1554206683066,-9.591172,-1.4610616,0.8900445,-0.30146983,-0.12144015,-0.03834952,102.0,23.88,7.98
1554206683086,-9.327810000000001,-1.6238673000000001,0.9044097,-0.3334278,-0.112918034,-0.049002163,101.88,24.0,8.16
1554206683106,-9.289502,-1.5520413,1.0241197,-0.33555830000000003,-0.082025364,-0.06924219,101.88,24.18,8.4
1554206683126,-9.528922999999999,-1.6478093,1.2156559,-0.30786142,-0.05219796,-0.07243799,101.94,24.42,8.64
1554206683146,-9.533711,-1.5807717,1.1246762,-0.25033715,-0.014913702,-0.06711166,101.94,24.6,8.88
1554206683170,-9.634267999999999,-1.4562732,0.7128736,-0.25140239999999997,-0.0063915867,-0.06604639400000001,102.0,24.72,9.18
1554206683186,-9.619903,-1.3892354999999998,0.46387658,-0.31638354,-0.0063915867,-0.060720075,102.0,24.9,9.42
1554206683206,-9.706094,-1.5328877,0.41120413,-0.43995422,-0.022370555,-0.05219796,102.0,24.96,9.66
1554206683226,-9.672575,-1.6861166,0.40641573,-0.54648066,-0.04580637,-0.040480047000000005,102.0,24.96,9.96
1554206683246,-9.744401,-1.8058267,0.5931635000000001,-0.58269966,-0.056459017,-0.020240024,102.0,24.84,10.14
1554206683266,-9.701305,-1.738789,0.85652566,-0.58696073,-0.06498113,0.041545313,102.06,24.78,10.32
1554206683286,-9.624691,-1.7004818,0.789488,-0.57311225,-0.05965481,0.05752428,102.06,24.66,10.5
1554206683306,-9.457097000000001,-1.6717514,0.6697779,-0.5613944000000001,-0.049002163,0.05219796,102.06,24.54,10.68
1554206683326,-9.591172,-1.4371196000000002,0.9187749,-0.50600064,-0.047936900000000005,0.05752428,102.0,24.42,10.8
1554206683350,-9.370906,-1.5472529,0.789488,-0.38562572,-0.036218993,0.04474111,102.0,24.3,10.92
1554206683367,-9.495403999999999,-1.6669630000000002,0.81343,-0.24394555,-0.011717908999999999,-0.0031957934000000003,102.0,24.24,11.1
1554206683390,-9.471461999999999,-1.6525976999999998,0.7990648,-0.17044231,-0.014913702,-0.00958738,102.0,24.24,11.16
1554206683406,-9.457097000000001,-1.6909049999999999,0.8996213,0.13422333,-0.008522116,-0.004261058,102.0,24.12,11.58
1554206683427,-9.519346,-1.3892354999999998,0.66020113,0.24714136,-0.004261058,-0.0063915867,101.94,24.0,11.76
1554206683446,-9.485827,-1.1689690000000001,0.40641573,0.18535602,-0.004261058,-0.01917476,102.0,23.94,12.0
1554206683466,-9.562441999999999,-1.0636241000000002,0.40162733,-0.0010652645,0.0010652645,-0.056459017,102.0,23.88,12.24
1554206683486,-9.639056,-1.2695253999999998,0.34895490000000007,-0.19281286,-0.0053263223,-0.09374327,102.0,23.76,12.42
1554206683508,-9.605537,-1.4227544,0.46387658,-0.28549087,-0.0063915867,-0.10759171,102.06,23.7,12.66
1554206683527,-9.65821,-1.7052702000000002,0.5979519,-0.3323625,-0.025566347000000003,-0.07989483,102.06,23.64,12.84
1554206683546,-9.524135000000001,-1.6861166,0.8038531999999999,-0.3334278,-0.029827405,-0.058589544,102.12,23.64,12.96
1554206683566,-9.643844999999999,-1.5903485000000002,0.55964464,-0.34514567,-0.03089267,-0.056459017,102.06,23.64,12.96
1554206683586,-9.744401,-1.7004818,0.7703344,-0.37816888,-0.022370555,-0.054328485999999995,102.06,23.7,13.02
1554206683606,-9.77792,-1.7579426,0.6410475,-0.38349520000000004,-0.025566347000000003,-0.035153727999999995,102.0,23.76,13.08
1554206683626,-9.696517,-1.7100586,0.57400984,-0.37390783,-0.020240024,-0.013848438000000001,102.0,23.88,13.14
1554206683646,-9.753978,-1.5711948999999998,0.53570265,-0.36964676,-0.012783173500000002,0.012783173500000002,101.94,24.0,13.2
1554206683666,-9.77792,-1.6190788999999999,0.6027403,-0.38136467,-0.014913702,0.039414786,101.88,24.06,13.32
1554206683687,-9.801862,-1.5472529,0.5883751,-0.38456047,-0.011717908999999999,0.036218993,101.88,24.12,13.56
1554206683706,-9.710882000000002,-1.46585,0.54527944,-0.39627838,-0.02130529,0.033023197000000004,101.88,24.18,13.86
1554206683726,-9.461885,-1.5041572,0.57400984,-0.40373522,-0.040480047000000005,0.036218993,101.88,24.24,14.1
1554206683749,-9.370906,-1.5233108,0.83737206,-0.4016047,-0.04261058,0.020240024,101.94,24.24,14.46
1554206683766,-9.303867,-1.5520413,0.7703344,-0.39308259999999995,-0.040480047000000005,0.0053263223,102.0,24.24,14.58
1554206683786,-9.370906,-1.6669630000000002,0.76075757,-0.32810146,-0.02876214,-0.018109497,102.06,23.94,14.88
1554206683806,-9.370906,-1.6095021,0.74639237,-0.23542345,-0.0063915867,-0.033023197000000004,102.12,23.76,15.12
1554206683826,-9.528922999999999,-1.6047136999999998,0.741604,-0.15339808,0.008522116,-0.03089267,102.12,23.64,15.24
1554206683849,-9.629479,-1.4562732,0.6697779,-0.13848437,0.022370555,-0.023435817999999997,102.12,23.52,15.36
1554206683866,-9.466674000000001,-1.4036007,0.5979519,-0.18642128,0.03195793,-0.039414786,102.12,23.28,15.66
1554206683886,-9.481038999999999,-1.46585,0.65541273,-0.165116,0.043675844000000005,-0.07563378,102.06,23.1,15.9
1554206683906,-9.509769,-1.5041572,0.5883751,-0.03195793,0.04580637,-0.10652645,102.06,22.98,16.14
1554206683926,-9.490616000000001,-1.7052702000000002,0.65541273,0.14274544,0.043675844000000005,-0.1107875,102.06,22.8,16.32
1554206683946,-9.576807,-1.7340006000000001,0.6841431,0.32810146,0.047936900000000005,-0.098004326,102.06,22.62,16.5
1554206683968,-9.739613,-1.7292121999999999,0.55964464,0.45060685,0.043675844000000005,-0.06391586,102.0,22.32,16.62
1554206683986,-9.873688000000001,-1.5616181,0.47824179999999994,0.4314321,0.036218993,-0.023435817999999997,102.0,22.02,16.62
1554206684006,-9.840169,-1.441908,0.5021838,0.30466563,0.02130529,-0.0053263223,101.94,21.72,16.56
1554206684026,-9.758766,-1.3940238999999999,0.44472298,0.15659387,0.0010652645,-0.012783173500000002,101.94,21.42,16.44
1554206684046,-9.739613,-1.4514848,0.4878186,0.07989483,-0.007456851,-0.01917476,101.88,21.12,16.26
1554206684067,-9.639056,-1.6525976999999998,0.5021838,0.09374327,-0.007456851,-0.0010652645,101.82,20.88,16.08
1554206684086,-9.639056,-1.5807717,0.6123171,0.11930962,-0.004261058,0.017044231,101.76,20.7,15.96
1554206684106,-9.495403999999999,-1.513734,0.53570265,0.10226539,-0.010652645,0.02876214,101.76,20.64,15.78
1554206684126,-9.65821,-1.5041572,0.5835866999999999,0.029827405,-0.002130529,0.012783173500000002,101.7,20.64,15.66
1554206684146,-9.816227,-1.4993688,0.5165489999999999,-0.014913702,0.002130529,0.025566347000000003,101.64,20.64,15.66
1554206684166,-9.576807,-1.5951369,0.55964464,-0.018109497,-0.010652645,0.02876214,101.58,20.64,15.6
1554206684186,-9.41879,-1.4562732,0.6075286999999999,0.0010652645,-0.013848438000000001,0.010652645,101.46,20.64,15.6
1554206684206,-9.610325999999999,-1.4993688,0.54049104,-0.0053263223,-0.00958738,0.018109497,101.34,20.64,15.6
1554206684226,-9.720459,-1.441908,0.5021838,-0.05752428,-0.023435817999999997,0.037284255,101.28,20.58,15.6
1554206684247,-9.576807,-1.441908,0.56922144,-0.06604639400000001,-0.026631612000000002,0.02130529,101.22,20.58,15.54
1554206684266,-9.557653,-1.4371196000000002,0.6123171,-0.017044231,-0.036218993,0.01917476,101.1,20.52,15.54
1554206684286,-9.557653,-1.3652935,0.6218939,0.03834952,-0.034088463,0.039414786,101.04,20.52,15.48
1554206684306,-9.504980999999999,-1.3796587,0.65062433,0.06498113,-0.026631612000000002,0.040480047000000005,100.98,20.46,15.48
1554206684326,-9.744401,-1.4131776000000003,0.48303019999999997,0.083090626,-0.02130529,0.034088463,101.04,20.46,15.42
1554206684346,-9.739613,-1.4706384,0.6027403,0.098004326,-0.037284255,0.046871635999999994,101.1,20.46,15.42
1554206684367,-9.667786999999999,-1.2503718000000001,0.83737206,0.101200126,-0.053263225,0.07030745599999999,101.1,20.46,15.42
1554206684386,-9.701305,-1.2216414,0.76075757,0.08735169,-0.054328485999999995,0.06285059999999999,101.16,20.4,15.42
1554206684406,-9.696517,-1.2312181999999998,0.8182184,0.04474111,-0.049002163,0.046871635999999994,101.22,20.34,15.42
1554206684426,-9.56723,-1.2982559,0.86610246,0.03089267,-0.046871635999999994,0.039414786,101.28,20.34,15.42
1554206684446,-9.586383999999999,-1.3078326999999998,0.8230068000000001,0.09587380000000001,-0.026631612000000002,0.025566347000000003,101.28,20.28,15.42
1554206684466,-9.562441999999999,-1.1258733,0.85173726,0.15446335,-0.013848438000000001,0.018109497,101.4,20.28,15.42
1554206684487,-9.624691,-1.0157399999999999,0.53570265,0.15020229,0.0010652645,0.018109497,101.46,20.28,15.42
1554206684506,-9.629479,-1.1067197,0.5979519,0.07137272,-0.004261058,0.0010652645,101.52,20.28,15.36
1554206684526,-9.677363,-1.0779893,0.47824179999999994,0.0053263223,-0.015978966,-0.01917476,101.64,20.28,15.3
1554206684546,-9.548077000000001,-1.1402385,0.6027403,-0.018109497,-0.033023197000000004,-0.027696876000000002,101.7,20.28,15.18
1554206684566,-9.701305,-1.1258733,0.5883751,-0.0053263223,-0.025566347000000003,-0.043675844000000005,101.82,20.28,15.12
1554206684586,-9.677363,-0.98700964,0.54527944,-0.0063915867,-0.017044231,-0.049002163,101.94,20.34,15.0
1554206684607,-9.682152,-1.049259,0.52133745,-0.07882957,-0.00958738,-0.06285059999999999,102.06,20.34,14.94
1554206684626,-9.595961,-1.1019313,0.55006784,-0.13954964,-0.008522116,-0.07882957,102.12,20.4,14.94
1554206684646,-9.696517,-1.2695253999999998,0.6697779,-0.21092236,-0.010652645,-0.09374327,102.18,20.58,14.88
1554206684666,-9.691728999999999,-1.192911,0.43993455,-0.2034655,-0.02130529,-0.09161274,102.3,20.76,14.88
1554206684686,-9.696517,-1.2838906,0.53570265,-0.16831179,-0.040480047000000005,-0.099069595,102.42,20.94,14.88
1554206684707,-9.672575,-1.264737,0.6027403,-0.112918034,-0.05219796,-0.10865697,102.54,21.18,14.88
1554206684726,-9.706094,-1.264737,0.6027403,-0.05965481,-0.07456851,-0.10759171,102.66,21.36,14.88
1554206684747,-9.720459,-1.2695253999999998,0.76075757,-0.03089267,-0.09267801,-0.112918034,102.72,21.6,14.88
1554206684766,-9.672575,-1.1881226,0.7272388000000001,-0.035153727999999995,-0.10439592,-0.111852765,102.84,21.84,14.88
1554206684786,-9.830592,-1.2743138,0.6889314999999999,-0.06604639400000001,-0.11611383,-0.113983296,102.9,22.02,14.88
1554206684807,-9.619903,-1.3844471,0.6697779,-0.10652645,-0.13209279,-0.112918034,102.96,22.32,14.88
1554206684826,-9.562441999999999,-1.4131776000000003,0.65062433,-0.11611383,-0.13954964,-0.10759171,103.02,22.74,14.94
1554206684847,-9.629479,-1.489792,0.8900445,-0.083090626,-0.15126756,-0.09054748,103.02,23.16,14.94
1554206684866,-9.562441999999999,-1.4706384,0.9283517,-0.01917476,-0.14594123,-0.08735169,103.08,23.52,15.0
1554206684887,-9.543288,-1.4514848,0.7990648,0.0010652645,-0.14061491,-0.07137272,103.2,23.88,15.0
1554206684906,-9.576807,-1.3988123,0.9139864999999999,-0.017044231,-0.12250541,-0.060720075,103.26,24.24,15.0
1554206684927,-9.447519999999999,-1.3461398999999998,1.1773487,-0.014913702,-0.099069595,-0.06285059999999999,103.32,24.54,15.0
1554206684946,-9.524135000000001,-1.4083891000000002,1.0911574,0.008522116,-0.07776430000000001,-0.05539375,103.38,24.84,15.0
1554206684974,-9.710882000000002,-1.3652935,1.1438298,0.080960095,-0.05219796,-0.01917476,103.38,24.96,15.0
1554206684987,-9.572019000000001,-1.3988123,1.0767921999999999,0.09374327,-0.05006743,-0.020240024,103.38,24.96,15.0
1554206685006,-9.457097000000001,-1.264737,0.9283517,0.101200126,-0.043675844000000005,-0.03834952,103.38,25.02,15.0
1554206685026,-9.519346,-1.3126211,1.0815806000000001,0.10652645,-0.039414786,-0.040480047000000005,103.38,25.02,14.94
1554206685047,-9.552864999999999,-1.4466964,1.0241197,0.13102753,-0.034088463,-0.036218993,103.32,25.02,14.94
1554206685066,-9.643844999999999,-1.3892354999999998,0.9475053,0.18109496,-0.026631612000000002,-0.023435817999999997,103.32,25.14,14.94
1554206685087,-9.744401,-1.2312181999999998,0.97144735,0.21411815,-0.03195793,-0.0010652645,103.38,25.26,14.94
1554206685107,-9.543288,-1.2838906,0.82779527,0.17789917,-0.04261058,0.010652645,103.44,25.38,14.94
1554206685126,-9.466674000000001,-1.2072762,0.83737206,0.08948222,-0.024501082,-0.0010652645,103.56,25.56,14.94
1554206685147,-9.615114,-1.1689690000000001,1.0241197,0.01917476,-0.00958738,-0.008522116,103.68,25.68,14.88
1554206685167,-9.533711,-1.3221979,1.062427,-0.0063915867,0.010652645,-0.010652645,103.74,25.86,14.82
1554206685186,-9.572019000000001,-1.3221979,1.0576386,0.007456851,0.02876214,-0.018109497,103.92,25.98,14.76
1554206685206,-9.600749,-1.4371196000000002,1.0672153999999998,0.04474111,0.039414786,-0.020240024,103.98,26.1,14.7
1554206685227,-9.572019000000001,-1.5089456,1.062427,0.09267801,0.04580637,-0.017044231,104.1,26.22,14.64
1554206685246,-9.643844999999999,-1.4706384,1.1534066,0.15446335,0.04580637,-0.013848438000000001,104.16,26.22,14.52
1554206685266,-9.605537,-1.3030443,1.1055226,0.22050974,0.053263225,-0.007456851,104.22,26.28,14.46
1554206685286,-9.586383999999999,-1.2695253999999998,0.96187055,0.24501082,0.056459017,0.004261058,104.22,26.22,14.34
1554206685306,-9.591172,-1.1737574,0.8996213,0.18748654,0.058589544,0.00958738,104.28,26.22,14.34
1554206685328,-9.519346,-1.1881226,0.6745663000000001,0.07563378,0.056459017,0.015978966,104.28,26.22,14.34
1554206685348,-9.595961,-1.2360066,0.7703344,-0.025566347000000003,0.056459017,0.014913702,104.28,26.22,14.28
1554206685368,-9.672575,-1.2838906,1.0528502,-0.06924219,0.05006743,0.024501082,104.28,26.22,14.22
1554206685388,-9.524135000000001,-1.1067197,0.98102415,-0.06178534,0.046871635999999994,0.033023197000000004,104.22,26.22,14.16
1554206685408,-9.572019000000001,-0.9439139999999999,0.6937199000000001,-0.08522116,0.05539375,0.024501082,104.22,26.22,14.16
1554206685427,-9.581595,-1.0348936,0.8182184,-0.1470065,0.053263225,0.011717908999999999,104.16,26.16,14.1
1554206685447,-9.519346,-1.1833341999999998,0.9139864999999999,-0.17576863,0.06498113,-0.011717908999999999,104.16,26.16,14.1
1554206685467,-9.572019000000001,-1.2838906,0.9427169,-0.1587244,0.06711166,-0.014913702,104.1,26.04,14.1
1554206685487,-9.648633,-1.3317747,1.0672153999999998,-0.08735169,0.07137272,-0.004261058,104.1,25.98,14.1
1554206685506,-9.643844999999999,-1.2455834,0.97144735,0.007456851,0.06924219,-0.011717908999999999,104.1,25.92,14.16
1554206685526,-9.519346,-1.2503718000000001,0.7942764,0.051132694000000006,0.06391586,-0.020240024,104.1,25.86,14.22
1554206685547,-9.653421,-1.1402385,0.789488,0.02130529,0.06498113,-0.025566347000000003,104.1,25.74,14.34
1554206685567,-9.753978,-1.2264298,0.6171055000000001,-0.033023197000000004,0.06604639400000001,-0.01917476,104.16,25.68,14.4
1554206685586,-9.744401,-1.264737,0.6171055000000001,-0.06498113,0.05539375,-0.022370555,104.28,25.62,14.52
1554206685606,-9.706094,-1.264737,0.8086416000000001,-0.027696876000000002,0.03834952,-0.017044231,104.34,25.62,14.64
1554206685627,-9.557653,-1.2503718000000001,0.76075757,0.06924219,0.036218993,-0.014913702,104.46,25.62,14.76
1554206685647,-9.710882000000002,-1.039682,0.76554596,0.12463594,0.040480047000000005,-0.03195793,104.52,25.68,14.82
1554206685667,-9.639056,-1.1354501000000001,0.6841431,0.1470065,0.036218993,-0.03834952,104.52,25.74,14.88
1554206685689,-9.629479,-1.192911,0.6697779,0.14594123,0.008522116,-0.06604639400000001,104.58,25.86,14.88
1554206685706,-9.710882000000002,-1.1258733,0.56922144,0.113983296,-0.0031957934000000003,-0.07563378,104.58,25.86,14.88
1554206685728,-9.710882000000002,-1.1737574,0.6697779,0.05539375,0.0031957934000000003,-0.07563378,104.46,25.92,14.82
1554206685747,-9.782708,-1.0157399999999999,0.6314706999999999,-0.029827405,0.0031957934000000003,-0.06604639400000001,104.4,25.92,14.82
1554206685767,-9.744401,-1.0253168,0.7128736,-0.10226539,0.0010652645,-0.06498113,104.34,25.92,14.76
1554206685787,-9.595961,-1.1833341999999998,0.76554596,-0.11824436,0.008522116,-0.07989483,104.22,25.92,14.7
1554206685807,-9.56723,-1.192911,0.6841431,-0.09267801,0.008522116,-0.09054748,104.1,25.86,14.7
1554206685827,-9.629479,-1.2791021999999999,0.741604,-0.039414786,0.013848438000000001,-0.07989483,104.04,25.8,14.64
1554206685847,-9.543288,-1.2743138,0.7942764,0.010652645,0.015978966,-0.07563378,103.98,25.8,14.58
1554206685866,-9.672575,-1.1881226,0.87567925,0.029827405,0.017044231,-0.07030745599999999,103.92,25.74,14.58
1554206685886,-9.691728999999999,-1.0971429,0.55964464,0.022370555,0.007456851,-0.056459017,103.86,25.68,14.58
1554206685907,-9.691728999999999,-1.1593921,0.76075757,-0.0031957934000000003,0.0010652645,-0.060720075,103.8,25.68,14.58
1554206685927,-9.648633,-1.3365631000000002,0.85173726,-0.017044231,-0.004261058,-0.06604639400000001,103.8,25.68,14.58
1554206685946,-9.691728999999999,-1.264737,0.76075757,0.0,0.007456851,-0.05539375,103.8,25.68,14.52
1554206685966,-9.758766,-1.1881226,0.9139864999999999,0.027696876000000002,0.007456851,-0.04580637,103.8,25.68,14.52
1554206685987,-9.701305,-1.1737574,0.75596917,0.06498113,0.0031957934000000003,-0.03195793,103.8,25.68,14.52
1554206686007,-9.639056,-1.2312181999999998,0.7751228,0.083090626,-0.0031957934000000003,-0.023435817999999997,103.86,25.68,14.46
1554206686026,-9.643844999999999,-1.1737574,0.75596917,0.083090626,-0.004261058,-0.027696876000000002,103.86,25.68,14.46
1554206686047,-9.576807,-1.1258733,0.8230068000000001,0.06178534,-0.0031957934000000003,-0.027696876000000002,103.92,25.74,14.4
1554206686067,-9.624691,-1.1162965,0.65541273,0.041545313,-0.0010652645,-0.025566347000000003,103.98,25.8,14.4
1554206686087,-9.696517,-1.1641805,0.7032967,0.04580637,0.011717908999999999,-0.036218993,103.98,25.8,14.34
1554206686107,-9.68694,-1.1881226,0.84216046,0.058589544,0.00958738,-0.027696876000000002,104.04,25.86,14.34
1554206686126,-9.557653,-1.264737,0.75596917,0.07456851,0.013848438000000001,-0.027696876000000002,104.1,25.92,14.28
1554206686146,-9.758766,-1.073201,0.66498953,0.10652645,0.0053263223,-0.03195793,104.1,25.92,14.28
1554206686167,-9.68694,-1.1402385,0.6985083000000001,0.10333065,-0.004261058,-0.037284255,104.1,25.98,14.28
1554206686187,-9.739613,-1.2216414,0.82779527,0.082025364,0.004261058,-0.041545313,104.16,25.98,14.28
1554206686207,-9.696517,-1.3365631000000002,0.86610246,0.098004326,0.011717908999999999,-0.04261058,104.16,26.04,14.28
1554206686227,-9.552864999999999,-1.3221979,0.9187749,0.17150758,0.034088463,-0.049002163,104.16,26.04,14.28
1554206686246,-9.552864999999999,-1.4802152,0.9235633,0.28975195,0.053263225,-0.056459017,104.16,26.1,14.34
1554206686266,-9.801862,-1.3509283,0.9044097,0.4261058,0.082025364,-0.03834952,104.16,26.1,14.4
1554206686287,-9.677363,-1.3413515,0.7224503999999999,0.5006742999999999,0.09161274,-0.010652645,104.16,26.1,14.4
1554206686306,-9.572019000000001,-1.2455834,0.6745663000000001,0.49321744,0.10013486,0.0,104.16,26.16,14.34
1554206686327,-9.672575,-1.2695253999999998,0.76075757,0.45486793,0.10013486,0.008522116,104.16,26.16,14.28
1554206686347,-9.677363,-1.1354501000000001,0.76075757,0.47191215,0.096939065,0.00958738,104.16,26.22,14.16
1554206686367,-9.677363,-1.1976993999999999,0.75118077,0.5763081,0.080960095,0.013848438000000001,104.16,26.22,13.98
1554206686387,-9.624691,-1.0827777,0.741604,0.7318366999999999,0.06924219,0.03195793,104.16,26.28,13.5
1554206686407,-9.552864999999999,-0.8242039000000001,0.66498953,0.8245146999999999,0.060720075,0.046871635999999994,104.16,26.28,13.2
1554206686426,-9.581595,-0.7667431,0.49260699999999996,0.7850999,0.05539375,0.047936900000000005,104.16,26.28,12.78
1554206686446,-9.600749,-0.66139823,0.39205053,0.6317018,0.056459017,0.027696876000000002,104.22,26.28,12.42
1554206686467,-9.619903,-0.66618663,0.46387658,0.4165184,0.053263225,0.0,104.22,26.28,12.0
1554206686486,-9.653421,-0.84814596,0.65062433,0.33875409999999995,0.040480047000000005,-0.02130529,104.22,26.28,11.7
1554206686506,-9.696517,-0.97743285,0.7703344,0.32810146,0.040480047000000005,-0.041545313,104.28,26.28,11.4
1554206686527,-9.825804,-0.8960299999999999,0.741604,0.34194988,0.047936900000000005,-0.035153727999999995,104.28,26.22,11.16
1554206686546,-9.830592,-0.9103952,0.7032967,0.34940675,0.05752428,-0.0031957934000000003,104.28,26.22,10.98
1554206686566,-9.619903,-0.9295488000000001,0.6171055000000001,0.330232,0.04474111,0.0031957934000000003,104.28,26.16,10.86
1554206686587,-9.730036,-0.84814596,0.55964464,0.30892670000000005,0.043675844000000005,-0.0031957934000000003,104.34,26.16,10.74
1554206686607,-9.662998,-0.87687635,0.6362591,0.2790993,0.037284255,0.004261058,104.34,26.16,10.56
1554206686627,-9.739613,-0.84814596,0.6123171,0.24820662,0.036218993,0.004261058,104.34,26.1,10.38
1554206686647,-9.667786999999999,-0.83378077,0.53091425,0.21518342,0.03089267,0.0063915867,104.4,26.1,10.2
1554206686667,-9.782708,-0.87208796,0.66498953,0.20240025,0.040480047000000005,0.007456851,104.4,26.1,10.02
1554206686687,-9.572019000000001,-0.7715314999999999,0.75118077,0.23968449999999997,0.03195793,0.0063915867,104.52,26.1,9.84
1554206686710,-9.56723,-0.87208796,0.55485624,0.3206446,0.04261058,-0.010652645,104.58,26.04,9.66
1554206686726,-9.797073,-0.7858967,0.52133745,0.36325517,0.040480047000000005,-0.0063915867,104.7,26.04,9.54
1554206686746,-9.677363,-0.57041854,0.40641573,0.33768883,0.025566347000000003,-0.002130529,104.76,26.04,9.42
1554206686767,-9.710882000000002,-0.56563014,0.3298013,0.2428803,0.01917476,-0.026631612000000002,104.82,25.98,9.3
1554206686786,-9.619903,-0.5943606,0.41599256,0.10333065,0.010652645,-0.04474111,104.94,25.98,9.18
1554206686806,-9.667786999999999,-0.54647654,0.49260699999999996,-0.020240024,0.0053263223,-0.047936900000000005,104.94,26.04,9.0
1554206686827,-9.629479,-0.7236475,0.7846996,-0.07243799,0.00958738,-0.056459017,104.94,26.04,8.82
1554206686847,-9.701305,-0.7906850999999999,0.6027403,-0.06604639400000001,0.013848438000000001,-0.05539375,104.88,26.04,8.64
1554206686866,-9.763555,-0.7236475,0.64583594,-0.053263225,0.015978966,-0.05219796,104.82,26.04,8.52
1554206686887,-9.763555,-0.6805518,0.6362591,-0.05752428,0.014913702,-0.046871635999999994,104.82,26.04,8.34
1554206686907,-9.868899,-0.7140707,0.82779527,-0.06498113,0.02130529,-0.043675844000000005,104.82,26.04,8.22
1554206686927,-9.797073,-0.7858967,0.65062433,-0.05539375,0.017044231,-0.033023197000000004,104.82,25.98,8.1
1554206686947,-9.696517,-0.7140707,0.7032967,-0.03195793,0.013848438000000001,-0.024501082,104.88,25.98,8.1
1554206686967,-9.691728999999999,-0.76195467,0.5021838,-0.014913702,0.020240024,-0.033023197000000004,104.88,25.98,8.16
1554206686986,-9.610325999999999,-0.75716627,0.43035775,-0.01917476,0.018109497,-0.04474111,104.94,25.98,8.16
1554206687007,-9.519346,-0.75237787,0.65062433,-0.01917476,0.012783173500000002,-0.04580637,105.0,25.92,8.22
1554206687027,-9.509769,-0.7236475,0.64583594,0.0,0.013848438000000001,-0.054328485999999995,105.06,25.92,8.28
1554206687047,-9.581595,-0.76195467,0.66498953,0.022370555,0.018109497,-0.06178534,105.0,25.92,8.34
1554206687066,-9.672575,-0.88166475,0.6171055000000001,0.025566347000000003,0.029827405,-0.060720075,105.0,25.92,8.4
1554206687087,-9.509769,-0.8146270999999999,0.56922144,0.024501082,0.037284255,-0.06178534,104.94,25.92,8.4
1554206687107,-9.600749,-0.8098387,0.6123171,0.040480047000000005,0.039414786,-0.07137272,104.88,25.92,8.46
1554206687127,-9.619903,-0.87687635,0.57400984,0.07989483,0.03089267,-0.080960095,104.82,25.92,8.52
1554206687147,-9.600749,-0.8960299999999999,0.55964464,0.12463594,0.027696876000000002,-0.07563378,104.76,25.92,8.52
1554206687168,-9.672575,-0.8098387,0.6889314999999999,0.15446335,0.023435817999999997,-0.06711166,104.7,25.92,8.58
1554206687187,-9.730036,-0.8098387,0.56922144,0.18002969,0.027696876000000002,-0.05965481,104.64,25.98,8.58
1554206687207,-9.720459,-0.7763199000000001,0.65062433,0.18961707,0.03089267,-0.046871635999999994,104.58,26.04,8.58
1554206687226,-9.730036,-0.7140707,0.54049104,0.19387813,0.034088463,-0.037284255,104.52,26.1,8.58
1554206687246,-9.696517,-0.76195467,0.7080852,0.21092236,0.03834952,-0.03195793,104.46,26.1,8.58
1554206687267,-9.734824,-0.623091,0.44472298,0.23116238,0.039414786,-0.03089267,104.46,26.1,8.58
1554206687287,-9.744401,-0.6805518,0.6314706999999999,0.21837921,0.033023197000000004,-0.029827405,104.46,26.1,8.58
1554206687307,-9.682152,-0.65182143,0.44951138,0.17470337,0.02876214,-0.03195793,104.4,26.1,8.58
1554206687326,-9.792285000000001,-0.65182143,0.31543607,0.13635385,0.017044231,-0.036218993,104.4,26.1,8.52
1554206687347,-9.830592,-0.7236475,0.55485624,0.08735169,0.002130529,-0.040480047000000005,104.4,26.1,8.52
1554206687366,-9.80665,-0.86251116,0.5069722,0.10759171,-0.0010652645,-0.046871635999999994,104.4,26.1,8.46
1554206687387,-9.816227,-0.7811083000000001,0.6027403,0.13635385,-0.007456851,-0.046871635999999994,104.46,26.1,8.4
1554206687406,-9.691728999999999,-0.7763199000000001,0.54527944,0.18535602,-0.011717908999999999,-0.05219796,104.46,26.1,8.28
1554206687427,-9.792285000000001,-0.9439139999999999,0.54527944,0.20240025,-0.002130529,-0.05006743,104.46,26.1,8.16
1554206687446,-9.993398,-1.0253168,0.20051439,0.20559604,-0.0031957934000000003,-0.02130529,104.46,26.1,8.04
1554206687467,-9.701305,-1.1210848999999998,0.65062433,0.15446335,-0.022370555,0.02876214,104.46,26.04,7.92
1554206687486,-9.80665,-1.049259,0.84694886,0.35473305,-0.0053263223,0.035153727999999995,104.46,25.98,7.8
1554206687507,-9.639056,-0.83856916,0.9187749,0.5752428,-0.00958738,0.06498113,104.46,25.92,7.68
1554206687527,-9.682152,-0.56084174,0.87089086,0.71159667,0.0063915867,0.09054748,104.58,25.86,7.56
1554206687546,-9.524135000000001,-0.3309984,0.65062433,0.7052050999999999,0.022370555,0.07669904,104.64,25.8,7.44
1554206687567,-9.600749,-0.05805939,0.48303019999999997,0.5390238,0.05752428,0.0053263223,104.7,25.74,7.26
1554206687586,-9.509769,0.037708677,0.3393781,0.32490566,0.07030745599999999,-0.04474111,104.76,25.62,7.02
1554206687606,-9.648633,-0.16340427,0.21487960000000003,0.060720075,0.07882957,-0.06711166,104.88,25.5,6.78
1554206687627,-9.825804,-0.56563014,0.27712885,-0.14168017,0.06391586,-0.07137272,104.94,25.14,6.54
1554206687646,-9.792285000000001,-0.66618663,0.19572599,-0.22477080000000002,0.037284255,-0.07456851,105.0,24.84,6.24
1554206687667,-9.89763,-0.7236475,0.39205053,-0.18535602,0.012783173500000002,-0.07030745599999999,104.94,24.54,6.0
1554206687686,-9.744401,-0.75716627,0.46387658,-0.082025364,-0.014913702,-0.05006743,104.88,24.3,5.76
1554206687707,-9.643844999999999,-0.5991489999999999,0.6937199000000001,0.015978966,-0.02876214,-0.04474111,104.82,24.0,5.52
1554206687726,-9.811439,-0.6757634,0.6314706999999999,0.07456851,-0.015978966,-0.05752428,104.76,23.7,5.4
1554206687746,-9.710882000000002,-0.7954735,0.65541273,0.12250541,-0.011717908999999999,-0.068176925,104.76,23.52,5.34
1554206687767,-9.744401,-0.7044938000000001,0.75596917,0.14913702,0.002130529,-0.07030745599999999,104.7,23.4,5.28
1554206687787,-9.639056,-0.8146270999999999,0.717662,0.1768339,0.014913702,-0.07137272,104.7,23.58,5.22
1554206687806,-9.715671,-0.75237787,0.66498953,0.18961707,0.02130529,-0.07456851,104.76,23.82,5.22
1554206687827,-9.634267999999999,-0.7715314999999999,0.6314706999999999,0.17576863,0.025566347000000003,-0.07030745599999999,104.82,24.0,5.16
1554206687847,-9.653421,-0.7140707,0.3633201,0.14274544,0.024501082,-0.06711166,104.88,24.18,5.1
1554206687866,-9.706094,-0.7092823,0.20051439,0.10439592,0.02130529,-0.06178534,104.94,24.42,5.1
1554206687886,-9.643844999999999,-0.76195467,0.3393781,0.05539375,0.02130529,-0.051132694000000006,104.94,24.6,5.04
1554206687906,-9.773131,-0.8146270999999999,0.38726214,0.00958738,0.024501082,-0.037284255,105.0,24.78,4.98
1554206687927,-9.715671,-0.8098387,0.43993455,-0.0063915867,0.024501082,-0.024501082,105.0,24.9,4.92
1554206687947,-9.715671,-0.7284359,0.54527944,0.027696876000000002,0.025566347000000003,-0.017044231,104.94,24.96,4.86
1554206687967,-9.797073,-0.7715314999999999,0.20051439,0.07350325,0.01917476,0.0031957934000000003,104.94,24.96,4.8
1554206687987,-9.696517,-0.9487024,0.5883751,0.096939065,0.014913702,0.02876214,104.88,24.96,4.68
1554206688007,-9.715671,-0.75716627,0.65541273,0.17044231,0.011717908999999999,0.033023197000000004,104.88,24.96,4.62
1554206688026,-9.830592,-0.56084174,0.43514615,0.2545982,0.020240024,0.027696876000000002,104.88,24.96,4.56
1554206688046,-9.888053,-0.5943606,0.5021838,0.25566345,0.029827405,0.04261058,104.94,24.9,4.5
1554206688066,-9.715671,-0.44113165,0.57400984,0.20559604,0.034088463,0.06285059999999999,104.94,24.9,4.44
1554206688086,-9.725247,-0.46986207,0.55485624,0.17789917,0.047936900000000005,0.056459017,105.0,24.84,4.38
1554206688107,-9.720459,-0.47465047,0.49739540000000004,0.15552860000000002,0.05219796,0.046871635999999994,105.06,24.72,4.32
1554206688127,-9.701305,-0.36930559999999996,0.54049104,0.12463594,0.046871635999999994,0.053263225,105.12,24.66,4.26
1554206688147,-9.677363,-0.5943606,0.28670564,0.08841695,0.05006743,0.05752428,105.18,24.6,4.2
1554206688166,-9.749189,-0.5129577000000001,0.28191724,0.047936900000000005,0.040480047000000005,0.054328485999999995,105.18,24.6,4.14
1554206688186,-9.816227,-0.47465047,0.18136078,0.0,0.01917476,0.05006743,105.18,24.54,4.08
1554206688207,-9.835381,-0.41240123,0.3298013,-0.002130529,-0.010652645,0.053263225,105.3,24.54,4.02
1554206688227,-9.888053,-0.350152,0.43035775,0.036218993,-0.023435817999999997,0.051132694000000006,105.36,24.6,3.96
1554206688247,-9.730036,-0.350152,0.46866497,0.09267801,-0.04261058,0.035153727999999995,105.36,24.6,3.9
1554206688266,-9.643844999999999,-0.26396075,0.43514615,0.13209279,-0.041545313,0.015978966,105.42,24.6,3.9
1554206688287,-9.643844999999999,-0.30705637,0.42078096,0.128897,-0.04474111,0.0031957934000000003,105.48,24.6,3.84
1554206688310,-9.844957,-0.31184477,0.3633201,0.10972224,-0.033023197000000004,-0.004261058,105.48,24.6,3.84
1554206688326,-9.739613,-0.28311434,0.44472298,0.09587380000000001,-0.04261058,-0.010652645,105.54,24.54,3.84
1554206688346,-9.662998,-0.27353755,0.54527944,0.111852765,-0.053263225,-0.040480047000000005,105.54,24.48,3.78
1554206688367,-9.734824,-0.23044191,0.3824737,0.10972224,-0.05006743,-0.05965481,105.54,24.3,3.78
1554206688386,-9.634267999999999,-0.3405752,0.41599256,0.09374327,-0.047936900000000005,-0.056459017,105.48,24.06,3.72
1554206688406,-9.600749,-0.31663316,0.42078096,0.07456851,-0.046871635999999994,-0.054328485999999995,105.48,23.76,3.72
1554206688426,-9.624691,-0.43634325,0.5021838,0.07669904,-0.033023197000000004,-0.06285059999999999,105.36,23.52,3.72
1554206688446,-9.639056,-0.350152,0.6027403,0.10652645,-0.025566347000000003,-0.041545313,105.24,23.22,3.66
1554206688467,-9.624691,-0.47465047,0.6075286999999999,0.18748654,-0.020240024,-0.041545313,105.06,22.98,3.66
1554206688486,-9.65821,-0.374094,0.6841431,0.28868666,-0.011717908999999999,-0.043675844000000005,104.94,22.68,3.6
1554206688507,-9.639056,-0.3309984,0.47824179999999994,0.37710363,-0.008522116,-0.043675844000000005,104.82,22.5,3.54
1554206688526,-9.710882000000002,-0.29747957,0.41599256,0.46339005,-0.0063915867,-0.051132694000000006,104.7,22.32,3.42
1554206688547,-9.787497,-0.38367084,0.24361002,0.51452273,-0.022370555,-0.051132694000000006,104.58,22.32,3.24
1554206688566,-9.706094,-0.46507367,0.31064767,0.5432849000000001,-0.035153727999999995,-0.04261058,104.52,22.26,3.12
1554206688586,-9.792285000000001,-0.47465047,0.5165489999999999,0.5773733,-0.03834952,-0.043675844000000005,104.52,22.2,2.94
1554206688606,-9.758766,-0.4938041,0.54527944,0.62531024,-0.03834952,-0.037284255,104.58,22.02,2.7
1554206688626,-9.744401,-0.41240123,0.5117606,0.6785734,-0.04261058,-0.03089267,104.64,21.9,2.46
1554206688647,-9.868899,-0.21607670000000004,0.53570265,0.7275756,-0.03834952,-0.026631612000000002,104.7,21.72,2.16
1554206688666,-9.744401,-0.13467385,0.66020113,0.7456851,-0.033023197000000004,-0.010652645,104.76,21.54,1.8
1554206688686,-9.768343,0.05686229,0.64583594,0.7275756,-0.03195793,-0.004261058,104.82,21.3,1.38
1554206688706,-9.825804,0.047285482000000004,0.49260699999999996,0.64341974,-0.01917476,-0.0010652645,104.88,21.12,1.02
1554206688727,-9.730036,-0.02932897,0.6171055000000001,0.55287224,-0.015978966,-0.002130529,104.88,20.88,0.66
1554206688746,-9.821015,-0.010175358,0.45429978,0.49534798,-0.0053263223,-0.015978966,104.94,20.7,0.3
1554206688766,-9.758766,0.19093758,0.42078096,0.40586576,-0.007456851,-0.024501082,104.94,20.52,-0.12
1554206688786,-9.744401,0.14784196,0.53091425,0.24820662,-0.00958738,-0.029827405,104.94,20.22,-0.54
1554206688807,-9.639056,0.14305355,0.34895490000000007,0.07563378,-0.018109497,-0.037284255,104.94,19.98,-0.9
1554206688826,-9.648633,0.08559271,0.5021838,-0.046871635999999994,-0.013848438000000001,-0.060720075,105.0,19.74,-1.2
1554206688846,-9.696517,-0.11552023,0.6362591,-0.08735169,-0.020240024,-0.07456851,105.0,19.5,-1.44
1554206688867,-9.619903,-0.14903906,0.7032967,-0.036218993,-0.041545313,-0.07456851,105.06,19.2,-1.74
1554206688886,-9.696517,-0.16819267,0.56443304,0.012783173500000002,-0.05006743,-0.07350325,105.06,19.08,-1.86
1554206688906,-9.720459,-0.31184477,0.75596917,0.1107875,-0.051132694000000006,-0.06604639400000001,105.06,18.84,-2.16
1554206688926,-9.696517,-0.32621,0.65541273,0.15978967,-0.05219796,-0.06498113,105.06,18.78,-2.16
1554206688947,-9.639056,-0.17298107,0.6745663000000001,0.18535602,-0.035153727999999995,-0.054328485999999995,105.06,18.78,-2.22
1554206688966,-9.787497,-0.16819267,0.86610246,0.18429075,-0.014913702,-0.05219796,105.06,18.78,-2.34
1554206688986,-9.734824,-0.19692309,0.87089086,0.18429075,0.0063915867,-0.05752428,105.06,18.78,-2.34
1554206689006,-9.844957,-0.21607670000000004,0.7272388000000001,0.18109496,0.026631612000000002,-0.05219796,105.06,18.78,-2.4
1554206689026,-9.840169,-0.12988544,0.56443304,0.165116,0.018109497,-0.035153727999999995,105.06,18.78,-2.52
1554206689047,-9.744401,-0.10594343,0.39683893,0.13635385,0.0053263223,-0.02876214,105.06,18.84,-2.64
1554206689066,-9.744401,-0.0005985504,0.47824179999999994,0.084155895,0.002130529,-0.03089267,105.06,18.84,-2.76
1554206689086,-9.739613,-0.09636662,0.3537433,0.023435817999999997,-0.0063915867,-0.034088463,105.06,18.84,-2.88
1554206689106,-9.763555,-0.19692309,0.6362591,-0.015978966,-0.0010652645,-0.03834952,105.06,18.9,-3.0
1554206689126,-9.706094,-0.29747957,0.6937199000000001,-0.015978966,-0.0010652645,-0.04580637,105.0,18.84,-3.18
1554206689147,-9.768343,-0.21128829999999998,0.6362591,-0.002130529,-0.004261058,-0.051132694000000006,104.94,18.78,-3.3
1554206689166,-9.911995,-0.19213470000000002,0.5931635000000001,0.024501082,-0.007456851,-0.043675844000000005,104.94,18.6,-3.3
1554206689186,-9.782708,-0.25438392,0.6937199000000001,0.03195793,-0.007456851,-0.037284255,104.88,18.42,-3.36
1554206689206,-9.768343,-0.32142156,0.5931635000000001,0.04474111,-0.008522116,-0.043675844000000005,104.82,18.18,-3.36
1554206689227,-9.706094,-0.23044191,0.6314706999999999,0.041545313,-0.013848438000000001,-0.040480047000000005,104.7,18.0,-3.36
1554206689246,-9.634267999999999,-0.24959552,0.65541273,0.053263225,-0.00958738,-0.03089267,104.52,17.76,-3.3
1554206689266,-9.730036,-0.28311434,0.6314706999999999,0.09374327,-0.0031957934000000003,-0.03195793,104.34,17.52,-3.24
1554206689286,-9.643844999999999,-0.30705637,0.54049104,0.14487597,-0.0031957934000000003,-0.035153727999999995,104.16,17.28,-3.18
1554206689307,-9.701305,-0.24959552,0.7703344,0.18429075,-0.0063915867,-0.022370555,103.98,17.16,-3.18
1554206689326,-9.667786999999999,-0.17298107,0.53091425,0.20772657,-0.004261058,-0.0053263223,103.8,17.1,-3.18
1554206689346,-9.662998,-0.110731825,0.49739540000000004,0.18642128,-0.0031957934000000003,-0.008522116,103.68,17.04,-3.24
1554206689366,-9.701305,0.04249708,0.6410475,0.12570119999999999,0.0053263223,-0.01917476,103.56,17.04,-3.24
1554206689386,-9.533711,-0.12509704,0.7703344,0.09374327,0.022370555,-0.01917476,103.56,16.98,-3.24
1554206689406,-9.758766,-0.19213470000000002,0.48303019999999997,0.10226539,0.036218993,-0.020240024,103.62,16.92,-3.18
1554206689426,-9.715671,-0.08200141,0.6171055000000001,0.13741912,0.041545313,-0.01917476,103.68,16.86,-3.18
1554206689446,-9.744401,0.0041898529999999995,0.46866497,0.16405073,0.039414786,-0.020240024,103.74,16.8,-3.18
1554206689466,-9.792285000000001,-0.048482585999999994,0.53091425,0.17789917,0.034088463,-0.020240024,103.8,16.74,-3.24
1554206689486,-9.768343,0.04249708,0.6218939,0.1587244,0.034088463,-0.022370555,103.86,16.68,-3.24
1554206689506,-9.730036,0.047285482000000004,0.7032967,0.14274544,0.037284255,-0.036218993,103.92,16.62,-3.3
1554206689526,-9.624691,0.09995792,0.6697779,0.15020229,0.043675844000000005,-0.05965481,103.98,16.56,-3.3
1554206689546,-9.639056,0.09516951400000001,0.65062433,0.18322548,0.049002163,-0.08948222,104.04,16.5,-3.36
1554206689566,-9.619903,-0.17298107,0.49260699999999996,0.19707392,0.054328485999999995,-0.11717909,104.16,16.5,-3.48
1554206689586,-9.80665,-0.22086509999999998,0.5165489999999999,0.15233281,0.06924219,-0.12037488,104.34,16.5,-3.6
1554206689606,-9.720459,-0.26874915,0.48303019999999997,0.101200126,0.06924219,-0.10333065,104.46,16.5,-3.66
1554206689626,-9.787497,-0.31184477,0.39683893,0.07137272,0.06711166,-0.084155895,104.7,16.5,-3.84
1554206689646,-9.792285000000001,-0.29747957,0.3298013,0.08841695,0.054328485999999995,-0.07030745599999999,104.94,16.56,-3.96
1554206689666,-9.696517,-0.22565351,0.45908818,0.13528858,0.05006743,-0.06711166,105.12,16.56,-4.14
1554206689686,-9.811439,-0.19213470000000002,0.3633201,0.17257284,0.049002163,-0.056459017,105.24,16.62,-4.32
1554206689706,-9.744401,-0.08200141,0.3393781,0.19174760000000002,0.03834952,-0.04580637,105.36,16.62,-4.44
1554206689726,-9.68694,-0.077213004,0.31543607,0.18535602,0.023435817999999997,-0.06178534,105.48,16.74,-4.56
1554206689746,-9.816227,-0.13946225,0.34895490000000007,0.20772657,0.011717908999999999,-0.080960095,105.54,16.74,-4.62
1554206689766,-9.797073,-0.3309984,0.20051439,0.27696875,-0.012783173500000002,-0.08522116,105.42,16.74,-4.68
1554206689786,-9.720459,-0.32621,0.45429978,0.28442562,-0.020240024,-0.056459017,105.36,16.8,-4.74
1554206689806,-9.715671,-0.19692309,0.3585317,0.23435818,-0.018109497,-0.020240024,105.3,16.86,-4.8
1554206689827,-9.825804,-0.110731825,0.55964464,0.16085494,-0.008522116,-0.012783173500000002,105.3,16.86,-4.86
1554206689846,-9.744401,-0.077213004,0.6027403,0.11504856,0.0063915867,-0.02130529,105.3,16.86,-4.92
1554206689866,-9.701305,-0.10115502,0.66020113,0.080960095,0.025566347000000003,-0.024501082,105.36,16.86,-5.04
1554206689886,-9.835381,-0.014963761,0.66020113,0.05006743,0.049002163,-0.022370555,105.36,16.86,-5.22
1554206689906,-9.811439,-0.16340427,0.53091425,0.047936900000000005,0.06178534,-0.026631612000000002,105.36,16.86,-5.34
1554206689926,-9.749189,-0.11552023,0.41120413,0.07669904,0.07030745599999999,-0.036218993,105.3,16.86,-5.46
1554206689947,-9.811439,-0.15382746,0.40641573,0.12783173,0.07243799,-0.040480047000000005,105.18,16.8,-5.52
1554206689966,-9.830592,-0.13946225,0.28670564,0.17789917,0.06285059999999999,-0.03834952,105.06,16.74,-5.64
1554206689986,-9.730036,-0.048482585999999994,0.18136078,0.20453078,0.043675844000000005,-0.037284255,104.94,16.68,-5.7
1554206690006,-9.662998,-0.04369418,0.19572599,0.19920446,0.027696876000000002,-0.04261058,104.82,16.62,-5.76
1554206690026,-9.787497,-0.077213004,0.0712275,0.15765914,0.017044231,-0.053263225,104.7,16.56,-5.76
1554206690046,-9.744401,-0.02932897,0.18136078,0.094808534,0.014913702,-0.060720075,104.58,16.44,-5.76
1554206690066,-9.825804,-0.038905777,0.3585317,0.056459017,0.0,-0.06711166,104.46,16.26,-5.7
1554206690086,-9.677363,-0.0005985504,0.3585317,0.056459017,-0.0063915867,-0.07350325,104.46,16.14,-5.64
1554206690106,-9.753978,-0.16819267,0.3585317,0.08948222,-0.012783173500000002,-0.07456851,104.46,16.02,-5.58
1554206690126,-9.868899,-0.20649989,0.29149407,0.11504856,-0.01917476,-0.06924219,104.46,15.96,-5.58
1554206690147,-9.734824,-0.20171149,0.43514615,0.18002969,-0.024501082,-0.060720075,104.52,15.78,-5.58
1554206690166,-9.725247,-0.19692309,0.46387658,0.21411815,-0.013848438000000001,-0.068176925,104.52,15.66,-5.58
1554206690186,-9.787497,-0.20649989,0.45908818,0.25992453,-0.007456851,-0.06924219,104.52,15.6,-5.58
1554206690211,-9.825804,-0.13467385,0.41599256,0.33129725,-0.017044231,-0.053263225,104.64,15.54,-5.64
1554206690226,-9.773131,-0.04369418,0.5021838,0.33981937,-0.01917476,-0.043675844000000005,104.7,15.54,-5.64
1554206690247,-9.763555,-0.048482585999999994,0.34895490000000007,0.29507825,-0.015978966,-0.039414786,104.76,15.54,-5.76
1554206690266,-9.744401,0.023343466,0.42078096,0.20879184,-0.011717908999999999,-0.03834952,104.82,15.48,-5.88
1554206690286,-9.801862,-0.15382746,0.55485624,0.18961707,-0.0053263223,-0.040480047000000005,104.88,15.3,-5.94
1554206690306,-9.65821,-0.4985925,1.0049661,0.3568636,-0.004261058,-0.053263225,104.94,15.12,-6.06
1554206690326,-9.605537,-0.66618663,1.0576386,0.7286409,-0.0031957934000000003,-0.08948222,105.0,14.88,-6.18
1554206690347,-9.787497,-0.5033809,0.75596917,1.1664646,0.029827405,-0.09374327,105.06,14.7,-6.3
1554206690366,-9.974244,-0.22565351,0.6314706999999999,1.438107,0.05539375,-0.035153727999999995,105.0,14.4,-6.42
1554206690386,-9.763555,0.20051439,0.08559271,1.4125406999999999,0.053263225,-0.023435817999999997,104.94,13.98,-6.72
1554206690406,-9.720459,0.41120413,0.037708677,1.1313108,0.05539375,-0.07456851,104.88,13.56,-7.08
1554206690427,-9.816227,0.57400984,-0.05327099,0.6988135,0.04474111,-0.10865697,104.82,13.02,-7.62
1554206690446,-9.792285000000001,0.43993455,-0.17298107,0.26205507,0.02130529,-0.10333065,104.76,12.54,-8.22
1554206690466,-9.868899,0.31543607,-0.014963761,-0.084155895,-0.007456851,-0.09161274,104.7,12.06,-8.82
1554206690486,-9.844957,0.11432313,-0.17298107,-0.30679616,-0.034088463,-0.07882957,104.64,11.64,-9.36
1554206690506,-9.888053,-0.010175358,0.19093758,-0.42184472,-0.06178534,-0.07882957,104.64,11.22,-9.9
1554206690527,-9.864111,-0.08678981,0.28191724,-0.46125950000000004,-0.07989483,-0.07030745599999999,104.58,10.62,-10.56
1554206690546,-9.749189,-0.17298107,0.3345897,-0.45167214,-0.083090626,-0.05965481,104.58,10.44,-10.74
1554206690566,-9.753978,-0.3357868,0.5021838,-0.37603834,-0.08735169,-0.043675844000000005,104.52,10.02,-10.92
1554206690586,-9.720459,-0.30705637,0.55485624,-0.29614353,-0.084155895,-0.03834952,104.52,9.96,-10.92
1554206690606,-9.706094,-0.30705637,0.6937199000000001,-0.15659387,-0.07137272,-0.03195793,104.46,10.08,-10.8
1554206690626,-9.682152,-0.21607670000000004,0.7703344,-0.07030745599999999,-0.046871635999999994,-0.03089267,104.46,10.38,-10.74
1554206690647,-9.682152,-0.12988544,0.75118077,-0.023435817999999997,-0.023435817999999997,-0.03089267,104.46,10.92,-10.56
1554206690666,-9.701305,-0.014963761,0.6123171,-0.002130529,-0.0063915867,-0.04474111,104.52,11.4,-10.38
1554206690687,-9.720459,-0.17298107,0.56922144,0.0063915867,-0.0010652645,-0.058589544,104.52,11.94,-10.2
1554206690706,-9.68694,-0.110731825,0.5165489999999999,0.0010652645,-0.002130529,-0.06604639400000001,104.64,12.48,-10.02
1554206690726,-9.77792,-0.19213470000000002,0.49739540000000004,-0.020240024,-0.0063915867,-0.05965481,104.82,13.02,-9.84
1554206690747,-9.868899,-0.24959552,0.47824179999999994,-0.033023197000000004,-0.017044231,-0.04474111,104.94,13.56,-9.72
1554206690766,-9.696517,-0.20171149,0.5165489999999999,-0.020240024,-0.027696876000000002,-0.043675844000000005,105.06,13.98,-9.54
1554206690786,-9.753978,-0.21607670000000004,0.34895490000000007,0.0,-0.037284255,-0.04580637,105.18,14.28,-9.42
1554206690807,-9.662998,-0.048482585999999994,0.4878186,0.026631612000000002,-0.039414786,-0.047936900000000005,105.36,14.4,-9.36
1554206690826,-9.753978,-0.18255788,0.3585317,0.049002163,-0.036218993,-0.058589544,105.42,14.58,-9.3
1554206690847,-9.725247,-0.15861586,0.45908818,0.05219796,-0.036218993,-0.06711166,105.48,14.7,-9.3
1554206690866,-9.715671,-0.19213470000000002,0.7128736,0.053263225,-0.027696876000000002,-0.068176925,105.54,14.88,-9.3
1554206690887,-9.715671,-0.22565351,0.6362591,0.099069595,-0.020240024,-0.07456851,105.48,15.0,-9.3
1554206690907,-9.581595,-0.19692309,0.7128736,0.20772657,-0.007456851,-0.09054748,105.42,15.12,-9.3
1554206690926,-9.715671,-0.11552023,0.6937199000000001,0.34408042,-0.002130529,-0.10865697,105.3,15.12,-9.3
1554206690946,-9.667786999999999,-0.22565351,0.5021838,0.43569317,-0.002130529,-0.113983296,105.24,15.12,-9.3
1554206690967,-9.739613,-0.15382746,0.46866497,0.43569317,-0.002130529,-0.112918034,105.12,15.12,-9.36
1554206690987,-9.744401,-0.10115502,0.3345897,0.3749731,-0.011717908999999999,-0.12144015,105.06,15.12,-9.42
1554206691006,-9.758766,-0.19213470000000002,0.44472298,0.30786142,-0.023435817999999997,-0.13209279,105.0,15.06,-9.48
1554206691026,-9.811439,-0.29269117,0.42078096,0.2428803,-0.025566347000000003,-0.13209279,104.94,15.0,-9.6
1554206691047,-9.725247,-0.32621,0.54049104,0.18216023,-0.027696876000000002,-0.101200126,104.94,14.94,-9.66
1554206691066,-9.883265,-0.45070848,0.6314706999999999,0.21411815,-0.037284255,-0.09054748,104.94,14.88,-9.78
1554206691087,-9.92636,-0.54647654,0.3537433,0.20026971,-0.06924219,-0.056459017,104.94,14.76,-9.9
1554206691106,-10.055647,-0.7188591,0.3441665,0.2545982,-0.12996227,-0.02130529,104.94,14.64,-10.02
1554206691126,-9.80665,-0.38367084,0.5117606,0.34727620000000003,-0.16831179,0.010652645,105.0,14.52,-10.14
1554206691147,-9.615114,-0.077213004,0.41120413,0.38242993,-0.17257284,0.013848438000000001,105.0,14.4,-10.26
1554206691167,-9.605537,0.032920275,0.87089086,0.294013,-0.1470065,0.010652645,105.06,14.28,-10.44
1554206691187,-9.457097000000001,0.31543607,0.9235633,0.12250541,-0.112918034,-0.0010652645,105.18,14.22,-10.56
1554206691207,-9.576807,0.15263036,1.0432734000000001,-0.035153727999999995,-0.058589544,-0.04261058,105.18,14.1,-10.74
