TimeStamp,Ax,Ay,Az,Gx,Gy,Gz,Mx,My,Mz
1553845515441,6.5004563,0.7541966,4.5491223,-0.01401447,0.27948427,-0.07524149,-17.52,35.28,-36.66
1553845515460,7.2546525,2.152453,5.2410674,-0.029286101000000002,0.32346657,-0.059969865,-18.72,35.34,-38.34
1553845515480,8.899519999999999,3.8859081,6.478907599999999,-0.1276354,0.3845531,0.13367443,-18.539998999999998,35.579997999999996,-38.399998
1553845515501,9.732727,4.735875599999999,6.924243,-0.30112112,0.4407527,0.2552366,-18.119999,36.059998,-37.92
1553845515520,9.0838785,3.213117,6.411868,-0.36892718,0.3692815,0.29860803,-17.94,36.239998,-37.62
1553845515540,6.984099400000001,0.4932206,5.200365000000001,-0.26874527,0.31735793,0.23385632,-17.34,36.239998,-37.98
1553845515560,5.3631754,-1.0534808999999998,4.7119327,0.007976678000000001,0.35400987,0.048153285,-16.74,36.66,-37.8
1553845515580,5.3631754,-0.71828246,4.8579836,0.24499239,0.33507302,-0.1314411,-15.66,37.02,-37.62
1553845515600,5.595420400000001,-0.16041641,5.090228,0.42458677,0.28864726,-0.31653327,-15.66,36.719997,-37.32
1553845515620,6.0862465,0.4956149,5.602603,0.53148824,0.37355754,-0.48696467,-16.199999,36.84,-37.68
1553845515640,6.821289,1.1779832000000001,6.368771,0.52537954,0.46824163,-0.59020084,-16.38,36.42,-38.28
1553845515660,7.843644,2.47568,7.609005499999999,0.41053686,0.33873823,-0.5737075,-17.16,35.399998,-38.1
1553845515680,9.656111,6.4142623,8.600235000000001,0.19306885,-0.032056987,-0.23589905,-16.5,34.86,-38.879996999999996
1553845515701,9.840469,7.151699000000001,7.850827000000001,0.0849457,-0.32588318,0.12206798,-16.26,34.98,-40.02
1553845515720,8.463761,4.901080599999999,6.342434,0.011641869,-0.39246747,0.30471668,-16.199999,35.16,-39.42
1553845515740,6.799740299999999,2.310475,5.104593799999999,-0.03478389,-0.18721674,0.26256698,-15.719999,34.739998,-39.0
1553845515760,5.569083,0.5554718000000001,4.7550297,0.034854747,0.008870985,0.0848052,-16.32,34.98,-40.26
1553845515780,5.3799353,-0.083799616,4.9202347,0.22972077,0.077898756,-0.1436584,-16.74,34.32,-40.379996999999996
1553845515800,5.8659735,0.505192,5.420637999999999,0.38854572,0.004594928,-0.295153,-16.98,33.66,-39.6
1553845515820,7.47732,2.0542877,6.684815400000001,0.355559,-0.08764572400000001,-0.2670532,-17.039998999999998,33.66,-39.42
1553845515840,9.629773,7.316903599999999,7.843644,-0.10075733,-0.15789524,0.090913855,-16.56,33.12,-38.219997
1553845515860,9.766247,6.957762700000001,7.513234,-0.36648372,-0.025948334,0.3291513,-15.78,32.94,-35.88
1553845515880,7.082265,2.6193366,5.621757,-0.32799920000000005,-0.044885155,0.31632313,-15.54,32.82,-34.14
1553845515900,6.4693303,2.4086404,5.6361227,-0.38175535,-0.018007086999999998,0.2973863,-15.48,33.059998,-33.899998
1553845515920,6.912271499999999,3.189174,6.158075,-0.4544483,-0.006400645999999999,0.30349496,-15.42,33.78,-34.32
1553845515941,6.938608,1.4269878,5.262616,-0.43917668,0.09133779,0.19353922,-15.0,34.14,-33.899998
1553845515960,5.7917510000000005,-0.32083282,5.030371,-0.21193482,0.171972,0.018220888,-14.34,34.079997999999996,-33.6
1553845515980,5.585843,-0.8356019,4.8172809999999995,0.13137145,0.14509393,-0.2297904,-14.099998999999999,33.78,-33.96
1553845516001,6.0407553,-0.30646718,5.05192,0.41847813,0.027196944,-0.47352564,-14.519999499999999,33.719997,-33.6
1553845516020,6.902694,0.9433443000000001,5.6002088,0.47528859999999995,0.043690305,-0.6115811999999999,-14.88,33.48,-33.84
1553845516041,8.600235000000001,2.9090437999999996,7.005648,0.301192,0.08339655,-0.54316425,-15.24,32.88,-34.2
1553845516060,10.137360000000001,6.241874,8.130958,0.08311310400000001,-0.116356395,-0.2841574,-16.14,33.48,-37.02
1553845516080,10.070319999999999,8.667274,7.8125186,-0.19116539,-0.24647069,0.083583474,-17.34,34.079997999999996,-40.02
1553845516101,7.2019787,3.9242165,5.9737160000000005,-0.28951472,-0.09314351,0.25218228,-18.06,34.2,-39.84
1553845516120,5.901887400000001,0.7302538000000001,5.0950169999999995,-0.17955895,0.020477425,0.22652593,-17.16,34.2,-39.42
1553845516141,5.784568,0.35914123,5.0998054,-0.03478389,-0.06626544,0.14100479999999999,-17.52,34.079997999999996,-38.879996999999996
1553845516160,6.100612,1.211503,5.054314,0.14175616,-0.1847733,0.09152472,-18.24,34.44,-38.94
1553845516180,6.5483418,1.4605076000000001,5.087834,0.23216423,-0.116356395,0.022496943999999998,-17.16,34.739998,-39.66
1553845516201,7.084658999999999,2.1213273999999998,5.6337285,0.25110105,0.0039840629999999995,-0.060580727,-17.34,34.739998,-39.899998
1553845516220,7.611399700000001,3.0024207,5.9665327,0.18024068,0.0736227,-0.08257188,-18.66,34.98,-39.42
1553845516240,8.217151,4.0391417,6.675238,0.04890465,-0.04183083,-0.0049919905,-18.24,34.26,-39.0
1553845516261,8.827691,5.0567082999999995,7.2594414,-0.15207002,-0.21592742,0.14467,-18.119999,33.66,-39.36
1553845516280,8.38475,5.193182,7.7909703,-0.23698029,-0.35764816,0.35664022,-18.539998999999998,34.02,-39.48
1553845516301,8.502069,4.400677,6.7398834,-0.419629,-0.44866708,0.5521170999999999,-18.48,34.079997999999996,-39.42
1553845516320,7.242681500000001,1.6352897,5.212336,-0.32677746,-0.226923,0.48797625,-18.24,34.079997999999996,-38.579997999999996
1553845516341,5.3919067,-0.6560313,4.529968,-0.067770615,-0.13346061,0.34014687,-17.94,34.739998,-37.739998
1553845516360,5.602603,-0.56744313,4.8029150000000005,0.26576182,-0.15545176,0.18193278,-17.34,34.98,-37.5
1553845516381,6.5052447,1.2067145000000001,5.3368387,0.29019642,-0.34543085,0.010890506000000001,-16.32,34.8,-35.76
1553845516400,6.797346000000001,1.7430321,5.111777,0.22116865,-0.22936645,-0.15831918,-16.38,34.92,-35.579997999999996
1553845516420,7.161275999999999,1.6113469999999999,5.145296599999999,0.1991775,0.07850962,-0.33485922,-16.98,34.44,-36.36
1553845516440,7.1109962,1.3575538,5.253039,0.21811432,0.21961950000000002,-0.48452120000000004,-17.1,34.5,-37.2
1553845516460,6.533976,1.4221992,4.946572,0.24132721,0.35278812,-0.5908118,-17.22,34.2,-37.98
1553845516480,7.862798700000001,1.1660118,6.273,0.30180284,0.40287906,-0.38189584,-17.52,34.079997999999996,-38.64
1553845516500,10.304958000000001,9.529214,8.882759,-0.35548812,0.0125361765,0.07014443,-17.88,34.2,-39.059998
1553845516520,12.519663000000001,9.09585,7.178035700000001,-0.49659804,0.061405394,0.39573559999999997,-18.0,33.84,-39.12
1553845516540,7.474925999999999,0.9624985,5.377541000000001,-0.23270422,-0.030835256000000002,0.21858469,-18.539998999999998,33.6,-39.54
1553845516560,5.2674046,-1.1540405,4.3025117,0.017750522,-0.15300829999999999,0.063424915,-18.3,33.719997,-39.54
1553845516581,5.3224730000000005,0.8667275,4.122941,0.15030827,-0.068708904,-0.059359,-17.82,34.14,-39.0
1553845516600,6.7566433,2.0806248,4.936994599999999,0.10082819,0.025364347000000002,-0.085015334,-17.88,33.78,-38.52
1553845516620,7.9489923,2.8372157000000002,6.0814580000000005,0.07700445,0.052242417,-0.090513125,-17.94,33.899998,-38.879996999999996
1553845516640,8.674458,3.5914123,6.6800265,0.0867783,-0.03327872,-0.020263622,-18.3,33.96,-39.0
1553845516660,9.25866,4.264203500000001,6.605803999999999,0.015917927,-0.27334875,0.08419433,-18.0,33.54,-35.82
1553845516680,9.253872,5.05192,6.2322974,-0.14840484,-0.40163046,0.285169,-17.16,33.66,-33.54
1553845516700,8.6433325,4.292935,6.1556807000000004,-0.22415212,-0.29411817,0.49958270000000005,-16.5,33.3,-33.78
1553845516720,7.0128307,2.423006,5.162056400000001,-0.19055451,-0.07115236,0.5869364,-15.9,32.64,-33.42
1553845516740,6.182017299999999,-0.7302538000000001,4.4916596,-0.013403606,0.2141217,0.38962695,-16.44,33.059998,-34.14
1553845516761,6.3951080000000005,-0.749408,5.4493694,0.21506,0.051020685999999996,0.19415009,-17.22,33.42,-35.219997
1553845516780,6.6129869999999995,0.86193895,5.4302154,0.22849904,-0.18110810000000002,0.04387723,-16.38,33.6,-35.7
1553845516801,6.1652575,0.94573855,4.929812,0.23277509,0.038803383999999996,-0.1436584,-16.08,34.559998,-37.079997999999996
1553845516820,6.119766,0.7350424,4.975303,0.31096584,0.37294668,-0.3831176,-17.16,34.98,-38.399998
1553845516840,6.560312700000001,0.84996754,4.9441776,0.4361932,0.44502878,-0.6384592,-17.699999,34.26,-38.52
1553845516860,7.5850625,0.82123625,6.0455437000000005,0.5339316,0.21106738,-0.61035943,-17.82,34.559998,-39.3
1553845516880,12.189252999999999,6.299337,9.210775,0.20039923,-1.2745568999999999,0.068922706,-17.4,34.559998,-39.84
1553845516900,13.850879999999998,14.478179999999998,5.8827333,-0.8331848,-0.6606373000000001,0.57349735,-17.52,33.18,-39.6
1553845516921,7.2259210000000005,3.3064934999999998,3.4381785000000002,-0.44467446,0.14081787,0.5478411,-18.42,33.3,-39.84
1553845516940,5.952167,-0.48124924,4.355186,-0.39091834,-0.038165636,0.5087457000000001,-18.9,33.719997,-39.84
1553845516961,5.305713,-0.9768641,3.74704,-0.20521529,0.058961935,0.22224988,-17.699999,34.079997999999996,-38.04
1553845516980,6.014418,-0.50758624,5.4493694,-0.023788313999999998,0.1738046,-0.0013267993,-16.98,34.98,-37.62
1553845517001,6.794952,0.7685622,5.4852834,0.030578692999999997,0.22145209,-0.10395216,-17.699999,35.219997,-38.579997999999996
1553845517020,5.461341,0.81644773,5.212336,0.15458433,0.3051406,-0.24017511,-17.94,35.28,-38.28
1553845517041,5.643306,0.66800267,5.181210500000001,0.3305135,0.2825386,-0.43626285,-17.82,35.28,-38.219997
1553845517061,6.368771,0.7110996,4.9609375,0.5015558,0.18296757,-0.725813,-18.0,34.8,-38.52
1553845517080,8.906702000000001,1.0175668,6.759038,0.58585525,-0.23119906,-0.662283,-18.66,34.86,-39.12
1553845517101,14.181289999999999,10.144542999999999,8.540379,-0.031118697999999997,-1.0381521,0.0848052,-18.96,34.079997999999996,-39.239998
1553845517120,13.422304,13.752714000000001,5.212336,-0.5845626,-0.4376715,0.7219376000000001,-19.5,33.12,-39.48
1553845517141,7.003253999999999,2.3775147999999997,3.5363437999999996,-0.54302377,0.06384886,0.81051314,-19.8,33.42,-39.42
1553845517161,5.887521700000001,-1.2953026,3.510007,-0.39091834,0.13409835,0.55578226,-19.199999,33.6,-38.7
1553845517181,5.1429024000000005,-2.3032923,4.173221,-0.09892473,0.2703213,0.24118671,-18.24,34.8,-37.8
1553845517201,5.832453299999999,-0.7350424,5.403878,0.09960647,0.24833016,0.03349252,-17.88,35.94,-38.04
1553845517221,5.2314906,0.7948991999999999,5.7797794,0.16496904,0.2929233,-0.119834654,-18.0,35.579997999999996,-38.82
1553845517240,5.162056400000001,0.3232271,5.276982,0.34578517,0.44686136,-0.33302665,-17.88,34.5,-38.28
1553845517260,6.0072355,0.7350424,5.640911599999999,0.5229361,0.28070602,-0.65373087,-17.699999,33.899998,-38.219997
1553845517281,7.4222517,0.9313729,5.595420400000001,0.53698593,-0.26479664,-0.8718098,-17.279999,34.02,-38.16
1553845517300,11.502096,2.0973847,8.391933,0.5198818000000001,-0.80846673,-0.51262105,-17.699999,33.96,-39.12
1553845517320,14.0567875,18.036072,8.870789,-0.6847445,-0.66674596,0.5508954,-18.48,33.239998,-39.48
1553845517340,8.8324795,7.6377369999999996,2.7893302,-0.67802495,0.07301183,0.7677526,-18.6,32.76,-39.36
1553845517361,6.026389599999999,-1.6137413,3.962525,-0.5301956,0.10722029,0.48858714,-18.84,32.76,-39.48
1553845517380,5.305713,-2.8898897,3.347196,-0.045779463,0.038192517999999995,0.19415009,-18.66,33.899998,-37.92
1553845517400,5.502043700000001,-0.6656084,4.295329,0.12831713,0.25504968,0.015777428,-18.0,35.04,-36.54
1553845517420,6.2514515,1.0941836,5.3248672,0.03363302,0.42548108,-0.10822822,-18.06,34.62,-36.239998
1553845517440,5.8947043,0.86193895,5.4852834,0.1588604,0.63134265,-0.28049222,-18.539998999999998,34.62,-37.44
1553845517460,6.3735595,1.3743136999999999,6.0048413,0.3396765,0.63684046,-0.53033614,-17.94,34.68,-38.879996999999996
1553845517480,6.861991400000001,1.6664151999999999,6.25624,0.49544713,0.09439212,-0.694048,-17.699999,33.66,-38.579997999999996
1553845517500,11.413508,0.81165916,8.214757,0.6084571999999999,-0.58305746,-0.2053558,-18.18,33.059998,-39.239998
1553845517521,11.858842999999998,13.798205,7.896318400000001,-0.62610143,-0.061378515999999994,0.37007928,-18.48,33.3,-40.26
1553845517540,7.8915296,4.084633,3.4142358,-0.5369151,0.36195109999999997,0.34564465,-18.66,33.239998,-40.079997999999996
1553845517560,6.423839,-0.6273,4.623344400000001,-0.32250142,0.24099977,0.11962452,-18.119999,33.6,-39.66
1553845517581,5.901887400000001,0.17238778,4.419831299999999,-0.02439918,0.006427524,-0.06668938,-17.88,34.44,-39.6
1553845517600,6.237086,1.7190893,4.661653,0.067230605,0.258104,-0.14671272,-18.48,34.98,-39.66
1553845517620,7.8747697,2.5618742,5.6337285,-0.056775037,0.34667948,-0.15404311,-18.3,34.98,-39.239998
1553845517641,8.118986,3.0431232,6.684815400000001,-0.051888116,0.31369275,-0.114947736,-17.52,34.86,-39.36
1553845517660,7.7861814,2.9856608,6.624958500000001,0.061121956,0.13532008,-0.06485678,-17.52,34.44,-39.6
1553845517680,7.4988684999999995,3.2298767999999995,6.483696,0.09533041,0.026586076,0.017610023,-17.279999,34.079997999999996,-39.42
1553845517700,7.458166,3.0814316,6.5459476,-0.055553306,0.029640405,0.13184182,-16.859999,33.66,-38.34
1553845517721,7.699988,2.2865324,6.016813,-0.14901568,0.010092715,0.18743056,-17.22,33.66,-38.16
1553845517740,7.814913000000001,2.4565259999999998,5.810905,-0.16611992,-0.057102464000000006,0.18559796,-17.46,34.739998,-39.18
1553845517760,7.8125186,2.6648278,5.748654,-0.16245472,-0.013731028999999999,0.18498711,-16.98,34.62,-39.719997
1553845517780,7.683228,2.3320236,5.810905,-0.17039597,0.06995751,0.17154807,-16.859999,34.079997999999996,-39.48
1553845517800,7.3384523,1.7885233,5.741471,-0.15023743,0.08828347,0.13428527,-16.26,34.62,-37.92
1553845517820,7.020014,1.4796618000000001,5.5283804000000005,-0.06410542,0.040635977000000004,0.060981455999999996,-15.96,34.8,-37.559998
1553845517840,6.790163499999999,1.2450229,5.4733124,0.029967828,0.013757907,-0.051417753,-15.9,34.62,-38.7
1553845517861,6.459753500000001,0.9433443000000001,5.339233,0.15275174,0.056518473,-0.20291232,-15.96,34.86,-38.7
1553845517880,6.3352512999999995,0.8356019,5.3488097,0.29019642,0.11638327,-0.36601335,-16.44,35.04,-38.76
1553845517900,6.890722800000001,0.93616146,5.794144999999999,0.4288628,0.06751405,-0.47047132,-16.08,34.86,-38.64
1553845517921,8.554744,1.7478206000000003,7.0511394,0.43008456,-0.24585982,-0.3073703,-16.5,34.32,-38.879996999999996
1553845517940,10.324113,8.9186735,7.407886,-0.11969416,-0.37169805,0.08541607,-16.92,34.26,-40.02
1553845517961,8.906702000000001,5.3368387,6.0838523,-0.32005796,0.08095308400000001,0.2680648,-17.039998999999998,34.2,-40.2
1553845517980,6.0407553,0.5411060999999999,4.8364353,-0.18566760000000002,0.14142874,0.057316266,-17.16,34.14,-39.66
1553845518000,6.4501762000000005,1.0870007,5.212336,-0.04822292,-0.08153707,-0.02820487,-17.039998999999998,33.96,-39.3
1553845518021,7.484503299999999,3.4836697999999995,5.8947043,-0.02684264,-0.14567792,0.026162136000000003,-17.58,34.02,-38.76
1553845518040,8.356019,3.9074564,5.930619,-0.15268087,0.064459726,0.10862894,-17.82,34.079997999999996,-38.52
1553845518061,7.2762012,1.4485363000000002,5.571477400000001,-0.14107445,0.22023036,0.03349252,-17.279999,33.899998,-38.879996999999996
1553845518080,6.2275085,0.6440599,5.150085,0.061121956,0.203737,-0.14976706,-17.16,34.92,-39.48
1553845518101,6.325673999999999,0.8475733,5.2937417,0.28408778,0.038192517999999995,-0.25361416,-17.4,34.98,-39.84
1553845518120,7.307327000000001,2.2123098,6.2706056,0.27248132,-0.049161214,-0.20718838,-17.16,34.32,-38.64
1553845518140,9.301758,5.3727527,7.194795599999999,-0.050666384,-0.12735197,0.059759725,-17.34,34.26,-38.46
1553845518161,9.608225,5.9665327,7.005648,-0.35915333,0.06384886,0.30532753,-17.279999,34.32,-38.82
1553845518180,7.970541000000001,2.9641123,5.930619,-0.3719815,0.015590503,0.35602936,-16.74,33.899998,-38.94
1553845518200,6.3807425,1.2929084,5.403878,-0.310895,-0.017396221,0.24118671,-16.32,34.02,-39.0
1553845518220,5.652883,0.3615355,4.9130519999999995,-0.12397022,0.09439212,0.06281405,-16.199999,33.719997,-38.28
1553845518241,5.7606254,-0.19154198,4.747847,0.10999117,0.13043317,-0.11861292,-16.8,34.62,-38.46
1553845518260,6.4549650000000005,0.39744959999999996,5.3248672,0.2761465,0.051631555,-0.25300327,-17.1,36.059998,-38.94
1553845518281,7.5180229999999995,2.2769554,6.136526,0.2956942,-0.06809804,-0.28904435,-16.56,35.64,-38.52
1553845518300,8.526012,3.8667538,6.529187,0.20162095,-0.07420669,-0.231623,-16.32,35.04,-38.16
1553845518320,8.506859,4.1301239999999995,6.605803999999999,0.10449339,-0.014341895,-0.13266283,-16.74,34.26,-38.579997999999996
1553845518340,8.126168,3.668029,6.344828,0.07822618,-0.0009028588499999999,-0.061802458,-16.8,33.66,-38.94
1553845518360,7.575485700000001,3.4309957000000004,5.99287,-0.037227347,-0.03327872,0.027994731000000002,-17.16,33.96,-39.36
1553845518381,6.857203,2.0494993000000004,5.463735,-0.05616417,0.038192517999999995,0.00050579646,-17.64,33.899998,-38.399998
1553845518400,6.644112599999999,1.1109436000000001,5.334444,0.023859175,0.089505196,-0.09601091,-16.74,33.36,-36.96
1553845518420,7.333664,2.1452703,5.901887400000001,0.07089580000000001,-0.03572218,-0.11616947,-16.44,33.78,-36.96
1553845518441,8.162083,3.7278860000000003,6.366377,0.017750522,-0.068708904,-0.018431026,-17.16,34.02,-39.0
1553845518460,8.344047999999999,4.0439300000000005,6.318491000000001,-0.09220523,0.0125361765,0.09763337,-17.34,33.42,-39.78
1553845518480,7.776604700000001,3.1029801,6.021601,-0.09037263,0.00826012,0.1428374,-17.58,33.0,-39.42
1553845518501,7.3408465,2.9521408,5.863579,-0.09525955,-0.054659000000000006,0.15261124,-17.279999,33.66,-40.02
1553845518520,7.048744999999999,2.9521408,5.8037220000000005,-0.14779396,0.0009297369400000001,0.13062009,-16.8,34.32,-39.54
1553845518540,6.4094739999999994,1.525153,5.4541580000000005,-0.10564425599999999,0.13226576,0.045709822000000004,-17.34,34.5,-38.94
1553845518560,6.0766697,0.5985687,5.236279,0.04523946,0.16769595,-0.10700648,-17.46,34.62,-39.059998
1553845518580,6.5124273,0.99362403,5.609786,0.19551231,0.055907607000000005,-0.22429262,-17.039998999999998,34.44,-39.059998
1553845518600,7.3240867,2.1740015,6.057515,0.22605558,-0.020450545,-0.25422502,-16.5,34.02,-38.76
1553845518621,8.686428999999999,3.74704,6.780586200000001,0.13809097,-0.05832419,-0.14854532,-16.8,34.5,-39.0
1553845518640,9.538791,5.688797,6.969734,-0.050666384,-0.1444562,0.09213558,-16.44,33.96,-38.52
1553845518660,8.298556,4.350397,6.079064,-0.17406116,-0.032056987,0.20942171,-16.14,33.3,-38.94
1553845518681,6.6345353000000005,1.8316202000000001,5.1883935999999995,-0.16795251,0.060183667,0.13672875,-16.68,33.719997,-39.54
1553845518700,6.0838523,0.9624985,5.276982,-0.10381166,0.060794532000000005,0.017610023,-16.92,33.84,-39.239998
1553845518721,5.995264,0.7110996,5.073468,0.07395013,0.09744645,-0.14060408,-17.039998999999998,33.96,-39.78
1553845518740,6.476513400000001,0.9026415999999999,5.463735,0.20101011,0.11760499,-0.25605762,-17.52,34.5,-39.899998
1553845518761,7.699988,2.3966691000000004,6.438205,0.21811432,0.030862134,-0.25483587,-17.699999,34.559998,-39.48
1553845518781,9.718361999999999,5.3248672,7.290567,0.06295455,-0.17561032,0.020053484,-16.92,33.66,-39.239998
1553845518800,9.620196,6.656084,7.065505,-0.17467202,-0.11146947,0.2289694,-17.52,33.18,-39.18
1553845518820,7.010436500000001,2.4158232,5.3823300000000005,-0.15634607,0.1157724,0.19842613,-16.92,33.54,-39.48
1553845518840,6.543553,1.786129,5.7534423,-0.20216097,0.04430117,0.14955692,-15.54,33.54,-39.54
1553845518861,6.483696,2.22907,5.7654138,-0.18505673,-0.016785355,0.090913855,-16.98,33.42,-39.84
1553845518880,6.055121,1.2593886,5.097411,-0.08182051,0.12676798,-0.016598431,-17.88,34.079997999999996,-40.14
1553845518902,6.1772290000000005,0.5219519,5.3368387,0.09533041,0.18724364,-0.17053647,-17.64,34.98,-39.84
1553845518920,6.8500204,1.3455825000000001,5.906676,0.2168926,0.049188092,-0.24017511,-17.94,35.04,-39.84
1553845518940,7.8316726999999995,3.0000262,6.275394400000001,0.23155336,-0.05221554,-0.21940568,-18.119999,34.44,-39.6
1553845518961,8.451789999999999,3.9194279,6.5459476,0.14847568,-0.03511131,-0.1155586,-17.88,34.44,-39.96
1553845518981,8.650514999999999,4.486871,6.691998,0.04218513,-0.069930635,0.020053484,-17.76,34.2,-40.14
1553845519000,7.850827000000001,4.0942099999999995,6.1556807000000004,-0.09709214,-0.024115737999999998,0.10129856,-17.88,33.719997,-40.02
1553845519021,6.5196104,1.8842942999999999,5.3703585,-0.10320080000000001,0.092559524,0.044488095,-17.34,33.66,-40.14
1553845519040,5.9186473,0.72785956,5.2243075,-0.007294953000000001,0.14265047,-0.077684954,-17.4,33.899998,-39.48
1553845519060,6.5124273,1.0271438,5.674431299999999,0.13931271,0.052853283,-0.17786685,-17.1,34.44,-39.239998
1553845519080,8.047157,3.0718546,6.5220046,0.12892799,-0.08520226,-0.12472158,-16.74,34.559998,-39.66
1553845519100,9.100638,4.9800916,6.8500204,-0.06471629,-0.05221554,0.07197703,-17.58,33.719997,-40.32
1553845519120,8.020821,3.7973199999999996,5.9880815,-0.09037263,0.042468574,0.11168327,-17.76,33.239998,-40.02
1553845519140,6.794952,2.3296294,5.664854,-0.053109847,0.024142615,0.067700975,-17.76,33.3,-39.36
1553845519160,6.924243,2.8635526000000002,5.9904757,-0.063494556,-0.03572218,0.079307415,-17.88,33.18,-39.719997
1553845519181,6.996071000000001,3.2107224,5.9808984,-0.13863099,0.031473,0.09641164,-17.52,33.18,-39.84
1553845519201,6.5028505,1.8747171000000002,5.502043700000001,-0.08792917,0.1701394,0.030438194,-17.4,33.96,-39.84
1553845519220,6.325673999999999,1.1827718,5.4493694,0.055013303,0.17441547,-0.08440447599999999,-17.34,34.02,-39.84
1553845519240,6.699180999999999,1.6137413,5.930619,0.17413202,0.062016264,-0.16259523,-16.619999,33.84,-39.96
1553845519260,7.575485700000001,2.875524,6.426234,0.16374731,0.016812233,-0.14060408,-16.98,34.26,-40.02
1553845519280,8.724737,4.2019525,6.996071000000001,0.035465613,-0.056491595,0.013333966000000001,-17.699999,33.899998,-40.02
1553845519300,8.573898,5.2506447,6.660872500000001,-0.14107445,-0.047328617,0.15688729999999998,-17.16,33.36,-40.5
1553845519320,7.398308999999999,3.1772027,5.7797794,-0.183835,0.052242417,0.18376537,-16.68,33.3,-40.02
1553845519340,6.646507000000001,2.152453,5.968927,-0.22781731,0.033916462,0.15933077,-16.38,33.42,-39.54
1553845519361,6.244269,1.8938714,5.751048,-0.17772634,0.05040982,0.086637795,-15.96,32.94,-39.18
1553845519380,5.8683677,1.0774237,5.339233,-0.042725135,0.13226576,-0.02820487,-15.78,33.0,-38.16
1553845519401,6.344828,1.0534808999999998,5.652883,0.10876945,0.06873578,-0.14976706,-15.96,33.36,-37.32
1553845519420,7.1660647,1.9992193999999999,6.105400599999999,0.17718635,-0.0045680506,-0.19924714,-16.26,33.42,-37.079997999999996
1553845519440,8.466156,3.1149516,6.526793,0.14542136,-0.059545923,-0.13816062,-16.199999,33.899998,-37.02
1553845519461,8.530801,4.556305,7.067899000000001,0.022637444,-0.12429764,0.016999159,-16.32,33.899998,-37.8
1553845519480,8.3679905,4.932206,6.6776323,-0.11663983,-0.13162802,0.15322211,-16.56,33.96,-39.239998
1553845519500,7.472532000000001,3.2011453999999997,5.95935,-0.22415212,-0.043663427000000005,0.21797383,-16.32,33.96,-39.239998
1553845519520,6.5196104,1.8148602999999999,5.621757,-0.23209336,-0.014341895,0.167272,-16.26,33.719997,-38.879996999999996
1553845519541,5.856396,0.87151605,5.238673,-0.09098349,0.060183667,0.034714247999999996,-16.44,33.48,-38.46
1553845519560,6.079064,0.5219519,5.233885,0.07639358,0.06995751,-0.11861292,-17.4,34.079997999999996,-38.579997999999996
1553845519580,6.8021345,1.403045,5.751048,0.18634933,0.014979636999999999,-0.19374935,-16.98,34.98,-38.76
1553845519601,7.800547,2.8994668,6.3807425,0.17962979999999998,0.0039840629999999995,-0.18886243,-16.619999,34.62,-38.76
1553845519620,8.578687,3.8954852,6.768615,0.11121291,-0.021672277,-0.08990226,-17.52,34.02,-39.12
1553845519640,8.777411,5.0638914,6.838049000000001,-0.01279274,-0.116356395,0.08969212,-17.16,34.38,-39.239998
1553845519660,7.889135400000001,4.005622,6.150892,-0.13068973,-0.03938737,0.19048489999999998,-17.52,34.44,-39.36
1553845519680,6.9218483,2.351178,5.7462597,-0.21071307,0.047355495,0.18498711,-17.4,34.079997999999996,-39.18
1553845519701,6.028784,1.1253091,5.3823300000000005,-0.13313319,0.10966375,0.075031355,-16.44,33.96,-39.36
1553845519720,5.784568,0.44054657,5.162056400000001,0.05562417,0.14937,-0.08318274,-16.619999,34.5,-39.239998
1553845519740,6.273,0.76616794,5.576266,0.20284270000000001,0.10722029,-0.2102427,-16.92,34.32,-39.36
1553845519760,7.446194599999999,2.3296294,6.320885700000001,0.23155336,0.048577222999999996,-0.23773165,-16.26,33.42,-39.36
1553845519781,8.652909,3.9864676,6.943397,0.14847568,-0.010065838,-0.13449542,-15.66,33.3,-37.559998
1553845519802,8.971347999999999,4.4749,7.084658999999999,0.08372397,-0.08581313,-0.0025485298,-15.66,33.719997,-36.36
1553845519821,7.575485700000001,4.070266999999999,6.1413150000000005,-0.039059944,-0.03938737,0.10679635,-15.839998999999999,33.6,-36.84
1553845519840,6.1676519999999995,1.9872481,5.4254265,-0.04455773,0.08095308400000001,0.027383868,-16.68,33.6,-38.28
1553845519861,5.9856873,1.3288225,5.724711,0.01652879,0.060183667,-0.05263948,-16.8,33.48,-37.44
1553845519880,6.608198599999999,1.8244373999999999,5.97611,0.10082819,-0.006400645999999999,-0.08990226,-16.98,33.12,-37.559998
1553845519900,7.800547,3.213117,6.478907599999999,0.06600887,-0.021672277,-0.052028615,-17.1,33.3,-39.3
1553845519920,8.506859,4.233078,6.711152,-0.05005552,-0.05343727,0.07197703,-16.8,33.3,-40.5
1553845519940,7.879558599999999,3.632115,6.186806,-0.0732684,-0.038776506,0.12023538,-17.16,33.6,-39.899998
1553845519960,7.020014,2.6767993,6.0072355,-0.05860763,-0.03572218,0.12084625,-17.34,33.36,-39.719997
1553845519980,6.986494,2.9952377999999995,6.2251142999999995,-0.11236378,-0.04183083,0.13978307,-16.92,33.3,-39.84
1553845520001,6.759038,2.7941186,6.019207,-0.16489819,0.02231002,0.12878749,-16.38,33.719997,-39.36
1553845520020,6.2873654000000005,1.6424724999999998,5.566689,-0.09770301,0.105387695,0.04632069,-16.56,33.899998,-39.3
1553845520040,6.438205,1.1300976999999999,5.5571117,0.028746097999999998,0.07606616,-0.06974371,-16.5,34.5,-39.239998
1553845520061,6.8236833,1.6568381999999997,5.899493,0.11243464,-0.009454971999999999,-0.14610186,-16.02,34.2,-38.64
1553845520080,7.47732,2.667222,6.2179317,0.106325984,0.0070383893000000005,-0.1558757,-16.68,33.78,-39.54
1553845520100,8.013638,3.294522,6.507639,0.061732817,0.0125361765,-0.11128255,-16.38,33.48,-39.48
1553845520120,8.435030000000001,4.3192715999999995,6.763826400000001,-0.02439918,-0.06931976,0.010279640999999999,-15.96,33.66,-39.54
1553845520140,8.171659,4.312089,6.495667500000001,-0.1398527,-0.07176323,0.1550547,-16.619999,34.02,-39.78
1553845520160,7.4366174,3.0000262,6.124555,-0.21865433,-0.026559198,0.21247604,-16.859999,33.84,-39.48
1553845520180,6.665661,2.011191,5.7965393,-0.21621086,0.00031887164,0.16849375,-16.619999,33.6,-39.66
1553845520201,5.9856873,1.2138973,5.3631754,-0.08915089,0.04002511,0.056705399999999996,-16.5,33.48,-39.48
1553845520220,5.949773,0.5650489000000001,5.2314906,0.07089580000000001,0.07667702400000001,-0.08806966,-16.32,34.14,-39.059998
1553845520240,6.5746784,1.1420691,5.7295,0.19367972,0.026586076,-0.19680367,-16.38,34.62,-38.64
1553845520260,7.3743663,2.3846977000000003,6.2945485,0.21811432,-0.011287568000000001,-0.21390789999999998,-16.56,34.38,-39.059998
1553845520280,9.002473,4.436591,7.175641499999999,0.09533041,-0.119410716,-0.037978712000000005,-16.68,34.14,-40.02
1553845520300,9.536397000000001,6.347222299999999,7.4198575,-0.14107445,-0.22264694,0.2234716,-16.68,33.3,-39.48
1553845520320,8.135746000000001,4.249838,6.23948,-0.27057788,-0.08398053,0.3346491,-16.38,32.76,-38.52
1553845520342,6.773403599999999,2.116539,5.7606254,-0.356099,0.02231002,0.32426438,-16.619999,34.14,-39.6
1553845520361,5.8204823,1.2689656,5.6385174000000005,-0.27424309999999996,0.033916462,0.22774766,-16.56,34.98,-40.14
1553845520380,5.2027593,0.38308397,5.0399485,-0.06410542,0.06384886,0.060981455999999996,-15.599998999999999,34.62,-38.1
1553845520400,5.899493,0.035914123,5.150085,0.11854329,0.030251267999999998,-0.08684793,-15.059999,34.26,-35.7
1553845520420,6.8476257,1.1277034,5.7366824,0.22666644,-0.050993808,-0.18519723,-15.48,34.62,-36.059998
1553845520440,7.501263000000001,2.4373717,6.0311785,0.24987932,0.008870985,-0.26888576,-15.719999,34.8,-37.739998
1553845520460,8.279403,3.2777622,6.653689999999999,0.18879278,0.07667702400000001,-0.21879484,-16.32,34.98,-38.579997999999996
1553845520480,9.624985,5.590631500000001,7.5659084000000005,-0.022566582999999998,-0.14140187,0.05181848,-16.5,34.62,-38.64
1553845520500,9.306546,5.856396,7.058322,-0.26874527,-0.12429764,0.28089294,-16.38,34.14,-38.52
1553845520521,7.6449194,2.8874955,6.0239954000000004,-0.41779637,0.026586076,0.35053158,-15.96,34.739998,-38.28
1553845520540,6.122161,0.9672870000000001,5.3943010000000005,-0.36342937,0.12188106,0.25340402,-15.719999,35.16,-38.7
1553845520560,5.174028,0.009577099,5.0231886,-0.11236378,0.12615710000000002,0.068922706,-16.199999,35.46,-39.059998
1553845520580,5.4086666,-0.26097596,4.982486,0.095941275,0.025975212,-0.08562621,-16.199999,35.28,-38.46
1553845520600,6.205960299999999,0.29449580000000003,5.300924299999999,0.23582943,-0.05221554,-0.21268617,-16.199999,35.46,-38.46
1553845520620,6.957762700000001,1.5778271000000001,5.724711,0.34578517,0.032694727,-0.36418074,-16.02,35.64,-38.46
1553845520640,7.7095647,2.432583,6.387925,0.35067209999999993,0.12798971,-0.40205440000000003,-16.32,35.219997,-38.64
1553845520660,9.265842999999998,4.556305,7.575485700000001,0.16863424,-0.08153707,-0.17114733,-16.859999,34.68,-39.6
1553845520680,9.943423,7.592245599999999,7.599428,-0.09648128,-0.17683205,0.10923981,-16.619999,34.32,-40.2
1553845520700,8.178842999999999,4.309695,6.275394400000001,-0.26019317,0.00031887164,0.24668449,-17.46,34.079997999999996,-40.14
1553845520720,6.723123599999999,1.7406378,5.6672482,-0.31333843,0.07973135,0.22408247,-17.34,34.44,-38.7
1553845520740,5.310501599999999,-0.05985687,4.905869,-0.08915089,0.12615710000000002,0.036546845,-16.44,34.86,-38.82
1553845520760,5.233885,-0.35914123,4.8388295,0.16191472,0.105387695,-0.15893003,-17.039998999999998,35.1,-39.78
1553845520780,5.940196,0.36871833,5.3583870000000005,0.2993594,0.041246843,-0.2878226,-16.859999,34.86,-39.18
1553845520800,7.4030976,2.3942747000000004,6.170046299999999,0.30668979999999996,0.05346415,-0.35074174,-16.619999,34.559998,-39.36
1553845520820,8.537984,3.8667538,7.003253999999999,0.21811432,0.09500299,-0.28599,-17.22,33.66,-38.76
1553845520840,9.335278,4.7334814000000005,7.537177000000001,0.11793242,-0.08275881,-0.072798036,-17.039998999999998,33.6,-38.82
1553845520861,9.246689,6.629747,7.1995845,-0.042114273,-0.23547511,0.23324545,-16.98,34.26,-39.36
1553845520880,7.7526617,4.065479,6.0766697,-0.1893328,-0.067487165,0.34014687,-16.8,34.02,-39.0
1553845520900,6.6584783,2.0423164000000003,5.7965393,-0.301732,0.009481851,0.3022732,-16.619999,34.14,-39.84
1553845520920,5.7103453,1.0199611,5.355993,-0.20093924,0.045522900000000005,0.17032634,-17.34,34.5,-39.96
1553845520940,5.296136,0.47167215,5.0327660000000005,-0.021344852,0.07667702400000001,0.023107812000000002,-16.44,35.219997,-38.76
1553845520960,5.7797794,0.23463893,5.1524790000000005,0.14481048,0.10172250000000001,-0.14610186,-15.48,34.8,-38.52
1553845520981,6.723123599999999,1.3312168,5.7606254,0.27859,0.070568375,-0.28171396,-16.26,34.2,-39.48
1553845521000,7.580274,2.5427197999999995,6.3831367,0.28469864,0.056518473,-0.29759642,-16.98,34.559998,-40.02
1553845521020,9.454991,5.238673,7.56112,0.091665216,-0.15056485,-0.013544105,-17.039998999999998,34.739998,-40.379996999999996
1553845521040,9.684841,7.4007034,7.510839999999999,-0.14962655,-0.17377773,0.22958027,-16.5,33.54,-39.18
1553845521060,7.9178667,4.268992,6.2490573,-0.31944707,0.014979636999999999,0.3028841,-16.68,33.3,-38.82
1553845521080,6.4669360000000005,1.6664151999999999,5.7654138,-0.40496823,0.06568145,0.2796712,-16.74,33.84,-39.66
1553845521102,5.4757066,0.56744313,5.238673,-0.24308895,0.09072693,0.14161566,-16.56,33.84,-39.3
1553845521120,5.238673,0.07422252,5.020794400000001,-0.04822292,0.08278568,-0.009878913000000001,-16.32,34.32,-39.0
1553845521140,5.9737160000000005,0.18675344,5.272193,0.13870184,0.030251267999999998,-0.18031032,-15.9,35.28,-39.059998
1553845521161,6.919453999999999,1.3168511,5.8061166,0.26148576,-0.0009028588499999999,-0.28965518,-16.08,35.7,-39.42
1553845521180,7.676044999999999,2.578634,6.3975024000000005,0.27553564,0.033916462,-0.3122572,-16.859999,34.559998,-38.94
1553845521201,9.172467,4.470111,7.415069,0.12465194,-0.10780427599999999,-0.09906524,-17.46,33.96,-39.0
1553845521220,9.914692,7.132544500000001,7.611399700000001,-0.098313875,-0.24219462,0.17399153,-16.98,33.36,-39.059998
1553845521240,8.437425,4.3456087,6.361587999999999,-0.29012555,-0.07115236,0.3199883,-15.839998999999999,33.18,-37.559998
1553845521261,6.9050884,2.0231621,5.8396363,-0.3841988,0.009481851,0.32731869999999996,-16.199999,34.32,-37.62
1553845521280,5.837242,0.7015225,5.279376,-0.27546477,0.043690305,0.21797383,-16.68,34.86,-39.0
1553845521300,5.260222,-0.014365649,4.8819265,-0.033562157,0.07240097,0.03227079,-16.56,35.219997,-38.94
1553845521321,5.698374299999999,-0.13168511,4.992063,0.13198233,0.04674463,-0.13816062,-16.38,35.28,-38.28
1553845521340,6.483696,0.7326481,5.4589467,0.28408778,0.013757907,-0.28599,-16.02,35.52,-38.46
1553845521360,7.458166,2.19555,6.2107487,0.33601132,0.06629232,-0.35807209999999995,-16.32,35.1,-39.239998
1553845521380,8.9186735,3.955342,7.2785953999999995,0.20711875,-0.008844106,-0.2102427,-15.96,33.96,-38.16
1553845521400,10.637763,7.5395713,8.035186,-0.11236378,-0.22936645,0.19537179999999998,-15.66,33.6,-37.079997999999996
1553845521420,8.885154,5.2410674,6.632141000000001,-0.3084515,-0.06382198,0.3541968,-16.38,33.96,-37.02
1553845521441,6.897906,2.0255566000000003,5.8013277,-0.43123543,0.058961935,0.36030543,-16.92,34.2,-37.38
1553845521460,5.734287999999999,0.6081458000000001,5.3224730000000005,-0.32311228,0.08339655,0.2589018,-16.32,34.92,-38.76
1553845521480,4.996851400000001,-0.047885496,4.8747435,-0.066548884,0.09683557599999999,0.049985882,-15.9,35.16,-38.94
1553845521501,5.4565525,-0.27773590000000004,4.929812,0.10999117,0.045522900000000005,-0.12716503,-16.44,34.68,-38.28
1553845521520,6.2083544999999996,0.39984390000000003,5.3703585,0.24560326,-0.0015137241,-0.25605762,-16.5,35.04,-38.82
1553845521540,6.986494,1.5131816999999999,5.8659735,0.3396765,0.023531752000000003,-0.35135257,-16.26,35.219997,-39.059998
1553845521561,8.789383,3.6871831,7.21395,0.22727729999999996,0.039414246,-0.25361416,-16.5,34.559998,-38.52
1553845521580,10.491713,6.543553,8.171659,-0.063494556,-0.20493186,0.09335732,-16.859999,34.739998,-38.52
1553845521601,9.682447,6.543553,7.26423,-0.2907364,-0.11574552,0.33037302,-16.26,34.44,-39.0
1553845521620,7.47732,3.014392,6.100612,-0.44711792,0.015590503,0.38107482,-15.78,34.079997999999996,-38.82
1553845521640,6.062304,0.81165916,5.502043700000001,-0.41168773,0.07606616,0.31265792,-16.199999,34.92,-39.059998
1553845521661,4.975303,-0.05985687,4.9417834,-0.17406116,0.10783115,0.12634404,-16.68,35.76,-38.7
1553845521680,5.104593799999999,-0.36632404,4.812492400000001,0.031800423,0.030862134,-0.055693805,-15.96,36.12,-38.34
1553845521701,6.079064,0.026337024,5.109382599999999,0.22116865,-0.047328617,-0.24322943,-16.26,35.579997999999996,-38.34
1553845521721,6.773403599999999,1.0032011,5.525986,0.35311553,0.0143687725,-0.38006327,-16.619999,35.579997999999996,-38.579997999999996
1553845521741,7.56112,2.142876,6.22272,0.39893046,0.1530352,-0.4472584,-15.96,35.76,-38.34
1553845521760,9.433442999999999,4.348003,7.728719,0.16008212,-0.012509298500000002,-0.21451877,-16.14,34.86,-37.68
1553845521781,11.198023,8.779805999999999,8.616995,-0.22781731,-0.22814474,0.2149195,-16.74,34.62,-38.64
1553845521800,9.031203999999999,5.3919067,6.9721284,-0.40802255,-0.09253265,0.40245515,-16.92,35.1,-39.239998
1553845521821,6.670449700000001,1.3719195,5.7007685,-0.49659804,0.07301183,0.3871835,-16.98,35.16,-39.36
1553845521840,5.3799353,-0.023942748,5.104593799999999,-0.3212797,0.10905289,0.26134524,-15.96,35.04,-38.64
1553845521860,4.759818599999999,-0.31365,4.9178405,-0.05433158,0.042468574,0.06403578,-15.48,35.28,-37.739998
1553845521880,5.2267017,-0.42378664,4.867561,0.1307606,-0.047939483,-0.13449542,-15.78,36.239998,-37.739998
1553845521901,6.064698,0.023942748,5.0686800000000005,0.29508334,-0.04549602,-0.30248338,-15.9,36.12,-37.739998
1553845521920,6.699180999999999,0.87151605,5.439792,0.46979082,0.09561385,-0.4881864000000001,-16.619999,35.52,-38.219997
1553845521940,7.1301502999999995,1.6305011999999999,5.935407,0.54920334,0.21961950000000002,-0.6073050999999999,-16.859999,35.219997,-38.28
1553845521961,8.0926485,3.1077687999999997,7.115784599999999,0.42825195,0.17075028,-0.5675989,-16.92,34.739998,-39.0
1553845521980,9.828498,4.9441776,8.253065,0.21200567,-0.12429764,-0.2297904,-16.08,33.96,-38.64
1553845522001,11.413508,10.802968,8.657698,-0.24797586,-0.30511373,0.35053158,-16.02,33.36,-38.34
1553845522020,8.887547999999999,5.269798799999999,6.5483418,-0.40435737,-0.1902711,0.5185195,-17.1,33.239998,-39.42
1553845522040,6.035966999999999,0.5458947,4.5874305,-0.43428975,0.030862134,0.37130100000000005,-17.279999,34.079997999999996,-39.54
1553845522060,5.106987999999999,-0.3519584,4.812492400000001,-0.23148249,0.1298223,0.18071105,-17.34,35.28,-38.82
1553845522080,5.090228,0.16520496,4.9393888,0.088610895,0.049188092,-0.009268047,-16.26,35.28,-38.34
1553845522101,5.4350038,0.07422252,4.9992456,0.25415537,0.051020685999999996,-0.18153204,-15.78,35.34,-38.64
1553845522120,6.103006400000001,0.56744313,5.5044379999999995,0.37144148,0.14998084,-0.33119404,-16.26,34.92,-38.219997
1553845522140,7.5228114,2.2961093999999997,6.715941,0.35372642,0.19579574,-0.38739365,-16.68,34.2,-38.1
1553845522160,9.5794935,5.279376,8.047157,0.16557992,-0.07115236,-0.1399932,-17.279999,34.32,-39.0
1553845522180,11.133378,9.289786,8.394327,-0.18444587,-0.24647069,0.36335975,-17.64,34.14,-39.12
1553845522200,8.236305,4.5251794,6.25624,-0.29379073,-0.069930635,0.44704828,-16.92,34.2,-39.0
1553845522220,6.203566,1.333611,5.4493694,-0.3646511,0.04796636,0.36335975,-16.56,34.86,-39.6
1553845522241,5.2578273,0.30886146,5.238673,-0.23881288,0.038192517999999995,0.21125429999999998,-16.56,35.399998,-39.48
1553845522260,4.8891089999999995,0.026337024,5.054314,-0.05249898,0.049798958,0.022496943999999998,-16.14,35.76,-38.64
1553845522280,5.427821,-0.062251142999999995,5.1907879999999995,0.088610895,0.07240097,-0.17359081,-16.02,35.64,-39.059998
1553845522300,6.426234,0.82123625,5.734287999999999,0.2168926,0.07484443,-0.30981374,-16.32,35.399998,-39.36
1553845522320,7.5850625,2.3799092999999996,6.4813019999999995,0.2749248,0.089505196,-0.35562864,-16.74,35.16,-38.399998
1553845522340,9.433442999999999,4.6951730000000005,7.747873299999999,0.11426724,-0.10291736,-0.13693888,-16.44,35.04,-38.76
1553845522361,10.680860000000001,8.016032000000001,8.241094,-0.22048692,-0.31305498,0.31082535,-16.44,35.04,-39.6
1553845522380,8.758257,4.9633317,6.624958500000001,-0.35060123,-0.14689966,0.41528329999999997,-16.32,34.2,-38.28
1553845522400,6.55313,1.673598,5.7558365,-0.47827205,0.02231002,0.35541849999999997,-16.859999,34.44,-36.54
1553845522420,5.4110613,0.31843856,5.2506447,-0.365262,0.051631555,0.22835854,-16.68,35.16,-36.66
1553845522440,4.7813669999999995,-0.25139886,4.8627720000000005,-0.10747685,0.022920884,0.03227079,-16.08,35.76,-37.86
1553845522460,5.236279,-0.5506831999999999,4.735875599999999,0.08738916,-0.025337468999999998,-0.15954089,-16.32,36.059998,-38.219997
1553845522481,6.2322974,0.14605077,5.233885,0.24926844,-0.039998233,-0.33424836,-16.199999,35.579997999999996,-37.92
1553845522500,7.108602,1.4581133,5.727105,0.36533284,0.058961935,-0.45397794,-16.199999,35.28,-37.8
1553845522520,8.212361999999999,2.9018610000000002,6.7494607,0.34456342,0.12798971,-0.43198678,-16.859999,35.399998,-38.579997999999996
1553845522540,10.175668,5.8755503,8.293768,0.024470039,-0.16400388,-0.05630467,-17.22,34.739998,-38.879996999999996
1553845522560,10.805361999999999,8.178842999999999,7.9561753,-0.25836056,-0.25868800000000003,0.339536,-17.1,33.899998,-39.12
1553845522581,8.12138,3.7111259,6.0239954000000004,-0.40496823,-0.055269867,0.41467243,-17.1,34.5,-39.48
1553845522600,6.2179317,0.87630457,5.4445809999999994,-0.43673322,0.07973135,0.36946842,-17.52,35.52,-38.219997
1553845522620,5.1237483,-0.21787901,4.891503299999999,-0.23698029,0.10905289,0.19842613,-17.039998999999998,36.0,-37.2
1553845522641,4.925023,-0.48364350000000006,4.8148865999999995,0.011031005,0.031473,-0.009878913000000001,-15.54,35.88,-36.42
1553845522660,5.554717500000001,-0.37590113,4.8484063,0.20650789,0.0143687725,-0.22490348,-15.24,36.3,-36.6
1553845522680,6.265817,0.339987,5.193182,0.3744958,0.060794532000000005,-0.39472404,-15.839998999999999,36.3,-37.079997999999996
1553845522700,6.931425599999999,1.359948,5.7678080000000005,0.51866,0.19151969,-0.5370556,-15.719999,35.28,-36.42
1553845522720,8.224333999999999,3.0407290000000002,7.041562,0.4361932,0.19151969,-0.490019,-16.199999,34.8,-37.5
1553845522740,10.769447999999999,6.811711999999999,8.662486,0.06478715,-0.17072341,-0.0153767,-16.68,35.34,-39.719997
1553845522760,11.569136,9.648928,8.614600999999999,-0.20826963,-0.22997732,0.36824667,-16.859999,35.64,-39.42
1553845522780,7.9346266000000005,3.684789,6.1317377,-0.42146158,-0.04977208,0.46354166,-17.039998999999998,34.98,-39.36
1553845522800,5.9904757,0.62251145,5.236279,-0.42085072,0.07667702400000001,0.37313359999999995,-16.5,34.8,-39.239998
1553845522820,4.8388295,-0.37829542,4.843618,-0.21132395,0.13287663,0.18254364,-16.5,34.98,-38.34
1553845522840,4.747847,-0.24182175,4.9106574,0.036687344,0.054075014000000005,-0.030037466000000002,-16.32,35.16,-37.44
1553845522861,5.1644505999999994,-0.28491869999999997,4.908263,0.17657548,0.033305597,-0.18214291,-16.38,35.399998,-37.559998
1553845522881,6.179623,0.45491222,5.3272614,0.3958761,0.08461828,-0.38189584,-16.68,35.16,-37.739998
1553845522900,7.125362,1.6855695,6.067092400000001,0.47895379999999993,0.18418932,-0.48635378,-16.32,34.02,-37.14
1553845522921,8.904308,3.8547822999999997,7.529994500000001,0.32684833,0.10783115,-0.35746124,-16.32,34.14,-36.78
1553845522940,11.10704,8.169266,8.581081,-0.051888116,-0.17988639,0.15383297,-16.26,34.2,-36.84
1553845522961,9.672871,6.814106,7.2450757,-0.26569095,-0.10108476,0.40489858,-15.96,33.84,-36.84
1553845522980,7.091842,2.7222904999999997,5.8755503,-0.39458352,0.016201368,0.37618792,-16.5,34.14,-38.04
1553845523001,5.7438655,0.77574503,5.401484,-0.35060123,0.057129342,0.29860803,-16.98,34.68,-39.0
1553845523020,4.7119327,0.098165266,5.1524790000000005,-0.11541810000000001,0.08706174,0.092746444,-16.92,34.62,-38.34
1553845523041,4.891503299999999,-0.07422252,5.111777,0.053180705999999994,0.054075014000000005,-0.086237065,-16.199999,35.04,-37.92
1553845523060,5.499649,0.028731298,5.2650104,0.20834048,0.062016264,-0.24139683,-16.26,35.52,-37.8
1553845523080,6.689603999999999,1.1827718,5.887521700000001,0.36899805,0.10111163599999999,-0.38861537,-16.619999,35.64,-38.82
1553845523100,7.884347,2.5882110000000003,6.754249000000001,0.37632844,0.11943759,-0.40022179999999996,-16.199999,34.86,-39.239998
1553845523120,9.050359,4.017593,7.599428,0.24010547,-0.006400645999999999,-0.25422502,-16.14,34.86,-38.879996999999996
1553845523140,9.850046,5.3440213,8.087860000000001,0.107547715,-0.13895841,-0.085015334,-15.719999,33.48,-37.14
1553845523160,8.20518,4.292935,6.3400397,-0.31333843,-0.10719341,0.36946842,-13.92,32.94,-29.82
1553845523180,6.790163499999999,1.9178141,5.7797794,-0.40069216,-0.046106886,0.33831427,-14.28,33.0,-30.06
1553845523200,5.4350038,0.5147691,5.1692395,-0.2681344,0.0009297369400000001,0.18926315,-14.16,34.26,-31.019999
1553845523220,4.996851400000001,0.14844504,4.9992456,-0.066548884,0.030251267999999998,0.009668776,-14.16,34.5,-30.66
1553845523240,5.4421870000000006,-0.1340794,4.9944572,0.09655214,0.057129342,-0.17114733,-14.82,34.26,-30.48
1553845523260,6.273,0.409421,5.4302154,0.29141816,0.08767260000000002,-0.34524393,-14.34,34.44,-30.96
1553845523280,7.395915,1.8244373999999999,6.205960299999999,0.37144148,0.11943759,-0.41243909999999995,-13.86,34.2,-31.14
1553845523300,9.002473,3.8308396,7.3863378,0.23033163,0.013757907,-0.26888576,-13.74,33.48,-29.34
1553845523320,10.609032000000001,7.1660647,8.171659,-0.06899234,-0.20859705,0.12939836,-13.86,33.18,-28.68
1553845523340,9.234717999999999,5.8156934,6.9050884,-0.2455324,-0.113912925,0.35175332,-14.46,33.18,-29.519999
1553845523360,7.1540933,2.4541316,5.889916,-0.38175535,0.010092715,0.33831427,-14.28,32.82,-29.4
1553845523380,5.935407,0.9289786,5.4852834,-0.32372314,0.02108829,0.26012352,-13.62,33.54,-28.8
1553845523400,5.078257,0.39744959999999996,5.1596622000000005,-0.13007887,0.060794532000000005,0.102520294,-13.679998999999999,34.079997999999996,-28.859999
1553845523420,5.185999400000001,-0.038308397,5.0447370000000005,0.06356542,0.06568145,-0.072798036,-14.4,34.14,-30.84
1553845523440,5.8947043,0.15802214,5.3535986,0.24254893,0.07423357,-0.24994896,-14.46,34.44,-32.52
1553845523460,6.7446722999999995,1.1444633,5.849213,0.37083063,0.09439212,-0.36112642,-14.4,34.44,-33.18
1553845523481,8.099832000000001,2.7270790000000003,6.845231500000001,0.35067209999999993,0.099889904,-0.3385244,-15.179998999999999,34.38,-33.36
1553845523500,9.792584,5.1357193,7.9489923,0.12953886,-0.11513466,-0.085015334,-16.08,34.2,-33.36
1553845523520,10.326508,7.6975937000000005,7.922655000000001,-0.17039597,-0.22753386,0.316934,-15.839998999999999,34.2,-33.54
1553845523540,7.929838,3.8691480000000005,6.2514515,-0.29806679999999997,-0.09070005,0.3767988,-15.179998999999999,33.48,-34.02
1553845523566,6.593833,1.6185298000000001,5.7462597,-0.35182294,-0.032056987,0.33587083,-15.179998999999999,33.719997,-33.899998
1553845523580,5.403878,0.54350036,5.236279,-0.21804346,-0.00334632,0.19842613,-15.719999,34.32,-33.18
1553845523600,5.042342700000001,0.19154198,5.0614967,-0.018901393,0.018033965,0.026162136000000003,-15.48,34.5,-33.36
1553845523620,5.487678,-0.0670397,5.073468,0.14603223,0.049188092,-0.14915618,-14.639999,34.68,-33.42
1553845523640,6.28976,0.50758624,5.439792,0.31035498,0.07301183,-0.30431595,-14.82,34.739998,-32.88
1553845523660,7.2019787,1.6305011999999999,5.9737160000000005,0.3995413,0.12188106,-0.39655662,-14.7,34.5,-32.64
1553845523680,8.743892,3.4333901,7.115784599999999,0.29508334,0.07850962,-0.3037051,-14.58,33.899998,-33.12
1553845523700,10.56354,6.780586200000001,8.030397,-0.018290527,-0.16705821,0.08602693,-15.42,33.78,-33.719997
1553845523721,9.914692,6.9146657000000005,7.388732000000001,-0.22842817,-0.12429764,0.34075776,-16.14,34.079997999999996,-35.04
1553845523740,7.4557720000000005,3.1173458,6.016813,-0.3701489,0.017423097,0.35847285,-16.619999,34.559998,-37.86
1553845523760,6.0958239999999995,1.036721,5.482889,-0.3646511,0.07117924,0.29494283,-16.74,35.219997,-39.36
1553845523781,5.157268,0.3423813,5.157268,-0.19299799,0.12004846,0.12573317,-16.5,35.94,-38.46
1553845523802,4.9705143,-0.019154198,5.1309309999999995,0.023859175,0.112718076,-0.063024186,-15.9,36.239998,-37.62
1553845523820,5.36557,-0.038308397,5.296136,0.18268414,0.112718076,-0.23956424,-16.199999,36.36,-38.04
1553845523840,6.0072355,0.4764607,5.62894,0.32440487,0.11821587,-0.36295903,-16.08,36.3,-38.399998
1553845523860,7.3767605,2.0830189999999997,6.5770729999999995,0.39098918,0.14875913,-0.42465640000000004,-16.32,35.76,-38.04
1553845523881,9.11261,4.0822387,7.80773,0.21750346,-0.018007086999999998,-0.24628377,-16.14,35.219997,-37.8
1553845523900,10.829305,7.881953,8.458973,-0.09098349,-0.26968357,0.18315451,-16.26,34.86,-39.66
1553845523920,9.213169,5.7678080000000005,7.084658999999999,-0.25225192,-0.22570126,0.41467243,-15.96,34.8,-39.78
1553845523941,6.9098773,2.0351336,5.7725964,-0.35670987,-0.12551937,0.36641409999999996,-15.9,34.26,-38.82
1553845523960,5.8396363,0.5913859,5.3033185,-0.28035173,-0.09803043,0.26073440000000003,-16.619999,34.26,-38.879996999999996
1553845523981,5.0375543,0.05506832,4.982486,-0.07082493599999999,-0.057102464000000006,0.07136617,-16.56,34.92,-38.46
1553845524000,5.1668449999999995,-0.21069619,4.8843207,0.10999117,-0.0009028588499999999,-0.11006081,-15.839998999999999,34.739998,-38.34
1553845524020,5.8420305,0.15083931,5.195576,0.28714209999999996,0.049798958,-0.29698557,-16.02,35.1,-38.64
1553845524040,6.873963000000001,1.3072741,5.7893567,0.38549140000000004,0.09866817,-0.41243909999999995,-16.26,36.0,-38.82
1553845524060,8.396722,3.1173458,6.897906,0.32318315,0.10355510000000001,-0.37151113,-16.32,36.12,-38.94
1553845524080,10.422278,6.0048413,7.929838,0.08311310400000001,-0.102306485,-0.04775256,-16.5,35.46,-38.94
1553845524100,10.486922999999999,7.6544967,7.6305537,-0.18139154,-0.17377773,0.34992072,-16.44,34.92,-39.42
1553845524121,7.666467999999999,3.3040992999999994,5.935407,-0.29195815,-0.04121997,0.37740964,-16.44,35.1,-39.36
1553845524140,6.325673999999999,1.3144568,5.4948606,-0.32311228,0.023531752000000003,0.32426438,-16.98,34.92,-39.12
1553845524160,5.4757066,0.505192,5.238673,-0.2192652,0.06995751,0.18010017,-17.22,34.44,-38.7
1553845524181,5.1357193,0.25139886,5.181210500000001,-0.051888116,0.09500299,0.014555697,-16.5,34.8,-38.399998
1553845524200,5.5307746,0.117319465,5.2267017,0.088610895,0.123102784,-0.16198435,-15.96,35.64,-38.579997999999996
1553845524220,6.25624,0.6488484999999999,5.569083,0.2620966,0.1579221,-0.33424836,-16.14,35.76,-38.76
1553845524241,7.072687599999999,1.7190893,6.1556807000000004,0.35189380000000003,0.18357845,-0.4106065,-16.08,35.399998,-38.94
1553845524260,8.099832000000001,2.8539755,6.974522599999999,0.3079115,0.12921144,-0.35379606,-16.199999,35.219997,-39.36
1553845524280,10.328901,6.840443,8.178842999999999,-0.015236201999999999,-0.19943407,0.08541607,-16.14,34.62,-39.0
1553845524300,9.668080999999999,6.3759537,7.3863378,-0.22293039,-0.15361917,0.35358590000000006,-16.68,34.38,-38.879996999999996
1553845524321,7.065505,2.5594797000000002,6.0335727,-0.35487729999999995,-0.03572218,0.33831427,-16.8,35.28,-39.239998
1553845524340,6.0407553,0.9074302,5.576266,-0.32738835,-0.0406091,0.27111912,-16.619999,35.16,-38.76
1553845524361,5.2674046,0.27773590000000004,5.2314906,-0.1594004,-0.027170066,0.11168327,-16.02,35.16,-38.64
1553845524382,5.2219133,0.117319465,5.104593799999999,-0.0011863003,-0.021061412999999998,-0.025150542999999997,-15.179998999999999,35.399998,-37.98
1553845524401,5.774991,0.23703320000000003,5.2290964,0.17229943,0.024142615,-0.22612521,-14.7,34.98,-36.059998
1553845524420,6.5411586999999995,0.96489275,5.6002088,0.31524187,0.06995751,-0.36723506,-16.32,34.8,-36.6
1553845524440,7.704776299999999,2.3344178,6.4142623,0.34700690000000006,0.09439212,-0.39533487,-16.619999,34.86,-36.84
1553845524461,9.534002000000001,4.7119327,7.6449194,0.16863424,-0.11024773,-0.16259523,-16.5,34.86,-38.219997
1553845524480,10.690437,7.8268843,7.965752,-0.10930945,-0.2476924,0.22163899999999997,-17.279999,34.98,-39.18
1553845524500,9.210775,5.537957700000001,6.7829804000000005,-0.23514768,-0.1444562,0.36213803,-17.52,34.98,-39.719997
1553845524521,6.7446722999999995,1.8076775,5.593026,-0.33960566,-0.003957185,0.32426438,-17.16,34.739998,-38.94
1553845524540,5.669643,0.6296943,5.2147307000000005,-0.2595823,0.030251267999999998,0.22530419999999998,-17.1,34.8,-38.879996999999996
1553845524560,5.133325,0.09337672,5.035159999999999,-0.066548884,0.06995751,0.045709822000000004,-16.98,35.1,-38.94
1553845524581,5.4804949999999995,-0.021548472000000003,5.0758624,0.10999117,0.098057315,-0.15526484,-15.599998999999999,35.579997999999996,-38.52
1553845524600,6.1173720000000005,0.5219519,5.4757066,0.23338595,0.10905289,-0.2982073,-15.179998999999999,35.7,-38.1
1553845524620,7.103813000000001,1.8172544999999998,6.071880999999999,0.32135054,0.15181345,-0.38556105,-16.14,36.059998,-38.219997
1553845524641,8.581081,3.562681,7.1397276,0.24377066,0.09866817,-0.29270953,-16.44,35.399998,-38.7
1553845524660,9.912297,5.691191000000001,7.9346266000000005,0.04890465,-0.10291736,-0.023928814,-16.74,35.28,-38.52
1553845524681,9.677659,6.3807425,7.3647895000000005,-0.20093924,-0.15423004,0.33831427,-17.4,35.7,-39.719997
1553845524700,7.439012,3.0886145000000003,6.1676519999999995,-0.3084515,-0.04121997,0.34136859999999997,-16.68,34.86,-39.54
1553845524720,6.0407553,1.0391153,5.6002088,-0.30784068,-0.00334632,0.27661687,-16.32,34.739998,-38.879996999999996
1553845524740,5.312896,0.34956414,5.233885,-0.19177626,0.00031887164,0.15627643,-16.26,35.16,-38.76
1553845524760,5.1021996,0.0047885496,5.0399485,0.026302636,0.011314446,-0.04836342,-16.199999,35.34,-38.52
1553845524781,5.7199225,0.24421602,5.2267017,0.19734491,0.036970787000000005,-0.24506202,-15.78,35.16,-38.34
1553845524800,6.55313,1.0726352,5.6361227,0.30058113,0.06568145,-0.35013086,-15.059999,35.82,-37.62
1553845524820,7.7119594,2.4637089,6.442993599999999,0.33478957,0.111496344,-0.39472404,-15.599998999999999,35.52,-38.399998
1553845524841,9.610619999999999,4.8843207,7.767027400000001,0.13320406,-0.08092621,-0.14915618,-16.68,34.86,-39.66
1553845524860,10.92747,7.9370210000000005,8.224333999999999,-0.12519194,-0.24585982,0.22041728,-16.619999,34.98,-39.42
1553845524881,8.413482,4.4916596,6.3400397,-0.29806679999999997,-0.091921784,0.39329216,-17.1,34.98,-38.94
1553845524900,6.567496,1.6520496999999998,5.62894,-0.37809014,0.025975212,0.35786197,-17.58,34.62,-38.34
1553845524920,5.4589467,0.4189981,5.2290964,-0.2681344,0.03758165,0.24118671,-16.98,34.92,-37.98
1553845524941,5.0160055,0.07901107,5.0495257,-0.0732684,0.03513819,0.053651072,-16.199999,35.399998,-37.98
1553845524960,5.2937417,-0.10774237,5.0088230000000005,0.06417628,0.044912033,-0.10395216,-16.44,35.52,-38.1
1553845524980,6.0862465,0.40463245,5.377541000000001,0.21444912,0.06262712,-0.2701075,-16.68,35.46,-38.399998
1553845525000,6.93382,1.4676905,5.830058999999999,0.31768537,0.10233337,-0.36967853,-16.859999,36.12,-38.399998
1553845525020,8.12138,3.007209,6.7135468,0.29263988,0.12676798,-0.33669183,-16.92,35.46,-38.04
1553845525041,9.895537,5.5116205,7.9729350000000005,0.055013303,-0.08581313,-0.034924388,-16.619999,35.1,-38.64
1553845525060,10.245102000000001,7.3001437000000005,7.8556156,-0.1875002,-0.15728436,0.28394726,-16.38,34.92,-39.66
1553845525080,7.9370210000000005,3.7518287000000003,6.3711652999999995,-0.3451034,-0.029613525,0.35969454,-16.68,34.98,-39.42
1553845525100,6.4334164000000005,1.350371,5.7725964,-0.38114446,0.027807808,0.32487524,-16.14,34.92,-38.64
1553845525121,5.3464155,0.20111908,5.181210500000001,-0.22415212,0.048577222999999996,0.17154807,-16.199999,34.98,-38.16
1553845525140,5.087834,-0.117319465,5.006428700000001,-0.010960144,0.024753481,-0.011711508999999998,-15.9,35.46,-38.16
1553845525161,5.542746,-0.026337024,5.0998054,0.15397346,0.018033965,-0.19191676,-16.02,35.64,-38.46
1553845525180,6.2921543,0.65842557,5.4589467,0.30730066,0.04674463,-0.33974615,-16.44,35.94,-38.82
1553845525200,7.393521000000001,2.0159793,6.263423,0.36227852,0.12921144,-0.39044797,-15.96,36.36,-39.239998
1553845525221,9.387952,4.352792,7.731113400000001,0.16863424,-0.019839682,-0.19436021,-16.02,36.42,-38.82
1553845525240,11.231544,8.126168,8.540379,-0.18078068,-0.25196847,0.26134524,-17.34,35.88,-38.219997
1553845525260,9.189227,5.1429024000000005,6.7039695,-0.3090624,-0.10108476,0.41039637,-17.52,35.52,-39.12
1553845525280,6.7877693,1.7358493000000002,5.770201999999999,-0.3841988,0.027196944,0.38046399999999997,-17.279999,36.059998,-39.66
1553845525300,5.5403519999999995,0.42139238,5.3248672,-0.27057788,0.006427524,0.27234083,-16.68,35.88,-38.52
1553845525323,4.9178405,-0.083799616,5.020794400000001,-0.042114273,-0.019839682,0.06831183,-15.36,35.399998,-37.44
1553845525341,5.3248672,-0.17238778,4.9561486,0.08189137,-0.025337468999999998,-0.07829582,-15.299999,35.52,-37.26
1553845525360,6.0814580000000005,0.23942748,5.274587599999999,0.1991775,0.0033731977000000003,-0.21940568,-15.66,36.719997,-37.98
1553845525380,6.9218483,1.3168511,5.643306,0.32440487,0.08461828,-0.35807209999999995,-15.66,36.899998,-37.8
1553845525401,7.755056,2.3487834999999997,6.344828,0.37877187,0.18724364,-0.40266526,-15.719999,35.64,-36.3
1553845525420,9.330489,4.2019525,7.5539369999999995,0.19551231,0.021699157,-0.2016906,-15.9,34.92,-35.88
1553845525440,10.673677,7.699988,8.2387,-0.12091588,-0.18782762,0.19048489999999998,-16.619999,35.46,-37.5
1553845525460,8.760652,4.8986864,6.797346000000001,-0.29317990000000005,-0.076039284,0.34503379999999995,-16.859999,35.46,-38.64
1553845525481,6.912271499999999,1.9034485,5.8851275,-0.40496823,0.034527324,0.34992072,-16.199999,34.739998,-38.82
1553845525500,5.6504884,0.31843856,5.2578273,-0.26752356,0.054075014000000005,0.22958027,-15.719999,34.92,-38.879996999999996
1553845525520,5.0926222999999995,-0.023942748,5.042342700000001,-0.05372071,0.03513819,0.063424915,-15.839998999999999,35.34,-38.399998
1553845525541,5.3895125,-0.05506832,5.0375543,0.12037589,0.0021514674,-0.107617356,-16.38,36.12,-37.739998
1553845525560,5.9473785999999995,0.27055305,5.253039,0.2761465,0.031473,-0.27927047,-16.619999,36.36,-37.079997999999996
1553845525580,6.5651016,1.0295382,5.5978145999999995,0.41847813,0.13532008,-0.41976949999999996,-16.38,36.18,-38.1
1553845525601,7.764633,2.3463893,6.6345353000000005,0.4221433,0.1933523,-0.44298238,-15.96,35.76,-38.579997999999996
1553845525620,9.783007000000001,5.3871183,8.207574000000001,0.15030827,-0.07481755,-0.16076264,-16.38,35.219997,-38.34
1553845525640,11.071127,8.763046000000001,8.470944,-0.19605231,-0.23119906,0.30899274,-16.859999,35.16,-39.059998
1553845525660,8.298556,4.367157499999999,6.459753500000001,-0.34021652,-0.07054149,0.40062252,-16.92,35.64,-38.879996999999996
1553845525680,6.4621477,1.3383996,5.602603,-0.3719815,0.0052057933,0.3627489,-16.5,35.94,-38.28
1553845525700,5.4086666,0.20111908,5.205153500000001,-0.22231951,0.0052057933,0.21858469,-15.719999,35.94,-38.28
1553845525720,5.0231886,0.05027977,5.090228,-0.04089254,-0.009454971999999999,0.049985882,-15.66,35.76,-37.86
1553845525741,5.420637999999999,0.043096945,5.0662856,0.10082819,0.018033965,-0.13021936,-16.14,35.88,-36.719997
1553845525760,6.1269493,0.5363176,5.39909,0.2431598,0.06690318,-0.28660086,-15.719999,36.48,-36.899998
1553845525780,6.8787518,1.4245936000000001,5.808511,0.34822859999999994,0.14020702,-0.39716747,-15.719999,36.18,-37.38
1553845525801,8.13814,2.8683412,6.809317599999999,0.33112440000000004,0.14814825,-0.36418074,-15.48,35.7,-37.32
1553845525820,10.053560000000001,5.7031627,8.049552,0.06539801,-0.11330206,-0.04408737,-14.82,35.04,-37.68
1553845525840,10.295382,7.4414062,7.941809700000001,-0.1875002,-0.17377773,0.28944507,-16.32,34.559998,-37.62
1553845525860,7.915472500000001,3.6512692,6.378348,-0.34693605,-0.051604677,0.35175332,-17.22,34.2,-38.399998
1553845525880,6.478907599999999,1.2138973,5.6313343,-0.36587286,-0.015563624,0.31510141,-16.98,34.26,-39.059998
1553845525900,5.4326096,0.26337022,5.1692395,-0.20826963,0.008870985,0.16605029,-16.56,34.62,-38.76
1553845525921,5.181210500000001,0.09337672,5.097411,-0.017679663,0.006427524,-0.0025485298,-16.14,35.64,-38.76
1553845525940,5.648094,0.098165266,5.104593799999999,0.12220848,0.031473,-0.17359081,-15.9,35.88,-37.98
1553845525960,6.1556807000000004,0.50758624,5.3488097,0.24621412,0.069346644,-0.3037051,-16.38,35.64,-37.68
1553845525980,7.055927799999999,1.5993756000000001,6.0096297,0.3818262,0.16525249,-0.42465640000000004,-16.859999,35.28,-37.739998
1553845526000,8.741497,3.3831102999999993,7.269017999999999,0.27125959999999993,0.07301183,-0.31103548,-15.66,34.86,-36.899998
1553845526020,10.874796,7.360000599999999,8.411087,-0.07754446,-0.22509041,0.11962452,-15.66,34.86,-37.14
1553845526040,9.833286,6.5196104,7.343240700000001,-0.2681344,-0.14262360000000002,0.36824667,-16.26,34.8,-37.86
1553845526061,7.1397276,2.3846977000000003,5.911464700000001,-0.37503582,0.016812233,0.3468664,-15.9,34.44,-36.899998
1553845526080,5.9186473,0.6344828,5.461341,-0.3005103,-0.009454971999999999,0.26562129999999995,-15.66,34.86,-36.059998
1553845526100,5.1548739999999995,0.12210801,5.090228,-0.11602897,-0.011898434,0.10435289,-16.38,36.48,-37.92
1553845526121,5.2482505,0.047885496,5.0231886,0.050737243,0.006427524,-0.067300245,-16.44,36.18,-37.68
1553845526140,5.8947043,0.3519584,5.2674046,0.17229943,0.05468588,-0.21940568,-15.96,36.0,-37.739998
1553845526161,6.735094999999999,1.2976969999999999,5.707951,0.29874852,0.124324515,-0.35196343,-17.1,36.12,-37.8
1553845526180,7.7742105,2.4780743,6.4501762000000005,0.31646362,0.1615873,-0.35501775,-16.68,35.52,-37.739998
1553845526200,9.591465,4.879532,7.8292785,0.10693685,-0.043052558,-0.11250427,-16.44,35.46,-38.34
1553845526221,10.43425,7.415069,8.164477,-0.16123301,-0.18599503,0.24301929999999997,-17.46,35.76,-39.3
1553845526240,8.286585,4.2570205,6.560312700000001,-0.29317990000000005,-0.046106886,0.34320120000000004,-17.039998999999998,35.28,-39.12
1553845526260,6.651294999999999,1.6257126,5.8396363,-0.34327084,0.01070358,0.31937745,-16.14,34.739998,-38.219997
1553845526281,5.514014700000001,0.42378664,5.3272614,-0.20643702,-0.011898434,0.18254364,-15.96,35.76,-38.46
1553845526300,5.1883935999999995,0.19633053,5.138114,-0.053109847,-0.013120163999999998,0.049985882,-16.56,36.18,-38.82
1553845526321,5.5810547,0.076616794,5.073468,0.095941275,0.011314446,-0.12044552,-16.74,36.12,-38.34
1553845526340,6.28976,0.58420306,5.3871183,0.23216423,0.05957280000000001,-0.27132922,-16.619999,36.18,-38.579997999999996
1553845526360,6.974522599999999,1.4365649,5.7821736,0.35311553,0.12493538,-0.37639806,-16.859999,36.6,-37.92
1553845526380,8.123775,2.7079248,6.660872500000001,0.332957,0.1475374,-0.35562864,-17.1,35.82,-37.5
1553845526401,9.871595,5.4230323,7.9681463,0.09288695,-0.08275881,-0.08684793,-15.599998999999999,34.68,-37.02
1553845526420,10.166091,7.1995845,7.910684,-0.1734503,-0.17194512,0.25951266,-16.08,34.86,-36.84
1553845526440,7.903500999999999,3.7254915,6.404685,-0.30784068,-0.039998233,0.3328165,-16.56,34.62,-37.14
1553845526460,6.4094739999999994,1.3551594999999999,5.681614,-0.33594045,0.0015406022,0.30777103,-16.32,34.62,-37.8
1553845526481,5.4589467,0.41660379999999997,5.2650104,-0.1893328,0.015590503,0.16849375,-16.08,35.7,-37.62
1553845526500,5.147691,0.20830189999999998,5.133325,-0.0024080307,0.016812233,0.017610023,-15.599998999999999,36.18,-37.32
1553845526521,5.6241517,0.19393626,5.2458563,0.15580606,0.04430117,-0.18092118,-16.56,36.42,-38.52
1553845526540,6.23948,0.67279124,5.4541580000000005,0.2761465,0.0736227,-0.30675942,-16.859999,35.94,-38.34
1553845526561,6.974522599999999,1.5299416000000001,5.8779445,0.37877187,0.14326134,-0.40755218,-16.92,35.82,-38.52
1553845526580,8.38475,3.1963567999999998,7.058322,0.30730066,0.11210721,-0.34646568,-17.16,35.76,-38.7
1553845526600,10.371999,6.524399,8.286585,-0.0036297613,-0.17194512,0.026773002,-17.279999,35.1,-38.64
1553845526620,9.964972,6.864386,7.666467999999999,-0.22231951,-0.18171898,0.3218209,-16.68,34.92,-38.46
1553845526640,7.405492,2.9162266,6.0958239999999995,-0.33288613,-0.050993808,0.34075776,-17.279999,34.86,-38.7
1553845526660,6.114978,0.94573855,5.537957700000001,-0.30967325,-0.03511131,0.28211468,-17.1,34.62,-38.52
1553845526681,5.3368387,0.3519584,5.2267017,-0.15634607,-0.022894006,0.13733962,-16.5,35.04,-37.68
1553845526700,5.3033185,0.25858167,5.121353599999999,0.012252735,-0.003957185,-0.025150542999999997,-16.68,36.0,-38.1
1553845526720,5.8755503,0.36392978,5.274587599999999,0.12892799,0.041246843,-0.16992562,-16.68,36.96,-38.219997
1553845526741,6.550736,1.0055954,5.5451403,0.2620966,0.08706174,-0.30431595,-16.859999,37.14,-38.34
1553845526760,7.249864,1.9393626,6.038361,0.35128295,0.15486778,-0.38250673,-16.56,36.54,-37.86
1553845526780,8.55235,3.4716985,7.1373334,0.25965318,0.07850962,-0.28293568,-15.54,35.34,-35.7
1553845526800,10.235525,6.6010156,8.147717,-0.023788313999999998,-0.17988639,0.07564222,-15.66,33.96,-35.399998
1553845526820,9.366403,5.9665327,7.290567,-0.22842817,-0.1585061,0.31510141,-15.66,34.32,-37.14
1553845526840,7.2187386,2.6887705000000004,6.071880999999999,-0.34388173,-0.042441695999999994,0.32731869999999996,-15.719999,34.38,-37.98
1553845526861,5.9713216,0.9241901,5.5044379999999995,-0.3005103,-0.014341895,0.26317784,-16.44,34.32,-37.5
1553845526880,5.310501599999999,0.34716985,5.217125,-0.1276354,0.0021514674,0.11718106,-16.5,35.579997999999996,-37.559998
1553845526900,5.463735,0.14126222,5.1429024000000005,0.036687344,-0.013120163999999998,-0.047141694000000005,-16.38,36.36,-37.5
1553845526921,6.1413150000000005,0.42857520000000005,5.272193,0.1674125,0.024142615,-0.20352319,-16.32,36.059998,-37.32
1553845526940,6.794952,1.1181264,5.5044379999999995,0.3030246,0.099889904,-0.33363748,-15.96,35.34,-38.1
1553845526960,7.6281595,2.2147042999999997,6.160469,0.35189380000000003,0.17136115,-0.38556105,-16.38,35.7,-38.16
1553845526981,9.179649000000001,4.350397,7.5060515,0.1814624,-0.00029199357999999995,-0.20596667,-17.16,35.34,-38.04
1553845527001,10.558752,7.570697,8.248277,-0.12580281,-0.18721674,0.18743056,-16.619999,34.62,-38.16
1553845527020,8.729526,4.9202347,6.7829804000000005,-0.29806679999999997,-0.047328617,0.34992072,-16.98,34.68,-38.579997999999996
1553845527040,6.747066499999999,1.8795058,5.770201999999999,-0.36648372,0.07240097,0.33037302,-16.98,35.399998,-38.52
1553845527061,5.521198,0.51716334,5.2506447,-0.24797586,0.08095308400000001,0.22102815,-16.619999,35.94,-38.399998
1553845527080,4.9992456,0.17717634,5.0998054,-0.04822292,0.051631555,0.062203187,-16.98,35.76,-38.7
1553845527100,5.3272614,0.11492519,5.2290964,0.10693685,0.025975212,-0.09234572,-17.039998999999998,35.64,-38.64
1553845527121,6.160469,0.65363705,5.6241517,0.23094249,0.04796636,-0.22551434,-16.98,35.88,-38.52
1553845527140,6.840443,1.5778271000000001,5.978504,0.32440487,0.11088548599999999,-0.3140898,-16.74,36.0,-38.16
1553845527160,7.927444,2.8683412,6.835654700000001,0.30363548,0.13165489,-0.29393125,-16.619999,36.0,-38.34
1553845527180,9.766247,5.569083,8.114198,0.06356542,-0.13895841,0.005392718,-16.92,35.46,-38.64
1553845527200,10.130177,7.228316,7.915472500000001,-0.18444587,-0.24036203,0.31754485,-16.08,34.92,-37.86
1553845527220,7.908289999999999,3.624932,6.3831367,-0.32250142,-0.08764572400000001,0.38046399999999997,-16.38,34.32,-37.92
1553845527240,6.483696,1.2474172,5.681614,-0.32861006,-0.03022439,0.34503379999999995,-17.58,34.5,-38.94
1553845527260,5.4900723,0.31125572,5.1788163,-0.17100683,-0.03694391,0.20453478,-16.56,35.28,-38.52
1553845527280,5.255433,0.083799616,4.975303,0.012252735,-0.04977208,0.03288165,-16.32,35.82,-38.34
1553845527301,5.7821736,0.25139886,5.0614967,0.14603223,-0.013120163999999998,-0.11800206,-16.68,35.88,-38.399998
1553845527320,6.4621477,0.8667275,5.3224730000000005,0.27370307,0.05040982,-0.26399884,-16.56,35.64,-38.219997
1553845527341,6.9505796,1.5969813,5.7366824,0.36533284,0.1530352,-0.38372844,-16.14,35.64,-37.739998
1553845527360,8.042369,2.8946784,6.826077499999999,0.30424629999999997,0.1597547,-0.34157872,-15.9,35.28,-38.1
1553845527380,10.072714,6.5555243,8.272219999999999,-0.01157101,-0.12002158,0.027383868,-15.96,34.5,-36.6
1553845527400,10.410307000000001,7.834067299999999,8.253065,-0.30600807,-0.15667349,0.36702493,-15.66,34.079997999999996,-33.48
1553845527420,7.656891000000001,3.469304,6.495667500000001,-0.49232197,0.018644828000000002,0.42933318,-15.0,34.38,-32.7
1553845527440,5.935407,0.50040346,5.578660500000001,-0.46055698,0.084007405,0.34869897,-14.88,34.44,-33.48
1553845527461,5.1189594000000005,-0.37590113,5.1021996,-0.23942375,0.03758165,0.14833519,-15.299999,35.04,-33.66
1553845527480,5.1357193,-0.36632404,4.9609375,-0.0042406265000000005,-0.069930635,-0.062413324000000006,-14.88,35.82,-32.94
1553845527500,5.595420400000001,0.11971374,5.111777,0.15947126,-0.11696725,-0.22612521,-14.28,35.88,-32.579997999999996
1553845527521,6.2682114,0.6560313,5.3919067,0.28592038,-0.07665015,-0.35501775,-14.28,35.64,-32.04
1553845527540,7.185219,1.8364087,5.997658299999999,0.3488395,0.06995751,-0.41915864,-14.4,35.52,-32.1
1553845527560,9.024022,3.703943,7.2762012,0.18207327,0.02231002,-0.25972280000000003,-15.0,34.98,-32.28
1553845527581,11.456605,7.9489923,8.516436,-0.19299799,-0.23914029999999997,0.21553037,-15.54,34.62,-32.64
1553845527600,9.931452,5.978504,7.326480999999999,-0.356099,-0.17927551,0.44399396,-15.0,34.559998,-33.0
1553845527621,7.3145093999999995,1.6520496999999998,5.7893567,-0.41352037,0.018033965,0.40245515,-15.059999,34.62,-32.399998
1553845527640,5.770201999999999,-0.14605077,5.1596622000000005,-0.2614149,0.024142615,0.28883418,-15.36,34.68,-32.219997
1553845527660,5.0040345,-0.48124924,4.8029150000000005,-0.035394754,-0.024726603,0.10129856,-15.0,35.219997,-33.18
1553845527680,5.183605,-0.36632404,4.7813669999999995,0.16374731,-0.07848274,-0.07585236,-15.66,36.54,-35.64
1553845527701,6.069486599999999,0.24182175,5.111777,0.2749248,-0.032056987,-0.21512964,-16.32,37.079997999999996,-37.68
1553845527720,6.912271499999999,1.0965778999999998,5.360780999999999,0.3696089,0.084007405,-0.35196343,-16.199999,36.0,-36.6
1553845527740,7.704776299999999,2.0255566000000003,5.9808984,0.44291273,0.24161065,-0.43443027,-16.5,35.399998,-36.48
1553845527761,9.273026,3.6943660000000005,7.355212,0.28347690000000003,0.12798971,-0.26949665,-17.039998999999998,36.0,-37.8
1553845527780,11.45421,8.157294,8.583475,-0.08365311,-0.17805378,0.23324545,-17.039998999999998,35.579997999999996,-37.92
1553845527801,9.692024,6.1317377,7.285778,-0.28890383,-0.09986303,0.45621127,-16.56,35.04,-38.16
1553845527820,7.058322,2.056682,5.8755503,-0.38114446,0.06568145,0.40734205,-16.8,35.399998,-38.46
1553845527840,5.339233,0.076616794,5.2075477,-0.27118877,0.10172250000000001,0.28394726,-15.66,35.46,-36.12
1553845527861,4.6712303,-0.23942748,4.95136,-0.07082493599999999,0.0736227,0.09030299,-13.98,34.68,-32.94
1553845527880,4.996851400000001,0.052674048,5.042342700000001,0.09288695,0.017423097,-0.090513125,-14.639999,35.04,-32.579997999999996
1553845527900,5.648094,0.29449580000000003,5.28177,0.21872519,0.025975212,-0.25666845,-14.759998999999999,35.7,-32.579997999999996
1553845527921,6.3544054,0.91700727,5.5810547,0.3415091,0.12493538,-0.40022179999999996,-14.16,34.98,-32.46
1553845527940,7.4605603,1.9130256,6.407079,0.41236949999999994,0.2422215,-0.4778017,-13.86,35.219997,-32.64
1553845527960,9.562733999999999,4.304906,8.013638,0.21933606,0.060183667,-0.29148778,-14.099998999999999,35.28,-32.7
1553845527981,11.557164,8.877971,8.851633999999999,-0.14657223,-0.25135761,0.19598268,-14.759998999999999,34.14,-33.18
1553845528000,9.071907000000001,5.542746,7.067899000000001,-0.3383839,-0.18416242,0.40612033,-14.88,33.66,-33.059998
1553845528020,6.608198599999999,1.5850098999999997,5.681614,-0.42207244,-0.022894006,0.37069014,-14.88,33.719997,-32.1
1553845528041,5.3248672,-0.090982445,5.1524790000000005,-0.28279516,-0.03327872,0.24179757,-15.36,34.32,-32.16
1553845528060,4.8723493,-0.28252444,4.8268580000000005,-0.062272824000000004,-0.069930635,0.038990308,-15.12,34.8,-32.88
1553845528080,5.236279,-0.14365649,4.8771377000000005,0.09044349,-0.06504371,-0.14488013,-14.519999499999999,34.86,-32.64
1553845528101,6.0934295999999994,0.25379312,5.2314906,0.22605558,0.004594928,-0.31103548,-14.4,34.68,-31.92
1553845528120,6.8500204,1.0726352,5.559506,0.34761778,0.084007405,-0.43137595,-14.58,34.62,-31.32
1553845528141,7.781393,2.1620302000000002,6.182017299999999,0.40320647,0.16219817,-0.47719082,-14.82,34.5,-31.38
1553845528160,9.517242,4.455744999999999,7.57788,0.2168926,-0.043052558,-0.24933809,-14.94,34.14,-32.16
1553845528180,11.396749,8.497281,8.382356,-0.086707436,-0.27395964,0.22591507,-15.059999,33.84,-33.18
1553845528201,9.387952,5.6145744,7.0511394,-0.25286278,-0.1866059,0.42994407,-15.24,33.36,-34.02
1553845528220,6.828471700000001,1.6017698,5.576266,-0.333497,-0.03511131,0.38779438,-15.059999,33.36,-34.02
1553845528240,5.4517636,0.07901107,4.98488,-0.22903903,0.0143687725,0.26012352,-14.88,34.32,-33.54
1553845528260,4.9633317,-0.05985687,4.788549400000001,-0.012181873999999999,0.04002511,0.06647924,-15.36,34.5,-32.82
1553845528280,5.320079,0.07901107,4.891503299999999,0.13748012,0.04002511,-0.09662178,-14.82,34.559998,-32.46
1553845528300,6.1101894,0.5506831999999999,5.212336,0.26331836,0.057740204,-0.25422502,-15.0,34.62,-32.94
1553845528320,6.766220599999999,1.350371,5.672037,0.38488049999999996,0.14265047,-0.37639806,-15.839998999999999,34.2,-33.12
1553845528340,7.676044999999999,2.4373717,6.524399,0.39648697,0.203737,-0.39594573,-15.42,34.32,-33.059998
1553845528360,9.622589999999999,5.0638914,7.9178667,0.17474289,-0.03144612,-0.121056385,-15.36,34.5,-34.5
1553845528381,11.267457,8.791777,8.542772,-0.14473964,-0.25441194,0.34320120000000004,-16.08,33.899998,-37.02
1553845528400,8.844451,4.867561,6.838049000000001,-0.30539718,-0.19760147,0.44460479999999997,-16.32,33.719997,-37.5
1553845528420,6.3951080000000005,0.96489275,5.463735,-0.37625757,-0.023504874,0.36152717,-16.92,34.5,-37.68
1553845528441,5.1907879999999995,-0.24182175,4.9633317,-0.25225192,0.01070358,0.20148046,-16.199999,35.04,-36.719997
1553845528460,4.95136,-0.10774237,4.62095,-0.05799677,0.011925311000000001,-0.0068245865,-14.82,35.219997,-36.0
1553845528480,5.437398,0.29928434,4.9178405,0.0849457,0.0015406022,-0.17114733,-15.9,35.16,-37.559998
1553845528500,6.2083544999999996,0.6608198000000001,5.401484,0.21383828,0.017423097,-0.29576385,-16.8,35.76,-38.64
1553845528520,6.974522599999999,1.6831752,5.8037220000000005,0.31585276,0.10172250000000001,-0.39533487,-16.92,35.46,-38.82
1553845528540,8.171659,3.1221343999999998,6.675238,0.27187046,0.14142874,-0.35440692,-17.279999,34.86,-39.18
1553845528560,10.1541195,6.284971,8.035186,0.008587544,-0.10902601,-0.0025485298,-17.76,34.5,-38.82
1553845528581,10.874796,7.778999000000001,8.176449,-0.22903903,-0.2568554,0.38412917,-17.4,34.62,-38.76
1553845528600,8.336864,3.3064934999999998,6.296942700000001,-0.34021652,-0.17133425,0.41833760000000003,-16.56,35.04,-38.94
1553845528620,6.447782,0.46688359999999995,5.197970400000001,-0.34082738,-0.030835256000000002,0.3224318,-16.26,35.16,-38.7
1553845528641,5.3679643,-0.12210801,4.7071442999999995,-0.18994367,0.043690305,0.14039394,-16.5,35.88,-39.059998
1553845528660,5.0830455,0.05506832,4.6496816,0.0049223523,0.0009297369400000001,-0.04103304,-16.44,35.7,-37.739998
1553845528680,5.724711,0.33519846,4.908263,0.11365636400000001,-0.015563624,-0.17053647,-16.14,35.399998,-37.5
1553845528700,6.610593,0.89067024,5.3272614,0.24377066,0.029640405,-0.27438357,-17.1,35.76,-38.46
1553845528721,7.352817999999999,1.924997,5.880339,0.34456342,0.1615873,-0.35379606,-16.92,35.88,-38.219997
1553845528740,8.976136,4.0080160000000005,7.151699000000001,0.20284270000000001,0.12554625,-0.19863628,-16.619999,35.52,-37.92
1553845528760,11.269852,7.877164,8.413482,-0.094037816,-0.1493431,0.21736296,-17.46,34.8,-38.52
1553845528781,10.0368,6.057515,7.369578,-0.2614149,-0.15911695,0.42505714,-17.88,34.559998,-38.76
1553845528800,7.257047,1.8172544999999998,5.7199225,-0.34632516,0.0015406022,0.40367684,-17.279999,34.14,-37.8
1553845528820,5.5642949999999995,-0.10774237,5.106987999999999,-0.24125634,0.06262712,0.2784495,-16.859999,34.92,-37.8
1553845528841,4.8891089999999995,-0.29928434,4.70475,-0.07754446,0.070568375,0.09641164,-16.74,36.18,-38.1
1553845528860,5.114171,0.05985687,4.68799,0.031189557000000003,0.029029539,-0.058137268,-16.8,35.76,-38.1
1553845528880,5.9856873,0.42857520000000005,5.28177,0.14114529,0.024142615,-0.22795781,-15.66,35.88,-37.14
1553845528900,6.763826400000001,1.2833313,5.7007685,0.26515093,0.10660942,-0.34646568,-15.0,35.94,-36.899998
1553845528921,7.632948,2.3056867000000003,6.3137026,0.30607890000000004,0.22389555,-0.37700891,-16.26,35.82,-37.68
1553845528940,9.210775,4.3168774,7.57788,0.12343021,0.08828347,-0.18092118,-16.5,35.64,-37.559998
1553845528960,11.068732,7.941809700000001,8.425453,-0.15451348,-0.17377773,0.20453478,-16.619999,35.16,-38.219997
1553845528980,9.150917999999999,4.455744999999999,6.8165,-0.32066882,-0.12063245,0.35664022,-16.38,34.98,-38.64
1553845529000,7.072687599999999,1.2905141000000002,5.741471,-0.36404026,-0.012509298500000002,0.32609698,-16.56,35.579997999999996,-38.46
1553845529021,5.4134555,-0.15802214,5.0088230000000005,-0.2015501,0.027196944,0.18010017,-16.98,36.12,-38.579997999999996
1553845529040,4.948966,-0.038308397,4.788549400000001,-0.040281676,0.011314446,0.022496943999999998,-16.56,36.0,-38.34
1553845529061,5.4541580000000005,0.22985038,4.771789599999999,0.07517185,-0.024115737999999998,-0.15526484,-16.619999,36.239998,-37.98
1553845529080,6.0862465,0.48843205,5.209942,0.18940365,0.0039840629999999995,-0.27682704,-16.44,36.42,-37.26
1553845529100,6.9290313999999995,1.3575538,5.7127395,0.33417872,0.13043317,-0.39716747,-15.78,36.0,-36.059998
1553845529121,8.595447,3.1484714,6.960157000000001,0.26148576,0.16097642,-0.3299723,-15.719999,35.76,-35.94
1553845529140,10.7479,6.58665,8.322499,-0.033562157,-0.13040629,0.018220888,-16.02,35.28,-36.899998
1553845529160,10.73114,6.984099400000001,7.824489999999999,-0.24492154,-0.17988639,0.32121006,-16.14,34.38,-37.14
1553845529180,7.860403999999999,2.3751206000000002,5.8013277,-0.32433403,-0.0070115114,0.3377034,-15.96,34.68,-36.18
1553845529200,5.6169686,0.035914123,5.0184,-0.22354124,0.09317039,0.23874325,-16.14,35.399998,-36.719997
1553845529221,4.685596,-0.3519584,4.623344400000001,-0.020123122,0.08461828,0.04387723,-16.859999,35.76,-37.92
1553845529240,4.972909,-0.20830189999999998,4.6041903,0.13686925,0.026586076,-0.16442783,-16.74,36.12,-37.44
1553845529260,5.6241517,0.14126222,5.0136113,0.22483385,0.043690305,-0.30126163,-16.38,36.6,-37.68
1553845529281,7.0535336,1.4940275,5.937801400000001,0.31524187,0.18846536,-0.43137595,-16.859999,36.18,-37.98
1553845529300,9.256267,3.8835137000000004,7.625765299999999,0.15275174,0.16219817,-0.30859202,-17.16,35.399998,-38.04
1553845529320,11.461393,7.6473135999999995,8.990502000000001,-0.17650463,-0.17744292,0.122678846,-17.22,35.04,-38.64
1553845529341,10.273833,6.641718400000001,7.4030976,-0.3176145,-0.17377773,0.44582656,-16.44,34.26,-35.88
1553845529360,6.790163499999999,1.5395187,5.403878,-0.33471873,0.051631555,0.3780205,-15.719999,33.96,-32.76
1553845529381,5.427821,0.04070267,5.341627,-0.24675414,0.062016264,0.28028208,-14.82,34.68,-32.46
1553845529400,4.7957325,0.076616794,5.138114,-0.10992031,-0.008233242,0.11840279,-14.58,35.28,-32.399998
1553845529420,5.0998054,0.21548474,4.946572,0.015917927,-0.061378515999999994,-0.063024186,-15.059999,35.34,-32.76
1553845529441,5.995264,0.38547826,5.4182440000000005,0.10571512,0.0033731977000000003,-0.19924714,-14.759998999999999,35.7,-33.12
1553845529460,7.0080423,1.2402343999999998,5.863579,0.19123626,0.07301183,-0.29026607,-14.58,35.88,-33.48
1553845529480,8.4781275,2.9162266,6.811711999999999,0.19001453,0.10722029,-0.2707184,-14.4,35.399998,-33.36
1553845529501,10.448615,5.7366824,8.13814,-0.07754446,-0.18355158,0.049375015999999994,-14.7,35.1,-33.3
1553845529520,10.204399,6.55313,7.575485700000001,-0.27241045,-0.15972783,0.27417344,-14.94,34.62,-33.36
1553845529540,7.678439,2.4900458,5.940196,-0.34021652,0.06384886,0.29555370000000003,-15.12,34.68,-32.7
1553845529561,5.9665327,0.39984390000000003,5.4733124,-0.29256904,0.079120494,0.21858469,-15.24,35.34,-32.34
1553845529580,5.027977,-0.05985687,5.133325,-0.12091588,0.018033965,0.07869655,-15.059999,35.7,-32.1
1553845529600,5.1429024000000005,-0.11492519,4.886715000000001,0.04401773,-0.089478314,-0.07707409,-14.82,35.399998,-31.92
1553845529620,6.0072355,0.22027329,5.109382599999999,0.16619077,-0.05221554,-0.24628377,-15.179998999999999,35.16,-31.98
1553845529641,6.9290313999999995,1.1348863,5.5523233,0.28225520000000004,0.09317039,-0.3666242,-16.44,36.36,-34.38
1553845529660,8.2578535,2.5427197999999995,6.699180999999999,0.26637268,0.1701394,-0.35440692,-16.8,37.2,-37.5
1553845529680,10.716774000000001,6.138921,8.664881,-0.07815532,-0.16583647,-0.0043811253,-16.619999,36.239998,-38.1
1553845529701,10.719169,7.036773700000001,7.8053360000000005,-0.33044267,-0.1847733,0.32059917,-16.5,35.04,-37.8
1553845529720,8.028004,3.0263633999999997,5.923435700000001,-0.32983178,0.06995751,0.33709255,-16.14,35.34,-37.62
1553845529740,6.1101894,0.31365,5.3966956,-0.27790827,0.11027461,0.28700158,-17.1,36.42,-37.739998
1553845529760,5.0495257,-0.16759923,5.035159999999999,-0.07632273,0.01986656,0.11840279,-17.52,36.96,-37.44
1553845529780,5.035159999999999,-0.14126222,4.8627720000000005,0.07211753,-0.1126912,-0.03553525,-16.32,37.2,-37.14
1553845529800,5.7797794,-0.04070267,4.989669,0.19245797,-0.050382942,-0.19558194,-16.199999,37.2,-37.559998
1553845529820,6.5411586999999995,0.6895511,5.3919067,0.33540046,0.08706174,-0.35013086,-15.54,37.079997999999996,-37.14
1553845529840,7.5587254,1.7143008000000002,6.0814580000000005,0.40687168,0.21167825,-0.44359323,-15.299999,36.719997,-36.899998
1553845529860,9.727939,4.618556,8.013638,0.11976501,-0.0009028588499999999,-0.19680367,-16.859999,36.54,-37.8
1553845529880,11.439845,8.195602000000001,8.576292,-0.29379073,-0.17683205,0.29433197,-17.46,36.0,-37.8
1553845529901,8.798960000000001,4.252232,6.368771,-0.33288613,0.070568375,0.34930983,-17.22,36.0,-37.98
1553845529920,6.4621477,0.74701375,5.554717500000001,-0.32189056,0.14020702,0.31754485,-17.16,36.0,-37.44
1553845529940,5.1429024000000005,-0.09337672,5.138114,-0.12641367,0.05040982,0.19659354,-16.32,36.18,-37.079997999999996
1553845529960,4.925023,-0.04070267,4.946572,0.058067627000000004,-0.0845914,0.0047818534,-15.839998999999999,36.54,-37.559998
1553845529980,5.3512044,-0.16759923,4.886715000000001,0.16435818,-0.058935057,-0.14610186,-15.96,36.059998,-37.739998
1553845530000,6.0958239999999995,0.3232271,5.174028,0.3305135,0.07301183,-0.32875058,-15.66,36.239998,-38.1
1553845530021,6.986494,1.2234744,5.777385,0.46368214,0.24283236,-0.47963428,-16.08,36.42,-37.44
1553845530040,8.727132000000001,3.1772027,7.2953553,0.31585276,0.18174586,-0.3794524,-16.619999,36.12,-37.92
1553845530060,11.746312,8.056735,9.222747,-0.15756781,-0.20981877,0.14222653,-16.859999,35.34,-38.219997
1553845530080,10.381575999999999,6.91706,7.613794,-0.29989940000000004,-0.07542842,0.38657263,-16.859999,35.399998,-37.68
1553845530101,7.0894475,1.9824595,5.813299,-0.35915333,0.08278568,0.36946842,-16.26,36.18,-38.219997
1553845530120,5.569083,0.11013664,5.3679643,-0.2436998,0.04430117,0.29860803,-15.719999,36.54,-37.8
1553845530141,4.7981267,-0.15323359,5.00164,-0.04883379,-0.026559198,0.11718106,-15.9,36.719997,-37.26
1553845530161,5.0327660000000005,-0.08619389,4.915446299999999,0.09777387,-0.054659000000000006,-0.07829582,-16.14,37.2,-37.26
1553845530180,5.578660500000001,0.011971374,5.0686800000000005,0.21750346,0.022920884,-0.24322943,-16.56,36.96,-37.14
1553845530201,6.3304625,0.4956149,5.272193,0.3677763,0.15608951,-0.41671517,-16.199999,36.36,-37.739998
1553845530220,7.3145093999999995,1.4772675,5.978504,0.49300370000000004,0.29719937,-0.55904675,-16.619999,36.36,-38.46
1553845530241,8.93304,3.189174,7.371972,0.3079115,0.20740218,-0.43259767,-17.16,35.94,-38.52
1553845530260,11.435057,7.7742105,9.205987,-0.086707436,-0.13651493,0.057316266,-16.32,34.68,-38.46
1553845530281,10.604242999999999,7.4102807,7.975329400000001,-0.28707123,-0.19943407,0.44460479999999997,-16.44,34.2,-38.76
1553845530301,7.379155,2.5379312,5.784568,-0.3896966,-0.0406091,0.41283983,-16.38,35.16,-38.82
1553845530321,5.427821,-0.09337672,5.035159999999999,-0.28523865,0.055907607000000005,0.27050823,-17.16,35.52,-38.52
1553845530341,4.4916596,-0.32801566,4.9202347,-0.07082493599999999,0.06751405,0.10313116,-16.44,34.98,-37.559998
1553845530360,4.6544704,-0.23942748,4.891503299999999,0.14847568,0.007649255,-0.12838677,-15.12,35.88,-37.44
1553845530380,5.272193,-0.11253092,5.138114,0.2865312,0.027807808,-0.30614856,-16.02,36.719997,-37.8
1553845530400,6.464542,0.9074302,5.7103453,0.42031074,0.14875913,-0.45153448,-15.839998999999999,35.76,-36.78
1553845530420,8.226728,2.8420042999999997,6.9553685,0.36472198,0.26238006,-0.4600866,-15.78,34.86,-36.36
1553845530440,10.458193,5.952167,8.650514999999999,0.05379157,-0.0070115114,-0.13510629999999998,-16.5,34.92,-36.6
1553845530461,11.265063,8.724737,8.672064,-0.23026077,-0.2287556,0.3890161,-16.859999,34.68,-38.16
1553845530480,8.332075999999999,4.1851926,6.2514515,-0.30112112,-0.13284975,0.43422014,-16.8,34.62,-39.18
1553845530501,6.1413150000000005,0.8044763,5.482889,-0.31883624,-0.019228818,0.34259033,-17.039998999999998,35.34,-38.46
1553845530520,4.905869,0.21069619,5.2314906,-0.15329175,-0.021061412999999998,0.19659354,-17.34,36.12,-38.1
1553845530540,4.573065,0.25618739999999995,5.0806512999999995,-0.0011863003,-0.03694391,0.02066435,-16.619999,36.12,-37.02
1553845530561,5.090228,0.052674048,5.0806512999999995,0.10021733,0.0052057933,-0.15098879,-15.48,35.94,-37.079997999999996
1553845530581,6.2514515,0.5411060999999999,5.482889,0.26392922,0.099279046,-0.33302665,-16.26,36.18,-38.16
1553845530600,7.328875,1.6233183,6.091035,0.36411113,0.1982392,-0.42465640000000004,-17.039998999999998,36.48,-38.219997
1553845530621,9.110215,3.6895776,7.4868975,0.23827288,0.108442016,-0.30431595,-16.44,36.12,-38.94
1553845530640,10.913105,7.058322,8.597841,-0.08365311,-0.18721674,0.10496375,-15.719999,35.04,-38.94
1553845530661,9.876384,6.407079,7.407886,-0.26324749999999997,-0.18355158,0.38596177,-16.02,35.16,-38.76
1553845530680,7.113390400000001,2.19555,5.849213,-0.37747929,-0.028391793,0.34259033,-16.5,35.52,-38.64
1553845530700,5.705557,0.51955765,5.403878,-0.3212797,0.006427524,0.25157142,-16.38,35.82,-38.52
1553845530720,4.70475,0.15323359,5.0926222999999995,-0.11053118,0.023531752000000003,0.079307415,-16.5,35.82,-38.34
1553845530740,4.908263,0.04070267,5.035159999999999,0.039741673,-0.0106767025,-0.08990226,-15.96,35.399998,-38.219997
1553845530760,5.7318940000000005,0.1699935,5.320079,0.18451674,0.017423097,-0.25422502,-15.9,36.18,-38.52
1553845530781,6.7853746,1.0558752,5.7654138,0.3256266,0.111496344,-0.36967853,-16.44,36.42,-38.46
1553845530800,7.9489923,2.432583,6.589044,0.35128295,0.19457401,-0.3831176,-16.74,36.18,-38.64
1553845530821,9.778217999999999,4.989669,8.066312,0.119154155,-0.04549602,-0.13205196,-16.5,35.46,-38.94
1553845530840,10.565935000000001,7.594639999999999,8.233911500000001,-0.16245472,-0.21959262,0.2674539,-16.199999,35.52,-39.0
1553845530861,8.521224,4.295329,6.4860907,-0.26935613,-0.10536081,0.36030543,-16.56,35.34,-38.34
1553845530881,6.5746784,1.3360053,5.698374299999999,-0.32250142,-0.01861795,0.31204706,-16.98,34.739998,-37.92
1553845530900,5.3631754,0.43336374,5.200365000000001,-0.19177626,0.013147042,0.19109575,-16.859999,35.76,-38.04
1553845530920,4.896292,0.2466103,5.0399485,-0.01157101,0.0125361765,0.02188608,-16.68,36.18,-38.46
1553845530940,5.3296556,-0.009577099,5.0950169999999995,0.13625838,0.029029539,-0.16442783,-15.96,36.66,-38.52
1553845530961,6.122161,0.4956149,5.4086666,0.29141816,0.08339655,-0.3037051,-16.68,36.239998,-38.16
1553845530980,7.029590600000001,1.5059988000000002,6.026389599999999,0.409926,0.18052413,-0.4057196,-17.58,35.16,-37.62
1553845531001,8.648121000000002,3.5315554,7.4438004,0.29447249999999997,0.12615710000000002,-0.317755,-16.98,34.92,-37.559998
1553845531021,10.606637,6.979311,8.624178,-0.035394754,-0.1902711,0.09152472,-16.92,34.38,-38.04
1553845531040,9.790189999999999,6.675238,7.4868975,-0.238202,-0.17011254,0.36519235,-16.92,34.68,-38.46
1553845531060,7.1540933,2.5642683999999996,5.89231,-0.33716217,-0.01495276,0.35053158,-16.38,34.5,-37.739998
1553845531080,5.7797794,0.6656084,5.4230323,-0.29256904,0.015590503,0.2674539,-16.32,34.26,-38.04
1553845531100,5.0806512999999995,0.22745611,5.0926222999999995,-0.13252233,0.033916462,0.12390058,-16.32,35.52,-38.7
1553845531120,5.1021996,0.16281068,5.0854397,0.026302636,0.01986656,-0.06546765,-16.26,36.18,-37.86
1553845531141,5.7630196,0.33519846,5.300924299999999,0.16619077,0.05835107,-0.24445117,-16.26,35.88,-38.46
1553845531160,6.524399,0.9960183000000001,5.6768255,0.3134093,0.14142874,-0.3684568,-16.859999,35.82,-39.059998
1553845531180,7.582668300000001,2.1021732999999996,6.447782,0.36716545,0.21045650000000002,-0.41305,-16.92,36.0,-38.16
1553845531200,9.4142885,4.573065,7.946598,0.15030827,-0.003957185,-0.20230147,-16.56,35.64,-37.2
1553845531220,10.683254,7.814913000000001,8.492493,-0.13313319,-0.20798618,0.19537179999999998,-16.68,35.1,-37.92
1553845531240,8.707977,4.7813669999999995,6.7039695,-0.26874527,-0.12613024,0.35297504,-16.5,34.98,-38.64
1553845531260,6.5842557,1.5921928,5.7534423,-0.33899477,-0.023504874,0.32426438,-16.68,35.1,-38.64
1553845531280,5.514014700000001,0.6249057,5.384723999999999,-0.22293039,-0.0015137241,0.22469334,-16.02,36.12,-38.76
1553845531300,5.047130999999999,0.48843205,5.2650104,-0.051277254,-0.006400645999999999,0.06586838,-15.179998999999999,36.239998,-38.46
1553845531321,5.3727527,0.27773590000000004,5.276982,0.050737243,0.0027623328000000004,-0.090513125,-15.96,35.82,-38.399998
1553845531340,6.1987777,0.5794145,5.4565525,0.20772961,0.055296745,-0.24078599,-16.199999,35.7,-38.28
1553845531360,6.9050884,1.324034,5.810905,0.355559,0.14142874,-0.35807209999999995,-16.02,35.16,-38.7
1553845531381,7.965752,2.5546912999999996,6.691998,0.34211996,0.15120259,-0.35074174,-15.36,34.8,-36.78
1553845531400,9.766247,5.33205,7.982512,0.09533041,-0.10597168,-0.07463063,-15.059999,34.14,-33.66
1553845531420,10.199611,7.280989599999999,7.92505,-0.15390262,-0.18843849,0.24973881,-15.66,33.84,-33.3
1553845531440,7.929838,3.7518287000000003,6.325673999999999,-0.29440162,-0.057713325999999995,0.31937745,-15.059999,33.66,-33.6
1553845531460,6.347222299999999,1.3024855,5.6504884,-0.31272757,0.014979636999999999,0.28150383,-14.7,33.84,-32.7
1553845531480,5.4086666,0.5985687,5.288953,-0.1752829,0.03758165,0.16238509,-14.639999,34.62,-31.92
1553845531501,5.205153500000001,0.50040346,5.276982,-0.019512258,0.034527324,0.00905791,-14.82,35.04,-32.04
1553845531520,5.684008599999999,0.41420954,5.427821,0.095941275,0.05040982,-0.15098879,-14.94,35.1,-32.399998
1553845531540,6.402291,0.87630457,5.652883,0.23521855,0.099889904,-0.26644233,-14.759998999999999,35.28,-32.82
1553845531560,7.170853,1.812466,6.1173720000000005,0.32868093,0.17624806,-0.34341136,-14.639999,34.5,-32.52
1553845531580,8.571504,3.512401,7.2091613,0.24071634,0.10905289,-0.2615554,-14.16,34.02,-32.1
1553845531600,10.039194,6.299337,8.157294,-0.027453506000000003,-0.13040629,0.06525751,-13.98,33.78,-32.16
1553845531620,9.325700999999999,5.7917510000000005,7.283384,-0.22415212,-0.118188985,0.31082535,-14.88,34.2,-32.64
1553845531640,7.257047,2.5163830000000003,6.0527267,-0.31456017,-0.006400645999999999,0.31387967,-15.179998999999999,34.32,-33.059998
1553845531660,6.0407553,0.9241901,5.6457,-0.2595823,-0.0027354546,0.25401488,-14.94,34.079997999999996,-33.42
1553845531680,5.2578273,0.6344828,5.4158497,-0.10625512,-0.0076223765,0.1269549,-15.42,34.62,-33.3
1553845531701,5.2913475,0.51955765,5.3727527,0.014085331000000001,-0.019228818,-0.026372273999999998,-15.12,34.86,-33.12
1553845531720,5.9880815,0.54350036,5.5571117,0.13686925,0.013757907,-0.16564955,-14.04,35.04,-33.059998
1553845531740,6.641718400000001,1.2091087999999999,5.810905,0.26759443,0.065070584,-0.27194008,-14.16,34.739998,-33.36
1553845531760,7.3671837,2.1285102000000005,6.2777886,0.332957,0.116994135,-0.32203108,-15.0,34.86,-33.3
1553845531780,8.73192,3.991256,7.352817999999999,0.20650789,-0.003957185,-0.19374935,-14.58,34.92,-33.18
1553845531801,9.964972,6.8069234,8.028004,-0.075100996,-0.18355158,0.13062009,-14.4,34.38,-33.42
1553845531820,8.837268,5.087834,6.9098773,-0.25164106,-0.102306485,0.29860803,-14.759998999999999,34.26,-33.3
1553845531840,7.0152254,2.1500587,5.8396363,-0.32372314,0.014979636999999999,0.29311025,-14.88,33.84,-33.059998
1553845531860,5.786962,0.8786988000000001,5.4757066,-0.23026077,0.038803383999999996,0.21369778,-14.28,34.32,-32.82
1553845531880,5.269798799999999,0.76137936,5.3943010000000005,-0.063494556,0.032694727,0.07564222,-14.04,34.86,-32.34
1553845531901,5.5116205,0.43575802,5.377541000000001,0.03851994,0.027807808,-0.067300245,-14.16,34.68,-32.04
1553845531920,6.1772290000000005,0.66321415,5.61218,0.17962979999999998,0.060183667,-0.20718838,-14.4,35.04,-33.12
1553845531940,6.828471700000001,1.3647367,5.9449844,0.30180284,0.13104403,-0.30859202,-15.599998999999999,35.82,-35.76
1553845531960,7.738296000000001,2.4517374,6.608198599999999,0.3030246,0.15425691,-0.31714413,-16.38,35.7,-37.44
1553845531981,9.306546,4.886715000000001,7.7933645,0.08311310400000001,-0.047328617,-0.09417831,-16.56,34.98,-37.44
1553845532000,9.924269,6.9146657000000005,8.049552,-0.14779396,-0.15056485,0.19598268,-15.96,34.739998,-37.26
1553845532020,8.051947,3.7350687999999996,6.483696,-0.2840169,-0.054048132,0.30044064,-15.54,34.559998,-37.559998
1553845532041,6.5459476,1.3719195,5.770201999999999,-0.29806679999999997,-0.00029199357999999995,0.2692865,-16.14,34.92,-37.92
1553845532060,5.626546,0.7110996,5.463735,-0.16550905,-0.012509298500000002,0.16360681,-16.8,35.52,-38.219997
1553845532080,5.339233,0.71828246,5.4062724,-0.015236201999999999,-0.02900266,0.024940407,-16.74,36.18,-38.34
1553845532101,5.7223167,0.48843205,5.4661292999999995,0.07395013,-0.0009028588499999999,-0.10578476,-16.56,36.3,-39.12
1553845532120,6.3639827,0.9433443000000001,5.691191000000001,0.20589702,0.051631555,-0.22551434,-16.68,35.94,-39.12
1553845532140,6.9625509999999995,1.6831752,5.9904757,0.31096584,0.13043317,-0.317755,-16.44,36.0,-37.8
1553845532161,7.9920893,2.8779182,6.809317599999999,0.27370307,0.11516154,-0.2774379,-15.78,35.46,-38.04
1553845532180,9.620196,5.5044379999999995,7.915472500000001,0.02813523,-0.103528224,-0.0074354519999999995,-16.5,34.68,-38.76
1553845532200,9.562733999999999,6.191594599999999,7.5228114,-0.1875002,-0.1285737,0.2589018,-16.38,34.32,-37.92
1553845532221,7.666467999999999,3.0119977000000002,6.179623,-0.28523865,-0.016785355,0.29677546,-15.179998999999999,35.1,-36.0
1553845532240,6.311308400000001,1.2091087999999999,5.669643,-0.25469539999999996,0.0021514674,0.24668449,-14.759998999999999,35.16,-33.42
1553845532260,5.4541580000000005,0.81165916,5.4757066,-0.11541810000000001,-0.0015137241,0.13733962,-14.46,34.62,-32.46
1553845532281,5.31529,0.5985687,5.4230323,0.006754948,-0.0057897805,-0.0019376645000000001,-14.519999499999999,35.28,-33.3
1553845532300,5.8037220000000005,0.50040346,5.5116205,0.09533041,0.029029539,-0.13021936,-14.28,35.219997,-32.94
1553845532320,6.524399,1.1013663999999999,5.7821736,0.23888375,0.08461828,-0.25850108,-14.58,35.04,-32.04
1553845532340,7.158881699999999,1.908237,6.1556807000000004,0.30852237,0.13837442,-0.31836587,-15.179998999999999,34.92,-32.28
1553845532360,8.660092,3.859571,7.336058,0.1814624,0.044912033,-0.19985799999999998,-15.599998999999999,34.26,-33.239998
1553845532380,9.907509,6.5483418,8.083072,-0.08609657,-0.13162802,0.10862894,-15.9,33.42,-33.6
1553845532400,9.076694999999999,5.31529,7.118179,-0.23209336,-0.08092621,0.27234083,-15.24,33.48,-33.6
1553845532420,7.0798707,2.0997790000000003,5.9449844,-0.29867768,0.01070358,0.26989737,-15.0,34.5,-32.82
1553845532440,5.952167,0.9792584000000001,5.669643,-0.21376741,-0.011287568000000001,0.19537179999999998,-14.759998999999999,34.92,-32.64
1553845532461,5.33205,0.88588166,5.5355635,-0.07693359,-0.022894006,0.07808568,-14.099998999999999,34.86,-32.64
1553845532480,5.5044379999999995,0.5243462,5.437398,0.014085331000000001,-0.005178915300000001,-0.06424592,-14.759998999999999,34.98,-32.34
1553845532501,6.122161,0.6560313,5.6145744,0.119154155,0.033916462,-0.18092118,-15.24,34.8,-32.46
1553845532520,6.7494607,1.2833313,5.8659735,0.27309218,0.098057315,-0.30248338,-14.88,34.62,-31.32
1553845532540,7.625765299999999,2.3775147999999997,6.5411586999999995,0.2975268,0.105387695,-0.31653327,-14.82,34.26,-31.14
1553845532561,9.239507000000001,4.7550297,7.714353599999999,0.097163,-0.10169563,-0.10089783,-14.88,33.78,-31.5
1553845532580,9.732727,6.5579184999999995,7.8316726999999995,-0.14351789999999998,-0.16278215,0.18437624,-15.0,34.32,-32.04
1553845532600,8.372779,3.7183087,6.459753500000001,-0.25836056,-0.052826405,0.26073440000000003,-15.299999,34.62,-33.36
1553845532620,6.6584783,1.6233183,5.794144999999999,-0.27668652,-0.00334632,0.23996496,-14.88,34.2,-34.32
1553845532641,5.590631500000001,0.95531565,5.502043700000001,-0.15268087,-0.0070115114,0.14833519,-14.639999,34.38,-34.14
1553845532661,5.310501599999999,0.9026415999999999,5.4541580000000005,-0.037227347,-0.01861795,0.018831754,-14.82,35.1,-32.88
1553845532680,5.8037220000000005,0.63208854,5.5116205,0.048293784000000006,0.006427524,-0.0996761,-14.639999,35.16,-32.7
1553845532700,6.5028505,1.0510867,5.7007685,0.19184712,0.05835107,-0.21451877,-14.639999,35.28,-32.76
1553845532720,6.996071000000001,1.6424724999999998,5.97611,0.3207397,0.12921144,-0.3140898,-14.34,35.46,-32.88
1553845532740,7.944203999999999,2.7869357999999997,6.761432000000001,0.27859,0.10172250000000001,-0.28171396,-14.219999,34.739998,-33.12
1553845532760,9.488511,5.279376,7.8388557,0.04646119,-0.10841514,-0.033091795,-14.7,34.44,-33.239998
1553845532780,9.337671,5.7821736,7.336058,-0.18566760000000002,-0.10841514,0.23019113,-14.639999,34.2,-33.059998
1553845532800,7.778999000000001,2.9665065,6.201172,-0.26935613,-0.013120163999999998,0.27111912,-14.4,34.739998,-34.739998
1553845532820,6.3400397,1.4293821000000002,5.7582307,-0.25103018,0.027196944,0.24179757,-15.36,35.1,-37.02
1553845532840,5.36557,0.9984126,5.559506,-0.12702455,0.0125361765,0.13795047,-16.26,35.1,-37.32
1553845532861,5.3799353,0.69673395,5.446975,-0.032951295,0.0033731977000000003,0.008447044499999999,-16.32,35.94,-37.86
1553845532880,5.9808984,0.6201171999999999,5.640911599999999,0.09777387,0.01986656,-0.13083023,-16.38,36.239998,-38.579997999999996
1553845532901,6.615381200000001,1.1827718,5.818087599999999,0.24682498,0.07117924,-0.24567289999999997,-15.9,36.0,-38.219997
1553845532920,7.0870533,1.812466,6.134132,0.32990265,0.12004846,-0.3147007,-15.299999,35.579997999999996,-37.8
1553845532940,8.327288000000001,3.407053,7.146910000000001,0.22239038,0.024753481,-0.21574049,-15.12,35.16,-37.2
1553845532960,9.811738,6.3567995999999996,7.9873009999999995,-0.055553306,-0.16461475,0.09213558,-15.66,34.98,-38.1
1553845532980,9.050359,5.2650104,7.0942364,-0.21132395,-0.10658255,0.2552366,-16.44,34.98,-39.3
1553845533000,7.2163444000000005,2.3344178,5.9713216,-0.29440162,-0.003957185,0.26134524,-16.68,34.92,-38.7
1553845533020,6.0072355,1.1827718,5.6313343,-0.22415212,0.011925311000000001,0.20575652,-17.16,34.92,-38.52
1553845533041,5.377541000000001,1.010384,5.523592,-0.08243138,-0.00334632,0.08175088,-17.039998999999998,35.219997,-38.94
1553845533060,5.593026,0.66800267,5.502043700000001,-0.0024080307,-0.0021245892,-0.031259197999999995,-16.32,35.04,-38.46
1553845533080,6.237086,0.84278476,5.693585400000001,0.1270954,0.030862134,-0.15526484,-16.08,35.46,-38.16
1553845533100,6.7446722999999995,1.3910737,5.8276650000000005,0.25293365,0.09317039,-0.25911194,-16.5,35.52,-38.579997999999996
1553845533120,7.3408465,2.1716073,6.304126,0.30974412,0.13470922,-0.3049268,-16.44,35.219997,-38.64
1553845533140,8.813326,4.187587000000001,7.4414062,0.13931271,-0.024115737999999998,-0.13877149,-16.44,35.579997999999996,-38.76
1553845533161,9.828498,6.632141000000001,7.980117999999999,-0.10992031,-0.15056485,0.1428374,-16.32,35.28,-38.34
1553845533180,8.672064,4.652076,6.8476257,-0.25347364,-0.06565457,0.26989737,-16.199999,34.68,-38.64
1553845533201,6.775798,1.7310607,5.8444247,-0.29867768,0.032694727,0.2570692,-16.32,34.739998,-38.94
1553845533221,5.7821736,0.9505271000000001,5.595420400000001,-0.19055451,0.018033965,0.17460239,-16.02,35.64,-38.46
1553845533241,5.4134555,0.82602483,5.4924664000000005,-0.04822292,-0.011287568000000001,0.049375015999999994,-16.199999,35.7,-38.219997
1553845533260,5.724711,0.54350036,5.5307746,0.03729821,0.0021514674,-0.06913284,-16.44,35.28,-38.219997
1553845533280,6.366377,0.8739103000000001,5.7031627,0.16069299,0.03513819,-0.18214291,-16.74,35.579997999999996,-38.64
1553845533301,6.9098773,1.5921928,5.9665327,0.30180284,0.10355510000000001,-0.29148778,-17.039998999999998,36.0,-39.0
1553845533320,7.6305537,2.4852571,6.5459476,0.29019642,0.09866817,-0.28293568,-16.619999,35.82,-38.879996999999996
1553845533341,9.361614,5.111777,7.704776299999999,0.05623503,-0.11208033,-0.040422175,-16.32,35.1,-39.12
1553845533360,9.443019999999999,6.0503325,7.4868975,-0.15756781,-0.13101715,0.21003258,-16.8,35.1,-39.239998
1553845533381,7.762239,3.2490308,6.301731,-0.2717996,-0.016785355,0.2674539,-16.98,35.28,-38.52
1553845533400,6.3831367,1.4198049,5.7582307,-0.25713882,0.01986656,0.22652593,-16.08,35.16,-37.559998
1553845533420,5.5355635,0.9672870000000001,5.5307746,-0.12702455,0.016812233,0.13245268,-15.42,35.1,-36.899998
1553845533440,5.4302154,0.7709564999999999,5.4924664000000005,-0.01157101,0.004594928,0.0060035832999999995,-16.199999,35.1,-36.6
1553845533461,5.9856873,0.66800267,5.6600657,0.09349781,0.028418673,-0.12044552,-16.56,35.28,-36.12
1553845533480,6.5411586999999995,1.1564348,5.8013277,0.20834048,0.070568375,-0.21696223,-16.38,35.7,-37.2
1553845533500,7.036773700000001,1.7933118000000001,6.0862465,0.30546805,0.13043317,-0.29270953,-16.199999,35.88,-38.52
1553845533521,8.339259,3.4357843,7.0870533,0.20834048,0.036970787000000005,-0.20046887,-16.38,35.46,-38.879996999999996
1553845533540,9.610619999999999,5.9282246,7.881953,-0.020733988000000002,-0.13101715,0.057927128,-17.4,34.86,-39.059998
1553845533560,8.909097000000001,5.05192,7.046351,-0.2015501,-0.07848274,0.24607362,-16.8,34.86,-39.18
1553845533581,7.149304400000001,2.2961093999999997,6.0407553,-0.26935613,0.0027623328000000004,0.25279313,-15.24,34.2,-34.86
1553845533600,6.114978,1.2162915,5.7223167,-0.20643702,-0.0057897805,0.199037,-14.639999,33.78,-29.039998999999998
1553845533620,5.5164089999999995,1.1133378,5.604997,-0.07265753,-0.019839682,0.092746444,-14.28,34.079997999999996,-29.34
1553845533641,5.7031627,0.7733508000000001,5.576266,0.012863601,-0.003957185,-0.037367847,-14.04,34.559998,-31.199999
1553845533660,6.261029,0.9289786,5.727105,0.12037589,0.031473,-0.13877149,-14.4,34.68,-31.26
1553845533681,6.691998,1.4221992,5.818087599999999,0.24438153,0.08278568,-0.24445117,-14.4,34.079997999999996,-30.72
1553845533700,7.2378925999999995,2.0925963,6.2514515,0.3030246,0.12004846,-0.29698557,-14.04,34.02,-29.519999
1553845533720,8.564321000000001,3.9026680000000002,7.2953553,0.16130385,-0.0076223765,-0.1558757,-13.799999,34.32,-29.88
1553845533740,9.677659,6.407079,7.953780999999999,-0.079377055,-0.13834754,0.11046154,-13.799999,34.02,-30.06
1553845533760,8.554744,4.4988421999999995,6.797346000000001,-0.24431066,-0.054659000000000006,0.2552366,-14.4,33.42,-29.4
1553845533780,6.835654700000001,1.9321798,5.873156,-0.2907364,0.029029539,0.2503497,-14.34,33.54,-29.039998999999998
1553845533801,5.863579,1.063058,5.619363,-0.18994367,0.023531752000000003,0.17948931,-14.04,33.96,-28.92
1553845533820,5.427821,0.9888355,5.585843,-0.053109847,-0.00334632,0.060981455999999996,-13.44,34.079997999999996,-29.099998
1553845533840,5.724711,0.65363705,5.626546,0.02324831,0.0027623328000000004,-0.054472078,-13.62,34.14,-28.619999
1553845533861,6.368771,0.9912298,5.8156934,0.15030827,0.03635992,-0.16626042,-13.86,33.899998,-28.74
1553845533880,6.792557700000001,1.5562786,5.9713216,0.28286603,0.09622472,-0.26949665,-12.96,34.14,-28.8
1553845533901,7.6544967,2.5427197999999995,6.596227000000001,0.26881614,0.082174815,-0.25911194,-12.719999000000001,34.68,-28.38
1553845533920,9.287392,5.047130999999999,7.728719,0.05623503,-0.1126912,-0.036756985,-13.44,34.2,-28.859999
1553845533941,9.483723,6.062304,7.57788,-0.16550905,-0.1267411,0.19842613,-14.04,34.32,-30.42
1553845533960,7.735902,3.110163,6.2706056,-0.27118877,-0.0106767025,0.25279313,-14.28,34.559998,-30.66
1553845533980,6.387925,1.4126221,5.7965393,-0.25041932,0.01070358,0.22224988,-14.28,33.66,-30.06
1553845534000,5.590631500000001,1.0846065,5.595420400000001,-0.13130060000000002,-0.010065838,0.12756577,-13.92,33.36,-29.64
1553845534020,5.537957700000001,0.83081335,5.518803599999999,-0.027453506000000003,-0.014341895,0.00905791,-13.08,33.899998,-29.34
1553845534041,6.134132,0.73743665,5.686403,0.062343687,0.014979636999999999,-0.102119565,-12.66,33.84,-28.98
1553845534060,6.610593,1.1947431999999998,5.8396363,0.20101011,0.063237995,-0.21390789999999998,-13.139999,34.14,-29.519999
1553845534080,7.0319853000000005,1.8268316999999998,6.0766697,0.29019642,0.112718076,-0.28049222,-14.099998999999999,34.92,-31.26
1553845534101,8.341654,3.4980354,7.0966306,0.18024068,0.02231002,-0.17847772,-14.82,34.559998,-31.199999
1553845534120,9.620196,5.8252707,7.893924,-0.042114273,-0.13468234,0.057927128,-14.639999,34.079997999999996,-30.72
1553845534141,8.882759,4.9417834,6.984099400000001,-0.21254566,-0.03694391,0.23935410000000001,-13.799999,33.54,-30.84
1553845534161,7.158881699999999,2.22907,6.0000525,-0.27485394,0.04430117,0.24240842,-13.5,33.6,-30.84
1553845534181,6.091035,1.2426286,5.770201999999999,-0.1978849,0.018033965,0.19109575,-14.16,34.38,-30.24
1553845534201,5.461341,1.0774237,5.595420400000001,-0.062272824000000004,-0.01617449,0.080529146,-14.04,34.8,-29.039998999999998
1553845534220,5.686403,0.72785956,5.521198,0.009809273,-0.0057897805,-0.025150542999999997,-13.5,34.5,-28.74
1553845534241,6.275394400000001,0.84278476,5.7390766,0.11732156,0.030862134,-0.13388455,-13.08,34.079997999999996,-29.22
1553845534260,6.7398834,1.3982565,5.9282246,0.27370307,0.09194866,-0.25544673,-12.78,34.68,-29.039998999999998
1553845534281,7.393521000000001,2.3655436,6.533976,0.28530952,0.10905289,-0.26644233,-13.32,34.62,-29.039998999999998
1553845534301,8.58587,3.8906965,7.352817999999999,0.13014974,-0.03327872,-0.11861292,-13.5,34.559998,-29.82
1553845534320,9.538791,6.158075,7.747873299999999,-0.11663983,-0.11146947,0.14955692,-13.019999499999999,33.96,-29.279999
1553845534341,7.960963700000001,3.397476,6.3951080000000005,-0.24858673,0.008870985,0.24546276,-12.66,33.18,-29.88
1553845534360,6.6800265,1.6975409,5.923435700000001,-0.24736498,0.031473,0.23080198,-12.66,33.899998,-29.279999
1553845534381,5.595420400000001,1.1468576000000001,5.684008599999999,-0.1276354,-0.005178915300000001,0.13978307,-13.32,34.38,-29.16
1553845534400,5.4230323,1.0079896000000002,5.5738715999999995,-0.040281676,-0.019228818,0.037768576,-13.62,34.02,-28.92
1553845534421,5.9808984,0.70631105,5.6600657,0.05134811,0.0070383893000000005,-0.08379361,-13.5,34.2,-28.619999
1553845534440,6.4932733,1.0774237,5.8156934,0.17779721,0.04002511,-0.1858081,-13.679998999999999,34.559998,-29.099998
1553845534461,6.9266369999999995,1.6759924,6.0311785,0.2993594,0.10172250000000001,-0.2823248,-13.5,34.62,-28.8
1553845534480,7.798153,2.7342618,6.725517699999999,0.25965318,0.08156395,-0.2511707,-13.08,34.44,-28.68
1553845534500,9.385557,5.2578273,7.781393,0.026913501,-0.09253265,-0.015987566,-13.259998999999999,33.719997,-28.98
1553845534521,9.196409,5.502043700000001,7.283384,-0.19055451,-0.077261016,0.22163899999999997,-13.62,33.48,-29.4
1553845534540,7.625765299999999,2.8946784,6.203566,-0.26385838,0.020477425,0.2503497,-14.219999,33.42,-29.46
1553845534560,6.273,1.3623424,5.830058999999999,-0.22476299,0.025364347000000002,0.21308690000000002,-14.099998999999999,33.719997,-29.46
1553845534581,5.4445809999999994,1.2138973,5.705557,-0.08792917,-0.01617449,0.10923981,-13.32,34.44,-29.22
1553845534600,5.487678,0.7039168,5.5642949999999995,-0.01157101,-0.013731028999999999,-0.009878913000000001,-13.259998999999999,34.8,-29.34
1553845534621,6.1413150000000005,0.7398309000000001,5.7390766,0.094719544,0.0125361765,-0.121056385,-13.2,34.44,-28.92
1553845534640,6.632141000000001,1.2569941999999998,5.856396,0.24377066,0.06690318,-0.24139683,-13.08,33.54,-28.199999
1553845534661,7.099025,1.8771113999999998,6.1652575,0.3134093,0.11516154,-0.3018725,-13.62,33.54,-28.68
1553845534680,8.387145,3.6009892999999997,7.2019787,0.19673404,0.029029539,-0.20352319,-13.44,33.899998,-29.4
1553845534701,9.651321000000001,6.179623,7.932232400000001,-0.06715974,-0.11879985,0.07014443,-12.96,33.899998,-29.82
1553845534720,8.61939,4.37434,6.857203,-0.23636942,-0.03266785,0.23568892,-13.98,33.78,-30.179997999999998
1553845534740,6.9553685,1.9944308999999998,5.9737160000000005,-0.27546477,0.030862134,0.23080198,-14.58,33.96,-29.64
1553845534760,5.8611846,1.1468576000000001,5.784568,-0.17283943,-0.0076223765,0.16116336,-13.62,34.079997999999996,-29.099998
1553845534781,5.403878,1.0965778999999998,5.6385174000000005,-0.059829365,-0.033889584,0.059759725,-13.32,34.079997999999996,-28.74
1553845534800,5.640911599999999,0.65363705,5.5810547,0.0049223523,-0.012509298500000002,-0.045309097,-13.5,34.5,-28.859999
1553845534820,6.387925,0.9816527,5.7965393,0.13809097,0.01986656,-0.16442783,-13.44,35.219997,-29.16
1553845534840,6.725517699999999,1.4317763000000001,5.935407,0.26881614,0.065070584,-0.26094452,-13.92,35.34,-28.5
1553845534860,7.544359700000001,2.473286,6.567496,0.28469864,0.08034222,-0.27438357,-13.559999,35.34,-28.56
1553845534881,9.098245,4.7095385,7.599428,0.09105435,-0.083369665,-0.086237065,-13.559999,34.559998,-29.4
1553845534900,9.560339,6.162863300000001,7.6640735,-0.15084828,-0.12246504400000001,0.17582412,-14.219999,33.42,-29.58
1553845534921,7.9178667,3.3328303999999997,6.349616999999999,-0.26202574,-0.008844106,0.24729535,-14.04,33.719997,-30.0
1553845534940,6.567496,1.5778271000000001,5.830058999999999,-0.24919759,0.013147042,0.22163899999999997,-13.559999,33.84,-30.119999
1553845534961,5.6241517,1.1348863,5.684008599999999,-0.13007887,-0.017396221,0.13428527,-13.139999,33.899998,-29.099998
1553845534980,5.437398,0.9601042,5.5523233,-0.042725135,-0.023504874,0.023107812000000002,-13.5,34.44,-28.74
1553845535000,6.0000525,0.70631105,5.6768255,0.05012638,0.0143687725,-0.094789185,-13.74,34.68,-29.58
1553845535020,6.5148215,1.1253091,5.810905,0.18024068,0.049798958,-0.19619282,-14.04,35.34,-31.56
1553845535040,6.912271499999999,1.733455,6.026389599999999,0.30241373,0.10905289,-0.2945421,-15.059999,35.64,-33.12
1553845535061,7.889135400000001,2.9665065,6.857203,0.24438153,0.060794532000000005,-0.24078599,-15.54,34.68,-33.12
1553845535080,9.320911,5.238673,7.80773,0.036687344,-0.10413908,-0.02453968,-14.639999,34.38,-32.76
1553845535101,9.170073,5.5451403,7.328875,-0.18688932,-0.094976105,0.21614124,-14.46,34.02,-33.3
1553845535120,7.6377369999999996,2.9521408,6.220326,-0.26324749999999997,-0.0027354546,0.24668449,-15.0,33.6,-33.66
1553845535141,6.2706056,1.3360053,5.7821736,-0.22231951,0.006427524,0.20575652,-14.639999,33.96,-33.18
1553845535160,5.525986,1.1540405,5.6552773,-0.09159436,-0.025948334,0.10313116,-14.219999,34.5,-33.0
1553845535181,5.5978145999999995,0.7901106999999999,5.5882373,-0.010349279,-0.021061412999999998,-0.014765833999999999,-14.16,34.62,-32.82
1553845535200,6.1652575,0.8332075999999999,5.7390766,0.08250224,0.016201368,-0.11006081,-14.519999499999999,34.559998,-32.88
1553845535220,6.6129869999999995,1.2881198,5.8420305,0.23399682,0.06995751,-0.23284473,-14.58,35.16,-33.6
1553845535240,7.0607166,1.9178141,6.1101894,0.30607890000000004,0.11638327,-0.29270953,-14.16,35.399998,-33.54
1553845535260,8.408693,3.7326744,7.233103999999999,0.17718635,-0.00029199357999999995,-0.17359081,-14.04,34.92,-33.54
1553845535281,9.627379,6.2921543,7.944203999999999,-0.08059879,-0.13407148,0.102520294,-14.4,34.2,-34.14
1553845535300,8.73192,4.556305,6.857203,-0.21865433,-0.048550345,0.23507805,-15.179998999999999,33.96,-34.62
1553845535321,6.9290313999999995,2.0231621,5.925830400000001,-0.26263663,0.034527324,0.23202373,-15.599998999999999,34.5,-34.44
1553845535340,5.846819,1.1971374,5.7127395,-0.17772634,0.0070383893000000005,0.17154807,-14.94,34.8,-34.02
1553845535361,5.4182440000000005,1.0941836,5.62894,-0.06593802,-0.024726603,0.061592318,-14.58,34.739998,-33.719997
1553845535380,5.7223167,0.72546524,5.593026,3.5430185000000004e-05,-0.0057897805,-0.03858958,-14.7,35.34,-33.66
1553845535400,6.411868,1.0415094999999999,5.794144999999999,0.1429779,0.036970787000000005,-0.1613735,-14.82,35.94,-32.94
1553845535420,6.775798,1.5419129999999999,5.916253,0.27309218,0.08828347,-0.2670532,-14.46,35.219997,-32.7
1553845535440,7.393521000000001,2.3296294,6.4094739999999994,0.28775296,0.10477682,-0.27682704,-14.58,34.44,-33.84
1553845535460,8.863605499999998,4.494054,7.4868975,0.10693685,-0.043663427000000005,-0.10456303,-14.82,34.559998,-33.84
1553845535481,9.371192,6.057515,7.642525,-0.14229618,-0.09375438,0.17032634,-14.639999,34.26,-34.32
1553845535500,8.085466,3.675212,6.4980617,-0.24308895,-0.00334632,0.23752151,-15.48,34.62,-35.399998
1553845535520,6.754249000000001,1.8483802,5.9042816,-0.24919759,0.03635992,0.22041728,-15.719999,34.92,-35.1
1553845535540,5.669643,1.1923488000000002,5.7199225,-0.13679838,0.014979636999999999,0.14589173,-15.12,34.5,-34.32
1553845535560,5.4493694,0.91700727,5.6313343,-0.038449082999999995,-0.0106767025,0.02432954,-14.4,35.16,-33.12
1553845535580,5.935407,0.749408,5.7390766,0.057456765,0.0143687725,-0.08440447599999999,-14.4,34.92,-32.76
1553845535600,6.5028505,1.211503,5.846819,0.1814624,0.044912033,-0.18397550000000001,-14.4,34.5,-33.54
1553845535621,6.9505796,1.786129,6.0311785,0.2975268,0.10233337,-0.27682704,-14.58,34.86,-34.079997999999996
1553845535640,7.802942,2.8611584,6.751855,0.24804673,0.07117924,-0.23712079,-14.7,34.5,-34.32
1553845535660,9.380769,5.487678,7.8053360000000005,0.002478891,-0.09986303,0.014555697,-14.099998999999999,34.079997999999996,-34.02
1553845535680,9.251478,5.7175283,7.448589,-0.17833722,-0.07665015,0.20697826,-14.16,34.559998,-34.2
1553845535700,7.290567,2.5522968999999995,6.062304,-0.25897142,0.019255694,0.23996496,-14.58,34.62,-34.98
1553845535720,6.203566,1.4820561,5.8611846,-0.21376741,0.010092715,0.20392393,-14.759998999999999,35.04,-34.26
1553845535740,5.439792,1.2833313,5.7462597,-0.08609657,-0.02778093,0.10007682400000001,-14.7,35.34,-34.02
1553845535760,5.5355635,0.85236186,5.6169686,-0.026231775,-0.017396221,0.00050579646,-14.28,35.16,-33.54
1553845535780,6.244269,0.94573855,5.8276650000000005,0.095941275,0.0143687725,-0.11311514,-14.16,35.219997,-32.94
1553845535801,6.708758,1.4796618000000001,5.9282246,0.23155336,0.05957280000000001,-0.22001655,-14.519999499999999,34.98,-33.78
1553845535820,7.118179,2.0854135,6.1652575,0.28530952,0.09683557599999999,-0.26766405,-14.759998999999999,34.5,-33.719997
1553845535840,8.186026,3.4836697999999995,7.0439563,0.17413202,0.030862134,-0.17297994,-14.519999499999999,34.32,-32.64
1553845535860,9.428655000000001,5.880339,7.783787299999999,-0.05860763,-0.09558698,0.0707553,-13.98,33.96,-30.72
1553845535880,8.616995,4.5060253,6.8476257,-0.20888048,-0.044274293,0.2149195,-13.32,34.2,-30.3
1553845535901,6.984099400000001,2.1045675,5.9904757,-0.2559171,0.025975212,0.22835854,-13.62,34.98,-32.52
1553845535920,6.016813,1.3838909,5.8276650000000005,-0.17589375,0.0033731977000000003,0.17826758,-13.98,34.62,-33.84
1553845535941,5.487678,1.1492518999999999,5.6792197,-0.07204667,-0.021061412999999998,0.06953357,-13.74,34.44,-33.66
1553845535960,5.777385,0.7302538000000001,5.6768255,-0.0030188959999999996,-0.0057897805,-0.026372273999999998,-14.16,34.92,-33.0
1553845535981,6.426234,1.0654523,5.8683677,0.12648453,0.020477425,-0.13327369,-14.34,35.52,-32.64
1553845536000,6.751855,1.5203645000000001,5.95935,0.24621412,0.055296745,-0.22612521,-14.16,35.1,-33.48
1553845536020,7.3576064,2.3631492,6.3831367,0.26820526,0.08522914,-0.25300327,-14.58,34.559998,-34.44
1553845536040,8.61939,4.278569,7.319298299999999,0.114878096,-0.019839682,-0.11433687,-15.0,34.559998,-35.7
1553845536060,9.27542,5.911464700000001,7.695199000000001,-0.117250696,-0.096197836,0.12878749,-15.599998999999999,35.04,-38.16
1553845536081,8.028004,3.4956412000000006,6.442993599999999,-0.23514768,-0.011287568000000001,0.22713679,-15.719999,35.219997,-39.239998
1553845536100,6.7829804000000005,1.9273912,5.954561,-0.23636942,0.022920884,0.21797383,-15.78,35.28,-38.76
1553845536121,5.7390766,1.3934678999999999,5.8540019999999995,-0.13435492,-0.013120163999999998,0.1501678,-16.199999,35.219997,-38.28
1553845536140,5.5044379999999995,1.0391153,5.657671499999999,-0.051888116,-0.02778093,0.049375015999999994,-15.719999,35.1,-38.579997999999996
1553845536161,5.97611,0.83081335,5.7678080000000005,0.039741673,-0.0027354546,-0.067300245,-15.719999,35.76,-38.94
1553845536180,6.495667500000001,1.2282629999999999,5.870762,0.15947126,0.03513819,-0.16748215,-15.78,36.059998,-39.059998
1553845536201,6.842837299999999,1.7262721,6.002447,0.2620966,0.089505196,-0.2615554,-15.599998999999999,36.18,-39.42
1553845536220,7.80773,2.8611584,6.708758,0.20223182,0.0754553,-0.22612521,-15.66,36.54,-39.239998
1553845536240,9.220352,5.1596622000000005,7.695199000000001,-0.01401447,-0.06321111,-0.01904189,-16.08,35.7,-39.059998
1553845536260,9.028810499999999,5.150085,7.206767,-0.18139154,-0.028391793,0.16421768,-16.74,35.28,-39.54
1553845536280,7.520417,2.6097596000000003,6.1173720000000005,-0.25713882,0.06262712,0.19720441,-16.14,35.04,-39.3
1553845536300,6.25624,1.6448668000000002,6.067092400000001,-0.21804346,0.038803383999999996,0.17032634,-15.42,35.219997,-38.219997
1553845536320,5.5307746,1.4365649,5.956956,-0.14351789999999998,-0.00029199357999999995,0.09763337,-15.36,35.82,-37.98
1553845536341,5.672037,0.8236305,5.774991,-0.05005552,-0.023504874,-0.026983137999999997,-16.44,35.94,-38.94
1553845536360,6.2275085,0.86912173,5.940196,0.06784147,-0.03327872,-0.11067168,-16.38,35.94,-39.239998
1553845536381,6.5483418,1.2306572,6.035966999999999,0.22116865,-0.024115737999999998,-0.22184916,-16.619999,36.719997,-39.3
1553845536400,7.048744999999999,1.8938714,6.2921543,0.29202902,-0.003957185,-0.27621615,-16.14,36.42,-38.04
1553845536420,8.554744,3.8260512,7.197190299999999,0.15397346,-0.103528224,-0.15159966,-15.66,35.82,-36.96
1553845536440,9.557945,5.930619,7.5228114,-0.073879264,-0.1585061,0.10190942,-16.199999,35.76,-37.38
1553845536460,8.679246000000001,4.2402606,6.366377,-0.16428733,0.00031887164,0.22408247,-16.14,35.7,-37.92
1553845536480,6.6800265,2.545114,6.028784,-0.20704788,0.08522914,0.22286075,-16.32,35.82,-39.0
1553845536500,5.521198,1.4533247999999999,5.8420305,-0.16428733,0.011314446,0.15933077,-15.54,35.82,-38.52
1553845536520,5.4924664000000005,1.0702409,5.813299,-0.061661962,-0.06015679,0.081140004,-15.599998999999999,35.579997999999996,-38.46
1553845536541,5.9713216,0.8475733,5.9186473,0.06539801,-0.103528224,-0.0025485298,-16.199999,35.94,-39.059998
1553845536560,6.3951080000000005,1.2569941999999998,6.055121,0.18634933,-0.083369665,-0.10578476,-16.02,36.84,-39.239998
1553845536581,6.5387645,1.6161355,6.002447,0.24865758,-0.011287568000000001,-0.22612521,-16.14,36.6,-39.059998
1553845536600,7.415069,2.6217308,6.507639,0.17413202,0.00826012,-0.22612521,-16.38,35.16,-37.98
1553845536620,9.119793,4.573065,7.3743663,-0.014625336000000001,-0.13468234,-0.04836342,-16.68,34.8,-38.04
1553845536640,9.368797,5.0758624,6.857203,-0.18627848,-0.12063245,0.14039394,-16.44,35.7,-38.94
1553845536660,7.7239304,2.8108785,6.0072355,-0.29501247,0.030251267999999998,0.15138951,-16.56,36.3,-39.48
1553845536681,6.0958239999999995,2.0662591,6.119766,-0.3212797,0.019255694,0.10862894,-17.039998999999998,36.12,-38.879996999999996
1553845536701,5.595420400000001,1.4581133,5.856396,-0.2436998,-0.06015679,0.042044632,-16.8,35.64,-38.399998
1553845536720,5.870762,1.0870007,5.741471,-0.09709214,-0.11208033,-0.014154969,-16.38,35.76,-38.82
1553845536741,6.608198599999999,1.0151725,5.786962,0.08800002,-0.07054149,-0.085015334,-16.44,36.42,-39.12
1553845536760,7.0319853000000005,1.4341706,5.794144999999999,0.25110105,0.038803383999999996,-0.17053647,-16.38,36.48,-38.16
1553845536782,7.4102807,2.0327394,6.0000525,0.29874852,0.13043317,-0.2016906,-16.68,36.42,-37.5
