TimeStamp,Ax,Ay,Az,Gx,Gy,Gz,Mx,My,Mz
1553843263893,2.743839,4.187587000000001,8.344047999999999,-0.29867768,-0.5977182,0.08236174,5.58,24.66,-45.84
1553843263914,2.667222,3.4740927000000004,8.128563,-0.20704788,-0.5842792,0.20575652,5.1,25.439999,-45.239998
1553843263932,2.7103189999999997,3.3663504,7.755056,-0.05860763,-0.49448195,0.28150383,5.3399997,25.5,-45.719997
1553843263952,3.3208592000000006,3.4166303,7.759844999999999,0.050737243,-0.41140429999999995,0.34930983,4.7999997,25.68,-45.719997
1553843263972,3.9170337,3.2490308,7.783787299999999,0.05928936,-0.24830328,0.5337911,4.3199997,25.26,-45.899998
1553843263992,3.9673133000000003,3.7159145,8.482916000000001,0.034854747,-0.1847733,0.6376383000000001,4.2,25.32,-45.78
1553843264013,4.6712303,4.6951730000000005,9.174861,0.23277509,-0.5690075,0.56250185,3.78,25.26,-45.12
1553843264033,4.9106574,5.707951,8.887547999999999,0.46184954,-0.90070736,0.52707165,4.02,25.019999,-45.84
1553843264052,4.642499,5.195576,8.628966,0.48750588,-0.9648482,0.5001936,4.08,24.779999,-46.379996999999996
1553843264073,4.3958883,5.087834,8.035186,0.387324,-0.66002643,0.4452157,3.6,23.699999,-46.559998
1553843264092,4.8053099999999995,4.8316464,8.607418,0.20039923,-0.08825659,0.5692213,3.24,23.34,-46.5
1553843264112,4.824464,4.2618093,8.217151,0.04768292,0.0143687725,0.6742902,3.0,23.16,-46.379996999999996
1553843264132,4.436591,3.7877428999999996,8.111803,-0.09037263,0.008870985,0.80684793,3.3,22.92,-46.379996999999996
1553843264152,4.192375,3.6345089999999995,7.8292785,-0.11114205,-0.17011254,0.8123457,3.54,23.279999,-45.96
1553843264172,3.5507095,3.3735332000000002,7.649708,-0.09220523,-0.116356395,0.7084986,3.54,23.16,-46.079997999999996
1553843264192,3.5938065000000003,3.7877428999999996,7.4366174,-0.09587041,0.029029539,0.65168816,3.84,22.32,-46.44
1553843264212,4.1756153,4.010410299999999,7.9873009999999995,-0.1135855,0.16830681,0.7280463,3.84,22.199999,-46.44
1553843264233,4.292935,3.9361877,8.303345,-0.11541810000000001,0.19946094,0.7451505,3.84,22.92,-46.68
1553843264252,4.2402606,3.8787252999999997,8.140533999999999,-0.037227347,0.27642995,0.6944486999999999,4.02,23.22,-47.16
1553843264272,4.278569,4.075055600000001,8.672064,0.05012638,0.2703213,0.5924341999999999,4.74,22.859999,-46.8
1553843264292,3.7446458,3.6608462,8.473338,0.08555657,0.47862637,0.37252274,5.3399997,22.619999,-46.86
1553843264313,3.7518287000000003,3.2777622,8.672064,0.12281934,0.5739213000000001,0.02555127,5.8199997,22.5,-47.16
1553843264333,3.2011453999999997,2.264984,8.466156,0.12770627,0.620958,-0.16809301,6.8399997,22.5,-46.86
1553843264353,2.8180614,2.0925963,7.8364615,-0.036616486000000004,0.25199535,-0.39350229999999997,7.5,22.98,-46.86
1553843264373,2.6863763,2.1117504,7.6066113,-0.18872193,0.28925812,-0.4649735,7.5,23.1,-46.62
1553843264393,3.1149516,2.169213,8.447001,-0.38236620000000004,0.6227905,-0.5388881999999999,7.62,22.439999,-46.68
1553843264413,3.5483153,3.2681851,9.373586,-0.38664228,0.55131936,-0.6604504,8.34,22.38,-46.98
1553843264433,3.8547822999999997,3.9577362999999997,9.337671,-0.29562336,0.26482353,-0.6421245,8.88,23.34,-46.32
1553843264453,4.3791285,4.616162,9.071907000000001,-0.10197906,-0.013120163999999998,-0.44481498,8.94,23.46,-45.84
1553843264472,4.1756153,3.9792848,8.945011000000001,-0.08365311,-0.050382942,-0.14610186,9.36,23.64,-44.34
1553843264492,4.1013927,3.7398572,8.645726,-0.075100996,-0.09008919,0.0035601228000000005,9.0,24.06,-43.379996999999996
1553843264512,3.7733772000000005,3.328042,8.439817999999999,-0.04761206,-0.04183083,0.053651072,8.88,24.119999,-43.079997999999996
1553843264532,3.4740927000000004,3.0263633999999997,8.291373,-0.04883379,0.055296745,0.056705399999999996,8.76,24.72,-43.68
1553843264553,3.1173458,2.9689007000000003,8.358414,-0.08792917,0.12860057,-0.0019376645000000001,8.46,25.08,-45.239998
1553843264572,3.301705,3.2705792999999996,8.578687,-0.098313875,0.069346644,-0.026372273999999998,8.34,25.26,-45.48
1553843264592,3.2969165,3.2226939999999997,8.557138,-0.108698584,0.07606616,-0.008657183,8.04,25.14,-45.239998
1553843264612,3.4621215,3.4477558,8.942616000000001,-0.098313875,0.06995751,-0.008046316999999999,8.22,24.66,-45.059998
1553843264632,3.5554981,3.3112822,8.73192,-0.07693359,0.054075014000000005,0.0029492574,8.4,24.66,-45.66
1553843264652,3.3998702000000005,2.7079248,8.504464,-0.06410542,0.063237995,0.01944262,8.519999499999999,24.539998999999998,-45.539997
1553843264672,3.2681851,2.5379312,8.55235,-0.07876619,0.098057315,0.00050579646,8.7,24.779999,-45.42
1553843264692,3.3831102999999993,3.0287576,8.707977,-0.07265753,0.07484443,-0.037978712000000005,8.94,25.439999,-45.059998
1553843264712,3.3136763999999994,3.1795970000000002,8.786988000000001,-0.06593802,0.030862134,-0.05386121,8.639999000000001,24.84,-44.34
1553843264733,3.0119977000000002,3.5770466,8.9976845,-0.035394754,0.07484443,-0.0062137214,8.82,24.42,-44.46
1553843264752,2.9641123,3.4214187000000007,8.976136,-0.0024080307,0.077898756,0.029216462999999998,9.0,25.019999,-44.879996999999996
1553843264773,3.2514252999999997,3.0239692000000002,8.576292,-0.01279274,-0.043052558,0.016388291,8.76,25.14,-44.94
1553843264792,3.15326,2.7917243999999997,8.736709,-0.020733988000000002,-0.047939483,0.01944262,9.059999000000001,25.439999,-44.46
1553843264813,3.1628369999999997,2.978478,8.4230585,-0.039059944,0.04674463,0.0060035832999999995,9.3,25.74,-44.46
1553843264832,3.2394537999999997,3.1412885,8.657698,-0.025010044,0.043079436,0.005392718,9.3,25.68,-44.82
1553843264852,3.2179053,3.1508656000000004,8.516436,-0.029286101000000002,0.05835107,0.013944831999999999,9.179999,25.859999,-44.46
1553843264872,3.2226939999999997,3.6081722000000003,8.727132000000001,0.021415714,-0.009454971999999999,0.037768576,9.179999,25.74,-44.28
1553843264892,3.0287576,3.1867797,8.530801,0.002478891,0.005816659,0.0725879,8.76,25.92,-44.1
1553843264912,3.2107224,3.0359404,8.796566,0.0073658134999999994,-0.03572218,0.045709822000000004,9.0,26.099998,-43.98
1553843264933,3.1412885,3.5435266000000003,8.628966,0.014085331000000001,-0.07787188,0.03227079,10.019999499999999,25.38,-44.64
1553843264953,2.9138324,3.562681,8.346442,0.007976678000000001,0.0027623328000000004,0.037768576,9.179999,25.439999,-45.3
1553843264973,2.8491871,2.9210152999999996,8.435030000000001,-0.036616486000000004,0.18296757,0.042044632,8.04,25.92,-44.879996999999996
1553843264992,3.0527002999999997,2.3128695,8.461367999999998,-0.11847243,0.15120259,0.0066144490000000005,8.22,24.779999,-44.34
1553843265012,3.4238129,2.2769554,8.40151,-0.18078068,0.062016264,-0.06913284,8.88,24.42,-44.28
1553843265032,3.6991546000000004,1.8052831999999999,7.881953,-0.29317990000000005,0.14265047,-0.22001655,9.0,25.08,-44.219997
1553843265053,2.1811842999999995,4.276175,9.490905999999999,-0.32494488,0.38027707,-0.2982073,8.82,25.26,-44.46
1553843265072,2.466103,3.3926873,8.995291,-0.31517106,0.4829024,-0.37090027,8.82,26.099998,-44.219997
1553843265093,2.5020173,2.8874955,9.100638,-0.2858495,0.12676798,-0.063024186,9.0,26.76,-43.92
1553843265113,2.7653873,2.3607549999999997,8.856422,-0.29928854,-0.07054149,-0.07524149,9.48,27.18,-43.62
1553843265132,2.648068,2.545114,8.672064,-0.36404026,-0.013731028999999999,-0.05263948,9.719999000000001,27.06,-43.26
1553843265152,2.5858168999999998,1.9896424,8.983319,-0.36648372,0.24649756,-0.027594006,9.54,26.939999,-43.44
1553843265173,2.8156672,1.3407938,8.940222,-0.34693605,0.3918835,-0.057526402000000004,9.48,27.06,-43.86
1553843265192,2.2075214,2.5211713,9.0838785,-0.42146158,0.22511728,-0.05508294,9.42,27.84,-43.5
1553843265212,0.1340794,3.1341057,10.805361999999999,-0.9119864,0.31186014,0.16849375,10.08,28.38,-42.42
1553843265233,3.3855044999999997,3.7254915,10.544386,-0.41046602,0.098057315,-0.015987566,10.74,28.38,-42.12
1553843265252,2.2793495999999998,2.1237217999999998,9.481328,-0.28951472,-0.17377773,0.12390058,10.38,29.099998,-42.3
1553843265273,2.832427,1.9800651999999999,9.577099,-0.20704788,-0.11879985,0.13978307,10.559999000000001,29.22,-42.42
1553843265292,3.1819912999999995,2.3655436,10.012857,-0.020123122,-0.16705821,0.13672875,10.98,29.34,-41.94
1553843265312,3.5770466,3.0287576,9.443019999999999,0.11976501,-0.20493186,0.10435289,10.32,29.64,-41.7
1553843265333,3.8954852,4.2977233,8.980925,0.11793242,-0.25380108,0.0725879,9.9,29.46,-42.3
1553843265353,2.4421604,3.6488747999999998,8.681641,0.07944792,-0.34909603,0.21247604,10.139999000000001,30.48,-42.36
1553843265373,0.9792584000000001,2.4637089,8.523619,0.06417628,-0.25868800000000003,0.48003500000000004,9.96,30.179997999999998,-42.059998
1553843265393,2.1811842999999995,2.8779182,9.079089999999999,0.04157427,-0.12551937,0.6370274,10.38,29.279999,-41.76
1553843265412,3.7518287000000003,2.8276386000000002,8.681641,-0.045779463,-0.07542842,0.6296970000000001,10.679999,29.64,-41.219997
1553843265432,4.63771,2.2937152000000003,8.7822,-0.15817867,-0.18966022,0.46048734,10.38,29.46,-41.64
1553843265453,4.9202347,1.9465453999999998,9.229928999999998,-0.22537383,-0.26846182,0.12817663,10.8,29.4,-42.059998
1553843265473,3.529161,2.4852571,9.57231,-0.16062213,-0.49997976,0.031659923,11.46,29.099998,-40.92
1553843265493,2.7462332000000003,2.5594797000000002,9.091061999999999,-0.07571186,-0.46149525,0.08297260000000001,11.219999000000001,29.34,-39.78
1553843265512,3.2897336000000004,2.9210152999999996,9.062330000000001,-0.08792917,-0.3802502,0.112904996,10.32,29.88,-39.6
1553843265533,3.0718546,2.4134290000000003,8.772623,-0.08182051,-0.42973027,0.14100479999999999,9.36,29.699999,-39.78
1553843265553,3.955342,1.1827718,7.910684,-0.23087163,0.09439212,-0.022096219,9.179999,29.519999,-40.62
1553843265572,3.6009892999999997,1.9824595,9.457385,-0.33716217,0.025975212,-0.12227812,9.66,30.0,-41.64
1553843265592,4.2187123,2.4852571,9.407105,-0.310895,-0.16522561,-0.22734694,9.54,30.119999,-41.64
1553843265613,4.992063,2.8108785,9.536397000000001,-0.19605231,-0.23608598,-0.403887,9.059999000000001,30.0,-41.46
1553843265633,4.278569,2.9665065,9.277814999999999,-0.013403606,-0.024115737999999998,-0.6280745,9.42,30.96,-41.16
1553843265652,1.7669748,1.6113469999999999,8.887547999999999,0.06051109,0.18480018,-0.55965763,9.36,31.14,-41.219997
1553843265672,2.1309047000000003,-0.49082634,7.6473135999999995,-0.12091588,0.36195109999999997,-0.37517634,8.34,30.66,-41.399998
1553843265693,4.187587000000001,0.36632404,7.776604700000001,-0.16001126,0.68265533,-0.49857109999999993,7.7999997,30.9,-40.98
1553843265712,2.813273,-0.07422252,8.320105,-0.24247807,0.31674707,-0.28599,8.46,31.08,-40.8
1553843265732,3.1508656000000004,1.2498114,8.8324795,-0.24003461,0.2947559,-0.2505598,8.639999000000001,31.08,-40.5
1553843265752,3.7207031,2.8970726000000004,9.474146000000001,-0.24980846,0.104165964,-0.18214291,8.519999499999999,31.74,-40.62
1553843265772,3.6536633999999997,3.0359404,9.529214,-0.3646511,0.0039840629999999995,-0.08440447599999999,8.94,32.399998,-40.44
1553843265792,3.8859081,3.0119977000000002,10.348056,-0.38847485,-0.113912925,-0.033091795,8.88,32.34,-40.2
1553843265813,3.6440864,1.6281068,10.4294615,-0.26569095,-0.33199182,-0.05386121,8.22,32.219997,-40.5
1553843265833,3.0957972999999996,0.03351985,9.6896305,-0.014625336000000001,-0.4694365,-0.12899764,7.8599997,33.239998,-39.42
1553843265853,2.7462332000000003,-0.12929083,8.365596,0.18451674,-0.34970692,-0.12899764,8.16,33.719997,-39.0
1553843265872,2.9234095,-0.33519846,7.5060515,0.24377066,-0.15178658,-0.09295659,8.04,32.82,-40.079997999999996
1553843265892,3.1772027,0.19154198,7.292961,0.22849904,0.0070383893000000005,-0.09356745,6.8999996,33.12,-40.44
1553843265912,3.5602864999999997,1.0965778999999998,7.798153,0.19612317,0.18052413,-0.12777591,6.72,33.12,-40.5
1553843265933,4.084633,2.2625897,9.179649000000001,0.10021733,0.21656518,-0.16259523,6.8999996,32.34,-40.559998
1553843265953,4.4533510000000005,3.3591676,10.565935000000001,-0.023788313999999998,0.039414246,-0.20413406,6.8399997,32.46,-40.739998
1553843265973,4.4820824,3.5650752,11.040001,-0.00057543506,-0.19943407,-0.21390789999999998,6.8399997,32.579997999999996,-41.219997
1553843265993,3.8021083,2.5882110000000003,9.993703,0.21628173,-0.26540749999999996,-0.18214291,6.7799997,32.46,-41.1
1553843266013,3.0814316,1.4940275,8.133351,0.3500612,-0.08703486,-0.17297994,6.96,32.28,-41.28
1553843266033,2.7342618,0.8739103000000001,7.415069,0.33723304,0.11455067,-0.18214291,6.7799997,31.92,-41.76
1553843266053,2.7318675999999997,0.8882760000000001,7.3576064,0.29080728,0.20679133,-0.17847772,5.8799996,31.679997999999998,-41.64
1553843266072,2.9210152999999996,1.3958621999999998,8.195602000000001,0.2798117,0.2617692,-0.19497108,5.52,31.679997999999998,-41.399998
1553843266092,3.1460772,2.4613144,8.830086,0.26820526,0.29597765,-0.16381696,6.48,31.859999,-41.399998
1553843266112,3.4118416,3.4262072999999997,9.466963,0.18207327,0.31552532,-0.027594006,6.18,31.859999,-41.52
1553843266132,3.5698638,4.046324299999999,10.254679,0.05256984,0.312471,0.067700975,5.7,31.679997999999998,-41.94
1553843266152,3.816474,4.582642,11.01127,0.012863601,0.12371366,0.06037059,6.8399997,30.9,-40.5
1553843266172,3.46691,3.790137,10.515655,0.120986745,-0.1829407,0.06647924,6.96,30.66,-40.32
1553843266192,2.82285,2.4541316,9.009656,0.27553564,-0.27395964,0.09763337,7.08,31.08,-41.579997999999996
1553843266212,2.5666625,1.8914771000000001,7.9729350000000005,0.27248132,-0.13407148,0.10862894,7.08,30.96,-41.399998
1553843266233,2.370332,1.5634614,7.6544967,0.22055778,-0.048550345,0.10313116,6.6,30.84,-41.579997999999996
1553843266253,2.5139885,1.472479,7.508445699999999,0.120986745,0.027196944,0.10496375,6.42,30.599998,-41.579997999999996
1553843266272,2.6815877,2.1787900000000002,8.135746000000001,0.036076482,0.18602191,0.08602693,6.42,30.539998999999998,-41.879996999999996
1553843266292,3.0239692000000002,2.9952377999999995,9.29218,-0.029286101000000002,0.2141217,0.0744205,7.3799996,30.179997999999998,-42.48
1553843266313,3.1341057,3.4333901,9.905114999999999,-0.04394687,0.09561385,0.063424915,8.099999,30.0,-42.899998
1553843266333,2.9042554,3.275368,9.646533,0.02324831,-0.07054149,0.049375015999999994,7.3199997,29.82,-43.14
1553843266352,2.6289136,2.7869357999999997,8.48531,0.07211753,-0.11757812,0.058537994,7.259999799999999,29.939999,-42.0
1553843266372,2.466103,3.1221343999999998,8.164477,-0.031729564,-0.030835256000000002,0.07747482,7.68,30.179997999999998,-42.0
1553843266392,2.9210152999999996,3.5531040000000003,9.220352,-0.24125634,-0.0015137241,0.067700975,7.5,29.76,-42.899998
1553843266413,3.4573328,3.5076127,10.233130000000001,-0.36342937,-0.15972783,0.02432954,7.74,30.0,-42.78
1553843266433,3.677606,2.6073654,9.816526,-0.28218433,-0.33504614,0.004170988,7.5,30.42,-42.0
1553843266453,3.407053,1.4844503,8.545167,-0.14657223,-0.30816808,-0.04469823,6.8999996,30.539998999999998,-40.32
1553843266473,3.0263633999999997,0.6105401,7.429435000000001,0.0043114866,-0.06809804,-0.11678032599999999,6.8999996,30.119999,-40.32
1553843266492,2.997632,0.56265455,7.3408465,0.12648453,0.051020685999999996,-0.16870387,7.3199997,30.0,-40.5
1553843266512,3.1029801,1.2689656,7.666467999999999,0.05134811,0.09011607,-0.16809301,7.08,30.9,-40.86
1553843266532,3.668029,2.7414446,8.815719999999999,-0.20032836,0.2709322,-0.15954089,6.66,30.96,-40.92
1553843266553,4.4461684,4.0966043,10.750294,-0.46177870000000004,0.36195109999999997,-0.13021936,6.6,30.3,-40.14
1553843266572,4.383917299999999,3.5602864999999997,11.272245,-0.36342937,0.08278568,-0.12044552,6.6,30.42,-39.3
1553843266592,3.4190245000000004,3.0000262,9.426260000000001,-0.12702455,0.05468588,-0.040422175,7.2,30.48,-39.12
1553843266612,2.5307484000000002,2.0183737,8.7534685,0.053180705999999994,-0.019228818,-0.0062137214,7.259999799999999,30.539998999999998,-39.66
1553843266633,2.2673783,1.5850098999999997,8.827691,0.12587367,-0.20309927,-0.0019376645000000001,6.48,31.56,-40.739998
1553843266653,2.4182177000000005,1.0175668,8.763046000000001,0.20956221,-0.33260268,-0.005602856,6.96,31.74,-41.399998
1553843266672,2.6887705000000004,0.63208854,8.22194,0.29508334,-0.28923127,-0.034313522,7.44,31.199999,-41.579997999999996
1553843266692,2.6504622,0.9529214,7.2785953999999995,0.30668979999999996,0.03513819,-0.07401976,6.8999996,31.14,-41.879996999999996
1553843266712,3.1580484,1.5347302,7.3480296,0.23155336,0.36072937,-0.04836342,6.2999997,31.08,-42.12
1553843266733,3.8715425000000003,2.9210152999999996,9.313728999999999,-0.023788313999999998,0.64966863,-0.020263622,6.54,30.42,-42.54
1553843266752,4.6544704,5.33205,11.159715,-0.3261666,0.52566296,0.007225314,6.42,30.06,-42.48
1553843266772,4.8364353,6.0407553,12.636982000000001,-0.3860314,-0.027170066,0.05548367,6.3599997,30.84,-41.879996999999996
1553843266792,3.4094474000000003,3.581835,10.304958000000001,0.048293784000000006,-0.4993689,0.18132192,6.8399997,31.08,-41.16
1553843266813,1.8914771000000001,1.5634614,8.126168,0.33906564,-0.4376715,0.18254364,7.08,31.08,-41.1
1553843266833,1.6161355,0.7829279,7.4102807,0.31829622,-0.36009163,0.13245268,6.72,30.539998999999998,-41.879996999999996
1553843266853,1.9728824,0.007182824399999999,7.0535336,0.17718635,-0.2605206,0.042655498,6.48,30.24,-42.84
1553843266873,2.5020173,0.3423813,6.897906,0.05623503,-0.039998233,-0.087458804,7.02,30.119999,-42.239998
1553843266892,2.82285,1.7095122,7.393521000000001,-0.11969416,0.41265290000000004,-0.19130589,7.02,30.42,-41.76
1553843266913,3.668029,3.2346652000000002,9.684841,-0.32250142,0.64966863,-0.18214291,6.48,30.96,-42.0
1553843266932,4.470111,4.9537544,11.502096,-0.40252477,0.41570723,-0.10944995,6.0,31.08,-41.94
1553843266952,4.084633,5.025583,11.731947,-0.20338269,-0.08398053,-0.0037702604,6.8999996,30.96,-41.52
1553843266972,3.1221343999999998,3.0718546,9.718361999999999,0.12037589,-0.3637568,0.12451144,7.3799996,31.14,-41.52
1553843266992,2.4277947,1.5993756000000001,8.535589,0.28958556,-0.40896085,0.13184182,6.7799997,31.8,-41.04
1553843267012,2.1476645,0.9433443000000001,7.910684,0.2394946,-0.3888023,0.07136617,7.259999799999999,31.32,-40.92
1553843267033,2.0997790000000003,0.82123625,7.2091613,0.018972252,-0.14995398,-0.010489778,7.14,30.539998999999998,-41.94
1553843267053,2.5355369999999997,1.4317763000000001,7.6305537,-0.1734503,0.16891769,-0.07096544,6.12,30.359999,-42.0
1553843267073,3.1508656000000004,2.2889266,8.854028999999999,-0.23881288,0.3692815,-0.10944995,6.06,30.599998,-41.579997999999996
1553843267093,3.9768906000000004,3.5842294999999997,10.410307000000001,-0.21682173,0.2617692,-0.097843505,7.2,30.359999,-40.44
1553843267113,4.120547,3.7063375,10.728745,-0.04822292,-0.07054149,-0.031259197999999995,7.68,30.359999,-41.16
1553843267132,3.4214187000000007,2.2242813,9.007261999999999,0.18085155,-0.25746626,0.054261937999999996,6.7799997,31.38,-41.94
1553843267152,2.9808722000000003,1.4150163999999998,8.2387,0.29691592,-0.26540749999999996,0.057927128,5.94,31.679997999999998,-41.76
1553843267173,2.3823035,1.6017698,7.144516,0.26392922,-0.037554774,0.056705399999999996,6.12,31.439999,-42.18
1553843267192,2.5666625,1.9273912,7.632948,0.07822618,0.29414505,0.079307415,6.72,30.72,-41.52
1553843267212,3.512401,3.014392,9.4142885,-0.18078068,0.44686136,-0.003159395,6.8999996,30.119999,-41.1
1553843267232,4.3025117,4.5060253,11.047184,-0.36892718,0.31369275,-0.04836342,6.7799997,30.72,-41.64
1553843267253,4.14449,3.6823947,11.016058000000001,-0.2913473,-0.16889079999999998,0.02432954,7.08,31.019999,-41.82
1553843267273,3.1388943,2.152453,9.26345,-0.051277254,-0.30328116,0.0970225,7.44,31.32,-41.1
1553843267293,2.5331428,1.4150163999999998,8.229122,0.05684589599999999,-0.24402723,0.08602693,7.3799996,31.56,-40.44
1553843267312,2.3799092999999996,1.0319325000000001,8.229122,0.036076482,-0.1493431,0.050596748,7.2,30.9,-40.92
1553843267332,2.5235654999999997,1.0654523,8.059128999999999,-0.029286101000000002,-0.055269867,-0.0013267993,6.48,30.9,-40.86
1553843267353,2.8779182,1.4245936000000001,8.5331955,-0.04761206,0.049188092,-0.085015334,6.48,31.32,-40.86
1553843267373,2.892284,1.7717633000000002,8.523619,0.012252735,0.12615710000000002,-0.11311514,6.6,30.84,-41.64
1553843267393,2.8108785,2.176396,8.130958,0.048293784000000006,0.21045650000000002,-0.060580727,6.12,30.779999,-41.94
1553843267413,3.2083282000000004,3.1867797,8.854028999999999,-0.042114273,0.29658850000000003,0.03715771,6.24,30.84,-41.46
1553843267432,4.2737803,4.383917299999999,10.982538,-0.22170866,0.079120494,0.0725879,6.2999997,30.84,-41.1
1553843267452,4.1564612,4.2258949999999995,11.521251,-0.23575856,-0.21104050000000002,0.06831183,7.08,31.019999,-40.98
1553843267473,3.2897336000000004,2.4182177000000005,9.761458,-0.006684086999999999,-0.3802502,0.10435289,8.22,31.14,-40.26
1553843267493,2.4876516,1.0199611,7.989694999999999,0.14664309,-0.272127,0.0744205,7.5,31.56,-39.54
1553843267512,2.1740015,0.3423813,7.2187386,0.12831713,-0.1230759,0.020053484,6.6,31.74,-39.78
1553843267532,2.2554069,0.25379312,6.9673395000000005,0.07944792,-0.01861795,-0.04775256,7.259999799999999,31.08,-39.719997
1553843267553,2.4206119,1.0199611,7.3121149999999995,0.05562417,0.14998084,-0.1015087,7.5,30.48,-40.14
1553843267573,2.9234095,2.1189332000000003,8.224333999999999,-0.042725135,0.3265209,-0.09723264,6.8999996,30.9,-40.92
1553843267593,4.2139235,3.9481592000000005,10.9490185,-0.2595823,0.32468832,-0.061191592,6.72,31.679997999999998,-41.1
1553843267613,4.6760187,5.4062724,12.541211,-0.38542053,0.055907607000000005,-0.023928814,6.66,31.38,-41.1
1553843267633,3.816474,3.4309957000000004,10.508472,-0.10075733,-0.26540749999999996,0.08847039,6.54,30.539998999999998,-40.62
1553843267653,2.9401696,1.6137413,8.684034,0.14175616,-0.26907268,0.10862894,6.48,31.439999,-40.559998
1553843267673,2.3942747000000004,0.7948991999999999,7.6736507,0.21506,-0.25929886,0.07808568,6.6,32.399998,-40.5
1553843267693,2.2218869999999997,0.21069619,7.125362,0.15702779999999997,-0.15911695,0.018831754,6.2999997,32.28,-40.86
1553843267713,2.2937152000000003,0.48364350000000006,6.9146657000000005,0.07517185,0.019255694,-0.07585236,5.94,32.34,-41.28
1553843267733,2.5379312,1.3264283000000001,7.49408,0.01958312,0.21961950000000002,-0.11861292,5.8199997,32.52,-41.52
1553843267753,3.2993107000000004,2.6935592,9.179649000000001,-0.14473964,0.38699657,-0.086237065,6.24,32.219997,-41.46
1553843267772,4.45814,4.5706706,11.435057,-0.29623422,0.31430359999999996,-0.04408737,6.6,31.98,-41.34
1553843267792,4.740664,5.4158497,12.730359,-0.32677746,0.016812233,0.0017275269,6.66,31.74,-41.219997
1553843267812,3.7661943,3.0622776000000003,10.218765,-0.010960144,-0.25929886,0.12390058,7.08,30.779999,-40.62
1553843267833,2.9018610000000002,1.2857256000000001,8.514041,0.18390587,-0.2922856,0.115348466,7.259999799999999,31.199999,-40.379996999999996
1553843267853,2.2697724999999997,0.38068968,7.412675,0.20528615,-0.24830328,0.08175088,6.8399997,32.579997999999996,-41.1
1553843267873,2.1979442000000002,-0.038308397,6.9673395000000005,0.14603223,-0.13468234,0.007225314,6.24,32.1,-41.579997999999996
1553843267893,2.248224,0.50758624,6.91706,0.07578272,0.05040982,-0.07585236,6.24,31.38,-41.399998
1553843267912,2.5546912999999996,1.7286664,7.745479,-0.021344852,0.27398652,-0.09356745,5.7599998,31.5,-41.34
1553843267932,3.5554981,3.1843855,10.022434,-0.18505673,0.3766119,-0.07401976,6.06,31.5,-41.46
1553843267952,4.7191157,5.272193,12.241927,-0.397027,0.21473257,-0.013544105,6.42,31.619999,-41.64
1553843267973,4.3216662,4.592219,12.036019,-0.22293039,-0.13651493,0.049985882,6.54,32.1,-40.98
1553843267993,3.4094474000000003,2.3200524,9.325700999999999,0.06661975,-0.2580771,0.13611788,7.44,32.7,-40.92
1553843268012,2.6337023,1.0510867,7.9561753,0.20589702,-0.25868800000000003,0.12573317,6.96,32.76,-40.92
1553843268032,2.2937152000000003,0.33040990000000003,7.1684589999999995,0.18818194,-0.1969906,0.092746444,6.8399997,32.64,-40.26
1553843268053,2.3128695,0.0,7.0319853000000005,0.114878096,-0.08703486,-0.0019376645000000001,7.14,32.399998,-41.1
1553843268073,2.300898,0.63208854,7.178035700000001,0.080058776,0.06690318,-0.09662178,6.7799997,31.38,-41.64
1553843268092,2.6456738,1.7047237000000002,7.8556156,0.0043114866,0.28925812,-0.1015087,6.18,31.32,-40.92
1553843268112,3.7278860000000003,3.1819912999999995,10.170879,-0.17467202,0.39127259999999997,-0.052028615,5.94,32.219997,-40.739998
1553843268132,4.776578400000001,5.446975,12.390372,-0.38664228,0.21656518,-0.0019376645000000001,6.3599997,32.219997,-41.219997
1553843268153,4.4749,4.6712303,12.426287,-0.2418672,-0.16461475,0.05609453,6.42,32.579997999999996,-41.399998
1553843268172,3.3567734,2.2745612,9.253872,0.06967407,-0.29900509999999997,0.14467,6.18,32.219997,-40.8
1553843268193,2.6265194,0.9433443000000001,7.9992722999999994,0.21383828,-0.3161093,0.13062009,6.54,32.28,-40.5
1553843268212,2.2506182,0.32801566,7.23071,0.18268414,-0.24524896,0.102520294,7.08,32.82,-40.739998
1553843268232,2.3799092999999996,0.014365649,6.9146657000000005,0.071506664,-0.0986413,0.018831754,7.2,31.92,-40.559998
1553843268253,2.5307484000000002,0.67279124,7.2450757,0.020193983000000002,0.084007405,-0.059969865,7.3799996,31.859999,-40.62
1553843268273,2.9329867000000003,1.620924,7.963358,-0.04822292,0.27459738,-0.08379361,6.6,32.579997999999996,-41.399998
1553843268293,4.0726614,3.4860642,10.609032000000001,-0.20888048,0.33568390000000004,-0.04836342,6.06,32.64,-42.0
1553843268313,4.652076,4.9872746,12.095877,-0.28646037,0.15608951,0.010890506000000001,6.66,32.16,-41.82
1553843268334,3.9864676,3.3112822,10.8700075,-0.057385902999999995,-0.13346061,0.09152472,6.6,32.16,-41.1
1553843268353,3.2801563999999996,1.7071179,8.966559,0.12892799,-0.22631213,0.115348466,6.54,32.16,-40.68
1553843268373,2.6456738,0.74222517,7.896318400000001,0.21017309,-0.24585982,0.079307415,7.08,32.399998,-40.68
1553843268393,2.317658,0.14126222,7.2450757,0.18024068,-0.14995398,0.029827327999999997,7.02,32.46,-40.559998
1553843268412,2.3751206000000002,0.20351335,7.23071,0.14969742,-0.034500446000000004,-0.03981131,6.7799997,31.98,-40.26
1553843268433,2.5546912999999996,1.0510867,7.609005499999999,0.12037589,0.171972,-0.107617356,6.8999996,31.5,-40.379996999999996
1553843268453,2.8827069,2.056682,8.281796,0.030578692999999997,0.35034466,-0.08929139400000001,7.08,31.56,-40.32
1553843268474,4.3815230000000005,4.1301239999999995,11.186052,-0.20093924,0.3601185,-0.039200444,6.72,31.92,-40.2
1553843268492,4.616162,5.272193,12.323333,-0.28462777,0.09133779,-0.012322373999999999,7.3199997,31.439999,-39.3
1553843268513,3.9481592000000005,3.4812756,10.836488000000001,-0.047001194,-0.24952501,0.09763337,7.62,31.14,-38.64
1553843268533,3.2035396,2.1404817000000005,8.58587,0.11243464,-0.3045029,0.1428374,7.2,31.26,-38.879996999999996
1553843268552,2.4780743,0.9505271000000001,7.905895,0.16802338,-0.32405058,0.13733962,7.74,32.16,-39.3
1553843268573,2.3583608,0.6368771,7.450983,0.09288695,-0.1902711,0.10679635,7.2,32.46,-40.379996999999996
1553843268593,2.6193366,0.8451790000000001,7.474925999999999,-0.0011863003,0.020477425,0.029216462999999998,6.0,32.219997,-40.68
1553843268613,2.9258040000000003,1.324034,8.028004,-0.039059944,0.171972,-0.026983137999999997,6.48,32.28,-40.62
1553843268632,3.337619,2.2338583,9.079089999999999,-0.092816085,0.24955189,-0.04836342,7.02,31.859999,-40.86
1553843268653,3.842811,3.258608,10.314536,-0.13618751,0.12798971,-0.012933239,6.66,31.38,-40.86
1553843268673,3.7590114999999997,3.4046587999999995,10.561146,-0.06899234,-0.037554774,0.013944831999999999,6.8999996,31.679997999999998,-40.68
1553843268692,3.2873392,2.1740015,9.296969,0.078837045,-0.1444562,0.042655498,7.44,32.04,-40.32
1553843268713,2.8898897,1.2258687,8.262642,0.14542136,-0.1585061,0.037768576,7.259999799999999,31.859999,-40.98
1553843268733,2.6073654,1.010384,7.5659084000000005,0.13748012,-0.096197836,-0.0049919905,7.08,32.16,-41.34
1553843268753,2.6696165,1.1684061000000001,7.625765299999999,0.053180705999999994,0.029640405,-0.03064833,6.8399997,31.8,-40.32
1553843268773,3.1987512000000002,1.9585168000000002,8.688824,-0.07754446,0.19274142,-0.059359,6.6,30.9,-40.14
1553843268792,3.9840732000000005,3.2801563999999996,10.393547,-0.20338269,0.19885008,-0.061802458,6.54,31.26,-41.1
1553843268812,4.0798445,3.6895776,11.001693,-0.18139154,0.05957280000000001,-0.028815735,7.08,31.38,-41.1
1553843268832,3.545921,2.3918805,9.742303999999999,-0.007905818,-0.08581313,0.0408229,7.5,31.56,-40.5
1553843268853,2.9617178,1.4437478000000001,8.518829,0.11671069,-0.16827993,0.054261937999999996,6.6,31.74,-41.04
1553843268872,2.5020173,0.95531565,7.678439,0.13259318,-0.16766907,0.039601172999999996,6.72,32.16,-41.1
1553843268893,2.5642683999999996,1.0606636999999999,7.573091000000001,0.04890465,-0.01861795,0.007836179,7.2,32.28,-41.16
1553843268913,3.0239692000000002,1.8292258999999997,8.466156,-0.041503407,0.11821587,-0.034313522,6.54,31.8,-41.82
1553843268934,3.7590114999999997,3.0527002999999997,10.079897,-0.1630656,0.21289998,-0.036756985,6.12,32.1,-41.04
1553843268953,4.0080160000000005,3.3831102999999993,10.683254,-0.16734165,0.105387695,0.0035601228000000005,7.08,31.92,-40.559998
1553843268972,3.6584517999999995,2.4134290000000003,9.727939,-0.025010044,-0.05221554,0.054872803,7.98,32.1,-40.86
1553843268993,3.11974,1.5778271000000001,8.751075,0.11060204,-0.15239744,0.06709011,7.44,31.92,-40.68
1553843269012,2.700742,1.1061549,7.944203999999999,0.14786482,-0.15911695,0.053040206,6.8999996,31.26,-40.379996999999996
1553843269032,2.5618742,1.0486923000000001,7.623371000000001,0.071506664,-0.04549602,0.02555127,6.7799997,31.679997999999998,-40.62
1553843269052,2.9832664,1.9752767,8.523619,-0.07754446,0.111496344,-0.01904189,6.96,32.34,-41.1
1553843269072,3.7254915,3.0479119999999997,10.115811,-0.2333151,0.18724364,-0.03553525,7.259999799999999,32.16,-40.739998
1553843269092,3.9936504,3.3567734,10.805361999999999,-0.25225192,0.08828347,-0.011100643,7.3799996,31.98,-40.32
1553843269112,3.6009892999999997,2.6001825000000003,9.811738,-0.10747685,-0.043052558,0.044488095,7.08,32.34,-40.68
1553843269133,2.9521408,1.4509305000000001,8.549955,0.04768292,-0.13162802,0.05609453,7.02,32.219997,-41.04
1553843269152,2.6217308,0.8571504000000001,7.965752,0.07639358,-0.140791,0.029216462999999998,7.3799996,31.92,-41.04
1553843269172,2.5882110000000003,0.52674043,7.8388557,0.094719544,-0.10536081,-0.022096219,7.14,32.94,-40.5
1553843269192,2.5906053,0.75659084,7.611399700000001,0.1270954,-0.020450545,-0.09906524,7.14,32.579997999999996,-40.379996999999996
1553843269212,2.6073654,1.3072741,7.616188,0.10449339,0.14142874,-0.11616947,7.2,31.619999,-40.44
1553843269232,3.2179053,2.2218869999999997,8.889942,-0.043336004000000004,0.28376034,-0.07463063,6.3599997,32.16,-40.559998
1553843269253,4.6736245,4.5515165,11.60505,-0.30661893,0.2055696,-0.03981131,5.58,32.7,-40.26
1553843269272,4.678413,4.9274178,12.605857,-0.30661893,-0.054659000000000006,0.005392718,5.8799996,32.219997,-40.14
1553843269292,3.8643596,2.7893302,10.288198,-0.032951295,-0.19210368,0.10374202,6.54,32.1,-40.379996999999996
1553843269313,2.8563697,1.1947431999999998,8.437425,0.17046683,-0.18966022,0.10862894,7.2,32.76,-40.02
1553843269332,2.2410412,0.098165266,7.23071,0.183295,-0.172556,0.08969212,7.08,32.579997999999996,-40.739998
1553843269352,2.1285102000000005,-0.5123747999999999,6.7446722999999995,0.19184712,-0.1444562,0.02432954,6.72,32.52,-41.34
1553843269373,2.152453,-0.019154198,6.711152,0.20223182,-0.014341895,-0.087458804,6.66,32.28,-40.86
1553843269392,2.4421604,1.1899546,6.957762700000001,0.101439066,0.19151969,-0.10089783,6.24,32.399998,-41.16
1553843269413,4.209135,3.2729738,10.776631,-0.26080403,0.4474722,-0.07096544,6.66,32.219997,-41.64
1553843269432,5.4948606,6.507639,13.716801,-0.6529795,0.28681466,-0.026983137999999997,7.14,31.98,-41.1
1553843269453,4.9705143,5.518803599999999,13.798205,-0.40008130000000003,-0.15911695,0.026773002,7.02,32.399998,-40.379996999999996
1553843269473,3.397476,2.0087965,9.45978,0.13686925,-0.2580771,0.11351587,7.3199997,32.64,-39.36
1553843269493,2.2817439999999998,0.49800915,7.257047,0.3030246,-0.2305882,0.11962452,7.7999997,32.579997999999996,-37.739998
1553843269512,2.0159793,-0.75180227,6.5387645,0.26148576,-0.20737529999999996,0.07625309,7.7999997,31.92,-37.68
1553843269532,2.013585,-1.1923488000000002,6.1987777,0.24193807,-0.14262360000000002,-0.034924388,7.5,31.5,-38.7
1553843269553,2.0518935000000003,-0.35674694,6.352011,0.21872519,0.06812491,-0.17908859,7.5,31.98,-38.94
1553843269572,2.6121537999999997,1.158829,7.2546525,0.12526279999999998,0.2929233,-0.20291232,7.259999799999999,32.16,-39.059998
1553843269593,3.938582,3.6129606,10.537204,-0.23087163,0.5684235,-0.097843505,6.66,31.859999,-39.12
1553843269613,5.8228765,7.122967699999999,14.267484,-0.6584773,0.37233582,0.048153285,6.66,32.04,-39.3
1553843269633,4.8938975,5.559506,13.819754999999999,-0.25225192,-0.27884656,0.12451144,7.44,32.28,-39.239998
1553843269652,3.2705792999999996,2.5618742,8.248277,0.21017309,-0.3362679,0.16849375,8.16,32.76,-39.059998
1553843269672,2.0327394,0.5506831999999999,7.4438004,0.39037833,-0.38819143,0.13672875,7.68,32.399998,-39.899998
1553843269693,1.7837347,-0.7685622,6.368771,0.2865312,-0.21531656,0.07991828,7.14,32.1,-40.26
1553843269713,1.8747171000000002,-1.324034,6.1173720000000005,0.19184712,-0.14140187,-0.034924388,6.8399997,32.64,-40.079997999999996
1553843269733,1.960911,-0.45491222,6.150892,0.14236704,0.08461828,-0.19924714,6.24,32.28,-40.5
1553843269752,2.6648278,1.175589,7.113390400000001,0.050737243,0.32713178,-0.23467733,5.8199997,31.56,-40.98
1553843269772,3.9792848,3.5842294999999997,10.642551,-0.2858495,0.6166819,-0.11678032599999999,5.7,31.679997999999998,-41.34
1553843269793,5.9449844,7.18043,14.303398000000001,-0.741555,0.33812734,0.05242934,6.66,32.399998,-41.1
1553843269813,5.1021996,6.107795200000001,14.516488,-0.419629,-0.25074676,0.10679635,7.74,32.46,-40.379996999999996
1553843269832,3.4357843,2.6001825000000003,8.892337,0.18268414,-0.40040872,0.199037,7.62,32.94,-40.44
1553843269852,2.0255566000000003,0.53392327,7.2450757,0.40259559999999994,-0.3655894,0.14772432,6.8399997,32.94,-40.92
1553843269872,1.8603516,-0.49082634,6.4813019999999995,0.33173525,-0.24219462,0.10618549,6.72,32.219997,-40.379996999999996
1553843269893,1.9920366000000003,-1.4006507,6.3280683,0.17718635,-0.17683205,-0.016598431,6.8399997,32.76,-40.379996999999996
1553843269913,2.1021732999999996,-0.6751855,6.1652575,0.10510425,0.0070383893000000005,-0.16320609,6.6,33.059998,-40.739998
1553843269933,2.604971,0.5243462,6.9984649999999995,0.05684589599999999,0.26421264,-0.25727934,5.8799996,32.16,-40.92
1553843269953,3.4716985,2.8874955,9.4932995,-0.15817867,0.52810645,-0.17908859,5.7599998,31.859999,-40.739998
1553843269973,4.8938975,5.0567082999999995,12.459806,-0.4141312,0.39249435,-0.0068245865,6.66,32.16,-40.92
1553843269993,5.197970400000001,7.000859700000001,14.320158,-0.42207244,0.0125361765,0.067700975,6.8999996,32.219997,-41.399998
1553843270013,3.8835137000000004,2.9808722000000003,10.331296,0.14175616,-0.3362679,0.17154807,7.14,32.52,-40.559998
1553843270032,2.9377751,1.4365649,8.090255,0.27003786,-0.31855279999999997,0.12512231,7.259999799999999,32.82,-39.6
1553843270052,1.9848539,0.16759923,6.902694,0.33906564,-0.32649404,0.07991828,6.96,33.0,-40.02
1553843270072,2.0878077,-0.5458947,6.7398834,0.19306885,-0.1585061,0.007836179,6.96,31.92,-40.86
1553843270092,2.3296294,-0.29928434,6.964945299999999,0.091665216,-0.029613525,-0.10456303,6.7799997,31.74,-41.46
1553843270112,2.4637089,0.65842557,7.2881727,0.11609982,0.20801306,-0.21146445,6.18,32.579997999999996,-41.16
1553843270132,3.0718546,1.6879636999999998,8.650514999999999,0.15580606,0.35950762,-0.19558194,6.0,32.16,-40.739998
1553843270152,3.529161,3.641692,9.785401,0.11793242,0.5006175,-0.051417753,6.42,32.1,-41.28
1553843270172,4.901080599999999,4.783761,12.141368,-0.108698584,0.44441790000000003,0.09641164,7.14,32.46,-41.16
1553843270192,5.0088230000000005,6.244269,12.404736999999999,-0.36892718,0.099279046,0.08419433,7.5,32.219997,-41.1
1553843270213,3.8452053,3.1029801,10.247497000000001,-0.06593802,-0.43095198,0.16482855,8.04,31.38,-40.5
1553843270233,2.8467927000000004,1.3360053,8.554744,0.21200567,-0.50364494,0.12512231,8.16,31.199999,-40.2
1553843270253,2.0542877,0.749408,7.472532000000001,0.20834048,-0.38513708,0.05120761,7.68,32.1,-40.86
1553843270272,1.8747171000000002,-0.07901107,6.871568700000001,0.12648453,-0.1829407,0.0047818534,7.14,32.219997,-40.86
1553843270292,2.3152637,0.08858817,7.115784599999999,0.0030897565,0.032083865,-0.061802458,6.8999996,31.8,-40.8
1553843270312,2.6001825000000003,0.7733508000000001,7.6066113,-0.0017971654999999998,0.28742555,-0.16748215,6.96,31.38,-40.86
1553843270333,3.0646717999999997,2.22907,8.645726,-0.031118697999999997,0.46885252,-0.16748215,6.6,31.38,-40.8
1553843270352,3.842811,3.545921,10.393547,-0.1771155,0.44441790000000003,-0.07401976,6.3599997,31.859999,-40.8
1553843270372,4.573065,5.157268,11.461393,-0.35365555,0.17563719,-0.0007159340299999999,6.66,31.859999,-40.379996999999996
1553843270392,4.1756153,4.697566999999999,11.588289999999999,-0.24919759,-0.20615359,0.043266362999999995,7.7999997,31.08,-39.78
1553843270413,3.2921278,2.0255566000000003,9.356826,0.097163,-0.41812380000000005,0.10007682400000001,7.7999997,31.679997999999998,-39.84
1553843270432,2.6337023,1.3623424,7.9489923,0.1814624,-0.3552047,0.05609453,7.5,31.859999,-39.42
1553843270454,2.1740015,0.24421602,7.2211327999999995,0.18696019,-0.24952501,0.015777428,7.259999799999999,31.199999,-39.84
1553843270474,2.3966691000000004,-0.1340794,6.9625509999999995,0.04218513,-0.038165636,-0.058137268,6.24,31.32,-40.559998
1553843270492,2.4589202,0.43575802,7.091842,-0.015847066,0.14142874,-0.1259433,6.54,31.38,-39.719997
1553843270512,2.7773588,1.5371244,7.848433,-0.051277254,0.37844446,-0.13266283,6.8999996,31.56,-39.36
1553843270532,3.703943,3.057489,10.08708,-0.19177626,0.42303762,-0.07707409,6.66,31.199999,-39.84
1553843270553,4.8747435,5.7295,12.402344,-0.4776612,0.18052413,0.0066144490000000005,6.96,31.56,-39.96
1553843270573,4.520391,5.111777,12.723175999999999,-0.2876821,-0.23791859,0.053040206,7.62,32.04,-40.44
1553843270592,3.3687446000000003,2.0878077,9.115005,0.12892799,-0.4095717,0.13367443,7.9199996,32.64,-40.739998
1553843270612,2.5858168999999998,0.59378016,8.837268,0.23827288,-0.35764816,0.090913855,7.2,32.94,-40.379996999999996
1553843270633,2.0997790000000003,0.009577099,6.986494,0.19673404,-0.19882320000000003,0.046931557,6.96,32.46,-40.02
1553843270653,2.343995,-0.45251793,6.768615,0.102049924,-0.07481755,-0.041643906,6.6,32.16,-40.62
1553843270672,2.3799092999999996,0.11013664,6.737489,0.07456099,0.11210721,-0.14610186,6.3599997,32.04,-41.16
1553843270692,2.7366562,0.9026415999999999,7.6185822,0.09044349,0.30269718,-0.18458638,6.6,32.1,-41.04
1553843270713,3.5794407999999995,2.9090437999999996,9.893144,-0.05433158,0.44869396,-0.086237065,6.72,32.219997,-41.1
1553843270732,4.7071442999999995,4.8484063,11.822929,-0.29440162,0.32591003,0.038379442,7.02,31.859999,-41.04
1553843270752,4.8819265,6.3567995999999996,13.269070999999999,-0.38542053,-0.03022439,0.08785953,7.08,31.32,-41.219997
1553843270772,3.7973199999999996,3.0431232,10.697619,0.026302636,-0.36803287,0.16971546,7.14,31.439999,-40.92
1553843270792,2.700742,1.2522057,7.7526617,0.23644027,-0.36314595,0.102520294,7.02,31.859999,-40.379996999999996
1553843270813,1.9226026999999999,0.08619389,7.2354984,0.25843143,-0.30389202,0.049985882,6.12,32.04,-40.26
1553843270833,2.0878077,-0.35914123,6.732701,0.12648453,-0.10780427599999999,-0.012322373999999999,6.0,31.98,-40.739998
1553843270852,2.2721667,-0.011971374,6.6680554999999995,0.05256984,0.046133768,-0.10456303,6.96,32.82,-41.16
1553843270872,2.5594797000000002,0.749408,7.467743,0.058067627000000004,0.26665613,-0.17236906,7.14,32.82,-40.44
1553843270892,3.2801563999999996,2.264984,8.868394,-0.038449082999999995,0.44686136,-0.13021936,6.6,32.34,-40.559998
1553843270913,4.520391,4.455744999999999,11.45421,-0.28707123,0.35400987,-0.014765833999999999,6.42,31.92,-41.46
1553843270933,4.9561486,6.653689999999999,13.175694,-0.48315898,0.05346415,0.049375015999999994,6.72,31.8,-41.52
1553843270952,4.0798445,3.8835137000000004,11.633780999999999,-0.10258993,-0.3289375,0.13733962,6.7799997,32.219997,-40.559998
1553843270973,2.978478,1.3814965,8.320105,0.23460768,-0.36314595,0.11779192,6.96,32.16,-40.2
1553843270992,2.2506182,0.007182824399999999,8.375174000000001,0.27736825,-0.33260268,0.057316266,6.66,32.34,-40.68
1553843271012,2.0423164000000003,-0.40463245,6.761432000000001,0.18696019,-0.17561032,0.007225314,6.12,32.16,-40.739998
1553843271032,2.264984,-0.38547826,6.6273527,0.06539801,-0.043663427000000005,-0.07829582,5.94,31.92,-41.219997
1553843271052,2.4277947,0.42378664,7.1540933,0.02569177,0.2055696,-0.17420167,5.58,32.04,-41.52
1553843271072,3.15326,2.0183737,8.597841,-0.063494556,0.45663524,-0.15282138,6.06,31.98,-41.04
1553843271092,4.2905407,3.9050622,11.090281,-0.2840169,0.421205,-0.056915537,6.06,32.04,-40.5
1553843271112,5.193182,6.5387645,13.187666,-0.5350825,0.124324515,0.048153285,6.7799997,32.04,-40.32
1553843271132,4.295329,4.3815230000000005,12.206013,-0.14657223,-0.31183330000000004,0.11473759,7.3199997,32.16,-40.5
1553843271152,3.0957972999999996,1.6352897,8.600235000000001,0.23155336,-0.35337209999999997,0.13795047,6.7799997,32.1,-39.54
1553843271172,2.2410412,-0.021548472000000003,8.344047999999999,0.28469864,-0.33504614,0.06403578,7.3199997,31.92,-39.239998
1553843271193,2.0183737,-0.42139238,6.775798,0.16496904,-0.16522561,0.0066144490000000005,6.8999996,32.16,-40.14
1553843271212,2.2769554,-0.46209505,6.708758,0.058678493,-0.04977208,-0.07585236,6.7799997,32.64,-40.14
1553843271233,2.3320236,0.31604427,6.9146657000000005,0.04768292,0.171972,-0.18458638,6.6,32.46,-40.379996999999996
1553843271252,2.9425638,1.4437478000000001,8.0926485,0.050737243,0.3766119,-0.19069502,5.94,32.34,-40.68
1553843271272,3.7853483999999997,3.2681851,10.273833,-0.104422525,0.40715513,-0.08012842,6.2999997,32.28,-40.68
1553843271292,5.0447370000000005,5.61218,12.399949000000001,-0.39519440000000006,0.20740218,0.06953357,7.08,32.46,-40.739998
1553843271312,4.7789725999999995,5.880339,13.101472,-0.31822538,-0.13651493,0.115348466,7.56,32.34,-40.559998
1553843271333,3.4740927000000004,2.2099156000000004,9.747093,0.11732156,-0.35398299,0.18926315,7.68,32.28,-40.379996999999996
1553843271353,2.6744049,1.1181264,7.594639999999999,0.23155336,-0.3008377,0.0988551,7.02,32.52,-40.379996999999996
1553843271373,1.8890828000000002,-0.12210801,7.041562,0.22239038,-0.25441194,0.057316266,7.3199997,31.199999,-37.14
1553843271393,2.1093562,-0.48364350000000006,6.775798,0.09227608,-0.110858604,-0.0062137214,8.58,30.359999,-32.7
1553843271413,2.2817439999999998,-0.076616794,6.9505796,0.06478715,0.044912033,-0.114947736,8.82,30.84,-32.1
1553843271433,2.5762396,0.87151605,7.623371000000001,0.1307606,0.27704084,-0.19497108,8.16,31.14,-33.0
1553843271453,3.2155110000000002,2.1572416000000003,8.854028999999999,0.12953886,0.3918835,-0.1399932,7.98,31.14,-33.12
1553843271473,4.034353299999999,3.6488747999999998,10.486922999999999,-0.023177449,0.38577485,-0.020263622,8.7,31.199999,-32.82
1553843271493,5.0136113,6.1652575,12.47896,-0.36342937,0.12615710000000002,0.08297260000000001,8.639999000000001,30.9,-33.18
1553843271512,4.5084195,4.936994599999999,11.983345,-0.1771155,-0.19149281,0.12756577,8.34,30.779999,-33.36
1553843271532,3.2633965,1.5514901,9.165284,0.20589702,-0.38758057,0.15749817,8.519999499999999,31.26,-33.0
1553843271552,2.466103,0.97446984,7.266624,0.30546805,-0.3588699,0.08724867,8.76,31.14,-32.34
1553843271572,1.960911,0.13168511,7.18043,0.18085155,-0.23303165,0.027383868,9.24,30.539998999999998,-31.56
1553843271593,2.205127,-0.083799616,7.024802,0.07089580000000001,-0.06565457,-0.02453968,9.24,29.82,-31.74
1553843271613,2.5044115000000002,0.5961744000000001,7.613794,0.04890465,0.13959615,-0.1314411,9.12,30.119999,-32.46
1553843271633,2.9856608,1.5299416000000001,8.6433325,0.11243464,0.32713178,-0.18214291,8.639999000000001,30.0,-32.219997
1553843271653,3.3495904999999997,2.6265194,9.541185,0.18268414,0.3497338,-0.1577083,8.16,30.359999,-32.7
1553843271672,3.6823947,3.5387383000000003,9.809344,0.18757106,0.24038891,-0.06668938,8.22,30.84,-35.16
1553843271693,3.9050622,4.4485626,10.091868,0.062343687,0.27704084,0.10679635,7.68,30.42,-36.78
1553843271713,4.3216662,4.264203500000001,10.204399,-0.18994367,0.15425691,0.15322211,8.099999,30.119999,-36.6
1553843271732,4.4318027,4.1181526,10.8700075,-0.33044267,-0.16278215,0.11412673400000001,8.58,30.42,-36.3
1553843271752,3.6105663999999997,2.3894862999999997,10.458193,-0.11969416,-0.5121971,0.12573317,8.82,30.96,-35.94
1553843271773,2.5834224,1.6041641000000002,8.741497,0.10021733,-0.5329665,0.109850675,8.519999499999999,31.019999,-35.76
1553843271792,2.0710478,0.8547561,7.4246464,0.06478715,-0.267851,0.067700975,6.7799997,30.599998,-36.36
1553843271812,2.0255566000000003,-0.1699935,6.871568700000001,-0.015236201999999999,-0.055269867,0.024940407,6.72,30.599998,-36.48
1553843271832,2.3751206000000002,-0.22266756,6.826077499999999,-0.026231775,0.12249192,-0.08073928,7.56,31.019999,-36.6
1553843271853,2.5762396,0.6751855,7.589851400000001,0.050737243,0.29903197,-0.16992562,6.8999996,31.019999,-38.34
1553843271873,3.1269228,2.0375278000000003,8.796566,0.05134811,0.41998329999999995,-0.19069502,6.2999997,31.859999,-40.32
1553843271893,3.9697077000000003,3.7973199999999996,10.640158,-0.101368204,0.40165734,-0.08012842,6.42,31.5,-40.559998
1553843271913,4.6281333,5.6457,11.351257,-0.31700364,0.21900864,0.018831754,6.8999996,31.26,-40.44
1553843271932,4.3025117,5.2147307000000005,11.121407000000001,-0.20765875,-0.07359582,0.09152472,7.08,31.98,-40.739998
1553843271952,3.5267668,2.22907,9.873989,0.015917927,-0.39674354,0.13367443,7.14,31.8,-40.5
1553843271972,2.6911650000000003,1.324034,8.760652,0.11609982,-0.49448195,0.06464665,7.3799996,31.98,-40.739998
1553843271993,2.2841382,0.70631105,7.896318400000001,0.0012571607,-0.28129,0.015777428,7.08,31.98,-41.28
1553843272013,2.4876516,0.21787901,7.448589,-0.14901568,0.0033731977000000003,-0.009878913000000001,6.24,31.98,-41.399998
1553843272033,2.7175019,0.24182175,7.594639999999999,-0.13679838,0.20801306,-0.051417753,6.24,31.92,-41.46
1553843272053,2.7821474,0.8044763,7.9992722999999994,0.048293784000000006,0.25199535,-0.090513125,7.08,32.04,-41.76
1553843272075,2.935381,1.5538843999999998,8.657698,0.21506,0.23183679999999998,-0.067300245,7.14,32.219997,-41.219997
1553843272092,3.3759273999999997,2.6025767,9.510059,0.27248132,0.14081787,-0.00010506882,7.14,31.5,-39.899998
1553843272113,3.955342,3.9409763999999994,9.75667,0.047072057,0.112718076,0.042655498,6.8399997,31.08,-39.899998
1553843272133,4.331243,5.4781010000000006,10.79818,-0.2333151,0.13226576,0.04509896,7.3799996,31.26,-40.32
1553843272152,4.0295644,3.3783216,10.637763,-0.19727404,-0.12613024,0.10679635,7.68,31.859999,-40.559998
1553843272172,3.2011453999999997,1.5874043,9.620196,-0.03050783,-0.32466143,0.102520294,6.7799997,32.64,-41.399998
1553843272193,2.49244,1.1420691,8.193209,0.06478715,-0.27640307,0.08602693,7.2,32.64,-41.04
1553843272212,2.3296294,0.42378664,7.556331,0.034243885,-0.09741957,0.0744205,7.02,32.52,-40.379996999999996
1553843272232,2.5163830000000003,0.22266756,7.470137599999999,0.01958312,0.054075014000000005,0.015166562,6.6,32.04,-41.34
1553843272253,2.6720107000000004,0.8356019,7.989694999999999,0.08738916,0.13898528,-0.08073928,6.6,31.8,-41.879996999999996
1553843272273,2.8970726000000004,1.8100717,8.770228,0.13564752,0.21106738,-0.09662178,6.3599997,31.98,-40.98
1553843272292,3.4309957000000004,2.7558103,9.735122,0.07456099,0.23305853,-0.05874813,6.54,32.28,-40.62
1553843272313,4.000833,4.0678730000000005,10.161303,-0.11480723,0.19762835,-0.0153767,7.62,32.52,-40.5
1553843272332,4.2211065,5.355993,10.932259,-0.2455324,0.08706174,0.013944831999999999,8.22,32.52,-40.98
1553843272352,3.7781656000000003,2.6360965,10.364816000000001,-0.124581076,-0.22264694,0.08724867,7.56,31.8,-41.52
1553843272373,2.928198,1.2809371,8.925857,0.08738916,-0.3802502,0.07686395,6.96,30.96,-41.04
1553843272393,2.3679377999999995,0.6296943,7.666467999999999,0.08922175,-0.22020347,0.05609453,6.54,31.32,-41.28
1553843272412,2.3990633,0.09577099,7.2785953999999995,0.0091984095,-0.012509298500000002,0.016388291,6.8399997,31.619999,-41.28
1553843272432,2.5714512000000003,0.47406640000000005,7.573091000000001,0.011031005,0.13837442,-0.073408894,6.8999996,31.98,-41.1
1553843272453,2.7414446,1.2498114,8.291373,0.11121291,0.21167825,-0.12044552,6.66,32.399998,-41.34
1553843272473,3.1412885,2.3751206000000002,9.354432000000001,0.14114529,0.24466497,-0.09723264,6.54,31.98,-40.44
1553843272493,3.9266107000000003,4.063084,10.185245,-0.028675236,0.18480018,-0.022096219,7.08,31.98,-39.54
1553843272512,4.1899809999999995,5.2458563,10.829305,-0.18566760000000002,0.10966375,0.026773002,7.9199996,32.34,-39.0
1553843272533,3.806897,3.1843855,10.391152,-0.17894809,-0.14506707,0.111072406,7.3199997,31.679997999999998,-39.239998
1553843272553,3.1843855,1.8507744,9.560339,-0.049444657,-0.34237653,0.11473759,6.8999996,31.679997999999998,-40.44
1553843272572,2.5738453999999997,1.0271438,8.348836,0.009809273,-0.30328116,0.08724867,7.259999799999999,32.28,-40.92
1553843272592,2.4277947,0.28731298,7.57788,-0.010349279,-0.11330206,0.04143377,7.3799996,32.1,-40.62
1553843272613,2.5858168999999998,0.009577099,7.4438004,0.011641869,0.06995751,-0.050196017999999995,7.3199997,31.859999,-40.26
1553843272632,2.7246847,0.5770202,7.92505,0.12343021,0.12676798,-0.12838677,7.5,32.04,-40.44
1553843272652,2.9497466,1.472479,8.849239,0.24682498,0.14937,-0.14915618,7.3799996,32.34,-39.84
1553843272672,3.3591676,2.6863763,9.407105,0.25782055,0.14509393,-0.10273043,7.14,32.34,-39.0
1553843272692,3.9864676,3.8571767999999995,9.797373,0.101439066,0.18724364,-0.005602856,7.3799996,31.619999,-39.12
1553843272712,4.264203500000001,4.965726,10.257073,-0.10992031,0.19701749,0.034103386,7.98,31.08,-39.12
1553843272735,4.2019525,4.1899809999999995,10.594666499999999,-0.17589375,-0.014341895,0.12206798,7.98,31.199999,-39.239998
1553843272752,3.3448019999999996,2.1620302000000002,9.8237095,-0.047001194,-0.34726346,0.16299595,7.08,31.32,-39.899998
1553843272772,2.5570855,1.3264283000000001,8.973742,0.01652879,-0.36803287,0.14039394,7.08,31.619999,-40.32
1553843272792,2.2889266,0.7685622,7.905895,-0.056775037,-0.14262360000000002,0.10007682400000001,7.3799996,31.98,-40.86
1553843272813,2.5044115000000002,0.36392978,7.470137599999999,-0.09709214,0.045522900000000005,0.038379442,6.7799997,31.92,-41.34
1553843272833,2.6456738,0.28731298,7.6640735,0.044628594,0.15181345,-0.08257188,6.6,31.5,-40.739998
1553843272853,2.6863763,1.0127783000000001,8.291373,0.23521855,0.1615873,-0.14610186,6.8999996,32.219997,-40.5
1553843272872,2.9042554,2.0471049999999997,8.947405,0.33601132,0.14814825,-0.14671272,6.96,32.04,-41.1
1553843272893,3.347196,3.4860642,9.411894,0.25049016,0.18663277,-0.08257188,7.3199997,31.14,-40.86
1553843272912,3.8978794000000003,4.4485626,9.950606,0.05134811,0.22572815,-0.02453968,7.7999997,31.5,-41.1
1553843272933,4.288146,5.0184,10.707197,-0.17772634,0.14448306,0.0408229,7.68,31.5,-41.94
1553843272953,3.8739367,2.9808722000000003,10.134965,-0.1416853,-0.20432098,0.109850675,7.259999799999999,31.439999,-41.76
1553843272973,3.0479119999999997,1.7981004,9.323306,-0.050666384,-0.37658498,0.09457904,7.02,31.26,-41.399998
1553843272992,2.3751206000000002,1.2617828000000002,8.389539,-0.04639033,-0.25257933,0.048764154000000004,6.8399997,31.32,-41.52
1553843273013,2.3487834999999997,0.75659084,7.881953,-0.10014647,-0.04121997,0.0060035832999999995,7.2,31.8,-40.92
1553843273032,2.5906053,0.679974,7.905895,-0.10014647,0.10599856,-0.04836342,7.259999799999999,31.199999,-40.559998
1553843273053,2.760599,1.0055954,8.28898,0.0037006216999999997,0.16586336,-0.11311514,7.02,31.619999,-40.8
1553843273072,2.8635526000000002,1.6161355,8.621783,0.12404107,0.16036557,-0.13266283,6.96,32.64,-40.86
1553843273093,3.1652312,2.5235654999999997,9.0838785,0.1588604,0.13532008,-0.09540005,6.8999996,32.34,-41.1
1553843273112,3.5554981,3.5339496,9.3831625,0.03241129,0.123102784,-0.037978712000000005,6.96,31.619999,-41.34
1553843273133,3.9864676,4.616162,10.122993,-0.15451348,0.10355510000000001,-0.011100643,6.8999996,31.019999,-41.7
1553843273152,3.9194279,3.8380224999999997,10.376787,-0.17650463,-0.0406091,0.03288165,6.6,31.56,-41.64
1553843273172,3.4118416,1.9944308999999998,9.629773,-0.07693359,-0.26174232,0.056705399999999996,7.02,31.74,-41.16
1553843273192,2.6863763,1.2617828000000002,8.707977,0.03302215,-0.2794574,0.056705399999999996,6.8399997,31.32,-40.8
1553843273212,2.3727264,0.63208854,7.860403999999999,0.04401773,-0.116356395,0.05914886,6.8399997,31.38,-41.04
1553843273232,2.4421604,0.53392327,7.620977000000001,0.0012571607,0.033916462,0.04143377,7.44,31.439999,-41.28
1553843273252,2.7055306,1.1995316999999999,8.236305,3.5430185000000004e-05,0.16097642,0.0060035832999999995,7.7999997,31.859999,-41.1
1553843273272,3.371139,2.3918805,9.304152,-0.061661962,0.23305853,-0.0153767,7.44,32.46,-41.219997
1553843273292,4.000833,4.0822387,10.273833,-0.183835,0.15670037,-0.003159395,6.96,32.1,-41.879996999999996
1553843273312,3.8571767999999995,4.06069,10.64734,-0.11663983,-0.057713325999999995,0.007836179,7.08,31.619999,-41.52
1553843273333,3.3424077000000003,2.0375278000000003,9.699207000000001,0.035465613,-0.22264694,0.04632069,7.62,31.5,-41.579997999999996
1553843273353,2.8467927000000004,1.324034,8.707977,0.10449339,-0.2605206,0.036546845,7.08,31.38,-40.92
1553843273373,2.5618742,0.84996754,7.762239,0.07211753,-0.15056485,0.018220888,6.8999996,31.619999,-40.14
1553843273392,2.7055306,0.8930645,7.5060515,0.012863601,0.051020685999999996,-0.008657183,8.04,32.399998,-39.18
1553843273412,2.971295,1.446142,8.279403,0.022637444,0.20190439999999998,-0.04103304,8.76,31.26,-36.42
1553843273433,3.5387383000000003,2.6624336,9.500483000000001,0.0018680259,0.24771929999999998,-0.034924388,8.88,30.539998999999998,-35.16
1553843273453,3.816474,3.5866237,10.151725,-0.028064372,0.10050077,-0.0043811253,8.88,31.199999,-34.98
1553843273472,3.5076127,3.2179053,10.060742,0.036076482,-0.06504371,0.0060035832999999995,8.519999499999999,31.08,-35.1
1553843273492,3.1388943,2.1237217999999998,9.26345,0.068452336,-0.13773668,0.012723101,8.099999,30.779999,-35.399998
1553843273512,2.796513,1.6041641000000002,8.710372,0.053180705999999994,-0.13468234,-0.0049919905,7.68,30.779999,-35.04
1553843273533,2.6432792999999997,1.5131816999999999,8.214757,3.5430185000000004e-05,-0.0015137241,-0.020263622,7.74,31.019999,-34.8
1553843273553,2.8779182,1.786129,8.506859,-0.059829365,0.12371366,-0.015987566,7.98,30.66,-35.04
1553843273572,3.2873392,2.3751206000000002,9.165284,-0.07265753,0.15059172,-0.014154969,7.98,30.42,-35.579997999999996
1553843273592,3.6105663999999997,2.9521408,9.747093,-0.04455773,0.043690305,-0.0068245865,8.34,31.26,-35.46
1553843273613,3.301705,2.4445546,9.454991,0.042795997,-0.09741957,-0.0013267993,8.099999,31.619999,-38.16
1553843273633,2.9473522,1.8699286,8.882759,0.061732817,-0.0968087,-0.016598431,7.3199997,31.74,-41.7
1553843273652,2.7127132,1.7741576000000001,8.523619,-0.005462356999999999,-0.018007086999999998,-0.04286563400000001,6.8999996,32.16,-41.46
1553843273672,2.8491871,1.9728824,8.470944,-0.10320080000000001,0.11332894,-0.04836342,6.2999997,31.56,-40.68
1553843273692,3.2849449999999996,2.3727264,9.110215,-0.17039597,0.16036557,-0.04897429,6.42,31.32,-40.62
1553843273712,3.7135203000000003,2.8372157000000002,9.943423,-0.19483058,0.04185771,-0.04103304,7.3799996,31.32,-40.379996999999996
1553843273732,3.632115,2.9329867000000003,10.0439825,-0.19544145,-0.11574552,-0.008046316999999999,7.08,31.32,-39.96
1553843273752,3.1987512000000002,2.1500587,9.399923,-0.11053118,-0.14506707,0.017610023,6.66,31.859999,-39.84
1553843273773,2.832427,1.3431882,8.631361,-0.026231775,-0.06626544,0.014555697,6.8399997,31.439999,-39.239998
1553843273793,2.8635526000000002,1.132492,8.494887,0.010420139,-0.03572218,0.018831754,6.8399997,31.38,-40.2
1553843273813,2.8180614,1.0199611,8.300951,0.03851994,-0.04671775,0.014555697,7.3199997,32.04,-40.62
1553843273832,2.8491871,1.0678465,8.265037,0.11609982,0.0033731977000000003,-0.02820487,7.08,32.34,-40.32
1553843273852,2.8420042999999997,1.5730386,8.425453,0.20834048,0.086450875,-0.04775256,6.72,32.52,-40.559998
1553843273873,3.1341057,2.2147042999999997,8.906702000000001,0.20039923,0.16708508,-0.017820163,7.08,32.82,-40.739998
1553843273894,3.6704233,3.1963567999999998,9.632168,0.0073658134999999994,0.16403076,0.013333966000000001,6.72,32.76,-41.1
1553843273913,4.0032277,4.625739,10.336084,-0.28462777,0.09622472,0.020053484,6.7799997,32.52,-41.219997
1553843273932,3.7638,3.8643596,10.767054,-0.27546477,-0.033889584,0.030438194,7.14,31.92,-41.04
1553843273952,3.1508656000000004,2.2170985,9.754275,-0.10320080000000001,-0.19149281,0.067700975,7.14,31.56,-40.62
1553843273972,2.49244,1.2138973,8.420665,0.036687344,-0.20493186,0.07625309,7.5,32.64,-40.62
1553843273992,2.3224466,0.42378664,7.776604700000001,0.04646119,-0.1285737,0.049985882,7.3799996,32.94,-40.92
1553843274013,2.3727264,-0.16759923,7.242681500000001,0.08738916,-0.036333042999999995,-0.013544105,6.8999996,32.1,-40.8
1553843274032,2.3823035,0.34956414,7.3025384,0.17046683,0.044912033,-0.094789185,6.8999996,32.16,-40.5
1553843274053,2.5762396,1.3934678999999999,8.209969000000001,0.2535445,0.22145209,-0.13754974,6.7799997,32.28,-40.739998
1553843274072,3.241848,2.5283542000000003,9.428655000000001,0.19551231,0.30391890000000005,-0.08868053,6.42,32.28,-40.68
1553843274092,4.1780095,4.4485626,10.556357,-0.07082493599999999,0.30941668,-0.0074354519999999995,6.8999996,32.16,-40.8
1553843274113,4.685596,6.3304625,12.198831,-0.36220768,0.12065932,0.013333966000000001,7.02,31.619999,-40.98
1553843274132,4.0894213,3.529161,11.300977,-0.2333151,-0.29595077,0.10435289,7.02,32.04,-40.92
1553843274152,2.9593236000000003,1.4868447,9.404712,0.015307061,-0.52685785,0.12512231,6.96,32.579997999999996,-41.16
1553843274172,2.152453,0.73743665,7.7335076,0.06600887,-0.36925462,0.112904996,6.2999997,32.16,-40.86
1553843274193,2.3368123,-0.09337672,7.063111,-0.038449082999999995,-0.08153707,0.07380962,6.3599997,32.7,-40.26
1553843274212,2.5068057,-0.28731298,6.960157000000001,-0.021344852,0.08584,-0.009268047,6.54,32.94,-41.04
1553843274235,2.6791935000000002,0.5363176,7.589851400000001,0.15641694,0.19151969,-0.13021936,6.96,32.64,-41.46
1553843274252,2.8491871,1.4557191,8.516436,0.26881614,0.24771929999999998,-0.14426927,7.62,32.1,-38.16
1553843274272,3.337619,2.7103189999999997,9.821315,0.30058113,0.21656518,-0.094789185,8.28,31.14,-35.399998
1553843274293,3.9960446000000003,4.3575800000000005,10.360027,0.09655214,0.21900864,0.018831754,8.46,31.32,-36.0
1553843274312,4.2977233,5.8156934,10.970566999999999,-0.22476299,0.23489113,0.029216462999999998,8.4,31.199999,-36.48
1553843274332,4.1780095,4.577853,10.776631,-0.32494488,-0.033889584,0.08908126,8.22,30.779999,-36.3
1553843274352,3.2729738,1.9034485,9.953,-0.15878953,-0.42301074,0.11840279,8.519999499999999,31.08,-35.88
1553843274372,2.4349775,1.1420691,8.763046000000001,-0.010960144,-0.453554,0.102520294,9.0,31.199999,-35.579997999999996
1553843274392,2.2266755000000003,0.5913859,7.7335076,-0.04761206,-0.20798618,0.09152472,8.4,31.74,-35.04
1553843274412,2.432583,0.023942748,7.3121149999999995,-0.10258993,0.0143687725,0.039601172999999996,8.28,31.92,-35.52
1553843274432,2.5546912999999996,0.16281068,7.474925999999999,-0.025010044,0.15120259,-0.050806884000000004,8.46,31.38,-36.12
1553843274452,2.6337023,0.8284190999999999,8.116591,0.15397346,0.18052413,-0.12716503,8.4,31.5,-35.399998
1553843274472,2.9617178,1.8699286,9.047964,0.28347690000000003,0.16219817,-0.13449542,7.62,31.859999,-37.14
1553843274492,3.45015,3.0838259999999997,9.670475999999999,0.24254893,0.124324515,-0.06974371,7.259999799999999,31.5,-37.98
1553843274512,4.010410299999999,4.558699,9.912297,-0.03600562,0.18602191,-0.012322373999999999,7.3799996,31.14,-38.46
1553843274533,4.2570205,5.643306,10.884374000000001,-0.2644692,0.15242432,0.0029492574,7.3799996,31.56,-40.379996999999996
1553843274552,3.8212626000000003,2.9425638,10.46777,-0.20521529,-0.20554271,0.092746444,6.96,31.859999,-40.379996999999996
1553843274573,2.9521408,1.3838909,9.512454,-0.03478389,-0.43095198,0.0970225,6.66,32.04,-40.14
1553843274592,2.3751206000000002,0.8475733,8.195602000000001,-0.0042406265000000005,-0.29289645,0.083583474,7.3199997,32.34,-40.98
1553843274613,2.4277947,0.24421602,7.616188,-0.05616417,-0.076039284,0.06037059,6.7799997,32.88,-40.86
1553843274632,2.5714512000000003,0.098165266,7.434222999999999,-0.031118697999999997,0.08278568,-0.0025485298,6.8399997,33.0,-40.86
1553843274653,2.6193366,0.48364350000000006,7.8268843,0.13748012,0.14814825,-0.09356745,7.5,32.7,-41.16
1553843274673,2.8300327999999997,1.333611,8.636149000000001,0.301192,0.18052413,-0.12411071,7.14,32.1,-40.559998
1553843274692,3.3040992999999994,2.5403256,9.390346000000001,0.33723304,0.124324515,-0.09723264,7.14,31.8,-40.559998
1553843274712,3.859571,3.9146392,9.687236,0.17168857,0.16280901,-0.026372273999999998,8.04,31.619999,-40.739998
1553843274733,4.1612496,5.4062724,10.609032000000001,-0.13252233,0.24649756,-0.026983137999999997,7.8599997,31.5,-41.46
1553843274752,4.2211065,4.4318027,10.683254,-0.23759116,0.00826012,0.062203187,6.8399997,31.5,-41.76
1553843274773,3.4142358,2.0183737,9.730332,-0.11908329,-0.34359828,0.12817663,6.48,31.38,-41.399998
1553843274792,2.6001825000000003,1.2258687,8.806142999999999,0.0043114866,-0.38819143,0.11840279,6.42,31.38,-40.86
1553843274812,2.3727264,0.79250497,7.920261,-0.01157101,-0.18538415,0.10068769999999999,6.54,31.5,-40.8
1553843274832,2.4637089,0.4956149,7.56112,-0.04761206,0.011925311000000001,0.048764154000000004,7.14,31.5,-41.399998
1553843274852,2.569057,0.56265455,7.7933645,0.014085331000000001,0.15120259,-0.050196017999999995,7.259999799999999,31.439999,-41.52
1553843274872,2.6887705000000004,1.2043202,8.370385,0.14847568,0.21717604,-0.121056385,6.48,31.92,-41.399998
1553843274893,3.0790374,2.2386470000000003,9.141341,0.18085155,0.22084123,-0.12349985,6.18,31.859999,-41.16
1553843274912,3.5435266000000003,3.4812756,9.694419,0.07333925,0.16525249,-0.08990226,7.02,31.859999,-41.219997
1553843274932,4.000833,4.8843207,10.371999,-0.16245472,0.123102784,-0.04103304,7.3799996,31.56,-41.46
1553843274953,3.9888617999999996,4.383917299999999,10.520444,-0.24431066,-0.00334632,0.029216462999999998,7.02,31.08,-41.46
1553843274972,3.5195839999999996,2.0949904999999998,9.917086999999999,-0.10564425599999999,-0.28251174,0.08724867,6.8999996,31.619999,-40.92
1553843274992,2.7222904999999997,1.0846065,8.775017,0.067230605,-0.3552047,0.075031355,7.14,32.219997,-40.86
1553843275012,2.4182177000000005,0.56744313,7.7861814,0.07333925,-0.17866464,0.057316266,6.6,32.34,-41.46
1553843275033,2.4780743,0.33040990000000003,7.4964743,-0.021344852,0.03758165,0.022496943999999998,6.18,32.1,-41.399998
1553843275052,2.7246847,0.9074302,8.042369,-0.023177449,0.14875913,-0.04286563400000001,6.2999997,31.56,-40.8
1553843275073,3.0550947,1.924997,8.909097000000001,0.040352535,0.22023036,-0.059359,6.6,31.56,-40.739998
1553843275092,3.7087317000000004,3.3040992999999994,9.780613,0.0018680259,0.21167825,-0.031259197999999995,6.8399997,31.98,-40.739998
1553843275112,4.0319586,4.716721499999999,10.395941,-0.10747685,0.11516154,-0.003159395,6.8399997,32.04,-40.92
1553843275132,3.7494342000000005,3.8667538,10.321719,-0.14473964,-0.07237409,0.050596748,7.02,31.98,-41.1
1553843275152,3.232271,2.1285102000000005,9.699207000000001,-0.11969416,-0.23669684,0.08847039,6.48,31.679997999999998,-40.98
1553843275173,2.7270790000000003,1.201926,8.652909,-0.037838212999999996,-0.26296404,0.075031355,6.24,31.32,-41.1
1553843275192,2.4996228,0.409421,7.666467999999999,-0.006073222,-0.13101715,0.038990308,6.2999997,31.439999,-41.219997
1553843275212,2.5115943,0.06464542,7.388732000000001,0.02813523,0.028418673,-0.031259197999999995,6.6,31.679997999999998,-41.46
1553843275233,2.5882110000000003,0.53871185,7.7526617,0.16374731,0.10905289,-0.12533244,7.14,32.16,-40.739998
1553843275252,2.7486273999999997,1.4844503,8.743892,0.31157670000000004,0.17869152,-0.1577083,7.5,32.34,-40.379996999999996
1553843275272,3.2729738,2.7893302,9.325700999999999,0.24438153,0.21106738,-0.11189341,7.62,32.1,-41.04
1553843275292,4.0319586,4.314483,9.93624,-0.0042406265000000005,0.23611285,-0.042254772,7.3199997,32.04,-40.68
1553843275312,4.3240604000000005,5.8204823,10.956202000000001,-0.2907364,0.20862392,-0.012322373999999999,7.14,30.96,-40.86
1553843275333,3.938582,3.6943660000000005,10.757477,-0.28523865,-0.16705821,0.09152472,6.72,31.08,-40.92
1553843275353,2.9832664,1.6759924,9.660899,-0.11480723,-0.44316933,0.13306355,6.8399997,31.92,-40.62
1553843275372,2.3296294,0.85236186,8.293768,-0.036616486000000004,-0.3802502,0.111072406,6.72,32.04,-40.739998
1553843275393,2.2123098,0.29449580000000003,7.458166,-0.08976176400000001,-0.14628878,0.06586838,6.54,32.28,-40.92
1553843275412,2.4517374,0.045491222000000005,7.1995845,-0.08059879,0.09744645,-0.019652756,6.7799997,32.219997,-41.04
1553843275432,2.6193366,0.40463245,7.683228,0.08372397,0.21228911,-0.12044552,6.6,31.98,-40.079997999999996
1553843275452,2.8252442,1.3383996,8.686428999999999,0.26942699999999997,0.22939335,-0.15526484,6.48,31.8,-39.899998
1553843275472,3.3495904999999997,2.4876516,9.7135725,0.33723304,0.13470922,-0.10822822,6.18,31.859999,-40.02
1553843275492,3.9242165,3.7949257000000003,9.715967,0.19673404,0.108442016,0.007225314,6.3599997,31.439999,-38.879996999999996
1553843275512,4.235472,5.109382599999999,10.338479,-0.14657223,0.1982392,0.04632069,6.7799997,31.38,-38.879996999999996
1553843275533,4.14449,4.7071442999999995,10.61382,-0.2772974,0.030862134,0.07869655,7.2,31.679997999999998,-39.66
1553843275552,3.3783216,2.2170985,9.759064,-0.20949134,-0.30816808,0.11595933,7.02,31.8,-40.02
1553843275573,2.5810282000000004,1.3360053,9.268238,-0.12946801,-0.39674354,0.09030299,7.14,31.859999,-40.62
1553843275592,2.3296294,0.7541966,8.437425,-0.11236378,-0.23242079,0.079307415,6.8999996,32.34,-41.04
1553843275612,2.4613144,0.31125572,7.6305537,-0.13618751,-0.012509298500000002,0.045709822000000004,6.06,32.399998,-40.8
1553843275633,2.5810282000000004,0.23224466,7.491686,-0.06899234,0.16097642,-0.025150542999999997,5.8799996,32.219997,-40.739998
1553843275652,2.6983478,0.6344828,8.013638,0.14664309,0.1896871,-0.10273043,7.08,32.82,-40.379996999999996
1553843275672,3.0000262,1.5658557,8.863605499999998,0.33478957,0.13959615,-0.12227812,7.44,32.64,-40.079997999999996
1553843275692,3.4142358,2.743839,9.244295,0.35067209999999993,0.06629232,-0.08073928,6.7799997,32.1,-40.559998
1553843275712,3.8691480000000005,3.9673133000000003,9.656111,0.12648453,0.15120259,-0.019652756,6.8399997,32.28,-40.98
1553843275732,4.1540666,5.4589467,10.565935000000001,-0.21010222,0.22145209,-0.022707082000000003,7.3199997,32.399998,-41.04
1553843275753,3.9960446000000003,3.840417,10.577906,-0.28829297,-0.03694391,0.06403578,7.44,31.679997999999998,-40.739998
1553843275772,3.2346652000000002,1.6879636999999998,9.703996,-0.16489819,-0.35459384,0.0848052,7.56,31.32,-40.86
1553843275793,2.5020173,0.9217958,8.952193,-0.053109847,-0.36070248,0.06464665,7.68,31.439999,-39.6
1553843275812,2.3631492,0.339987,7.9346266000000005,-0.028064372,-0.17988639,0.04632069,6.96,31.619999,-38.579997999999996
1553843275833,2.4517374,0.05985687,7.465348700000001,-0.022566582999999998,-0.019839682,0.01944262,6.96,31.859999,-38.7
1553843275852,2.604971,0.28731298,7.781393,0.11671069,0.14509393,-0.08196101,6.42,32.28,-38.94
1553843275872,2.832427,1.0798178999999999,8.600235000000001,0.2938616,0.18541104,-0.13083023,6.72,31.679997999999998,-39.3
1553843275892,3.4333901,2.4493432,9.323306,0.32257226,0.14875913,-0.11250427,6.96,31.8,-40.2
1553843275912,3.9409763999999994,4.07745,9.541185,0.1429779,0.16341989,-0.06424592,6.6,32.34,-41.16
1553843275933,4.163644000000001,6.0000525,10.575512,-0.17406116,0.21839777,-0.04286563400000001,6.18,32.04,-41.04
1553843275952,4.0678730000000005,5.209942,10.745505,-0.27851912,0.039414246,0.053651072,6.54,31.74,-40.92
1553843275972,3.562681,2.638491,9.809344,-0.20216097,-0.28617695,0.13733962,7.02,31.32,-40.739998
1553843275993,2.6360965,1.0774237,8.73192,-0.11480723,-0.3393222,0.121457115,7.02,32.399998,-40.379996999999996
1553843276012,2.3272352,0.42378664,7.695199000000001,-0.10503339,-0.10841514,0.10190942,7.259999799999999,31.92,-40.92
1553843276032,2.4206119,0.14365649,7.2211327999999995,-0.114196375,0.08278568,0.07380962,7.08,32.16,-40.44
1553843276053,2.5068057,0.40223816,7.738296000000001,0.0037006216999999997,0.25688225,0.0023383922,6.7799997,32.46,-40.32
1553843276072,2.7342618,1.1277034,8.389539,0.1851276,0.25688225,-0.04286563400000001,6.72,32.28,-40.14
1553843276092,3.0024207,1.7406378,8.858817,0.29263988,0.10050077,-0.05874813,7.3199997,32.399998,-40.26
1553843276112,3.11974,2.8180614,9.27542,0.36533284,0.055296745,-0.026372273999999998,7.3199997,32.16,-41.52
1553843276132,3.2825508,3.301705,9.692024,0.2590423,0.17808066,-0.02453968,6.96,31.92,-41.7
1553843276153,3.7709827000000007,4.8220696,10.79818,-0.18200241,0.30269718,-0.045309097,6.96,30.9,-41.16
1553843276172,3.9313992999999994,3.8021083,10.486922999999999,-0.34815773,0.021699157,0.05609453,7.68,30.599998,-40.8
1553843276193,3.3663504,2.1716073,9.668080999999999,-0.33899477,-0.2305882,0.0848052,7.68,30.48,-40.92
1553843276212,2.6121537999999997,1.2617828000000002,9.055147,-0.22415212,-0.31000066,0.07991828,7.3799996,31.8,-40.8
1553843276232,2.3344178,0.5961744000000001,8.612206,-0.055553306,-0.25929886,0.06464665,6.7799997,32.1,-39.899998
1553843276253,2.2841382,0.20111908,8.020821,0.13014974,-0.0986413,0.016999159,7.02,32.399998,-39.96
1553843276273,2.5235654999999997,0.1340794,7.759844999999999,0.22483385,0.05957280000000001,-0.08990226,6.72,32.219997,-40.079997999999996
1553843276292,2.6983478,0.7589851,8.188419999999999,0.2590423,0.18296757,-0.17420167,6.72,32.16,-40.02
1553843276312,3.1748084999999997,2.0231621,8.779805999999999,0.22788817,0.27887340000000005,-0.2016906,6.8999996,32.579997999999996,-39.899998
1553843276333,3.7230972999999996,3.371139,9.641745,0.06539801,0.26299092,-0.16381696,7.14,32.76,-40.86
1553843276353,4.017593,4.73827,10.592272,-0.18688932,0.12737885,-0.105173886,7.5,31.98,-41.04
1553843276372,3.8787252999999997,4.9872746,10.616214999999999,-0.30967325,-0.03694391,-0.036756985,7.259999799999999,31.26,-40.26
1553843276392,3.5411325,2.4277947,10.132571,-0.18688932,-0.2757922,0.046931557,7.02,31.74,-39.42
1553843276413,2.6504622,1.0462981,9.091061999999999,0.03363302,-0.3588699,0.016999159,6.8999996,32.1,-39.96
1553843276432,2.3320236,0.8667275,8.130958,0.08433483,-0.21470569,-0.02453968,7.3799996,31.859999,-40.5
1553843276452,2.3846977000000003,0.5889916000000001,7.884347,0.10327166,-0.06504371,-0.04836342,7.08,32.1,-40.379996999999996
1553843276472,2.6863763,0.48364350000000006,7.4797144,0.18024068,0.08889433,-0.12655418,6.2999997,32.28,-39.36
1553843276492,2.6983478,1.0175668,7.755056,0.22422297,0.22145209,-0.18886243,6.24,31.8,-38.52
1553843276513,3.0263633999999997,2.0231621,8.739103,0.24438153,0.26787785,-0.19191676,7.98,30.96,-37.38
1553843276533,3.4238129,3.0622776000000003,9.804555,0.15336262,0.26054746,-0.14915618,7.2,31.619999,-39.96
1553843276552,3.7877428999999996,4.005622,10.601849000000001,-0.025620911,0.18296757,-0.097843505,6.66,31.619999,-41.16
1553843276572,3.7733772000000005,4.757423999999999,10.834093,-0.10258993,0.06812491,-0.06852197,6.3599997,31.619999,-40.379996999999996
1553843276593,3.572258,2.9138324,10.032011,-0.025620911,-0.12613024,-0.0037702604,7.5,31.26,-38.28
1553843276613,3.0287576,2.0518935000000003,8.985713,0.07517185,-0.17499945,0.010890506000000001,7.9199996,31.14,-39.54
1553843276632,2.6121537999999997,1.7957061999999997,8.494887,0.07700445,-0.1249085,0.00905791,7.08,31.439999,-41.34
1553843276653,2.5211713,1.6305011999999999,8.186026,0.071506664,-0.024726603,0.01944262,6.8999996,31.14,-40.8
1553843276673,2.6767993,1.2546,8.229122,0.13992357,-0.00334632,-0.017209295,7.02,30.96,-40.5
1553843276692,2.7079248,1.1684061000000001,8.190814,0.18634933,0.04674463,-0.08929139400000001,6.8399997,30.599998,-41.04
1553843276712,2.7893302,1.6328955,8.509253,0.23094249,0.09500299,-0.15893003,6.48,30.72,-39.84
1553843276733,2.7103189999999997,2.4637089,8.705584,0.23338595,0.16586336,-0.17603426,6.6,31.08,-40.5
1553843276752,2.7941186,3.2610023,9.179649000000001,0.10266079,0.2703213,-0.1173912,6.3599997,31.199999,-41.879996999999996
1553843276772,3.3088877,4.2211065,10.1206,-0.14718309,0.22817162,-0.061802458,6.2999997,31.14,-41.7
1553843276793,3.5483153,4.582642,11.159715,-0.29867768,-0.036333042999999995,-0.020874487,6.72,30.779999,-41.579997999999996
1553843276812,3.337619,2.9760835,10.79818,-0.10197906,-0.27640307,0.004170988,6.24,30.72,-42.0
1553843276832,2.7103189999999997,2.370332,8.784595,0.10693685,-0.25196847,0.028605599,5.8799996,30.779999,-41.82
1553843276853,2.3416007000000003,1.8771113999999998,7.692805,0.12587367,-0.116356395,0.02188608,6.3599997,30.9,-41.219997
1553843276873,2.2242813,1.0271438,7.3001437000000005,0.086167425,-0.077261016,-0.00010506882,6.18,31.92,-41.7
1553843276892,2.2697724999999997,1.0199611,7.3767605,0.036076482,0.01986656,-0.04408737,6.06,31.56,-41.879996999999996
1553843276913,2.6432792999999997,1.8651401,8.130958,0.01958312,0.12249192,-0.085015334,6.48,30.359999,-41.82
1553843276932,2.978478,2.6360965,8.968952999999999,0.022637444,0.18541104,-0.10456303,6.6,30.539998999999998,-41.579997999999996
1553843276952,3.1317115,3.0718546,9.732727,0.08189137,0.12371366,-0.09234572,6.48,31.08,-41.52
1553843276972,2.9377751,3.4788813999999997,9.732727,0.12892799,0.014979636999999999,-0.05630467,6.18,31.14,-41.1
1553843276992,2.8707354,3.4309957000000004,9.488511,0.07700445,-0.01495276,0.007225314,6.24,31.08,-41.399998
1553843277012,3.0957972999999996,3.4357843,9.6585045,-0.06960321,-0.02778093,0.042044632,7.08,30.179997999999998,-40.86
1553843277033,3.1580484,3.2801563999999996,9.859624,-0.10381166,-0.05221554,0.043266362999999995,6.6,30.179997999999998,-41.04
1553843277053,3.0479119999999997,2.8084843,9.261055,-0.04883379,-0.06321111,0.05548367,5.94,30.599998,-42.36
1553843277073,2.7845416000000003,2.2625897,8.506859,0.014696196000000002,-0.07359582,0.0707553,6.54,30.96,-41.879996999999996
1553843277093,2.6169424,1.664021,8.164477,0.036687344,-0.0986413,0.054872803,5.8799996,31.019999,-42.6
1553843277113,2.6504622,1.2953026,8.008849,0.03302215,-0.10719341,-0.012322373999999999,6.12,30.359999,-41.94
1553843277132,2.6863763,1.6688095,8.181237,0.010420139,-0.005178915300000001,-0.08929139400000001,6.24,30.599998,-41.28
1553843277153,2.8108785,2.47568,8.801354,-0.037227347,0.12127019,-0.1173912,5.3399997,31.38,-41.579997999999996
1553843277172,3.0263633999999997,2.8396098999999997,9.438231,-0.031118697999999997,0.14570479999999997,-0.09417831,6.0,31.8,-41.52
1553843277192,3.1580484,3.0215747000000004,9.783007000000001,0.061121956,0.03758165,-0.054472078,6.42,31.679997999999998,-42.3
1553843277212,2.9665065,2.9952377999999995,9.318518,0.14419962,-0.06504371,0.00050579646,6.72,30.9,-42.239998
1553843277232,2.9832664,2.6552507999999997,9.052753,0.102049924,-0.096197836,0.040212035,6.24,30.66,-42.48
1553843277252,3.0431232,3.0838259999999997,9.261055,0.0018680259,-0.054659000000000006,0.031659923,5.7,30.3,-42.239998
1553843277272,3.0957972999999996,3.2538195,9.445414999999999,-0.051277254,-0.029613525,0.039601172999999996,5.7,30.48,-41.399998
1553843277293,3.189174,2.6265194,9.131764,-0.0017971654999999998,-0.04977208,0.04143377,6.06,30.84,-42.6
1553843277313,3.067066,2.3583608,8.631361,0.011641869,-0.0406091,0.031659923,6.3599997,30.84,-42.66
1553843277333,2.9090437999999996,2.3990633,8.356019,-0.037838212999999996,-0.0027354546,0.020053484,6.42,30.9,-41.219997
1553843277353,2.8156672,2.4852571,8.514041,-0.09342695,0.06690318,0.005392718,5.64,30.3,-41.16
1553843277372,2.7893302,2.5068057,8.9498,-0.07204667,0.086450875,-0.010489778,5.64,30.42,-42.12
1553843277392,2.6624336,2.3655436,9.062330000000001,0.014696196000000002,0.049188092,-0.012322373999999999,6.72,30.96,-41.82
1553843277412,2.569057,2.4254005000000003,8.827691,0.062343687,0.013147042,0.00905791,6.3599997,30.96,-41.879996999999996
1553843277432,2.6744049,2.7558103,8.889942,0.0061440826,-0.0057897805,0.03288165,5.7599998,30.66,-42.42
1553843277453,2.9808722000000003,3.397476,9.404712,-0.14657223,0.0027623328000000004,0.05609453,5.7,30.119999,-42.12
1553843277473,3.2250881000000002,3.840417,10.012857,-0.2644692,-0.0070115114,0.07808568,6.18,30.72,-41.879996999999996
1553843277493,3.3759273999999997,3.1341057,9.972155,-0.20338269,-0.07481755,0.08175088,6.0,30.66,-40.68
1553843277512,3.2562137000000004,2.2673783,9.081485,-0.086707436,-0.1249085,0.081140004,5.8199997,30.42,-39.78
1553843277532,2.8443985,1.5323358999999999,8.013638,-0.038449082999999995,-0.068708904,0.057316266,6.42,31.26,-39.3
1553843277553,2.6001825000000003,1.010384,7.515629,-0.04089254,0.0125361765,0.010279640999999999,5.64,31.74,-39.96
1553843277572,2.351178,1.2522057,7.474925999999999,-0.061051093,0.10233337,-0.042254772,5.2799997,30.779999,-40.62
1553843277592,2.5020173,2.0231621,8.334471,-0.11236378,0.16219817,-0.040422175,6.24,30.84,-41.399998
1553843277614,3.0886145000000003,3.1365,10.051166,-0.22659558,0.07117924,0.0047818534,6.6,31.5,-42.18
1553843277633,3.5985951000000003,4.3168774,11.581107000000001,-0.24980846,-0.04977208,0.048764154000000004,6.42,31.199999,-41.28
1553843277653,3.4022646,3.5890178999999995,10.802968,-0.08059879,-0.12246504400000001,0.07014443,6.0,31.14,-40.559998
1553843277673,2.8611584,2.3870918999999997,8.913885,0.006754948,-0.091921784,0.09213558,6.24,31.38,-41.219997
1553843277692,2.5953939999999998,1.3743136999999999,8.241094,0.03363302,-0.099252164,0.063424915,6.42,32.28,-41.28
1553843277712,2.6001825000000003,0.46209505,7.556331,0.080058776,-0.116356395,-0.012933239,5.8199997,32.64,-41.219997
1553843277733,2.5092,0.6656084,7.187613000000001,0.07578272,-0.006400645999999999,-0.10273043,6.54,32.34,-41.46
1553843277753,2.6696165,1.4078336,7.427040600000001,0.05195898,0.11088548599999999,-0.12655418,6.66,32.219997,-41.34
1553843277772,2.944958,2.4014575000000002,8.760652,-0.028675236,0.19579574,-0.09112399,6.54,32.04,-41.46
1553843277793,3.6081722000000003,4.0128045,10.915499,-0.16367646,0.16647421,-0.012322373999999999,5.8799996,32.52,-41.399998
1553843277812,3.799714,4.702356,11.880392,-0.15329175,0.041246843,0.031659923,5.8199997,32.579997999999996,-41.1
1553843277832,3.2825508,3.241848,10.391152,0.01958312,-0.10108476,0.08541607,5.94,31.74,-41.1
1553843277853,2.8779182,2.1404817000000005,8.988108,0.054402437000000005,-0.13590409,0.098244235,6.8999996,31.199999,-40.02
1553843277872,2.5570855,1.594587,8.195602000000001,0.03729821,-0.12613024,0.093968175,7.259999799999999,31.859999,-40.02
1553843277892,2.5307484000000002,1.3791022,7.9681463,0.007976678000000001,-0.07542842,0.07991828,6.7799997,31.5,-40.86
1553843277913,2.719896,1.1875603000000001,8.272219999999999,0.08433483,-0.052826405,0.027383868,5.8199997,31.8,-42.239998
1553843277933,2.8970726000000004,1.1684061000000001,8.370385,0.21383828,-0.0406091,-0.037367847,5.52,31.5,-41.64
1553843277952,2.9114382,1.8699286,8.209969000000001,0.25965318,0.04185771,-0.06791111,5.8799996,31.32,-40.98
1553843277973,3.0431232,2.6025767,8.758257,0.13259318,0.21228911,-0.03858958,6.42,30.779999,-41.1
1553843277992,3.4525442,3.5387383000000003,9.790189999999999,-0.09159436,0.3198014,0.015777428,6.54,30.9,-41.34
1553843278013,3.9697077000000003,4.9274178,11.229149000000001,-0.33105353,0.21351086,0.049375015999999994,6.72,30.96,-41.28
1553843278032,3.7302802,3.7230972999999996,10.709591,-0.16367646,-0.15361917,0.12206798,6.18,31.74,-41.28
1553843278053,3.1508656000000004,2.2314641,9.45978,0.058678493,-0.29533990000000004,0.14772432,6.66,31.619999,-40.32
1553843278072,2.5666625,1.6807808999999998,8.736709,0.13137145,-0.30755723,0.12512231,6.7799997,31.26,-40.98
1553843278093,2.0878077,0.9816527,7.446194599999999,0.08983262,-0.14140187,0.09335732,6.7799997,30.84,-41.82
1553843278113,2.1476645,0.71588814,7.099025,-0.012181873999999999,0.018033965,0.018220888,6.7799997,31.08,-41.7
1553843278132,2.3655436,1.0846065,7.8556156,-0.028064372,0.13715269,-0.071576305,6.54,31.32,-41.46
1553843278152,2.7677817000000005,1.9656997,8.76544,0.0055332175,0.22206296,-0.10395216,6.24,31.74,-41.04
1553843278172,3.318465,3.0431232,9.771035000000001,-0.06715974,0.23489113,-0.06668938,6.24,31.74,-41.04
1553843278193,3.921822,4.6137676,11.159715,-0.19971749,0.08767260000000002,-0.012933239,6.66,31.56,-41.219997
1553843278212,3.5938065000000003,3.9433705999999997,10.944230000000001,-0.12213762,-0.16827993,0.03104906,6.66,31.92,-40.26
1553843278232,3.0646717999999997,2.3224466,9.555551,0.02569177,-0.27640307,0.053651072,7.14,32.16,-40.559998
1553843278252,2.5044115000000002,1.4605076000000001,8.41827,0.12037589,-0.2568554,0.013944831999999999,7.2,31.8,-41.04
1553843278272,2.2314641,0.8882760000000001,7.623371000000001,0.11060204,-0.14140187,-0.02820487,6.54,31.859999,-40.86
1553843278292,2.4349775,0.8379962,7.233103999999999,0.026302636,0.03635992,-0.066078514,6.0,31.859999,-40.92
1553843278312,2.80609,1.4605076000000001,7.910684,-0.02195572,0.18418932,-0.08196101,6.12,31.26,-41.76
1553843278333,3.407053,2.2865324,9.270632,-0.04761206,0.22878247,-0.06913284,6.72,31.32,-41.76
1553843278352,4.024776,3.4166303,10.534809,-0.04883379,0.12921144,-0.023928814,6.8999996,31.56,-41.399998
1553843278373,3.8284453999999997,3.7518287000000003,10.443827,0.0061440826,-0.008233242,0.01150137,6.8399997,31.199999,-39.6
1553843278393,3.2777622,2.7917243999999997,9.225141,0.07211753,-0.088867456,0.03227079,7.74,30.66,-37.2
1553843278412,2.719896,2.1404817000000005,8.470944,0.04523946,-0.07481755,0.018220888,8.34,30.9,-36.42
1553843278433,2.4445546,1.8723229,8.344047999999999,-0.041503407,0.00031887164,-0.014765833999999999,7.3199997,30.599998,-36.3
1553843278453,2.403852,2.056682,8.303345,-0.14718309,0.111496344,-0.03614612,7.02,30.42,-37.38
1553843278472,2.597788,2.2123098,8.973742,-0.17039597,0.14631566,-0.030037466000000002,6.42,31.26,-39.84
1553843278492,2.8659470000000002,2.2889266,9.641745,-0.06410542,0.084007405,0.010890506000000001,6.06,32.16,-40.379996999999996
1553843278512,2.9138324,2.3631492,9.622589999999999,0.05623503,0.007649255,0.07014443,6.8999996,31.32,-39.66
1553843278533,2.8611584,2.4134290000000003,9.093455,0.07333925,-0.057102464000000006,0.12634404,7.08,31.32,-39.899998
1553843278553,2.9497466,2.3727264,9.088667,0.0012571607,-0.06321111,0.12817663,6.8999996,31.439999,-40.079997999999996
1553843278572,3.1245286,2.5882110000000003,9.431047999999999,-0.079377055,-0.061378515999999994,0.10374202,6.54,30.96,-40.26
1553843278592,3.2370596000000003,2.640885,9.670475999999999,-0.09648128,-0.08825659,0.067700975,6.42,31.14,-40.98
1553843278612,3.1915683999999995,2.4182177000000005,9.4095,-0.05249898,-0.1371258,0.0408229,6.24,31.619999,-41.7
1553843278632,2.954535,1.9656997,8.8324795,0.017750522,-0.14812139,0.023107812000000002,6.48,31.56,-41.399998
1553843278653,2.7725701000000003,1.3934678999999999,8.308133,0.07761532,-0.14873226,-0.0062137214,6.3599997,31.439999,-40.92
1553843278673,2.6839821,1.359948,7.6281595,0.068452336,-0.10902601,-0.039200444,5.7599998,31.74,-41.16
1553843278692,2.5666625,1.9297855,7.2881727,-0.04639033,0.08278568,-0.05630467,5.8199997,32.399998,-40.98
1553843278712,2.7510218999999996,2.7917243999999997,8.389539,-0.24247807,0.27948427,-0.023928814,6.12,32.64,-41.28
1553843278732,3.4956412000000006,3.981679,10.458193,-0.39641609999999994,0.22145209,0.023107812000000002,6.8999996,32.219997,-41.64
1553843278753,3.9864676,4.338426,11.779832,-0.33410785,-0.07298495599999999,0.03104906,6.24,31.98,-41.46
1553843278773,3.2514252999999997,2.7366562,10.376787,-0.10320080000000001,-0.29961598,0.045709822000000004,5.8199997,32.579997999999996,-40.62
1553843278793,2.8204557999999995,1.4533247999999999,9.100638,0.01652879,-0.30328116,0.048153285,6.8999996,32.7,-39.239998
1553843278813,2.631308,0.66800267,8.042369,0.04890465,-0.21165137,0.038379442,6.3599997,32.579997999999996,-39.18
1553843278833,2.5738453999999997,0.14844504,7.388732000000001,0.015307061,-0.08520226,0.017610023,5.3399997,33.059998,-40.2
1553843278852,2.6935592,0.17717634,7.546754400000001,0.006754948,0.030862134,-0.019652756,5.16,32.7,-40.32
1553843278872,2.9473522,0.87151605,8.200391,0.09227608,0.0736227,-0.07401976,5.22,32.04,-40.379996999999996
1553843278892,3.3591676,1.9489397000000002,9.04557,0.12220848,0.12371366,-0.062413324000000006,5.7599998,32.1,-40.02
1553843278913,3.7733772000000005,3.1772027,10.137360000000001,0.03302215,0.14142874,0.014555697,6.12,32.52,-38.94
1553843278932,4.209135,4.216318,11.0352125,-0.11847243,0.0736227,0.05914886,6.3599997,32.28,-39.12
1553843278952,3.9481592000000005,3.5746522000000005,10.678466,-0.10075733,-0.10413908,0.06281405,6.8399997,31.92,-39.18
1553843278973,3.1772027,2.22907,8.9498,-0.045168597000000005,-0.18782762,0.09580077,7.3199997,32.04,-39.12
1553843278993,2.7151077,1.7789462,8.253065,-0.008516683,-0.13895841,0.11351587,7.14,32.88,-38.94
1553843279012,2.4948344,1.6089526,7.7694216,-0.04761206,-0.021672277,0.13489614,6.66,32.94,-39.54
1553843279033,2.6959534,1.7047237000000002,8.126168,-0.13252233,0.052242417,0.13917221,6.2999997,32.1,-40.32
1553843279053,3.1125572,1.6328955,9.165284,-0.12030502400000001,0.027196944,0.11168327,6.48,32.52,-40.26
1553843279072,3.258608,1.5227587,9.26345,-0.01401447,-0.0009028588499999999,0.057316266,6.54,32.52,-40.2
1553843279093,3.0646717999999997,1.4557191,8.851633999999999,0.08250224,0.065070584,0.015166562,6.6,32.1,-39.96
1553843279112,2.9928436,1.6089526,8.806142999999999,0.12220848,0.09317039,0.020053484,6.8399997,32.16,-39.3
1553843279132,3.031152,1.924997,9.304152,0.10571512,0.13959615,0.05609453,6.7799997,32.04,-39.78
1553843279153,3.4860642,2.3918805,9.660899,-0.018901393,0.18418932,0.08236174,6.72,32.399998,-40.26
1553843279172,3.7446458,2.9497466,9.972155,-0.13924184,0.039414246,0.0707553,6.72,32.579997999999996,-40.079997999999996
1553843279193,3.3567734,2.3655436,9.529214,-0.07693359,-0.06809804,0.057927128,6.48,32.76,-40.32
1553843279212,2.9497466,1.6281068,9.079089999999999,0.021415714,-0.121243306,0.04387723,6.54,32.94,-39.78
1553843279233,2.7510218999999996,0.9960183000000001,8.700794,0.13320406,-0.15606263,0.009668776,6.6,32.64,-39.66
1553843279252,2.7151077,0.8571504000000001,8.171659,0.15458433,-0.094976105,-0.029426599999999997,6.6,32.64,-40.44
1553843279272,2.6839821,1.0965778999999998,7.9968777,0.15641694,0.038803383999999996,-0.05386121,6.66,32.579997999999996,-41.1
1553843279293,2.997632,1.9178141,8.351231,0.102049924,0.20923479,-0.04775256,6.42,32.52,-40.92
1553843279312,3.5387383000000003,2.7653873,9.296969,-0.04394687,0.24344324,-0.031259197999999995,6.66,32.219997,-40.5
1553843279332,4.0439300000000005,3.668029,10.506078,-0.25041932,0.060794532000000005,-0.02576141,6.8999996,31.8,-40.86
1553843279353,3.9433705999999997,3.9098508,11.32492,-0.3383839,-0.18171898,-0.063024186,7.2,32.1,-40.86
1553843279373,3.0455174,2.5929997000000005,10.278622,-0.19177626,-0.32282886,-0.058137268,7.3799996,32.219997,-40.379996999999996
1553843279393,2.7055306,1.620924,8.772623,-0.07998791,-0.23975118,-0.05263948,6.8999996,32.52,-40.02
1553843279412,2.6815877,1.0870007,8.190814,-0.10808772,-0.16033868,-0.06546765,6.18,33.239998,-39.96
1553843279432,2.7821474,0.67279124,7.8173075,-0.10564425599999999,-0.11146947,-0.05386121,6.12,33.18,-40.02
1553843279452,3.1221343999999998,0.48124924,7.788575999999999,-0.0042406265000000005,-0.055269867,-0.041643906,6.3599997,33.48,-39.42
1553843279473,3.0910087,0.49082634,7.865193,0.11732156,0.014979636999999999,-0.08135014,5.8199997,33.66,-39.239998
1553843279492,2.8946784,0.85236186,7.9346266000000005,0.2291099,0.13104403,-0.13877149,5.52,33.36,-38.46
1553843279512,2.9497466,1.5826156,8.406299,0.28408778,0.23550199,-0.12044552,6.72,32.88,-37.739998
1553843279532,3.2202997000000004,2.5762396,9.289786,0.18940365,0.258104,-0.03064833,6.8399997,32.04,-38.04
1553843279553,3.840417,3.8571767999999995,10.64734,-0.10930945,0.23428026,0.05120761,6.3599997,32.16,-39.0
1553843279572,4.328849,4.8627720000000005,11.770255,-0.29379073,0.11088548599999999,0.06037059,6.72,32.88,-40.5
1553843279593,3.9433705999999997,3.3998702000000005,11.040001,-0.13802011,-0.15667349,0.09580077,6.8999996,32.64,-40.68
1553843279613,3.1700199000000002,2.0040080000000002,9.443019999999999,0.07456099,-0.26235318,0.12573317,6.8399997,32.82,-40.26
1553843279633,2.648068,1.2617828000000002,7.9944835,0.19490144,-0.18416242,0.1550547,6.3599997,33.3,-40.14
1553843279653,2.403852,0.2466103,7.055927799999999,0.16985597,-0.077261016,0.14833519,6.6,32.7,-40.14
1553843279672,2.3966691000000004,-0.057462595,7.1373334,0.12587367,0.0033731977000000003,0.06953357,6.54,32.579997999999996,-39.78
1553843279692,2.5235654999999997,0.54828894,7.405492,0.16252560000000002,0.08584,-0.059969865,6.18,32.52,-39.54
1553843279713,2.796513,1.5826156,8.087860000000001,0.17840809,0.20740218,-0.105173886,6.2999997,32.1,-40.14
1553843279732,3.3855044999999997,2.971295,9.603436,0.039130807000000004,0.23366939,-0.058137268,7.2,31.74,-39.6
1553843279752,4.252232,5.0184,11.552375999999999,-0.33471873,0.14937,-0.00010506882,7.56,31.679997999999998,-39.42
1553843279773,4.309695,5.320079,12.555577,-0.43490064,-0.03694391,-0.022707082000000003,6.8399997,32.04,-39.66
1553843279792,3.5267668,2.6193366,10.3743925,-0.15451348,-0.23852943,0.040212035,6.7799997,32.64,-39.3
1553843279813,2.8539755,1.5658557,8.877971,0.036076482,-0.2550228,0.07319876,6.54,33.059998,-39.54
1553843279833,2.4708917,0.84039044,7.597034,0.09044349,-0.17377773,0.10007682400000001,6.2999997,32.94,-39.6
1553843279853,2.4373717,-0.16759923,7.0439563,0.057456765,-0.11513466,0.07319876,5.8799996,32.46,-40.079997999999996
1553843279873,2.466103,-0.43575802,7.005648,0.07517185,-0.026559198,-0.0068245865,5.3399997,31.8,-40.379996999999996
1553843279892,2.5139885,0.15083931,7.1828246,0.16496904,0.08522914,-0.12533244,5.58,31.92,-40.32
1553843279913,2.6887705000000004,1.3886794,8.212361999999999,0.23521855,0.25871488,-0.17297994,5.8799996,32.34,-40.32
1553843279933,3.2274826,2.7414446,9.6585045,0.21017309,0.34362516,-0.1173912,6.12,33.12,-40.2
1553843279953,4.146884,4.0918155,10.807756,-0.020733988000000002,0.31919053,-0.008046316999999999,6.6,32.94,-40.68
1553843279972,4.5994019999999995,6.057515,12.047991,-0.35670987,0.19396316,-0.010489778,6.8399997,32.04,-40.92
1553843279992,4.300117500000001,4.0391417,11.518856,-0.25652800000000003,-0.23608598,0.07380962,7.08,31.619999,-40.62
1553843280013,3.1149516,1.9178141,9.591465,0.0012571607,-0.4645496,0.14222653,7.02,31.56,-40.26
1553843280033,2.5020173,1.3551594999999999,8.511647,0.057456765,-0.3655894,0.17032634,6.66,32.219997,-39.78
1553843280053,2.317658,0.48843205,7.2618356,-0.012181873999999999,-0.10841514,0.16421768,6.48,32.76,-40.02
1553843280072,2.4876516,-0.12450229,7.024802,-0.04089254,0.034527324,0.095189914,6.24,32.7,-40.14
1553843280092,2.5666625,-0.10055954,7.2091613,0.07456099,0.12860057,-0.040422175,6.66,32.64,-40.02
1553843280113,2.597788,0.5602603,7.546754400000001,0.23644027,0.13959615,-0.14488013,6.7799997,32.94,-40.2
1553843280132,2.7582044999999997,1.6807808999999998,8.56911,0.33845478,0.16036557,-0.17786685,6.54,32.76,-40.379996999999996
1553843280152,3.1053743,2.9377751,9.668080999999999,0.30424629999999997,0.24038891,-0.11067168,6.42,33.059998,-40.559998
1553843280172,4.1157584,4.2833575999999995,10.824516000000001,-0.012181873999999999,0.37722272,-0.011100643,5.94,32.52,-40.98
1553843280193,4.759818599999999,6.275394400000001,11.966585,-0.40130305,0.26726700000000003,-0.017820163,6.24,31.38,-41.82
1553843280212,4.352792,3.5938065000000003,11.030424,-0.310895,-0.22386867,0.099465966,7.3199997,31.26,-41.1
1553843280232,3.0718546,1.594587,9.531608,-0.056775037,-0.4639387,0.13489614,7.5,31.679997999999998,-40.5
1553843280252,2.4158232,1.2234744,8.281796,0.053180705999999994,-0.3704763,0.15933077,7.2,31.74,-40.02
1553843280272,2.1644243999999997,0.4070267,7.369578,0.0091984095,-0.15484089999999998,0.14833519,7.3199997,32.1,-40.2
1553843280293,2.2745612,-0.14365649,7.039167999999999,-0.033562157,0.043690305,0.060981455999999996,6.96,33.059998,-40.62
1553843280312,2.3990633,0.08858817,7.4605603,0.04523946,0.17441547,-0.071576305,6.2999997,32.579997999999996,-40.379996999999996
1553843280332,2.5115943,0.88109314,8.097438,0.21994692,0.21351086,-0.1613735,6.6,32.399998,-40.5
1553843280353,2.8970726000000004,2.0327394,9.261055,0.30607890000000004,0.21473257,-0.16503868,7.02,32.88,-40.2
1553843280372,3.5339496,3.5076127,10.161303,0.19306885,0.21717604,-0.072798036,6.8399997,32.219997,-40.32
1553843280393,4.338426,5.2674046,10.678466,-0.15817867,0.24771929999999998,-0.016598431,6.8999996,31.56,-41.52
1553843280412,4.616162,5.537957700000001,11.198023,-0.39214003,0.065070584,0.040212035,6.96,31.56,-41.64
1553843280433,3.7518287000000003,2.3870918999999997,10.122993,-0.21865433,-0.3552047,0.12451144,6.72,31.8,-41.399998
1553843280452,2.719896,1.2091087999999999,9.143736,-0.025010044,-0.46149525,0.11840279,7.08,31.859999,-41.399998
1553843280473,2.3224466,0.91461295,8.140533999999999,-0.010349279,-0.31366587,0.10618549,7.259999799999999,31.619999,-40.44
1553843280492,2.2530127,0.098165266,7.292961,-0.08792917,-0.06382198,0.05181848,6.54,31.859999,-39.66
1553843280512,2.3607549999999997,-0.03351985,7.2259210000000005,-0.07021407,0.13654183,-0.040422175,6.66,32.399998,-39.0
1553843280533,2.4613144,0.4070267,7.7095647,0.10082819,0.21595429999999996,-0.14671272,7.14,32.52,-38.52
1553843280553,2.7390504,1.2593886,8.58587,0.28164429999999996,0.2141217,-0.18947329999999998,6.48,32.82,-38.7
1553843280572,3.2705792999999996,2.3535721,9.265842999999998,0.31524187,0.15547864,-0.17359081,6.18,32.94,-40.2
1553843280592,3.8739367,3.6345089999999995,10.012857,0.17596461,0.19762835,-0.09662178,7.02,32.46,-41.1
1553843280612,4.3240604000000005,5.3488097,10.826911,-0.16184385,0.26299092,-0.058137268,6.7799997,31.74,-41.399998
1553843280632,4.4485626,4.632921700000001,11.272245,-0.31394932,-0.017396221,0.05120761,7.02,31.679997999999998,-41.16
1553843280653,3.5435266000000003,2.2362528,10.029617,-0.1978849,-0.41995642,0.10496375,7.259999799999999,32.28,-40.32
1553843280672,2.6217308,1.2976969999999999,9.124581,-0.041503407,-0.47432342,0.10679635,7.02,32.219997,-40.2
1553843280692,2.3727264,0.7996878000000001,7.941809700000001,-0.034173023,-0.25380108,0.08236174,6.8999996,31.679997999999998,-40.02
1553843280712,2.3224466,0.15802214,7.24747,-0.073879264,-0.008844106,0.023107812000000002,6.12,31.74,-40.5
1553843280732,2.4421604,0.16520496,7.285778,-0.029896967000000003,0.19151969,-0.070354566,6.18,33.0,-40.8
1553843280753,2.604971,0.62251145,7.9489923,0.14908655,0.21717604,-0.14304753,6.48,33.18,-40.379996999999996
1553843280772,2.7821474,1.5299416000000001,8.633755,0.30974412,0.20251527,-0.15282138,6.18,32.64,-40.2
1553843280792,3.2370596000000003,2.7222904999999997,9.531608,0.31463104,0.17869152,-0.086237065,6.48,32.579997999999996,-40.86
1553843280813,3.8523881,3.9673133000000003,9.993703,0.07822618,0.20618047,0.010890506000000001,6.42,32.64,-40.559998
1553843280832,4.1612496,5.3272614,10.79818,-0.21621086,0.20618047,0.038990308,6.42,32.399998,-40.2
1553843280853,4.084633,4.07745,10.874796,-0.27057788,-0.09314351,0.11473759,6.6,31.98,-40.5
1553843280872,3.2610023,2.0614705,9.93624,-0.15573521,-0.4205673,0.13428527,6.8399997,32.28,-40.02
1553843280893,2.4613144,1.2833313,9.265842999999998,-0.03600562,-0.44622365,0.13428527,7.259999799999999,32.7,-40.32
1553843280912,2.2554069,0.71588814,8.2578535,-0.027453506000000003,-0.2605206,0.12573317,6.7799997,32.28,-40.379996999999996
1553843280932,2.4062462000000004,0.27294734,7.4198575,-0.05372071,-0.025948334,0.07625309,6.18,31.74,-39.899998
1553843280952,2.5403256,0.052674048,7.2953553,0.030578692999999997,0.09500299,-0.023317947999999998,5.8799996,31.92,-40.739998
1553843280972,2.6001825000000003,0.33759275,7.4557720000000005,0.20650789,0.08095308400000001,-0.11922379599999999,5.8199997,32.34,-40.62
1553843280993,2.813273,1.1995316999999999,7.905895,0.36105679999999996,0.08339655,-0.17908859,5.7599998,32.399998,-40.379996999999996
1553843281012,3.1245286,2.4565259999999998,8.727132000000001,0.3769393,0.13470922,-0.16931474,6.42,32.52,-41.04
1553843281033,3.816474,3.7398572,9.921875,0.17229943,0.33446217,-0.06546765,6.42,32.52,-41.82
1553843281052,4.903475,5.691191000000001,11.0352125,-0.2840169,0.5024501,-0.028815735,6.54,31.74,-41.579997999999996
1553843281073,5.035159999999999,6.4453879999999995,11.540403999999999,-0.52469784,0.19090883,0.022496943999999998,7.2,31.26,-40.92
1553843281092,3.8116856,2.6001825000000003,9.687236,-0.35243379999999996,-0.3045029,0.108018085,6.8399997,31.8,-40.44
1553843281113,2.3248408,0.9768641,9.270632,-0.10503339,-0.45844093,0.11229414,6.8999996,32.399998,-39.899998
1553843281132,1.4940275,0.22745611,8.403905,0.068452336,-0.3161093,0.13795047,6.72,32.46,-40.739998
1553843281152,1.4605076000000001,-0.37111259,7.735902,0.097163,-0.05221554,0.13000923,6.0,32.64,-41.04
1553843281173,1.9202085,-0.6201171999999999,7.563514,0.07395013,0.10233337,0.03104906,6.0,32.52,-40.5
1553843281192,2.2266755000000003,-0.076616794,8.008849,0.15519520000000003,0.12615710000000002,-0.08868053,6.8999996,31.859999,-39.84
1553843281212,2.7653873,1.1468576000000001,8.794171,0.29691592,0.13959615,-0.16381696,7.02,32.219997,-40.32
1553843281232,3.3902931000000005,2.4684972999999997,9.464568,0.2938616,0.13715269,-0.1314411,6.6,32.579997999999996,-41.579997999999996
1553843281252,4.1780095,4.1612496,10.46777,0.13442577,0.1530352,-0.05630467,6.48,32.04,-41.219997
1553843281273,4.8484063,6.143708999999999,11.047184,-0.20216097,0.12554625,-0.032480925,6.3599997,31.859999,-41.04
1553843281293,4.697566999999999,4.300117500000001,10.357633,-0.2174326,-0.21653828,0.057927128,6.8399997,32.219997,-41.1
1553843281313,3.790137,2.19555,8.854028999999999,-0.06593802,-0.43156287,0.06464665,7.56,32.46,-40.2
1553843281332,2.6097596000000003,1.2450229,8.05434,0.07456099,-0.3662003,0.045709822000000004,7.3799996,32.34,-40.8
1553843281352,2.0614705,0.5913859,6.9074826,0.10571512,-0.10597168,0.044488095,6.18,31.98,-40.62
1553843281373,2.0375278000000003,0.071828246,6.976917,0.055013303,0.13776354,0.0066144490000000005,5.4,32.16,-40.14
1553843281392,2.1931557999999995,0.69194543,7.877164,0.11609982,0.27642995,-0.07218716,5.8199997,32.1,-40.98
1553843281413,2.6552507999999997,1.5658557,9.076694999999999,0.16802338,0.36195109999999997,-0.1033413,6.54,31.859999,-40.8
1553843281432,3.6464806000000003,3.0646717999999997,10.690437,0.10327166,0.38210964,-0.051417753,6.6,31.679997999999998,-40.44
1553843281452,4.460534,4.5706706,11.5308275,-0.07204667,0.30147544,-0.01904189,6.96,31.56,-40.68
1553843281474,4.6640472,5.377541000000001,11.406325,-0.22842817,-0.03694391,0.005392718,7.14,31.98,-41.1
1553843281493,3.756617,2.5020173,9.646533,-0.09709214,-0.38269365,0.109850675,6.96,31.92,-40.98
1553843281512,2.7653873,1.4245936000000001,8.439817999999999,0.09105435,-0.44866708,0.08908126,7.3799996,31.56,-40.14
1553843281533,2.0494993000000004,0.8930645,7.4438004,0.102049924,-0.27823567,0.05548367,7.3199997,31.92,-39.48
1553843281552,1.9226026999999999,0.34477556,6.9074826,-0.0030188959999999996,0.02108829,0.005392718,7.3199997,31.8,-39.12
1553843281572,2.1500587,0.5650489000000001,7.4174633000000005,-0.031118697999999997,0.2684887,-0.072798036,6.6,31.859999,-39.36
1553843281592,2.3942747000000004,1.3048798000000001,8.660092,0.09288695,0.32346657,-0.13021936,6.06,31.92,-40.379996999999996
1553843281612,2.9210152999999996,2.2793495999999998,9.857229,0.19001453,0.28192776,-0.11311514,6.8399997,31.859999,-40.559998
1553843281633,3.74704,3.677606,10.695226,0.10938031,0.2177869,-0.03858958,7.56,32.219997,-41.04
1553843281652,4.2258949999999995,5.0638914,11.245909,-0.12580281,0.08828347,0.009668776,6.8999996,31.439999,-41.219997
1553843281672,4.1804037,4.7789725999999995,10.721561999999999,-0.23575856,-0.13468234,0.09580077,7.08,30.96,-40.739998
1553843281693,3.5411325,2.3727264,9.215564,-0.13924184,-0.421789,0.17154807,7.62,30.84,-40.62
1553843281712,2.8443985,1.3264283000000001,8.303345,-0.012181873999999999,-0.4205673,0.14589173,6.66,31.199999,-40.739998
1553843281732,2.2745612,0.90024734,7.228316,-0.0011863003,-0.17011254,0.10129856,5.7599998,31.859999,-40.739998
1553843281753,2.2865324,0.43096948,7.0343795,-0.066548884,0.099279046,0.053651072,5.7599998,31.859999,-40.8
1553843281772,2.4517374,0.53392327,7.474925999999999,-0.04822292,0.24466497,-0.034313522,6.6,32.1,-40.739998
1553843281793,2.640885,0.9529214,8.490098,0.12159761,0.1982392,-0.119834654,6.8999996,32.46,-41.04
1553843281812,2.928198,1.9872481,9.364009,0.26576182,0.15731123,-0.1473236,7.3799996,31.619999,-39.6
1553843281833,3.529161,3.1053743,9.857229,0.15763865,0.20068268,-0.08562621,8.7,30.179997999999998,-34.5
1553843281853,4.1013927,4.6832013,10.527626,-0.12641367,0.27276477,-0.014154969,9.179999,29.939999,-31.439999
1553843281873,4.398283,4.879532,10.905922,-0.310895,0.06812491,0.056705399999999996,9.42,30.48,-32.76
1553843281893,3.6297207,2.7917243999999997,9.926663000000001,-0.15512434,-0.3148876,0.12756577,9.24,30.24,-34.079997999999996
1553843281912,2.6169424,1.4006507,8.846846000000001,-0.01157101,-0.4095717,0.122678846,8.88,30.119999,-33.899998
1553843281933,2.0399222,0.8834874,7.9944835,0.01958312,-0.26479664,0.067700975,8.7,30.42,-33.48
1553843281952,2.1309047000000003,0.65842557,7.5515428,-0.029896967000000003,-0.038776506,0.0066144490000000005,8.46,30.48,-33.18
1553843281973,2.4469488,0.5147691,7.6616793,-0.00057543506,0.12493538,-0.08440447599999999,7.98,30.179997999999998,-33.3
1553843281992,2.5115943,0.9074302,8.059128999999999,0.13992357,0.18846536,-0.17359081,8.46,30.179997999999998,-32.16
1553843282012,2.7725701000000003,1.7550035,9.012051,0.25049016,0.22267383,-0.18702982,9.12,30.42,-30.96
1553843282033,3.3519847,2.9210152999999996,9.340066,0.24926844,0.20251527,-0.100286976,9.059999000000001,30.539998999999998,-31.5
1553843282052,3.9266107000000003,3.9601305,9.96976,0.11365636400000001,0.2507736,-0.017820163,9.0,30.48,-31.98
1553843282075,4.328849,5.497255,10.716774000000001,-0.2595823,0.16830681,0.0060035832999999995,9.12,30.0,-32.76
1553843282093,4.010410299999999,3.9481592000000005,10.427067,-0.28890383,-0.1902711,0.092746444,9.179999,29.64,-32.34
1553843282112,3.1173458,1.637684,9.347249,-0.13618751,-0.44744533,0.109850675,8.639999000000001,29.699999,-33.48
1553843282133,2.2937152000000003,1.2665714,8.775017,-0.027453506000000003,-0.39307833,0.08541607,7.56,30.119999,-35.7
1553843282152,2.2123098,1.063058,8.231517,-0.017679663,-0.20493186,0.06831183,7.3799996,30.66,-35.94
1553843282173,2.4445546,0.4956149,7.616188,0.008587544,-0.003957185,0.023718676,7.9199996,31.32,-36.48
1553843282192,2.545114,0.32801566,7.415069,0.04401773,0.18418932,-0.055693805,7.7999997,31.56,-36.3
1553843282212,2.7103189999999997,1.1731946000000002,8.332075999999999,0.17474289,0.30880582,-0.10700648,7.5,31.439999,-35.579997999999996
1553843282232,3.2298767999999995,2.2697724999999997,9.354432000000001,0.22239038,0.31002757,-0.08196101,7.7999997,31.38,-35.94
1553843282252,3.8787252999999997,3.5938065000000003,9.876384,0.12770627,0.29047987,0.013333966000000001,8.34,30.96,-36.48
1553843282273,4.2618093,4.886715000000001,10.407912,-0.16795251,0.1982392,0.04509896,8.519999499999999,30.96,-36.3
1553843282292,4.048719,4.6041903,10.606637,-0.26263663,-0.008233242,0.05609453,8.4,31.38,-36.18
1553843282312,3.3136763999999994,2.300898,9.864412,-0.13802011,-0.33138096,0.10862894,7.74,31.8,-38.7
1553843282333,2.3751206000000002,1.5730386,9.105427,-0.023788313999999998,-0.40651740000000003,0.10618549,7.44,32.1,-41.04
1553843282353,2.1141446,0.9912298,8.688824,-0.008516683,-0.30389202,0.080529146,7.14,31.859999,-41.1
1553843282372,2.2506182,0.5506831999999999,7.6281595,-0.041503407,-0.046106886,0.04754242,6.7799997,31.619999,-41.28
1553843282392,2.3344178,0.3519584,7.453377199999999,-0.036616486000000004,0.1896871,-0.0062137214,6.8399997,31.92,-41.34
1553843282413,2.6839821,0.69912827,8.090255,0.09838474,0.22450642,-0.07951755,6.8399997,31.92,-40.98
1553843282432,2.9401696,1.6424724999999998,9.047964,0.28347690000000003,0.18602191,-0.08868053,6.8999996,32.219997,-40.26
1553843282452,3.4525442,2.9473522,9.387952,0.2553771,0.18296757,-0.031259197999999995,6.54,32.399998,-40.98
1553843282472,3.8906965,4.415043,9.907509,0.037909076,0.2177869,0.02432954,6.7799997,31.98,-41.219997
1553843282492,4.0582957,5.312896,10.477346,-0.22476299,0.11882673,0.02555127,7.3199997,31.56,-40.32
1553843282513,3.5938065000000003,2.9425638,10.051166,-0.2210978,-0.24891415,0.090913855,7.74,31.56,-39.84
1553843282533,2.8731298,1.8531687,9.526819,-0.10564425599999999,-0.44622365,0.0848052,7.7999997,31.92,-39.719997
1553843282552,2.3320236,1.2665714,9.155706,-0.05616417,-0.40040872,0.05914886,7.14,32.16,-39.899998
1553843282572,2.3607549999999997,0.6895511,8.030397,-0.06288369,-0.1493431,0.024940407,6.54,32.52,-40.379996999999996
1553843282593,2.4780743,0.33519846,7.3480296,-0.08059879,0.12860057,-0.022707082000000003,6.24,32.579997999999996,-40.92
1553843282612,2.6624336,0.47406640000000005,7.609005499999999,-0.0024080307,0.24649756,-0.085015334,6.6,32.219997,-40.559998
1553843282632,2.8180614,1.1516461,8.547561,0.19306885,0.2141217,-0.11922379599999999,6.96,32.46,-40.32
1553843282653,3.1772027,2.1979442000000002,9.201198,0.31218755,0.13043317,-0.08929139400000001,6.66,32.1,-40.32
1553843282673,3.5531040000000003,3.4525442,9.416683,0.21444912,0.1579221,-0.029426599999999997,6.66,31.56,-40.68
1553843282693,3.9194279,5.042342700000001,10.38397,-0.08609657,0.23855633,-0.015987566,7.44,31.74,-40.98
1553843282712,4.0535073,4.788549400000001,10.759871,-0.25836056,0.052242417,0.027994731000000002,7.02,31.56,-41.16
1553843282732,3.4812756,2.176396,10.166091,-0.18811107,-0.3588699,0.06586838,6.6,31.56,-41.7
1553843282752,2.5092,1.6807808999999998,9.150917999999999,-0.09953561,-0.4376715,0.042044632,6.54,32.219997,-40.86
1553843282773,2.2697724999999997,1.1540405,8.186026,-0.114196375,-0.20554271,0.040212035,6.8399997,32.34,-39.84
1553843282793,2.4349775,0.68715686,7.7502675000000005,-0.11602897,0.0015406022,0.03104906,7.08,31.98,-41.219997
1553843282812,2.4948344,0.41660379999999997,7.57788,-0.05005552,0.18113498,-0.011100643,6.48,31.8,-40.98
1553843282833,2.6337023,0.7015225,8.008849,0.11060204,0.20007181,-0.07401976,6.48,31.98,-39.6
1553843282852,2.8587642000000004,1.594587,8.822903,0.27797914,0.13165489,-0.08073928,7.3799996,31.56,-39.36
1553843282873,3.1963567999999998,2.5642683999999996,9.25866,0.29508334,0.09133779,-0.033091795,7.5,31.38,-39.18
1553843282893,3.5554981,3.7230972999999996,9.711179,0.10693685,0.17746979,0.010890506000000001,6.7799997,31.439999,-40.079997999999996
1553843282913,3.929005,4.9776974,10.685649,-0.12885714,0.1597547,-0.0025485298,7.259999799999999,30.84,-40.5
1553843282933,3.9313992999999994,3.4333901,10.683254,-0.15634607,-0.16094956,0.0408229,7.44,31.08,-40.739998
1553843282952,3.265791,1.838803,9.469357,-0.062272824000000004,-0.37719586,0.03288165,6.7799997,31.74,-41.04
1553843282972,2.5211713,1.4533247999999999,8.616995,0.011641869,-0.3460417,0.022496943999999998,6.8999996,31.859999,-40.739998
1553843282993,2.3224466,0.88588166,7.7957587,0.018361388,-0.10291736,0.031659923,7.02,31.74,-40.92
1553843283013,2.3463893,0.42378664,7.465348700000001,0.01652879,0.04674463,0.020053484,6.24,31.98,-41.28
1553843283032,2.5044115000000002,0.72546524,8.037580499999999,0.11609982,0.17624806,-0.055693805,5.94,31.38,-40.98
1553843283053,2.8276386000000002,1.5706443,8.600235000000001,0.20956221,0.2709322,-0.08806966,6.42,31.38,-40.5
1553843283073,3.4022646,2.8946784,9.368797,0.15641694,0.30697325,-0.06668938,8.099999,31.8,-40.14
1553843283092,3.9673133000000003,4.371946,10.398335000000001,-0.017679663,0.21045650000000002,-0.03553525,7.98,31.74,-40.379996999999996
1553843283113,3.991256,5.0088230000000005,10.783813,-0.15329175,0.007649255,-0.011100643,6.8399997,31.679997999999998,-41.16
1553843283132,3.5554981,3.014392,10.08708,-0.11908329,-0.25257933,0.07197703,7.08,31.679997999999998,-41.7
1553843283153,2.8635526000000002,1.6664151999999999,9.086273,-0.02684264,-0.36925462,0.07319876,6.96,31.619999,-41.52
1553843283172,2.3248408,1.1731946000000002,8.406299,-0.023177449,-0.25135761,0.04632069,7.44,31.619999,-41.1
1553843283193,2.3200524,0.9122186999999999,7.798153,-0.063494556,-0.027170066,0.021275215,7.2,31.859999,-41.34
1553843283212,2.4421604,0.83081335,7.788575999999999,-0.025620911,0.12615710000000002,-0.018431026,6.6,31.8,-41.16
1553843283233,2.6456738,1.2186858999999999,8.267431,0.10082819,0.15425691,-0.04836342,6.8399997,32.1,-40.62
1553843283253,3.0359404,2.1189332000000003,9.100638,0.20589702,0.14998084,-0.037978712000000005,6.8999996,32.219997,-40.8
1553843283272,3.5435266000000003,3.2777622,9.519637,0.12159761,0.15242432,-0.021485351,6.8399997,32.46,-39.78
1553843283292,3.7254915,4.3240604000000005,9.98652,-0.06715974,0.14998084,-0.020874487,6.8399997,32.16,-40.26
1553843283312,3.5890178999999995,3.8835137000000004,9.924269,-0.17222856,0.021699157,0.014555697,6.8399997,31.14,-41.82
1553843283332,3.1939626,2.4852571,9.510059,-0.14351789999999998,-0.18721674,0.04509896,6.8999996,30.779999,-41.219997
1553843283353,2.7486273999999997,1.7454262999999999,9.076694999999999,-0.07204667,-0.2922856,0.03715771,7.3199997,31.859999,-40.92
1553843283372,2.4613144,1.1564348,8.559532,-0.02439918,-0.22081435,0.02066435,7.44,31.679997999999998,-40.86
1553843283393,2.5092,0.7972935,8.011244,-0.0030188959999999996,-0.022894006,0.008447044499999999,6.66,30.9,-40.86
1553843283413,2.7989072999999998,0.91461295,8.248277,-0.009127548000000001,0.15670037,-0.026983137999999997,6.8399997,31.56,-41.34
1553843283432,3.1963567999999998,1.6352897,8.786988000000001,0.0043114866,0.21961950000000002,-0.04103304,7.56,31.38,-41.1
1553843283453,3.6704233,2.7701759999999997,9.4142885,-0.08487484,0.18602191,-0.03064833,7.74,31.98,-40.5
1553843283472,3.7949257000000003,4.065479,10.029617,-0.16734165,0.1157724,-0.026372273999999998,8.099999,33.0,-40.8
1553843283492,3.5674694,3.529161,10.26665,-0.12946801,-0.027170066,0.0035601228000000005,7.98,32.1,-40.68
1553843283512,2.9736892999999998,2.3751206000000002,9.718361999999999,-0.04883379,-0.22386867,0.057316266,8.099999,31.32,-39.719997
1553843283532,2.49244,1.6017698,8.842057,-0.012181873999999999,-0.272127,0.07197703,7.3799996,31.38,-39.239998
1553843283553,2.3272352,1.1420691,8.061523,-0.03967081,-0.13590409,0.057927128,7.2,31.56,-39.18
1553843283572,2.5163830000000003,0.55307746,7.640130999999999,-0.010960144,0.024753481,0.013333966000000001,7.44,32.1,-39.54
1553843283593,2.6360965,0.52913475,7.9370210000000005,0.11365636400000001,0.08889433,-0.073408894,6.96,32.04,-39.899998
1553843283612,2.7175019,1.1540405,8.329682,0.27064875,0.10905289,-0.13693888,6.96,31.679997999999998,-40.44
1553843283633,2.803696,2.1931557999999995,8.806142999999999,0.2993594,0.15425691,-0.13877149,6.96,31.92,-40.68
1553843283653,3.1987512000000002,3.3088877,9.742303999999999,0.13442577,0.27459738,-0.08379361,6.3599997,32.16,-40.32
1553843283673,4.146884,4.8340406,10.824516000000001,-0.28035173,0.23855633,-0.070354566,6.06,32.219997,-40.739998
1553843283692,4.237866400000001,4.774183799999999,11.11183,-0.43490064,-0.036333042999999995,-0.05508294,6.72,32.28,-40.62
1553843283713,3.5147953000000003,2.4206119,10.08708,-0.22842817,-0.35581556,0.01944262,7.62,31.859999,-40.32
1553843283732,2.638491,1.3000913,8.691217,0.05195898,-0.34726346,0.06647924,7.62,31.74,-40.68
1553843283752,2.343995,0.723071,7.6521025,0.11976501,-0.19454713,0.080529146,6.72,32.579997999999996,-40.92
1553843283772,2.3032923,0.18675344,7.151699000000001,0.0849457,-0.029613525,0.06403578,6.72,32.82,-40.559998
1553843283793,2.423006,0.46688359999999995,7.4892917,0.11854329,0.10172250000000001,-0.017209295,7.259999799999999,31.74,-40.079997999999996
1553843283812,2.6360965,1.2809371,8.219545,0.21444912,0.23428026,-0.07096544,6.96,31.92,-40.5
1553843283833,3.1963567999999998,2.4780743,9.299363,0.1710777,0.27642995,-0.062413324000000006,6.54,32.52,-41.04
1553843283853,3.790137,4.0989985,10.556357,-0.032951295,0.24649756,-0.02453968,6.6,31.859999,-40.92
1553843283872,4.0894213,5.9210415,11.705608999999999,-0.31394932,0.06751405,-0.023928814,6.7799997,31.8,-40.62
1553843283892,3.6177492,3.4046587999999995,10.676071,-0.23698029,-0.25746626,0.08541607,6.8399997,31.619999,-40.079997999999996
1553843283912,2.8851009999999997,1.7765520000000001,9.191621000000001,-0.07143581,-0.36497855,0.112904996,7.08,31.679997999999998,-39.84
1553843283932,2.343995,0.99362403,8.209969000000001,0.03363302,-0.3045029,0.09641164,7.56,31.859999,-40.2
1553843283952,2.2769554,0.22985038,7.273807000000001,0.03363302,-0.13590409,0.05120761,7.2,31.859999,-40.2
1553843283973,2.403852,0.11971374,7.122967699999999,0.02569177,0.052853283,-0.028815735,6.7799997,32.28,-40.44
1553843283992,2.5882110000000003,0.82602483,7.860403999999999,0.12953886,0.17991325,-0.114947736,6.6,32.88,-40.92
1553843284012,2.918621,1.7909175,8.825297,0.19856663,0.24649756,-0.12655418,7.02,33.0,-40.379996999999996
1553843284032,3.4214187000000007,2.9952377999999995,9.737515,0.12831713,0.25321710000000003,-0.08073928,7.3799996,32.219997,-40.26
1553843284052,3.9505534,4.5156019999999994,10.836488000000001,-0.09953561,0.19640662,-0.02453968,7.2,31.679997999999998,-40.14
1553843284073,4.065479,5.0950169999999995,11.142955,-0.25469539999999996,0.025975212,0.00905791,6.96,31.8,-40.079997999999996
1553843284092,3.5219781,2.5163830000000003,9.984126,-0.14901568,-0.30022684,0.09580077,7.08,31.74,-40.44
1553843284112,2.8396098999999997,1.6664151999999999,8.988108,-0.018290527,-0.37169805,0.09213558,6.72,32.1,-40.32
1553843284133,2.351178,0.82602483,7.9370210000000005,0.04401773,-0.25257933,0.06037059,6.8399997,32.1,-40.44
1553843284152,2.3392065,0.42139238,7.3408465,0.012252735,-0.061378515999999994,0.016388291,6.2999997,32.399998,-40.5
1553843284173,2.49244,0.45251793,7.5252056,0.015917927,0.13532008,-0.05508294,6.06,32.82,-40.92
1553843284192,2.631308,1.0941836,8.262642,0.11609982,0.22450642,-0.10089783,6.48,32.28,-41.28
1553843284212,3.1053743,2.3152637,9.352037,0.15947126,0.2758191,-0.08196101,6.54,32.34,-40.2
1553843284233,3.7422516000000003,3.632115,10.139753,0.03241129,0.23489113,-0.009268047,6.54,32.46,-40.079997999999996
1553843284252,4.063084,4.8484063,10.795785,-0.14840484,0.12676798,0.027994731000000002,6.66,32.1,-40.92
1553843284272,3.9074564,4.3073006,10.465375,-0.238202,-0.08398053,0.08175088,6.96,31.98,-40.92
1553843284292,3.337619,2.2769554,9.727939,-0.14657223,-0.33199182,0.12939836,6.8399997,31.679997999999998,-40.559998
1553843284312,2.5906053,1.3120626,8.696006,-0.037838212999999996,-0.36131334,0.112904996,6.54,31.26,-39.78
1553843284332,2.3535721,0.8451790000000001,8.123775,-0.06838148,-0.18538415,0.07136617,6.3599997,31.859999,-40.14
1553843284353,2.482863,0.65842557,7.783787299999999,-0.13863099,0.014979636999999999,0.018220888,6.72,32.579997999999996,-40.92
1553843284372,2.7151077,0.74222517,8.061523,-0.10197906,0.14265047,-0.04286563400000001,6.72,32.579997999999996,-40.86
1553843284393,2.8252442,1.1971374,8.514041,0.07089580000000001,0.13104403,-0.08929139400000001,6.48,32.04,-40.62
1553843284412,2.9210152999999996,1.8675343999999998,9.052753,0.20039923,0.09683557599999999,-0.07829582,6.2999997,32.7,-40.2
1553843284433,3.2298767999999995,2.6073654,9.529214,0.15458433,0.08278568,-0.041643906,6.12,33.3,-40.2
1553843284452,3.677606,3.6967604,9.883567,-0.05921849999999999,0.09194866,-0.009878913000000001,6.54,32.7,-40.02
1553843284472,3.8308396,4.034353299999999,10.245102000000001,-0.18566760000000002,0.051020685999999996,0.022496943999999998,6.96,32.1,-40.44
1553843284493,3.5387383000000003,2.3631492,9.814133,-0.111752905,-0.14140187,0.067700975,6.7799997,32.1,-40.379996999999996
1553843284512,2.988055,1.3695252,8.954588000000001,0.029356962,-0.24463809,0.06037059,7.08,32.219997,-39.0
1553843284532,2.648068,0.99362403,8.209969000000001,0.07822618,-0.17499945,0.048153285,7.62,31.26,-37.8
1553843284553,2.6073654,0.71828246,7.814913000000001,0.05684589599999999,-0.026559198,0.009668776,7.259999799999999,31.38,-37.8
1553843284572,2.7677817000000005,0.85236186,8.150111,0.07639358,0.060183667,-0.033702657000000004,6.48,31.859999,-39.6
1553843284593,2.8874955,1.2881198,8.849239,0.21261653,0.11210721,-0.087458804,6.48,31.8,-40.44
1553843284613,3.0215747000000004,2.073442,9.167678,0.30241373,0.14020702,-0.097843505,6.42,31.92,-40.26
1553843284632,3.294522,2.760599,9.284998,0.301192,0.16097642,-0.025150542999999997,6.18,32.1,-40.62
1553843284653,3.5363437999999996,3.213117,9.29218,0.12953886,0.20129353,0.035935983,6.2999997,31.859999,-41.04
1553843284672,3.816474,4.436591,9.907509,-0.17772634,0.19640662,0.02432954,6.3599997,31.56,-41.399998
1553843284692,4.051113,4.5874305,10.659311,-0.33655134,-0.06687631,0.07197703,6.8999996,31.679997999999998,-40.8
1553843284713,3.46691,2.1500587,10.146936,-0.092816085,-0.453554,0.12817663,7.3199997,31.5,-40.5
1553843284732,2.3655436,1.132492,8.545167,0.08066964,-0.43461720000000004,0.108018085,6.96,31.98,-40.5
1553843284752,2.1189332000000003,0.7134939,7.529994500000001,0.036687344,-0.17622119,0.059759725,6.48,32.28,-40.559998
1553843284773,2.291321,0.30886146,7.2211327999999995,-0.06715974,0.06995751,-0.017209295,5.8199997,31.74,-40.86
1553843284792,2.4589202,0.58420306,7.549148599999999,-0.01157101,0.19762835,-0.10883908,5.4,32.1,-40.559998
1553843284813,2.6360965,1.3407938,8.379961999999999,0.1270954,0.29109073,-0.16259523,5.7599998,32.28,-40.44
1553843284832,3.328042,2.700742,9.555551,0.15458433,0.2855929,-0.12227812,6.18,31.619999,-41.16
1553843284852,3.8332339999999996,3.9697077000000003,10.094261999999999,0.0037006216999999997,0.20190439999999998,-0.06485678,6.2999997,31.8,-41.16
1553843284873,4.0391417,5.437398,11.085492,-0.23209336,0.056518473,-0.023928814,6.66,32.1,-40.86
1553843284892,3.7230972999999996,3.5171897000000003,10.656918,-0.2436998,-0.22020347,0.05914886,6.66,31.74,-40.8
1553843284913,2.9928436,1.7358493000000002,9.488511,-0.11236378,-0.42239988,0.07380962,6.6,31.74,-40.379996999999996
1553843284932,2.4014575000000002,0.8786988000000001,8.226728,-0.025010044,-0.31794193,0.04387723,6.54,32.52,-40.44
1553843284952,2.3535721,0.47406640000000005,7.594639999999999,-0.043336004000000004,-0.11330206,0.012112236,6.6,33.239998,-40.14
1553843284973,2.4277947,0.23224466,7.3480296,-0.012181873999999999,0.09133779,-0.03614612,6.3599997,32.46,-39.719997
1553843284993,2.6552507999999997,0.53871185,7.865193,0.13503665,0.13226576,-0.09723264,5.94,32.399998,-40.379996999999996
1553843285012,2.7677817000000005,1.4413534,8.60263,0.31768537,0.14631566,-0.1155586,6.12,32.52,-40.98
1553843285032,3.213117,2.3416007000000003,9.239507000000001,0.32990265,0.14937,-0.08257188,6.3599997,31.679997999999998,-40.14
1553843285053,3.8236567999999997,3.7350687999999996,9.816526,0.13320406,0.21961950000000002,-0.032480925,6.8999996,31.08,-38.579997999999996
1553843285073,4.1660379999999995,5.262616,10.707197,-0.15634607,0.23611285,-0.0025485298,6.8399997,31.14,-39.0
1553843285093,4.364763,4.886715000000001,10.963385,-0.29317990000000005,0.018033965,0.07136617,6.2999997,31.8,-39.719997
1553843285112,3.6177492,2.1883671000000002,9.852441,-0.12580281,-0.3906349,0.1550547,5.64,31.619999,-40.079997999999996
1553843285132,2.631308,1.3048798000000001,8.925857,0.09410868,-0.45599747,0.14772432,6.48,31.74,-39.6
