TimeStamp,Ax,Ay,Az,Gx,Gy,Gz,Mx,My,Mz
1553843711673,3.9792848,3.093403,8.56911,-0.01401447,-0.052826405,0.25401488,-7.3199997,32.46,-39.3
1553843711693,3.0957972999999996,1.1037607,7.8125186,0.07395013,-0.17866464,0.11351587,-6.7799997,33.36,-38.879996999999996
1553843711713,2.4972286,0.3232271,7.5228114,0.07639358,-0.25868800000000003,0.00050579646,-7.5,33.54,-38.879996999999996
1553843711734,2.597788,0.5650489000000001,7.352817999999999,0.08066964,-0.21287309,-0.05263948,-7.8599997,33.0,-39.239998
1553843711753,3.067066,1.9130256,7.745479,0.08250224,-0.03694391,-0.10578476,-8.34,32.7,-39.239998
1553843711773,4.0199876,3.8978794000000003,8.887547999999999,0.00064629543,0.19457401,-0.062413324000000006,-8.34,32.88,-39.0
1553843711794,4.783761,5.66246,10.034406,-0.12885714,0.2617692,0.036546845,-7.9199996,32.94,-38.76
1553843711813,4.68799,5.7103453,9.924269,-0.14840484,0.19396316,0.14039394,-7.02,32.64,-39.66
1553843711833,4.0080160000000005,3.45015,9.052753,-0.07204667,0.010092715,0.19292834,-7.02,33.3,-40.02
1553843711854,3.2777622,2.0447106,8.281796,-0.025010044,-0.15300829999999999,0.15383297,-8.22,33.6,-39.6
1553843711873,2.8180614,1.1923488000000002,7.656891000000001,0.02813523,-0.22753386,0.07686395,-7.8599997,33.18,-39.96
1553843711894,2.8851009999999997,1.2282629999999999,7.563514,0.10815857,-0.2024884,0.0023383922,-7.02,33.66,-39.6
1553843711913,3.1604427999999998,1.8076775,7.944203999999999,0.19184712,-0.10169563,-0.09112399,-6.96,33.6,-39.3
1553843711934,3.5052182999999997,2.3679377999999995,8.40151,0.25049016,0.018644828000000002,-0.15831918,-7.56,33.48,-38.94
1553843711953,3.7254915,3.0335462000000004,8.387145,0.25232276,0.10783115,-0.19497108,-7.7999997,33.36,-38.28
1553843711973,3.9170337,3.9936504,8.013638,0.06784147,0.23611285,-0.13388455,-8.16,32.64,-38.7
1553843711993,4.436591,5.269798799999999,8.964165,-0.25652800000000003,0.30880582,-0.012933239,-8.46,32.7,-39.42
1553843712013,4.8172809999999995,6.976917,10.635368,-0.40618998,0.089505196,0.06709011,-7.5,33.36,-39.6
1553843712033,4.5084195,6.2083544999999996,10.26665,-0.28707123,-0.11696725,0.23263459,-7.62,33.42,-39.42
1553843712054,3.9409763999999994,2.466103,8.624178,-0.15756781,-0.16156043,0.24301929999999997,-8.34,33.48,-39.78
1553843712073,2.9258040000000003,0.30886146,7.7861814,-0.18688932,-0.20676444,0.07197703,-7.44,34.2,-39.84
1553843712093,2.631308,0.052674048,7.3384523,-0.12335935,-0.22264694,-0.023317947999999998,-7.3199997,34.079997999999996,-39.059998
1553843712113,2.743839,0.07901107,7.1349387,0.07700445,-0.20798618,-0.10700648,-7.56,33.54,-38.879996999999996
1553843712134,2.8348215,1.0223553,7.307327000000001,0.29874852,-0.104749955,-0.22001655,-7.02,33.239998,-38.64
1553843712153,3.0742488,2.2123098,7.743085000000001,0.37021977,0.092559524,-0.25972280000000003,-7.3199997,33.42,-39.059998
1553843712173,3.929005,4.2570205,8.724737,0.09410868,0.33568390000000004,-0.16626042,-7.68,33.54,-39.6
1553843712193,5.0998054,6.821289,10.443827,-0.35976420000000003,0.3198014,0.03104906,-7.74,33.3,-38.399998
1553843712213,5.3871183,8.427847,11.212389,-0.50331753,0.15364604,0.15810902,-7.62,33.239998,-37.8
1553843712233,4.2905407,4.187587000000001,9.316123,-0.1630656,-0.08153707,0.28455815,-7.3799996,32.94,-38.34
1553843712254,3.5554981,1.0032011,8.030397,0.011031005,-0.16461475,0.15138951,-6.7799997,33.3,-38.7
1553843712273,3.1029801,-0.0670397,7.5323887,0.036076482,-0.25746626,0.009668776,-7.2,32.94,-38.879996999999996
1553843712293,2.7773588,-0.60335726,7.2785953999999995,0.14236704,-0.34420913,-0.11128255,-7.98,33.059998,-38.46
1553843712314,2.8300327999999997,0.07901107,7.223527000000001,0.28103346,-0.25746626,-0.21696223,-8.28,33.36,-38.46
1553843712333,2.8994668,1.6688095,7.450983,0.37877187,0.0039840629999999995,-0.31714413,-8.099999,32.82,-39.18
1553843712354,3.7685885000000003,3.4333901,8.039975,0.30607890000000004,0.29597765,-0.27316183,-7.56,33.36,-39.3
1553843712373,4.6903844,5.3248672,9.299363,-0.10197906,0.60018855,-0.11128255,-8.16,33.059998,-39.18
1553843712393,5.138114,7.5419655,10.759871,-0.47949377,0.41998329999999995,0.11473759,-8.4,33.0,-39.12
1553843712413,5.3679643,8.526012,11.090281,-0.37137064,0.011314446,0.27661687,-7.8599997,33.54,-39.42
1553843712433,3.6369035000000003,3.4381785000000002,8.990502000000001,0.009809273,-0.23486425,0.36213803,-7.3199997,33.059998,-39.0
1553843712453,2.9138324,0.13168511,7.8101244,0.10999117,-0.1743886,0.19720441,-7.62,32.88,-38.579997999999996
1553843712473,2.9018610000000002,-0.50998056,7.266624,0.025080906,-0.20432098,0.04509896,-7.9199996,33.42,-38.7
1553843712493,2.80609,-0.49082634,6.9146657000000005,0.036076482,-0.27640307,-0.03981131,-7.259999799999999,33.3,-39.0
1553843712513,3.0694604,0.69673395,7.242681500000001,0.13503665,-0.20432098,-0.17847772,-7.14,33.42,-38.46
1553843712533,3.2777622,2.0375278000000003,7.757450599999999,0.21933606,-0.01617449,-0.28354654,-8.099999,33.66,-38.219997
1553843712553,3.816474,4.2546263,8.420665,0.09655214,0.312471,-0.22551434,-8.7,33.719997,-38.04
1553843712574,4.608979,6.158075,10.182851,-0.26324749999999997,0.40348992,-0.017209295,-7.98,33.12,-38.82
1553843712593,5.006428700000001,8.48531,11.202812,-0.46422216,0.23305853,0.167272,-7.68,32.82,-39.719997
1553843712614,4.4246197,6.016813,9.950606,-0.25286278,-0.03327872,0.31876659999999996,-7.9199996,33.66,-38.94
1553843712633,3.1293173,1.2881198,8.197997,-0.04394687,-0.16094956,0.24240842,-8.16,33.719997,-38.399998
1553843712653,2.762993,-0.28731298,7.56112,0.00064629543,-0.23242079,0.079307415,-7.98,33.66,-38.1
1553843712673,2.944958,-0.7302538000000001,7.257047,0.05012638,-0.32954836,-0.023928814,-7.44,33.42,-38.46
1553843712693,3.093403,-0.3423813,7.149304400000001,0.17046683,-0.3570373,-0.145491,-7.68,33.66,-39.0
1553843712713,3.205934,1.2929084,7.271412400000001,0.28286603,-0.1285737,-0.32264190000000004,-8.34,33.84,-39.3
1553843712734,3.8452053,3.0407290000000002,8.2027855,0.24926844,0.21595429999999996,-0.34463304,-8.76,33.48,-38.94
1553843712753,4.4389853,5.05192,9.246689,-0.045779463,0.44014186,-0.18336464,-8.34,33.42,-37.38
1553843712774,5.0399485,7.429435000000001,10.752688000000001,-0.41840726,0.38821828,0.06464665,-8.04,33.42,-37.26
1553843712793,5.078257,8.207574000000001,10.805361999999999,-0.35670987,0.17441547,0.16849375,-8.28,33.719997,-38.52
1553843712813,3.6584517999999995,3.258608,8.885154,-0.02439918,-0.18843849,0.25829092,-7.7999997,33.6,-39.18
1553843712834,2.8300327999999997,0.36871833,7.946598,0.11182377,-0.25196847,0.10435289,-7.44,33.239998,-39.12
1553843712853,2.9377751,-0.22745611,7.49408,0.106325984,-0.2849552,-0.011100643,-7.98,32.82,-38.76
1553843712874,3.1221343999999998,-0.17717634,7.2259210000000005,0.12343021,-0.28923127,-0.08440447599999999,-7.9199996,33.12,-38.16
1553843712893,3.3950818,0.7134939,7.472532000000001,0.18573846,-0.18966022,-0.19069502,-8.7,33.78,-38.16
1553843712913,3.684789,2.4254005000000003,7.946598,0.20589702,0.10477682,-0.26399884,-9.66,33.66,-38.82
1553843712933,4.278569,4.247443700000001,8.693612,0.10327166,0.35950762,-0.17542339999999998,-9.24,33.48,-38.94
1553843712953,4.517997,5.5044379999999995,9.531608,-0.10075733,0.41692895,-0.02820487,-8.58,33.3,-39.12
1553843712973,4.582642,6.742278,10.242707000000001,-0.21498914,0.22572815,0.12756577,-7.98,32.88,-38.7
1553843712993,4.1253357,5.3823300000000005,9.560339,-0.09159436,-0.02900266,0.21858469,-7.7999997,32.52,-38.34
1553843713014,3.2514252999999997,2.3583608,8.528407000000001,0.048293784000000006,-0.18171898,0.20636739,-7.62,33.0,-38.7
1553843713033,3.0407290000000002,0.84039044,8.018426,0.06295455,-0.20615359,0.09335732,-7.68,33.12,-38.879996999999996
1553843713053,3.1676257000000003,0.5818088,7.7071705,0.04157427,-0.21042964,0.02432954,-7.8599997,33.059998,-39.0
1553843713074,3.354379,0.9864412,7.5850625,0.09838474,-0.15178658,-0.07646323,-6.8999996,33.78,-37.62
1553843713093,3.5914123,2.0040080000000002,7.802942,0.15824953,0.009481851,-0.15404311,-7.3799996,34.2,-37.44
1553843713114,3.8787252999999997,3.4333901,8.102226,0.11609982,0.22267383,-0.14304753,-8.82,33.18,-38.46
1553843713133,4.2019525,4.812492400000001,9.069513,-0.062272824000000004,0.31491446,-0.045309097,-8.76,32.64,-39.239998
1553843713154,4.3575800000000005,6.344828,9.962578,-0.23759116,0.2422215,0.07686395,-8.4,32.88,-39.6
1553843713173,4.1301239999999995,5.9904757,9.811738,-0.21682173,0.09317039,0.16299595,-8.22,32.64,-39.059998
1553843713193,3.45015,3.2705792999999996,8.796566,-0.09892473,-0.061989382,0.20881085,-7.56,32.88,-38.7
1553843713213,3.0694604,1.2665714,8.181237,-0.05005552,-0.13834754,0.12023538,-8.04,33.12,-38.52
1553843713233,3.0862203,0.75180227,7.776604700000001,-0.027453506000000003,-0.1902711,0.034714247999999996,-8.4,33.78,-38.82
1553843713253,3.1987512000000002,0.7877164000000001,7.632948,0.025080906,-0.21531656,-0.034313522,-7.9199996,33.66,-38.879996999999996
1553843713274,3.4549387,1.4916332,7.7909703,0.10876945,-0.13590409,-0.1314411,-8.16,33.239998,-39.18
1553843713293,3.7183087,2.6193366,8.056735,0.13381493,0.070568375,-0.177256,-7.44,34.2,-38.94
1553843713313,4.075055600000001,3.7207031,8.576292,0.04523946,0.2177869,-0.13632801,-7.2,33.84,-37.92
1553843713334,4.5108137,5.1309309999999995,9.4142885,-0.17283943,0.25321710000000003,-0.014154969,-7.9199996,33.54,-37.2
1553843713353,4.5132080000000006,5.691191000000001,9.663293,-0.2192652,0.19518489,0.049375015999999994,-7.68,33.42,-37.62
1553843713373,3.9313992999999994,3.6800002999999997,8.9976845,-0.12641367,0.051020685999999996,0.095189914,-7.74,33.36,-38.1
1553843713394,3.3112822,1.8795058,8.40151,-0.042725135,-0.050382942,0.038990308,-8.04,33.42,-37.559998
1553843713413,3.1795970000000002,1.489239,8.176449,-0.012181873999999999,-0.09375438,-0.0153767,-7.74,32.76,-37.92
1553843713433,3.1867797,1.5490957,8.0711,0.0043114866,-0.13407148,-0.04469823,-7.08,32.7,-38.579997999999996
1553843713454,3.3424077000000003,2.0399222,8.233911500000001,0.029967828,-0.09008919,-0.07524149,-7.56,32.94,-39.239998
1553843713473,3.5435266000000003,2.5929997000000005,8.576292,0.07456099,0.01070358,-0.09234572,-7.62,33.18,-37.62
1553843713494,3.6871831,2.7845416000000003,8.820508,0.16252560000000002,0.06751405,-0.09234572,-6.42,33.18,-34.86
1553843713513,3.6225379,2.5810282000000004,8.674458,0.26026404,0.043690305,-0.10700648,-6.8399997,33.36,-33.96
1553843713534,3.4573328,2.5427197999999995,8.236305,0.29325077,0.0027623328000000004,-0.11006081,-7.56,33.0,-34.14
1553843713553,3.6033835,2.944958,8.013638,0.22116865,0.041246843,-0.056915537,-7.74,32.04,-34.38
1553843713573,4.0199876,3.7374629999999995,8.475733,0.05623503,0.19946094,0.050596748,-7.7999997,31.98,-34.86
1553843713594,4.5467277,5.4158497,9.311335,-0.11114205,0.21839777,0.11351587,-7.08,32.1,-34.68
1553843713613,4.812492400000001,5.832453299999999,9.720756,-0.051277254,0.08522914,0.1587199,-6.18,31.98,-33.96
1553843713633,4.276175,4.034353299999999,9.246689,0.06784147,-0.14506707,0.20636739,-6.2999997,32.1,-34.2
1553843713653,3.5387383000000003,2.073442,8.616995,0.08311310400000001,-0.267851,0.13733962,-6.42,32.88,-34.559998
1553843713673,2.9042554,1.3479767,8.039975,0.025080906,-0.22936645,0.043266362999999995,-6.48,32.82,-34.38
1553843713693,2.8515813,1.3048798000000001,7.656891000000001,0.014696196000000002,-0.11330206,-0.027594006,-7.74,32.579997999999996,-37.14
1553843713714,3.1484714,1.7358493000000002,7.781393,0.09288695,-0.0106767025,-0.08929139400000001,-8.76,33.239998,-39.239998
1553843713733,3.4309957000000004,2.4014575000000002,7.9920893,0.16619077,0.062016264,-0.14060408,-8.7,33.239998,-39.0
1553843713753,3.7159145,3.4477558,8.135746000000001,0.13381493,0.203737,-0.11678032599999999,-8.099999,32.34,-39.36
1553843713773,4.182798,4.6999617,8.818114,-0.035394754,0.3479012,-0.03614612,-7.44,32.28,-39.66
1553843713793,4.410254,5.669643,9.452597,-0.1752829,0.27337563,0.063424915,-7.68,33.0,-39.719997
1553843713814,3.955342,5.403878,9.270632,-0.12946801,0.10111163599999999,0.11779192,-7.14,32.1,-39.12
1553843713833,3.45015,3.4166303,8.674458,-0.022566582999999998,-0.02900266,0.1465026,-6.48,31.56,-39.899998
1553843713853,2.9904492,1.9297855,8.320105,0.0043114866,-0.12551937,0.09152472,-6.72,32.579997999999996,-39.96
1553843713873,2.944958,1.6448668000000002,8.157294,-0.037227347,-0.18171898,0.04143377,-6.66,32.64,-39.899998
1553843713893,3.0814316,1.664021,8.12138,-0.053109847,-0.17805378,-0.020874487,-6.66,32.28,-40.32
1553843713914,3.275368,2.2601955,8.056735,-0.047001194,-0.067487165,-0.08990226,-7.56,31.56,-39.78
1553843713934,3.6033835,3.1269228,8.4230585,-0.08243138,0.10111163599999999,-0.100286976,-7.98,32.52,-39.48
1553843713953,3.9361877,4.206741,9.105427,-0.12702455,0.16586336,-0.07524149,-8.28,33.66,-38.879996999999996
1553843713974,4.034353299999999,4.697566999999999,9.344854,-0.13313319,0.13287663,-0.03981131,-8.28,33.12,-38.82
1553843713993,3.6536633999999997,3.6345089999999995,8.875577,-0.08609657,-0.0106767025,0.010890506000000001,-8.4,32.52,-39.42
1553843714013,3.2873392,2.4254005000000003,8.303345,-0.04761206,-0.10719341,-0.009878913000000001,-7.8599997,32.76,-38.82
1553843714034,3.3591676,2.2745612,8.226728,-0.050666384,-0.1743886,-0.034313522,-7.3799996,32.219997,-38.76
1553843714053,3.7087317000000004,2.5906053,8.363202000000001,-0.057385902999999995,-0.20493186,-0.030037466000000002,-8.16,32.34,-39.239998
1553843714073,3.9960446000000003,3.0646717999999997,8.581081,-0.06288369,-0.11330206,-0.02576141,-8.4,32.04,-39.48
1553843714093,4.084633,3.2298767999999995,8.724737,-0.05372071,-0.038165636,-0.023928814,-8.22,31.98,-39.42
1553843714113,3.9673133000000003,2.5594797000000002,8.499676,0.047072057,0.027196944,-0.034313522,-8.7,32.82,-38.7
1553843714133,3.6536633999999997,2.126116,8.262642,0.13931271,0.018033965,-0.062413324000000006,-8.34,32.52,-38.52
1553843714153,3.512401,2.0638650000000003,8.20518,0.20956221,-0.02900266,-0.08440447599999999,-8.04,33.059998,-38.579997999999996
1553843714173,3.3304362000000003,2.4277947,7.9130783,0.23521855,-0.013120163999999998,-0.09234572,-8.099999,33.0,-38.879996999999996
1553843714193,3.5147953000000003,3.15326,7.929838,0.11732156,0.12615710000000002,-0.034313522,-8.28,32.64,-38.7
1553843714214,4.1540666,4.5754589999999995,8.8085375,-0.1416853,0.33812734,0.06647924,-8.58,32.64,-38.34
1553843714233,4.716721499999999,6.296942700000001,10.029617,-0.19421971,0.2526062,0.12451144,-8.22,32.94,-38.579997999999996
1553843714254,4.5084195,5.375147,9.773430000000001,-0.09220523,0.0009297369400000001,0.20270220000000003,-7.62,33.54,-39.059998
1553843714273,3.7781656000000003,2.9521408,8.925857,3.5430185000000004e-05,-0.16033868,0.22713679,-7.259999799999999,33.18,-40.02
1553843714294,3.0550947,1.3527653,8.197997,0.002478891,-0.18782762,0.15322211,-7.98,32.88,-40.2
1553843714313,2.743839,1.063058,7.8101244,-0.017068796,-0.16217127,0.07686395,-7.9199996,32.94,-40.32
1553843714333,2.7318675999999997,1.158829,7.589851400000001,0.04768292,-0.123686776,-0.02820487,-7.7999997,32.7,-39.48
1553843714353,2.9641123,1.7095122,7.745479,0.12953886,-0.05221554,-0.1173912,-8.28,32.579997999999996,-38.82
1553843714373,3.2442424,2.7151077,7.9130783,0.15702779999999997,0.092559524,-0.15648657,-8.639999000000001,33.059998,-39.84
1553843714394,3.840417,4.209135,8.681641,-0.03967081,0.2953668,-0.09112399,-8.46,32.52,-39.899998
1553843714413,4.5491223,5.7103453,9.859624,-0.2455324,0.2458867,0.013333966000000001,-7.68,32.1,-39.48
1553843714433,4.5682764,6.6489009999999995,10.08708,-0.28707123,0.10172250000000001,0.115348466,-7.8599997,32.64,-38.879996999999996
1553843714454,3.9864676,4.010410299999999,9.122187,-0.12519194,-0.094976105,0.20392393,-7.98,33.059998,-38.46
1553843714473,3.1221343999999998,1.4269878,8.224333999999999,-0.009127548000000001,-0.1829407,0.121457115,-7.3199997,33.059998,-38.399998
1553843714494,3.0287576,0.88588166,7.927444,0.012863601,-0.24158376,0.027994731000000002,-6.8999996,33.36,-38.64
1553843714513,3.0910087,0.7398309000000001,7.685622,0.047072057,-0.27701396,-0.04103304,-7.62,33.54,-38.7
1553843714533,3.2514252999999997,1.2282629999999999,7.74069,0.086167425,-0.19454713,-0.1259433,-7.7999997,33.78,-38.28
1553843714554,3.5243726000000004,2.4613144,7.9873009999999995,0.07089580000000001,0.03574906,-0.18153204,-7.5,33.6,-38.7
1553843714573,4.0439300000000005,3.7781656000000003,8.6433325,-0.05860763,0.25871488,-0.13449542,-7.9199996,32.82,-39.12
1553843714594,4.5084195,5.238673,9.620196,-0.2210978,0.2776517,-0.051417753,-7.8599997,32.28,-38.94
1553843714613,4.5898247,6.229903,9.864412,-0.24675414,0.16647421,0.028605599,-8.58,32.16,-39.0
1553843714634,4.034353299999999,4.106180999999999,9.098245,-0.11908329,-0.04549602,0.10862894,-8.22,32.579997999999996,-39.12
1553843714653,3.2538195,1.8938714,8.394327,-0.016457931999999998,-0.16278215,0.057927128,-7.7999997,33.84,-38.7
1553843714674,3.2011453999999997,1.2809371,8.063917,0.021415714,-0.20554271,-0.0037702604,-7.98,34.079997999999996,-38.28
1553843714693,3.2825508,1.0391153,7.757450599999999,0.061121956,-0.22447954,-0.040422175,-8.16,33.84,-38.7
1553843714713,3.4357843,1.3743136999999999,7.676044999999999,0.08800002,-0.13895841,-0.08196101,-8.22,33.78,-38.82
1553843714733,3.6560576,2.4421604,8.0711,0.04523946,0.064459726,-0.1033413,-7.98,33.48,-38.879996999999996
1553843714753,4.1349125,3.7925312999999994,8.887547999999999,-0.056775037,0.22023036,-0.059969865,-8.46,33.6,-37.92
1553843714773,4.3791285,4.9992456,9.555551,-0.13007887,0.2300042,-0.0074354519999999995,-8.34,33.42,-37.38
1553843714793,4.1756153,4.965726,9.517242,-0.11114205,0.14387220000000003,0.049985882,-7.98,33.719997,-38.16
1553843714820,3.4238129,2.5714512000000003,8.633755,-0.031118697999999997,-0.024115737999999998,0.08297260000000001,-7.9199996,33.84,-37.98
1553843714833,3.1628369999999997,1.8890828000000002,8.377566999999999,0.002478891,-0.089478314,0.063424915,-8.04,33.36,-38.28
1553843714853,3.265791,1.5634614,8.145323,0.049515515999999996,-0.14995398,0.04632069,-8.22,32.88,-38.579997999999996
1553843714874,3.3232534,1.5993756000000001,7.977723599999999,0.09227608,-0.16766907,0.02066435,-7.98,33.059998,-39.3
1553843714893,3.5602864999999997,2.0973847,8.2027855,0.12343021,-0.09436524,-0.01904189,-7.98,33.18,-39.42
1553843714913,3.859571,2.813273,8.353624,0.13931271,0.033305597,-0.04408737,-8.46,33.239998,-39.0
1553843714934,3.955342,3.4740927000000004,8.432636,0.07822618,0.17869152,-0.020874487,-8.519999499999999,33.3,-38.64
1553843714953,4.1516724,4.051113,8.990502000000001,-0.04761206,0.21961950000000002,0.020053484,-8.04,33.3,-38.219997
1553843714973,4.158855399999999,4.7909440000000005,9.332883,-0.10320080000000001,0.12860057,0.038379442,-7.98,33.18,-38.64
1553843714993,3.8691480000000005,4.223500700000001,9.182044,-0.067770615,0.009481851,0.06586838,-8.28,33.3,-38.64
1553843715013,3.469304,2.6169424,8.715160000000001,-0.009127548000000001,-0.08642399,0.0725879,-8.22,33.48,-38.52
1553843715033,3.265791,1.7071179,8.284191,0.020193983000000002,-0.12979543,0.03349252,-8.099999,32.88,-38.64
1553843715053,3.2801563999999996,1.5299416000000001,7.9920893,0.047072057,-0.14140187,0.0011166617,-8.7,32.579997999999996,-38.16
1553843715074,3.4118416,1.8938714,7.8556156,0.07395013,-0.09314351,-0.045309097,-8.58,32.94,-38.399998
1553843715093,3.6512692,2.6289136,8.059128999999999,0.05623503,0.0143687725,-0.06852197,-8.04,33.3,-39.42
1553843715113,4.1253357,3.9601305,8.904308,-0.067770615,0.16280901,-0.03858958,-8.7,33.42,-39.42
1553843715133,4.2665977,4.9585433,9.371192,-0.14962655,0.19579574,0.007225314,-7.98,33.719997,-39.54
1553843715153,3.9864676,4.4844766,9.268238,-0.13740925,0.12921144,0.05242934,-6.96,33.84,-39.6
1553843715173,3.3783216,2.7270790000000003,8.638542999999999,-0.075100996,-0.011898434,0.053040206,-7.98,34.14,-38.94
1553843715193,3.0431232,1.8052831999999999,8.262642,-0.026231775,-0.096197836,0.0047818534,-8.46,33.899998,-38.04
1553843715214,3.100586,1.5467016000000002,8.162083,0.024470039,-0.16705821,-0.036756985,-7.74,33.48,-37.92
1553843715233,3.2490308,1.7358493000000002,7.9968777,0.062343687,-0.17377773,-0.070354566,-8.4,33.84,-38.579997999999996
1553843715253,3.4884584000000003,2.4373717,8.20518,0.029967828,-0.06015679,-0.08929139400000001,-8.639999000000001,33.84,-39.059998
1553843715273,4.034353299999999,3.5243726000000004,8.863605499999998,-0.061051093,0.064459726,-0.062413324000000006,-8.04,33.78,-37.68
1553843715293,4.343214499999999,4.522785,9.287392,-0.10930945,0.11760499,-0.023928814,-8.16,33.84,-36.96
1553843715313,4.237866400000001,4.2139235,9.110215,-0.08548570400000001,0.10966375,0.012723101,-8.16,33.42,-37.92
1553843715333,3.7542229,2.640885,8.511647,-0.02439918,0.018033965,0.023718676,-7.9199996,33.6,-38.1
1553843715353,3.45015,2.1117504,8.279403,0.0055332175,-0.06382198,0.0035601228000000005,-7.74,34.32,-38.399998
1553843715373,3.4166303,2.0710478,8.13814,0.02813523,-0.099252164,-0.00010506882,-8.16,34.38,-37.98
1553843715394,3.4788813999999997,2.5115943,8.169266,-0.004851492,-0.056491595,0.0047818534,-8.519999499999999,33.899998,-37.739998
1553843715413,3.840417,3.4046587999999995,8.686428999999999,-0.07693359,0.022920884,0.027994731000000002,-8.46,33.54,-37.559998
1553843715434,4.2139235,4.2665977,9.282603,-0.15451348,0.10050077,0.07197703,-8.22,32.82,-38.04
1553843715453,4.1037870000000005,3.7949257000000003,9.213169,-0.13740925,0.105387695,0.08602693,-8.099999,33.3,-38.219997
1553843715473,3.6991546000000004,2.4254005000000003,8.696006,-0.067770615,0.032083865,0.061592318,-7.56,33.36,-36.96
1553843715494,3.189174,1.4820561,8.162083,-0.007294953000000001,-0.030835256000000002,0.0035601228000000005,-7.44,33.6,-37.5
1553843715513,3.1245286,1.3431882,8.061523,0.07333925,-0.09131091,-0.041643906,-7.8599997,34.44,-38.579997999999996
1553843715534,3.2250881000000002,1.5490957,8.016032000000001,0.16496904,-0.13468234,-0.07585236,-8.639999000000001,34.86,-37.92
1553843715553,3.301705,2.1716073,7.8915296,0.19551231,-0.04977208,-0.08929139400000001,-8.94,34.2,-37.98
1553843715574,3.7733772000000005,3.2346652000000002,8.391933,0.05195898,0.1157724,-0.037367847,-8.76,33.78,-38.219997
1553843715593,4.4677167,4.8938975,9.569917,-0.13435492,0.17563719,0.048764154000000004,-8.82,33.84,-38.28
1553843715613,4.771789599999999,6.1772290000000005,10.034406,-0.20216097,0.15364604,0.11901366,-9.0,34.32,-38.399998
1553843715634,4.0726614,3.921822,9.225141,-0.10197906,0.033916462,0.13000923,-8.88,34.02,-38.46
1553843715653,3.2610023,1.7214836,8.40151,-0.05005552,-0.03572218,0.06403578,-8.4,33.84,-38.399998
1553843715673,2.9090437999999996,0.99362403,7.9944835,-0.019512258,-0.08092621,-0.008657183,-8.58,34.26,-38.219997
1553843715693,2.8994668,0.80208206,7.8053360000000005,0.04585032,-0.16766907,-0.058137268,-7.8599997,34.92,-37.8
1553843715714,3.0790374,1.1947431999999998,7.824489999999999,0.13320406,-0.172556,-0.10700648,-7.2,34.86,-37.68
1553843715733,3.3112822,2.2745612,8.028004,0.15214087,-0.03022439,-0.12472158,-8.4,34.32,-38.219997
1553843715753,3.9792848,3.6177492,8.786988000000001,0.028746097999999998,0.13532008,-0.06974371,-9.599999,34.079997999999996,-38.28
1553843715774,4.647287400000001,5.2147307000000005,9.797373,-0.15145916,0.18052413,0.027994731000000002,-8.88,33.6,-38.399998
1553843715793,4.7310870000000005,5.906676,9.917086999999999,-0.19177626,0.14631566,0.0970225,-7.62,33.84,-37.02
1553843715813,4.0199876,3.5578922999999993,9.09585,-0.092816085,0.018644828000000002,0.10679635,-7.7999997,34.14,-36.719997
1553843715833,3.275368,1.5467016000000002,8.339259,-0.008516683,-0.067487165,0.04632069,-7.98,33.66,-37.8
1553843715853,3.0694604,0.90982443,7.9585695,0.05195898,-0.12613024,-0.0062137214,-8.22,33.66,-37.92
1553843715873,3.031152,0.74701375,7.6712565,0.10693685,-0.18110810000000002,-0.04836342,-8.4,33.96,-38.28
1553843715893,3.1580484,1.4485363000000002,7.692805,0.14603223,-0.13773668,-0.09295659,-8.28,34.32,-37.62
1553843715914,3.5507095,2.7725701000000003,8.176449,0.10266079,0.01986656,-0.09234572,-8.7,34.5,-37.5
1553843715933,4.1540666,4.017593,9.004868,-0.023177449,0.13837442,-0.02820487,-9.059999000000001,34.38,-37.739998
1553843715953,4.6568646,5.695979599999999,9.866806,-0.16734165,0.19151969,0.06647924,-8.82,34.44,-38.46
1553843715974,4.3887057,5.0998054,9.617802000000001,-0.14657223,0.12004846,0.09641164,-8.099999,34.26,-38.34
1553843715993,3.581835,2.5810282000000004,8.734314999999999,-0.07265753,-0.0045680506,0.07319876,-7.7999997,33.96,-38.399998
1553843716013,3.1628369999999997,1.3575538,8.164477,-0.018290527,-0.056491595,0.021275215,-7.98,34.68,-37.92
1553843716034,3.1293173,0.8978530999999998,7.896318400000001,0.04157427,-0.13162802,-0.0153767,-7.9199996,35.219997,-37.32
1553843716053,3.1269228,0.92658436,7.6521025,0.09288695,-0.16705821,-0.041643906,-7.9199996,35.16,-37.26
1553843716073,3.3136763999999994,1.7023293999999998,7.903500999999999,0.15275174,-0.11208033,-0.094789185,-8.46,33.96,-38.1
1553843716094,3.7542229,2.9689007000000003,8.344047999999999,0.10999117,0.04674463,-0.070354566,-8.88,33.54,-38.1
1553843716113,4.2258949999999995,4.187587000000001,9.136553,-0.01157101,0.15181345,-0.013544105,-8.82,33.42,-37.8
1553843716133,4.522785,5.4134555,9.766247,-0.13252233,0.1933523,0.054261937999999996,-9.12,33.54,-37.62
1553843716154,4.2043467,4.7981267,9.560339,-0.11847243,0.11027461,0.0725879,-8.76,34.44,-37.8
1553843716173,3.5842294999999997,2.657645,8.751075,-0.06715974,0.013147042,0.068922706,-8.639999000000001,34.92,-37.86
1553843716193,3.1245286,1.5012103,8.284191,-0.017068796,-0.052826405,0.01944262,-8.099999,33.84,-37.32
1553843716214,3.1772027,1.1372806,8.075889,0.021415714,-0.1285737,0.0035601228000000005,-7.3199997,33.12,-36.719997
1553843716233,3.213117,1.1277034,7.834067299999999,0.07700445,-0.17561032,-0.023317947999999998,-7.14,33.36,-37.14
1553843716253,3.4573328,1.8531687,8.150111,0.1429779,-0.121243306,-0.077684954,-8.76,34.079997999999996,-38.52
1553843716274,3.8188684,2.7749646,8.40151,0.17229943,-0.008844106,-0.08806966,-8.46,33.84,-38.28
1553843716293,3.964919,3.5363437999999996,8.564321000000001,0.114878096,0.1334875,-0.058137268,-7.9199996,33.36,-38.28
1553843716313,4.182798,4.106180999999999,9.050359,-0.019512258,0.20251527,-0.005602856,-7.8599997,33.78,-38.579997999999996
1553843716333,4.2570205,5.1668449999999995,9.526819,-0.14107445,0.14020702,0.03104906,-8.4,34.62,-38.1
1553843716353,3.9194279,4.4820824,9.28021,-0.11480723,0.031473,0.05242934,-8.04,34.2,-38.52
1553843716373,3.4645156999999998,2.6145482,8.736709,-0.06288369,-0.06260025,0.06281405,-8.7,33.48,-38.16
1553843716393,3.2921278,1.6951466,8.344047999999999,-0.060440227,-0.0986413,0.04632069,-8.4,33.96,-38.46
1553843716414,3.3136763999999994,1.4365649,8.047157,-0.062272824000000004,-0.1371258,0.02555127,-8.16,34.2,-37.8
1553843716433,3.3926873,1.6783867,7.9849067,-0.028064372,-0.12002158,-0.023928814,-8.34,33.6,-37.86
1553843716453,3.6129606,2.2745612,8.195602000000001,0.0061440826,-0.047328617,-0.067300245,-8.34,33.719997,-37.8
1553843716473,3.8619652,3.0383348,8.626572999999999,0.008587544,0.05040982,-0.07524149,-8.46,34.44,-37.44
1553843716494,4.000833,3.5698638,8.966559,3.5430185000000004e-05,0.09072693,-0.058137268,-7.98,34.079997999999996,-37.32
1553843716513,3.8715425000000003,3.5962007000000007,8.935433,-0.008516683,0.084007405,-0.04897429,-8.099999,33.239998,-36.899998
1553843716533,3.6081722000000003,3.110163,8.739103,-0.01401447,0.03513819,-0.037367847,-8.04,33.54,-37.44
1553843716553,3.4908525999999998,2.7917243999999997,8.628966,0.011641869,-0.024726603,-0.034313522,-7.9199996,33.54,-37.559998
1553843716573,3.5483153,2.6289136,8.5882635,0.03851994,-0.061989382,-0.009268047,-7.9199996,33.6,-37.62
1553843716593,3.6081722000000003,2.4254005000000003,8.509253,0.07211753,-0.07298495599999999,0.0023383922,-7.68,33.719997,-37.44
1553843716613,3.6704233,2.2194927000000004,8.430242,0.11060204,-0.06015679,-0.005602856,-8.58,33.96,-37.44
1553843716634,3.7302802,2.1931557999999995,8.408693,0.16374731,-0.036333042999999995,-0.028815735,-8.7,34.44,-37.14
1553843716653,3.7685885000000003,2.3296294,8.274613,0.18818194,0.009481851,-0.042254772,-8.4,34.44,-37.86
1553843716673,3.8260512,2.743839,8.332075999999999,0.13870184,0.10111163599999999,-0.027594006,-8.16,33.42,-38.52
1553843716693,3.9768906000000004,3.5962007000000007,8.73192,0.02569177,0.20190439999999998,0.018831754,-7.74,33.059998,-38.34
1553843716713,4.0918155,4.6065845,9.184438,-0.013403606,0.17869152,0.06709011,-7.7999997,33.059998,-38.64
1553843716733,3.938582,4.419831299999999,9.189227,0.0055332175,0.08095308400000001,0.08908126,-8.4,32.34,-38.46
1553843716754,3.5483153,3.1963567999999998,8.837268,0.035465613,-0.037554774,0.08541607,-8.7,32.04,-38.04
1553843716773,3.2633965,2.3679377999999995,8.46855,0.043406863,-0.11574552,0.03715771,-8.04,32.399998,-38.76
1553843716794,3.189174,2.0925963,8.097438,0.04401773,-0.11208033,0.0047818534,-7.68,32.94,-39.54
1553843716813,3.2801563999999996,2.2242813,7.944203999999999,0.002478891,-0.038165636,-0.005602856,-8.519999499999999,33.54,-39.0
1553843716833,3.6273263,3.1221343999999998,8.322499,-0.08243138,0.060794532000000005,0.004170988,-9.42,33.42,-39.0
1553843716854,4.0367475,4.0942099999999995,9.050359,-0.17100683,0.10477682,0.028605599,-9.3,33.84,-39.059998
1553843716873,4.0822387,4.6568646,9.399923,-0.16734165,0.10050077,0.054261937999999996,-8.519999499999999,33.36,-38.52
1553843716893,3.840417,3.7278860000000003,9.12937,-0.09648128,0.016812233,0.06525751,-7.44,32.579997999999996,-39.0
1553843716914,3.2466366,1.9585168000000002,8.38475,-0.033562157,-0.033889584,0.010890506000000001,-7.68,32.579997999999996,-38.399998
1553843716933,3.0000262,1.2833313,8.004061,-0.0017971654999999998,-0.05343727,-0.04286563400000001,-8.34,32.64,-38.28
1553843716953,3.1652312,1.4365649,7.9130783,0.044628594,-0.12551937,-0.058137268,-7.3799996,32.46,-38.82
1553843716973,3.337619,2.1620302000000002,7.9178667,0.039741673,-0.10169563,-0.06424592,-7.56,32.64,-37.8
1553843716993,3.8906965,3.397476,8.696006,-0.060440227,0.006427524,-0.036756985,-7.98,33.3,-37.8
1553843717013,4.383917299999999,4.6736245,9.474146000000001,-0.1594004,0.070568375,0.007836179,-7.9199996,33.42,-38.64
1553843717034,4.264203500000001,4.8029150000000005,9.498088000000001,-0.16489819,0.11210721,0.038990308,-8.099999,33.059998,-39.059998
1553843717053,3.7590114999999997,3.0191805,8.839663,-0.11786156,0.041246843,0.04387723,-8.28,33.899998,-38.82
1553843717074,3.337619,1.924997,8.40151,-0.08365311,-0.0406091,-0.0013267993,-8.519999499999999,34.44,-37.86
1553843717093,3.2969165,1.7765520000000001,8.2027855,-0.04455773,-0.10780427599999999,-0.029426599999999997,-7.7999997,34.739998,-37.86
1553843717113,3.3783216,1.6257126,8.130958,0.021415714,-0.15178658,-0.03858958,-7.74,34.32,-38.34
1553843717134,3.4645156999999998,1.802889,8.056735,0.10571512,-0.11696725,-0.067300245,-8.04,33.899998,-38.579997999999996
1553843717153,3.5650752,2.2362528,8.166871,0.12404107,-0.017396221,-0.07096544,-8.28,33.6,-37.2
1553843717173,3.9026680000000002,2.9665065,8.566715,0.053180705999999994,0.07423357,-0.039200444,-7.5,33.18,-36.66
1553843717194,4.314483,4.336032,9.287392,-0.028064372,0.11332894,0.0047818534,-7.7999997,33.78,-37.38
1553843717213,4.3575800000000005,4.5874305,9.404712,-0.034173023,0.10660942,0.03288165,-8.28,33.96,-37.079997999999996
1553843717233,3.8260512,3.0814316,8.861211,0.018972252,0.043690305,0.03715771,-7.8599997,33.84,-37.14
1553843717253,3.4453614000000004,2.0423164000000003,8.473338,0.07089580000000001,-0.024115737999999998,0.0035601228000000005,-8.58,34.32,-38.64
1553843717274,3.301705,1.8555629,8.217151,0.12037589,-0.091921784,-0.017820163,-9.3,34.14,-38.46
1553843717293,3.347196,2.0327394,8.0926485,0.12159761,-0.09008919,-0.015987566,-9.059999000000001,33.719997,-38.04
1553843717313,3.5985951000000003,2.6337023,8.432636,0.07639358,-0.025337468999999998,-0.011100643,-8.519999499999999,33.239998,-37.98
1553843717333,3.981679,3.5411325,8.865999,0.031800423,0.064459726,0.018220888,-8.58,32.76,-38.219997
1553843717353,4.046324299999999,3.8332339999999996,8.966559,0.03363302,0.11882673,0.0408229,-8.7,33.239998,-38.34
1553843717373,3.7853483999999997,3.4118416,8.645726,0.05562417,0.10966375,0.039601172999999996,-7.3799996,34.26,-37.86
1553843717393,3.5483153,2.9808722000000003,8.348836,0.015917927,0.057129342,0.04754242,-7.44,34.26,-38.04
1553843717413,3.6009892999999997,3.3400133000000003,8.600235000000001,-0.05372071,0.0125361765,0.06464665,-8.34,33.899998,-38.1
1553843717433,3.7709827000000007,3.799714,8.971347999999999,-0.09159436,-0.021061412999999998,0.0848052,-8.28,33.78,-38.28
1553843717453,3.7326744,3.4094474000000003,8.92825,-0.08792917,-0.025337468999999998,0.10862894,-7.56,33.899998,-38.34
1553843717473,3.545921,2.3751206000000002,8.535589,-0.055553306,-0.04121997,0.08908126,-8.04,33.48,-38.1
1553843717493,3.3663504,1.8483802,8.2027855,-0.017068796,-0.05221554,0.038379442,-8.76,33.12,-38.64
1553843717513,3.2873392,1.8795058,8.099832000000001,0.04157427,-0.061989382,-0.019652756,-8.099999,33.12,-38.64
1553843717534,3.3663504,2.1811842999999995,8.018426,0.06784147,-0.038776506,-0.05630467,-8.099999,33.12,-37.92
1553843717553,3.5962007000000007,2.8635526000000002,8.348836,-0.0030188959999999996,0.032694727,-0.063024186,-8.28,33.84,-37.68
1553843717574,4.070266999999999,4.1971636,9.28021,-0.12641367,0.08339655,-0.031870063,-8.22,34.02,-37.86
1553843717593,4.1325183,4.764607,9.466963,-0.16367646,0.09683557599999999,0.0011166617,-8.4,34.079997999999996,-37.739998
1553843717614,3.7709827000000007,3.3567734,8.964165,-0.11663983,0.027807808,0.02555127,-8.7,34.2,-37.92
1553843717634,3.4836697999999995,2.2194927000000004,8.514041,-0.07449013,-0.05832419,0.013333966000000001,-8.28,33.719997,-38.52
1553843717653,3.4022646,1.8268316999999998,8.274613,-0.034173023,-0.12918456,-0.009268047,-7.98,34.02,-38.76
1553843717673,3.4597269999999996,1.6616267,8.109408,0.02813523,-0.16033868,-0.033702657000000004,-8.16,34.079997999999996,-37.8
1553843717693,3.5339496,1.8244373999999999,8.006455,0.07456099,-0.10902601,-0.060580727,-7.98,34.38,-37.2
1553843717714,3.6369035000000003,2.4158232,8.226728,0.05012638,0.0039840629999999995,-0.067300245,-8.04,35.04,-37.68
1553843717733,3.9936504,3.5746522000000005,8.911489999999999,-0.040281676,0.09683557599999999,-0.033702657000000004,-8.82,34.38,-38.04
1553843717753,4.192375,4.410254,9.323306,-0.081209645,0.124324515,-0.0007159340299999999,-8.94,34.14,-37.98
1553843717774,4.0678730000000005,4.0798445,9.184438,-0.06593802,0.09622472,0.022496943999999998,-8.639999000000001,33.84,-37.44
1553843717793,3.6728175000000003,2.6935592,8.691217,-0.019512258,0.015590503,0.012112236,-8.22,34.26,-37.62
1553843717814,3.45015,2.0327394,8.420665,0.018361388,-0.07176323,-0.015987566,-8.88,33.3,-38.64
1553843717834,3.502824,1.8723229,8.281796,0.06051109,-0.13101715,-0.020874487,-8.82,33.96,-38.34
1553843717854,3.581835,1.9321798,8.310528,0.10938031,-0.1230759,-0.03553525,-8.82,33.78,-38.52
1553843717873,3.6919718,2.2721667,8.356019,0.16557992,-0.06382198,-0.05874813,-8.46,33.78,-38.64
1553843717894,3.7590114999999997,2.5331428,8.320105,0.18451674,0.038192517999999995,-0.058137268,-8.28,33.239998,-37.98
1553843717913,3.9002736000000002,2.9928436,8.403905,0.10327166,0.1475374,-0.027594006,-8.4,33.239998,-38.28
1553843717934,4.14449,3.6823947,8.887547999999999,-0.005462356999999999,0.18174586,0.010279640999999999,-8.46,33.54,-38.52
1553843717953,4.268992,4.8484063,9.289786,-0.029286101000000002,0.15242432,0.046931557,-8.22,33.84,-39.0
1553843717973,3.8883023000000003,4.235472,9.11261,0.018972252,0.06873578,0.06586838,-8.099999,33.6,-38.76
1553843717993,3.4956412000000006,2.8946784,8.724737,0.040963400000000004,-0.011898434,0.07319876,-9.12,33.059998,-38.399998
1553843718013,3.2705792999999996,2.169213,8.439817999999999,0.031189557000000003,-0.091921784,0.04632069,-9.24,32.88,-38.879996999999996
1553843718033,3.2849449999999996,2.0590763,8.233911500000001,0.025080906,-0.118188985,0.03104906,-8.519999499999999,32.94,-38.82
1553843718053,3.3759273999999997,2.1811842999999995,8.087860000000001,0.04218513,-0.08275881,-0.0025485298,-8.16,33.42,-38.34
1553843718073,3.5650752,2.6744049,8.200391,0.021415714,0.010092715,-0.018431026,-7.98,34.02,-38.64
1553843718094,3.9242165,3.6536633999999997,8.803747999999999,-0.049444657,0.09500299,0.0029492574,-7.3199997,33.48,-38.219997
1553843718113,4.0032277,4.242655,9.124581,-0.09342695,0.111496344,0.015777428,-7.2,33.3,-38.34
1553843718134,3.8475995000000003,3.938582,9.024022,-0.081209645,0.06384886,0.026162136000000003,-8.04,33.899998,-38.7
1553843718153,3.5578922999999993,2.954535,8.640938,-0.04822292,-0.009454971999999999,0.018831754,-8.04,33.899998,-38.579997999999996
1553843718173,3.2993107000000004,2.0686533,8.2578535,-0.015847066,-0.06382198,-0.023928814,-7.3199997,34.02,-38.579997999999996
1553843718194,3.3088877,1.9848539,8.059128999999999,0.012863601,-0.089478314,-0.049585156,-7.98,33.66,-37.739998
1553843718213,3.3926873,2.2218869999999997,7.941809700000001,0.00064629543,-0.06565457,-0.051417753,-7.9199996,33.6,-37.559998
1553843718233,3.6991546000000004,3.0790374,8.432636,-0.08915089,0.0143687725,-0.02820487,-8.94,33.18,-37.98
1553843718253,4.122941,4.312089,9.232324,-0.16917424,0.07423357,0.0017275269,-9.78,33.18,-38.28
1553843718273,4.0439300000000005,4.460534,9.320911,-0.1752829,0.12798971,0.036546845,-9.24,33.6,-37.86
1553843718293,3.7015488,3.2298767999999995,8.966559,-0.12580281,0.09194866,0.046931557,-8.519999499999999,34.02,-37.92
1553843718313,3.301705,2.0399222,8.547561,-0.07693359,0.0039840629999999995,-0.0037702604,-7.74,34.92,-37.8
1553843718333,3.1795970000000002,1.647261,8.322499,-0.029896967000000003,-0.09070005,-0.05630467,-8.099999,34.98,-37.62
1553843718354,3.2705792999999996,1.5299416000000001,8.114198,0.04523946,-0.16705821,-0.08073928,-8.46,34.32,-37.92
1553843718373,3.3855044999999997,1.7478206000000003,8.037580499999999,0.11609982,-0.15300829999999999,-0.10456303,-7.8599997,34.32,-38.7
1553843718394,3.5914123,2.439766,8.22194,0.097163,-0.050993808,-0.105173886,-8.099999,34.02,-38.52
1553843718413,4.0582957,3.493247,8.798960000000001,-0.032340426,0.06995751,-0.05874813,-9.059999000000001,33.0,-37.559998
1553843718433,4.455744999999999,4.982486,9.557945,-0.16734165,0.11760499,0.012112236,-9.719999000000001,33.239998,-38.04
1553843718453,4.4222255,5.0447370000000005,9.605830000000001,-0.16611992,0.08095308400000001,0.053651072,-9.66,33.96,-38.16
1553843718474,3.756617,2.9305923,8.74868,-0.08243138,-0.0015137241,0.068922706,-8.639999000000001,33.719997,-37.92
1553843718493,3.3519847,1.7310607,8.279403,-0.05249898,-0.038165636,0.037768576,-8.46,33.6,-37.8
1553843718513,3.2777622,1.4174107,8.05434,-0.016457931999999998,-0.08398053,0.010890506000000001,-8.82,34.32,-37.559998
1553843718533,3.337619,1.4365649,7.989694999999999,0.05012638,-0.1285737,-0.014154969,-8.639999000000001,34.68,-38.219997
1553843718554,3.440573,1.9130256,8.018426,0.11243464,-0.09803043,-0.046530827999999996,-8.04,34.26,-38.94
1553843718574,3.6488747999999998,2.6025767,8.265037,0.091665216,0.027807808,-0.04408737,-9.059999000000001,34.5,-38.94
1553843718593,4.034353299999999,3.7494342000000005,8.935433,-0.025010044,0.13104403,0.0011166617,-9.78,34.44,-37.86
1553843718614,4.383917299999999,4.9585433,9.660899,-0.13740925,0.14081787,0.054261937999999996,-9.24,33.66,-36.719997
1553843718633,4.2019525,4.685596,9.634561999999999,-0.13557667,0.07973135,0.07564222,-8.76,33.6,-37.26
1553843718653,3.641692,2.7414446,8.791777,-0.08854003,-0.00029199357999999995,0.0707553,-8.88,34.02,-37.92
1553843718673,3.1293173,1.3647367,8.473338,-0.06960321,-0.077261016,0.05609453,-9.0,34.559998,-38.28
1553843718694,3.2729738,1.733455,8.284191,0.011031005,-0.10108476,-0.039200444,-8.7,34.739998,-38.28
1553843718713,3.5985951000000003,1.0439038,7.80773,0.12343021,-0.07481755,-0.009878913000000001,-8.88,33.96,-37.5
1553843718734,3.3232534,1.6137413,7.932232400000001,0.17840809,-0.17194512,-0.073408894,-8.94,33.66,-37.2
1553843718754,3.3232534,2.569057,8.265037,0.25598797,0.024753481,-0.1015087,-8.76,34.2,-37.92
1553843718773,3.7111259,3.0191805,8.293768,0.17535377,0.14265047,-0.07096544,-8.46,34.26,-38.46
1553843718794,4.051113,4.113364,9.004868,-0.05005552,0.19090883,0.013944831999999999,-9.12,33.96,-37.559998
1553843718814,4.460534,5.7678080000000005,9.838076,-0.22231951,0.21045650000000002,0.09152472,-9.3,33.239998,-38.219997
1553843718833,4.3456087,5.4781010000000006,9.780613,-0.17772634,0.064459726,0.10374202,-7.74,33.42,-37.8
1553843718854,3.6943660000000005,2.5738453999999997,8.8085375,-0.07204667,-0.08764572400000001,0.083583474,-7.68,34.26,-36.719997
1553843718873,3.328042,1.185166,8.207574000000001,-0.0024080307,-0.13895841,0.029216462999999998,-8.28,34.2,-37.98
1553843718894,3.2274826,0.69673395,7.879558599999999,0.067230605,-0.15423004,0.005392718,-8.46,33.96,-37.92
1553843718913,3.189174,0.89067024,7.7933645,0.14358877,-0.16583647,-0.034924388,-8.76,33.54,-37.92
1553843718934,3.2801563999999996,1.7933118000000001,7.853221400000001,0.18451674,-0.07481755,-0.08562621,-9.54,33.059998,-38.579997999999996
1553843718953,3.7159145,3.15326,8.394327,0.10327166,0.12004846,-0.057526402000000004,-8.88,32.88,-38.76
1553843718974,4.280963400000001,4.5156019999999994,9.320911,-0.08426398,0.23489113,0.031659923,-8.4,33.66,-38.28
1553843718993,4.5156019999999994,5.930619,9.888355,-0.21193482,0.23244767,0.10496375,-9.3,34.38,-38.46
1553843719013,4.120547,4.8484063,9.474146000000001,-0.14596136,0.06568145,0.10862894,-8.76,34.8,-38.7
1553843719033,3.4142358,2.52596,8.655303,-0.08059879,-0.07909361,0.06709011,-7.9199996,34.68,-37.62
1553843719053,3.1053743,1.4006507,8.231517,-0.03967081,-0.14262360000000002,0.02188608,-7.98,34.62,-37.559998
1553843719074,3.1915683999999995,1.0271438,7.975329400000001,-0.006684086999999999,-0.17011254,0.02432954,-8.4,35.34,-37.62
1553843719094,3.1628369999999997,0.9289786,7.6712565,0.067230605,-0.16400388,-0.013544105,-8.519999499999999,34.739998,-38.219997
1553843719113,3.337619,1.647261,7.9011070000000005,0.15091914,-0.102306485,-0.073408894,-8.58,33.54,-38.64
1553843719133,3.6728175000000003,2.597788,8.190814,0.14664309,0.031473,-0.072798036,-8.7,33.18,-37.86
1553843719154,4.168432,3.859571,8.988108,-0.0030188959999999996,0.16464162,-0.009878913000000001,-8.88,33.3,-37.98
1553843719173,4.62095,5.514014700000001,9.80695,-0.1716177,0.20434786,0.061592318,-9.36,33.36,-38.52
1553843719193,4.403071400000001,5.5044379999999995,9.830893,-0.18322414,0.12615710000000002,0.07380962,-9.36,33.239998,-38.34
1553843719214,3.5554981,2.9593236000000003,8.863605499999998,-0.10625512,-0.01495276,0.04143377,-8.519999499999999,33.66,-37.32
1553843719233,3.2466366,1.6017698,8.332075999999999,-0.06288369,-0.08642399,-0.014765833999999999,-7.9199996,33.899998,-37.079997999999996
1553843719253,3.2538195,1.1468576000000001,8.066312,-0.018901393,-0.1585061,-0.017209295,-8.04,34.38,-37.14
1553843719273,3.2729738,0.95531565,7.738296000000001,0.07089580000000001,-0.18782762,-0.029426599999999997,-8.099999,35.04,-37.32
1553843719293,3.4118416,1.4006507,7.9178667,0.14236704,-0.1444562,-0.052028615,-8.34,34.38,-37.44
1553843719314,3.684789,2.3679377999999995,8.135746000000001,0.17046683,-0.0057897805,-0.06974371,-8.7,33.84,-37.5
1553843719334,4.0319586,3.4190245000000004,8.674458,0.06784147,0.14631566,-0.022707082000000003,-9.059999000000001,33.66,-37.98
1553843719353,4.37434,4.5610933,9.411894,-0.10930945,0.20495872,0.04143377,-9.24,32.88,-38.28
1553843719374,4.4222255,5.609786,9.816526,-0.18688932,0.17075028,0.06953357,-8.88,33.239998,-38.16
1553843719393,3.9840732000000005,4.127730000000001,9.296969,-0.1135855,0.04002511,0.0707553,-8.519999499999999,33.96,-38.219997
1553843719414,3.3807160000000005,2.0878077,8.571504,-0.042725135,-0.076039284,0.029216462999999998,-8.82,34.14,-37.98
1553843719433,3.3256476000000004,1.2354459,8.193209,-0.0017971654999999998,-0.12063245,0.017610023,-8.639999000000001,34.559998,-37.739998
1553843719454,3.3208592000000006,0.818842,7.8197017,0.06295455,-0.15728436,0.008447044499999999,-8.58,34.559998,-37.44
1553843719473,3.3567734,1.0822121999999998,7.735902,0.15275174,-0.1493431,-0.03553525,-8.58,34.5,-37.92
1553843719493,3.545921,1.9034485,8.004061,0.20650789,-0.06504371,-0.06974371,-8.4,34.26,-38.399998
1553843719513,3.9313992999999994,3.0239692000000002,8.38475,0.13442577,0.10599856,-0.04286563400000001,-9.42,34.559998,-38.34
1553843719533,4.3168774,4.336032,9.203592,-0.050666384,0.24527584,0.029827327999999997,-9.54,34.38,-37.8
1553843719553,4.5108137,5.686403,9.783007000000001,-0.1875002,0.25871488,0.08847039,-8.519999499999999,33.239998,-37.14
1553843719573,4.163644000000001,5.0686800000000005,9.584282,-0.13130060000000002,0.11210721,0.099465966,-7.7999997,33.48,-37.62
1553843719593,3.4262072999999997,2.7175019,8.760652,-0.051277254,-0.043052558,0.0707553,-8.519999499999999,33.899998,-37.32
1553843719614,3.1245286,1.5562786,8.370385,-0.037227347,-0.13529322,0.020053484,-9.9,33.54,-37.44
1553843719633,3.1939626,1.1133378,8.035186,-0.027453506000000003,-0.17072341,0.004170988,-9.179999,34.02,-37.62
1553843719653,3.241848,1.0343267,7.781393,0.031800423,-0.16827993,-0.023928814,-8.16,34.14,-36.719997
1553843719673,3.3998702000000005,1.5969813,7.946598,0.11121291,-0.099252164,-0.07585236,-8.7,33.84,-36.36
1553843719693,3.6967604,2.4134290000000003,8.245882,0.14908655,0.0125361765,-0.094789185,-8.82,33.96,-37.26
1553843719713,4.005622,3.3519847,8.609812,0.071506664,0.13837442,-0.058137268,-8.4,34.079997999999996,-37.68
1553843719733,4.355186,4.5515165,9.337671,-0.09525955,0.20068268,0.013944831999999999,-8.7,34.32,-37.739998
1553843719753,4.3934940000000005,5.401484,9.735122,-0.18016982,0.17075028,0.06037059,-8.82,34.26,-38.28
1553843719773,3.9098508,4.1373067,9.282603,-0.117250696,0.043690305,0.060981455999999996,-7.9199996,33.719997,-37.62
1553843719794,3.337619,2.2530127,8.676852,-0.06288369,-0.07359582,0.016999159,-8.34,33.899998,-37.559998
1553843719813,3.2921278,1.5395187,8.329682,-0.045168597000000005,-0.12979543,0.0011166617,-9.12,34.2,-38.219997
1553843719834,3.3328303999999997,1.1277034,8.044764,-0.0011863003,-0.17011254,-0.0074354519999999995,-8.7,34.02,-38.219997
1553843719854,3.3926873,1.1636176,7.8125186,0.06906319999999999,-0.15300829999999999,-0.04286563400000001,-8.46,33.66,-37.86
1553843719873,3.5243726000000004,1.786129,7.975329400000001,0.13686925,-0.07115236,-0.07951755,-9.059999000000001,33.3,-37.44
1553843719894,3.8140797999999996,2.6600394,8.281796,0.12953886,0.05468588,-0.07585236,-9.78,33.96,-37.62
1553843719913,4.14449,3.7685885000000003,8.822903,0.0018680259,0.1701394,-0.02453968,-9.48,33.6,-38.34
1553843719934,4.3695517,4.95136,9.440625,-0.14290704,0.20862392,0.039601172999999996,-8.94,33.12,-38.16
1553843719953,4.3240604000000005,5.401484,9.749487,-0.1734503,0.15731123,0.05548367,-8.76,33.66,-37.739998
1553843719974,3.6464806000000003,3.3112822,9.050359,-0.0873183,-0.0070115114,0.05120761,-8.16,34.92,-37.2
1553843719993,3.3112822,1.8555629,8.502069,-0.050666384,-0.088867456,0.021275215,-7.8599997,35.219997,-37.02
1553843720014,3.3040992999999994,1.2905141000000002,8.178842999999999,-0.027453506000000003,-0.13834754,0.022496943999999998,-8.34,34.44,-37.8
1553843720033,3.3232534,0.9433443000000001,7.834067299999999,0.036687344,-0.1585061,0.0017275269,-8.88,34.5,-37.62
1553843720053,3.4429672,1.3743136999999999,7.886741000000001,0.11182377,-0.11330206,-0.03981131,-9.179999,34.26,-37.739998
1553843720074,3.6512692,1.9728824,8.116591,0.16252560000000002,-0.02900266,-0.061802458,-8.94,33.719997,-37.62
1553843720093,3.938582,2.9401696,8.444607000000001,0.12220848,0.09561385,-0.046530827999999996,-8.58,33.6,-37.62
1553843720114,4.2665977,4.228289,9.194015499999999,-0.043336004000000004,0.20129353,0.021275215,-9.24,33.84,-37.86
1553843720133,4.37434,5.2458563,9.660899,-0.16001126,0.18724364,0.063424915,-9.54,34.02,-37.38
1553843720153,4.046324299999999,4.5251794,9.438231,-0.11663983,0.069346644,0.07197703,-9.0,34.68,-37.5
1553843720173,3.5315554,2.7917243999999997,8.830086,-0.05799677,-0.050993808,0.06037059,-8.639999000000001,34.739998,-37.739998
1553843720193,3.3256476000000004,1.7406378,8.425453,-0.037838212999999996,-0.11024773,0.040212035,-8.7,34.079997999999996,-37.44
1553843720213,3.347196,1.2498114,8.087860000000001,-0.017679663,-0.13834754,0.035935983,-8.639999000000001,34.14,-36.78
1553843720233,3.3519847,1.2043202,7.862798700000001,0.035465613,-0.13040629,0.004170988,-8.28,34.26,-36.6
1553843720253,3.4908525999999998,1.6233183,8.001666,0.12892799,-0.07054149,-0.055693805,-8.16,33.899998,-37.38
1553843720273,3.677606,2.2314641,8.229122,0.16313644,-0.0076223765,-0.07829582,-8.4,33.84,-37.739998
1553843720294,3.9098508,3.2610023,8.514041,0.09838474,0.1298223,-0.059359,-9.12,34.02,-36.719997
1553843720313,4.1971636,4.235472,9.150917999999999,-0.06838148,0.2055696,-0.0013267993,-9.42,34.079997999999996,-36.48
1553843720334,4.312089,5.262616,9.6585045,-0.18627848,0.1615873,0.0408229,-9.36,34.14,-37.62
1553843720353,3.9888617999999996,4.336032,9.421472,-0.13618751,0.027807808,0.06403578,-9.12,34.2,-38.28
1553843720373,3.5842294999999997,2.8491871,8.954588000000001,-0.0873183,-0.07115236,0.05914886,-8.82,34.5,-37.559998
1553843720393,3.328042,1.5036045,8.377566999999999,-0.05799677,-0.12551937,0.042044632,-9.0,34.62,-37.44
1553843720413,3.2873392,1.0151725,7.960963700000001,-0.026231775,-0.14140187,0.016999159,-9.059999000000001,34.5,-37.92
1553843720434,3.2969165,1.0534808999999998,7.759844999999999,0.05134811,-0.12551937,-0.02820487,-8.82,34.32,-37.559998
1553843720453,3.4980354,1.6544438999999997,7.9585695,0.14481048,-0.07054149,-0.08196101,-9.3,34.38,-37.559998
1553843720474,3.7494342000000005,2.5139885,8.281796,0.1588604,0.03574906,-0.09540005,-8.88,34.32,-37.44
1553843720494,4.0582957,3.5171897000000003,8.751075,0.04890465,0.15120259,-0.053250343,-7.74,33.42,-36.6
1553843720513,4.400677,4.743058,9.481328,-0.11969416,0.203737,0.018831754,-7.9199996,33.78,-37.14
1553843720534,4.3791285,5.4134555,9.8237095,-0.18078068,0.14998084,0.06037059,-8.46,34.5,-37.98
1553843720553,3.8691480000000005,3.7661943,9.191621000000001,-0.10503339,0.0033731977000000003,0.06525751,-8.94,34.5,-38.16
1553843720574,3.3591676,2.0183737,8.55235,-0.05249898,-0.0986413,0.038379442,-8.46,34.86,-37.98
1553843720593,3.2969165,1.3551594999999999,8.229122,-0.031729564,-0.12918456,0.029216462999999998,-8.639999000000001,34.739998,-37.92
1553843720614,3.3232534,0.9481328000000001,7.915472500000001,0.020193983000000002,-0.15239744,0.0047818534,-9.0,34.8,-38.52
1553843720633,3.4022646,1.2593886,7.8125186,0.097163,-0.116356395,-0.041643906,-8.519999499999999,34.5,-37.98
1553843720653,3.5770466,1.8555629,8.147717,0.16680163,-0.04977208,-0.08012842,-8.76,34.2,-37.62
1553843720673,3.7949257000000003,2.7055306,8.317711,0.18268414,0.061405394,-0.08379361,-9.12,34.02,-38.1
1553843720693,4.0798445,3.6967604,8.803747999999999,0.04890465,0.20495872,-0.029426599999999997,-9.12,33.54,-37.739998
1553843720713,4.312089,4.608979,9.387952,-0.12335935,0.21534345,0.034714247999999996,-7.5,33.66,-37.02
1553843720733,4.314483,5.3631754,9.751882,-0.15878953,0.13104403,0.063424915,-7.74,33.6,-37.44
1553843720754,3.8954852,3.8883023000000003,9.282603,-0.08182051,-0.021672277,0.07747482,-9.24,33.78,-38.34
1553843720773,3.4046587999999995,1.9896424,8.657698,-0.027453506000000003,-0.13590409,0.04632069,-8.099999,34.2,-38.219997
1553843720794,3.2873392,1.175589,8.176449,-0.015236201999999999,-0.15361917,0.027994731000000002,-7.8599997,34.68,-37.8
1553843720813,3.2250881000000002,0.86912173,7.776604700000001,0.029356962,-0.14812139,-0.003159395,-8.58,34.26,-37.5
1553843720834,3.3328303999999997,1.1899546,7.759844999999999,0.11182377,-0.10291736,-0.058137268,-9.059999000000001,33.899998,-37.68
1553843720853,3.5866237,2.0494993000000004,8.090255,0.183295,-0.024115737999999998,-0.102119565,-9.599999,34.079997999999996,-37.98
1553843720874,3.8547822999999997,2.935381,8.341654,0.15458433,0.10355510000000001,-0.08929139400000001,-9.24,34.26,-37.44
1553843720893,4.2043467,4.0295644,8.945011000000001,0.00064629543,0.21717604,-0.028815735,-9.24,34.559998,-37.68
1553843720914,4.4318027,5.183605,9.586677,-0.17772634,0.21595429999999996,0.049375015999999994,-9.3,34.8,-37.62
1553843720933,4.2737803,5.2937417,9.727939,-0.17955895,0.11210721,0.07136617,-8.82,34.26,-37.8
1553843720954,3.6009892999999997,3.1460772,8.980925,-0.08243138,-0.07054149,0.0707553,-8.34,33.78,-38.1
1553843720973,3.265791,1.8148602999999999,8.545167,-0.060440227,-0.13956927,0.03288165,-7.98,34.14,-37.38
1553843720994,3.2562137000000004,1.0941836,8.157294,-0.05616417,-0.16094956,0.008447044499999999,-8.28,34.8,-37.62
1553843721013,3.2179053,0.7996878000000001,7.755056,0.00064629543,-0.14751051,-0.023928814,-8.82,34.5,-37.079997999999996
1553843721034,3.275368,1.1468576000000001,7.692805,0.09410868,-0.09558698,-0.07218716,-8.76,33.6,-36.719997
1553843721053,3.5507095,1.9226026999999999,8.078283,0.17962979999999998,-0.028391793,-0.11067168,-8.82,33.96,-37.5
1553843721074,3.8811195,2.997632,8.420665,0.16557992,0.08767260000000002,-0.097843505,-9.0,34.38,-37.32
1553843721093,4.268992,4.127730000000001,9.069513,0.0018680259,0.21106738,-0.032480925,-9.059999000000001,34.5,-37.32
1553843721113,4.4725056,5.174028,9.596252999999999,-0.16856338,0.22389555,0.044488095,-9.24,34.26,-37.5
1553843721133,4.2043467,5.200365000000001,9.593859,-0.16123301,0.12249192,0.062203187,-9.12,33.84,-38.219997
1553843721154,3.6512692,3.2226939999999997,9.052753,-0.07204667,-0.05343727,0.07380962,-8.04,33.719997,-38.16
1553843721173,3.3639562000000005,1.9393626,8.645726,-0.03967081,-0.15117571,0.050596748,-8.4,33.84,-37.739998
1553843721193,3.354379,1.2953026,8.248277,-0.034173023,-0.19576888,0.04754242,-9.179999,34.32,-37.68
1553843721214,3.318465,0.86912173,7.8197017,0.01652879,-0.16827993,0.014555697,-8.94,34.44,-36.719997
1553843721233,3.3495904999999997,1.1731946000000002,7.678439,0.094719544,-0.08153707,-0.039200444,-9.179999,33.899998,-36.12
1553843721253,3.6225379,1.8771113999999998,8.104619999999999,0.1851276,-0.0057897805,-0.08440447599999999,-9.179999,33.96,-36.66
1553843721273,3.8547822999999997,2.803696,8.320105,0.19490144,0.09622472,-0.085015334,-9.059999000000001,34.2,-37.86
1553843721293,4.1373067,3.8332339999999996,8.710372,0.05012638,0.22817162,-0.028815735,-8.7,34.02,-38.399998
1553843721313,4.3911,4.975303,9.454991,-0.16245472,0.25749314,0.056705399999999996,-8.639999000000001,33.54,-38.579997999999996
1553843721333,4.3240604000000005,5.576266,9.794978,-0.19238712,0.17563719,0.075031355,-8.58,33.48,-36.899998
1553843721353,3.8475995000000003,3.9673133000000003,9.347249,-0.08915089,-0.025337468999999998,0.09641164,-8.16,33.899998,-35.94
1553843721373,3.3663504,2.1237217999999998,8.791777,-0.031118697999999997,-0.15789524,0.054872803,-8.28,34.2,-37.8
1553843721393,3.2083282000000004,1.2186858999999999,8.245882,-0.032951295,-0.1969906,0.027994731000000002,-8.22,33.899998,-38.46
1553843721413,3.1652312,0.69912827,7.745479,-0.009738414,-0.16889079999999998,0.0066144490000000005,-8.639999000000001,33.719997,-37.98
1553843721433,3.265791,0.9624985,7.649708,0.07211753,-0.0986413,-0.052028615,-8.22,34.02,-37.14
1553843721453,3.4956412000000006,1.7047237000000002,7.982512,0.16313644,-0.025948334,-0.09601091,-7.98,34.38,-37.32
1553843721473,3.8260512,2.7582044999999997,8.281796,0.1851276,0.09194866,-0.09540005,-8.76,34.5,-38.219997
1553843721494,4.1612496,3.8475995000000003,8.818114,0.04401773,0.22023036,-0.036756985,-8.46,34.32,-37.98
1553843721513,4.4389853,4.9944572,9.423865,-0.1630656,0.25199535,0.05120761,-8.16,34.38,-37.68
1553843721534,4.314483,5.6552773,9.775824,-0.19483058,0.16952854,0.06953357,-8.58,33.54,-37.739998
1553843721553,3.8547822999999997,3.8332339999999996,9.234717999999999,-0.09037263,-0.019839682,0.08785953,-8.34,33.42,-37.8
1553843721574,3.3064934999999998,2.2314641,8.784595,-0.036616486000000004,-0.1444562,0.04632069,-7.98,34.14,-37.68
1553843721593,3.2538195,1.5490957,8.451789999999999,-0.053109847,-0.20371011,0.03104906,-9.059999000000001,33.84,-37.38
1553843721614,3.2442424,0.86912173,7.908289999999999,-0.045168597000000005,-0.18721674,0.016999159,-9.059999000000001,34.26,-37.62
1553843721633,3.2394537999999997,0.85236186,7.678439,0.024470039,-0.12002158,-0.030037466000000002,-8.82,34.62,-37.38
1553843721654,3.4884584000000003,1.5227587,7.932232400000001,0.14419962,-0.03938737,-0.08684793,-7.74,33.42,-33.66
1553843721673,3.7326744,2.300898,8.171659,0.20345356,0.03513819,-0.10273043,-6.3599997,32.219997,-28.859999
1553843721694,4.0535073,3.4118416,8.581081,0.10388252,0.18846536,-0.060580727,-6.06,32.64,-28.859999
1553843721713,4.436591,4.592219,9.366403,-0.10075733,0.25871488,0.013944831999999999,-6.54,33.42,-30.84
1553843721734,4.455744999999999,5.724711,9.881172,-0.21865433,0.21045650000000002,0.0725879,-6.96,33.239998,-30.66
1553843721753,4.075055600000001,4.7119327,9.553157,-0.12274848,0.04430117,0.08969212,-7.259999799999999,33.0,-30.9
1553843721773,3.4645156999999998,2.5858168999999998,8.901914,-0.031729564,-0.123686776,0.06464665,-7.56,33.36,-30.96
1553843721794,3.2705792999999996,1.5443072,8.475733,-0.025010044,-0.19760147,0.034714247999999996,-6.66,34.079997999999996,-30.539998999999998
1553843721813,3.2729738,1.010384,8.042369,-0.037227347,-0.20615359,0.028605599,-6.72,33.239998,-29.82
1553843721834,3.2921278,0.8332075999999999,7.6640735,0.021415714,-0.14018013,-0.017209295,-6.8999996,32.579997999999996,-28.439999
1553843721853,3.4716985,1.403045,7.84125,0.10693685,-0.058935057,-0.06668938,-6.54,33.0,-28.56
1553843721873,3.7278860000000003,2.1285102000000005,8.1549,0.19551231,0.030251267999999998,-0.09540005,-6.72,33.18,-29.279999
1553843721894,3.964919,3.093403,8.444607000000001,0.15702779999999997,0.15547864,-0.072798036,-6.7799997,33.3,-29.039998999999998
1553843721913,4.304906,4.199558000000001,9.088667,-0.037838212999999996,0.24649756,-0.00010506882,-6.96,33.3,-28.8
1553843721934,4.4078599999999994,5.4733124,9.682447,-0.20399356,0.23550199,0.06831183,-7.3799996,33.48,-29.88
1553843721953,4.2043467,5.2937417,9.75667,-0.15573521,0.124324515,0.07869655,-7.68,33.239998,-32.16
1553843721974,3.6440864,3.3040992999999994,9.11261,-0.059829365,-0.06565457,0.08419433,-7.5,33.059998,-33.239998
1553843721993,3.275368,1.8531687,8.628966,-0.04455773,-0.16339302,0.038379442,-7.7999997,33.42,-33.3
1553843722014,3.2562137000000004,1.2617828000000002,8.296163,-0.07082493599999999,-0.19393627,0.029216462999999998,-7.7999997,34.079997999999996,-32.88
1553843722033,3.2394537999999997,0.81644773,7.869981299999999,-0.034173023,-0.17866464,-0.009878913000000001,-7.3799996,34.2,-32.34
1553843722054,3.3136763999999994,1.132492,7.6975937000000005,0.07456099,-0.09008919,-0.07524149,-7.74,33.719997,-32.64
1553843722073,3.4812756,1.7023293999999998,7.970541000000001,0.17596461,-0.0106767025,-0.121056385,-7.8599997,33.42,-33.48
1553843722094,3.7254915,2.6025767,8.277008,0.22300126,0.08767260000000002,-0.13388455,-7.259999799999999,33.96,-33.42
1553843722113,4.022382,3.572258,8.614600999999999,0.08433483,0.21045650000000002,-0.08379361,-7.259999799999999,33.96,-32.82
1553843722133,4.3168774,4.5850363,9.251478,-0.13007887,0.26238006,0.0023383922,-7.98,33.6,-34.559998
1553843722153,4.4126487,5.95935,9.960183,-0.2296499,0.20190439999999998,0.060981455999999996,-8.34,34.2,-36.78
1553843722174,3.929005,4.4485626,9.517242,-0.101368204,-0.017396221,0.092746444,-8.099999,34.079997999999996,-37.38
1553843722193,3.3926873,2.5092,8.925857,-0.032951295,-0.15545176,0.06403578,-8.16,34.14,-37.68
1553843722213,3.1963567999999998,1.3791022,8.439817999999999,-0.034173023,-0.21898176,0.02188608,-8.639999000000001,34.14,-37.32
1553843722233,3.2083282000000004,0.8092649000000001,7.9849067,-0.039059944,-0.22020347,0.007225314,-8.639999000000001,33.48,-36.66
1553843722254,3.1772027,0.6368771,7.5252056,0.020804849,-0.15423004,-0.042254772,-8.46,33.719997,-37.38
1553843722273,3.3902931000000005,1.2665714,7.7502675000000005,0.12281934,-0.059545923,-0.097843505,-8.7,34.5,-37.68
1553843722294,3.7302802,2.185973,8.13814,0.21811432,0.038192517999999995,-0.12166725,-9.059999000000001,34.26,-37.26
1553843722313,3.9529476000000003,2.9569294,8.363202000000001,0.17962979999999998,0.15242432,-0.09173486,-9.0,33.78,-37.32
1553843722334,4.3767343,4.383917299999999,9.091061999999999,-0.07571186,0.26543438,0.016999159,-9.179999,33.36,-37.68
1553843722353,4.541939299999999,5.786962,9.773430000000001,-0.23087163,0.25443882,0.0970225,-9.0,33.3,-38.46
1553843722374,4.2665977,5.4158497,9.75667,-0.14535050000000002,0.108442016,0.108018085,-7.8599997,33.84,-37.92
1553843722393,3.5554981,3.0814316,9.069513,-0.027453506000000003,-0.08581313,0.10129856,-8.22,33.899998,-37.62
1553843722414,3.2179053,1.6496553,8.638542999999999,0.00064629543,-0.18232983,0.043266362999999995,-9.42,34.32,-38.46
1553843722433,3.1915683999999995,0.9624985,8.099832000000001,-0.015236201999999999,-0.20615359,0.034103386,-8.94,34.739998,-37.98
1553843722453,3.1173458,0.49082634,7.575485700000001,0.011641869,-0.16705821,0.00050579646,-8.58,34.739998,-37.14
1553843722473,3.2610023,1.0989721000000001,7.656891000000001,0.10327166,-0.083369665,-0.06485678,-8.7,34.079997999999996,-37.44
1553843722493,3.5674694,1.9824595,7.9489923,0.1851276,0.0125361765,-0.10273043,-9.24,33.899998,-37.739998
1553843722513,3.9457648,3.0646717999999997,8.408693,0.1588604,0.13837442,-0.08318274,-9.12,33.96,-37.8
1553843722534,4.338426,4.278569,9.11261,-0.022566582999999998,0.23977804,-0.011100643,-9.0,34.079997999999996,-38.04
1553843722553,4.496448,5.6241517,9.751882,-0.21254566,0.25321710000000003,0.07625309,-9.24,34.26,-37.32
1553843722573,4.1612496,5.31529,9.668080999999999,-0.14901568,0.12554625,0.0848052,-8.88,34.2,-37.38
1553843722593,3.4333901,3.0119977000000002,8.909097000000001,-0.040281676,-0.0406091,0.07380962,-8.22,34.8,-36.84
1553843722613,3.2107224,1.7981004,8.631361,0.0049223523,-0.15117571,0.021275215,-8.04,33.84,-36.12
1553843722634,3.2514252999999997,1.201926,8.22194,-0.006684086999999999,-0.20981877,0.02188608,-7.8599997,33.12,-34.5
1553843722653,3.2346652000000002,0.7829279,7.783787299999999,0.010420139,-0.19332542,0.0035601228000000005,-7.74,33.54,-32.82
1553843722674,3.3591676,1.2498114,7.8125186,0.07639358,-0.10169563,-0.051417753,-7.68,33.719997,-32.579997999999996
1553843722694,3.6823947,1.9920366000000003,8.20518,0.15763865,-0.023504874,-0.08562621,-6.8999996,33.899998,-31.8
1553843722713,3.9792848,2.7917243999999997,8.504464,0.21506,0.063237995,-0.08684793,-7.14,33.36,-31.14
1553843722734,4.0989985,3.5411325,8.743892,0.14664309,0.18174586,-0.05630467,-7.5,32.7,-31.32
1553843722753,4.2546263,4.1085753,9.059936,0.007976678000000001,0.23305853,0.009668776,-6.96,33.18,-32.219997
1553843722774,4.11097,4.450957,9.194015499999999,-0.05860763,0.18418932,0.046931557,-6.96,33.6,-32.28
1553843722793,3.9337934999999997,4.3168774,9.100638,-0.0036297613,0.06873578,0.062203187,-6.66,33.42,-31.74
1553843722814,3.6943660000000005,3.0862203,8.892337,0.04218513,-0.055269867,0.08908126,-6.8399997,33.12,-31.859999
1553843722833,3.5938065000000003,2.4014575000000002,8.715160000000001,0.04218513,-0.15911695,0.08236174,-7.56,34.079997999999996,-34.62
1553843722854,3.4573328,1.9872481,8.403905,0.04218513,-0.19210368,0.068922706,-8.22,34.02,-37.5
1553843722873,3.3304362000000003,1.664021,8.011244,0.07089580000000001,-0.13956927,0.022496943999999998,-8.519999499999999,32.94,-39.0
1553843722893,3.3950818,1.7957061999999997,7.9873009999999995,0.107547715,-0.026559198,-0.026983137999999997,-8.58,33.239998,-38.04
1553843722913,3.5171897000000003,2.3392065,8.0926485,0.12770627,0.07606616,-0.057526402000000004,-8.94,33.6,-37.8
1553843722933,3.6704233,3.3687446000000003,8.1549,0.03241129,0.24344324,-0.021485351,-8.519999499999999,33.48,-38.82
1553843722953,4.0822387,4.450957,9.172467,-0.16673079,0.32102314,0.04754242,-8.04,32.94,-38.219997
1553843722973,4.2618093,5.5331693,9.785401,-0.27057788,0.20007181,0.109850675,-7.98,33.54,-38.28
1553843722993,4.0822387,5.133325,9.735122,-0.1875002,0.043690305,0.11229414,-7.98,33.36,-38.1
1553843723014,3.4166303,2.8707354,8.93304,-0.04639033,-0.13834754,0.09457904,-7.5,32.88,-35.46
1553843723033,2.997632,1.3000913,8.28898,-0.008516683,-0.21104050000000002,0.016999159,-7.3199997,33.719997,-32.7
1553843723054,3.0024207,0.7853220999999999,7.80773,-0.027453506000000003,-0.19821233,-0.016598431,-7.259999799999999,34.079997999999996,-32.64
1553843723074,3.1077687999999997,0.68236834,7.5659084000000005,-0.0030188959999999996,-0.18110810000000002,-0.037367847,-6.3599997,33.899998,-33.84
1553843723093,3.328042,1.23784,7.6281595,0.05684589599999999,-0.1230759,-0.09723264,-6.66,33.899998,-34.92
1553843723113,3.7302802,2.4541316,8.016032000000001,0.071506664,0.06384886,-0.11006081,-7.08,33.42,-34.68
1553843723133,4.398283,4.0199876,9.071907000000001,-0.037838212999999996,0.18907623,-0.042254772,-7.08,32.82,-34.26
1553843723154,4.659259,5.5403519999999995,9.8237095,-0.14718309,0.20862392,0.035325114,-8.46,33.239998,-34.8
1553843723173,4.367157499999999,5.1692395,9.706389999999999,-0.10320080000000001,0.108442016,0.07319876,-8.639999000000001,33.36,-34.98
1553843723193,3.45015,2.5427197999999995,8.628966,-0.018290527,-0.01861795,0.054872803,-7.3199997,33.36,-34.5
1553843723214,3.0239692000000002,1.4581133,8.233911500000001,0.018972252,-0.08520226,-0.01904189,-7.3199997,33.84,-34.02
1553843723233,3.2370596000000003,1.2833313,8.044764,0.023859175,-0.16156043,-0.023317947999999998,-8.099999,33.719997,-36.12
1553843723254,3.3855044999999997,1.3527653,8.023214999999999,0.039130807000000004,-0.16950166,-0.033702657000000004,-8.16,33.84,-39.719997
1553843723273,3.615355,1.9920366000000003,8.377566999999999,0.08066964,-0.08214793,-0.06791111,-9.059999000000001,34.62,-40.92
1553843723294,3.921822,2.719896,8.724737,0.15397346,0.051020685999999996,-0.071576305,-9.54,34.5,-40.739998
1553843723314,3.8452053,3.059883,8.616995,0.20467529,0.13898528,-0.053250343,-9.179999,33.54,-38.94
1553843723333,3.8092911,3.2729738,8.332075999999999,0.11548896,0.22572815,0.013944831999999999,-8.7,33.18,-35.82
1553843723354,4.046324299999999,3.7446458,8.940222,-0.04394687,0.25138449999999996,0.06647924,-7.9199996,33.54,-34.8
1553843723373,4.122941,4.8364353,9.450203,-0.07204667,0.15120259,0.07197703,-7.3799996,33.719997,-35.34
1553843723393,4.051113,4.403071400000001,9.337671,-0.009738414,-0.019228818,0.09457904,-7.08,33.36,-34.92
1553843723414,3.7063375,2.5427197999999995,8.858817,0.04585032,-0.195158,0.09763337,-7.2,33.059998,-35.1
1553843723433,3.2849449999999996,1.5658557,8.217151,0.061732817,-0.26479664,0.05548367,-7.02,33.059998,-35.579997999999996
1553843723454,3.1484714,1.376708,7.798153,0.068452336,-0.20371011,0.012723101,-7.2,33.059998,-35.64
1553843723473,3.2538195,1.6520496999999998,7.695199000000001,0.09044349,-0.09314351,-0.030037466000000002,-7.5,33.48,-35.88
1553843723494,3.512401,2.5163830000000003,7.9346266000000005,0.06967407,0.07606616,-0.053250343,-8.04,33.66,-35.399998
1553843723513,3.9673133000000003,3.5171897000000003,8.463761,-0.018901393,0.25138449999999996,-0.019652756,-7.5,33.3,-34.92
1553843723533,4.242655,4.4749,9.198803999999999,-0.12030502400000001,0.29781026,0.03104906,-6.8999996,33.84,-34.68
1553843723554,4.259414700000001,5.2290964,9.615408,-0.14229618,0.19213055,0.07564222,-7.98,34.38,-37.62
1553843723574,3.7877428999999996,4.0798445,9.093455,-0.075100996,0.047355495,0.09213558,-8.22,33.719997,-40.5
1553843723593,3.1915683999999995,2.482863,8.679246000000001,-0.040281676,-0.067487165,0.058537994,-7.7999997,33.899998,-40.2
1553843723613,3.0838259999999997,1.838803,8.542772,-0.05860763,-0.15056485,0.00905791,-7.3799996,33.66,-40.32
1553843723634,3.1676257000000003,1.620924,8.262642,-0.08182051,-0.19637974,-0.013544105,-7.3199997,32.82,-38.879996999999996
1553843723653,3.2538195,1.472479,7.982512,-0.053109847,-0.172556,-0.06363506,-7.9199996,33.18,-36.78
1553843723674,3.45015,1.8986599999999998,8.049552,0.0030897565,-0.07359582,-0.11189341,-7.68,33.42,-35.1
1553843723693,3.6895776,2.6959534,8.250671,0.035465613,0.05957280000000001,-0.11311514,-7.44,33.78,-34.5
1553843723714,3.9744961,3.6009892999999997,8.712766,-0.032951295,0.18357845,-0.059969865,-7.68,33.84,-34.2
1553843723733,4.280963400000001,4.5084195,9.352037,-0.15084828,0.18052413,-0.003159395,-7.62,33.66,-34.079997999999996
1553843723753,4.1780095,4.850801000000001,9.627379,-0.16917424,0.07301183,0.026773002,-7.56,34.02,-34.98
1553843723773,3.624932,3.3735332000000002,9.028810499999999,-0.10747685,-0.048550345,0.03288165,-7.68,34.02,-35.7
1553843723793,3.3639562000000005,2.0375278000000003,8.652909,-0.0732684,-0.13346061,-0.0025485298,-6.7799997,33.899998,-34.8
1553843723814,3.3495904999999997,1.5897985000000001,8.353624,-0.05616417,-0.20554271,-0.017820163,-6.3599997,33.66,-33.84
1553843723833,3.3759273999999997,1.2833313,7.9394155,-0.012181873999999999,-0.20554271,-0.031870063,-7.44,33.18,-33.96
1553843723853,3.4884584000000003,1.333611,7.814913000000001,0.06356542,-0.1230759,-0.066078514,-7.74,33.36,-34.32
1553843723873,3.6728175000000003,2.0471049999999997,8.1549,0.14114529,-0.03144612,-0.10822822,-7.14,33.54,-34.32
1553843723893,3.8188684,2.8420042999999997,8.377566999999999,0.16252560000000002,0.06995751,-0.105173886,-7.259999799999999,33.84,-34.079997999999996
1553843723914,4.046324299999999,3.668029,8.662486,0.05195898,0.20618047,-0.04103304,-7.02,34.14,-34.559998
1553843723933,4.276175,4.2115293,9.091061999999999,-0.07571186,0.25749314,0.014555697,-7.98,34.38,-37.8
1553843723953,4.292935,4.996851400000001,9.565128,-0.15023743,0.2055696,0.048153285,-8.34,34.079997999999996,-37.2
1553843723973,3.9050622,4.022382,9.299363,-0.07021407,-0.008233242,0.083583474,-7.3199997,33.239998,-34.02
1553843723993,3.4908525999999998,2.4086404,8.861211,-0.017679663,-0.140791,0.07197703,-7.14,33.54,-34.8
1553843724014,3.2993107000000004,1.498816,8.403905,-0.009127548000000001,-0.19576888,0.050596748,-7.08,33.899998,-34.559998
1553843724033,3.2250881000000002,1.1995316999999999,8.013638,-0.0036297613,-0.17499945,0.03715771,-6.96,34.079997999999996,-34.02
1553843724054,3.213117,1.0989721000000001,7.704776299999999,0.053180705999999994,-0.100473896,-0.005602856,-7.3199997,34.02,-33.96
1553843724073,3.45015,1.7119064,7.9489923,0.14236704,-0.024726603,-0.070354566,-7.9199996,34.079997999999996,-34.2
1553843724093,3.6560576,2.6432792999999997,8.243488000000001,0.16619077,0.082174815,-0.07585236,-7.8599997,33.6,-34.14
1553843724114,3.9840732000000005,3.7949257000000003,8.751075,0.04157427,0.23428026,-0.014765833999999999,-7.9199996,33.3,-33.899998
1553843724133,4.1612496,4.206741,9.040782,-0.036616486000000004,0.26543438,0.013333966000000001,-7.98,33.3,-34.44
1553843724154,4.2139235,5.4062724,9.747093,-0.16856338,0.16097642,0.07197703,-8.519999499999999,33.84,-36.3
1553843724174,3.6919718,3.7302802,9.177256,-0.061051093,-0.039998233,0.07319876,-9.12,33.84,-38.879996999999996
1553843724193,3.3112822,2.3056867000000003,8.784595,-0.025620911,-0.16217127,0.031659923,-9.059999000000001,34.02,-40.26
1553843724213,3.2633965,1.5610671999999999,8.379961999999999,-0.04822292,-0.21165137,0.018220888,-8.639999000000001,33.719997,-39.66
1553843724234,3.347196,1.2234744,8.030397,-0.05433158,-0.19882320000000003,0.014555697,-8.639999000000001,33.48,-38.579997999999996
1553843724253,3.3807160000000005,1.3192455,7.7933645,0.012252735,-0.10597168,-0.032480925,-8.58,34.079997999999996,-36.899998
1553843724273,3.5985951000000003,1.8531687,7.9729350000000005,0.107547715,-0.011287568000000001,-0.08562621,-8.7,34.5,-35.34
1553843724293,3.7781656000000003,2.762993,8.272219999999999,0.13931271,0.089505196,-0.08379361,-8.639999000000001,33.96,-34.559998
1553843724314,3.962525,3.6800002999999997,8.624178,0.043406863,0.20251527,-0.042254772,-8.46,33.54,-34.38
1553843724333,4.1971636,4.4916596,9.213169,-0.098313875,0.22023036,0.012723101,-7.9199996,33.48,-34.32
1553843724354,4.1756153,5.209942,9.715967,-0.16795251,0.1475374,0.027383868,-7.68,33.239998,-33.84
1553843724373,3.7398572,3.9098508,9.313728999999999,-0.108698584,-0.012509298500000002,0.031659923,-7.3799996,33.899998,-33.6
1553843724394,3.3567734,2.2961093999999997,8.818114,-0.053109847,-0.14751051,0.0047818534,-7.62,34.26,-33.42
1553843724413,3.337619,1.5802213999999999,8.425453,-0.039059944,-0.20859705,0.0017275269,-8.04,34.44,-33.719997
1553843724433,3.3495904999999997,1.0965778999999998,7.965752,-0.020123122,-0.2024884,0.0047818534,-8.04,33.84,-33.96
1553843724453,3.4477558,1.1612233,7.7526617,0.037909076,-0.10597168,-0.017209295,-7.98,33.6,-34.079997999999996
1553843724474,3.703943,1.9226026999999999,8.049552,0.10449339,-0.00334632,-0.046530827999999996,-7.98,34.32,-34.2
1553843724494,3.9457648,2.8874955,8.375174000000001,0.107547715,0.12493538,-0.028815735,-7.98,34.26,-33.66
1553843724513,4.1301239999999995,3.8284453999999997,8.861211,0.006754948,0.2177869,0.016999159,-7.8599997,33.48,-33.719997
1553843724534,4.264203500000001,4.7143273,9.431047999999999,-0.11847243,0.18907623,0.057316266,-7.62,33.6,-34.14
1553843724553,4.070266999999999,4.8843207,9.627379,-0.11908329,0.082174815,0.048153285,-7.98,34.44,-34.5
1553843724574,3.5435266000000003,3.2562137000000004,9.040782,-0.05494244,-0.06565457,0.04143377,-7.9199996,33.96,-34.68
1553843724593,3.3519847,2.1141446,8.676852,-0.031729564,-0.14262360000000002,0.013333966000000001,-7.62,33.84,-34.32
1553843724614,3.4214187000000007,1.5012103,8.286585,-0.037227347,-0.18049724,0.020053484,-7.3799996,34.62,-34.62
1553843724633,3.4836697999999995,1.2641771000000002,7.960963700000001,-0.01279274,-0.15056485,0.015777428,-7.5,35.16,-36.18
1553843724653,3.5698638,1.5083932,7.9130783,0.039130807000000004,-0.06321111,-0.012933239,-8.58,35.399998,-38.879996999999996
1553843724674,3.806897,2.2123098,8.195602000000001,0.11426724,0.029029539,-0.037978712000000005,-8.7,35.1,-39.059998
1553843724693,3.8787252999999997,2.9928436,8.447001,0.11060204,0.12798971,-0.026372273999999998,-8.76,34.68,-39.059998
1553843724713,4.0199876,3.7422516000000003,8.822903,0.009809273,0.19885008,0.009668776,-9.12,34.44,-39.84
1553843724733,4.0894213,4.5539107,9.371192,-0.11786156,0.17441547,0.038379442,-9.48,34.559998,-39.66
1553843724754,3.8859081,4.601796,9.524425500000001,-0.13252233,0.063237995,0.031659923,-10.08,34.2,-39.66
1553843724773,3.4836697999999995,3.172414,9.031203999999999,-0.07876619,-0.059545923,0.027383868,-8.94,34.02,-39.3
1553843724794,3.3208592000000006,2.0471049999999997,8.595447,-0.06288369,-0.12796283,0.012723101,-8.58,34.92,-39.6
1553843724813,3.3950818,1.6328955,8.324894,-0.06471629,-0.16889079999999998,0.013333966000000001,-9.059999000000001,34.739998,-39.36
1553843724834,3.4980354,1.4485363000000002,8.011244,-0.03967081,-0.1444562,0.014555697,-8.82,34.079997999999996,-39.3
1553843724853,3.6009892999999997,1.7430321,7.9585695,0.02202658,-0.05343727,-0.011100643,-9.12,34.559998,-39.54
1553843724874,3.806897,2.310475,8.245882,0.05928936,0.042468574,-0.022096219,-9.24,34.559998,-39.84
1553843724893,4.041536,3.1772027,8.739103,0.018972252,0.093781255,-0.003159395,-9.179999,34.32,-39.48
1553843724913,4.1804037,3.8523881,9.107821000000001,-0.04394687,0.10783115,0.013944831999999999,-8.76,34.02,-39.42
1553843724933,4.022382,4.11097,9.349642999999999,-0.07571186,0.08095308400000001,0.013944831999999999,-8.22,34.62,-38.28
1553843724954,3.5746522000000005,2.6624336,8.777411,-0.010349279,0.0125361765,-0.018431026,-8.7,34.559998,-37.02
1553843724973,3.2466366,1.7047237000000002,8.260247999999999,0.040352535,-0.044885155,-0.049585156,-8.82,34.2,-37.44
1553843724993,3.4980354,1.5969813,8.212361999999999,0.07089580000000001,-0.10902601,-0.034313522,-8.22,35.28,-37.38
1553843725013,3.7063375,1.9010541,8.293768,0.08555657,-0.11879985,-0.020874487,-8.639999000000001,35.579997999999996,-37.02
1553843725034,3.929005,2.4613144,8.537984,0.09105435,-0.021672277,-0.010489778,-9.36,34.86,-37.86
1553843725053,4.1037870000000005,2.80609,8.798960000000001,0.11121291,0.047355495,-0.0062137214,-9.42,34.86,-38.879996999999996
1553843725073,4.0295644,2.7845416000000003,8.777411,0.17229943,0.07484443,-0.013544105,-9.66,34.44,-39.6
1553843725093,3.7087317000000004,2.6935592,8.336864,0.19245797,0.116994135,-0.003159395,-9.9,34.62,-39.96
1553843725113,3.6967604,2.954535,8.176449,0.09288695,0.20434786,0.027994731000000002,-9.599999,35.28,-39.48
1553843725133,3.9960446000000003,3.9529476000000003,8.9498,-0.037227347,0.22878247,0.067700975,-9.42,34.62,-39.54
1553843725153,4.343214499999999,4.846012,9.732727,-0.06288369,0.08461828,0.108018085,-8.88,34.079997999999996,-39.239998
1553843725173,3.9864676,3.8906965,9.3831625,-0.03967081,-0.07420669,0.13306355,-8.34,34.44,-39.66
1553843725193,3.469304,2.291321,8.554744,-0.005462356999999999,-0.12979543,0.10007682400000001,-8.28,34.38,-40.26
1553843725214,3.0886145000000003,1.4652961000000002,8.011244,0.012252735,-0.11696725,0.049375015999999994,-8.58,33.84,-38.94
1553843725233,2.997632,1.359948,7.8101244,0.04890465,-0.083369665,-0.003159395,-8.58,33.96,-38.16
1553843725253,3.1269228,1.7765520000000001,7.814913000000001,0.094719544,-0.013120163999999998,-0.05386121,-8.46,34.14,-38.04
1553843725273,3.4190245000000004,2.5546912999999996,8.107014999999999,0.06051109,0.098057315,-0.07096544,-8.34,33.66,-38.219997
1553843725293,3.8140797999999996,3.6033835,8.74868,-0.04761206,0.20434786,-0.04286563400000001,-8.099999,33.66,-39.3
1553843725313,4.1301239999999995,4.8938975,9.603436,-0.18139154,0.18418932,0.015166562,-8.7,34.079997999999996,-39.96
1553843725333,4.084633,5.0614967,9.73991,-0.19360885,0.104165964,0.046931557,-8.76,34.44,-40.32
1553843725354,3.6345089999999995,3.502824,9.196409,-0.11663983,-0.06809804,0.059759725,-8.94,34.44,-40.44
1553843725373,3.1963567999999998,1.8435916,8.540379,-0.04455773,-0.15789524,-0.011711508999999998,-9.3,34.559998,-39.719997
1553843725394,3.1915683999999995,1.1348863,8.116591,-0.020123122,-0.19576888,-0.051417753,-9.0,34.8,-39.719997
1553843725414,3.2897336000000004,0.84278476,7.8053360000000005,0.002478891,-0.21226224,-0.061191592,-9.0,35.04,-39.36
1553843725433,3.4597269999999996,1.2617828000000002,7.788575999999999,0.04585032,-0.16339302,-0.090513125,-9.42,35.04,-38.94
1553843725453,3.7685885000000003,2.3631492,8.085466,0.06356542,0.0039840629999999995,-0.10456303,-9.9,34.68,-39.719997
1553843725473,4.173221,3.572258,8.614600999999999,-0.018901393,0.17136115,-0.04469823,-8.82,33.96,-40.079997999999996
1553843725493,4.5634879999999995,4.788549400000001,9.529214,-0.1398527,0.19457401,0.020053484,-7.98,34.2,-39.899998
1553843725513,4.415043,5.2458563,9.797373,-0.14535050000000002,0.09072693,0.049375015999999994,-8.76,33.84,-38.76
1553843725534,3.632115,3.0646717999999997,8.887547999999999,-0.08182051,-0.030835256000000002,0.029827327999999997,-8.7,33.899998,-38.82
1553843725553,3.2274826,1.7502148999999998,8.509253,-0.038449082999999995,-0.08398053,-0.055693805,-8.4,34.8,-39.6
1553843725573,3.294522,1.3743136999999999,8.3129225,-0.009738414,-0.14140187,-0.060580727,-8.4,34.38,-40.02
1553843725593,3.3304362000000003,1.1157321000000002,7.884347,0.024470039,-0.16217127,-0.032480925,-8.94,34.739998,-40.26
1553843725613,3.5195839999999996,1.3527653,7.910684,0.071506664,-0.08031534,-0.034924388,-9.12,34.92,-39.96
1553843725633,3.7853483999999997,2.1883671000000002,8.200391,0.10999117,0.024753481,-0.041643906,-9.179999,34.079997999999996,-39.84
1553843725653,3.991256,3.1125572,8.487703999999999,0.08250224,0.12737885,-0.0019376645000000001,-9.78,34.32,-39.84
1553843725673,4.2546263,4.245049,9.14613,-0.03600562,0.20679133,0.05609453,-9.54,35.219997,-39.12
1553843725693,4.309695,4.965726,9.680053,-0.11786156,0.16769595,0.07808568,-9.36,34.8,-38.94
1553843725714,3.7374629999999995,3.9529476000000003,9.323306,-0.06593802,0.033916462,0.06647924,-8.4,33.719997,-38.16
1553843725733,3.2490308,2.4062462000000004,8.73192,-0.029286101000000002,-0.04121997,0.038990308,-7.5,33.96,-38.399998
1553843725754,3.2035396,1.6185298000000001,8.406299,-0.018290527,-0.11696725,0.027994731000000002,-8.519999499999999,34.98,-39.239998
1553843725773,3.318465,1.3072741,8.116591,0.013474465,-0.17927551,0.046931557,-9.12,34.68,-39.0
1553843725793,3.3902931000000005,1.3743136999999999,7.877164,0.06967407,-0.1444562,0.026162136000000003,-9.179999,34.86,-38.94
1553843725814,3.6105663999999997,1.7741576000000001,8.0926485,0.12343021,-0.07420669,-0.0062137214,-9.24,35.399998,-38.82
1553843725833,3.9194279,2.5906053,8.334471,0.1674125,0.043690305,-0.020263622,-9.0,34.68,-39.36
1553843725854,3.964919,3.387899,8.492493,0.08983262,0.18052413,0.01150137,-8.28,34.44,-39.899998
1553843725873,4.228289,4.173221,9.050359,-0.07449013,0.23672372,0.059759725,-8.519999499999999,34.8,-39.6
1553843725894,4.247443700000001,4.9609375,9.708784,-0.15634607,0.14692652,0.06953357,-8.46,34.44,-39.48
1553843725914,3.9170337,4.192375,9.435837,-0.098313875,-0.015563624,0.06281405,-8.099999,34.38,-39.54
1553843725933,3.4860642,2.7127132,8.851633999999999,-0.06899234,-0.11330206,0.05181848,-8.04,35.16,-39.0
1553843725954,3.318465,1.6592325,8.372779,-0.09220523,-0.15056485,0.0408229,-7.68,35.1,-38.94
1553843725973,3.3519847,1.4365649,8.162083,-0.07998791,-0.16278215,0.03349252,-8.34,34.44,-38.82
1553843725993,3.3663504,1.2785428,7.8197017,-0.0036297613,-0.119410716,0.0017275269,-8.7,34.02,-39.719997
1553843726014,3.476487,1.56825,7.910684,0.09655214,-0.02900266,-0.054472078,-8.82,34.5,-39.899998
1553843726033,3.6129606,2.185973,8.1549,0.15702779999999997,0.052853283,-0.07951755,-8.76,34.8,-38.82
1553843726053,3.790137,3.0622776000000003,8.466156,0.09655214,0.1530352,-0.061191592,-8.76,34.559998,-38.7
1553843726074,4.1780095,4.149278,9.141341,-0.08426398,0.23550199,-0.0049919905,-9.54,34.98,-39.0
1553843726093,4.2905407,5.1883935999999995,9.881172,-0.18627848,0.1738046,0.029216462999999998,-9.66,35.1,-39.18
1553843726114,3.955342,4.364763,9.58907,-0.13130060000000002,0.023531752000000003,0.042044632,-8.58,34.86,-39.0
1553843726133,3.4357843,2.5211713,8.942616000000001,-0.062272824000000004,-0.12979543,0.016388291,-8.639999000000001,35.46,-38.64
1553843726154,3.3160705999999998,1.5562786,8.490098,-0.04761206,-0.21104050000000002,-0.012322373999999999,-9.0,35.34,-39.3
1553843726173,3.4022646,1.1109436000000001,8.140533999999999,-0.025620911,-0.25380108,-0.016598431,-8.16,34.739998,-40.02
1553843726193,3.4214187000000007,0.9241901,7.778999000000001,0.03302215,-0.20981877,-0.032480925,-8.22,34.8,-39.48
1553843726214,3.5866237,1.4269878,7.881953,0.10327166,-0.09008919,-0.06791111,-8.94,34.8,-38.1
1553843726233,3.8236567999999997,2.310475,8.197997,0.14969742,0.043690305,-0.07463063,-9.42,34.739998,-36.84
1553843726253,4.065479,3.3328303999999997,8.504464,0.10327166,0.16280901,-0.039200444,-8.88,34.02,-37.079997999999996
1553843726274,4.3240604000000005,4.276175,9.026416000000001,-0.050666384,0.22145209,0.01944262,-8.88,33.42,-38.879996999999996
1553843726293,4.3456087,5.0758624,9.584282,-0.15573521,0.16219817,0.048764154000000004,-9.36,33.96,-39.42
1553843726313,4.024776,4.4653225,9.486116,-0.12030502400000001,0.041246843,0.049375015999999994,-9.0,34.26,-39.18
1553843726334,3.4908525999999998,2.7582044999999997,8.889942,-0.059829365,-0.07054149,0.03288165,-8.82,34.8,-39.48
1553843726353,3.2993107000000004,1.6855695,8.473338,-0.049444657,-0.10780427599999999,0.018220888,-9.179999,35.64,-38.76
1553843726374,3.3687446000000003,1.2593886,8.188419999999999,-0.04455773,-0.13590409,0.035325114,-9.3,35.28,-39.0
1553843726394,3.4094474000000003,0.9984126,7.929838,0.02202658,-0.14323446,0.03104906,-9.12,34.739998,-39.42
1553843726413,3.5411325,1.3527653,7.927444,0.14603223,-0.068708904,-0.017209295,-9.12,34.739998,-39.18
1553843726433,3.675212,2.0973847,8.272219999999999,0.22300126,0.010092715,-0.053250343,-9.36,34.86,-39.66
1553843726454,3.8667538,3.0287576,8.470944,0.183295,0.10233337,-0.03858958,-8.46,34.2,-39.12
1553843726473,4.247443700000001,3.929005,8.961771,-0.006684086999999999,0.16647421,0.014555697,-8.34,34.5,-38.879996999999996
1553843726494,4.4246197,4.879532,9.543579,-0.16123301,0.16219817,0.060981455999999996,-9.0,34.44,-39.719997
1553843726513,4.460534,4.9274178,9.763853,-0.15634607,0.06873578,0.060981455999999996,-8.82,34.62,-39.66
1553843726534,3.929005,3.301705,9.110215,-0.05860763,-0.077261016,0.079307415,-9.179999,34.98,-39.719997
1553843726554,3.5004299,1.7813405,8.542772,-0.008516683,-0.14812139,0.07991828,-9.0,34.98,-39.96
1553843726573,3.3615617999999996,1.1731946000000002,8.166871,-0.006684086999999999,-0.15789524,0.10679635,-8.519999499999999,35.16,-39.059998
1553843726594,3.3687446000000003,0.91700727,7.757450599999999,0.030578692999999997,-0.14873226,0.09030299,-8.82,34.739998,-38.46
1553843726614,3.3807160000000005,1.1133378,7.735902,0.1270954,-0.11208033,0.02188608,-9.0,34.8,-39.18
1553843726633,3.5171897000000003,1.6137413,7.8556156,0.22300126,-0.05588073,-0.03858958,-9.179999,34.86,-39.12
1553843726654,3.7949257000000003,2.6337023,8.214757,0.22849904,0.11455067,-0.059969865,-8.4,34.8,-38.34
1553843726673,4.163644000000001,3.7111259,8.535589,0.061732817,0.2984211,-0.014765833999999999,-8.4,34.8,-39.48
1553843726694,4.5634879999999995,5.0686800000000005,9.682447,-0.1734503,0.37355754,0.0707553,-9.42,34.62,-40.44
1553843726713,4.5060253,5.846819,9.9889145,-0.20460443,0.20923479,0.11046154,-9.3,34.26,-39.6
1553843726734,3.8021083,3.9529476000000003,9.28021,-0.075100996,-0.03511131,0.10190942,-9.059999000000001,34.32,-39.48
1553843726754,3.1029801,1.7621863000000002,8.557138,0.01958312,-0.17683205,0.005392718,-9.0,34.739998,-39.899998
1553843726773,2.8659470000000002,0.98404694,8.090255,0.0073658134999999994,-0.20676444,-0.04103304,-8.94,34.8,-39.3
1553843726793,3.0191805,0.71828246,7.747873299999999,-0.00057543506,-0.21653828,-0.066078514,-8.639999000000001,35.34,-39.48
1553843726814,3.2705792999999996,1.063058,7.7933645,0.030578692999999997,-0.16339302,-0.097843505,-8.519999499999999,35.34,-39.719997
1553843726833,3.6297207,1.9656997,8.145323,0.07333925,-0.05343727,-0.1259433,-8.639999000000001,35.46,-38.879996999999996
1553843726854,4.11097,2.978478,8.581081,0.08311310400000001,0.10172250000000001,-0.102119565,-8.88,35.219997,-38.7
1553843726873,4.415043,3.8763309,9.024022,0.01958312,0.18480018,-0.049585156,-8.58,34.8,-39.0
1553843726893,4.4677167,4.400677,9.320911,-0.057385902999999995,0.13959615,0.0060035832999999995,-8.88,34.86,-39.54
1553843726914,4.242655,4.304906,9.1628895,-0.04761206,0.043690305,0.009668776,-9.179999,34.2,-39.239998
1553843726933,3.6201434,2.9305923,8.597841,0.0012571607,-0.028391793,-0.0068245865,-9.36,33.78,-39.36
1553843726954,3.4980354,2.291321,8.545167,-0.02684264,-0.056491595,-0.009878913000000001,-8.94,33.96,-39.84
1553843726973,3.7733772000000005,2.4062462000000004,8.652909,-0.07693359,-0.10291736,0.04143377,-8.7,33.66,-39.3
1553843726994,3.8954852,2.6648278,8.655303,-0.10381166,-0.11452380000000001,0.09763337,-9.48,33.3,-39.66
1553843727013,3.9936504,2.5163830000000003,8.502069,-0.060440227,-0.06321111,0.12084625,-9.179999,34.32,-39.899998
1553843727034,3.9313992999999994,2.2147042999999997,8.315316000000001,0.002478891,0.0027623328000000004,0.11473759,-9.0,34.98,-39.54
1553843727053,3.8116856,2.22907,8.186026,0.04523946,0.048577222999999996,0.07686395,-8.82,34.44,-38.94
1553843727074,3.7518287000000003,2.6217308,8.403905,0.0061440826,0.09561385,0.04509896,-8.7,34.8,-38.82
1553843727093,3.8667538,3.2729738,8.865999,-0.057385902999999995,0.10599856,0.029216462999999998,-8.7,35.34,-39.3
1553843727113,3.8092911,3.3831102999999993,8.988108,-0.06715974,0.09866817,0.027994731000000002,-8.88,34.62,-39.54
1553843727133,3.5962007000000007,2.5953939999999998,8.736709,-0.004851492,0.05468588,0.016388291,-8.4,34.8,-39.42
1553843727153,3.3256476000000004,1.7238779,8.243488000000001,0.06967407,-0.0027354546,-0.010489778,-8.519999499999999,35.399998,-39.0
1553843727173,3.3783216,1.6975409,8.195602000000001,0.11732156,-0.091921784,-0.032480925,-9.059999000000001,34.38,-38.879996999999996
1553843727194,3.4980354,2.1452703,8.183631,0.107547715,-0.091921784,-0.03981131,-8.88,34.2,-39.36
1553843727213,3.9313992999999994,3.0239692000000002,8.664881,0.006754948,0.04430117,-0.017209295,-9.179999,34.98,-39.42
1553843727234,4.4270144,4.070266999999999,9.349642999999999,-0.09525955,0.13226576,0.03349252,-8.76,34.739998,-38.46
1553843727253,4.4126487,4.2211065,9.466963,-0.12091588,0.12615710000000002,0.07808568,-8.099999,34.559998,-37.8
1553843727273,4.005622,3.2179053,8.973742,-0.07449013,0.044912033,0.109850675,-7.5,35.16,-38.16
1553843727294,3.5794407999999995,2.2434354,8.466156,-0.043336004000000004,-0.021672277,0.098244235,-8.34,34.739998,-39.42
1553843727313,3.3495904999999997,1.8914771000000001,8.329682,-0.040281676,-0.07115236,0.06464665,-8.76,34.079997999999996,-40.079997999999996
1553843727334,3.3424077000000003,1.7741576000000001,8.22194,-0.021344852,-0.12063245,0.020053484,-7.8599997,34.32,-40.02
1553843727353,3.397476,1.5874043,8.197997,0.042795997,-0.10963687,-0.028815735,-7.74,34.739998,-39.66
1553843727374,3.5411325,1.6855695,8.183631,0.1429779,-0.06382198,-0.073408894,-8.28,35.52,-38.94
1553843727394,3.6440864,2.0758362,8.032792,0.23155336,0.009481851,-0.097843505,-8.04,34.92,-38.1
1553843727413,3.9122449999999995,2.4972286,8.353624,0.25232276,0.12249192,-0.07463063,-7.74,33.899998,-38.82
1553843727433,4.2905407,3.1317115,8.494887,0.13259318,0.26665613,0.0023383922,-8.22,34.5,-40.2
1553843727453,4.6568646,4.230683999999999,9.301758,-0.067770615,0.38088790000000006,0.12084625,-8.46,34.559998,-40.5
1553843727473,5.030371,5.688797,10.225947,-0.11480723,0.23305853,0.21003258,-8.58,34.2,-40.26
1553843727494,4.209135,4.249838,9.452597,-0.0011863003,-0.022894006,0.26073440000000003,-8.519999499999999,33.96,-40.559998
1553843727513,3.3064934999999998,2.300898,8.703189,0.080058776,-0.1285737,0.21186517,-8.16,34.38,-40.559998
1553843727533,2.6767993,1.0941836,8.176449,0.06417628,-0.17499945,0.07808568,-8.22,34.92,-39.899998
1553843727554,2.6265194,0.8332075999999999,7.8197017,0.028746097999999998,-0.17683205,-0.012933239,-7.68,34.92,-39.48
1553843727573,2.8396098999999997,0.9984126,7.6377369999999996,0.07456099,-0.12735197,-0.102119565,-7.14,34.5,-39.54
1553843727593,3.2011453999999997,1.7047237000000002,7.8723755,0.14419962,-0.043052558,-0.17542339999999998,-7.3199997,34.86,-39.12
1553843727613,3.5650752,2.6767993,8.068706500000001,0.14114529,0.116994135,-0.17542339999999998,-8.34,35.1,-39.059998
1553843727633,4.230683999999999,3.7925312999999994,8.650514999999999,0.021415714,0.30086458,-0.11006081,-8.82,34.44,-39.899998
1553843727653,4.800521,5.0854397,9.6896305,-0.16367646,0.3375165,0.02432954,-8.22,34.14,-39.96
1553843727673,4.7693954000000005,5.9880815,10.180456,-0.18994367,0.1738046,0.14100479999999999,-7.9199996,33.54,-40.26
1553843727693,4.11097,4.268992,9.354432000000001,-0.05372071,-0.028391793,0.18620883,-7.5,34.02,-39.84
1553843727713,3.014392,1.6807808999999998,8.607418,0.04585032,-0.16400388,0.0725879,-7.44,34.92,-39.899998
1553843727733,2.7246847,0.9529214,8.193209,0.007976678000000001,-0.23975118,-0.025150542999999997,-7.5,34.92,-40.44
1553843727753,2.7821474,0.6057515,7.6880164,-0.032951295,-0.24402723,-0.07707409,-7.62,35.1,-40.2
1553843727773,3.0263633999999997,0.71828246,7.5587254,-0.0030188959999999996,-0.19149281,-0.12899764,-8.22,34.739998,-39.84
1553843727794,3.4381785000000002,1.7550035,7.9011070000000005,0.061732817,-0.07420669,-0.18336464,-8.519999499999999,34.92,-39.18
1553843727813,3.9984387999999997,2.9473522,8.322499,0.07822618,0.112718076,-0.16076264,-7.98,35.46,-38.7
1553843727833,4.618556,4.249838,8.945011000000001,-0.026231775,0.27704084,-0.057526402000000004,-7.7999997,34.5,-39.0
1553843727854,5.020794400000001,5.3679643,9.778217999999999,-0.18016982,0.29047987,0.08724867,-7.98,34.2,-39.6
1553843727873,4.819675,5.7295,9.984126,-0.1630656,0.1982392,0.15749817,-7.7999997,34.26,-39.84
1553843727893,3.8092911,3.3950818,9.0838785,-0.03478389,0.021699157,0.18804143,-7.3799996,34.079997999999996,-39.84
1553843727914,3.1293173,1.8364087,8.696006,0.006754948,-0.07481755,0.11412673400000001,-7.3799996,34.02,-39.84
1553843727933,3.0119977000000002,1.2330515,8.430242,-0.025620911,-0.18355158,0.083583474,-7.2,34.38,-39.719997
1553843727953,2.8683412,0.5770202,7.788575999999999,-0.015236201999999999,-0.23791859,0.023718676,-6.42,34.26,-39.6
1553843727973,2.9665065,0.69912827,7.5228114,0.06417628,-0.18538415,-0.07646323,-6.66,33.54,-39.6
1553843727993,3.2562137000000004,1.637684,7.843644,0.16191472,-0.088867456,-0.15893003,-7.8599997,34.559998,-39.36
1553843728013,3.7925312999999994,2.8491871,8.243488000000001,0.18696019,0.08828347,-0.16076264,-8.58,35.52,-39.12
1553843728034,4.245049,3.9984387999999997,8.863605499999998,0.047072057,0.27520823,-0.08990226,-8.46,35.1,-38.76
1553843728053,4.867561,5.200365000000001,9.866806,-0.15695694,0.3252992,0.04143377,-7.98,34.62,-37.92
1553843728074,4.685596,5.695979599999999,10.015251,-0.19483058,0.22023036,0.14222653,-7.9199996,34.14,-37.62
1553843728093,3.8332339999999996,3.6632404000000003,9.131764,-0.055553306,0.048577222999999996,0.17643498,-7.7999997,33.78,-38.1
1553843728113,3.1365,1.7478206000000003,8.542772,0.04157427,-0.0845914,0.099465966,-6.96,33.6,-37.62
1553843728133,3.0119977000000002,1.2450229,8.277008,0.034243885,-0.1902711,0.06464665,-6.42,33.3,-37.739998
1553843728153,2.954535,0.96489275,7.908289999999999,0.014085331000000001,-0.2409729,0.012723101,-6.8399997,33.78,-39.36
1553843728174,3.1077687999999997,1.2689656,7.80773,0.039741673,-0.18110810000000002,-0.073408894,-7.56,34.02,-40.2
1553843728195,3.3687446000000003,1.9441511999999999,8.023214999999999,0.08800002,-0.0845914,-0.13083023,-7.259999799999999,34.14,-40.8
1553843728213,3.756617,2.7845416000000003,8.3679905,0.13014974,0.051631555,-0.13693888,-7.56,34.26,-39.899998
1553843728234,4.0582957,3.5363437999999996,8.667274,0.061121956,0.18357845,-0.09723264,-7.8599997,34.079997999999996,-37.739998
1553843728253,4.331243,4.2139235,9.14613,-0.073879264,0.258104,-0.023928814,-7.02,33.899998,-37.92
1553843728273,4.328849,4.810098,9.478933999999999,-0.14535050000000002,0.20679133,0.031659923,-7.7999997,34.14,-39.12
1553843728294,3.9529476000000003,3.8691480000000005,9.308941,-0.09342695,0.08584,0.04754242,-8.04,34.739998,-40.44
1553843728313,3.5004299,2.4014575000000002,8.973742,-0.00057543506,-0.12246504400000001,-0.0062137214,-6.8999996,34.26,-40.739998
1553843728334,3.2466366,1.7645805,8.55235,0.026302636,-0.22447954,-0.059359,-6.6,34.38,-39.36
1553843728353,3.057489,1.4006507,8.12138,0.024470039,-0.24341637,-0.07218716,-6.8399997,34.5,-39.3
1553843728374,3.0862203,1.1444633,7.7526617,0.037909076,-0.17927551,-0.09173486,-8.099999,34.68,-39.78
1553843728393,3.407053,1.7813405,8.078283,0.07578272,-0.08398053,-0.121056385,-8.46,34.86,-39.84
1553843728414,3.74704,2.7773588,8.267431,0.09838474,0.06629232,-0.10578476,-8.34,34.14,-40.559998
1553843728434,4.2139235,3.7183087,8.696006,-0.01401447,0.22817162,-0.022707082000000003,-8.04,33.96,-40.68
1553843728453,4.616162,4.5539107,9.361614,-0.12519194,0.23733458,0.06586838,-7.98,34.26,-40.32
1553843728473,4.6305275,5.1548739999999995,9.811738,-0.10930945,0.13043317,0.11962452,-7.9199996,34.38,-40.14
1553843728493,4.070266999999999,4.0032277,9.27542,-0.008516683,0.0027623328000000004,0.14833519,-7.74,34.079997999999996,-39.42
1553843728513,3.4381785000000002,2.4517374,8.655303,0.014085331000000001,-0.069930635,0.11657019,-7.44,33.66,-39.48
1553843728533,3.0790374,1.498816,8.365596,-0.038449082999999995,-0.14384532,0.06647924,-7.56,33.719997,-40.02
1553843728553,2.9641123,1.3048798000000001,8.030397,-0.045168597000000005,-0.17744292,0.01944262,-7.3199997,34.44,-40.079997999999996
1553843728574,3.0287576,1.2737542,7.802942,0.03851994,-0.16156043,-0.060580727,-7.5,34.5,-39.899998
1553843728594,3.2969165,1.6999351000000003,7.893924,0.15702779999999997,-0.10963687,-0.1314411,-8.04,34.92,-39.84
1553843728613,3.6464806000000003,2.5546912999999996,8.2387,0.22422297,-0.028391793,-0.15282138,-8.099999,34.26,-39.84
1553843728633,4.0032277,3.2514252999999997,8.411087,0.16435818,0.09317039,-0.1173912,-7.8599997,34.2,-39.96
1553843728654,4.338426,4.0798445,8.959375999999999,-0.023177449,0.24344324,-0.04286563400000001,-8.4,33.719997,-39.54
1553843728673,4.4725056,5.1165650000000005,9.581888000000001,-0.16123301,0.25688225,0.035935983,-8.639999000000001,33.239998,-39.84
1553843728694,4.000833,4.5515165,9.457385,-0.11602897,0.08339655,0.07625309,-8.46,34.079997999999996,-40.32
1553843728713,3.5602864999999997,2.8348215,8.940222,-0.05433158,-0.0845914,0.07197703,-8.46,33.899998,-40.44
1553843728734,3.275368,1.9489397000000002,8.540379,-0.047001194,-0.17499945,0.0408229,-8.099999,33.66,-40.8
1553843728753,3.1939626,1.4676905,8.174054,-0.059829365,-0.21042964,0.021275215,-7.74,34.2,-40.26
1553843728773,3.1963567999999998,1.2546,7.9178667,-0.028675236,-0.19943407,-0.023317947999999998,-8.16,34.38,-40.079997999999996
1553843728793,3.4309957000000004,1.637684,7.932232400000001,0.034243885,-0.13284975,-0.08318274,-8.04,33.899998,-39.6
1553843728814,3.6488747999999998,2.2434354,8.099832000000001,0.06967407,-0.044274293,-0.10395216,-7.9199996,34.079997999999996,-39.6
1553843728834,4.1516724,3.3615617999999996,8.631361,0.02202658,0.038192517999999995,-0.07218716,-8.34,34.68,-40.5
1553843728853,4.4629283,4.2570205,9.189227,-0.06715974,0.04002511,-0.017820163,-8.519999499999999,33.84,-39.54
1553843728874,4.343214499999999,4.364763,9.208381,-0.09037263,-0.023504874,0.03288165,-7.98,33.059998,-39.42
1553843728894,3.991256,3.5483153,8.770228,-0.023788313999999998,-0.09558698,0.07319876,-7.98,33.6,-39.6
1553843728913,3.7542229,2.944958,8.492493,0.07700445,-0.08031534,0.13428527,-7.74,33.66,-39.899998
1553843728934,3.6440864,2.4613144,8.490098,0.08555657,-0.07420669,0.14772432,-8.099999,33.239998,-39.059998
1553843728953,3.6656345999999997,2.4445546,8.688824,-0.027453506000000003,-0.06015679,0.12023538,-8.519999499999999,33.12,-37.8
1553843728974,3.7278860000000003,2.7677817000000005,8.760652,-0.10197906,-0.008233242,0.08541607,-8.28,34.32,-39.0
1553843728993,3.7207031,2.6337023,8.605023,-0.07876619,0.010092715,0.068922706,-8.4,34.98,-39.84
1553843729014,3.5578922999999993,2.1668186,8.190814,-0.013403606,0.0125361765,0.05609453,-8.4,34.86,-39.719997
1553843729034,3.6488747999999998,1.9106313000000001,8.059128999999999,0.05195898,0.0039840629999999995,0.038990308,-7.8599997,34.44,-38.52
1553843729053,3.7829542000000003,2.2769554,8.118986,0.036076482,0.04002511,0.018220888,-7.7999997,34.26,-38.7
1553843729073,4.005622,2.9760835,8.61939,-0.03478389,0.09500299,-0.015987566,-8.099999,34.62,-39.0
1553843729094,4.285752,4.048719,9.198803999999999,-0.124581076,0.07973135,-0.036756985,-8.88,34.5,-39.84
1553843729114,4.087027,3.806897,9.296969,-0.114196375,-0.0406091,-0.041643906,-8.34,34.26,-40.379996999999996
1553843729133,3.6823947,2.7893302,8.892337,-0.06960321,-0.12918456,-0.059359,-7.9199996,34.26,-40.32
1553843729153,3.4597269999999996,2.0423164000000003,8.514041,-0.053109847,-0.1249085,-0.09662178,-8.58,34.02,-40.14
1553843729173,3.4094474000000003,1.5179702,8.114198,-0.038449082999999995,-0.08031534,-0.107617356,-8.76,34.26,-39.96
1553843729196,3.5746522000000005,1.4748733,7.814913000000001,-0.010960144,-0.03938737,-0.08562621,-9.36,34.62,-39.48
1553843729213,3.7422516000000003,1.924997,7.970541000000001,-0.006684086999999999,0.016201368,-0.05386121,-9.54,34.5,-39.6
1553843729234,4.37434,3.2202997000000004,8.707977,-0.041503407,0.11088548599999999,-0.005602856,-8.099999,34.5,-38.1
1553843729254,4.735875599999999,4.206741,9.296969,-0.07449013,0.09622472,0.053040206,-8.16,34.86,-37.86
1553843729274,4.5970078,4.5994019999999995,9.438231,-0.06715974,0.014979636999999999,0.13367443,-8.519999499999999,35.1,-37.68
1553843729293,4.087027,3.4309957000000004,8.952193,0.0073658134999999994,-0.08703486,0.19048489999999998,-8.28,34.38,-36.96
1553843729313,3.3998702000000005,1.8723229,8.3129225,0.05195898,-0.13895841,0.16055249,-8.16,34.14,-37.559998
1553843729334,3.110163,1.3168511,7.9729350000000005,0.050737243,-0.12429764,0.09457904,-8.7,34.86,-38.34
1553843729353,3.1508656000000004,1.0822121999999998,7.738296000000001,0.06051109,-0.06626544,0.023718676,-9.0,35.46,-38.82
1553843729373,3.3064934999999998,1.5012103,7.757450599999999,0.07578272,0.007649255,-0.04469823,-9.0,35.1,-38.879996999999996
1553843729394,3.8356282999999998,2.6456738,8.279403,0.017139658000000002,0.17685893,-0.07463063,-8.28,33.78,-39.42
1553843729413,4.611373400000001,4.051113,9.277814999999999,-0.059829365,0.23977804,-0.021485351,-8.22,34.26,-39.42
1553843729434,5.00164,5.0686800000000005,9.950606,-0.08792917,0.11516154,0.07014443,-8.82,34.92,-39.0
1553843729453,4.592219,4.242655,9.622589999999999,-0.014625336000000001,-0.09008919,0.15200038,-8.94,34.739998,-39.48
1553843729474,3.7278860000000003,2.248224,8.621783,0.05134811,-0.18538415,0.18437624,-9.24,34.86,-38.94
1553843729493,3.3088877,1.1372806,8.123775,0.06478715,-0.13529322,0.13550702,-8.04,34.559998,-38.64
1553843729514,3.347196,0.87151605,7.9130783,0.09288695,-0.08703486,0.067700975,-7.44,34.68,-39.12
1553843729534,3.4597269999999996,1.0941836,7.860403999999999,0.1429779,-0.058935057,-0.00010506882,-8.16,34.559998,-39.6
1553843729553,3.7374629999999995,1.6185298000000001,8.099832000000001,0.19245797,0.032694727,-0.073408894,-8.76,34.02,-39.0
1553843729574,4.0128045,2.5187771,8.255460000000001,0.18879278,0.1896871,-0.107617356,-8.34,33.6,-39.12
1553843729593,4.3025117,3.5411325,8.626572999999999,0.11060204,0.29414505,-0.054472078,-7.98,33.78,-40.26
1553843729614,4.697566999999999,4.4389853,9.289786,0.007976678000000001,0.26787785,0.043266362999999995,-8.4,34.02,-39.719997
1553843729633,4.6903844,4.9106574,9.708784,-0.050666384,0.08767260000000002,0.111072406,-7.98,33.84,-40.26
1553843729654,4.2019525,4.0367475,9.158101,-0.0030188959999999996,-0.09131091,0.13733962,-7.259999799999999,33.719997,-40.32
1553843729673,3.529161,2.4254005000000003,8.420665,0.07822618,-0.13040629,0.12939836,-7.02,33.54,-40.2
1553843729694,3.2538195,1.4844503,7.982512,0.09227608,-0.08520226,0.057316266,-7.3199997,34.559998,-40.02
1553843729713,3.1125572,1.2881198,7.7718163,0.07700445,-0.039998233,-0.017820163,-7.62,34.739998,-39.96
1553843729733,3.1269228,1.5083932,7.6736507,0.080058776,0.040635977000000004,-0.10089783,-7.8599997,34.2,-40.68
1553843729754,3.3567734,2.291321,7.915472500000001,0.08311310400000001,0.15547864,-0.16687128,-7.8599997,34.14,-40.26
1553843729773,3.7422516000000003,3.2274826,8.447001,0.037909076,0.25321710000000003,-0.17786685,-7.98,33.899998,-40.32
1553843729794,4.2211065,4.4078599999999994,9.25866,-0.055553306,0.22756074,-0.11922379599999999,-7.3799996,33.719997,-40.02
1553843729813,4.285752,4.8148865999999995,9.593859,-0.08609657,0.07117924,-0.04775256,-7.3799996,33.6,-40.62
1553843729833,3.9481592000000005,3.8763309,9.234717999999999,-0.05860763,-0.09803043,-0.0007159340299999999,-7.44,33.12,-40.86
1553843729855,3.4094474000000003,2.5642683999999996,8.540379,-0.0017971654999999998,-0.19576888,-0.017209295,-7.08,32.76,-40.079997999999996
1553843729873,3.1795970000000002,1.8890828000000002,8.073495,-0.01279274,-0.17377773,-0.073408894,-8.099999,32.82,-40.079997999999996
1553843729893,3.1843855,1.7502148999999998,7.9130783,-0.053109847,-0.12429764,-0.12227812,-8.28,33.18,-40.2
1553843729914,3.3759273999999997,2.2099156000000004,7.982512,-0.11786156,-0.06015679,-0.15648657,-8.22,34.02,-40.5
1553843729933,3.6991546000000004,2.8731298,8.269825,-0.18811107,0.020477425,-0.16198435,-8.4,34.2,-40.5
1553843729954,4.3025117,3.7398572,8.887547999999999,-0.23881288,0.08034222,-0.12533244,-8.099999,34.32,-40.14
1553843729973,4.62095,4.120547,9.2419,-0.20399356,0.045522900000000005,-0.06913284,-8.82,34.02,-39.84
1553843729994,4.398283,3.46691,8.980925,-0.09587041,-0.03144612,-0.01904189,-8.639999000000001,34.38,-39.239998
1553843730013,3.859571,2.0830189999999997,8.193209,0.02202658,-0.07848274,-0.0074354519999999995,-8.099999,34.44,-38.46
1553843730034,3.5866237,1.5036045,7.9920893,0.07028493,-0.048550345,-0.03064833,-8.22,34.5,-38.82
1553843730053,3.5746522000000005,1.4796618000000001,8.061523,0.08311310400000001,0.013757907,-0.06852197,-8.58,34.559998,-39.48
1553843730074,3.4549387,2.3320236,7.980117999999999,0.017750522,0.14509393,-0.08257188,-8.7,33.719997,-39.18
1553843730093,3.6704233,3.241848,8.578687,-0.10258993,0.25627142,-0.045309097,-8.4,33.78,-39.18
1553843730113,4.276175,4.4892654,9.653716000000001,-0.20399356,0.20495872,0.04632069,-8.76,34.2,-39.54
1553843730134,4.314483,4.8555894,9.974549,-0.1716177,0.024753481,0.12084625,-8.4,34.079997999999996,-39.54
1553843730153,3.7398572,3.6081722000000003,9.301758,-0.047001194,-0.16766907,0.2075891,-8.46,34.079997999999996,-39.84
1553843730173,3.093403,2.0925963,8.5882635,0.0091984095,-0.23547511,0.22041728,-8.82,34.079997999999996,-39.66
1553843730194,2.80609,1.3024855,8.267431,-0.0017971654999999998,-0.24524896,0.16543941,-8.94,34.2,-39.12
1553843730213,2.9162266,1.010384,8.018426,-0.0042406265000000005,-0.20187752,0.10496375,-8.46,34.5,-38.1
1553843730233,3.2226939999999997,1.2282629999999999,7.9011070000000005,0.05684589599999999,-0.13590409,0.045709822000000004,-8.46,34.86,-37.14
1553843730253,3.4956412000000006,1.7789462,7.8364615,0.11548896,0.0033731977000000003,0.0017275269,-8.099999,34.8,-37.559998
1553843730273,4.070266999999999,2.9018610000000002,8.279403,0.08311310400000001,0.16830681,0.027383868,-7.3799996,34.92,-38.1
1553843730293,4.9609375,4.187587000000001,9.256267,-0.0024080307,0.20801306,0.0970225,-7.9199996,34.8,-38.219997
1553843730314,5.4661292999999995,4.9944572,9.785401,-0.05921849999999999,0.03513819,0.20025873,-8.519999499999999,33.96,-38.46
1553843730333,5.133325,4.4749,9.534002000000001,-0.0024080307,-0.14506707,0.23324545,-8.22,34.2,-39.12
1553843730355,4.0822387,2.2817439999999998,8.499676,0.10571512,-0.26296404,0.22163899999999997,-7.9199996,34.14,-40.2
1553843730374,3.3926873,1.1803774999999999,8.018426,0.10999117,-0.18110810000000002,0.13672875,-8.58,34.26,-39.3
1553843730394,3.2514252999999997,0.8356019,7.898712599999999,0.08311310400000001,-0.089478314,0.059759725,-8.639999000000001,34.86,-39.12
1553843730413,3.4597269999999996,0.7877164000000001,7.898712599999999,0.07028493,-0.023504874,-0.037367847,-8.76,34.8,-39.18
1553843730434,3.5890178999999995,1.3551594999999999,7.9944835,0.07822618,0.070568375,-0.13388455,-8.76,34.92,-39.6
1553843730454,3.8787252999999997,2.1979442000000002,8.41827,0.05379157,0.20801306,-0.15893003,-9.0,34.8,-39.78
1553843730474,4.4844766,3.5650752,9.14613,0.0061440826,0.27154303,-0.12411071,-8.28,34.26,-40.2
1553843730493,4.7095385,4.460534,9.58907,0.0012571607,0.15364604,-0.031870063,-7.98,34.02,-40.8
1553843730513,4.259414700000001,4.0032277,9.2419,0.06356542,-0.07115236,0.034714247999999996,-8.099999,34.02,-40.8
1553843730534,3.5171897000000003,2.6959534,8.447001,0.10327166,-0.23119906,0.046931557,-7.44,34.02,-39.42
1553843730553,3.2825508,2.013585,7.9920893,0.07517185,-0.20554271,0.018220888,-8.22,34.14,-39.96
1553843730573,3.6033835,1.9010541,7.843644,0.03729821,-0.1230759,-0.017209295,-8.04,33.899998,-40.02
1553843730593,3.8045027,2.1285102000000005,7.8268843,0.017139658000000002,-0.019839682,-0.06668938,-8.22,33.18,-40.32
1553843730613,3.9050622,2.631308,7.946598,0.012863601,0.10050077,-0.08929139400000001,-8.519999499999999,33.66,-40.079997999999996
1553843730634,4.087027,3.213117,8.372779,0.02813523,0.23183679999999998,-0.09417831,-8.88,33.239998,-40.14
1553843730653,4.0942099999999995,3.4645156999999998,8.693612,0.06600887,0.24405411,-0.06791111,-8.94,32.82,-40.2
1553843730673,3.7087317000000004,3.3495904999999997,8.487703999999999,0.10449339,0.17869152,-0.0013267993,-8.639999000000001,33.42,-39.84
1553843730693,3.5195839999999996,3.0910087,8.518829,0.07822618,0.13593096,0.07991828,-7.8599997,33.719997,-40.02
1553843730714,3.6009892999999997,3.347196,9.019233,-0.021344852,0.112718076,0.122678846,-7.68,33.36,-40.68
1553843730734,3.790137,3.8212626000000003,9.323306,-0.08365311,0.065070584,0.121457115,-7.3799996,33.239998,-40.44
1553843730753,3.7853483999999997,3.4022646,9.198803999999999,-0.06960321,-0.019839682,0.121457115,-7.259999799999999,33.54,-39.42
1553843730774,3.512401,2.803696,8.834874000000001,-0.063494556,-0.0986413,0.10862894,-7.74,33.3,-39.96
1553843730793,3.2993107000000004,2.19555,8.317711,-0.08243138,-0.1267411,0.05548367,-7.5,33.3,-40.379996999999996
1553843730813,3.2729738,2.0064023,8.025609,-0.098313875,-0.08764572400000001,0.022496943999999998,-7.08,33.3,-40.5
1553843730834,3.5794407999999995,2.3200524,8.001666,-0.098313875,-0.012509298500000002,-0.0025485298,-8.04,33.66,-40.32
1553843730853,4.063084,3.0000262,8.379961999999999,-0.121526755,0.039414246,0.0047818534,-8.28,33.899998,-39.96
1553843730874,4.4413795,3.5339496,8.909097000000001,-0.15573521,0.033305597,0.012723101,-7.74,34.26,-40.02
1553843730893,4.5251794,3.3424077000000003,9.160496,-0.15817867,-0.03266785,0.020053484,-7.98,34.62,-39.54
1553843730914,4.2618093,2.597788,8.885154,-0.09648128,-0.13284975,0.024940407,-8.34,34.32,-39.48
1553843730933,3.842811,1.7214836,8.415875999999999,-0.031729564,-0.16156043,0.0023383922,-8.7,34.14,-39.36
1553843730953,3.6584517999999995,1.2474172,8.059128999999999,0.04646119,-0.09741957,-0.041643906,-7.74,33.899998,-38.579997999999996
1553843730973,3.74704,1.4820561,7.946598,0.08555657,-0.005178915300000001,-0.08868053,-8.28,34.32,-39.48
1553843730993,3.9050622,2.1668186,8.123775,0.07089580000000001,0.08767260000000002,-0.121056385,-8.16,34.559998,-39.54
1553843731014,4.367157499999999,3.6009892999999997,8.813326,-0.026231775,0.18846536,-0.078906685,-8.4,34.38,-39.66
1553843731033,4.7095385,4.4677167,9.340066,-0.08976176400000001,0.16586336,-0.005602856,-8.04,34.02,-39.719997
1553843731054,4.4988421999999995,4.06069,9.289786,-0.08609657,0.01070358,0.08969212,-7.2,33.54,-39.899998
1553843731073,4.0032277,2.8851009999999997,8.846846000000001,-0.031118697999999997,-0.08825659,0.14222653,-7.9199996,34.32,-39.3
1553843731094,3.5411325,1.8004947,8.315316000000001,0.02324831,-0.089478314,0.12817663,-7.7999997,34.26,-38.94
1553843731113,3.2705792999999996,1.3527653,8.013638,0.06906319999999999,-0.026559198,0.06525751,-7.14,34.079997999999996,-39.42
1553843731134,3.213117,1.3575538,7.932232400000001,0.12465194,0.032083865,-0.0019376645000000001,-7.02,33.719997,-40.14
1553843731153,3.294522,1.7286664,8.166871,0.17596461,0.06262712,-0.06363506,-7.3799996,33.78,-38.34
1553843731173,3.4429672,2.5139885,8.262642,0.20711875,0.11088548599999999,-0.10456303,-7.3199997,33.899998,-37.5
1553843731194,3.8571767999999995,3.4812756,8.561927,0.11121291,0.22389555,-0.071576305,-7.08,33.6,-38.1
1553843731213,4.3216662,4.187587000000001,9.158101,-0.02684264,0.22572815,0.012112236,-6.54,33.719997,-38.34
1553843731233,4.6688356,4.860378,9.663293,-0.14351789999999998,0.10050077,0.0744205,-6.48,33.66,-38.64
1553843731254,4.3599744000000005,4.0391417,9.440625,-0.10747685,-0.12735197,0.13306355,-6.06,33.42,-36.899998
1553843731274,3.7159145,2.4684972999999997,8.758257,-0.02684264,-0.21898176,0.15322211,-6.24,33.84,-36.719997
1553843731293,3.2562137000000004,1.3216397,8.207574000000001,-0.0017971654999999998,-0.1866059,0.08847039,-6.72,34.02,-38.579997999999996
1553843731314,3.0910087,0.88109314,7.9130783,-0.016457931999999998,-0.12185418,0.004170988,-6.66,33.6,-39.239998
1553843731333,3.1293173,1.0055954,7.762239,0.0043114866,-0.039998233,-0.08868053,-7.5,33.54,-39.48
1553843731353,3.3232534,1.6185298000000001,7.9178667,0.06661975,0.04430117,-0.19069502,-7.62,34.26,-39.0
1553843731373,3.6440864,2.6528566000000002,8.135746000000001,0.09777387,0.16097642,-0.22368175,-8.099999,34.5,-38.52
1553843731393,4.1851926,3.9266107000000003,8.794171,0.026302636,0.24649756,-0.1613735,-8.16,33.6,-39.54
1553843731413,4.6927786,4.7909440000000005,9.517242,-0.094037816,0.19640662,-0.04836342,-7.9199996,33.12,-39.84
1553843731433,4.625739,4.8555894,9.744699,-0.14290704,-0.061989382,0.068922706,-7.68,33.96,-39.719997
1553843731454,4.022382,3.2514252999999997,9.038387,-0.06288369,-0.24524896,0.13489614,-6.96,33.84,-39.3
1553843731473,3.5770466,2.0255566000000003,8.56911,-0.0036297613,-0.26540749999999996,0.115348466,-7.08,33.66,-39.3
1553843731494,3.2370596000000003,1.0558752,8.111803,0.018972252,-0.19576888,0.03104906,-7.5,33.66,-39.239998
1553843731513,3.1772027,0.82602483,7.8173075,0.018361388,-0.08581313,-0.054472078,-7.02,33.3,-39.719997
1553843731533,3.2849449999999996,1.1947431999999998,7.9370210000000005,0.04646119,-0.0021245892,-0.12899764,-7.2,33.6,-39.3
1553843731554,3.6704233,2.1021732999999996,8.358414,0.10999117,0.08828347,-0.19130589,-8.04,34.62,-39.48
1553843731573,4.0032277,3.0455174,8.41827,0.13931271,0.17502634,-0.17603426,-8.46,34.62,-39.18
1553843731593,4.5084195,4.0942099999999995,8.686428999999999,0.06784147,0.21289998,-0.070354566,-8.4,34.02,-39.42
1553843731613,4.975303,4.70475,9.28021,-0.05860763,0.11027461,0.057316266,-7.68,33.96,-39.96
1553843731633,4.8747435,4.6065845,9.273026,-0.098313875,-0.042441695999999994,0.090913855,-7.68,33.96,-39.84
1553843731654,4.3815230000000005,3.6488747999999998,8.849239,-0.0732684,-0.13407148,0.13367443,-7.62,33.84,-40.02
1553843731673,3.7446458,2.3727264,8.521224,-0.034173023,-0.13895841,0.11779192,-6.96,34.079997999999996,-39.719997
1553843731693,3.2538195,1.6975409,8.207574000000001,-0.026231775,-0.07359582,0.049375015999999994,-7.5,34.68,-39.54
1553843731714,2.9617178,1.3072741,7.85801,-0.025620911,0.008870985,-0.015987566,-7.7999997,34.32,-40.44
1553843731734,2.9856608,1.3814965,7.879558599999999,-0.0017971654999999998,0.060794532000000005,-0.07707409,-7.74,33.78,-40.2
1553843731753,3.0838259999999997,1.9633054,8.080677,0.031189557000000003,0.124324515,-0.12411071,-7.74,34.32,-39.899998
1553843731774,3.3232534,2.6121537999999997,8.320105,0.04157427,0.19090883,-0.12716503,-7.9199996,34.079997999999996,-39.96
1553843731793,3.8212626000000003,3.8356282999999998,9.024022,-0.012181873999999999,0.24894102,-0.052028615,-7.7999997,34.5,-40.02
1553843731814,4.3408203,4.680807,9.694419,-0.12091588,0.11455067,0.07869655,-7.259999799999999,34.02,-39.96
1553843731833,4.312089,4.4078599999999994,9.665688000000001,-0.13496579,-0.089478314,0.14100479999999999,-7.5,34.26,-40.02
1553843731853,3.8619652,2.9329867000000003,8.980925,-0.06899234,-0.23486425,0.16849375,-7.9199996,34.68,-39.719997
1553843731873,3.4453614000000004,1.4629020000000001,8.437425,-0.023177449,-0.23975118,0.10129856,-7.68,34.739998,-38.82
1553843731893,3.3687446000000003,1.0415094999999999,8.241094,-0.023788313999999998,-0.19393627,0.014555697,-7.3199997,34.98,-39.059998
1553843731913,3.3807160000000005,1.0798178999999999,8.066312,-0.006684086999999999,-0.12185418,-0.06852197,-7.3799996,35.1,-39.36
1553843731933,3.493247,1.4006507,7.980117999999999,0.022637444,-0.03266785,-0.12411071,-7.9199996,35.1,-39.66
1553843731954,3.7614057,2.1285102000000005,8.047157,0.036687344,0.08706174,-0.15159966,-8.099999,34.44,-40.079997999999996
1553843731973,4.350397,3.3950818,8.509253,0.022637444,0.18113498,-0.11128255,-8.22,34.5,-40.739998
1553843731993,4.7981267,4.5036309999999995,9.088667,-0.03600562,0.1334875,-0.017820163,-7.68,33.6,-37.68
1553843732014,4.8412237000000005,4.771789599999999,9.39274,-0.075100996,-0.025337468999999998,0.0725879,-6.3599997,32.7,-31.74
1553843732033,4.4749,3.5004299,8.880365,-0.04455773,-0.15056485,0.12878749,-5.8799996,33.42,-30.0
1553843732053,3.8835137000000004,2.2434354,8.387145,-0.022566582999999998,-0.14384532,0.11351587,-6.3599997,33.6,-31.26
1553843732073,3.4980354,1.4341706,8.178842999999999,-0.02195572,-0.039998233,0.04754242,-6.66,33.239998,-31.92
1553843732093,3.387899,1.3982565,8.171659,0.00064629543,0.01986656,0.0023383922,-6.48,33.6,-31.32
1553843732113,3.3998702000000005,1.664021,8.1549,0.03851994,0.05346415,-0.037978712000000005,-5.46,33.84,-30.0
1553843732133,3.562681,2.1907616,8.360807000000001,0.072728395,0.09866817,-0.06791111,-5.4,33.6,-30.359999
1553843732153,3.7973199999999996,2.8300327999999997,8.566715,0.106325984,0.15853298,-0.057526402000000004,-5.94,33.66,-31.08
1553843732174,4.0942099999999995,3.5507095,8.822903,0.0849457,0.16586336,-0.0037702604,-5.4,33.6,-29.699999
1553843732193,4.2546263,3.7661943,9.100638,0.025080906,0.08156395,0.05181848,-5.52,33.3,-29.099998
1553843732213,4.249838,3.7757714,9.196409,-0.029896967000000003,-0.025337468999999998,0.08297260000000001,-5.64,33.059998,-30.0
1553843732233,3.9721019999999996,3.1795970000000002,8.959375999999999,-0.02684264,-0.09008919,0.10007682400000001,-5.64,33.0,-30.66
1553843732253,3.675212,2.3416007000000003,8.557138,-0.007294953000000001,-0.103528224,0.09763337,-5.52,33.3,-30.42
1553843732274,3.476487,2.056682,8.28898,-0.028675236,-0.07848274,0.06403578,-5.7599998,33.42,-31.38
1553843732293,3.3998702000000005,2.2506182,8.274613,-0.08304224,-0.021672277,0.036546845,-6.06,33.36,-33.18
1553843732314,3.6297207,2.762993,8.396722,-0.13802011,0.063237995,0.017610023,-6.48,33.78,-34.079997999999996
1553843732333,3.8859081,3.100586,8.593052,-0.1752829,0.09561385,0.022496943999999998,-6.8399997,34.079997999999996,-34.26
1553843732354,4.0678730000000005,3.1556542000000003,8.724737,-0.17894809,0.07240097,0.050596748,-6.12,34.079997999999996,-34.38
1553843732374,4.0678730000000005,2.5882110000000003,8.631361,-0.11480723,0.04430117,0.08236174,-5.52,34.079997999999996,-33.96
1553843732393,4.005622,2.0806248,8.540379,-0.061661962,0.027196944,0.08969212,-5.8799996,34.079997999999996,-34.26
1553843732414,3.8571767999999995,1.802889,8.449396,-0.005462356999999999,-0.0015137241,0.06953357,-6.24,34.559998,-34.44
1553843732433,3.7925312999999994,1.7430321,8.439817999999999,0.05684589599999999,-0.0057897805,0.040212035,-5.7599998,34.68,-33.96
1553843732454,3.6895776,2.0064023,8.447001,0.10938031,0.05040982,0.009668776,-5.94,34.62,-34.02
1553843732474,3.7326744,2.4876516,8.626572999999999,0.08738916,0.12004846,0.012112236,-7.14,34.8,-35.28
1553843732493,3.981679,3.3160705999999998,8.985713,-0.006684086999999999,0.13593096,0.034103386,-6.42,35.34,-38.46
1553843732513,4.252232,4.0367475,9.3280945,-0.094037816,0.0754553,0.06953357,-6.12,35.28,-40.86
1553843732533,4.06069,3.6464806000000003,9.261055,-0.11541810000000001,-0.023504874,0.099465966,-6.72,35.04,-40.32
1553843732553,3.4884584000000003,2.1548474,8.640938,-0.065327145,-0.11146947,0.10862894,-6.18,34.92,-39.48
1553843732573,3.1604427999999998,1.0989721000000001,8.226728,-0.0011863003,-0.110858604,0.053651072,-6.66,35.46,-39.719997
1553843732594,3.0862203,0.76137936,7.879558599999999,0.07761532,-0.08153707,-0.04775256,-7.14,35.579997999999996,-40.26
1553843732613,3.2274826,1.2091087999999999,7.767027400000001,0.14664309,-0.043052558,-0.12716503,-6.48,34.8,-39.42
1553843732633,3.5890178999999995,2.2817439999999998,8.090255,0.14481048,0.07667702400000001,-0.17053647,-6.72,35.28,-39.0
1553843732654,4.295329,3.8045027,8.909097000000001,0.01652879,0.21167825,-0.13205196,-7.14,35.219997,-39.3
1553843732674,4.9346004,5.276982,9.744699,-0.12946801,0.19396316,-0.03981131,-6.96,34.62,-39.12
1553843732693,4.716721499999999,4.6712303,9.773430000000001,-0.15207002,-0.039998233,0.07014443,-7.08,34.26,-39.42
1553843732714,4.0559015,2.8970726000000004,8.971347999999999,-0.101368204,-0.20981877,0.13611788,-7.3199997,34.079997999999996,-39.42
1553843732733,3.2562137000000004,1.3431882,8.236305,-0.066548884,-0.17866464,0.11229414,-6.8999996,34.38,-39.42
1553843732754,3.0910087,0.8356019,8.0711,-0.032951295,-0.089478314,0.056705399999999996,-6.54,34.68,-38.94
1553843732773,3.213117,0.9624985,8.037580499999999,0.024470039,-0.04977208,-0.015987566,-6.8999996,34.92,-38.219997
1553843732794,3.3591676,1.4126221,8.097438,0.10693685,-0.011898434,-0.09173486,-7.5,34.8,-38.7
1553843732813,3.6225379,2.073442,8.2387,0.13686925,0.08584,-0.13754974,-7.3199997,35.16,-39.059998
1553843732834,4.0966043,3.1436827000000003,8.724737,0.097163,0.16464162,-0.12533244,-6.96,35.34,-39.18
1553843732853,4.5443335,4.149278,9.323306,0.010420139,0.12371366,-0.05630467,-6.7799997,34.62,-39.059998
