TimeStamp,Ax,Ay,Az,Gx,Gy,Gz,Mx,My,Mz
1553843473560,2.5906053,6.5220046,11.923489,-0.34693605,0.14203961,0.10190942,6.96,31.08,-37.86
1553843473580,1.9345740000000002,3.5004299,10.008069,-0.18322414,-0.0845914,0.14772432,7.3199997,31.08,-37.26
1553843473600,1.2953026,1.9800651999999999,8.5882635,-0.08976176400000001,-0.19088194,0.10374202,7.74,31.199999,-36.6
1553843473620,0.9074302,0.67279124,7.5252056,0.013474465,-0.11146947,0.05914886,7.74,31.679997999999998,-36.36
1553843473641,1.0391153,0.33519846,7.0966306,0.09838474,-0.050382942,0.004170988,8.04,32.1,-37.8
1553843473660,1.1660118,0.723071,7.613794,0.21933606,-0.01861795,-0.09601091,6.96,32.1,-40.739998
1553843473681,1.2665714,1.6927522000000002,7.920261,0.35800248,0.052853283,-0.15465398,6.18,31.92,-41.94
1553843473700,1.5419129999999999,3.2849449999999996,8.648121000000002,0.39526525,0.18480018,-0.10700648,6.12,31.98,-42.239998
1553843473720,2.2745612,4.843618,10.364816000000001,0.20711875,0.29597765,-0.01904189,6.42,31.8,-41.94
1553843473740,2.9641123,7.1684589999999995,11.810958,-0.20704788,0.18418932,0.054261937999999996,6.8999996,32.04,-41.64
1553843473760,2.6360965,6.9290313999999995,11.696033,-0.3475469,-0.029613525,0.12023538,6.72,32.04,-42.48
1553843473781,1.7430321,3.6871831,10.173274000000001,-0.25530624,-0.20615359,0.17215894,7.259999799999999,31.56,-42.48
1553843473800,1.2953026,2.439766,8.609812,-0.24919759,-0.25135761,0.11046154,7.02,31.98,-41.52
1553843473821,0.8140534,1.333611,8.411087,-0.26996702,-0.13834754,0.0408229,6.8999996,32.16,-41.04
1553843473841,0.7709564999999999,0.67279124,7.6377369999999996,-0.17833722,-0.017396221,-0.02576141,7.44,32.52,-41.34
1553843473860,1.0846065,0.7877164000000001,7.381549400000001,-0.009127548000000001,0.06751405,-0.09356745,6.42,32.94,-41.34
1553843473880,1.0941836,1.1660118,7.5587254,0.1674125,0.041246843,-0.14976706,6.18,32.52,-40.92
1553843473901,1.2809371,2.1548474,8.102226,0.29019642,0.010092715,-0.15648657,6.42,32.52,-41.16
1553843473920,1.7741576000000001,3.9074564,9.399923,0.15763865,0.0009297369400000001,-0.12349985,5.94,32.82,-41.1
1553843473940,2.7318675999999997,6.483696,11.305766,-0.24858673,0.008870985,-0.06913284,5.7599998,32.76,-40.739998
1553843473960,2.6337023,6.718335000000001,12.110242,-0.40802255,0.026586076,-0.0068245865,5.7,32.64,-40.92
1553843473980,2.0662591,3.8763309,10.709591,-0.26202574,-0.048550345,0.043266362999999995,5.64,32.82,-40.98
1553843474001,1.5323358999999999,2.3248408,9.399923,-0.16428733,-0.14689966,0.038379442,6.18,33.66,-40.44
1553843474020,1.0750294,1.0702409,8.016032000000001,-0.04822292,-0.05343727,0.007225314,6.0,33.18,-40.26
1553843474041,1.2929084,0.43096948,7.3863378,0.030578692999999997,0.013757907,-0.0025485298,5.8199997,32.579997999999996,-40.739998
1553843474060,1.446142,0.5794145,7.4797144,0.14114529,-0.042441695999999994,-0.014765833999999999,6.42,33.12,-41.16
1553843474080,1.3096683,1.637684,7.575485700000001,0.22605558,-0.048550345,-0.03614612,6.06,32.88,-40.14
1553843474101,1.5012103,2.8898897,8.600235000000001,0.22788817,-0.019228818,0.017610023,6.6,32.94,-37.86
1553843474120,2.1213273999999998,4.759818599999999,10.458193,0.04523946,-0.03144612,0.090913855,7.02,33.42,-36.12
1553843474140,2.640885,6.261029,11.705608999999999,-0.20338269,-0.054659000000000006,0.11779192,6.72,32.7,-35.399998
1553843474160,2.1548474,5.1596622000000005,11.255486,-0.21987605,0.010092715,0.07869655,7.14,31.859999,-35.579997999999996
1553843474180,1.6137413,2.9569294,9.692024,-0.13679838,0.052853283,0.05548367,7.62,32.579997999999996,-36.18
1553843474200,1.2737542,1.9034485,8.329682,-0.11847243,0.062016264,0.04387723,8.099999,33.36,-36.54
1553843474221,1.2210802,0.80687064,7.549148599999999,-0.06410542,0.023531752000000003,0.036546845,8.04,32.82,-36.239998
1553843474240,1.2354459,0.41181526,7.415069,0.071506664,-0.06809804,-0.008657183,7.68,32.219997,-36.36
1553843474260,1.3934678999999999,0.9481328000000001,7.4246464,0.2431598,-0.113912925,-0.08196101,7.259999799999999,32.399998,-35.88
1553843474281,1.6041641000000002,2.3607549999999997,8.066312,0.24193807,-0.110858604,-0.100286976,7.3799996,32.52,-36.0
1553843474300,2.169213,4.647287400000001,10.156514,0.011641869,-0.050993808,-0.08196101,7.3199997,32.52,-36.6
1553843474321,2.6959534,6.780586200000001,12.079117,-0.29317990000000005,0.08706174,-0.0062137214,6.7799997,32.34,-37.44
1553843474340,2.3775147999999997,5.36557,11.571530000000001,-0.29012555,0.17930238,0.06586838,6.48,32.88,-39.6
1553843474361,1.9872481,3.2993107000000004,10.034406,-0.21621086,0.11088548599999999,0.13978307,5.7599998,33.239998,-40.62
1553843474380,1.6831752,2.2793495999999998,8.92825,-0.15207002,0.031473,0.16849375,5.52,33.239998,-40.26
1553843474401,1.3216397,0.9481328000000001,7.869981299999999,-0.018901393,0.014979636999999999,0.18010017,6.3599997,33.48,-39.84
1553843474420,1.2234744,0.43096948,7.3145093999999995,0.09227608,0.0143687725,0.13550702,6.18,33.899998,-39.6
1553843474440,1.1660118,0.66800267,7.609005499999999,0.24010547,-0.022894006,0.022496943999999998,5.8199997,34.44,-40.98
1553843474460,1.2809371,1.0917894,8.035186,0.39893046,-0.08703486,-0.04286563400000001,6.06,34.26,-40.92
1553843474481,1.3024855,2.1404817000000005,8.281796,0.49850148,-0.110858604,-0.07707409,6.42,33.12,-40.86
1553843474500,1.8531687,4.233078,9.797373,0.26087487,0.023531752000000003,-0.07096544,6.2999997,32.399998,-41.28
1553843474520,2.7270790000000003,6.9912825,11.667301,-0.25897142,0.22389555,-0.07524149,6.54,31.92,-40.62
1553843474541,2.6360965,6.778192,12.251503999999999,-0.4269594,0.1615873,-0.027594006,7.14,32.1,-39.96
1553843474561,2.0854135,3.962525,10.652128,-0.30234286,-0.0406091,0.068922706,6.2999997,32.579997999999996,-40.8
1553843474580,1.4844503,2.430189,9.443019999999999,-0.2156,-0.11208033,0.10740721,5.94,32.46,-40.86
1553843474601,1.1444633,1.0199611,7.850827000000001,-0.13435492,-0.06015679,0.11718106,6.6,32.579997999999996,-40.559998
1553843474620,1.1253091,0.17717634,7.1397276,-0.027453506000000003,-0.013731028999999999,0.068922706,6.6,32.579997999999996,-40.559998
1553843474641,1.1085492000000001,0.09337672,7.0607166,0.14664309,-0.024115737999999998,-0.062413324000000006,6.7799997,32.7,-39.96
1553843474660,1.3024855,0.7326481,7.544359700000001,0.35311553,-0.055269867,-0.13938233,7.14,33.0,-40.98
1553843474680,1.2929084,1.9417567999999998,8.140533999999999,0.49850148,-0.09008919,-0.14915618,6.42,33.3,-40.68
1553843474701,1.664021,3.5411325,9.177256,0.38304794,-0.021061412999999998,-0.11067168,5.7599998,33.239998,-40.92
1553843474720,2.8587642000000004,6.759038,11.581107000000001,-0.11114205,0.18785451,-0.037978712000000005,6.2999997,32.04,-41.16
1553843474740,2.954535,7.869981299999999,12.80937,-0.44467446,0.2055696,0.053040206,6.3599997,31.92,-40.739998
1553843474761,2.5953939999999998,4.903475,11.289005,-0.34693605,-0.012509298500000002,0.19292834,6.18,32.579997999999996,-40.98
1553843474780,1.8627458,2.6863763,9.47654,-0.25103018,-0.15972783,0.21308690000000002,6.24,33.0,-40.68
1553843474801,0.9313729,0.9720755999999999,7.84125,-0.15390262,-0.11452380000000001,0.16177422,6.3599997,33.3,-40.68
1553843474820,0.8140534,-0.117319465,6.883539999999999,-0.07632273,-0.01617449,0.06586838,7.02,33.12,-39.84
1553843474840,0.89545876,-0.2657645,6.8188949999999995,0.031189557000000003,-0.017396221,-0.100286976,6.3599997,32.64,-39.66
1553843474860,1.0870007,0.58420306,7.3001437000000005,0.15763865,-0.03266785,-0.22123829,6.24,33.12,-41.16
1553843474881,1.1947431999999998,2.2386470000000003,8.286585,0.23766202,-0.08153707,-0.25361416,6.54,33.84,-41.7
1553843474900,1.8651401,4.661653,10.252285,0.11976501,-0.06504371,-0.21390789999999998,6.06,33.6,-41.28
1553843474921,2.8252442,6.720729400000001,12.127002000000001,-0.20582616,0.09194866,-0.06424592,5.7,33.18,-41.16
1553843474941,2.4804687999999997,5.5403519999999995,11.825323,-0.17650463,0.16708508,0.0408229,6.0,33.6,-40.5
1553843474961,2.1285102000000005,2.9736892999999998,9.876384,-0.031118697999999997,0.03758165,0.11351587,6.48,33.96,-40.68
1553843474981,1.7119064,1.7957061999999997,8.360807000000001,0.043406863,-0.119410716,0.13428527,5.8799996,33.48,-40.98
1553843475000,1.4078336,0.92658436,7.5850625,0.088610895,-0.17866464,0.11229414,5.7,33.66,-40.98
1553843475021,1.3072741,0.7829279,7.6281595,0.13442577,-0.12918456,0.01150137,6.42,34.079997999999996,-40.379996999999996
1553843475041,1.4652961000000002,1.5778271000000001,8.241094,0.20039923,-0.006400645999999999,-0.086237065,6.18,32.1,-37.739998
1553843475061,1.5850098999999997,2.3224466,9.04557,0.32684833,0.105387695,-0.11922379599999999,6.42,31.08,-33.84
1553843475080,1.6113469999999999,2.8827069,9.251478,0.45329747,0.15059172,-0.10273043,7.44,31.8,-32.1
1553843475100,1.664021,3.6081722000000003,9.091061999999999,0.43680410000000003,0.14020702,-0.030037466000000002,7.8599997,31.92,-32.94
1553843475121,2.126116,4.685596,9.950606,0.15336262,0.13104403,0.05120761,8.16,30.9,-33.78
1553843475140,2.7103189999999997,6.842837299999999,10.865219,-0.25530624,0.06995751,0.068922706,7.5,30.359999,-34.32
1553843475161,2.8300327999999997,6.562707400000001,11.456605,-0.43490064,-0.06626544,0.17338066,6.96,30.48,-34.62
1553843475180,1.8986599999999998,3.2873392,10.43425,-0.30784068,-0.12429764,0.19842613,7.7999997,30.72,-34.32
1553843475201,1.2043202,1.5371244,8.375174000000001,-0.22598471,-0.099252164,0.08602693,8.46,30.48,-34.02
1553843475220,0.6847626,0.50040346,7.333664,-0.14596136,-0.043663427000000005,-0.0049919905,8.7,30.72,-32.7
1553843475241,0.5865973000000001,-0.16759923,6.8165,-0.0042406265000000005,-0.043663427000000005,-0.09356745,9.3,31.56,-31.56
1553843475260,0.8092649000000001,0.32083282,7.2594414,0.20528615,-0.032056987,-0.22368175,8.88,31.56,-31.5
1553843475280,0.9864412,1.6999351000000003,7.6353425999999995,0.33906564,0.004594928,-0.27865959999999995,7.9199996,30.539998999999998,-31.619999
1553843475300,1.5131816999999999,3.6392976999999997,8.751075,0.24071634,0.09011607,-0.22123829,7.98,30.42,-31.74
1553843475321,3.0215747000000004,7.0774764999999995,11.839689,-0.22659558,0.23489113,-0.030037466000000002,8.099999,30.9,-31.8
1553843475341,3.265791,8.090255,13.209214000000001,-0.44345272,0.099889904,0.111072406,8.04,31.679997999999998,-33.719997
1553843475360,2.5092,4.4437739999999994,11.221966,-0.27241045,-0.12002158,0.22224988,7.259999799999999,32.579997999999996,-36.6
1553843475380,1.7621863000000002,2.3056867000000003,9.308941,-0.15756781,-0.1743886,0.20881085,6.8999996,32.34,-36.12
1553843475401,1.1037607,1.0893950000000001,7.7095647,-0.14412877,-0.16217127,0.13672875,7.3799996,32.16,-35.76
1553843475421,0.818842,0.07422252,7.1349387,-0.0732684,-0.10780427599999999,0.0744205,7.56,32.76,-36.059998
1553843475440,0.8475733,-0.04070267,7.065505,0.02324831,-0.036333042999999995,-0.03858958,7.62,32.76,-36.48
1553843475462,1.1277034,0.91700727,7.570697,0.19123626,0.038192517999999995,-0.17359081,7.68,33.36,-36.239998
1553843475480,1.3575538,1.9824595,8.095042999999999,0.2620966,0.051631555,-0.18397550000000001,7.62,33.48,-35.76
1553843475501,2.0494993000000004,4.541939299999999,10.134965,0.09349781,0.092559524,-0.09662178,7.74,32.399998,-35.76
1553843475521,3.050306,7.2953553,12.167705,-0.25041932,0.13287663,0.005392718,7.7999997,31.859999,-36.3
1553843475541,2.928198,6.9003,12.593885,-0.39580524,0.08461828,0.10007682400000001,7.3199997,32.16,-37.92
1553843475560,1.9728824,2.9928436,10.403124,-0.183835,-0.030835256000000002,0.17765673,6.06,33.18,-41.04
1553843475581,1.4269878,1.594587,8.332075999999999,-0.07265753,-0.06931976,0.14955692,6.0,33.3,-40.92
1553843475600,1.0462981,0.17478207,7.242681500000001,-0.0030188959999999996,-0.09008919,0.10190942,6.0,33.18,-40.92
1553843475620,0.9768641,-0.32562137,6.9505796,0.1130455,-0.10658255,-0.0019376645000000001,5.7599998,32.88,-40.32
1553843475640,1.1564348,0.37111259,7.273807000000001,0.2291099,-0.08275881,-0.12533244,5.64,32.64,-39.84
1553843475660,1.2761483999999998,1.5059988000000002,7.7957587,0.2865312,-0.043052558,-0.18092118,6.0,32.88,-39.78
1553843475680,1.8842942999999999,4.182798,9.75667,0.0867783,0.07606616,-0.1314411,6.54,33.78,-40.02
1553843475701,2.8779182,7.041562,12.124608,-0.25225192,0.18174586,-0.02820487,5.94,33.48,-40.86
1553843475720,2.9425638,7.027196400000001,12.768667,-0.37381408,0.1597547,0.07319876,6.18,33.78,-41.34
1553843475740,2.264984,3.921822,11.028029,-0.21315654,0.040635977000000004,0.17643498,6.24,33.78,-40.62
1553843475761,1.7166951000000001,2.1069617000000003,9.026416000000001,-0.07265753,-0.07176323,0.18437624,6.7799997,33.42,-40.32
1553843475780,1.185166,0.7134939,7.6544967,-0.00057543506,-0.12613024,0.16177422,7.14,33.42,-39.96
1553843475801,0.99362403,-0.20830189999999998,6.890722800000001,0.12404107,-0.15117571,0.07869655,6.66,32.94,-40.559998
1553843475820,1.1300976999999999,0.11013664,7.2402869999999995,0.24804673,-0.12735197,-0.045919962,6.8999996,33.059998,-40.68
1553843475841,1.2043202,0.95531565,7.556331,0.38915658,-0.064432845,-0.15831918,6.7799997,33.18,-40.14
1553843475860,1.376708,2.8898897,8.406299,0.36288938,0.049798958,-0.15037791,6.24,33.42,-40.44
1553843475880,2.2554069,5.1357193,10.537204,0.08555657,0.20679133,-0.085015334,6.42,33.6,-40.739998
1553843475901,3.2897336000000004,8.236305,13.017673,-0.40008130000000003,0.26299092,0.0408229,6.06,32.28,-40.98
1553843475921,2.762993,5.834848,12.172493,-0.33960566,0.051020685999999996,0.17765673,6.7799997,32.579997999999996,-41.579997999999996
1553843475940,1.9489397000000002,2.8467927000000004,10.142147999999999,-0.16062213,-0.10108476,0.2289694,6.96,33.12,-41.76
1553843475960,1.3312168,1.5538843999999998,8.353624,-0.05005552,-0.16766907,0.18987402,6.6,33.48,-41.219997
1553843475980,0.8332075999999999,0.12210801,7.2785953999999995,0.03302215,-0.15728436,0.10374202,6.7799997,33.0,-39.96
1553843476001,0.8834874,-0.38547826,6.7303066,0.11426724,-0.12551937,-0.036756985,6.54,33.0,-40.739998
1553843476021,1.0917894,0.15323359,7.185219,0.21444912,-0.06809804,-0.17297994,6.54,33.42,-41.28
1553843476040,1.3072741,1.4174107,7.6736507,0.32257226,0.0027623328000000004,-0.28049222,6.6,33.239998,-41.28
1553843476061,1.6664151999999999,3.4238129,8.691217,0.23644027,0.10355510000000001,-0.24933809,6.6,33.6,-41.76
1553843476081,2.5546912999999996,5.8204823,10.865219,-0.041503407,0.25932574,-0.15648657,6.3599997,33.0,-41.46
1553843476100,3.4238129,7.963358,12.905141,-0.3860314,0.2617692,-0.009268047,5.8199997,32.94,-41.16
1553843476121,2.8013015,5.305713,11.722369,-0.29806679999999997,-0.008844106,0.13978307,5.3399997,32.64,-41.399998
1553843476140,1.8268316999999998,2.6073654,9.629773,-0.12702455,-0.172556,0.18620883,6.18,32.16,-41.399998
1553843476161,1.2426286,1.4868447,8.183631,-0.056775037,-0.18966022,0.15444383,6.72,33.36,-40.559998
1553843476180,0.80687064,0.33759275,7.333664,-0.007294953000000001,-0.13162802,0.08236174,6.48,33.899998,-40.14
1553843476201,0.7589851,-0.0047885496,7.091842,0.067230605,-0.069930635,-0.023317947999999998,6.8399997,33.12,-40.079997999999996
1553843476220,1.0223553,0.44054657,7.5659084000000005,0.18085155,0.0070383893000000005,-0.14121494,7.2,33.059998,-40.079997999999996
1553843476240,1.1995316999999999,1.6257126,8.090255,0.2975268,0.030862134,-0.19863628,6.72,33.42,-40.559998
1553843476260,1.6161355,3.45015,9.153313,0.2236121,0.08034222,-0.16503868,5.64,33.18,-40.2
1553843476280,2.5618742,6.0407553,11.260275,-0.067770615,0.19701749,-0.06913284,5.7599998,32.64,-40.26
1553843476301,3.0838259999999997,7.192401400000001,12.416708999999999,-0.33594045,0.14875913,0.058537994,6.3599997,32.579997999999996,-40.559998
1553843476320,2.6696165,4.786155,11.3344965,-0.26569095,-0.044274293,0.17887844,6.2999997,32.82,-40.739998
1553843476341,1.9369683000000002,2.3990633,9.45978,-0.12580281,-0.17133425,0.20148046,6.24,33.3,-40.44
1553843476360,1.446142,1.3647367,8.116591,-0.055553306,-0.18599503,0.14894605,5.94,33.6,-40.14
1553843476381,1.0798178999999999,0.339987,7.257047,0.0043114866,-0.13834754,0.062203187,6.42,33.18,-40.559998
1553843476401,1.0127783000000001,0.09337672,7.0511394,0.097163,-0.07115236,-0.045919962,6.8999996,33.36,-40.26
1553843476421,1.2474172,0.65363705,7.592245599999999,0.23582943,0.0015406022,-0.15037791,6.48,33.719997,-40.44
1553843476441,1.4341706,1.9273912,8.152505999999999,0.33662218,0.057740204,-0.19130589,6.06,33.54,-40.68
1553843476461,1.9489397000000002,3.9313992999999994,9.498088000000001,0.22972077,0.14998084,-0.14915618,6.2999997,33.36,-40.379996999999996
1553843476480,2.8611584,6.2777886,11.425479,-0.08059879,0.26909959999999994,-0.046530827999999996,6.18,32.94,-41.219997
1553843476500,3.1388943,7.0128307,12.349669,-0.3102841,0.16830681,0.08419433,6.18,32.1,-41.46
1553843476521,2.5953939999999998,4.470111,11.1142235,-0.21437827,-0.043663427000000005,0.20331307,6.54,32.219997,-40.739998
1553843476541,1.7885233,2.2793495999999998,9.332883,-0.081209645,-0.16339302,0.21614124,6.18,33.12,-40.739998
1553843476561,1.2522057,1.2450229,7.932232400000001,-0.03478389,-0.14628878,0.15138951,6.18,33.36,-40.86
1553843476580,0.90024734,0.26097596,7.3647895000000005,0.017139658000000002,-0.09008919,0.06709011,6.7799997,33.719997,-40.86
1553843476600,0.87151605,0.16759923,7.099025,0.09655214,-0.019228818,-0.050806884000000004,6.8999996,33.48,-41.219997
1553843476621,1.1013663999999999,0.8044763,7.6353425999999995,0.22116865,0.03758165,-0.16198435,7.02,33.36,-40.379996999999996
1553843476641,1.2665714,1.6592325,8.085466,0.29080728,0.064459726,-0.19985799999999998,7.56,33.84,-39.78
1553843476660,1.802889,4.0966043,9.560339,0.14725395,0.14265047,-0.16076264,7.44,33.48,-40.8
1553843476681,2.7917243999999997,6.696786400000001,11.6649065,-0.15207002,0.2422215,-0.05263948,6.2999997,33.059998,-41.82
1553843476700,2.8515813,6.593833,12.208407000000001,-0.30234286,0.11027461,0.07747482,6.24,32.7,-42.12
1553843476721,2.2434354,3.7733772000000005,10.594666499999999,-0.18200241,-0.09436524,0.18132192,6.96,32.219997,-41.76
1553843476741,1.6592325,2.2027327999999997,8.930645,-0.08854003,-0.20554271,0.1691046,6.6,32.399998,-41.28
1553843476760,1.1540405,1.1037607,7.903500999999999,-0.050666384,-0.1847733,0.098244235,6.72,33.0,-40.8
1553843476780,0.94573855,0.30886146,7.3671837,0.0043114866,-0.103528224,-0.0013267993,6.8399997,33.059998,-40.62
1553843476801,1.0391153,0.339987,7.2618356,0.0867783,-0.014341895,-0.12472158,6.6,32.88,-41.34
1553843476822,1.2306572,1.0822121999999998,7.8460383,0.23399682,0.043079436,-0.21635136,6.18,32.94,-40.92
1553843476840,1.3910737,2.300898,8.396722,0.30974412,0.060183667,-0.23040126,6.24,33.36,-40.2
1553843476862,1.9465453999999998,4.364763,9.790189999999999,0.17962979999999998,0.11638327,-0.15709744,6.54,33.0,-39.84
1553843476880,2.8276386000000002,6.591439,11.528433,-0.10564425599999999,0.18846536,-0.045309097,5.7,32.579997999999996,-40.62
1553843476900,2.9808722000000003,6.766220599999999,12.004894,-0.29684508,0.09133779,0.08419433,6.0,32.76,-41.879996999999996
1553843476920,2.430189,4.010410299999999,10.652128,-0.20277184,-0.0986413,0.20025873,6.8999996,32.52,-40.559998
1553843476940,1.7454262999999999,2.1644243999999997,9.09585,-0.08548570400000001,-0.18538415,0.18498711,6.54,33.12,-40.379996999999996
1553843476960,1.2067145000000001,1.0127783000000001,7.8316726999999995,-0.02439918,-0.16156043,0.11351587,5.7599998,33.6,-41.16
1553843476981,0.9385556999999999,0.105348095,7.161275999999999,0.031800423,-0.10291736,0.02188608,5.8199997,33.239998,-40.92
1553843477000,0.9768641,0.24421602,7.223527000000001,0.119154155,-0.019228818,-0.08990226,6.54,33.3,-41.46
1553843477020,1.1708003,1.2617828000000002,7.8173075,0.23888375,0.051020685999999996,-0.18764070000000002,6.18,33.36,-41.46
1553843477041,1.4868447,2.978478,8.648121000000002,0.23705114,0.086450875,-0.19008417,6.24,33.54,-40.8
1553843477060,2.2625897,5.3440213,10.479741,0.029967828,0.19029796,-0.10944995,7.14,33.78,-40.32
1553843477081,3.0263633999999997,6.938608,12.091087,-0.24858673,0.19946094,0.02188608,6.96,33.719997,-40.68
1553843477100,2.8108785,5.5307746,11.545193,-0.28035173,0.0125361765,0.1428374,6.42,33.18,-41.76
1553843477120,2.1404817000000005,2.9952377999999995,9.835681,-0.19055451,-0.1585061,0.21125429999999998,6.54,32.94,-41.579997999999996
1553843477140,1.6041641000000002,1.8771113999999998,8.56911,-0.13068973,-0.19271454,0.18865229,7.5,32.579997999999996,-40.559998
1553843477161,1.2067145000000001,0.9624985,7.7742105,-0.07571186,-0.123686776,0.11718106,7.02,32.34,-40.92
1553843477180,0.99362403,0.43336374,7.4102807,-0.0011863003,-0.032056987,0.01150137,6.0,33.059998,-41.28
1553843477201,1.0606636999999999,0.7709564999999999,7.580274,0.10815857,0.054075014000000005,-0.08990226,6.24,32.88,-40.68
1553843477220,1.2761483999999998,1.673598,8.22194,0.23521855,0.070568375,-0.145491,6.0,32.76,-40.92
1553843477241,1.525153,3.1460772,9.021627,0.24071634,0.052853283,-0.13083023,5.4,32.7,-40.68
1553843477260,2.116539,4.8771377000000005,10.403124,0.058678493,0.09561385,-0.07707409,5.4,33.059998,-40.739998
1553843477281,2.6744049,6.119766,11.447028,-0.19360885,0.12004846,-0.00010506882,5.7,32.88,-40.8
1553843477300,2.4876516,4.972909,11.047184,-0.24736498,0.020477425,0.06953357,6.18,32.399998,-40.8
1553843477320,2.0638650000000003,2.9066495999999997,9.840469,-0.17222856,-0.09986303,0.10740721,6.48,33.3,-41.46
1553843477341,1.6161355,1.7933118000000001,8.614600999999999,-0.10503339,-0.15239744,0.08602693,6.8999996,33.54,-40.86
1553843477360,1.3647367,0.91700727,7.7957587,-0.03478389,-0.10780427599999999,0.04509896,6.96,33.48,-40.379996999999996
1553843477381,1.23784,0.66800267,7.573091000000001,0.04157427,-0.04977208,-0.02576141,6.42,33.48,-40.62
1553843477401,1.3455825000000001,1.2737542,7.910684,0.13014974,0.01070358,-0.09417831,6.18,33.239998,-40.5
1553843477420,1.5036045,2.3631492,8.461367999999998,0.1814624,0.04002511,-0.11067168,6.06,33.12,-40.739998
1553843477440,1.977671,4.0798445,9.735122,0.07395013,0.07850962,-0.08379361,6.2999997,33.0,-40.32
1553843477461,2.4804687999999997,5.521198,11.006480999999999,-0.11847243,0.116994135,-0.02453968,6.8999996,32.579997999999996,-40.14
1553843477480,2.4876516,5.2913475,11.231544,-0.24431066,0.057740204,0.04632069,6.66,32.94,-40.98
1553843477501,2.0878077,3.407053,10.202005,-0.2174326,-0.0406091,0.10740721,5.64,33.059998,-40.86
1553843477520,1.7454262999999999,2.22907,9.086273,-0.1734503,-0.11696725,0.12206798,6.0,32.579997999999996,-40.379996999999996
1553843477541,1.5514901,1.4269878,8.341654,-0.13068973,-0.13162802,0.09152472,6.6,33.42,-40.98
1553843477560,1.4605076000000001,0.9720755999999999,7.951386500000001,-0.066548884,-0.10291736,0.04143377,6.12,34.559998,-40.26
1553843477581,1.4772675,1.0870007,8.001666,0.05134811,-0.04549602,-0.023928814,6.2999997,34.5,-39.719997
1553843477600,1.6592325,1.6113469999999999,8.346442,0.18085155,-0.0009028588499999999,-0.058137268,5.94,33.54,-40.26
1553843477620,1.8052831999999999,2.482863,8.945011000000001,0.23827288,0.030862134,-0.04469823,5.16,33.36,-40.379996999999996
1553843477641,2.1572416000000003,3.9337934999999997,9.794978,0.12220848,0.054075014000000005,-0.0074354519999999995,5.8199997,33.48,-40.98
1553843477660,2.47568,5.2147307000000005,10.728745,-0.09648128,0.089505196,0.037768576,5.8199997,32.94,-40.14
1553843477680,2.4014575000000002,4.8220696,10.759871,-0.20032836,0.08034222,0.08969212,5.8799996,33.18,-40.02
1553843477701,1.9824595,3.1125572,9.778217999999999,-0.1716177,0.016812233,0.12512231,6.48,33.0,-40.98
1553843477721,1.5538843999999998,1.9537282,8.834874000000001,-0.12274848,-0.02900266,0.10740721,6.12,32.46,-40.5
1553843477740,1.2689656,1.1348863,8.183631,-0.042725135,-0.0406091,0.05914886,6.18,33.36,-40.559998
1553843477760,1.1827718,0.75659084,7.951386500000001,0.06967407,-0.030835256000000002,0.0029492574,6.48,34.26,-40.68
1553843477781,1.2210802,1.0271438,8.118986,0.23766202,-0.0076223765,-0.047141694000000005,6.12,34.14,-39.96
1553843477800,1.3934678999999999,1.7981004,8.482916000000001,0.36472198,0.027807808,-0.062413324000000006,6.24,33.84,-39.84
1553843477821,1.7693691000000003,2.9665065,9.076694999999999,0.32012883,0.036970787000000005,-0.04408737,6.24,33.48,-40.14
1553843477840,2.4086404,4.7143273,10.235525,0.061732817,0.05957280000000001,-0.028815735,6.0,33.42,-40.14
1553843477860,2.779753,6.0934295999999994,11.236332,-0.21132395,0.064459726,-0.020874487,6.8999996,33.42,-40.14
1553843477880,2.5379312,4.7693954000000005,10.879584,-0.26202574,0.004594928,0.007836179,6.7799997,32.94,-40.98
1553843477900,1.9728824,2.7869357999999997,9.766247,-0.24003461,-0.06504371,0.03227079,5.58,32.76,-41.64
1553843477920,1.6855695,1.8268316999999998,8.648121000000002,-0.21987605,-0.06321111,0.035325114,5.3399997,33.66,-41.399998
1553843477941,1.5107874,0.9888355,7.960963700000001,-0.14412877,-0.043663427000000005,0.028605599,5.94,34.5,-40.86
1553843477960,1.4509305000000001,0.67279124,7.611399700000001,-0.007294953000000001,-0.019839682,-0.012322373999999999,6.2999997,34.2,-40.32
1553843477981,1.4868447,1.0295382,7.898712599999999,0.16924511,0.011314446,-0.06791111,6.6,34.14,-40.44
1553843478000,1.5275473999999998,1.8747171000000002,8.396722,0.3140202,0.028418673,-0.09906524,6.6,34.5,-40.559998
1553843478020,1.6688095,3.1819912999999995,9.124581,0.28714209999999996,0.05468588,-0.078906685,6.18,33.899998,-40.14
1553843478041,2.0973847,4.6568646,10.343266999999999,0.08250224,0.10660942,-0.04775256,6.0,33.48,-40.68
1553843478060,2.3535721,5.6768255,11.164503,-0.1875002,0.11088548599999999,-0.015987566,6.18,33.899998,-41.46
1553843478080,2.1189332000000003,4.520391,10.862824,-0.25530624,0.041246843,0.029827327999999997,7.02,33.84,-40.44
1553843478101,1.7597919999999998,2.875524,9.864412,-0.20399356,-0.07542842,0.06403578,7.08,33.48,-40.379996999999996
1553843478120,1.5012103,1.8148602999999999,8.755863,-0.13313319,-0.11879985,0.06281405,6.6,33.42,-40.86
1553843478140,1.4198049,0.93616146,8.018426,-0.045168597000000005,-0.08764572400000001,0.044488095,6.6,33.6,-40.26
1553843478160,1.376708,0.59378016,7.6353425999999995,0.07333925,-0.047939483,-0.013544105,6.8399997,33.36,-40.14
1553843478180,1.5083932,0.9217958,7.982512,0.20467529,-0.011898434,-0.073408894,6.12,33.3,-40.2
1553843478201,1.7382435,1.8172544999999998,8.61939,0.35678074,0.010092715,-0.105173886,5.7,33.42,-41.1
1553843478220,1.8723229,3.1628369999999997,9.04557,0.37266323,0.030862134,-0.06791111,6.54,33.66,-41.16
1553843478241,2.2362528,4.278569,9.945818,0.23521855,0.10599856,-0.009878913000000001,6.72,33.78,-40.86
1553843478260,2.80609,5.5044379999999995,10.862824,-0.029286101000000002,0.14570479999999997,0.05548367,6.54,33.54,-40.86
1553843478281,2.8084843,5.5978145999999995,11.040001,-0.1978849,0.07484443,0.10740721,6.72,33.36,-40.5
1553843478300,2.351178,3.5004299,10.187639,-0.14535050000000002,-0.02900266,0.16299595,7.02,33.239998,-40.739998
1553843478321,1.6951466,1.8364087,8.937828,-0.03478389,-0.07787188,0.1465026,6.72,33.12,-41.1
1553843478340,1.175589,0.8140534,7.7933645,0.01652879,-0.038165636,0.08419433,6.18,33.18,-41.04
1553843478360,0.84039044,0.40223816,7.4605603,0.08189137,-0.013120163999999998,-0.026983137999999997,6.3599997,33.0,-41.1
1553843478381,0.99362403,1.0870007,7.7502675000000005,0.17657548,-0.0045680506,-0.14976706,6.24,32.52,-40.8
1553843478400,1.2210802,2.4948344,8.272219999999999,0.19673404,0.015590503,-0.19497108,5.58,32.82,-40.739998
1553843478421,1.9010541,4.5898247,9.72315,0.040963400000000004,0.1298223,-0.1613735,5.2799997,32.94,-41.64
1553843478440,2.578634,6.2322974,11.322526,-0.21437827,0.22756074,-0.08379361,5.46,32.219997,-41.879996999999996
1553843478461,2.5882110000000003,5.7199225,11.626598,-0.34143823,0.1334875,0.053651072,6.8399997,32.579997999999996,-41.52
1553843478480,2.0159793,3.5267668,10.491713,-0.25469539999999996,-0.047328617,0.15077864,7.14,33.6,-41.64
1553843478501,1.446142,1.960911,9.134158,-0.14657223,-0.15911695,0.13733962,5.94,33.48,-40.98
1553843478520,1.132492,0.749408,7.85801,-0.03600562,-0.16827993,0.046931557,5.94,33.48,-40.2
1553843478540,1.0941836,0.20590763,7.309721000000001,0.06906319999999999,-0.11879985,-0.059969865,6.66,33.78,-40.2
1553843478561,1.3072741,0.56744313,7.513234,0.16252560000000002,-0.061378515999999994,-0.14426927,6.6,33.54,-40.62
1553843478580,1.472479,1.7143008000000002,8.008849,0.25965318,-0.0009028588499999999,-0.2016906,6.72,33.54,-41.16
1553843478601,1.7358493000000002,3.1819912999999995,8.672064,0.2394946,0.070568375,-0.16931474,6.72,33.66,-40.92
1553843478620,2.466103,5.114171,10.448615,0.0091984095,0.1579221,-0.07401976,6.2999997,33.42,-40.5
1553843478641,3.0096035,6.8332605,11.808563000000001,-0.28218433,0.15914384,0.018220888,6.06,33.12,-40.86
1553843478661,2.5762396,5.1907879999999995,11.253092,-0.30417547,0.04796636,0.10190942,6.24,32.88,-41.1
1553843478680,1.7310607,2.638491,9.80695,-0.19055451,-0.030835256000000002,0.12756577,6.48,32.7,-40.98
1553843478701,1.3407938,1.4605076000000001,8.676852,-0.12335935,-0.07970448,0.086637795,6.18,32.28,-40.44
1553843478720,1.0415094999999999,0.5794145,7.85801,-0.03967081,-0.099252164,0.016388291,6.72,32.82,-39.3
1553843478740,0.9696813,0.33519846,7.398308999999999,0.06417628,-0.083369665,-0.07951755,6.66,33.899998,-39.66
1553843478761,1.1827718,0.818842,7.719142,0.19612317,-0.06015679,-0.15282138,6.0,33.78,-40.079997999999996
1553843478780,1.3383996,2.0327394,8.267431,0.31585276,-0.027170066,-0.17847772,6.06,33.12,-40.62
1553843478801,1.6903580000000002,3.6440864,9.160496,0.24804673,0.036970787000000005,-0.12288898,6.0,32.52,-40.379996999999996
1553843478820,2.473286,5.4086666,10.7479,-0.007294953000000001,0.13593096,-0.049585156,5.8199997,33.12,-40.079997999999996
1553843478841,2.954535,6.402291,11.650541,-0.28340605,0.16219817,0.049375015999999994,5.8799996,33.6,-40.739998
1553843478860,2.5810282000000004,4.4772940000000006,10.939442,-0.27302134,0.061405394,0.13184182,5.58,32.82,-39.96
1553843478880,1.9345740000000002,2.4469488,9.510059,-0.15023743,-0.025337468999999998,0.1691046,5.7,32.52,-40.26
1553843478901,1.5371244,1.4509305000000001,8.356019,-0.08915089,-0.09986303,0.14344826,6.66,32.52,-40.739998
1553843478920,1.2282629999999999,0.9241901,7.881953,-0.07204667,-0.11513466,0.07991828,6.0,33.059998,-39.719997
1553843478940,1.158829,1.1540405,7.92505,-0.025620911,-0.068708904,-0.016598431,5.8799996,33.54,-39.78
1553843478960,1.333611,1.8340145,8.322499,0.040352535,-0.024726603,-0.06546765,6.54,33.66,-40.26
1553843478980,1.498816,2.49244,8.956982,0.11548896,0.027196944,-0.06485678,5.8799996,33.66,-40.559998
1553843479001,1.7430321,3.2633965,9.634561999999999,0.12770627,0.06751405,-0.04286563400000001,6.2999997,33.48,-40.739998
1553843479020,1.8866886000000003,3.7207031,9.957788,0.07517185,0.08584,-0.02453968,6.96,34.559998,-40.559998
1553843479041,1.9752767,3.6201434,9.842864,0.024470039,0.08461828,-0.0013267993,6.48,35.16,-40.98
1553843479060,1.9226026999999999,3.1939626,9.447808,0.014696196000000002,0.04185771,0.02555127,6.24,34.26,-41.04
1553843479081,1.8771113999999998,2.8420042999999997,9.155706,0.022637444,-0.025948334,0.038379442,6.0,33.48,-40.86
1553843479103,1.8172544999999998,2.6720107000000004,9.124581,3.5430185000000004e-05,-0.0845914,0.021275215,6.8999996,32.64,-38.04
1553843479120,1.8100717,2.6169424,9.172467,-0.016457931999999998,-0.06809804,-0.0025485298,7.5,32.64,-36.54
1553843479141,1.7382435,2.3846977000000003,9.091061999999999,0.008587544,-0.008844106,-0.025150542999999997,7.02,32.28,-35.76
1553843479160,1.6281068,2.1500587,8.954588000000001,0.08311310400000001,0.034527324,-0.037978712000000005,6.7799997,32.04,-36.12
1553843479181,1.5012103,2.1213273999999998,8.923461999999999,0.18085155,0.029640405,-0.049585156,7.2,32.579997999999996,-35.88
1553843479200,1.350371,2.2793495999999998,8.605023,0.27309218,0.009481851,-0.05508294,7.56,32.1,-35.7
1553843479220,1.4317763000000001,2.8252442,8.626572999999999,0.22788817,0.034527324,-0.03614612,7.56,31.8,-36.18
1553843479241,2.011191,4.122941,9.569917,0.040352535,0.092559524,-0.009268047,6.72,32.219997,-36.12
1553843479262,2.5092,5.707951,10.735928999999999,-0.2015501,0.084007405,0.015166562,6.72,32.34,-36.36
1553843479280,2.3679377999999995,4.6137676,10.656918,-0.24003461,0.026586076,0.08175088,7.56,32.219997,-36.84
1553843479300,1.9441511999999999,2.5618742,9.785401,-0.15573521,-0.029613525,0.08908126,7.2,32.399998,-37.739998
1553843479320,1.5419129999999999,1.6664151999999999,8.595447,-0.09892473,-0.0845914,0.04632069,6.8399997,32.52,-38.94
1553843479341,1.2569941999999998,1.0965778999999998,7.8747697,-0.019512258,-0.09253265,0.014555697,7.259999799999999,33.48,-40.02
1553843479360,1.1875603000000001,1.1660118,7.731113400000001,0.08800002,-0.050382942,-0.030037466000000002,6.42,33.96,-40.26
1553843479380,1.4245936000000001,2.185973,8.303345,0.12465194,-0.022894006,-0.060580727,5.94,33.42,-40.02
1553843479401,1.7981004,3.7230972999999996,9.344854,0.04585032,0.03513819,-0.042254772,5.8199997,33.48,-40.14
1553843479420,2.1979442000000002,5.0184,10.589877,-0.114196375,0.1334875,0.01150137,5.8199997,33.36,-40.2
1553843479441,2.1500587,4.496448,10.752688000000001,-0.14779396,0.15731123,0.059759725,6.3599997,33.42,-40.379996999999996
1553843479460,1.7981004,2.5810282000000004,9.692024,-0.050666384,0.060794532000000005,0.07686395,6.2999997,33.239998,-39.899998
1553843479480,1.5083932,1.7095122,8.597841,0.030578692999999997,-0.05343727,0.062203187,6.2999997,33.0,-39.48
1553843479501,1.3312168,1.4293821000000002,8.059128999999999,0.10327166,-0.14140187,0.027383868,6.66,33.3,-40.14
1553843479520,1.4317763000000001,2.0231621,8.363202000000001,0.11671069,-0.13895841,-0.009878913000000001,6.24,33.18,-40.379996999999996
1553843479541,1.7550035,3.2107224,9.141341,0.06539801,-0.015563624,-0.033091795,6.0,32.28,-39.96
1553843479561,2.056682,3.7661943,9.893144,0.0037006216999999997,0.11088548599999999,-0.01904189,5.8799996,32.579997999999996,-40.5
1553843479580,2.0782306,3.347196,10.029617,0.020193983000000002,0.116994135,-0.0019376645000000001,5.7599998,33.48,-40.739998
1553843479601,1.8100717,2.6265194,9.4142885,0.088610895,0.027807808,-0.0062137214,6.18,33.36,-40.98
1553843479620,1.5083932,2.264984,8.827691,0.15458433,-0.04121997,-0.026372273999999998,6.72,33.239998,-40.86
1553843479641,1.2737542,2.2793495999999998,8.408693,0.2168926,-0.043663427000000005,-0.034313522,6.54,32.64,-40.739998
1553843479660,1.4078336,2.6289136,8.573898,0.19306885,0.0009297369400000001,-0.029426599999999997,6.3599997,32.52,-41.219997
1553843479680,1.8795058,3.6871831,9.289786,0.07822618,0.060794532000000005,-0.020874487,6.6,32.82,-40.98
1553843479700,2.3416007000000003,4.7981267,10.202005,-0.09709214,0.08034222,-0.003159395,6.06,32.82,-41.04
1553843479720,2.308081,4.314483,10.163696,-0.15207002,0.048577222999999996,0.037768576,5.8199997,32.7,-40.98
1553843479741,1.9728824,3.0000262,9.553157,-0.13557667,-0.0076223765,0.056705399999999996,6.48,32.46,-40.92
1553843479760,1.6233183,2.4014575000000002,8.959375999999999,-0.10625512,-0.07176323,0.035325114,6.72,32.82,-41.16
1553843479781,1.3024855,1.8747171000000002,8.466156,-0.031729564,-0.06809804,0.01150137,6.54,33.12,-41.34
1553843479800,1.2282629999999999,1.7454262999999999,8.286585,0.04768292,-0.03022439,-0.009878913000000001,6.48,32.579997999999996,-40.98
1553843479821,1.3958621999999998,2.291321,8.5331955,0.09288695,-0.0015137241,-0.04286563400000001,6.2999997,32.7,-40.379996999999996
1553843479840,1.6185298000000001,3.213117,9.031203999999999,0.06295455,0.01986656,-0.04897429,6.7799997,33.059998,-40.079997999999996
1553843479861,1.8842942999999999,4.1780095,9.761458,-0.033562157,0.07728789999999999,-0.023317947999999998,6.6,32.82,-40.62
1553843479880,2.0782306,4.4772940000000006,10.175668,-0.13068973,0.10050077,0.01150137,6.06,33.059998,-41.16
1553843479901,2.0183737,3.572258,9.8548355,-0.15512434,0.036970787000000005,0.05181848,5.94,32.88,-40.98
1553843479920,1.802889,2.6863763,9.311335,-0.11541810000000001,-0.04183083,0.061592318,6.3599997,33.18,-41.46
1553843479941,1.5874043,2.1237217999999998,8.722342999999999,-0.063494556,-0.09803043,0.035935983,6.2999997,33.3,-41.34
1553843479960,1.4964218,2.056682,8.514041,-0.045168597000000005,-0.08703486,0.0060035832999999995,6.12,33.36,-40.739998
1553843479981,1.5490957,2.3392065,8.755863,-0.039059944,-0.03266785,-0.025150542999999997,6.72,33.18,-40.5
1553843480000,1.6688095,2.7510218999999996,9.124581,-0.03050783,0.008870985,-0.0434765,6.7799997,32.88,-40.739998
1553843480021,1.733455,2.9114382,9.433442999999999,0.00064629543,0.038192517999999995,-0.041643906,6.0,33.3,-41.7
1553843480040,1.6759924,2.6815877,9.27542,0.055013303,0.030251267999999998,-0.031870063,5.7,33.54,-41.34
1553843480062,1.6568381999999997,2.6600394,9.091061999999999,0.0867783,0.011314446,-0.014765833999999999,5.64,32.76,-40.559998
1553843480081,1.6807808999999998,3.0215747000000004,8.992896,0.07089580000000001,-0.0009028588499999999,-0.0013267993,5.8799996,32.34,-40.92
1553843480100,1.8076775,3.4573328,9.203592,0.007976678000000001,0.009481851,0.023107812000000002,5.8799996,32.64,-40.86
1553843480121,2.1069617000000003,4.0367475,9.7135725,-0.092816085,0.030862134,0.045709822000000004,5.52,32.94,-40.8
1553843480140,2.1740015,3.8787252999999997,9.967366,-0.16856338,0.018644828000000002,0.06403578,6.06,33.3,-41.64
1553843480161,2.0040080000000002,2.8659470000000002,9.665688000000001,-0.16062213,-0.003957185,0.07319876,5.8799996,32.82,-41.28
1553843480180,1.7143008000000002,2.0447106,9.071907000000001,-0.098313875,-0.03511131,0.04509896,5.7599998,32.64,-40.26
1553843480201,1.4557191,1.6448668000000002,8.4781275,-0.012181873999999999,-0.051604677,0.004170988,6.3599997,33.54,-40.739998
1553843480220,1.2833313,1.5490957,8.303345,0.095941275,-0.05588073,-0.034313522,6.7799997,33.66,-41.28
1553843480240,1.2474172,1.9968252,8.38475,0.15702779999999997,-0.029613525,-0.060580727,6.8399997,33.48,-40.86
1553843480261,1.4676905,2.9689007000000003,8.889942,0.11793242,0.014979636999999999,-0.056915537,6.66,33.48,-39.84
1553843480280,2.0040080000000002,4.5706706,9.967366,-0.05433158,0.08278568,-0.02576141,6.24,33.42,-40.02
1553843480301,2.3463893,5.1788163,10.757477,-0.24736498,0.10722029,0.03288165,5.58,33.78,-41.1
1553843480320,2.19555,3.8930907,10.391152,-0.24431066,0.054075014000000005,0.080529146,5.64,33.96,-41.04
1553843480341,1.8627458,2.3583608,9.517242,-0.16734165,-0.0406091,0.081140004,6.42,33.54,-40.86
1553843480360,1.5203645000000001,1.5012103,8.56911,-0.08609657,-0.119410716,0.048764154000000004,6.7799997,33.84,-41.16
1553843480381,1.3048798000000001,1.010384,8.073495,0.007976678000000001,-0.13651493,0.0035601228000000005,6.48,34.26,-40.739998
1553843480401,1.2785428,1.0893950000000001,7.9849067,0.14847568,-0.09375438,-0.06974371,6.3599997,34.14,-40.26
1553843480420,1.376708,1.664021,8.415875999999999,0.25049016,-0.06015679,-0.11861292,6.12,33.899998,-40.14
1553843480441,1.5107874,2.5906053,8.8085375,0.33601132,0.018033965,-0.13021936,6.12,33.719997,-40.739998
1553843480460,1.647261,3.407053,9.150917999999999,0.27431393,0.10355510000000001,-0.09417831,6.06,33.36,-41.16
1553843480481,2.3463893,4.771789599999999,10.269045,0.03302215,0.17075028,-0.02576141,6.6,32.82,-40.079997999999996
1553843480500,2.7941186,6.296942700000001,11.028029,-0.22415212,0.12249192,0.02555127,6.72,32.82,-40.68
1553843480520,2.5235654999999997,4.9537544,10.793391,-0.29379073,-0.00334632,0.11229414,6.2999997,32.76,-41.579997999999996
1553843480540,1.8747171000000002,2.1213273999999998,9.742303999999999,-0.14718309,-0.08398053,0.11779192,6.2999997,32.94,-40.86
1553843480560,1.4365649,0.99362403,8.686428999999999,-0.060440227,-0.16644734,0.062203187,6.18,33.54,-41.04
1553843480580,1.1516461,0.36632404,7.680834,0.031800423,-0.18721674,0.0023383922,6.3599997,32.94,-41.399998
1553843480600,1.0510867,0.47167215,7.431829,0.17229943,-0.1285737,-0.067300245,6.24,32.7,-41.16
1553843480621,1.2593886,1.4078336,7.9011070000000005,0.32623747,-0.047328617,-0.14488013,5.7599998,33.6,-40.86
1553843480640,1.4413534,2.9401696,8.470944,0.34639603,0.06629232,-0.15526484,5.58,33.48,-40.44
1553843480661,1.9728824,4.6065845,9.701602000000001,0.15519520000000003,0.21351086,-0.09601091,5.46,33.3,-40.68
1553843480680,2.7558103,6.452570400000001,11.176475,-0.18444587,0.28681466,0.007225314,5.7,33.78,-41.16
1553843480700,2.803696,6.2873654000000005,11.403931,-0.365262,0.15425691,0.10679635,6.12,33.78,-41.1
1553843480722,2.1069617000000003,3.3208592000000006,9.914692,-0.24308895,-0.014341895,0.199037,6.48,33.12,-41.1
1553843480740,1.4916332,1.6400781999999998,8.959375999999999,-0.13252233,-0.11757812,0.15810902,6.3599997,33.239998,-41.46
1553843480760,1.2138973,0.8379962,8.303345,-0.062272824000000004,-0.18232983,0.09030299,6.06,33.239998,-41.34
1553843480780,1.0079896000000002,0.4189981,7.6281595,0.027524367,-0.1743886,0.007836179,6.54,33.3,-40.14
1553843480800,1.0606636999999999,0.679974,7.556331,0.1588604,-0.08092621,-0.07951755,6.42,33.42,-39.84
1553843480821,1.2881198,1.5347302,8.066312,0.3030246,0.018644828000000002,-0.15404311,6.0,33.78,-40.079997999999996
1553843480840,1.5227587,2.9736892999999998,8.729526,0.31035498,0.10722029,-0.14610186,6.2999997,34.079997999999996,-39.96
1553843480861,2.1021732999999996,4.642499,10.067925,0.11976501,0.20495872,-0.08806966,6.48,33.12,-40.92
1553843480880,2.779753,6.5220046,11.358439,-0.20949134,0.24710843,0.012112236,6.24,33.059998,-41.34
1553843480900,2.6696165,5.8779445,11.312948,-0.30784068,0.11088548599999999,0.12328971,6.12,33.36,-41.219997
1553843480920,2.0710478,3.2155110000000002,9.955395,-0.17894809,-0.054048132,0.18010017,6.54,32.94,-40.8
1553843480940,1.4533247999999999,1.5850098999999997,8.827691,-0.092816085,-0.19088194,0.12573317,6.6,33.12,-40.26
1553843480960,1.2402343999999998,0.86193895,8.080677,-0.061051093,-0.23303165,0.05242934,6.12,33.12,-39.899998
1553843480980,1.0319325000000001,0.5243462,7.563514,0.014085331000000001,-0.16950166,-0.03614612,6.12,33.42,-40.02
1553843481001,1.0870007,0.92658436,7.57788,0.13625838,-0.03022439,-0.12472158,6.12,33.18,-40.2
1553843481020,1.3431882,1.8555629,8.305738999999999,0.26331836,0.062016264,-0.17786685,5.7599998,33.239998,-40.5
1553843481041,1.5874043,3.2993107000000004,9.091061999999999,0.32135054,0.13226576,-0.1577083,6.06,34.02,-40.68
1553843481061,1.8531687,4.3863115,9.75667,0.21811432,0.19701749,-0.09295659,6.42,33.3,-40.86
1553843481080,2.2769554,5.183605,10.530021000000001,0.029356962,0.23244767,-0.015987566,6.2999997,32.88,-41.879996999999996
1553843481100,2.5882110000000003,5.6361227,10.824516000000001,-0.16184385,0.098057315,0.08419433,6.24,32.82,-41.399998
1553843481120,2.2697724999999997,4.070266999999999,10.027223,-0.13252233,-0.043052558,0.15077864,6.48,32.399998,-40.8
1553843481141,1.7693691000000003,2.2170985,9.27542,-0.05249898,-0.1444562,0.10679635,5.8799996,32.64,-41.28
1553843481160,1.4605076000000001,1.4820561,8.717555,-0.05921849999999999,-0.19637974,0.04387723,5.46,32.82,-41.46
1553843481180,1.2306572,1.0726352,8.128563,-0.022566582999999998,-0.15056485,-0.016598431,6.12,32.7,-40.92
1553843481200,1.1923488000000002,1.1444633,7.8101244,0.07761532,-0.032056987,-0.07646323,6.72,32.94,-39.96
1553843481220,1.3527653,1.8819,8.317711,0.22116865,0.040635977000000004,-0.12288898,6.18,32.82,-41.28
1553843481240,1.5059988000000002,2.7749646,8.727132000000001,0.3415091,0.07301183,-0.13754974,5.7599998,32.7,-42.719997
1553843481261,1.7262721,3.9266107000000003,9.270632,0.24010547,0.15181345,-0.09601091,5.8199997,32.76,-42.3
1553843481281,2.248224,5.0806512999999995,10.233130000000001,-0.0042406265000000005,0.21717604,-0.02576141,5.8799996,32.52,-42.0
1553843481300,2.6839821,6.1772290000000005,10.953807000000001,-0.26752356,0.15181345,0.090913855,6.54,32.399998,-41.28
1553843481320,2.6073654,5.427821,10.750294,-0.29623422,0.029029539,0.21003258,6.48,32.64,-41.04
1553843481341,1.9752767,2.7270790000000003,9.613013,-0.16062213,-0.1267411,0.23202373,6.66,32.28,-41.34
1553843481361,1.4605076000000001,1.5874043,8.693612,-0.1398527,-0.23730771,0.14711344,7.14,31.8,-41.1
1553843481380,1.158829,1.1803774999999999,7.9585695,-0.13924184,-0.21226224,0.063424915,7.14,32.88,-40.92
1553843481401,0.9385556999999999,0.98404694,7.6042166,-0.056775037,-0.10413908,-0.023928814,6.72,33.36,-41.28
1553843481420,0.94573855,1.0558752,7.6185822,0.119154155,0.013757907,-0.11861292,6.7799997,33.42,-41.16
1553843481440,1.1205206,1.8100717,8.068706500000001,0.27125959999999993,0.08767260000000002,-0.18397550000000001,6.3599997,33.66,-40.2
1553843481460,1.324034,3.0048149,8.796566,0.26454008,0.14020702,-0.17053647,5.8799996,33.239998,-40.8
1553843481480,1.8507744,4.292935,9.835681,0.061121956,0.19701749,-0.09601091,6.2999997,32.579997999999996,-41.64
1553843481501,2.719896,6.754249000000001,11.408719,-0.26935613,0.23061506,0.024940407,6.66,32.88,-41.52
1553843481520,2.6935592,5.8947043,11.356046000000001,-0.3072298,0.09866817,0.2008696,6.7799997,32.94,-40.8
1553843481540,2.0854135,3.0119977000000002,9.818921000000001,-0.10992031,-0.048550345,0.22469334,6.48,32.399998,-41.1
1553843481561,1.446142,1.3383996,8.696006,-0.06471629,-0.25380108,0.11046154,6.66,32.76,-41.82
1553843481580,1.1684061000000001,0.8356019,7.927444,-0.1135855,-0.2922856,0.015166562,6.8399997,32.76,-41.219997
1553843481600,0.9984126,0.7134939,7.678439,-0.07876619,-0.15606263,-0.08379361,6.66,33.0,-40.8
1553843481621,1.1037607,1.1612233,7.881953,0.04768292,-0.024726603,-0.15404311,6.12,33.719997,-40.62
1553843481641,1.3216397,1.9321798,8.449396,0.20895134,0.055907607000000005,-0.19191676,6.06,33.899998,-39.96
1553843481660,1.4581133,2.9473522,8.839663,0.2761465,0.09194866,-0.16015176,5.94,33.48,-40.559998
1553843481680,1.9537282,4.328849,9.8787775,0.13442577,0.14692652,-0.07463063,4.92,33.3,-41.219997
1553843481701,2.667222,5.8252707,10.829305,-0.13313319,0.16464162,0.01944262,5.1,32.94,-41.46
1553843481721,2.6911650000000003,5.751048,10.932259,-0.25347364,0.10966375,0.11473759,6.0,32.04,-40.92
1553843481740,2.308081,3.8667538,10.10384,-0.15084828,0.04002511,0.167272,6.7799997,32.28,-39.84
1553843481760,1.6592325,1.8842942999999999,9.040782,-0.07204667,-0.14812139,0.10435289,7.02,33.78,-40.32
1553843481780,1.3383996,1.2833313,8.336864,-0.10258993,-0.23242079,0.026773002,6.66,33.78,-40.32
1553843481800,1.1444633,1.0750294,7.920261,-0.08304224,-0.16889079999999998,-0.04469823,6.66,33.3,-40.559998
1553843481820,1.1420691,1.3862851,7.944203999999999,0.014085331000000001,-0.044274293,-0.09601091,6.0,33.18,-40.92
1553843481841,1.403045,2.116539,8.480521000000001,0.15519520000000003,0.047355495,-0.12166725,5.3399997,33.18,-40.379996999999996
1553843481860,1.5538843999999998,2.9593236000000003,8.992896,0.1851276,0.07179011,-0.1015087,5.8199997,33.239998,-40.26
1553843481880,1.9154198,4.2618093,9.771035000000001,0.05012638,0.11516154,-0.050196017999999995,6.24,32.94,-40.8
1553843481900,2.3727264,5.4326096,10.635368,-0.18200241,0.13959615,0.021275215,5.4,32.76,-40.92
1553843481920,2.432583,5.2650104,10.795785,-0.28279516,0.10783115,0.10068769999999999,5.58,32.88,-40.92
1553843481940,2.0830189999999997,3.1053743,9.893144,-0.1716177,0.013757907,0.1587199,6.48,32.76,-40.44
1553843481961,1.6712039,1.8172544999999998,9.055147,-0.09098349,-0.10291736,0.13245268,6.66,32.82,-39.84
1553843481980,1.472479,1.211503,8.344047999999999,-0.05616417,-0.18232983,0.06647924,5.58,32.88,-39.84
1553843482001,1.2450229,1.0008069,7.9346266000000005,0.01652879,-0.16278215,-0.0049919905,5.4,32.399998,-40.68
1553843482020,1.2665714,1.2258687,7.92505,0.15275174,-0.07298495599999999,-0.06974371,6.2999997,32.52,-41.34
1553843482041,1.4078336,1.8483802,8.444607000000001,0.27736825,0.008870985,-0.11616947,6.06,33.059998,-40.5
1553843482060,1.5347302,2.7677817000000005,8.8085375,0.30852237,0.093781255,-0.11433687,6.0,33.48,-40.68
1553843482081,1.9106313000000001,4.0726614,9.598647999999999,0.1588604,0.16708508,-0.066078514,6.0,33.54,-42.0
1553843482100,2.5092,5.5523233,10.606637,-0.09770301,0.18357845,-0.0007159340299999999,6.18,33.12,-41.76
1553843482121,2.7653873,6.098218,11.099858,-0.30478632,0.11516154,0.09213558,6.06,32.46,-41.7
1553843482140,2.2506182,3.7446458,10.206794,-0.22720644,0.016201368,0.17399153,6.48,32.76,-41.16
1553843482161,1.6855695,1.908237,9.265842999999998,-0.14901568,-0.07848274,0.15444383,6.8999996,33.0,-40.44
1553843482180,1.376708,1.0893950000000001,8.454185,-0.11663983,-0.17805378,0.09213558,6.3599997,33.18,-41.16
1553843482200,0.94095,0.66800267,7.7957587,-0.037838212999999996,-0.17744292,-0.003159395,6.42,33.42,-41.28
1553843482220,0.9768641,0.82123625,7.6042166,0.11121291,-0.08153707,-0.071576305,6.96,33.42,-40.5
1553843482241,1.1684061000000001,1.4413534,8.193209,0.28164429999999996,-0.012509298500000002,-0.12777591,6.54,33.36,-40.2
1553843482260,1.3144568,2.4780743,8.612206,0.36655456,0.05346415,-0.13021936,5.7599998,33.12,-41.1
1553843482281,1.6951466,3.9002736000000002,9.423865,0.22666644,0.15364604,-0.085015334,5.4,32.64,-42.18
1553843482300,2.5522968999999995,5.7103453,10.755082000000002,-0.0732684,0.1933523,-0.0068245865,5.1,31.92,-41.82
1553843482321,2.8803127,6.2322974,11.183658,-0.2840169,0.123102784,0.068922706,5.7,32.16,-41.1
1553843482340,2.5570855,4.245049,10.319324499999999,-0.23453683,0.00826012,0.15994161,6.2999997,32.94,-41.219997
1553843482361,1.9848539,2.343995,9.299363,-0.14046358,-0.07848274,0.1587199,6.8399997,33.54,-40.44
1553843482380,1.5036045,1.376708,8.686428999999999,-0.11602897,-0.15667349,0.111072406,6.66,33.42,-40.26
1553843482401,1.0822121999999998,0.83081335,8.075889,-0.0732684,-0.16766907,0.0011166617,5.94,33.3,-40.92
1553843482421,0.9505271000000001,0.8643332,7.8125186,0.007976678000000001,-0.110858604,-0.07646323,6.06,33.6,-40.739998
1553843482440,1.0726352,1.3455825000000001,8.087860000000001,0.15336262,-0.04549602,-0.12533244,6.0,33.48,-40.98
1553843482460,1.2091087999999999,2.2099156000000004,8.55235,0.26576182,0.011925311000000001,-0.13632801,6.12,33.059998,-40.739998
1553843482481,1.5419129999999999,3.4118416,9.14613,0.25415537,0.12127019,-0.10456303,6.3599997,33.36,-40.68
1553843482500,2.185973,4.644893,10.168485,0.07211753,0.17258286,-0.04408737,6.42,33.78,-40.559998
1553843482522,2.9210152999999996,5.9449844,11.020847,-0.20643702,0.13776354,0.057316266,5.7599998,32.94,-40.14
1553843482541,2.779753,4.946572,10.642551,-0.2559171,0.02108829,0.15933077,5.7599998,32.34,-40.739998
1553843482560,2.2745612,2.8443985,9.474146000000001,-0.15451348,-0.046106886,0.18865229,6.8399997,33.18,-40.2
1553843482581,1.6233183,1.6903580000000002,8.655303,-0.0873183,-0.08642399,0.12878749,6.96,33.18,-39.78
1553843482600,1.3192455,1.0295382,8.157294,-0.06471629,-0.12429764,0.034103386,7.14,33.059998,-40.26
1553843482621,1.0893950000000001,0.94095,7.9370210000000005,-0.012181873999999999,-0.104749955,-0.05630467,7.56,33.239998,-40.62
1553843482640,1.1492518999999999,1.2426286,8.130958,0.09105435,-0.050993808,-0.12472158,6.96,32.76,-40.8
1553843482660,1.2929084,1.9154198,8.6433325,0.19673404,0.013757907,-0.15954089,6.72,33.059998,-40.079997999999996
1553843482680,1.3886794,3.014392,9.14613,0.27431393,0.09622472,-0.13754974,7.02,33.18,-40.14
1553843482700,1.7214836,3.7685885000000003,9.596252999999999,0.1991775,0.13837442,-0.077684954,6.3599997,33.059998,-40.86
1553843482721,2.4445546,5.1189594000000005,10.532414,-0.04822292,0.13287663,0.015166562,6.0,32.64,-40.98
1553843482740,2.7175019,5.672037,10.836488000000001,-0.22537383,0.06629232,0.08785953,6.0,32.94,-40.92
1553843482761,2.3535721,4.02717,10.139753,-0.20216097,0.008870985,0.17032634,6.12,33.42,-40.92
1553843482780,1.8866886000000003,2.300898,9.306546,-0.09464868,-0.008844106,0.15994161,6.18,33.48,-40.92
1553843482801,1.376708,1.2809371,8.435030000000001,-0.057385902999999995,-0.09131091,0.062203187,5.8199997,33.0,-40.739998
1553843482820,1.1875603000000001,0.9122186999999999,7.920261,-0.053109847,-0.14384532,-0.026372273999999998,6.06,33.059998,-40.14
1553843482840,1.0510867,1.1181264,7.7957587,0.021415714,-0.118188985,-0.11433687,6.3599997,34.02,-40.32
1553843482860,1.2138973,1.9441511999999999,8.219545,0.11182377,-0.050993808,-0.17542339999999998,6.3599997,34.079997999999996,-40.98
1553843482880,1.4293821000000002,2.9665065,8.815719999999999,0.13137145,0.04674463,-0.17236906,7.08,33.6,-39.66
1553843482900,1.908237,4.276175,9.907509,0.044628594,0.1530352,-0.09845438,6.8399997,33.059998,-39.96
1553843482921,2.3248408,5.0040345,10.7048025,-0.104422525,0.17258286,-0.0037702604,5.8799996,33.059998,-41.579997999999996
1553843482940,2.310475,4.146884,10.494106,-0.12213762,0.098057315,0.067700975,5.64,33.12,-40.98
1553843482961,2.0231621,2.4972286,9.45978,-0.01157101,-0.013120163999999998,0.09641164,5.7,32.399998,-40.92
1553843482980,1.7286664,1.6712039,8.676852,0.09044349,-0.10902601,0.062203187,6.2999997,32.28,-40.8
1553843483001,1.5299416000000001,1.4700848,8.332075999999999,0.12526279999999998,-0.140791,0.010890506000000001,6.06,33.36,-40.86
1553843483020,1.5131816999999999,1.9130256,8.523619,0.13625838,-0.100473896,-0.033702657000000004,5.16,33.899998,-41.219997
1553843483041,1.6089526,2.638491,8.954588000000001,0.14908655,0.034527324,-0.059969865,5.7,33.239998,-40.86
1553843483060,1.6616267,2.9832664,9.134158,0.1710777,0.12737885,-0.052028615,6.48,32.94,-41.04
1553843483081,1.7143008000000002,3.3519847,9.349642999999999,0.15824953,0.13532008,-0.012933239,6.8999996,33.42,-40.68
1553843483100,1.8531687,4.022382,9.486116,0.05012638,0.10050077,0.02066435,5.94,32.579997999999996,-40.8
1553843483120,2.1787900000000002,5.0638914,9.976942999999999,-0.15084828,0.09133779,0.062203187,5.16,31.5,-41.94
1553843483141,2.2099156000000004,4.3168774,10.096657,-0.22659558,0.05835107,0.115348466,5.94,32.579997999999996,-41.94
1553843483160,1.9656997,2.9329867000000003,9.682447,-0.20216097,0.0009297369400000001,0.10923981,5.8199997,33.0,-41.52
1553843483180,1.5778271000000001,1.9154198,9.052753,-0.15268087,-0.08092621,0.053040206,5.94,32.219997,-41.1
1553843483200,1.3431882,1.4581133,8.406299,-0.07632273,-0.11574552,-0.0025485298,6.48,32.52,-41.34
1553843483220,1.1348863,1.1779832000000001,8.001666,0.057456765,-0.09558698,-0.062413324000000006,6.8399997,33.0,-41.579997999999996
1553843483241,1.1157321000000002,1.6233183,8.039975,0.14664309,-0.03572218,-0.11189341,6.72,33.239998,-40.86
1553843483260,1.2929084,2.6097596000000003,8.61939,0.13137145,0.024753481,-0.10456303,6.18,33.6,-40.5
1553843483280,1.8890828000000002,4.4461684,9.828498,-0.04455773,0.12921144,-0.04469823,5.46,33.18,-40.86
1553843483300,2.3583608,5.643306,10.913105,-0.23270422,0.18602191,0.03349252,6.06,33.239998,-41.1
1553843483321,2.3535721,4.642499,10.793391,-0.25103018,0.1334875,0.12573317,6.7799997,33.48,-41.219997
1553843483340,1.9561224999999998,2.6935592,9.682447,-0.13374406,0.006427524,0.14344826,6.54,33.36,-40.98
1553843483361,1.5658557,1.6281068,8.724737,-0.053109847,-0.13162802,0.08602693,6.6,33.6,-40.44
1553843483380,1.1229149,0.9720755999999999,8.068706500000001,0.02324831,-0.17499945,0.0011166617,6.66,33.84,-40.92
1553843483401,0.9816527,0.8930645,7.85801,0.1270954,-0.12002158,-0.09173486,6.18,33.6,-40.559998
1553843483420,1.132492,1.3527653,8.255460000000001,0.21628173,-0.047328617,-0.13877149,6.0,33.36,-40.379996999999996
1553843483440,1.2617828000000002,2.2434354,8.803747999999999,0.3170745,0.02231002,-0.15343225,6.24,33.54,-40.98
1553843483460,1.5059988000000002,3.1867797,9.189227,0.33417872,0.11210721,-0.1173912,5.4,33.84,-40.98
1553843483480,1.9465453999999998,4.0367475,9.840469,0.21078393,0.1615873,-0.059969865,5.3399997,33.3,-41.16
1553843483501,2.47568,5.276982,10.482135000000001,-0.01401447,0.13837442,-0.00010506882,6.0,32.94,-40.98
1553843483520,2.5187771,5.5164089999999995,10.503684,-0.15756781,0.056518473,0.057316266,6.8999996,32.88,-40.8
1553843483541,2.0830189999999997,3.4046587999999995,9.701602000000001,-0.09525955,-0.011287568000000001,0.098244235,7.08,32.82,-41.16
1553843483560,1.647261,1.8340145,8.91628,-0.016457931999999998,-0.11452380000000001,0.035935983,6.3599997,33.12,-41.34
1553843483581,1.4150163999999998,1.5131816999999999,8.233911500000001,-0.014625336000000001,-0.20309927,-0.033091795,6.48,32.88,-41.399998
1553843483600,1.2450229,1.5921928,7.977723599999999,-0.0011863003,-0.15972783,-0.08440447599999999,6.96,32.1,-40.379996999999996
1553843483621,1.3719195,2.4086404,8.399116000000001,0.022637444,-0.018007086999999998,-0.119834654,6.42,32.34,-40.02
1553843483640,1.6305011999999999,3.4429672,9.143736,0.008587544,0.08461828,-0.105173886,5.46,33.12,-41.16
1553843483660,1.812466,4.0942099999999995,9.840469,-0.022566582999999998,0.13776354,-0.041643906,5.8199997,32.82,-41.46
1553843483680,1.8172544999999998,3.8691480000000005,10.027223,-0.010960144,0.11821587,0.026773002,6.2999997,32.88,-41.579997999999996
1553843483700,1.6999351000000003,3.1700199000000002,9.610619999999999,0.026913501,0.051020685999999996,0.067700975,6.06,32.88,-41.28
1553843483721,1.6089526,2.5020173,9.000079,0.08189137,-0.02778093,0.07991828,6.06,32.82,-40.92
1553843483740,1.5610671999999999,2.3463893,8.715160000000001,0.10999117,-0.044274293,0.049375015999999994,6.54,33.0,-41.04
1553843483760,1.6017698,2.631308,8.834874000000001,0.08128051,-0.019228818,0.012723101,6.48,32.34,-41.28
1553843483781,1.8675343999999998,3.4597269999999996,9.277814999999999,-0.01157101,0.010092715,-0.0019376645000000001,6.12,32.28,-41.64
1553843483801,2.0494993000000004,3.9792848,9.711179,-0.114196375,0.029640405,0.00905791,6.0,32.64,-41.7
1553843483820,1.9920366000000003,3.7446458,9.766247,-0.1716177,0.027196944,0.030438194,6.42,32.399998,-40.86
1553843483840,1.7837347,3.0766432,9.483723,-0.15756781,-0.0076223765,0.038990308,7.14,31.98,-40.2
1553843483861,1.5012103,2.5810282000000004,9.122187,-0.117250696,-0.069930635,0.014555697,6.54,32.64,-40.5
1553843483881,1.2617828000000002,2.2985039,8.6433325,-0.07204667,-0.091921784,-0.016598431,6.2999997,33.0,-40.98
1553843483900,1.2474172,2.3128695,8.420665,-0.065327145,-0.06687631,-0.039200444,6.12,32.579997999999996,-40.44
1553843483920,1.5323358999999999,2.8013015,8.8324795,-0.10992031,-0.043663427000000005,-0.056915537,6.0,32.82,-39.96
1553843483940,1.8052831999999999,3.4118416,9.395133999999999,-0.15451348,-0.022283142000000002,-0.050196017999999995,6.48,33.18,-40.8
1553843483960,1.960911,3.4716985,9.727939,-0.13863099,0.0143687725,-0.012933239,6.8399997,33.18,-41.28
1553843483980,1.8771113999999998,2.8252442,9.522031,-0.063494556,0.023531752000000003,0.022496943999999998,6.18,33.36,-40.98
1553843484000,1.6783867,2.2506182,9.052753,-0.006073222,0.0125361765,0.02555127,5.04,33.6,-40.62
1553843484021,1.4317763000000001,1.9992193999999999,8.593052,0.039130807000000004,0.008870985,0.005392718,6.06,33.899998,-40.26
1553843484040,1.3695252,2.300898,8.655303,0.04218513,0.0033731977000000003,-0.0007159340299999999,6.18,33.66,-40.32
1553843484060,1.6113469999999999,3.2993107000000004,9.249083500000001,-0.017679663,0.00031887164,0.0011166617,5.7,33.0,-40.92
1553843484081,1.8627458,4.0199876,9.984126,-0.11114205,-0.00029199357999999995,0.024940407,5.8199997,33.899998,-40.98
1553843484100,1.9680939,3.5363437999999996,10.101445,-0.10992031,0.0143687725,0.06037059,5.8799996,33.78,-40.559998
1553843484121,1.9944308999999998,2.6241252,9.615408,-0.067770615,-0.03511131,0.07686395,6.72,32.7,-39.84
1553843484140,1.8507744,1.9034485,8.803747999999999,-0.01157101,-0.08275881,0.05609453,6.8399997,33.239998,-40.14
1553843484161,1.6712039,1.6352897,8.291373,0.06906319999999999,-0.07787188,0.023107812000000002,6.48,33.84,-40.62
1553843484180,1.5850098999999997,1.8603516,8.296163,0.14419962,-0.050993808,-0.009878913000000001,6.0,33.48,-40.62
1553843484200,1.6424724999999998,2.5115943,8.777411,0.17229943,0.024142615,-0.022096219,5.7599998,32.82,-40.62
1553843484220,1.8076775,3.2969165,9.426260000000001,0.13442577,0.089505196,0.004170988,5.8799996,32.88,-40.5
1553843484240,2.0351336,3.9936504,10.072714,0.06600887,0.11393981,0.042044632,6.2999997,33.78,-40.379996999999996
1553843484260,2.030345,3.7350687999999996,9.876384,0.025080906,0.08522914,0.081140004,5.8799996,33.42,-40.739998
1553843484281,1.8196488999999998,3.1317115,9.296969,-0.0024080307,0.036970787000000005,0.09641164,5.2799997,32.88,-40.86
1553843484301,1.6999351000000003,2.918621,8.968952999999999,-0.05494244,-0.00334632,0.0988551,6.24,33.3,-41.16
1553843484320,1.7502148999999998,3.1317115,9.191621000000001,-0.13802011,-0.026559198,0.090913855,6.96,33.0,-40.739998
1553843484340,1.7717633000000002,3.0814316,9.443019999999999,-0.16428733,-0.011898434,0.08236174,7.56,32.7,-38.46
1553843484360,1.7095122,2.7079248,9.433442999999999,-0.13802011,0.0009297369400000001,0.07197703,7.08,33.42,-39.059998
1553843484381,1.5395187,2.1835787,9.091061999999999,-0.08243138,-0.022894006,0.037768576,6.2999997,33.96,-40.68
1553843484400,1.3551594999999999,1.8890828000000002,8.712766,-0.025010044,-0.047328617,-0.0049919905,6.6,33.66,-40.559998
1553843484420,1.2833313,1.8603516,8.499676,0.047072057,-0.047939483,-0.04286563400000001,6.54,33.78,-40.8
1553843484440,1.3312168,2.1931557999999995,8.499676,0.08800002,-0.024726603,-0.062413324000000006,6.72,34.2,-40.44
1553843484460,1.6975409,3.3160705999999998,9.093455,0.012252735,0.018033965,-0.04775256,6.8999996,33.96,-39.899998
1553843484481,2.2530127,4.7454529999999995,10.225947,-0.1716177,0.060183667,-0.0025485298,6.48,33.54,-40.02
1553843484501,2.3368123,4.4222255,10.561146,-0.26080403,0.07117924,0.057316266,6.48,33.3,-40.26
1553843484521,2.152453,2.8108785,9.859624,-0.19116539,0.043079436,0.083583474,6.6,33.54,-40.26
1553843484540,1.838803,1.7981004,9.028810499999999,-0.101368204,-0.029613525,0.05609453,6.96,33.84,-40.079997999999996
1553843484560,1.4629020000000001,1.1181264,8.269825,-0.01279274,-0.07909361,0.009668776,6.96,33.84,-39.84
1553843484581,1.1133378,0.92658436,8.016032000000001,0.12526279999999998,-0.10413908,-0.058137268,6.54,34.38,-39.719997
1553843484600,1.2210802,1.4509305000000001,8.406299,0.23094249,-0.104749955,-0.10273043,6.42,34.079997999999996,-40.26
1553843484621,1.4820561,2.6193366,9.004868,0.22300126,-0.04549602,-0.08990226,6.12,33.899998,-40.14
1553843484640,1.9680939,3.8236567999999997,9.876384,0.09410868,0.06629232,-0.040422175,5.8799996,33.96,-40.68
1553843484661,2.6169424,5.236279,10.846065,-0.13679838,0.16891769,0.03349252,6.06,33.54,-40.98
1553843484681,2.6217308,4.829252200000001,10.836488000000001,-0.19849578,0.12921144,0.080529146,6.66,33.719997,-40.98
1553843484701,2.1117504,2.7558103,9.754275,-0.12580281,-0.03572218,0.13306355,7.2,33.96,-40.92
1553843484720,1.6759924,1.6879636999999998,8.834874000000001,-0.05860763,-0.11330206,0.08297260000000001,7.3199997,33.96,-41.04
1553843484741,1.2665714,0.9912298,8.087860000000001,0.02324831,-0.14812139,0.0017275269,6.6,33.84,-40.86
1553843484760,1.1779832000000001,0.90024734,7.8053360000000005,0.10327166,-0.13040629,-0.057526402000000004,6.7799997,33.899998,-39.48
1553843484780,1.3479767,1.4796618000000001,8.195602000000001,0.19795576,-0.07054149,-0.11616947,6.7799997,33.899998,-39.12
1553843484800,1.5323358999999999,2.52596,8.73192,0.24560326,0.01070358,-0.13754974,6.54,33.6,-39.3
1553843484820,1.8100717,3.6871831,9.313728999999999,0.1674125,0.13532008,-0.09173486,6.66,33.059998,-39.78
1553843484840,2.3392065,4.7454529999999995,10.336084,-0.02684264,0.20618047,-0.0013267993,6.0,32.88,-40.079997999999996
1553843484861,2.7079248,5.604997,10.901133999999999,-0.23575856,0.12188106,0.0988551,5.7599998,32.34,-39.3
1553843484880,2.4493432,4.4126487,10.506078,-0.23942375,0.024142615,0.17765673,6.2999997,32.52,-39.6
1553843484900,1.8244373999999999,2.0542877,9.478933999999999,-0.13557667,-0.057713325999999995,0.17826758,6.7799997,33.6,-40.86
1553843484921,1.403045,1.0654523,8.676852,-0.08487484,-0.12918456,0.095189914,6.6,33.96,-41.04
1553843484940,1.2426286,0.7781393,8.178842999999999,-0.05616417,-0.14751051,0.034714247999999996,6.72,33.84,-40.5
1553843484960,1.0798178999999999,0.66800267,7.8101244,0.04585032,-0.119410716,-0.055693805,6.7799997,34.14,-40.079997999999996
1553843484981,1.2641771000000002,1.5347302,8.186026,0.21994692,-0.02900266,-0.14488013,6.3599997,34.38,-38.94
1553843485000,1.3838909,2.5953939999999998,8.605023,0.25415537,0.040635977000000004,-0.15282138,5.8199997,33.12,-39.84
1553843485020,1.6616267,3.6560576,9.229928999999998,0.15397346,0.11943759,-0.10944995,5.94,32.82,-39.84
1553843485041,2.3631492,5.3823300000000005,10.568328999999999,-0.10197906,0.19518489,-0.023317947999999998,6.8399997,33.059998,-40.86
1553843485060,2.6983478,5.8156934,11.209994,-0.30112112,0.13593096,0.06586838,6.7799997,33.239998,-40.559998
1553843485082,2.370332,3.8475995000000003,10.43425,-0.2418672,0.006427524,0.15383297,6.54,33.84,-40.32
1553843485100,1.7310607,1.6975409,9.201198,-0.14779396,-0.10169563,0.11779192,6.54,33.6,-40.559998
1553843485120,1.4102278999999998,0.87151605,8.3679905,-0.10564425599999999,-0.15972783,0.042044632,6.48,33.0,-40.5
1553843485141,1.2474172,0.6273,7.9489923,-0.03600562,-0.15545176,-0.03858958,7.02,33.54,-40.02
1553843485160,1.2067145000000001,0.76137936,7.84125,0.07761532,-0.09253265,-0.1015087,6.8399997,34.38,-40.2
1553843485181,1.3719195,1.3695252,8.300951,0.2535445,-0.014341895,-0.15343225,5.7599998,34.5,-39.54
1553843485200,1.4940275,2.2697724999999997,8.906702000000001,0.36166766,0.030862134,-0.16015176,5.64,33.84,-39.54
1553843485220,1.647261,3.1365,9.265842999999998,0.36288938,0.116994135,-0.113726005,5.52,33.42,-40.68
1553843485241,2.011191,4.199558000000001,9.672871,0.1991775,0.1896871,-0.05386121,5.8199997,33.78,-40.98
1553843485260,2.5618742,5.463735,10.472558,-0.08426398,0.18541104,0.023718676,6.12,33.36,-40.98
1553843485281,2.6696165,5.7893567,10.774237,-0.25041932,0.060794532000000005,0.09030299,6.54,32.52,-39.78
1553843485300,2.176396,3.6800002999999997,10.163696,-0.21621086,-0.055269867,0.115348466,7.2,33.059998,-39.36
1553843485320,1.6568381999999997,1.786129,9.45978,-0.17589375,-0.12429764,0.054872803,6.72,33.54,-40.44
1553843485340,1.3192455,0.8882760000000001,8.55235,-0.15145916,-0.16339302,-0.015987566,6.7799997,33.66,-40.26
1553843485360,1.0941836,0.4644893,7.802942,-0.04394687,-0.13529322,-0.063024186,7.2,33.66,-39.84
1553843485380,1.158829,0.71588814,7.6305537,0.13992357,-0.049161214,-0.102119565,6.66,33.54,-40.44
1553843485401,1.4365649,1.7190893,8.20518,0.332957,-0.0027354546,-0.13510629999999998,6.12,33.78,-41.28
1553843485420,1.5826156,2.9425638,8.676852,0.35494816,0.061405394,-0.114947736,6.24,33.54,-41.1
1553843485441,2.0758362,4.661653,9.885961,0.11671069,0.20068268,-0.05386121,5.8799996,33.3,-40.92
1553843485460,2.6959534,6.342434,11.130983,-0.21498914,0.25443882,0.027383868,6.12,33.36,-41.46
1553843485481,2.7342618,6.1556807000000004,11.356046000000001,-0.33777305,0.15547864,0.11168327,6.6,32.82,-40.5
1553843485500,2.0399222,3.1293173,9.96976,-0.22720644,-0.008844106,0.16788287,6.3599997,32.82,-40.14
1553843485521,1.4844503,1.5467016000000002,9.086273,-0.15573521,-0.119410716,0.108018085,6.3599997,33.239998,-40.379996999999996
1553843485540,1.2617828000000002,0.7326481,8.442213,-0.11541810000000001,-0.2024884,0.040212035,6.72,33.66,-40.379996999999996
1553843485561,1.1061549,0.36871833,7.745479,-0.018290527,-0.1969906,-0.017820163,6.12,34.14,-40.379996999999996
1553843485580,1.1875603000000001,0.6440599,7.640130999999999,0.12526279999999998,-0.11879985,-0.08318274,5.7,33.66,-39.66
1553843485601,1.3623424,1.489239,8.174054,0.3256266,-0.01861795,-0.13327369,7.2,32.7,-35.7
1553843485620,1.4605076000000001,2.5522968999999995,8.628966,0.40564996,0.064459726,-0.13510629999999998,8.639999000000001,31.619999,-30.96
1553843485640,1.7693691000000003,4.158855399999999,9.45978,0.2620966,0.19518489,-0.08440447599999999,9.54,31.199999,-30.24
1553843485660,2.3344178,5.5307746,10.616214999999999,-0.018290527,0.2721539,-0.013544105,8.82,31.74,-32.16
1553843485680,2.719896,6.4142623,11.221966,-0.2858495,0.18174586,0.08297260000000001,8.34,31.56,-32.82
1553843485700,2.4421604,4.7502413,10.632975,-0.26752356,0.033305597,0.15933077,8.88,31.26,-32.28
1553843485721,1.7645805,2.1500587,9.522031,-0.1716177,-0.0986413,0.13306355,8.34,31.8,-32.82
1553843485740,1.3982565,1.0989721000000001,8.806142999999999,-0.14290704,-0.20065579,0.04754242,7.9199996,32.46,-32.76
1553843485760,1.211503,0.5363176,8.164477,-0.08976176400000001,-0.21653828,-0.011711508999999998,7.62,33.059998,-33.059998
1553843485780,1.0822121999999998,0.46927786,7.592245599999999,0.048293784000000006,-0.14995398,-0.08012842,7.74,32.1,-32.46
1553843485800,1.1923488000000002,1.0151725,7.788575999999999,0.19978836,-0.05343727,-0.1314411,8.16,30.84,-30.84
1553843485821,1.3551594999999999,2.1548474,8.391933,0.36472198,0.03635992,-0.15526484,8.099999,30.359999,-30.599998
1553843485840,1.5203645000000001,3.2729738,8.990502000000001,0.37632844,0.11760499,-0.1314411,8.04,31.199999,-31.56
1553843485860,1.960911,4.723904,9.873989,0.1710777,0.25199535,-0.06668938,7.7999997,31.92,-32.64
1553843485880,2.569057,6.021601,10.922682,-0.14535050000000002,0.2825386,0.029216462999999998,7.5,31.679997999999998,-32.52
1553843485900,2.631308,5.8420305,10.92747,-0.28157344,0.10722029,0.12023538,7.8599997,32.219997,-34.26
1553843485921,2.169213,3.5698638,9.9889145,-0.20704788,-0.04671775,0.15749817,7.7999997,32.1,-36.66
1553843485940,1.6496553,1.9226026999999999,9.387952,-0.16489819,-0.17133425,0.099465966,7.5,32.219997,-36.239998
1553843485961,1.2641771000000002,0.8140534,8.576292,-0.14840484,-0.2476924,0.016388291,7.44,32.46,-36.12
1553843485980,1.0893950000000001,0.45730647,7.776604700000001,-0.07754446,-0.20737529999999996,-0.03614612,7.62,32.82,-36.66
1553843486000,1.0151725,0.6703969,7.513234,0.047072057,-0.09253265,-0.085015334,8.04,33.0,-36.719997
1553843486021,1.1995316999999999,1.5419129999999999,8.018426,0.24865758,0.041246843,-0.13205196,7.8599997,32.52,-36.18
1553843486040,1.3695252,2.6504622,8.648121000000002,0.31890708,0.10355510000000001,-0.13449542,7.44,32.219997,-35.52
1553843486060,1.6712039,4.022382,9.529214,0.22666644,0.18052413,-0.094789185,6.96,32.219997,-35.82
1553843486080,2.3152637,5.5451403,10.759871,-0.06899234,0.27459738,-0.010489778,6.72,32.52,-36.0
1553843486100,2.7725701000000003,6.1173720000000005,11.236332,-0.29806679999999997,0.20740218,0.112904996,6.06,32.82,-38.28
1553843486120,2.5594797000000002,4.206741,10.343266999999999,-0.22170866,0.021699157,0.20636739,6.0,33.719997,-40.2
1553843486140,1.8938714,2.2362528,9.332883,-0.117250696,-0.12796283,0.17521326,6.66,33.78,-39.84
1553843486161,1.4341706,1.2258687,8.722342999999999,-0.09892473,-0.25074676,0.09213558,6.3599997,33.719997,-40.02
1553843486180,1.2546,0.8882760000000001,8.370385,-0.07754446,-0.24891415,0.018220888,6.54,33.78,-40.739998
1553843486201,1.0846065,0.9241901,7.9370210000000005,0.023859175,-0.12613024,-0.054472078,6.54,33.719997,-41.16
1553843486220,1.1300976999999999,1.1803774999999999,7.910684,0.17046683,-0.0057897805,-0.10273043,6.54,33.6,-40.379996999999996
1553843486241,1.2569941999999998,1.9417567999999998,8.344047999999999,0.31646362,0.07240097,-0.12777591,6.7799997,33.36,-40.02
1553843486260,1.3886794,3.2514252999999997,8.904308,0.2865312,0.11821587,-0.09906524,6.42,33.6,-40.68
1553843486281,2.0183737,4.992063,10.185245,0.03851994,0.19396316,-0.046530827999999996,6.6,33.719997,-41.399998
1553843486300,2.4900458,6.282577,11.071127,-0.21071307,0.18357845,0.016999159,6.48,33.36,-41.219997
1553843486321,2.4349775,5.2482505,10.884374000000001,-0.26019317,0.06812491,0.08847039,6.06,32.82,-40.92
1553843486340,1.9441511999999999,2.8084843,9.778217999999999,-0.17222856,-0.060767654000000004,0.08908126,6.0,33.18,-41.04
1553843486360,1.5036045,1.5826156,8.973742,-0.15023743,-0.19149281,0.026773002,6.12,33.719997,-40.86
1553843486381,1.4054393,1.063058,8.540379,-0.14901568,-0.23425339,-0.021485351,6.12,33.54,-40.68
1553843486400,1.3144568,0.96489275,8.042369,-0.07693359,-0.17622119,-0.071576305,5.8799996,33.719997,-40.2
1553843486420,1.4293821000000002,1.3934678999999999,8.116591,0.04585032,-0.07481755,-0.100286976,5.94,34.079997999999996,-40.32
1553843486441,1.5850098999999997,2.1572416000000003,8.561927,0.21750346,0.031473,-0.10273043,5.8799996,34.079997999999996,-39.78
1553843486460,1.5993756000000001,2.9114382,8.875577,0.27553564,0.07606616,-0.07401976,5.64,33.719997,-40.62
1553843486481,1.8411973999999998,3.9744961,9.644139,0.17474289,0.1298223,-0.029426599999999997,5.52,33.48,-41.219997
1553843486506,2.2386470000000003,4.7095385,10.28341,-0.010349279,0.13593096,0.016388291,6.06,33.3,-40.68
1553843486520,2.2266755000000003,4.405465599999999,10.180456,-0.04761206,0.08522914,0.034714247999999996,6.3599997,32.76,-40.2
1553843486540,2.0614705,3.1652312,9.663293,-0.020123122,0.0052057933,0.06037059,5.94,32.399998,-40.26
1553843486561,1.8771113999999998,2.3799092999999996,9.136553,-0.009127548000000001,-0.08520226,0.049985882,6.0,32.82,-40.68
1553843486580,1.7238779,2.2601955,8.822903,-0.042725135,-0.113912925,0.035325114,6.3599997,32.88,-41.46
1553843486600,1.7406378,2.5570855,8.875577,-0.08304224,-0.060767654000000004,0.029827327999999997,6.2999997,32.52,-41.52
1553843486621,1.7765520000000001,2.875524,9.179649000000001,-0.06715974,0.02108829,0.034714247999999996,5.64,32.579997999999996,-41.52
1553843486641,1.7095122,2.8491871,9.313728999999999,-0.006073222,0.051020685999999996,0.037768576,5.4,33.54,-40.98
1553843486660,1.5562786,2.5379312,9.191621000000001,0.049515515999999996,0.029640405,0.026162136000000003,6.06,34.02,-40.739998
1553843486681,1.3192455,2.3152637,8.940222,0.08922175,-0.011898434,-0.0007159340299999999,6.18,33.3,-41.16
1553843486700,1.2761483999999998,2.5546912999999996,8.746285,0.061121956,-0.010065838,-0.019652756,6.3599997,33.12,-40.8
1553843486720,1.5921928,3.5746522000000005,9.217958,-0.061661962,0.022920884,-0.012322373999999999,6.42,33.059998,-40.62
1553843486741,2.0399222,4.3240604000000005,10.156514,-0.22903903,0.030862134,0.013944831999999999,6.42,32.88,-40.079997999999996
1553843486760,2.185973,4.1397014,10.328901,-0.27851912,-0.008844106,0.046931557,6.06,32.88,-39.78
1553843486780,2.073442,2.892284,9.852441,-0.21254566,-0.05832419,0.062203187,5.8199997,33.54,-40.32
1553843486801,1.7382435,1.5562786,8.880365,-0.08426398,-0.10169563,0.027994731000000002,6.06,34.38,-41.04
1553843486820,1.4868447,1.0870007,8.250671,0.022637444,-0.09436524,-0.0068245865,6.06,34.739998,-41.04
1553843486840,1.376708,0.9672870000000001,7.982512,0.17229943,-0.077261016,-0.032480925,6.0,34.559998,-39.96
1553843486860,1.3862851,1.3527653,8.128563,0.31524187,-0.046106886,-0.06424592,6.0,34.2,-40.02
1553843486880,1.515576,2.2601955,8.526012,0.35128295,-0.003957185,-0.07218716,6.12,34.14,-40.92
1553843486901,1.8435916,3.756617,9.316123,0.21322739999999998,0.10355510000000001,-0.041643906,5.8799996,34.079997999999996,-41.1
1553843486920,2.439766,5.686403,10.676071,-0.07571186,0.18357845,0.018220888,6.06,34.02,-40.86
1553843486941,2.6001825000000003,5.7558365,11.130983,-0.238202,0.12065932,0.08175088,6.42,33.18,-40.26
1553843486960,2.2745612,3.7494342000000005,10.127783,-0.17772634,0.0021514674,0.12939836,6.18,32.219997,-40.5
1553843486981,1.6951466,2.0973847,9.040782,-0.09892473,-0.11513466,0.08175088,5.7599998,32.94,-41.16
1553843487000,1.3096683,1.3383996,8.169266,-0.05249898,-0.14262360000000002,0.013944831999999999,5.8199997,33.059998,-41.16
1553843487020,1.1181264,0.9217958,7.719142,0.01958312,-0.10780427599999999,-0.059359,6.0,32.82,-41.219997
1553843487040,1.1779832000000001,1.0798178999999999,7.788575999999999,0.11182377,-0.038165636,-0.11433687,6.12,33.96,-41.219997
1553843487061,1.4078336,1.7693691000000003,8.379961999999999,0.23216423,0.027807808,-0.15037791,5.8199997,33.66,-41.219997
1553843487080,1.4413534,2.0542877,8.526012,0.25965318,0.04796636,-0.1577083,5.8199997,33.66,-41.219997
1553843487101,2.0518935000000003,4.1851926,9.787795,0.097163,0.18724364,-0.06668938,5.58,33.239998,-40.739998
1553843487120,2.648068,5.5164089999999995,10.922682,-0.12580281,0.17991325,0.010890506000000001,5.52,33.0,-41.1
1553843487141,2.7175019,5.8037220000000005,11.3105545,-0.25897142,0.065070584,0.10068769999999999,6.0,32.64,-41.04
1553843487160,2.1883671000000002,3.7326744,10.30017,-0.18261328,-0.08214793,0.19109575,6.54,32.88,-40.02
1553843487180,1.6257126,1.9010541,9.126975999999999,-0.07998791,-0.14201273,0.167272,6.7799997,33.239998,-39.66
1553843487201,1.2258687,1.1181264,8.253065,-0.045168597000000005,-0.15789524,0.08541607,6.48,33.66,-40.5
1553843487220,1.0965778999999998,0.7948991999999999,7.7335076,-0.006684086999999999,-0.12796283,-0.003159395,6.6,33.48,-40.98
1553843487241,1.1277034,1.0415094999999999,7.623371000000001,0.08433483,-0.047328617,-0.073408894,5.94,33.48,-41.16
1553843487260,1.3455825000000001,1.7597919999999998,8.164477,0.19551231,0.01986656,-0.121056385,5.7,33.66,-40.559998
1553843487281,1.5706443,2.9401696,8.813326,0.24010547,0.10111163599999999,-0.11128255,5.94,33.36,-40.02
1553843487300,1.9752767,4.331243,9.730332,0.1270954,0.17685893,-0.059969865,5.7599998,33.12,-40.62
1553843487321,2.4780743,5.3799353,10.719169,-0.086707436,0.18724364,0.018831754,5.94,32.94,-41.16
1553843487340,2.6289136,5.2674046,10.917893,-0.2015501,0.07179011,0.102520294,6.2999997,33.0,-41.219997
1553843487361,2.2434354,3.615355,10.063137,-0.14473964,-0.07970448,0.16116336,6.42,33.78,-40.5
1553843487381,1.6879636999999998,2.0590763,9.055147,-0.051277254,-0.16461475,0.13733962,6.72,33.719997,-40.559998
1553843487400,1.3144568,1.2833313,8.250671,-0.03050783,-0.15545176,0.06709011,6.3599997,32.88,-41.1
1553843487420,1.23784,1.2785428,7.881953,-0.073879264,-0.10169563,-0.0062137214,5.7,33.0,-40.739998
1553843487441,1.5490957,1.960911,8.296163,-0.10197906,-0.00334632,-0.05263948,5.8799996,33.42,-40.5
1553843487460,1.9633054,3.1053743,9.167678,-0.1135855,0.09622472,-0.051417753,6.3599997,33.48,-40.02
1553843487481,2.1668186,3.8763309,10.032011,-0.11297463599999999,0.14142874,-0.0025485298,6.54,33.6,-40.2
1553843487501,2.0590763,3.3615617999999996,10.149331,-0.043336004000000004,0.104165964,0.05181848,6.2999997,33.239998,-40.92
1553843487521,1.7526091000000001,2.5714512000000003,9.522031,0.034243885,0.0039840629999999995,0.068922706,5.8799996,33.36,-41.34
1553843487540,1.4868447,2.2697724999999997,8.909097000000001,0.062343687,-0.07848274,0.06525751,5.8199997,34.02,-41.1
1553843487560,1.3695252,2.4637089,8.739103,0.04157427,-0.07970448,0.036546845,5.8199997,33.66,-40.44
1553843487580,1.56825,3.0862203,9.141341,-0.028675236,-0.025337468999999998,-0.0037702604,6.48,32.88,-38.04
1553843487600,1.8531687,3.3615617999999996,9.622589999999999,-0.11053118,0.011314446,-0.025150542999999997,7.2,32.82,-36.059998
1553843487621,1.9154198,3.0048149,9.684841,-0.14412877,0.008870985,-0.03553525,7.14,32.52,-36.3
1553843487640,1.8220432,2.2889266,9.344854,-0.10808772,-0.019839682,-0.04469823,7.44,32.76,-36.36
1553843487661,1.6831752,1.7382435,8.679246000000001,-0.021344852,-0.043052558,-0.04103304,7.44,33.899998,-37.32
1553843487681,1.6089526,1.6688095,8.444607000000001,0.09838474,-0.05343727,-0.03064833,6.6,33.719997,-38.64
1553843487700,1.7190893,1.9633054,8.542772,0.22605558,-0.064432845,-0.021485351,5.8199997,33.42,-39.78
1553843487720,1.8699286,2.657645,8.693612,0.24254893,-0.04977208,-0.0068245865,5.7599998,33.54,-40.379996999999996
1553843487741,2.2242813,3.964919,9.502875999999999,0.09410868,0.028418673,0.031659923,6.06,33.12,-40.559998
1553843487760,2.7294734,5.786962,10.812545,-0.21010222,0.12921144,0.0725879,6.06,32.7,-41.1
1553843487781,2.7558103,5.5164089999999995,11.348863,-0.42634849999999996,0.09683557599999999,0.13184182,6.54,33.059998,-40.68
1553843487800,1.9345740000000002,3.0862203,10.45101,-0.3988596,0.029029539,0.15810902,6.7799997,33.6,-40.559998
1553843487821,1.3886794,1.333611,9.155706,-0.2907364,-0.025337468999999998,0.121457115,6.48,33.78,-40.5
1553843487840,1.1181264,0.42618093,7.862798700000001,-0.17100683,-0.05343727,0.043266362999999995,6.72,33.719997,-39.54
1553843487861,1.0678465,-0.102953814,7.3671837,0.026913501,-0.077261016,-0.036756985,6.8999996,33.6,-39.18
1553843487881,1.1253091,0.023942748,7.429435000000001,0.27125959999999993,-0.089478314,-0.12472158,7.02,33.899998,-38.579997999999996
1553843487900,1.2593886,0.8882760000000001,7.884347,0.50766444,-0.08214793,-0.20596667,6.54,34.14,-39.239998
1553843487921,1.4269878,2.2458298,8.360807000000001,0.57913566,-0.033889584,-0.22001655,5.46,34.62,-40.739998
1553843487940,1.7909175,3.8284453999999997,9.205987,0.40748253,0.07423357,-0.16809301,5.2799997,34.2,-40.68
1553843487961,2.9760835,7.290567,11.5308275,-0.15268087,0.30330804,-0.02453968,5.94,32.7,-40.739998
1553843487980,3.0167862999999997,7.898712599999999,12.31615,-0.41535294,0.26238006,0.061592318,5.8199997,32.46,-40.62
1553843488001,2.2434354,4.0080160000000005,10.621003,-0.29867768,0.024142615,0.13795047,6.12,33.059998,-40.68
1553843488020,1.4102278999999998,1.5012103,9.227535000000001,-0.16611992,-0.15484089999999998,0.09152472,6.48,34.02,-41.34
1553843488040,1.1492518999999999,0.40463245,8.303345,-0.12580281,-0.20432098,0.060981455999999996,6.24,33.719997,-41.1
1553843488060,1.0678465,-0.30646718,7.4366174,-0.043336004000000004,-0.1969906,0.020053484,6.0,33.48,-39.96
1553843488080,1.1803774999999999,-0.098165266,7.297749499999999,0.12892799,-0.15484089999999998,-0.04836342,5.8199997,33.78,-40.14
1553843488101,1.4054393,0.9601042,7.850827000000001,0.37205237,-0.096197836,-0.15831918,5.94,33.66,-40.68
1553843488120,1.4533247999999999,2.0949904999999998,8.190814,0.45879522,-0.02900266,-0.18397550000000001,5.7,33.78,-40.68
1553843488140,1.8771113999999998,4.3695517,9.601042,0.3079115,0.16647421,-0.12899764,5.64,34.02,-41.34
1553843488161,2.6265194,6.138921,10.972961,-0.013403606,0.31063843,-0.053250343,5.58,33.78,-40.98
1553843488180,2.9736892999999998,7.484503299999999,11.832506,-0.37075976,0.27337563,0.039601172999999996,5.2799997,32.94,-40.8
1553843488201,2.3846977000000003,4.4677167,10.654523,-0.31700364,0.0143687725,0.15994161,5.94,32.34,-40.559998
1553843488220,1.6951466,2.0806248,9.421472,-0.16734165,-0.09803043,0.13184182,5.3399997,32.76,-40.2
1553843488240,1.3288225,0.7853220999999999,8.442213,-0.10625512,-0.21531656,0.06831183,5.52,33.78,-40.68
1553843488261,1.2186858999999999,0.22266756,7.8388557,-0.04639033,-0.20981877,0.007836179,5.52,33.78,-40.68
1553843488280,1.2330515,0.21787901,7.4174633000000005,0.054402437000000005,-0.13895841,-0.04775256,5.7,33.78,-41.219997
1553843488301,1.4293821000000002,1.0247495999999998,7.7742105,0.23521855,-0.019839682,-0.13510629999999998,6.24,34.079997999999996,-40.26
1553843488320,1.6065584,2.3846977000000003,8.430242,0.323794,0.07117924,-0.14793447,5.94,33.66,-39.6
1553843488341,1.960911,4.2043467,9.636956,0.22849904,0.15547864,-0.09662178,5.16,33.239998,-40.26
1553843488360,2.5115943,5.8755503,10.829305,-0.041503407,0.25688225,-0.0037702604,5.3399997,32.94,-40.8
1553843488381,2.7079248,6.4669360000000005,11.542799,-0.31272757,0.22389555,0.13733962,5.64,32.88,-40.98
1553843488400,2.3583608,4.400677,10.661706,-0.25225192,0.06873578,0.20514566,5.7,33.18,-40.68
1553843488421,1.6233183,2.126116,9.337671,-0.13313319,-0.10536081,0.15810902,6.42,33.36,-40.14
1553843488440,1.2737542,0.9577099,8.447001,-0.092816085,-0.22814474,0.060981455999999996,6.48,34.02,-40.92
1553843488460,1.1468576000000001,0.52674043,7.989694999999999,-0.05616417,-0.21714915,0.0066144490000000005,6.2999997,34.079997999999996,-40.739998
1553843488480,1.1731946000000002,0.53392327,7.683228,0.028746097999999998,-0.12613024,-0.057526402000000004,5.7599998,33.899998,-40.68
1553843488501,1.4126221,1.2881198,8.004061,0.15091914,-0.011898434,-0.12655418,5.64,33.54,-40.8
1553843488520,1.637684,2.4708917,8.566715,0.24254893,0.07301183,-0.13327369,5.3399997,33.899998,-40.86
1553843488541,2.0327394,4.1516724,9.653716000000001,0.1851276,0.14387220000000003,-0.077684954,5.52,34.8,-40.5
1553843488560,2.5331428,5.4661292999999995,10.743111,-0.10258993,0.20312613,0.034103386,5.52,34.02,-40.559998
1553843488580,2.6193366,5.686403,11.1142235,-0.27851912,0.1298223,0.11657019,6.06,33.66,-40.92
1553843488601,2.1404817000000005,3.9026680000000002,10.288198,-0.22659558,0.029640405,0.14405912,6.7799997,34.02,-40.92
1553843488620,1.489239,1.908237,9.225141,-0.11236378,-0.08031534,0.08175088,6.0,33.719997,-40.32
1553843488640,1.2282629999999999,0.9792584000000001,8.492493,-0.07204667,-0.16827993,-0.0007159340299999999,6.24,33.48,-39.899998
1553843488661,1.1684061000000001,0.56265455,8.030397,-0.035394754,-0.18538415,-0.06363506,6.8999996,34.26,-40.02
1553843488680,1.2665714,0.7733508000000001,7.889135400000001,0.06539801,-0.11146947,-0.12533244,6.7799997,33.96,-40.2
1553843488701,1.4221992,1.6903580000000002,8.420665,0.18818194,0.052853283,-0.15159966,6.0,33.54,-39.6
1553843488720,1.8411973999999998,3.0862203,9.105427,0.15458433,0.21839777,-0.11250427,6.12,33.899998,-38.7
1553843488740,2.22907,4.460534,9.866806,0.018361388,0.22145209,-0.025150542999999997,6.18,33.66,-39.48
1553843488761,2.6432792999999997,5.621757,10.711986,-0.17467202,0.1982392,0.063424915,5.8199997,33.66,-39.96
1553843488780,2.545114,4.9537544,10.599455,-0.25897142,0.011314446,0.11779192,6.66,34.2,-40.079997999999996
1553843488800,1.8842942999999999,2.8396098999999997,9.787795,-0.21376741,-0.08825659,0.11901366,6.72,34.26,-40.14
1553843488820,1.3072741,1.3192455,8.9186735,-0.16734165,-0.10536081,0.06464665,6.3599997,33.96,-38.82
1553843488840,1.3048798000000001,0.87630457,8.494887,-0.14107445,-0.08703486,0.027994731000000002,6.24,33.96,-38.82
1553843488861,1.3862851,0.7302538000000001,8.013638,-0.04089254,-0.08642399,-0.023317947999999998,6.54,34.02,-39.42
1553843488880,1.446142,0.9672870000000001,8.016032000000001,0.1130455,-0.07970448,-0.058137268,6.66,33.96,-39.96
1553843488900,1.5395187,1.7621863000000002,8.394327,0.31218755,-0.044885155,-0.085015334,6.18,34.2,-39.96
1553843488920,1.5562786,2.5858168999999998,8.624178,0.41481292,0.052242417,-0.08562621,6.2999997,34.32,-40.02
1553843488940,1.7885233,3.7254915,9.229928999999998,0.29325077,0.13837442,-0.06485678,6.0,34.02,-40.32
1553843488960,2.1811842999999995,4.9441776,10.393547,0.040963400000000004,0.18052413,-0.029426599999999997,5.7,33.6,-40.86
1553843488981,2.423006,5.686403,11.229149000000001,-0.22842817,0.14387220000000003,0.026773002,5.94,33.719997,-40.98
1553843489000,2.2266755000000003,4.087027,10.6641,-0.2772974,0.014979636999999999,0.10068769999999999,6.0,33.48,-40.62
1553843489021,1.8483802,2.3799092999999996,9.706389999999999,-0.2174326,-0.12246504400000001,0.12328971,5.7599998,33.66,-40.62
1553843489040,1.6041641000000002,1.3096683,8.837268,-0.15207002,-0.22936645,0.09641164,6.6,33.54,-39.48
1553843489061,1.3791022,0.6440599,8.044764,-0.03600562,-0.22020347,0.050596748,6.54,34.079997999999996,-39.0
1553843489080,1.3096683,0.63208854,7.778999000000001,0.13992357,-0.11146947,-0.0025485298,5.7,34.32,-39.84
1553843489100,1.489239,1.2761483999999998,8.209969000000001,0.29202902,0.03574906,-0.059969865,6.0,33.6,-40.2
1553843489120,1.6137413,2.403852,8.616995,0.30668979999999996,0.15120259,-0.07951755,6.2999997,33.899998,-40.26
1553843489140,1.8866886000000003,3.9433705999999997,9.316123,0.16802338,0.258104,-0.05263948,6.18,33.54,-39.66
1553843489162,2.4158232,5.62894,10.606637,-0.111752905,0.23672372,0.021275215,6.2999997,32.88,-39.059998
1553843489180,2.3870918999999997,5.8228765,10.951413,-0.23759116,0.14814825,0.06281405,6.54,33.239998,-40.14
1553843489200,2.0542877,3.9673133000000003,10.338479,-0.23270422,0.016812233,0.121457115,6.6,32.64,-40.739998
1553843489221,1.4700848,1.6999351000000003,9.368797,-0.17100683,-0.09741957,0.079307415,6.6,33.36,-40.68
1553843489240,1.3383996,0.9672870000000001,8.746285,-0.15817867,-0.15667349,0.034103386,6.6,33.96,-40.379996999999996
1553843489261,1.2857256000000001,0.5913859,8.181237,-0.11297463599999999,-0.18110810000000002,-0.009878913000000001,7.44,34.5,-37.079997999999996
1553843489281,1.2976969999999999,0.75180227,7.9011070000000005,0.040352535,-0.13834754,-0.057526402000000004,7.44,33.899998,-35.219997
1553843489300,1.4102278999999998,1.446142,8.068706500000001,0.23338595,-0.06321111,-0.10456303,6.66,33.059998,-35.52
1553843489321,1.5203645000000001,2.3583608,8.549955,0.34517428,0.040635977000000004,-0.1173912,6.48,33.36,-35.399998
1553843489340,1.6664151999999999,3.5674694,9.143736,0.28103346,0.12860057,-0.10395216,6.6,34.14,-36.6
1553843489361,2.0854135,4.7981267,10.352844000000001,0.08433483,0.16464162,-0.072798036,6.8399997,33.719997,-38.64
1553843489380,2.2170985,5.29853,11.001693,-0.124581076,0.105387695,-0.028815735,6.48,33.239998,-40.14
1553843489400,2.0686533,4.1085753,10.546781,-0.21315654,-0.024726603,0.034103386,6.12,33.78,-40.559998
1553843489420,1.8076775,2.4589202,9.553157,-0.18627848,-0.16339302,0.05181848,6.0,33.78,-40.739998
1553843489441,1.6831752,1.5562786,8.724737,-0.12641367,-0.2757922,0.021275215,6.2999997,33.48,-40.26
1553843489461,1.6783867,1.2809371,8.356019,-0.05799677,-0.29778334,-0.009268047,6.54,33.899998,-39.96
1553843489480,1.7023293999999998,1.3862851,8.291373,0.061121956,-0.22570126,-0.037367847,6.18,33.96,-40.44
1553843489501,1.8675343999999998,1.7430321,8.408693,0.19245797,-0.055269867,-0.05874813,5.7,33.3,-40.02
1553843489520,1.9872481,2.1716073,8.796566,0.28714209999999996,0.108442016,-0.066078514,5.4,33.54,-40.44
1553843489541,2.0064023,2.6911650000000003,9.11261,0.32929182,0.23855633,-0.05874813,5.64,33.42,-40.86
1553843489560,1.9656997,3.5004299,9.122187,0.23521855,0.32163400000000003,-0.023928814,6.24,32.76,-40.2
1553843489581,2.1668186,4.577853,9.732727,0.034854747,0.3320187,0.039601172999999996,5.46,32.7,-40.739998
1553843489600,2.370332,5.7007685,10.369603999999999,-0.1771155,0.23733458,0.102520294,5.1,32.88,-41.579997999999996
1553843489621,2.0375278000000003,4.8555894,10.297775999999999,-0.17833722,0.10050077,0.17521326,5.64,33.12,-40.86
1553843489640,1.4150163999999998,2.5068057,9.675264,-0.08548570400000001,-0.005178915300000001,0.17032634,6.18,33.42,-40.739998
1553843489661,1.0846065,1.3288225,8.985713,-0.10075733,-0.16705821,0.10862894,6.18,32.82,-40.86
1553843489680,1.0462981,1.1157321000000002,8.444607000000001,-0.1276354,-0.23669684,0.06709011,5.58,32.94,-40.98
1553843489701,1.1947431999999998,1.1995316999999999,8.109408,-0.032951295,-0.17744292,0.013944831999999999,4.7999997,33.66,-41.04
1553843489720,1.4700848,1.6975409,8.284191,0.088610895,-0.07420669,-0.018431026,4.98,33.6,-40.68
1553843489740,1.7957061999999997,2.5355369999999997,8.861211,0.14847568,0.032694727,-0.04286563400000001,6.42,33.6,-40.739998
1553843489761,2.0518935000000003,4.065479,9.663293,0.018361388,0.19213055,-0.046530827999999996,6.24,33.12,-40.379996999999996
1553843489781,2.2099156000000004,4.788549400000001,10.259466999999999,-0.14962655,0.23794545,-0.037978712000000005,5.94,33.48,-40.2
1553843489800,1.9920366000000003,4.242655,10.245102000000001,-0.21376741,0.16341989,-0.008046316999999999,6.72,33.78,-40.44
1553843489821,1.5538843999999998,2.5115943,9.354432000000001,-0.13191147,0.049798958,0.0017275269,6.66,33.36,-40.559998
1553843489840,1.3360053,1.8914771000000001,8.937828,-0.08304224,-0.054048132,-0.015987566,6.96,33.18,-40.2
1553843489861,1.3719195,1.4772675,8.621783,-0.031729564,-0.20493186,-0.034313522,5.94,33.36,-39.78
1553843489880,1.4676905,1.620924,8.497281,0.024470039,-0.21470569,-0.057526402000000004,5.94,33.239998,-39.54
1553843489900,1.7286664,2.0710478,8.755863,0.07761532,-0.14384532,-0.07707409,5.94,33.3,-39.36
1553843489920,1.9226026999999999,2.6504622,9.201198,0.13809097,-0.01617449,-0.07707409,5.7,33.84,-40.079997999999996
1553843489940,1.9058428,3.059883,9.304152,0.16680163,0.11027461,-0.052028615,5.58,33.66,-40.739998
1553843489960,1.8459859,3.3448019999999996,9.27542,0.080058776,0.21961950000000002,-0.0007159340299999999,5.8199997,33.239998,-40.5
1553843489980,2.2242813,4.292935,9.730332,-0.17222856,0.24527584,0.05242934,6.18,33.54,-40.26
1553843490000,2.4780743,5.011217,10.190033999999999,-0.31456017,0.15364604,0.081140004,6.42,33.78,-40.26
1553843490020,2.2625897,3.9050622,10.245102000000001,-0.29745594,0.00826012,0.11901366,6.18,33.059998,-40.86
1553843490041,1.7741576000000001,1.8938714,9.672871,-0.22231951,-0.05588073,0.10313116,6.12,33.66,-40.739998
1553843490067,1.3647367,1.1612233,8.609812,-0.23392597,-0.10413908,0.04754242,6.96,34.62,-39.42
1553843490080,1.3144568,1.1253091,8.327288000000001,-0.22781731,-0.07909361,0.02188608,6.54,33.66,-38.82
1553843490100,1.2617828000000002,1.446142,8.379961999999999,-0.12274848,-0.030835256000000002,-0.015987566,6.3599997,33.3,-39.18
1553843490121,1.4078336,1.9417567999999998,8.540379,0.011641869,-0.015563624,-0.023317947999999998,6.42,34.079997999999996,-39.96
1553843490140,1.4844503,2.1979442000000002,8.880365,0.13564752,-0.0009028588499999999,-0.017820163,6.24,34.5,-40.26
1553843490161,1.4485363000000002,2.3775147999999997,9.158101,0.20284270000000001,0.005816659,-0.012322373999999999,5.8799996,34.2,-40.02
1553843490180,1.5179702,2.7845416000000003,9.423865,0.18634933,0.011314446,0.00050579646,5.58,34.32,-40.379996999999996
1553843490201,1.8435916,3.5842294999999997,9.905114999999999,0.07578272,0.025975212,0.010890506000000001,6.3599997,34.2,-39.239998
1553843490220,2.013585,3.6105663999999997,9.991309,0.009809273,0.057129342,0.016388291,6.8399997,33.899998,-39.0
1553843490241,1.9920366000000003,2.8108785,9.711179,0.012252735,0.056518473,0.013944831999999999,6.66,34.559998,-40.079997999999996
1553843490260,1.9130256,2.3056867000000003,9.419077,0.006754948,-0.0015137241,-0.0049919905,6.66,34.68,-39.6
1553843490280,1.7813405,2.3416007000000003,9.330489,-0.04089254,-0.09131091,-0.030037466000000002,6.66,34.26,-40.26
1553843490300,1.6448668000000002,2.5235654999999997,9.273026,-0.06960321,-0.12429764,-0.042254772,7.44,33.78,-38.34
1553843490320,1.5706443,2.4421604,9.119793,-0.05921849999999999,-0.10658255,-0.0434765,7.02,33.899998,-38.399998
1553843490341,1.4341706,2.3248408,8.988108,-0.010349279,-0.05343727,-0.045919962,5.8199997,34.44,-40.14
1553843490361,1.3479767,2.5499027,9.004868,0.02324831,-0.021061412999999998,-0.037367847,5.3399997,34.02,-40.02
1553843490380,1.4054393,2.7510218999999996,9.117398,0.034243885,-0.026559198,-0.019652756,5.7,33.78,-39.66
1553843490401,1.5850098999999997,2.9473522,9.232324,0.02569177,-0.03327872,-0.0025485298,5.7,33.719997,-39.54
1553843490421,1.8819,3.0407290000000002,9.457385,-0.017068796,-0.0021245892,-0.0068245865,5.8799996,34.2,-39.6
1553843490440,2.1069617000000003,3.1772027,9.562733999999999,-0.09464868,0.029640405,-0.0153767,6.2999997,34.5,-39.899998
1553843490461,2.1189332000000003,3.014392,9.629773,-0.13679838,0.05040982,-0.009268047,6.42,33.54,-40.5
1553843490481,2.0471049999999997,2.5092,9.4932995,-0.111752905,0.044912033,0.0023383922,6.6,33.36,-40.14
1553843490500,1.9106313000000001,2.0638650000000003,9.1628895,-0.05433158,0.011314446,-0.00010506882,6.7799997,34.26,-38.82
1553843490520,1.8100717,1.7358493000000002,8.906702000000001,0.012863601,-0.0021245892,-0.0074354519999999995,6.3599997,34.739998,-38.579997999999996
1553843490541,1.7143008000000002,1.7166951000000001,8.652909,0.095941275,0.032694727,-0.0068245865,6.96,34.2,-40.2
1553843490561,1.6592325,2.1883671000000002,8.724737,0.13137145,0.08584,0.01150137,7.08,34.559998,-40.32
1553843490581,1.7143008000000002,3.3232534,9.287392,0.07395013,0.14448306,0.059759725,5.94,34.38,-39.96
1553843490600,1.9465453999999998,4.328849,9.9889145,-0.101368204,0.15547864,0.11840279,6.06,33.719997,-39.96
1553843490620,2.0902019,4.6832013,10.635368,-0.23636942,0.12004846,0.1550547,6.2999997,34.079997999999996,-39.96
1553843490641,1.786129,3.2969165,10.345661,-0.24003461,0.06629232,0.16849375,6.0,34.86,-40.079997999999996
1553843490661,1.359948,1.5993756000000001,9.565128,-0.1771155,-0.00334632,0.1465026,6.12,34.98,-39.66
1553843490680,1.1875603000000001,0.87630457,8.839663,-0.11786156,-0.09314351,0.11046154,6.96,35.399998,-39.42
1553843490701,1.2354459,0.48603779999999996,8.379961999999999,-0.023177449,-0.17377773,0.045709822000000004,7.3199997,34.86,-39.84
1553843490720,1.3743136999999999,0.6344828,8.181237,0.12037589,-0.1902711,-0.037978712000000005,7.56,34.38,-39.059998
1553843490740,1.5299416000000001,1.1564348,8.308133,0.30730066,-0.1322389,-0.11128255,7.3799996,34.68,-38.46
1553843490761,1.515576,1.9704881999999997,8.490098,0.43008456,0.0125361765,-0.15526484,6.8999996,34.739998,-39.18
1553843490781,1.5897985000000001,2.7917243999999997,8.688824,0.38671315,0.12493538,-0.16259523,7.02,33.899998,-39.66
1553843490801,1.9273912,4.0582957,9.749487,0.19062538,0.19213055,-0.14121494,6.54,33.6,-40.26
1553843490821,2.3966691000000004,6.0311785,10.946625,-0.09098349,0.23061506,-0.09845438,6.24,33.3,-40.2
1553843490840,2.3607549999999997,5.150085,11.24112,-0.2418672,0.10783115,-0.011711508999999998,6.66,32.7,-39.719997
1553843490861,1.8938714,2.4565259999999998,10.127783,-0.14596136,-0.05832419,0.029827327999999997,7.2,33.42,-39.719997
1553843490881,1.5634614,1.3719195,9.14613,-0.051277254,-0.22447954,0.012723101,7.08,34.26,-39.84
1553843490901,1.2976969999999999,0.7206767,8.183631,0.002478891,-0.28251174,-0.028815735,6.6,34.2,-39.54
1553843490921,1.2761483999999998,0.7446195,7.951386500000001,0.10021733,-0.18110810000000002,-0.078906685,6.96,34.559998,-39.18
1553843490940,1.4652961000000002,1.5299416000000001,8.169266,0.20039923,-0.054659000000000006,-0.12899764,7.02,34.98,-39.12
1553843490961,1.637684,2.8898897,8.772623,0.18573846,0.09866817,-0.13510629999999998,6.24,34.32,-39.78
1553843490980,1.9034485,4.0151987,9.677659,0.06784147,0.18480018,-0.09845438,5.8199997,33.96,-39.96
1553843491000,2.176396,4.9274178,10.489317999999999,-0.07632273,0.18724364,-0.033702657000000004,5.8199997,34.62,-40.32
1553843491020,2.0686533,4.3695517,10.498895,-0.11663983,0.108442016,0.043266362999999995,6.3599997,34.44,-40.32
1553843491041,1.7358493000000002,2.7725701000000003,9.72315,-0.051277254,0.025975212,0.093968175,6.0,33.84,-40.2
1553843491060,1.4772675,1.8579572,9.040782,0.03302215,-0.061989382,0.0970225,5.94,34.02,-39.719997
1553843491081,1.403045,1.8603516,8.719949,0.0049223523,-0.14567792,0.07747482,5.8199997,34.2,-40.14
1553843491100,1.446142,2.1811842999999995,8.760652,-0.042114273,-0.1493431,0.044488095,6.06,34.68,-40.26
1553843491120,1.6089526,2.5929997000000005,9.076694999999999,-0.040281676,-0.07542842,0.010279640999999999,6.66,34.559998,-40.5
1553843491140,1.7502148999999998,2.6791935000000002,9.325700999999999,0.017139658000000002,-0.020450545,-0.0074354519999999995,5.94,33.96,-40.559998
1553843491161,1.7286664,2.3487834999999997,9.234717999999999,0.067230605,-0.019839682,-0.019652756,5.46,33.78,-40.559998
1553843491180,1.647261,2.2123098,9.076694999999999,0.09899559599999999,-0.017396221,-0.034313522,5.58,34.079997999999996,-40.8
1553843491200,1.6688095,2.3846977000000003,9.086273,0.11609982,-0.0015137241,-0.045919962,6.2999997,34.5,-40.2
1553843491220,1.8148602999999999,2.7103189999999997,9.1628895,0.14053445,0.039414246,-0.0434765,6.18,34.26,-40.62
1553843491240,1.9154198,2.8443985,9.031203999999999,0.14664309,0.09133779,-0.020263622,6.12,33.66,-39.96
1553843491261,2.1404817000000005,3.1293173,9.182044,0.0849457,0.12065932,0.0035601228000000005,6.24,32.94,-39.18
1553843491280,2.3823035,4.1157584,9.668080999999999,-0.036616486000000004,0.12615710000000002,0.022496943999999998,6.42,32.82,-40.68
1553843491300,2.2338583,4.146884,9.871595,-0.12946801,0.1157724,0.058537994,6.3599997,33.12,-40.98
1553843491320,1.8675343999999998,3.1819912999999995,9.634561999999999,-0.14046358,0.10355510000000001,0.09030299,6.24,33.719997,-40.739998
1553843491341,1.4940275,2.4182177000000005,9.282603,-0.13068973,0.015590503,0.10129856,7.2,33.84,-40.44
1553843491360,1.1468576000000001,2.2218869999999997,8.9186735,-0.12335935,-0.07359582,0.09335732,7.3799996,34.02,-40.2
1553843491381,1.0343267,2.1021732999999996,8.801354,-0.08854003,-0.10719341,0.08908126,6.8999996,33.719997,-40.26
1553843491400,1.2162915,2.2578009999999997,8.925857,-0.06288369,-0.119410716,0.067700975,6.8999996,33.84,-40.26
1553843491422,1.5921928,2.8970726000000004,9.385557,-0.10014647,-0.064432845,0.034714247999999996,6.54,34.2,-40.32
1553843491440,1.7286664,3.0000262,9.586677,-0.12824628,0.0125361765,0.004170988,6.2999997,34.079997999999996,-39.78
1553843491461,1.7262721,2.3870918999999997,9.586677,-0.07632273,0.08095308400000001,-0.030037466000000002,6.42,33.719997,-39.42
1553843491481,1.5778271000000001,1.6328955,8.923461999999999,0.04401773,0.07606616,-0.066078514,7.02,33.719997,-39.84
1553843491500,1.4150163999999998,1.5371244,8.55235,0.13320406,0.0021514674,-0.09356745,6.8999996,34.44,-40.02
1553843491520,1.3527653,2.0854135,8.561927,0.21322739999999998,-0.07298495599999999,-0.11006081,6.6,34.98,-40.02
1553843491540,1.3623424,2.82285,8.786988000000001,0.23216423,-0.09436524,-0.10883908,6.8999996,34.26,-39.6
1553843491561,1.6520496999999998,3.5171897000000003,9.340066,0.13686925,-0.017396221,-0.09112399,6.54,33.78,-40.14
1553843491580,2.2003386000000003,4.1181526,10.242707000000001,-0.028064372,0.07973135,-0.051417753,6.24,33.719997,-40.86
1553843491601,2.4469488,4.087027,10.601849000000001,-0.16489819,0.032694727,0.010279640999999999,6.12,33.66,-40.559998
1553843491620,2.2625897,2.9832664,10.072714,-0.18139154,-0.03022439,0.049985882,6.0,33.84,-40.26
1553843491641,2.0159793,1.8771113999999998,9.325700999999999,-0.10747685,-0.091921784,0.049375015999999994,5.7,33.78,-40.5
1553843491660,1.8172544999999998,1.6520496999999998,8.652909,-0.073879264,-0.13101715,0.018220888,6.24,34.2,-39.96
1553843491680,1.6544438999999997,1.8220432,8.487703999999999,-0.060440227,-0.09375438,-0.005602856,6.66,34.38,-39.6
1553843491700,1.7478206000000003,2.4349775,8.911489999999999,-0.031118697999999997,-0.019839682,-0.023317947999999998,6.12,34.32,-40.44
1553843491721,1.8507744,2.9138324,9.356826,-0.0024080307,0.028418673,-0.028815735,5.8199997,34.2,-40.26
1553843491740,1.7190893,2.6193366,9.380769,0.07944792,0.0736227,-0.0153767,6.12,34.26,-40.02
1553843491760,1.4748733,1.9226026999999999,8.856422,0.18940365,0.09744645,0.0029492574,6.42,33.6,-39.78
1553843491781,1.4198049,2.0710478,8.789383,0.26087487,0.064459726,0.010890506000000001,5.8199997,33.36,-39.96
1553843491800,1.4245936000000001,2.760599,8.734314999999999,0.24804673,0.032083865,0.013333966000000001,6.24,34.2,-40.02
1553843491821,1.6352897,3.4980354,9.047964,0.16435818,0.06690318,0.02066435,6.48,34.14,-38.94
1553843491840,1.9920366000000003,4.1037870000000005,9.797373,0.04890465,0.13104403,0.03104906,6.24,34.14,-38.7
1553843491861,2.2769554,4.216318,10.187639,-0.06960321,0.124324515,0.04143377,6.54,34.14,-39.239998
1553843491880,2.1237217999999998,3.3160705999999998,10.0368,-0.121526755,0.047355495,0.059759725,6.12,33.84,-39.48
1553843491900,1.7478206000000003,2.0973847,9.428655000000001,-0.07082493599999999,-0.044885155,0.040212035,6.24,33.12,-39.84
1553843491921,1.4221992,1.4940275,8.772623,0.0061440826,-0.118188985,0.009668776,7.14,33.18,-40.2
1553843491941,1.1372806,1.5730386,8.348836,0.06539801,-0.12796283,-0.017209295,7.5,33.78,-40.2
1553843491960,1.2881198,2.3990633,8.542772,0.06661975,-0.06626544,-0.033702657000000004,7.3199997,33.18,-39.12
1553843491981,1.6257126,3.5315554,9.196409,-0.025620911,0.028418673,-0.033091795,6.3599997,33.059998,-39.48
1553843492000,1.960911,4.3599744000000005,10.051166,-0.15695694,0.112718076,-0.015987566,5.7,33.36,-40.62
1553843492021,1.9992193999999999,3.9697077000000003,10.276228,-0.19421971,0.09500299,0.014555697,6.3599997,33.059998,-40.26
1553843492040,1.7789462,2.9066495999999997,9.833286,-0.13191147,0.030862134,0.021275215,7.2,33.36,-40.559998
1553843492060,1.4006507,1.5969813,8.842057,-0.016457931999999998,-0.07054149,0.009668776,7.14,33.899998,-40.559998
1553843492080,1.324034,1.3120626,8.28898,0.06661975,-0.12246504400000001,-0.011100643,6.54,34.26,-40.32
1553843492100,1.4389591,1.7119064,8.214757,0.12465194,-0.14262360000000002,-0.03553525,6.18,34.02,-40.44
1553843492120,1.6807808999999998,2.6935592,8.734314999999999,0.10388252,-0.07542842,-0.062413324000000006,6.2999997,33.42,-40.14
1553843492141,2.0710478,4.106180999999999,9.615408,-0.017068796,0.07850962,-0.060580727,6.3599997,33.719997,-40.14
1553843492160,2.2769554,4.4844766,10.35045,-0.13802011,0.18480018,-0.01904189,6.48,34.079997999999996,-39.899998
1553843492181,2.0447106,3.294522,10.1206,-0.12397022,0.16097642,0.015777428,6.7799997,33.42,-38.64
1553843492200,1.6688095,2.1476645,9.361614,-0.051277254,0.044912033,0.02432954,6.54,33.42,-39.84
1553843492220,1.4341706,1.7669748,8.7534685,0.0018680259,-0.083369665,0.013944831999999999,6.2999997,34.38,-41.1
1553843492241,1.3216397,1.8866886000000003,8.583475,0.03729821,-0.14384532,0.0066144490000000005,5.8799996,34.02,-40.68
1553843492260,1.4605076000000001,2.5762396,8.856422,0.0073658134999999994,-0.12063245,-0.0019376645000000001,6.0,33.42,-40.26
1553843492281,1.7741576000000001,3.4046587999999995,9.486116,-0.07265753,-0.04549602,-0.009268047,6.24,33.84,-39.78
1553843492300,1.9728824,3.6177492,9.840469,-0.13740925,0.036970787000000005,-0.0007159340299999999,6.24,34.2,-40.14
1553843492320,1.960911,2.9904492,9.773430000000001,-0.11969416,0.06812491,0.012112236,5.8799996,34.079997999999996,-40.2
1553843492340,1.7909175,2.1021732999999996,9.342461,-0.041503407,0.029640405,0.0011166617,5.8799996,33.6,-40.2
1553843492360,1.594587,1.6161355,8.7534685,0.05012638,-0.026559198,-0.018431026,6.2999997,34.32,-40.079997999999996
1553843492381,1.4365649,1.7645805,8.372779,0.1130455,-0.06015679,-0.019652756,7.3199997,35.399998,-39.18
1553843492400,1.5850098999999997,2.6001825000000003,8.676852,0.10266079,-0.051604677,-0.020263622,7.2,34.62,-39.48
1553843492420,1.8819,3.991256,9.483723,-0.038449082999999995,0.038192517999999995,-0.0007159340299999999,6.0,34.26,-40.5
1553843492440,2.0854135,4.2402606,10.221159,-0.13924184,0.1157724,0.03715771,6.12,34.079997999999996,-40.44
1553843492460,2.0016138999999997,3.2538195,10.158908,-0.12397022,0.10783115,0.06037059,6.6,33.3,-39.84
1553843492481,1.7262721,1.977671,9.512454,-0.032951295,-0.008844106,0.045709822000000004,7.14,33.42,-39.54
1553843492500,1.4245936000000001,1.3096683,8.636149000000001,0.067230605,-0.09803043,0.02555127,6.7799997,33.6,-39.719997
1553843492521,1.2522057,1.1109436000000001,8.176449,0.18634933,-0.13101715,0.007225314,6.72,33.78,-40.02
1553843492541,1.4413534,1.6257126,8.509253,0.28958556,-0.09803043,-0.023317947999999998,6.8399997,33.78,-40.5
1553843492560,1.6305011999999999,2.4182177000000005,8.858817,0.34395257,0.0039840629999999995,-0.053250343,6.24,33.3,-40.32
1553843492580,1.7143008000000002,3.1173458,9.100638,0.28775296,0.11638327,-0.04897429,6.12,33.12,-40.26
1553843492601,2.1237217999999998,3.981679,9.818921000000001,0.12953886,0.20068268,-0.016598431,6.2999997,33.6,-40.379996999999996
1553843492620,2.423006,5.1189594000000005,10.36721,-0.02684264,0.18052413,0.03104906,6.24,33.18,-40.5
1553843492641,2.2027327999999997,4.6640472,10.307352999999999,-0.14473964,0.065070584,0.10740721,6.2999997,32.579997999999996,-41.16
1553843492661,1.8723229,2.9904492,9.720756,-0.10381166,-0.01617449,0.13917221,6.72,32.94,-40.92
1553843492680,1.5275473999999998,1.908237,9.136553,-0.04394687,-0.16827993,0.095189914,6.8999996,33.059998,-40.739998
1553843492701,1.1947431999999998,1.4221992,8.356019,-0.007294953000000001,-0.24952501,0.014555697,7.3199997,32.82,-40.26
1553843492720,1.0798178999999999,1.3168511,8.028004,0.06478715,-0.16094956,-0.050806884000000004,7.259999799999999,32.94,-40.02
1553843492740,1.201926,1.8052831999999999,8.128563,0.11609982,-0.037554774,-0.10273043,6.3599997,32.82,-40.62
1553843492761,1.5012103,2.796513,8.576292,0.08189137,0.08095308400000001,-0.12288898,5.8199997,32.399998,-40.5
1553843492780,1.8866886000000003,4.182798,9.514847999999999,-0.09953561,0.17136115,-0.08806966,6.2999997,32.399998,-40.5
1553843492801,2.317658,5.4685235,10.599455,-0.3176145,0.2177869,-0.011711508999999998,6.7799997,33.059998,-40.2
1553843492820,2.2697724999999997,4.810098,10.810151,-0.34449255,0.13898528,0.09641164,6.18,33.3,-40.559998
1553843492841,1.8148602999999999,2.5020173,9.8237095,-0.19421971,0.0033731977000000003,0.12451144,5.7,33.18,-40.559998
1553843492860,1.4341706,1.3168511,8.990502000000001,-0.09525955,-0.15545176,0.0707553,6.7799997,33.239998,-39.239998
1553843492880,1.2665714,0.69673395,8.142928999999999,-0.032951295,-0.25624454,0.0011166617,7.14,33.6,-39.96
1553843492900,1.201926,0.60335726,7.8364615,0.03729821,-0.22631213,-0.05386121,7.08,33.84,-39.6
1553843492920,1.3360053,1.2641771000000002,8.087860000000001,0.15397346,-0.11452380000000001,-0.12899764,6.72,33.54,-39.239998
1553843492941,1.4676905,2.1069617000000003,8.403905,0.20467529,-0.00029199357999999995,-0.14793447,5.8799996,33.48,-40.92
1553843492960,1.7693691000000003,3.5698638,9.29218,0.086167425,0.11760499,-0.10883908,5.8199997,33.48,-40.68
1553843492981,2.4182177000000005,5.4421870000000006,10.728745,-0.14779396,0.2141217,-0.036756985,5.94,33.78,-39.719997
1553843493000,2.5738453999999997,5.813299,11.25788,-0.31517106,0.21289998,0.063424915,5.7,33.899998,-39.78
1553843493020,2.2147042999999997,3.2729738,10.352844000000001,-0.19238712,0.13776354,0.1269549,5.7,33.66,-39.719997
1553843493040,1.7573976999999998,1.4389591,9.299363,-0.035394754,-0.059545923,0.10190942,6.06,34.26,-40.079997999999996
1553843493060,1.4054393,0.65842557,8.255460000000001,0.04401773,-0.25380108,0.04509896,6.18,34.739998,-39.66
1553843493081,1.2498114,0.47406640000000005,7.7502675000000005,0.10388252,-0.29472902,-0.0043811253,6.0,34.26,-39.78
1553843493100,1.2546,0.95531565,7.8268843,0.20528615,-0.19149281,-0.07646323,6.2999997,34.32,-40.739998
1553843493120,1.5036045,2.0494993000000004,8.415875999999999,0.28958556,-0.020450545,-0.1259433,6.8399997,34.02,-39.84
1553843493140,1.664021,3.265791,8.978531,0.21872519,0.15670037,-0.11189341,6.12,33.6,-39.66
1553843493160,2.1476645,4.70475,10.321719,0.013474465,0.28192776,-0.050196017999999995,5.2799997,33.42,-40.379996999999996
1553843493180,2.5906053,6.002447,11.087887,-0.22476299,0.26787785,0.048764154000000004,5.16,33.12,-40.739998
1553843493200,2.4206119,4.992063,10.790997,-0.2559171,0.15242432,0.14039394,5.8799996,33.54,-41.219997
1553843493220,1.8172544999999998,2.1476645,9.646533,-0.09159436,-0.014341895,0.17460239,6.2999997,33.239998,-40.02
1553843493240,1.4652961000000002,1.2162915,8.947405,-0.019512258,-0.1829407,0.11840279,6.3599997,33.059998,-39.719997
1553843493260,1.2282629999999999,0.7709564999999999,8.171659,-0.006684086999999999,-0.28067914,0.04632069,6.54,33.66,-40.14
1553843493281,1.1492518999999999,0.7398309000000001,7.7957587,0.06906319999999999,-0.21959262,-0.0434765,6.42,33.48,-40.079997999999996
1553843493300,1.2761483999999998,1.2929084,7.963358,0.1674125,-0.09314351,-0.10395216,6.2999997,33.54,-40.379996999999996
1553843493321,1.5083932,2.5307484000000002,8.609812,0.22666644,0.06995751,-0.12899764,6.54,34.44,-39.96
1553843493340,1.7741576000000001,3.8643596,9.478933999999999,0.12892799,0.17746979,-0.10273043,6.06,34.5,-40.14
1553843493361,2.2218869999999997,5.317684,10.594666499999999,-0.10320080000000001,0.25382793,-0.017820163,5.7,33.18,-40.379996999999996
1553843493380,2.3296294,5.2841644,10.838882,-0.21437827,0.21167825,0.062203187,6.2999997,32.52,-40.14
1553843493401,2.1045675,3.545921,10.077502,-0.16611992,0.09622472,0.13672875,6.96,33.42,-40.559998
1553843493420,1.7454262999999999,1.8986599999999998,9.316123,-0.06288369,-0.102306485,0.11779192,6.66,33.54,-39.96
1553843493441,1.5012103,1.1875603000000001,8.724737,-0.029896967000000003,-0.25380108,0.053651072,6.12,33.059998,-39.239998
1553843493460,1.3431882,0.8978530999999998,8.260247999999999,0.0030897565,-0.2550228,-0.022096219,6.48,32.88,-37.2
1553843493480,1.3024855,1.1300976999999999,8.063917,0.07944792,-0.14506707,-0.08562621,7.14,32.76,-34.86
1553843493500,1.4054393,1.8076775,8.406299,0.16802338,-0.015563624,-0.12777591,7.56,33.059998,-34.62
1553843493520,1.637684,2.9042554,8.921068,0.20039923,0.10355510000000001,-0.13021936,7.02,32.579997999999996,-35.16
1553843493540,1.8986599999999998,4.0295644,9.529214,0.09410868,0.16464162,-0.09112399,6.48,32.7,-36.18
1553843493560,2.2817439999999998,4.965726,10.395941,-0.10686599,0.18113498,-0.0153767,6.54,33.12,-36.54
1553843493580,2.4780743,4.9992456,10.695226,-0.23759116,0.1298223,0.07014443,6.48,33.48,-36.3
1553843493601,2.2027327999999997,3.615355,10.211582,-0.19849578,0.025364347000000002,0.13123095,6.06,33.239998,-35.52
1553843493620,1.7406378,1.7813405,9.304152,-0.09953561,-0.12429764,0.11718106,6.8999996,32.82,-35.399998
1553843493641,1.4820561,1.1444633,8.571504,-0.06715974,-0.21409483,0.05609453,7.5,33.18,-35.76
1553843493660,1.2737542,0.9481328000000001,8.104619999999999,-0.027453506000000003,-0.20371011,-0.017820163,6.7799997,33.84,-37.92
1553843493680,1.2546,1.0917894,8.028004,0.08128051,-0.11513466,-0.07951755,5.94,34.5,-40.32
1553843493701,1.3982565,1.6999351000000003,8.473338,0.21261653,-0.022283142000000002,-0.1173912,5.1,34.8,-40.98
1553843493720,1.5514901,2.6911650000000003,9.014444000000001,0.25415537,0.036970787000000005,-0.1155586,5.22,34.02,-41.52
1553843493740,1.9106313000000001,4.0559015,9.869201,0.14175616,0.09011607,-0.08073928,5.4,33.42,-41.64
1553843493761,2.3152637,5.1165650000000005,10.577906,-0.05799677,0.13959615,-0.010489778,5.52,33.96,-41.219997
1553843493780,2.3775147999999997,4.771789599999999,10.544386,-0.13130060000000002,0.104165964,0.056705399999999996,6.18,34.32,-40.86
1553843493800,2.1787900000000002,3.1963567999999998,9.847652,-0.04639033,-0.019228818,0.093968175,6.06,33.719997,-40.8
1553843493821,1.8100717,1.8914771000000001,8.92825,-0.00057543506,-0.1969906,0.06281405,5.52,33.42,-40.26
1553843493840,1.4964218,1.3862851,8.250671,-0.035394754,-0.2476924,0.012112236,6.0,33.78,-39.18
1553843493860,1.3216397,1.23784,8.078283,-0.029286101000000002,-0.17866464,-0.03064833,5.94,33.42,-39.36
1553843493881,1.3288225,1.5562786,8.116591,0.05256984,-0.047328617,-0.06363506,5.1,33.239998,-40.92
1553843493900,1.489239,2.2003386000000003,8.609812,0.14175616,0.06384886,-0.06913284,5.04,33.18,-41.04
1553843493920,1.7095122,2.9162266,9.136553,0.18757106,0.14570479999999997,-0.05874813,5.46,33.719997,-40.62
1553843493941,1.8819,3.6632404000000003,9.466963,0.14725395,0.18846536,-0.031870063,5.52,33.54,-40.44
1553843493960,2.1404817000000005,4.065479,9.821315,0.018972252,0.21351086,0.027994731000000002,5.4,32.64,-40.2
1553843493980,2.4373717,4.735875599999999,10.245102000000001,-0.10014647,0.19946094,0.08236174,5.04,33.059998,-40.5
1553843494000,2.3416007000000003,4.3815230000000005,10.26665,-0.11969416,0.11760499,0.12756577,5.16,33.54,-40.92
1553843494020,2.0447106,2.5882110000000003,9.656111,-0.055553306,0.036970787000000005,0.13611788,6.0,33.42,-40.5
1553843494041,1.6520496999999998,1.5730386,9.009656,-0.020123122,-0.1126912,0.063424915,6.42,33.6,-40.079997999999996
1553843494060,1.3743136999999999,1.1708003,8.363202000000001,0.0030897565,-0.17744292,-0.0007159340299999999,6.72,33.719997,-40.68
1553843494081,1.2162915,1.1516461,8.05434,0.094719544,-0.14262360000000002,-0.052028615,6.06,33.78,-41.28
1553843494100,1.3048798000000001,1.6568381999999997,8.320105,0.20039923,-0.042441695999999994,-0.08684793,5.7599998,33.719997,-40.98
1553843494120,1.5012103,2.5522968999999995,8.865999,0.28469864,0.06384886,-0.11800206,6.42,33.719997,-40.68
1553843494141,1.6305011999999999,3.4645156999999998,9.081485,0.21872519,0.17258286,-0.09112399,5.8799996,33.12,-40.98
1553843494160,1.9321798,4.338426,9.790189999999999,0.039130807000000004,0.24344324,-0.036756985,5.3399997,32.64,-40.5
1553843494180,2.4277947,5.5283804000000005,10.508472,-0.16978511,0.20495872,0.048764154000000004,5.1,32.94,-40.62
1553843494201,2.4804687999999997,5.3081074,10.652128,-0.24125634,0.06995751,0.14344826,5.3399997,33.12,-40.739998
1553843494220,2.0997790000000003,3.4788813999999997,10.067925,-0.16917424,-0.048550345,0.17765673,5.7,32.94,-40.559998
1553843494240,1.5490957,1.6448668000000002,9.177256,-0.11480723,-0.22325781,0.108018085,6.0,33.18,-40.5
1553843494261,1.158829,1.1229149,8.300951,-0.12213762,-0.27823567,0.027383868,5.94,32.88,-39.84
1553843494280,1.0343267,0.85236186,7.8125186,-0.049444657,-0.19760147,-0.03553525,6.12,32.76,-40.26
1553843494301,1.175589,1.2234744,7.781393,0.09960647,-0.06321111,-0.094789185,6.2999997,33.18,-41.219997
1553843494320,1.3934678999999999,1.9800651999999999,8.176449,0.19306885,0.032083865,-0.12472158,5.7599998,33.42,-41.04
1553843494341,1.7047237000000002,3.3448019999999996,8.921068,0.12770627,0.13593096,-0.11311514,6.18,33.18,-40.5
1553843494360,2.1237217999999998,4.9393888,10.2091875,-0.07632273,0.22939335,-0.071576305,6.42,32.399998,-39.6
1553843494380,2.4852571,5.8947043,11.090281,-0.28646037,0.26482353,0.031659923,6.18,32.52,-39.96
1553843494400,2.3320236,4.403071400000001,10.628186,-0.22903903,0.17930238,0.11962452,6.06,33.12,-40.92
1553843494420,1.9010541,2.1883671000000002,9.512454,-0.061661962,-0.003957185,0.1269549,6.2999997,33.48,-40.68
1553843494441,1.4916332,1.1827718,8.686428999999999,-0.010349279,-0.23180991,0.06464665,6.6,33.54,-40.86
1553843494460,1.3144568,0.8451790000000001,8.253065,-0.0030188959999999996,-0.29106385,0.013944831999999999,6.3599997,33.54,-40.86
1553843494481,1.2761483999999998,1.0702409,8.063917,0.039741673,-0.21165137,-0.05630467,6.0,34.02,-40.32
1553843494500,1.3671309,1.7669748,8.262642,0.10266079,-0.06504371,-0.1015087,6.24,33.96,-40.14
1553843494521,1.6281068,2.9473522,8.861211,0.13014974,0.10599856,-0.11189341,6.0,33.48,-40.8
1553843494540,1.8292258999999997,4.07745,9.586677,0.047072057,0.19396316,-0.07585236,5.58,33.719997,-40.559998
1553843494560,2.1285102000000005,4.829252200000001,10.281016000000001,-0.09587041,0.20923479,-0.016598431,6.0,33.36,-40.379996999999996
1553843494581,2.2937152000000003,4.697566999999999,10.556357,-0.21010222,0.12065932,0.06709011,6.66,33.18,-39.42
1553843494600,2.1668186,3.5531040000000003,10.161303,-0.19544145,-0.0027354546,0.121457115,6.24,33.059998,-38.82
1553843494621,1.8483802,2.1045675,9.227535000000001,-0.13130060000000002,-0.13651493,0.122678846,6.0,33.36,-40.44
1553843494640,1.6496553,1.5443072,8.727132000000001,-0.10014647,-0.17499945,0.08175088,6.24,33.719997,-41.1
1553843494660,1.5586729,1.2593886,8.473338,-0.047001194,-0.16522561,0.014555697,6.0,33.54,-40.32
1553843494681,1.4557191,1.1947431999999998,8.365596,0.06784147,-0.10291736,-0.04775256,5.3399997,33.78,-39.84
1553843494700,1.4485363000000002,1.5012103,8.475733,0.17901894,-0.021672277,-0.078906685,5.22,33.6,-39.719997
1553843494721,1.5275473999999998,2.3056867000000003,8.858817,0.27309218,0.08706174,-0.090513125,6.18,33.36,-39.3
1553843494740,1.5826156,3.1772027,9.047964,0.2535445,0.14448306,-0.07401976,6.54,33.719997,-39.719997
1553843494760,1.7933118000000001,4.0559015,9.495694,0.12037589,0.18357845,-0.037978712000000005,6.48,33.66,-40.5
1553843494780,2.135693,4.936994599999999,10.130177,-0.067770615,0.1933523,0.0060035832999999995,6.7799997,33.18,-40.02
1553843494800,2.3583608,5.073468,10.455798,-0.18811107,0.13043317,0.050596748,6.54,33.3,-39.719997
1553843494821,2.1452703,3.4214187000000007,10.115811,-0.20093924,-0.006400645999999999,0.11473759,5.7599998,33.48,-40.739998
1553843494840,1.8100717,2.0518935000000003,9.464568,-0.16795251,-0.10658255,0.11412673400000001,5.7599998,33.239998,-40.32
1553843494860,1.515576,1.3383996,8.688824,-0.15084828,-0.17622119,0.06281405,6.48,33.96,-39.66
1553843494880,1.3096683,1.1708003,8.260247999999999,-0.08548570400000001,-0.17072341,0.009668776,6.18,34.02,-40.02
1553843494900,1.2641771000000002,1.350371,8.169266,0.036076482,-0.10902601,-0.04103304,5.58,33.78,-40.14
1553843494921,1.3024855,1.7502148999999998,8.413482,0.16802338,-0.042441695999999994,-0.08012842,6.18,34.5,-39.84
1553843494940,1.4365649,2.3631492,8.775017,0.22422297,0.024753481,-0.08990226,6.18,34.02,-39.719997
1553843494960,1.6089526,3.2801563999999996,9.318518,0.14908655,0.099279046,-0.086237065,6.0,33.96,-40.14
1553843494980,1.9633054,4.5539107,10.070319999999999,-0.026231775,0.19090883,-0.045309097,6.42,33.719997,-40.379996999999996
1553843495001,2.2530127,4.7502413,10.460587,-0.1276354,0.20495872,0.030438194,7.02,33.66,-40.02
1553843495020,2.2003386000000003,3.440573,10.111023,-0.08059879,0.086450875,0.09030299,6.6,33.899998,-39.719997
