TimeStamp,Ax,Ay,Az,Gx,Gy,Gz,Mx,My,Mz
1553844700132,4.8579836,3.512401,9.703996,-0.6389296,-0.30694634,0.48614368,5.58,43.62,-43.2
1553844700151,3.6488747999999998,2.0087965,9.811738,-0.56134975,0.025364347000000002,0.38474002,5.8799996,43.559998,-42.3
1553844700171,2.2362528,0.48603779999999996,9.577099,-0.037838212999999996,0.07117924,0.018220888,6.0,43.98,-42.0
1553844700191,1.4868447,-0.052674048,8.930645,0.27920082,0.08156395,-0.2701075,6.18,44.64,-42.239998
1553844700211,1.6879636999999998,-0.16041641,8.55235,0.3769393,0.027807808,-0.35257432,6.18,44.52,-41.82
1553844700231,2.2673783,-0.028731298,8.063917,0.41359118,0.10111163599999999,-0.28171396,4.98,44.579997999999996,-43.079997999999996
1553844700252,2.8779182,0.6656084,8.688824,0.37571755,0.22145209,-0.18886243,4.92,44.579997999999996,-45.78
1553844700271,3.7590114999999997,3.5315554,9.574705,0.13870184,0.12493538,0.017610023,5.1,43.98,-46.86
1553844700291,4.989669,4.6496816,10.182851,-0.48743504,-0.35642642,0.40062252,4.56,43.62,-47.579997999999996
1553844700311,4.7286925,3.3136763999999994,9.727939,-0.85151076,-0.16827993,0.5148543,5.1,43.739998,-47.94
1553844700332,3.0790374,1.0558752,10.012857,-0.44528535,-0.003957185,0.23263459,5.46,44.82,-47.16
1553844700351,1.9202085,0.27534159999999996,9.361614,0.06600887,-0.06626544,-0.13510629999999998,5.4,45.6,-47.219997
1553844700371,1.3934678999999999,-0.3328042,8.595447,0.31157670000000004,-0.03511131,-0.3440222,5.16,45.18,-47.039997
1553844700392,1.7214836,-0.09577099,7.9944835,0.43802583,0.07301183,-0.31592238,4.7999997,44.579997999999996,-46.86
1553844700411,2.2817439999999998,0.08858817,7.9489923,0.47589946,0.21228911,-0.25178155,4.62,44.64,-47.219997
1553844700431,2.9018610000000002,0.45970076,8.842057,0.38976747,0.30697325,-0.13938233,4.56,44.64,-46.86
1553844700455,4.209135,4.312089,10.032011,-0.009738414,-0.07298495599999999,0.14405912,4.2,43.86,-47.52
1553844700472,5.305713,4.0559015,9.828498,-0.6768033,-0.47310168,0.50630224,4.56,43.739998,-47.64
1553844700491,4.264203500000001,2.6025767,9.761458,-0.70001614,-0.096197836,0.45865473,5.16,44.16,-45.899998
1553844700512,2.5211713,0.7805335999999999,9.72315,-0.19299799,0.03758165,0.12023538,5.3399997,44.46,-45.3
1553844700532,1.4413534,0.08858817,9.160496,0.15641694,-0.008844106,-0.23956424,5.3399997,45.12,-45.36
1553844700552,1.3886794,-0.18435916,8.640938,0.26392922,-0.0027354546,-0.35501775,5.64,45.719997,-46.02
1553844700571,1.9393626,0.07422252,8.049552,0.34089822,0.07850962,-0.3189767,5.22,45.3,-47.039997
1553844700591,2.7366562,0.24900457,8.245882,0.39098918,0.23672372,-0.20291232,4.02,44.879996999999996,-47.219997
1553844700612,3.46691,0.7996878000000001,9.284998,0.3207397,0.17136115,-0.12899764,3.8999998999999996,44.7,-47.7
1553844700631,4.2665977,4.2833575999999995,10.012857,0.07333925,-0.17683205,0.0725879,4.68,43.86,-48.18
1553844700651,5.1764220000000005,4.5898247,9.917086999999999,-0.40435737,-0.43706062,0.3658032,4.56,43.5,-48.48
1553844700672,4.735875599999999,3.6919718,9.6585045,-0.6761924,-0.054659000000000006,0.49225232,3.8999998999999996,43.86,-47.82
1553844700691,2.9569294,1.1612233,9.828498,-0.27485394,0.12554625,0.2289694,3.78,44.82,-47.28
1553844700711,1.4676905,0.10774237,9.119793,0.15458433,0.10477682,-0.19497108,4.56,45.3,-47.1
1553844700731,1.5036045,-0.19633053,8.767835,0.2431598,0.019255694,-0.34829825,4.68,45.539997,-46.739998
1553844700752,2.0830189999999997,0.12689656,8.020821,0.30363548,0.047355495,-0.2945421,3.78,45.059998,-47.219997
1553844700772,2.7246847,0.22745611,8.346442,0.30668979999999996,0.17075028,-0.20291232,3.9599998,44.46,-47.52
1553844700792,3.397476,1.4293821000000002,9.198803999999999,0.23460768,0.16403076,-0.10089783,4.68,44.64,-47.219997
1553844700811,4.1181526,3.7661943,9.876384,-0.07571186,-0.17194512,0.13672875,4.74,44.579997999999996,-46.8
1553844700831,4.9202347,3.7159145,9.792584,-0.5662366,-0.3234397,0.36152717,4.44,43.68,-47.1
1553844700853,3.8811195,2.4206119,9.73991,-0.5509649999999999,-0.043663427000000005,0.31815574,5.16,43.559998,-46.98
1553844700872,2.439766,0.7326481,9.696813,-0.13313319,0.02108829,0.05914886,5.64,44.46,-46.559998
1553844700891,1.6903580000000002,0.33040990000000003,9.126975999999999,0.12465194,0.029029539,-0.20107973,4.56,44.879996999999996,-47.16
1553844700912,1.8459859,0.105348095,8.581081,0.24621412,0.030862134,-0.29698557,4.2599998,45.3,-47.1
1553844700932,2.3032923,0.35914123,8.059128999999999,0.3207397,0.11943759,-0.23406646,4.38,45.539997,-47.1
1553844700952,2.9162266,0.2657645,8.506859,0.34945035,0.19090883,-0.16870387,3.6,45.0,-47.579997999999996
1553844700976,3.545921,2.5092,9.478933999999999,0.23644027,0.07423357,-0.05630467,3.12,44.34,-48.18
1553844700991,4.187587000000001,4.1157584,9.80695,-0.015847066,-0.12796283,0.12878749,3.72,43.8,-48.0
1553844701012,4.7909440000000005,3.7422516000000003,9.703996,-0.6199928000000001,-0.26662925,0.4323875,4.3199997,43.559998,-48.0
1553844701032,3.756617,2.2554069,9.73991,-0.5650149,-0.009454971999999999,0.35053158,4.3199997,43.98,-47.82
1553844701052,2.3056867000000003,0.38068968,9.648928,-0.062272824000000004,0.018644828000000002,0.04143377,5.1,45.0,-46.44
1553844701071,1.6257126,0.035914123,9.024022,0.20650789,0.009481851,-0.23284473,5.04,45.539997,-46.98
1553844701092,1.908237,0.07422252,8.482916000000001,0.28408778,-0.020450545,-0.263388,4.2599998,45.719997,-47.76
1553844701112,2.3368123,0.47885495,7.9585695,0.32318315,0.07850962,-0.20779926,3.78,45.84,-46.98
1553844701131,2.9425638,0.38308397,8.420665,0.31035498,0.1701394,-0.13877149,3.3,45.78,-47.46
1553844701151,3.3687446000000003,0.88109314,9.047964,0.27309218,0.15914384,-0.1173912,3.4199998,45.239998,-47.82
1553844701171,4.276175,4.228289,9.972155,-0.0042406265000000005,-0.116356395,0.09763337,3.4199998,44.16,-47.76
1553844701191,4.860378,3.9721019999999996,9.75667,-0.54485637,-0.28678778,0.39207040000000004,4.3199997,43.8,-48.66
1553844701212,3.6033835,2.308081,9.768641,-0.52286524,0.018033965,0.35664022,4.3199997,44.52,-48.78
1553844701232,2.2769554,0.55307746,9.675264,-0.06471629,0.057129342,0.06037059,4.62,45.36,-48.12
1553844701252,1.6592325,0.21548474,9.134158,0.15336262,0.022920884,-0.19191676,4.98,45.059998,-47.879996999999996
1553844701271,1.9297855,0.29210153,8.518829,0.19184712,-0.021672277,-0.22612521,5.16,44.579997999999996,-45.84
1553844701291,2.423006,0.58420306,7.975329400000001,0.21750346,0.08889433,-0.1436584,4.2599998,45.059998,-46.14
1553844701312,2.892284,0.39744959999999996,8.346442,0.24621412,0.17258286,-0.1015087,3.6,45.12,-47.82
1553844701331,3.2538195,0.7685622,9.320911,0.25232276,0.1298223,-0.12227812,4.3199997,44.399998,-47.82
1553844701352,3.9529476000000003,3.8739367,9.869201,0.107547715,-0.07481755,-0.015987566,4.44,44.16,-48.36
1553844701371,4.6951730000000005,4.173221,9.96976,-0.39519440000000006,-0.3148876,0.2692865,4.7999997,43.44,-46.86
1553844701392,3.981679,3.2179053,9.699207000000001,-0.6511469,-0.057713325999999995,0.37740964,4.7999997,44.16,-47.039997
1553844701411,2.6983478,0.7350424,9.775824,-0.29012555,0.09133779,0.1709372,3.6599998,46.14,-47.94
1553844701432,1.7741576000000001,0.15323359,9.196409,0.11182377,0.057740204,-0.16626042,3.0,46.44,-46.98
1553844701455,2.0662591,-0.052674048,9.071907000000001,0.18634933,-0.15300829999999999,-0.27682704,3.9599998,45.42,-46.68
1553844701472,2.3918805,0.25858167,8.363202000000001,0.20406443,-0.17072341,-0.24567289999999997,4.02,45.0,-46.02
1553844701493,2.8563697,0.43575802,7.915472500000001,0.14542136,0.07728789999999999,-0.14671272,3.3,44.7,-45.66
1553844701513,3.2298767999999995,0.6344828,8.705584,0.15519520000000003,0.12737885,-0.1259433,3.6,44.04,-46.68
1553844701531,3.6967604,2.0878077,9.627379,0.15947126,-0.059545923,-0.11616947,3.6599998,43.68,-46.079997999999996
1553844701551,4.309695,3.8452053,10.178061999999999,-0.14107445,-0.28067914,0.10190942,3.6,43.8,-45.719997
1553844701572,4.1947694,3.2777622,10.034406,-0.40130305,-0.15972783,0.28028208,3.8999998999999996,44.04,-46.68
1553844701591,3.0215747000000004,1.515576,10.288198,-0.32433403,0.014979636999999999,0.16849375,3.36,45.0,-47.1
1553844701611,2.3799092999999996,0.80208206,9.91948,-0.08365311,0.108442016,-0.022096219,3.1799998,45.66,-47.399998
1553844701631,2.49244,0.62251145,9.031203999999999,-0.04455773,0.20679133,-0.037978712000000005,3.54,45.6,-46.86
1553844701651,2.8994668,1.1109436000000001,8.284191,-0.16123301,0.21228911,0.095189914,2.9399998,45.6,-46.44
1553844701672,3.3304362000000003,1.0726352,7.8292785,-0.19605231,0.12004846,0.22041728,3.3,45.78,-47.16
1553844701691,3.4788813999999997,0.68236834,8.087860000000001,0.07395013,0.063237995,0.19659354,4.5,45.84,-46.26
1553844701711,3.0862203,0.6105401,8.669669,0.38488049999999996,0.070568375,0.109850675,4.68,45.719997,-46.2
1553844701731,2.7031362,1.0295382,9.514847999999999,0.26698354,0.018033965,0.026773002,4.7999997,45.12,-47.039997
1553844701752,2.803696,1.6089526,9.510059,-0.08243138,-0.055269867,-0.008657183,4.92,45.059998,-47.1
1553844701772,3.1149516,1.960911,9.170073,-0.10564425599999999,0.052242417,0.00905791,5.16,45.539997,-47.46
1553844701791,3.2897336000000004,2.0782306,9.076694999999999,-0.0017971654999999998,0.079120494,0.027383868,5.8199997,44.64,-46.44
1553844701811,3.172414,1.924997,9.100638,0.1710777,-0.07481755,0.010890506000000001,6.8399997,44.82,-45.12
1553844701832,2.9856608,1.5778271000000001,8.882759,0.16130385,-0.12918456,-0.019652756,6.18,44.76,-44.94
1553844701852,2.8659470000000002,1.5490957,8.786988000000001,0.08372397,-0.04977208,-0.033091795,6.24,43.8,-45.899998
1553844701872,2.9234095,1.664021,8.966559,0.029967828,-0.011287568000000001,-0.04775256,5.46,44.1,-46.2
1553844701892,2.9665065,1.5993756000000001,9.110215,-0.007294953000000001,-0.047328617,-0.053250343,5.58,44.04,-45.42
1553844701912,2.9904492,1.3120626,9.457385,-0.010349279,-0.10413908,-0.08562621,5.7,43.2,-44.64
1553844701931,3.031152,1.0870007,9.574705,0.014696196000000002,-0.15789524,-0.13021936,5.7599998,43.62,-45.0
1553844701952,3.172414,1.1827718,9.469357,0.0061440826,-0.12246504400000001,-0.12044552,3.6,44.46,-47.039997
1553844701972,3.0814316,1.350371,9.069513,-0.010960144,-0.038776506,-0.08684793,2.8799999,44.46,-47.46
1553844701991,3.0048149,1.2593886,8.858817,0.018972252,0.052853283,-0.07218716,3.0,44.219997,-48.3
1553844702012,2.9617178,1.2546,8.858817,0.10876945,0.11088548599999999,-0.09295659,4.38,44.82,-46.32
1553844702033,3.110163,1.3647367,9.028810499999999,0.15519520000000003,0.10233337,-0.090513125,4.3199997,44.879996999999996,-45.78
1553844702052,3.2298767999999995,1.3647367,9.385557,0.14236704,0.08095308400000001,-0.071576305,3.6599998,44.1,-48.0
1553844702072,3.275368,1.5730386,9.601042,0.11243464,0.033916462,-0.05630467,3.6599998,44.399998,-48.12
1553844702092,3.3519847,2.7127132,9.610619999999999,0.0018680259,-0.023504874,0.013333966000000001,3.06,43.559998,-47.7
1553844702111,3.5578922999999993,2.7510218999999996,9.368797,-0.1630656,-0.07237409,0.10496375,3.06,43.32,-47.399998
1553844702131,3.4621215,2.0255566000000003,9.27542,-0.19544145,-0.038165636,0.13550702,3.78,43.68,-47.76
1553844702151,2.9928436,0.8571504000000001,9.182044,0.0043114866,0.048577222999999996,0.04143377,3.8999998999999996,44.94,-48.3
1553844702171,2.657645,0.5794145,9.024022,0.15153001,0.047355495,-0.04775256,3.9599998,44.76,-47.64
1553844702191,2.6504622,0.8930645,8.882759,0.15458433,0.029029539,-0.054472078,3.48,44.64,-47.219997
1553844702211,2.9593236000000003,1.5850098999999997,8.959375999999999,0.06051109,0.026586076,-0.0043811253,3.06,45.0,-47.34
1553844702231,3.2993107000000004,2.2793495999999998,9.227535000000001,-0.051888116,0.017423097,0.049985882,2.7,44.82,-48.42
1553844702252,3.572258,2.7773588,9.598647999999999,-0.23392597,-0.055269867,0.1465026,3.24,44.7,-48.96
1553844702271,3.6800002999999997,2.52596,9.670475999999999,-0.35548812,-0.103528224,0.19353922,3.84,44.7,-48.239998
1553844702292,3.3902931000000005,1.6257126,9.577099,-0.37442496,-0.07115236,0.18437624,3.84,44.94,-48.059998
1553844702312,2.762993,0.7948991999999999,9.203592,-0.19849578,-0.06809804,0.029827327999999997,4.14,44.94,-46.26
1553844702331,2.2817439999999998,0.16759923,8.791777,-0.033562157,-0.032056987,-0.09173486,4.08,44.7,-45.36
1553844702352,2.3655436,0.10774237,8.284191,0.14419962,0.021699157,-0.16626042,3.9599998,44.579997999999996,-46.739998
1553844702372,2.7725701000000003,0.6273,8.12138,0.26148576,0.09866817,-0.14793447,4.08,45.239998,-47.1
1553844702391,3.0646717999999997,0.86912173,8.363202000000001,0.28408778,0.08034222,-0.12716503,3.84,45.3,-47.76
1553844702412,3.3591676,0.84996754,8.937828,0.29447249999999997,0.026586076,-0.14304753,4.62,44.219997,-46.559998
1553844702431,3.6440864,1.3934678999999999,9.933846,0.33356783,-0.030835256000000002,-0.19863628,4.2599998,44.52,-46.5
1553844702451,3.8380224999999997,3.7278860000000003,10.113417,0.21200567,-0.052826405,-0.12533244,2.8799999,44.7,-48.18
1553844702472,4.07745,4.644893,9.938635000000001,-0.18811107,-0.100473896,0.1269549,3.1799998,43.86,-48.0
1553844702492,3.7326744,2.9832664,9.277814999999999,-0.46116779999999996,-0.021672277,0.2924994,3.84,43.02,-46.86
1553844702512,3.0048149,1.2258687,9.3831625,-0.26019317,0.10050077,0.1709372,4.56,43.68,-45.6
1553844702531,2.432583,0.44054657,9.234717999999999,0.053180705999999994,0.06629232,0.0066144490000000005,4.7999997,44.28,-44.879996999999996
1553844702551,2.3655436,0.21069619,8.856422,0.120986745,-0.042441695999999994,-0.058137268,4.08,44.04,-45.6
1553844702572,2.5810282000000004,0.45491222,8.322499,0.10938031,-0.024726603,-0.04469823,3.12,44.52,-47.34
1553844702592,2.813273,0.7996878000000001,8.293768,0.10693685,0.089505196,-0.022707082000000003,3.0,44.46,-47.46
1553844702611,3.0957972999999996,1.0247495999999998,8.865999,0.12343021,0.07850962,-0.060580727,2.9399998,44.399998,-47.1
1553844702631,3.4046587999999995,1.960911,9.514847999999999,0.09777387,0.004594928,-0.07707409,3.48,44.64,-46.32
1553844702651,3.929005,3.6919718,9.883567,-0.05372071,-0.08520226,0.053040206,4.38,44.219997,-46.98
1553844702671,4.168432,3.7087317000000004,9.742303999999999,-0.3701489,-0.12551937,0.23080198,3.78,44.04,-48.6
1553844702691,3.5698638,2.1644243999999997,9.761458,-0.49171108,-0.04121997,0.25584748,3.06,44.399998,-48.899998
1553844702712,2.7222904999999997,0.6105401,9.330489,-0.25347364,-0.030835256000000002,0.10007682400000001,3.06,45.12,-48.18
1553844702732,2.1572416000000003,-0.22506183,8.786988000000001,0.04401773,-0.020450545,-0.09417831,4.02,44.76,-44.76
1553844702751,2.2314641,-0.20111908,8.162083,0.24254893,0.0052057933,-0.19252762,4.02,44.879996999999996,-45.059998
1553844702771,2.5522968999999995,0.39984390000000003,7.944203999999999,0.3396765,0.09683557599999999,-0.16687128,3.54,45.96,-47.879996999999996
1553844702792,2.9904492,0.90503585,8.305738999999999,0.32501575,0.15181345,-0.11616947,3.24,45.78,-47.579997999999996
1553844702811,3.4429672,1.2258687,9.421472,0.23521855,0.11516154,-0.105173886,3.12,44.94,-47.399998
1553844702831,3.8787252999999997,3.265791,10.204399,0.06600887,-0.027170066,-0.03981131,3.72,44.1,-46.44
1553844702852,4.355186,4.309695,10.151725,-0.33655134,-0.20065579,0.167272,3.48,43.559998,-47.34
1553844702871,4.0798445,3.1341057,9.670475999999999,-0.5509649999999999,-0.104749955,0.26134524,3.4199998,44.28,-48.42
1553844702892,2.9497466,1.3551594999999999,9.567522,-0.28829297,0.0015406022,0.13428527,3.84,45.12,-47.52
1553844702912,2.2218869999999997,0.34956414,9.141341,0.0037006216999999997,-0.021061412999999998,-0.058137268,3.6599998,45.42,-47.76
1553844702932,2.1332988999999998,-0.18914771,8.583475,0.12770627,-0.058935057,-0.15526484,3.6599998,45.059998,-46.62
1553844702951,2.5068057,-0.035914123,8.004061,0.23155336,0.014979636999999999,-0.13938233,4.44,45.239998,-45.3
1553844702972,2.9066495999999997,0.531529,8.073495,0.29325077,0.14326134,-0.11311514,4.02,44.879996999999996,-46.14
1553844702991,3.3208592000000006,0.83081335,8.633755,0.27553564,0.15670037,-0.10578476,3.0,43.68,-47.34
1553844703012,3.7374629999999995,2.5044115000000002,9.684841,0.16496904,0.070568375,-0.056915537,3.06,44.04,-47.039997
1553844703032,4.2139235,4.0678730000000005,10.290593,-0.1398527,-0.121243306,0.11840279,2.82,43.92,-46.5
1553844703051,4.192375,3.512401,9.816526,-0.45383742,-0.17011254,0.25157142,3.0,43.559998,-47.46
1553844703071,3.1843855,1.8771113999999998,9.6896305,-0.3530447,-0.023504874,0.167272,3.6,44.16,-47.64
1553844703092,2.4206119,0.8930645,9.361614,-0.07571186,-0.01617449,-0.0074354519999999995,3.84,44.579997999999996,-47.52
1553844703111,2.2170985,0.2657645,8.863605499999998,0.026302636,-0.051604677,-0.11006081,3.72,44.219997,-47.16
1553844703132,2.5714512000000003,0.11971374,8.353624,0.119154155,-0.029613525,-0.106395625,3.48,44.579997999999996,-47.219997
1553844703151,2.8779182,0.43096948,8.22194,0.17413202,0.07728789999999999,-0.070354566,3.12,44.82,-46.379996999999996
1553844703172,3.3855044999999997,1.359948,8.724737,0.14419962,0.108442016,-0.022707082000000003,2.76,45.239998,-46.26
1553844703191,3.8619652,2.3799092999999996,9.301758,-0.055553306,0.027807808,0.07380962,2.8799999,45.18,-48.18
1553844703212,4.1157584,2.7318675999999997,9.816526,-0.30356459999999996,-0.06809804,0.17154807,3.0,44.1,-48.059998
1553844703231,3.581835,1.9704881999999997,9.699207000000001,-0.29440162,-0.047939483,0.1269549,3.24,44.04,-47.579997999999996
1553844703251,2.7701759999999997,1.2593886,9.39274,-0.041503407,-0.038165636,0.0011166617,4.74,43.68,-45.48
1553844703271,2.3823035,0.7877164000000001,8.937828,0.1429779,-0.011898434,-0.11311514,4.62,43.86,-45.18
1553844703291,2.5331428,0.6153286,8.5882635,0.20834048,0.03758165,-0.13449542,2.6399999,44.7,-47.16
1553844703311,2.8515813,0.679974,8.573898,0.24377066,0.10599856,-0.11006081,3.0,44.579997999999996,-47.28
1553844703331,3.2538195,0.90982443,8.892337,0.2291099,0.10050077,-0.090513125,3.48,44.1,-47.34
1553844703351,3.6297207,2.1500587,9.268238,0.1307606,0.044912033,-0.026983137999999997,3.72,43.92,-46.44
1553844703372,4.0894213,3.1149516,9.586677,-0.14962655,-0.059545923,0.14344826,3.72,44.04,-46.559998
1553844703391,4.022382,2.8013015,9.759064,-0.35976420000000003,-0.07970448,0.22224988,3.0,44.219997,-48.12
1553844703412,3.1652312,1.5323358999999999,9.603436,-0.26874527,-0.016785355,0.13123095,3.0,44.52,-48.719997
1553844703431,2.4708917,0.7996878000000001,9.256267,-0.041503407,-0.005178915300000001,-0.017820163,3.6,45.12,-48.18
1553844703452,2.308081,0.4070267,8.880365,0.09044349,-0.016785355,-0.106395625,3.8999998999999996,44.82,-45.539997
1553844703472,2.597788,0.46209505,8.420665,0.17413202,0.05346415,-0.094789185,4.2,44.34,-44.52
1553844703492,2.935381,0.86912173,8.420665,0.20223182,0.10722029,-0.06913284,4.2599998,44.879996999999996,-45.18
1553844703512,3.2969165,1.2665714,8.899519999999999,0.15153001,0.105387695,-0.04286563400000001,4.2599998,45.239998,-45.36
1553844703532,3.6823947,2.3823035,9.560339,0.021415714,0.028418673,0.026162136000000003,4.7999997,44.7,-45.78
1553844703552,4.046324299999999,3.1939626,10.084685,-0.21071307,-0.07848274,0.13978307,4.5,44.76,-45.96
1553844703572,3.849994,2.9617178,9.847652,-0.44284186,-0.0986413,0.22286075,4.02,45.3,-45.78
1553844703592,3.1652312,1.647261,9.727939,-0.40069216,-0.026559198,0.15138951,4.14,45.78,-46.68
1553844703612,2.5235654999999997,0.8667275,9.287392,-0.20765875,-0.05221554,0.023107812000000002,4.08,45.12,-47.46
1553844703631,2.300898,0.23942748,8.660092,-0.062272824000000004,-0.043052558,-0.051417753,3.54,44.82,-46.98
1553844703651,2.5475084999999997,0.09577099,8.188419999999999,0.08372397,0.0070383893000000005,-0.061802458,3.9599998,45.84,-46.8
1553844703671,2.9042554,0.33759275,8.116591,0.22116865,0.09439212,-0.06485678,4.3199997,45.84,-44.579997999999996
1553844703691,3.1819912999999995,0.6201171999999999,8.638542999999999,0.30241373,0.10722029,-0.08073928,3.8999998999999996,45.6,-44.52
1553844703711,3.469304,1.2881198,9.277814999999999,0.2431598,0.06751405,-0.09662178,3.54,45.42,-47.52
1553844703731,3.9864676,2.760599,9.909904,-0.028675236,-0.029613525,0.0060035832999999995,3.54,45.48,-47.879996999999996
1553844703751,4.0391417,2.8707354,9.979338,-0.29501247,-0.07970448,0.11168327,3.6599998,45.12,-47.579997999999996
1553844703771,3.3160705999999998,2.0494993000000004,9.567522,-0.27668652,0.01070358,0.093968175,4.3199997,44.16,-45.36
1553844703792,2.7127132,1.1300976999999999,9.373586,-0.056775037,0.0143687725,-0.0013267993,4.38,44.16,-45.36
1553844703811,2.5187771,0.70631105,9.026416000000001,0.03241129,-0.00334632,-0.056915537,4.02,44.76,-47.16
1553844703831,2.6935592,0.45730647,8.614600999999999,0.09533041,0.0015406022,-0.054472078,3.78,45.539997,-47.1
1553844703851,2.9210152999999996,0.57223165,8.523619,0.12526279999999998,0.051020685999999996,-0.02820487,3.6,45.6,-47.34
1553844703872,3.1915683999999995,1.1253091,8.851633999999999,0.11854329,0.057129342,-0.010489778,3.9599998,45.239998,-46.379996999999996
1553844703892,3.5387383000000003,1.6807808999999998,9.203592,0.03851994,-0.006400645999999999,0.02555127,3.48,45.42,-45.66
1553844703912,3.7278860000000003,2.0159793,9.517242,-0.07571186,-0.044274293,0.042044632,2.82,44.879996999999996,-47.28
1553844703932,3.4046587999999995,1.7981004,9.591465,-0.05249898,-0.03511131,0.023718676,3.24,45.12,-47.879996999999996
1553844703952,2.928198,1.3743136999999999,9.332883,0.026913501,-0.0027354546,-0.0074354519999999995,3.9599998,45.059998,-47.1
1553844703972,2.6911650000000003,1.1947431999999998,9.076694999999999,0.06967407,0.025975212,-0.026372273999999998,3.72,44.46,-45.36
1553844703992,2.813273,1.0774237,8.870789,0.07700445,0.034527324,-0.021485351,3.6,44.7,-43.8
1553844704012,3.057489,0.9720755999999999,8.849239,0.10082819,0.043690305,-0.011100643,3.6,45.42,-45.78
1553844704032,3.1819912999999995,1.1660118,9.04557,0.14236704,0.064459726,-0.0043811253,3.84,45.3,-47.28
1553844704052,3.4525442,1.9345740000000002,9.378374,0.09777387,0.038803383999999996,0.03288165,3.6599998,44.64,-46.2
1553844704072,3.6823947,2.3751206000000002,9.471751,-0.05799677,-0.01617449,0.115348466,3.4199998,44.82,-46.739998
1553844704092,3.5339496,2.0949904999999998,9.454991,-0.1752829,-0.0045680506,0.15749817,4.2599998,44.28,-46.68
1553844704112,3.0838259999999997,1.2162915,9.335278,-0.09220523,0.018033965,0.07380962,3.9599998,44.1,-46.739998
1553844704132,2.7773588,0.7901106999999999,9.024022,0.034854747,0.005816659,-0.0074354519999999995,3.9599998,44.579997999999996,-48.18
1553844704151,2.7055306,0.5698373999999999,8.8085375,0.15763865,0.048577222999999996,-0.03614612,4.56,44.82,-48.12
1553844704171,2.8587642000000004,0.88588166,8.7822,0.18024068,0.084007405,-0.011711508999999998,4.02,44.46,-47.52
1553844704191,3.1053743,1.5131816999999999,9.033599,0.11854329,0.06873578,0.007225314,5.16,44.28,-45.42
1553844704211,3.4238129,2.0830189999999997,9.407105,-0.023788313999999998,-0.010065838,0.048153285,5.4,44.46,-45.539997
1553844704231,3.5435266000000003,2.3224466,9.641745,-0.14473964,-0.025948334,0.09030299,3.78,44.7,-47.94
1553844704252,3.3735332000000002,2.0973847,9.63935,-0.21132395,-0.017396221,0.10374202,3.84,45.239998,-48.539997
1553844704271,2.988055,1.5395187,9.416683,-0.16978511,-0.026559198,0.06586838,4.14,44.76,-47.94
1553844704291,2.604971,0.9624985,9.043175999999999,-0.081209645,-0.01861795,0.0023383922,4.02,44.64,-47.52
1553844704312,2.4469488,0.43815228,8.8085375,0.023859175,-0.0027354546,-0.054472078,4.38,45.3,-46.98
1553844704331,2.6217308,0.36392978,8.564321000000001,0.14847568,0.028418673,-0.09295659,4.7999997,44.76,-46.62
1553844704351,2.9329867000000003,0.7110996,8.679246000000001,0.21933606,0.025364347000000002,-0.11006081,4.2599998,44.1,-47.16
1553844704372,3.3448019999999996,1.376708,9.105427,0.19551231,0.011314446,-0.10395216,4.02,44.579997999999996,-48.0
1553844704392,3.6488747999999998,2.5714512000000003,9.610619999999999,0.02202658,0.005816659,-0.016598431,4.3199997,45.48,-48.3
1553844704412,3.9170337,3.1484714,9.96976,-0.28218433,-0.048550345,0.13062009,4.14,46.02,-48.059998
1553844704431,3.5866237,2.5355369999999997,9.766247,-0.42512676,-0.036333042999999995,0.17704585,4.3199997,45.0,-47.039997
1553844704451,3.031152,1.4485363000000002,9.581888000000001,-0.32189056,-0.0106767025,0.09763337,4.3199997,44.94,-46.68
1553844704471,2.4469488,0.51716334,9.021627,-0.108698584,-0.048550345,-0.01904189,4.62,45.0,-45.96
1553844704492,2.3344178,-0.009577099,8.600235000000001,0.057456765,-0.054048132,-0.094789185,5.52,44.399998,-44.76
1553844704511,2.5499027,0.023942748,8.20518,0.20162095,0.0021514674,-0.106395625,5.58,44.64,-44.46
1553844704531,2.9234095,0.58420306,8.231517,0.27553564,0.069346644,-0.08806966,5.16,44.82,-45.36
1553844704551,3.2083282000000004,0.7805335999999999,8.722342999999999,0.26087487,0.08767260000000002,-0.102119565,3.9599998,44.76,-47.52
1553844704572,3.5602864999999997,1.5179702,9.682447,0.21078393,0.064459726,-0.1259433,3.24,45.12,-48.059998
1553844704591,3.9313992999999994,3.241848,10.166091,-0.01279274,-0.033889584,-0.011100643,3.78,45.239998,-47.579997999999996
1553844704611,4.0582957,3.5483153,10.029617,-0.36892718,-0.1267411,0.18559796,4.02,45.0,-47.46
1553844704632,3.337619,2.1907616,9.512454,-0.37809014,-0.014341895,0.17521326,4.2599998,44.82,-47.76
1553844704651,2.7103189999999997,1.0055954,9.356826,-0.18016982,-0.006400645999999999,0.068922706,4.44,44.879996999999996,-47.879996999999996
1553844704672,2.3607549999999997,0.39505535,8.9498,-0.0011863003,-0.04121997,-0.04775256,4.44,45.12,-47.879996999999996
1553844704692,2.4852571,-0.0047885496,8.480521000000001,0.14603223,-0.03266785,-0.08012842,4.62,44.76,-47.039997
1553844704712,2.7510218999999996,0.05506832,8.236305,0.24804673,0.052242417,-0.059359,4.02,44.7,-45.96
1553844704732,3.057489,0.56265455,8.391933,0.30058113,0.11821587,-0.046530827999999996,3.84,43.98,-45.84
1553844704752,3.469304,0.9792584000000001,9.225141,0.24682498,0.07117924,-0.067300245,4.2599998,45.12,-46.8
1553844704772,3.9122449999999995,2.4206119,10.410307000000001,0.04890465,-0.16522561,-0.057526402000000004,4.14,45.12,-47.76
1553844704791,4.271386,3.615355,10.221159,-0.35793159999999996,-0.28678778,0.112904996,3.72,44.94,-47.34
1553844704811,3.7614057,3.050306,9.186832,-0.55585194,-0.08581313,0.21553037,3.54,45.18,-47.64
1553844704832,2.9066495999999997,1.6041641000000002,9.14613,-0.29195815,0.15181345,0.13917221,3.6,45.36,-46.5
1553844704852,2.5115943,0.5889916000000001,9.105427,0.009809273,0.051020685999999996,0.013333966000000001,4.3199997,46.079997999999996,-47.219997
1553844704871,2.4134290000000003,-0.12689656,8.669669,0.14969742,-0.05343727,-0.04103304,4.2,45.66,-46.98
1553844704891,2.5235654999999997,-0.23942748,8.147717,0.23705114,-0.008844106,-0.055693805,3.8999998999999996,46.14,-46.14
1553844704911,2.6935592,0.36871833,8.090255,0.30607890000000004,0.14937,-0.055693805,4.44,44.76,-46.079997999999996
1553844704931,3.0814316,0.69194543,8.576292,0.30852237,0.1982392,-0.073408894,4.8599997,44.579997999999996,-45.12
1553844704951,3.529161,1.7382435,9.37598,0.30485716,0.19885008,-0.057526402000000004,4.5,44.34,-43.98
1553844704972,3.9577362999999997,3.5985951000000003,10.144542999999999,0.08800002,0.07667702400000001,0.06709011,4.92,44.82,-45.539997
1553844704991,4.0367475,3.4166303,10.568328999999999,-0.36220768,-0.13895841,0.18987402,5.22,44.46,-45.66
1553844705012,3.2921278,1.908237,9.826103999999999,-0.42451593,-0.067487165,0.11840279,5.2799997,43.62,-45.539997
1553844705031,2.6648278,0.9624985,9.239507000000001,-0.1716177,0.04185771,0.026162136000000003,5.52,43.86,-42.0
1553844705052,2.3775147999999997,0.27534159999999996,8.530801,0.0849457,0.10050077,-0.023928814,5.8199997,44.64,-37.86
1553844705071,2.4086404,-0.15083931,8.303345,0.20895134,0.07423357,-0.041643906,6.24,44.34,-38.219997
1553844705091,2.5403256,0.14605077,8.360807000000001,0.28469864,0.08034222,-0.08562621,6.54,43.44,-39.36
1553844705111,2.8156672,0.505192,8.528407000000001,0.25293365,0.043079436,-0.12777591,6.12,43.68,-39.48
1553844705131,3.2202997000000004,1.2593886,9.246689,0.16374731,0.020477425,-0.13266283,6.2999997,43.68,-39.66
1553844705151,3.7422516000000003,2.7821474,9.850046,-0.00057543506,-0.0057897805,-0.051417753,6.3599997,43.44,-39.48
1553844705172,4.149278,3.684789,10.077502,-0.33960566,-0.096197836,0.1465026,6.18,42.42,-39.78
1553844705191,3.6177492,2.5355369999999997,9.718361999999999,-0.42634849999999996,-0.033889584,0.1868197,6.42,43.2,-39.36
1553844705211,2.8994668,1.2498114,9.531608,-0.21987605,-0.003957185,0.09763337,7.02,43.559998,-38.46
1553844705232,2.3056867000000003,0.46688359999999995,9.007261999999999,0.002478891,0.0125361765,-0.019652756,6.8399997,44.04,-37.44
1553844705251,2.2554069,-0.12450229,8.549955,0.13992357,0.01070358,-0.08806966,6.3599997,44.7,-36.899998
1553844705271,2.5618742,-0.043096945,8.329682,0.23094249,0.01986656,-0.119834654,6.8999996,44.1,-37.14
1553844705291,2.8731298,0.53392327,8.379961999999999,0.27797914,-0.0015137241,-0.13205196,7.08,43.32,-37.86
1553844705311,3.3615617999999996,0.9194015,9.016839,0.21444912,-0.048550345,-0.13388455,6.96,43.44,-38.7
1553844705331,3.6823947,2.1404817000000005,9.627379,0.13870184,-0.061378515999999994,-0.10273043,6.3599997,43.98,-40.379996999999996
1553844705351,4.149278,4.0798445,9.797373,-0.094037816,-0.019839682,0.10435289,5.7599998,44.04,-42.36
1553844705371,4.1660379999999995,3.6129606,9.895537,-0.37442496,-0.030835256000000002,0.29372109999999996,5.64,43.5,-42.3
1553844705391,3.2993107000000004,1.6664151999999999,9.826103999999999,-0.34449255,0.027807808,0.24118671,5.7599998,43.379996999999996,-42.12
1553844705411,2.5307484000000002,0.6296943,9.498088000000001,-0.075100996,-0.0027354546,0.06037059,6.06,43.559998,-41.82
1553844705432,2.0758362,-0.22985038,8.693612,0.13870184,0.01070358,-0.066078514,5.8799996,43.68,-41.82
1553844705452,2.205127,-0.08858817,8.0926485,0.25659886,0.09683557599999999,-0.09234572,5.22,43.8,-41.879996999999996
1553844705472,2.5475084999999997,0.6249057,8.099832000000001,0.3079115,0.16341989,-0.086237065,4.98,43.86,-41.34
1553844705492,3.0694604,0.9624985,8.743892,0.24254893,0.07240097,-0.06852197,6.12,43.559998,-41.76
1553844705512,3.6297207,2.5235654999999997,9.780613,0.06600887,-0.04549602,-0.021485351,6.72,43.379996999999996,-42.3
1553844705531,4.034353299999999,3.7398572,10.261861999999999,-0.22048692,-0.13346061,0.10068769999999999,6.6,43.62,-42.48
1553844705551,4.223500700000001,3.2442424,9.945818,-0.48865676,-0.12979543,0.18559796,5.46,43.62,-43.079997999999996
1553844705571,3.4286015,2.0279508,9.8237095,-0.5002632,-0.05588073,0.167272,5.2799997,43.62,-42.899998
1553844705591,2.6097596000000003,0.66321415,9.3280945,-0.21804346,-0.056491595,0.024940407,5.8199997,44.04,-42.239998
1553844705611,2.185973,-0.25139886,8.60263,0.039741673,-0.018007086999999998,-0.09540005,6.18,43.92,-41.219997
1553844705631,2.2003386000000003,-0.5219519,7.970541000000001,0.23827288,0.063237995,-0.1436584,6.06,44.28,-40.02
1553844705651,2.5810282000000004,0.3328042,8.032792,0.355559,0.14692652,-0.14182581,5.7599998,44.64,-40.379996999999996
1553844705672,3.0766432,0.84039044,8.447001,0.2956942,0.034527324,-0.1173912,5.04,44.64,-40.86
1553844705692,3.4884584000000003,1.2091087999999999,9.402317,0.19551231,-0.04549602,-0.12838677,4.74,44.76,-41.46
1553844705711,3.7350687999999996,3.0479119999999997,10.10384,0.10510425,-0.038165636,-0.09723264,5.4,43.98,-42.18
1553844705731,4.0798445,4.300117500000001,10.343266999999999,-0.1893328,-0.099252164,0.06464665,6.18,43.2,-42.899998
1553844705752,4.0918155,3.3136763999999994,9.787795,-0.49048936,-0.08398053,0.20942171,5.7599998,43.079997999999996,-42.42
1553844705772,3.1843855,1.2833313,9.603436,-0.34937948,0.04430117,0.167272,5.46,43.26,-41.82
1553844705792,2.5546912999999996,0.22266756,9.184438,0.007976678000000001,0.039414246,0.038990308,5.52,44.46,-41.82
1553844705812,2.2075214,-0.6440599,8.523619,0.2113948,0.011314446,-0.055693805,5.94,44.76,-41.64
1553844705832,2.248224,-0.339987,8.260247999999999,0.27064875,-0.03022439,-0.11311514,6.18,44.219997,-41.94
1553844705851,2.5163830000000003,0.27773590000000004,8.284191,0.23644027,-0.03572218,-0.145491,5.8799996,43.86,-41.94
1553844705871,3.0646717999999997,0.7805335999999999,8.693612,0.13564752,-0.025948334,-0.15343225,5.64,42.719997,-42.719997
1553844705892,3.5554981,2.403852,9.47654,0.072728395,0.009481851,-0.11250427,5.7599998,43.2,-42.42
1553844705912,4.252232,4.242655,10.058349,-0.06715974,-0.044274293,0.03288165,4.74,43.98,-43.2
1553844705932,4.5108137,3.6943660000000005,10.089474000000001,-0.35426640000000004,-0.17133425,0.21308690000000002,4.2599998,44.7,-46.98
1553844705952,3.7590114999999997,2.2242813,9.794978,-0.41779637,-0.08092621,0.21430863,3.72,44.879996999999996,-48.0
1553844705972,2.7055306,0.6105401,9.3280945,-0.10197906,0.046133768,0.0970225,3.9599998,44.28,-45.899998
1553844705991,2.2937152000000003,-0.11013664,8.672064,0.13625838,0.112718076,0.022496943999999998,4.5,44.399998,-46.079997999999996
1553844706011,2.1117504,-0.41660379999999997,8.116591,0.23827288,0.16708508,-0.022096219,4.62,44.879996999999996,-47.64
1553844706032,2.3751206000000002,0.05506832,7.9849067,0.29263988,0.17319374,-0.07585236,4.68,44.76,-47.16
1553844706052,2.8587642000000004,0.68236834,8.537984,0.28225520000000004,0.0125361765,-0.11922379599999999,3.9599998,44.34,-47.46
1553844706071,3.4214187000000007,1.9968252,9.359220500000001,0.19245797,-0.06321111,-0.0996761,4.08,44.64,-47.16
1553844706092,3.8835137000000004,3.6608462,10.257073,-0.066548884,-0.102306485,0.026162136000000003,5.1,45.239998,-47.399998
1553844706111,4.228289,3.7422516000000003,10.111023,-0.36220768,-0.1444562,0.13000923,5.16,44.579997999999996,-47.76
1553844706132,4.1157584,2.9114382,9.864412,-0.48560244,-0.07237409,0.1587199,4.5,44.28,-47.879996999999996
1553844706152,3.0119977000000002,0.9720755999999999,9.435837,-0.14657223,0.023531752000000003,0.061592318,4.02,45.36,-47.28
1553844706172,2.4852571,0.19633053,8.899519999999999,0.097163,0.05835107,-0.020263622,4.02,44.579997999999996,-46.68
1553844706191,2.2625897,-0.36871833,8.2578535,0.18940365,0.064459726,-0.07401976,4.5,44.46,-46.739998
1553844706211,2.3823035,0.06943397,7.9729350000000005,0.24560326,0.10294423,-0.11678032599999999,3.6599998,44.579997999999996,-47.28
1553844706232,2.8779182,0.6201171999999999,8.370385,0.24804673,0.03513819,-0.12838677,4.3199997,45.0,-47.7
1553844706251,3.3519847,1.6017698,9.184438,0.18268414,-0.020450545,-0.10883908,4.98,45.18,-47.46
1553844706271,3.9002736000000002,3.2346652000000002,9.962578,-0.0024080307,-0.07665015,-0.0153767,4.14,45.18,-47.82
1553844706291,4.2546263,3.7638,10.173274000000001,-0.28340605,-0.17377773,0.109850675,4.38,44.399998,-45.48
1553844706311,3.955342,2.7366562,9.814133,-0.4709417,-0.032056987,0.19109575,4.98,43.739998,-42.719997
1553844706331,3.1508656000000004,1.1803774999999999,9.58907,-0.2559171,0.06262712,0.10923981,5.1,43.44,-42.12
1553844706351,2.5139885,0.4070267,9.115005,0.0049223523,0.06873578,-0.0025485298,5.58,43.32,-42.059998
1553844706372,2.2601955,-0.32083282,8.482916000000001,0.13686925,0.038803383999999996,-0.08196101,5.04,43.5,-42.0
1553844706392,2.2338583,-0.21548474,8.241094,0.19612317,0.06262712,-0.13571715,5.3399997,44.219997,-41.879996999999996
1553844706412,2.6241252,0.36871833,8.066312,0.24926844,0.06384886,-0.16931474,6.24,44.7,-41.94
1553844706431,3.213117,0.9313729,8.696006,0.24865758,0.022920884,-0.17664513,6.2999997,44.16,-41.34
1553844706452,3.7230972999999996,2.1931557999999995,9.775824,0.19978836,-0.057102464000000006,-0.1399932,5.7599998,43.8,-42.18
1553844706472,4.170827,4.338426,10.158908,-0.08243138,-0.14323446,0.04754242,4.44,43.8,-44.34
1553844706492,4.4222255,4.0199876,10.005674,-0.41168773,-0.17744292,0.23324545,4.5,43.739998,-44.16
1553844706511,3.7087317000000004,2.0686533,9.648928,-0.43612236,0.02108829,0.24546276,3.8999998999999996,43.559998,-45.18
1553844706531,2.80609,0.5794145,9.347249,-0.033562157,0.0754553,0.112904996,4.02,44.1,-45.539997
1553844706552,2.2458298,-0.30167863,8.719949,0.21017309,0.07423357,0.0060035832999999995,3.9599998,44.879996999999996,-46.079997999999996
1553844706571,1.9944308999999998,-0.41420954,8.145323,0.29202902,0.10722029,-0.062413324000000006,3.9599998,45.059998,-47.039997
1553844706592,2.432583,0.43815228,8.066312,0.29141816,0.086450875,-0.097843505,4.92,44.1,-46.86
1553844706611,3.0646717999999997,1.0391153,8.751075,0.20406443,0.033305597,-0.07585236,5.94,43.14,-44.64
1553844706632,3.7063375,3.1029801,9.63935,0.018972252,-0.07176323,0.02432954,6.2999997,43.68,-43.26
1553844706651,4.1516724,3.9050622,10.202005,-0.2156,-0.16950166,0.1269549,6.0,44.04,-43.14
1553844706672,4.245049,3.1604427999999998,9.945818,-0.48193726,-0.13284975,0.18926315,5.22,43.739998,-42.78
1553844706692,3.4262072999999997,1.802889,9.792584,-0.4232942,-0.011287568000000001,0.15138951,5.58,43.62,-43.26
1553844706712,2.760599,0.66800267,9.471751,-0.14046358,0.039414246,0.021275215,6.12,43.8,-42.36
1553844706731,2.3344178,-0.27534159999999996,8.679246000000001,0.03729821,0.029640405,-0.061191592,5.8799996,43.739998,-41.82
1553844706752,2.1213273999999998,-0.51716334,7.989694999999999,0.15336262,0.08706174,-0.12716503,5.52,43.92,-41.579997999999996
1553844706771,2.4900458,0.12929083,7.798153,0.2761465,0.14142874,-0.17420167,5.2799997,44.28,-42.059998
1553844706791,3.1772027,0.84996754,8.269825,0.30424629999999997,0.033305597,-0.16076264,5.3399997,43.86,-42.48
1553844706812,3.6369035000000003,2.0494993000000004,9.569917,0.19367972,-0.054659000000000006,-0.11006081,5.46,43.739998,-42.42
1553844706832,3.9577362999999997,3.2729738,10.185245,0.009809273,-0.08642399,-0.036756985,5.8199997,43.62,-42.42
1553844706852,4.278569,3.6632404000000003,10.053560000000001,-0.29501247,-0.10719341,0.13367443,5.7599998,43.559998,-43.14
1553844706872,3.921822,2.6648278,9.780613,-0.3860314,0.036970787000000005,0.21980643,5.46,43.44,-42.84
1553844706892,3.1245286,1.2091087999999999,9.517242,-0.14657223,0.09500299,0.16543941,5.04,43.98,-41.879996999999996
1553844706912,2.3727264,0.11971374,8.74868,0.12892799,0.12371366,0.057927128,4.8599997,44.28,-45.36
1553844706932,2.2123098,-0.30407290000000003,8.308133,0.22605558,0.10905289,-0.03858958,4.98,44.879996999999996,-47.64
1553844706951,2.3966691000000004,0.27055305,8.272219999999999,0.2517119,0.0736227,-0.09540005,4.8599997,45.239998,-47.94
1553844706972,2.9641123,1.010384,8.652909,0.20528615,-0.022283142000000002,-0.12044552,4.02,45.48,-47.76
1553844706992,3.5985951000000003,1.7214836,9.296969,0.061732817,-0.069930635,-0.09662178,4.2,45.059998,-47.34
1553844707012,4.010410299999999,3.5746522000000005,9.809344,-0.11663983,-0.06382198,-0.011100643,5.3399997,44.46,-46.739998
1553844707031,4.2043467,3.8188684,9.835681,-0.29806679999999997,-0.0406091,0.11779192,5.52,44.399998,-46.559998
1553844707052,3.921822,2.4565259999999998,9.565128,-0.40741170000000004,0.08889433,0.22224988,4.38,44.7,-47.34
1553844707072,3.1628369999999997,0.8667275,9.656111,-0.25164106,0.13715269,0.16971546,4.14,44.579997999999996,-46.98
1553844707092,2.2937152000000003,-0.28013015,9.033599,0.03363302,0.16403076,0.018220888,4.68,44.46,-46.5
1553844707112,1.977671,-0.5027977,8.286585,0.22666644,0.22878247,-0.05874813,5.4,44.34,-46.14
1553844707132,1.924997,0.44294083,7.9729350000000005,0.30730066,0.24466497,-0.06974371,5.8799996,45.0,-46.86
1553844707151,2.648068,0.45251793,8.473338,0.2553771,0.14448306,-0.053250343,5.52,45.12,-47.579997999999996
1553844707172,3.1508656000000004,2.3368123,9.706389999999999,0.10693685,0.016201368,-0.020263622,5.8199997,43.86,-47.399998
1553844707192,3.684789,3.2179053,10.218765,-0.15145916,-0.16033868,0.06281405,5.46,43.68,-47.52
1553844707211,3.9481592000000005,2.9689007000000003,10.175668,-0.37503582,-0.22325781,0.13611788,5.46,43.8,-47.82
1553844707231,3.3663504,1.7071179,9.663293,-0.37625757,-0.020450545,0.13733962,5.8799996,44.1,-47.579997999999996
1553844707251,2.6145482,0.45251793,9.404712,-0.08304224,0.11760499,0.036546845,6.06,45.0,-46.8
1553844707271,2.0902019,-0.18914771,8.846846000000001,0.1710777,0.15242432,-0.07707409,5.8199997,44.879996999999996,-47.039997
1553844707292,1.9489397000000002,-0.014365649,8.41827,0.26148576,0.13165489,-0.121056385,5.4,44.7,-47.46
1553844707311,2.4373717,0.63208854,8.209969000000001,0.22422297,0.069346644,-0.12349985,5.22,45.3,-47.52
1553844707331,2.9832664,1.3024855,8.925857,0.14236704,-0.037554774,-0.09845438,6.18,45.0,-45.42
1553844707352,3.4908525999999998,2.5355369999999997,9.703996,0.013474465,-0.13651493,-0.04103304,6.48,43.98,-43.14
1553844707371,3.9577362999999997,3.4046587999999995,10.170879,-0.22537383,-0.25074676,0.029216462999999998,6.48,43.559998,-42.719997
1553844707392,4.1756153,2.9018610000000002,9.730332,-0.419629,-0.19637974,0.080529146,5.8199997,43.5,-41.579997999999996
1553844707412,3.4166303,1.5754328000000002,9.4932995,-0.29195815,0.022920884,0.06647924,6.12,43.92,-40.8
1553844707431,2.6887705000000004,0.51955765,9.165284,0.0049223523,0.14570479999999997,0.00050579646,6.18,44.34,-40.68
1553844707452,2.2865324,-0.076616794,8.681641,0.18940365,0.1530352,-0.051417753,7.3799996,44.34,-40.98
1553844707471,2.2506182,0.08858817,8.394327,0.24377066,0.10966375,-0.08012842,6.8999996,43.739998,-41.64
1553844707492,2.604971,0.52674043,8.358414,0.21261653,0.060794532000000005,-0.08318274,6.12,43.32,-41.46
1553844707512,3.110163,0.9768641,9.055147,0.16496904,-0.028391793,-0.07585236,5.94,43.559998,-41.64
1553844707532,3.3831102999999993,2.22907,9.876384,0.094719544,-0.12246504400000001,-0.03858958,6.3599997,43.26,-42.12
1553844707552,3.7230972999999996,3.4190245000000004,9.883567,-0.08854003,-0.16827993,0.02555127,6.0,43.559998,-42.18
1553844707571,3.9960446000000003,3.2274826,9.627379,-0.3420491,-0.121243306,0.1465026,6.06,43.379996999999996,-43.02
1553844707591,3.4597269999999996,1.5610671999999999,9.440625,-0.31150585,0.108442016,0.16482855,6.54,42.84,-43.14
1553844707611,2.6696165,0.44533512,9.3280945,0.018361388,0.20007181,0.046931557,6.18,43.92,-42.6
1553844707631,2.1907616,-0.009577099,8.655303,0.26515093,0.21961950000000002,-0.045309097,6.6,44.399998,-42.12
1553844707651,2.1476645,0.29689008,8.382356,0.2975268,0.19885008,-0.059359,6.42,44.16,-43.079997999999996
1553844707671,2.5738453999999997,0.90024734,8.633755,0.18879278,0.10233337,-0.021485351,5.58,44.28,-45.48
1553844707693,3.1580484,1.9824595,9.474146000000001,0.04646119,-0.020450545,0.018220888,5.8199997,44.04,-47.76
1553844707712,3.502824,2.8420042999999997,9.883567,-0.09342695,-0.15056485,0.07136617,6.12,44.04,-48.36
1553844707731,3.7087317000000004,2.9042554,9.981731,-0.30295375,-0.23486425,0.13245268,5.8199997,43.98,-48.059998
1553844707752,3.3687446000000003,1.9321798,9.584282,-0.35060123,-0.06931976,0.12390058,5.7,44.1,-46.86
1553844707771,2.7222904999999997,0.6895511,9.407105,-0.14229618,0.092559524,0.045709822000000004,6.0,44.16,-46.32
1553844707791,2.1931557999999995,0.07422252,8.899519999999999,0.10876945,0.15608951,-0.049585156,5.3399997,44.94,-46.5
1553844707811,2.0782306,-0.021548472000000003,8.435030000000001,0.23644027,0.16525249,-0.087458804,5.22,45.78,-46.98
1553844707831,2.3344178,0.53392327,8.432636,0.28408778,0.09683557599999999,-0.11006081,5.64,44.76,-47.7
1553844707851,2.9090437999999996,1.2689656,8.8085375,0.19306885,-0.038165636,-0.08806966,6.3599997,44.7,-47.219997
1553844707872,3.46691,2.0351336,9.617802000000001,0.048293784000000006,-0.11208033,-0.037978712000000005,6.3599997,44.879996999999996,-46.739998
1553844707892,3.7422516000000003,3.0167862999999997,10.2091875,-0.11236378,-0.18599503,0.0066144490000000005,6.0,44.1,-47.34
1553844707911,3.8787252999999997,3.1173458,9.783007000000001,-0.2913473,-0.18355158,0.07625309,5.3399997,44.219997,-47.52
1553844707931,3.3759273999999997,2.0447106,9.390346000000001,-0.30539718,0.022920884,0.11351587,4.7999997,44.76,-47.76
1553844707951,2.6863763,0.74701375,9.306546,-0.07449013,0.11760499,0.05181848,5.3399997,45.0,-45.899998
1553844707971,2.1907616,0.043096945,8.899519999999999,0.16008212,0.11882673,-0.05386121,5.16,45.36,-44.76
1553844707991,2.1045675,0.0047885496,8.473338,0.24499239,0.06690318,-0.11311514,5.22,45.18,-46.32
1553844708014,2.4972286,0.6368771,8.430242,0.21200567,0.033916462,-0.1259433,5.52,44.76,-47.1
1553844708031,3.0766432,1.3096683,9.021627,0.097163,-0.06687631,-0.09173486,4.7999997,44.16,-46.98
1553844708051,3.5147953000000003,2.0087965,9.732727,-0.020123122,-0.16522561,-0.050806884000000004,5.2799997,43.559998,-45.36
1553844708072,3.6536633999999997,2.8898897,9.873989,-0.08915089,-0.16156043,-0.023317947999999998,6.18,43.92,-44.04
1553844708092,3.8021083,3.0766432,9.641745,-0.22537383,-0.102306485,0.06831183,5.8799996,44.34,-45.6
1553844708111,3.476487,2.0183737,9.411894,-0.26019317,0.033916462,0.15627643,5.46,44.94,-46.5
1553844708131,2.8851009999999997,0.8571504000000001,9.447808,-0.12335935,0.12004846,0.12878749,5.16,44.82,-45.84
1553844708152,2.2434354,-0.07422252,8.806142999999999,0.16008212,0.12615710000000002,0.0066144490000000005,6.2999997,44.879996999999996,-44.04
1553844708172,2.1093562,0.0023942748,8.360807000000001,0.26698354,0.1334875,-0.051417753,6.42,44.879996999999996,-44.46
1553844708192,2.4110348,0.7685622,8.537984,0.25782055,0.09072693,-0.06791111,6.48,45.0,-45.36
1553844708211,2.9856608,1.5538843999999998,9.222747,0.119154155,-0.048550345,-0.037978712000000005,5.64,45.0,-47.34
1553844708232,3.4381785000000002,2.5187771,9.771035000000001,-0.05616417,-0.15056485,0.012112236,5.1,44.82,-47.94
1553844708252,3.7853483999999997,3.2035396,9.917086999999999,-0.238202,-0.17988639,0.06831183,5.46,44.7,-47.76
1553844708272,3.6943660000000005,2.3727264,9.660899,-0.32066882,-0.067487165,0.11229414,6.18,44.16,-46.44
1553844708292,3.0622776000000003,1.3934678999999999,9.471751,-0.18139154,0.06629232,0.07808568,5.52,43.98,-47.039997
1553844708311,2.4541316,0.35914123,9.117398,0.05623503,0.086450875,-0.012933239,5.46,44.1,-47.34
1553844708331,2.2434354,0.0023942748,8.6433325,0.19978836,0.08706174,-0.08440447599999999,5.64,44.28,-46.26
1553844708352,2.2889266,0.46688359999999995,8.394327,0.2620966,0.08828347,-0.11433687,5.94,44.399998,-46.44
1553844708371,2.7653873,1.1468576000000001,8.626572999999999,0.20528615,0.027807808,-0.094789185,6.18,44.1,-46.559998
1553844708391,3.3328303999999997,1.6113469999999999,9.316123,0.086167425,-0.10291736,-0.055693805,6.18,44.399998,-47.1
1553844708412,3.5746522000000005,2.5858168999999998,9.941028999999999,-0.032340426,-0.16461475,-0.031259197999999995,5.8799996,43.86,-47.64
1553844708432,3.7781656000000003,3.189174,9.857229,-0.21621086,-0.17072341,0.02555127,5.4,43.5,-48.0
1553844708452,3.632115,2.3344178,9.541185,-0.35487729999999995,-0.01861795,0.10374202,4.8599997,44.46,-48.66
1553844708473,2.9593236000000003,1.3120626,9.3831625,-0.20643702,0.12554625,0.0988551,5.04,45.0,-47.64
1553844708491,2.5044115000000002,0.39505535,9.091061999999999,0.04523946,0.13043317,0.00905791,6.18,44.879996999999996,-45.66
1553844708512,2.308081,-0.11492519,8.73192,0.22055778,0.03574906,-0.077684954,5.8199997,44.7,-45.36
1553844708532,2.2578009999999997,0.16520496,8.253065,0.2963051,0.039414246,-0.13754974,5.7,44.34,-45.6
1553844708552,2.6839821,0.90024734,8.40151,0.25782055,0.049798958,-0.11128255,5.3399997,44.34,-45.6
1553844708573,3.3208592000000006,1.4245936000000001,9.220352,0.1130455,-0.042441695999999994,-0.059359,4.62,44.1,-45.66
1553844708592,3.5698638,2.308081,9.972155,0.04157427,-0.110858604,-0.062413324000000006,5.22,43.44,-46.86
1553844708611,3.6871831,3.5866237,9.974549,-0.07021407,-0.15117571,0.0066144490000000005,5.1,44.1,-48.36
1553844708631,3.7183087,3.1748084999999997,9.574705,-0.27302134,-0.06015679,0.167272,4.2599998,44.7,-48.78
1553844708651,3.4262072999999997,1.924997,9.311335,-0.28523865,0.084007405,0.23874325,4.62,43.86,-48.539997
1553844708672,2.7893302,0.5363176,9.249083500000001,0.0030897565,0.10294423,0.15749817,5.04,43.68,-48.239998
1553844708692,2.351178,-0.14365649,8.882759,0.24743585,0.034527324,0.008447044499999999,5.7599998,44.28,-46.379996999999996
1553844708711,2.2386470000000003,-0.028731298,8.420665,0.30668979999999996,0.033305597,-0.094789185,6.24,44.46,-45.96
1553844708732,2.7127132,0.96489275,8.631361,0.21567087,0.056518473,-0.08684793,5.64,44.579997999999996,-47.579997999999996
1553844708752,3.0886145000000003,2.0758362,9.019233,0.0849457,0.06384886,-0.013544105,5.52,44.64,-47.94
1553844708772,3.6464806000000003,3.232271,9.562733999999999,-0.13618751,0.018644828000000002,0.0988551,5.46,44.34,-48.42
1553844708791,3.8188684,3.100586,10.113417,-0.3860314,-0.10413908,0.1550547,4.7999997,43.379996999999996,-48.059998
1553844708812,3.328042,1.9896424,10.024828999999999,-0.43123543,-0.0968087,0.08969212,4.62,43.5,-47.76
1553844708832,2.5546912999999996,1.2306572,9.342461,-0.2156,-0.01861795,-0.011711508999999998,5.04,44.1,-47.879996999999996
1553844708852,2.0902019,0.2681588,8.758257,0.01652879,0.060183667,-0.097843505,5.2799997,43.86,-47.7
1553844708872,2.0399222,0.016759925,8.286585,0.19367972,0.13165489,-0.15037791,5.7599998,43.8,-47.16
1553844708893,2.4158232,0.46688359999999995,8.399116000000001,0.31768537,0.11821587,-0.20657751,5.52,44.399998,-46.8
1553844708912,2.8515813,1.1564348,8.688824,0.25782055,0.013757907,-0.20352319,5.2799997,45.12,-47.16
1553844708932,3.5171897000000003,1.9465453999999998,9.426260000000001,0.07211753,-0.07542842,-0.13388455,5.16,44.82,-47.64
1553844708952,3.8284453999999997,2.7270790000000003,10.072714,-0.08243138,-0.11330206,-0.08379361,5.1,44.399998,-48.18
1553844708972,3.9505534,3.1341057,10.015251,-0.2858495,-0.16583647,0.010890506000000001,4.74,44.46,-47.879996999999996
1553844708991,3.605778,2.4421604,9.574705,-0.356099,-0.08092621,0.08785953,4.38,44.399998,-46.8
1553844709011,3.0550947,1.2809371,9.239507000000001,-0.16062213,0.06629232,0.08847039,5.04,44.579997999999996,-47.28
1553844709031,2.5235654999999997,0.39744959999999996,8.882759,0.13198233,0.089505196,0.01944262,5.1,45.3,-47.879996999999996
1553844709052,2.3152637,0.0023942748,8.456578,0.29691592,0.08828347,-0.061802458,4.38,45.059998,-47.399998
1553844709071,2.4110348,0.39744959999999996,8.571504,0.30363548,0.08828347,-0.1033413,4.44,44.34,-47.1
1553844709091,2.796513,1.0774237,8.880365,0.22239038,0.045522900000000005,-0.1015087,4.8599997,44.1,-47.16
1553844709111,3.3040992999999994,1.9824595,9.366403,0.08372397,-0.005178915300000001,-0.031870063,4.74,44.579997999999996,-47.76
1553844709131,3.6392976999999997,3.1508656000000004,9.634561999999999,-0.07998791,-0.042441695999999994,0.06403578,4.98,44.28,-47.94
1553844709151,3.6991546000000004,3.1245286,9.938635000000001,-0.30478632,-0.09436524,0.13184182,5.7,43.92,-48.0
1553844709172,3.2226939999999997,2.0159793,9.5794935,-0.33716217,-0.038165636,0.13795047,5.22,43.98,-48.84
1553844709192,2.604971,0.9289786,9.325700999999999,-0.10014647,0.03513819,0.07991828,4.44,44.219997,-48.48
1553844709211,2.3056867000000003,0.30167863,8.882759,0.11609982,0.039414246,-0.013544105,5.1,44.04,-46.379996999999996
1553844709231,2.2841382,0.03351985,8.377566999999999,0.24377066,0.06384886,-0.09356745,5.58,44.04,-45.78
1553844709252,2.49244,0.55307746,8.458973,0.26820526,0.069346644,-0.14610186,5.58,45.0,-46.98
1553844709271,2.8252442,1.3360053,8.777411,0.18879278,0.040635977000000004,-0.12777591,5.2799997,45.36,-47.7
1553844709291,3.3639562000000005,2.3799092999999996,9.385557,0.03302215,-0.022894006,-0.032480925,4.98,45.12,-47.46
1553844709312,3.7422516000000003,3.3256476000000004,9.866806,-0.16428733,-0.08398053,0.06709011,4.92,44.34,-47.399998
1553844709331,3.8236567999999997,3.1700199000000002,9.91948,-0.37809014,-0.14689966,0.12756577,5.16,44.1,-48.18
1553844709351,3.2107224,2.056682,9.617802000000001,-0.33166438,-0.03144612,0.108018085,5.2799997,44.219997,-47.76
1553844709372,2.631308,0.88588166,9.273026,-0.06410542,0.060183667,0.03288165,5.2799997,44.579997999999996,-46.62
1553844709391,2.3272352,0.22745611,8.758257,0.1429779,0.11882673,-0.034924388,4.7999997,45.12,-46.8
1553844709411,2.2410412,-0.18675344,8.336864,0.26087487,0.124324515,-0.102119565,4.98,44.399998,-45.96
1553844709432,2.403852,0.43096948,8.482916000000001,0.29202902,0.099889904,-0.15282138,5.2799997,44.76,-45.42
1553844709452,2.9808722000000003,1.3264283000000001,8.880365,0.15702779999999997,0.0021514674,-0.14793447,5.58,45.3,-47.219997
1553844709472,3.5171897000000003,2.5379312,9.531608,-0.0042406265000000005,-0.04671775,-0.05508294,5.46,44.879996999999996,-48.78
1553844709492,3.8930907,3.5076127,9.979338,-0.25897142,-0.12429764,0.098244235,4.2,44.7,-48.78
1553844709511,3.684789,2.7103189999999997,9.804555,-0.37075976,-0.07481755,0.14589173,5.16,43.62,-46.379996999999996
1553844709531,3.057489,1.5610671999999999,9.557945,-0.26202574,0.0021514674,0.10007682400000001,6.18,43.44,-43.32
1553844709552,2.5020173,0.71828246,9.229928999999998,-0.0036297613,0.070568375,0.00050579646,6.0,43.62,-41.7
1553844709572,2.2506182,0.014365649,8.794171,0.18268414,0.06995751,-0.10700648,6.0,43.44,-41.879996999999996
1553844709592,2.1668186,-0.16520496,8.456578,0.25782055,0.079120494,-0.16564955,5.7599998,43.98,-42.6
1553844709612,2.4708917,0.70870537,8.593052,0.25232276,0.064459726,-0.19497108,5.94,43.8,-42.239998
1553844709632,3.1556542000000003,1.9178141,9.160496,0.07822618,-0.00334632,-0.102119565,5.64,44.399998,-44.46
1553844709651,3.7829542000000003,3.3160705999999998,9.469357,-0.16795251,-0.05221554,0.0707553,5.22,45.18,-47.94
1553844709671,4.1325183,3.5674694,9.809344,-0.34632516,-0.083369665,0.18987402,4.98,45.059998,-48.84
1553844709692,3.5578922999999993,2.1380875,9.957788,-0.32555574,-0.038165636,0.16238509,4.7999997,44.46,-47.76
1553844709712,2.8994668,1.2689656,9.543579,-0.1594004,-0.013120163999999998,0.06953357,4.7999997,44.82,-47.64
1553844709732,2.3056867000000003,0.49082634,9.177256,0.027524367,0.055907607000000005,-0.040422175,4.74,44.7,-46.8
1553844709752,2.0447106,-0.19154198,8.564321000000001,0.17962979999999998,0.098057315,-0.11433687,5.1,44.399998,-45.78
1553844709772,2.126116,0.07901107,8.396722,0.26087487,0.15120259,-0.15282138,5.04,45.3,-46.98
1553844709792,2.6504622,0.9577099,8.497281,0.24560326,0.07301183,-0.15893003,5.04,45.12,-47.46
1553844709812,3.2179053,1.6089526,9.093455,0.11793242,-0.023504874,-0.09112399,4.2,45.059998,-48.18
1553844709832,3.8021083,2.997632,9.708784,-0.02439918,-0.051604677,0.04632069,4.3199997,45.12,-46.2
1553844709852,3.9673133000000003,3.4573328,10.039194,-0.21315654,-0.102306485,0.16543941,6.0,43.86,-43.32
1553844709872,3.5483153,2.648068,9.876384,-0.33655134,-0.10902601,0.18437624,6.12,42.84,-42.96
1553844709891,2.7318675999999997,1.1037607,9.469357,-0.20216097,-0.019228818,0.0988551,5.58,43.14,-42.719997
1553844709911,2.2218869999999997,0.19872479999999998,8.935433,0.08433483,0.06384886,-0.012933239,6.18,43.32,-42.48
1553844709931,2.0518935000000003,-0.2681588,8.504464,0.2394946,0.099279046,-0.08135014,6.3599997,43.2,-41.76
1553844709951,2.0758362,0.17238778,8.449396,0.29691592,0.11821587,-0.1155586,5.7,43.32,-40.68
1553844709972,2.8013015,1.1516461,8.818114,0.17535377,0.0033731977000000003,-0.09662178,5.52,43.32,-40.98
1553844709992,3.3136763999999994,1.8986599999999998,9.368797,0.011641869,-0.09008919,-0.020263622,5.64,42.78,-42.18
1553844710012,3.7183087,3.1436827000000003,9.754275,-0.094037816,-0.09131091,0.08908126,5.94,42.96,-42.48
1553844710032,3.964919,3.5411325,9.821315,-0.21071307,-0.08581313,0.18010017,6.0,43.559998,-42.899998
1553844710052,3.5770466,2.6217308,9.794978,-0.29806679999999997,-0.054048132,0.19415009,6.06,43.44,-43.02
1553844710072,2.6528566000000002,1.0870007,9.517242,-0.13313319,-0.04549602,0.08297260000000001,6.2999997,43.379996999999996,-42.48
1553844710092,2.2242813,0.31843856,8.971347999999999,0.06417628,0.004594928,-0.031259197999999995,6.2999997,43.559998,-42.18
1553844710113,2.1452703,-0.14605077,8.406299,0.18757106,0.070568375,-0.08562621,5.8199997,43.92,-42.42
1553844710132,2.2554069,-0.047885496,8.334471,0.24010547,0.10660942,-0.102119565,5.94,44.16,-42.36
1553844710152,2.892284,1.0486923000000001,8.609812,0.21872519,0.03513819,-0.10822822,6.66,43.62,-43.02
1553844710171,3.354379,1.4293821000000002,9.407105,0.08433483,-0.067487165,-0.08073928,6.24,43.44,-42.6
1553844710191,3.6991546000000004,3.0287576,10.139753,-0.0017971654999999998,-0.11574552,-0.034313522,6.12,43.26,-42.54
1553844710211,3.9122449999999995,4.3025117,9.742303999999999,-0.15695694,-0.12735197,0.12084625,6.12,43.02,-42.239998
1553844710231,3.6512692,2.997632,9.629773,-0.37747929,-0.04977208,0.24607362,5.8799996,43.079997999999996,-42.3
1553844710251,2.7270790000000003,1.2426286,9.522031,-0.26385838,0.025975212,0.16543941,5.64,43.26,-42.719997
1553844710272,2.116539,0.17717634,9.172467,0.015917927,0.020477425,0.0023383922,6.06,43.26,-42.66
1553844710291,1.908237,-0.32801566,8.655303,0.17046683,-0.020450545,-0.15465398,6.42,43.8,-42.059998
1553844710312,2.1811842999999995,0.0,8.279403,0.20284270000000001,0.020477425,-0.21696223,5.8199997,43.62,-42.48
1553844710331,2.700742,0.8044763,8.60263,0.2113948,0.09133779,-0.21390789999999998,5.64,43.02,-42.96
1553844710351,3.2969165,1.8507744,9.277814999999999,0.10571512,0.062016264,-0.13205196,5.1,43.86,-43.2
1553844710371,4.0032277,3.562681,9.773430000000001,-0.108698584,-0.043663427000000005,0.023718676,4.3199997,44.16,-45.719997
1553844710391,4.5156019999999994,3.74704,10.027223,-0.36404026,-0.10902601,0.18437624,4.3199997,44.34,-48.239998
1553844710411,3.7183087,2.1931557999999995,9.703996,-0.34327084,-0.06260025,0.17948931,4.56,44.34,-47.82
1553844710431,2.657645,1.0462981,9.352037,-0.050666384,-0.037554774,0.050596748,4.74,44.879996999999996,-47.16
1553844710451,1.9800651999999999,0.12210801,8.93304,0.13748012,0.0052057933,-0.094789185,4.98,45.12,-46.92
1553844710473,1.908237,-0.39505535,8.609812,0.20895134,0.030251267999999998,-0.18886243,4.98,44.7,-45.239998
1553844710492,2.3487834999999997,0.38068968,8.348836,0.22055778,0.024142615,-0.18458638,4.5,44.76,-45.78
1553844710512,3.0239692000000002,1.2258687,8.46855,0.14481048,0.030862134,-0.12777591,4.7999997,44.34,-46.5
1553844710531,3.6704233,1.5850098999999997,9.27542,0.04401773,-0.02778093,-0.04775256,4.92,43.739998,-45.42
1553844710552,4.0295644,2.5331428,9.953,0.025080906,-0.06382198,0.03227079,4.2599998,43.14,-46.079997999999996
1553844710572,4.199558000000001,3.9194279,9.909904,-0.0873183,-0.08642399,0.21858469,4.68,43.98,-46.379996999999996
1553844710592,3.7087317000000004,3.1221343999999998,9.5794935,-0.25713882,-0.0021245892,0.3028841,4.38,45.12,-47.7
1553844710612,2.6720107000000004,1.2354459,9.438231,-0.15878953,0.07301183,0.19231749,3.9599998,44.579997999999996,-48.66
1553844710632,2.1380875,0.34716985,9.148524,0.043406863,0.06262712,0.042044632,4.62,44.46,-47.76
1553844710652,1.9920366000000003,-0.22266756,8.61939,0.16985597,0.015590503,-0.09173486,5.16,44.94,-47.399998
1553844710671,2.205127,0.06943397,8.303345,0.19367972,0.030251267999999998,-0.12655418,5.8199997,43.86,-45.96
1553844710691,2.8013015,0.8571504000000001,8.4781275,0.16680163,0.052242417,-0.12655418,5.7,43.559998,-46.26
1553844710712,3.347196,2.2793495999999998,9.150917999999999,0.048293784000000006,0.023531752000000003,-0.041643906,4.92,43.739998,-48.239998
1553844710732,3.9242165,3.3687446000000003,9.747093,-0.17467202,-0.032056987,0.093968175,4.38,43.5,-48.42
1553844710752,4.1253357,3.1795970000000002,10.024828999999999,-0.35365555,-0.07970448,0.17154807,4.3199997,43.98,-48.36
1553844710772,3.1795970000000002,1.6759924,9.648928,-0.17467202,-0.03694391,0.08847039,5.1,44.579997999999996,-46.559998
1553844710792,2.3751206000000002,0.7709564999999999,9.25866,0.07822618,-0.0045680506,-0.05263948,5.64,44.879996999999996,-45.96
1553844710811,2.1045675,0.19393626,8.846846000000001,0.14908655,0.011925311000000001,-0.145491,4.68,44.76,-47.64
1553844710831,2.2410412,0.21309046,8.633755,0.15702779999999997,0.03758165,-0.16626042,3.72,44.52,-47.82
1553844710851,2.7175019,0.99362403,8.595447,0.14114529,0.020477425,-0.13083023,4.08,44.579997999999996,-48.18
1553844710871,3.3448019999999996,1.3168511,9.342461,0.048293784000000006,-0.13956927,-0.09295659,4.8599997,44.16,-47.64
1553844710891,3.6656345999999997,2.2745612,9.663293,-0.07021407,-0.28678778,-0.03614612,5.4,43.739998,-46.14
1553844710911,4.005622,3.337619,9.352037,-0.17894809,-0.20859705,0.08724867,4.74,44.28,-47.46
1553844710931,3.9074564,2.9952377999999995,9.237112,-0.2577497,-0.008233242,0.18254364,3.84,44.879996999999996,-48.6
1553844710952,3.2729738,1.7143008000000002,9.39274,-0.17589375,0.05957280000000001,0.12756577,3.48,45.3,-48.42
1553844710972,2.7127132,0.7302538000000001,9.371192,-0.0042406265000000005,0.024753481,0.005392718,3.4199998,44.82,-47.64
1553844710992,2.4134290000000003,-0.09577099,8.736709,0.14603223,-0.044274293,-0.1033413,3.72,44.34,-46.62
1553844711012,2.5355369999999997,0.102953814,8.265037,0.19123626,0.047355495,-0.11433687,3.36,44.94,-47.1
1553844711032,2.8467927000000004,1.0271438,8.382356,0.19673404,0.16464162,-0.06974371,3.1799998,44.94,-47.34
1553844711052,3.3567734,1.7214836,8.873182,0.13137145,0.17563719,-0.0037702604,4.38,44.82,-48.0
1553844711072,3.7398572,2.796513,9.593859,0.040963400000000004,0.10172250000000001,0.09580077,4.5,45.42,-48.539997
1553844711091,3.8906965,3.0742488,10.077502,-0.09525955,0.01070358,0.15749817,4.14,44.64,-46.92
1553844711112,3.5890178999999995,2.6001825000000003,9.967366,-0.24980846,-0.07970448,0.1587199,4.56,44.34,-47.1
1553844711139,2.9114382,1.3455825000000001,9.411894,-0.19727404,-0.044274293,0.0970225,4.68,44.579997999999996,-48.12
1553844711154,2.4206119,0.65124273,8.839663,-0.007294953000000001,0.057740204,0.03104906,4.62,44.34,-46.559998
1553844711172,2.2817439999999998,0.13886794,8.444607000000001,0.1710777,0.11882673,-0.017209295,4.74,45.0,-45.78
1553844711191,2.4206119,0.22266756,8.492493,0.26392922,0.10966375,-0.06852197,4.56,44.219997,-45.3
1553844711211,2.7989072999999998,1.0606636999999999,8.751075,0.23033163,0.04430117,-0.09112399,3.9599998,43.98,-44.82
1553844711232,3.328042,1.924997,9.304152,0.049515515999999996,-0.044274293,-0.05386121,4.74,43.68,-45.42
1553844711251,3.6608462,2.8276386000000002,9.818921000000001,-0.066548884,-0.04183083,0.0029492574,4.7999997,43.44,-47.52
1553844711271,3.8356282999999998,3.2681851,9.845258,-0.17955895,-0.024115737999999998,0.090913855,4.2,43.92,-48.96
1553844711292,3.5674694,2.6552507999999997,9.617802000000001,-0.25713882,-0.034500446000000004,0.14100479999999999,5.04,43.44,-47.399998
1553844711311,2.9497466,1.4581133,9.325700999999999,-0.18200241,-0.0070115114,0.10190942,5.22,44.82,-46.86
1553844711332,2.4445546,0.48603779999999996,9.098245,-0.0011863003,-0.0015137241,-0.003159395,4.7999997,45.239998,-47.76
1553844711351,2.2434354,-0.062251142999999995,8.700794,0.11548896,-0.02900266,-0.086237065,5.16,44.219997,-47.64
1553844711371,2.4014575000000002,0.08858817,8.526012,0.18634933,-0.034500446000000004,-0.1473236,5.16,44.64,-47.039997
1553844711391,2.8156672,0.93616146,8.616995,0.16313644,-0.057102464000000006,-0.17542339999999998,4.44,43.86,-46.26
1553844711412,3.387899,1.6352897,9.205987,0.02813523,-0.12002158,-0.13877149,3.48,43.5,-47.34
1553844711432,3.8332339999999996,2.8276386000000002,9.816526,-0.092816085,-0.15056485,-0.06974371,3.24,44.64,-49.02
1553844711451,4.1157584,3.78056,9.500483000000001,-0.18688932,-0.061378515999999994,0.07869655,3.06,44.16,-48.18
1553844711473,3.9577362999999997,2.9832664,9.474146000000001,-0.238202,0.018644828000000002,0.19415009,3.1799998,44.579997999999996,-48.059998
1553844711491,3.2346652000000002,1.4413534,9.246689,-0.10992031,0.054075014000000005,0.16788287,4.02,44.879996999999996,-47.7
1553844711512,2.6097596000000003,0.20351335,9.179649000000001,0.067230605,0.028418673,0.06281405,4.08,44.579997999999996,-45.84
1553844711532,2.1811842999999995,-0.505192,8.583475,0.17474289,0.016201368,-0.057526402000000004,4.5,44.879996999999996,-46.079997999999996
1553844711552,2.2793495999999998,0.2466103,8.260247999999999,0.22605558,0.10477682,-0.08440447599999999,5.22,44.28,-46.14
1553844711571,2.8851009999999997,1.201926,8.691217,0.17168857,0.111496344,-0.050806884000000004,4.44,44.64,-46.86
1553844711591,3.5195839999999996,2.6600394,9.380769,-0.006073222,0.043079436,0.04754242,3.3,44.76,-48.059998
1553844711612,3.9744961,3.4262072999999997,9.957788,-0.20338269,-0.028391793,0.14344826,3.84,43.739998,-47.76
1553844711631,3.9529476000000003,3.1293173,10.065532000000001,-0.29745594,-0.039998233,0.17826758,5.22,44.46,-47.879996999999996
1553844711651,3.2610023,1.7789462,9.818921000000001,-0.25225192,-0.060767654000000004,0.14405912,5.1,45.0,-47.76
1553844711671,2.5906053,0.7326481,9.301758,-0.13496579,-0.09314351,0.059759725,5.16,44.34,-47.34
1553844711691,2.1907616,-0.11492519,8.691217,0.0091984095,-0.07298495599999999,-0.034313522,4.68,44.76,-47.82
1553844711711,2.1620302000000002,-0.25618739999999995,8.037580499999999,0.18390587,0.02231002,-0.11433687,4.02,44.94,-47.94
1553844711732,2.5187771,0.45491222,8.109408,0.27064875,0.082174815,-0.15098879,4.14,44.34,-47.1
1553844711751,3.059883,1.4150163999999998,8.449396,0.22055778,0.004594928,-0.11616947,4.92,44.34,-47.76
1553844711772,3.6009892999999997,1.6520496999999998,9.555551,0.11426724,-0.07176323,-0.08684793,5.7,44.879996999999996,-48.84
1553844711792,3.7685885000000003,2.7821474,10.163696,0.07578272,-0.057102464000000006,-0.08257188,5.22,44.28,-48.78
1553844711811,4.0582957,3.677606,9.996098,-0.10625512,-0.054659000000000006,0.02066435,5.04,43.079997999999996,-47.82
1553844711832,3.981679,3.2370596000000003,9.636956,-0.37625757,-0.054659000000000006,0.15566558,4.7999997,43.2,-46.68
1553844711851,3.3591676,1.3719195,9.251478,-0.32433403,0.03758165,0.15322211,3.9599998,43.68,-47.34
1553844711871,2.657645,0.021548472000000003,8.966559,0.02324831,0.039414246,0.028605599,4.3199997,43.5,-47.94
1553844711892,2.2865324,-0.57462597,8.514041,0.25598797,-0.022283142000000002,-0.09662178,4.5,44.64,-47.28
1553844711911,2.351178,-0.21787901,8.315316000000001,0.2865312,-0.057102464000000006,-0.18214291,3.9599998,45.0,-46.8
1553844711932,2.7653873,0.90982443,8.2578535,0.20101011,-0.054048132,-0.2053558,4.14,44.64,-47.82
1553844711951,3.3040992999999994,1.7310607,8.959375999999999,0.030578692999999997,-0.019839682,-0.14915618,4.5,45.059998,-48.719997
1553844711971,3.9194279,3.2155110000000002,9.895537,-0.042725135,0.04674463,-0.031259197999999995,4.08,44.82,-48.0
1553844711991,4.4078599999999994,4.3695517,9.711179,-0.05921849999999999,0.004594928,0.122678846,3.8999998999999996,44.16,-48.3
1553844712011,4.312089,3.1556542000000003,9.818921000000001,-0.24919759,-0.047328617,0.276006,4.08,44.94,-48.059998
1553844712031,3.11974,1.2402343999999998,9.519637,-0.1875002,-0.025337468999999998,0.23080198,4.92,44.879996999999996,-45.899998
1553844712052,2.2937152000000003,0.0,8.976136,0.10021733,0.06751405,0.0848052,4.74,43.92,-45.84
1553844712072,1.9441511999999999,-0.6153286,8.377566999999999,0.26026404,0.11638327,-0.041643906,4.2,44.52,-47.82
1553844712092,2.1452703,0.32562137,8.245882,0.24010547,0.15608951,-0.07951755,4.92,44.76,-48.899998
1553844712112,2.9473522,1.4748733,8.820508,0.0867783,0.0143687725,-0.040422175,4.38,44.1,-48.66
1553844712131,3.45015,2.9832664,9.208381,-0.09159436,-0.07115236,0.07380962,3.6599998,42.66,-46.14
1553844712151,3.9673133000000003,3.493247,9.773430000000001,-0.25713882,-0.07970448,0.16971546,4.2,42.719997,-46.2
1553844712172,4.0367475,2.3416007000000003,10.213975999999999,-0.34999037,-0.07359582,0.13367443,5.1,44.28,-48.3
1553844712191,3.1508656000000004,1.0989721000000001,9.584282,-0.17406116,-0.10719341,-0.0068245865,4.14,44.82,-47.579997999999996
1553844712211,2.47568,0.3328042,8.889942,0.03851994,-0.021061412999999998,-0.1155586,3.84,44.879996999999996,-47.16
1553844712231,2.2673783,-0.17957062,8.231517,0.16313644,0.108442016,-0.14854532,4.74,44.579997999999996,-46.44
1553844712251,2.3894862999999997,0.30886146,8.341654,0.23216423,0.16219817,-0.15648657,4.74,44.579997999999996,-45.42
1553844712271,2.9162266,0.9888355,8.38475,0.21200567,0.04002511,-0.16015176,3.78,45.0,-46.2
1553844712291,3.5076127,1.5778271000000001,9.45978,0.12526279999999998,-0.12918456,-0.14488013,3.6,44.7,-47.16
1553844712312,3.7877428999999996,3.4788813999999997,9.96976,0.006754948,-0.11757812,-0.086237065,4.68,44.64,-47.34
1553844712331,4.326454599999999,3.8380224999999997,9.864412,-0.31639275,-0.12613024,0.081140004,4.98,43.8,-46.44
1553844712351,4.0918155,2.8635526000000002,9.687236,-0.5106479,-0.03694391,0.1709372,4.62,43.14,-44.879996999999996
1553844712371,3.2849449999999996,1.1827718,9.344854,-0.23270422,0.040635977000000004,0.10862894,4.02,43.86,-45.48
1553844712391,2.597788,0.07901107,8.971347999999999,0.10266079,0.055907607000000005,-0.0007159340299999999,3.54,44.82,-46.44
1553844712411,2.1596357999999998,-0.59378016,8.231517,0.28836384,0.047355495,-0.10944995,3.6,45.059998,-46.5
1553844712431,2.2458298,0.06943397,7.977723599999999,0.29691592,0.10905289,-0.1558757,3.6599998,44.52,-47.28
1553844712452,2.7342618,0.8140534,8.3679905,0.24010547,0.07606616,-0.1436584,4.2599998,44.16,-45.899998
1553844712472,3.3926873,1.0247495999999998,9.342461,0.13503665,-0.015563624,-0.13021936,4.02,44.219997,-46.2
1553844712492,3.8763309,3.8092911,10.029617,0.053180705999999994,-0.011898434,-0.06974371,3.0,44.579997999999996,-47.64
1553844712512,4.5706706,4.6137676,9.996098,-0.21132395,-0.12246504400000001,0.14955692,3.3,45.18,-46.5
1553844712532,4.3575800000000005,3.258608,9.677659,-0.5185892,-0.056491595,0.29066679999999995,4.08,44.76,-46.26
1553844712552,3.1748084999999997,1.1731946000000002,9.512454,-0.2736322,0.033305597,0.20942171,4.68,43.62,-45.18
1553844712571,2.300898,0.062251142999999995,9.047964,0.11060204,0.058961935,0.042655498,3.8999998999999996,43.92,-46.5
1553844712591,1.8172544999999998,-0.6608198000000001,8.411087,0.25049016,0.018033965,-0.086237065,3.4199998,45.18,-48.059998
1553844712611,2.0040080000000002,-0.17238778,7.9585695,0.22422297,0.0736227,-0.15526484,4.08,44.76,-47.399998
1553844712632,2.5858168999999998,0.7398309000000001,8.212361999999999,0.18940365,0.027807808,-0.17542339999999998,4.2,44.399998,-48.3
1553844712651,3.2729738,1.0654523,9.050359,0.1270954,-0.061378515999999994,-0.16259523,4.5,43.98,-47.52
1553844712671,3.842811,2.9665065,9.842864,0.061121956,-0.050993808,-0.08073928,3.72,43.26,-47.7
1553844712692,4.6712303,4.7981267,9.926663000000001,-0.17283943,-0.11452380000000001,0.121457115,2.34,43.98,-48.719997
1553844712711,4.592219,3.4621215,9.792584,-0.47949377,-0.08398053,0.28944507,3.3,44.82,-48.36
1553844712732,3.3208592000000006,1.2450229,9.543579,-0.31272757,0.058961935,0.21369778,4.14,45.48,-48.18
1553844712752,2.3535721,0.20830189999999998,9.076694999999999,0.06539801,0.111496344,0.049985882,4.62,45.18,-46.559998
1553844712771,1.9585168000000002,-0.5913859,8.511647,0.20650789,0.060183667,-0.08257188,5.8199997,44.94,-45.899998
1553844712791,1.9824595,-0.4189981,8.05434,0.22177951,0.07850962,-0.13021936,4.68,45.42,-47.34
1553844712811,2.3751206000000002,0.32801566,8.169266,0.24987932,0.08339655,-0.16442783,3.84,44.82,-47.879996999999996
1553844712831,2.9497466,0.7853220999999999,8.755863,0.24743585,-0.008844106,-0.19130589,5.1,44.219997,-47.46
1553844712851,3.7829542000000003,1.9537282,10.10384,0.17291029,-0.057102464000000006,-0.17297994,4.14,43.98,-47.7
1553844712871,4.592219,5.6337285,9.941028999999999,-0.18627848,-0.09131091,0.13000923,3.4199998,43.5,-47.7
1553844712891,5.030371,4.242655,9.873989,-0.6181601999999999,-0.14506707,0.33098388,3.36,44.04,-48.36
1553844712911,3.4166303,1.594587,9.545974000000001,-0.44162014,0.06812491,0.24179757,3.12,44.46,-49.379996999999996
1553844712931,2.3224466,0.08858817,9.201198,0.10693685,0.12127019,0.030438194,3.9599998,44.94,-48.719997
1553844712952,1.9034485,-0.8236305,8.923461999999999,0.2761465,0.01070358,-0.13816062,3.9599998,45.059998,-47.579997999999996
1553844712972,1.8938714,-0.46688359999999995,8.176449,0.21261653,-0.06382198,-0.22856866,3.9599998,44.34,-44.879996999999996
1553844712992,2.482863,0.5123747999999999,7.9130783,0.10938031,-0.0027354546,-0.20413406,5.04,43.68,-42.48
1553844713011,3.0215747000000004,0.67757976,8.339259,0.057456765,-0.018007086999999998,-0.19436021,4.74,43.5,-42.3
1553844713031,3.5339496,1.2522057,9.332883,0.10510425,-0.064432845,-0.17847772,4.38,43.62,-43.32
1553844713052,4.295329,4.5251794,9.876384,0.13564752,-0.04549602,-0.08440447599999999,4.98,42.96,-43.32
1553844713071,4.740664,4.7310870000000005,10.0368,-0.20582616,-0.16094956,0.17154807,5.04,42.66,-42.96
1553844713091,3.938582,2.5139885,9.471751,-0.46910906,-0.05343727,0.2796712,5.04,42.719997,-43.26
1553844713111,2.8803127,0.37111259,9.629773,-0.20765875,0.124324515,0.13367443,4.56,43.559998,-42.719997
1553844713131,2.351178,-0.42857520000000005,9.024022,0.18696019,0.17991325,-0.032480925,4.44,43.8,-42.42
1553844713151,2.1213273999999998,0.038308397,8.090255,0.37632844,0.18174586,-0.13083023,4.7999997,43.379996999999996,-42.6
1553844713171,2.604971,0.9624985,8.174054,0.19551231,0.07850962,-0.05508294,4.74,43.5,-42.899998
1553844713191,3.2466366,2.176396,8.865999,-0.01157101,-0.013731028999999999,0.03715771,4.7999997,43.379996999999996,-43.14
1553844713211,3.8308396,3.2801563999999996,9.481328,-0.16917424,-0.068708904,0.13856134,4.8599997,42.96,-42.78
1553844713231,4.280963400000001,2.796513,10.012857,-0.29684508,-0.11757812,0.18254364,4.7999997,43.379996999999996,-42.48
1553844713251,3.572258,1.637684,9.912297,-0.24064548,-0.11513466,0.0848052,4.62,43.32,-43.14
1553844713271,2.7773588,0.67757976,9.289786,-0.026231775,-0.044274293,-0.023317947999999998,4.44,43.379996999999996,-43.379996999999996
1553844713291,2.343995,0.14365649,8.55235,0.17291029,0.13776354,-0.097843505,4.2,44.579997999999996,-45.3
1553844713311,2.351178,0.40463245,8.353624,0.2517119,0.25749314,-0.09295659,3.3,45.18,-47.28
1553844713332,2.6360965,1.0199611,8.504464,0.23399682,0.1579221,-0.07524149,3.3,43.739998,-47.1
1553844713351,3.1867797,1.1708003,8.772623,0.15580606,-0.04549602,-0.05630467,3.24,43.26,-47.76
1553844713372,3.4980354,2.0255566000000003,9.646533,0.11243464,-0.13101715,-0.050806884000000004,3.0,44.52,-48.48
1553844713392,3.7733772000000005,3.859571,9.976942999999999,-0.062272824000000004,-0.13162802,0.06525751,3.24,44.52,-47.64
1553844713412,4.0726614,3.512401,9.701602000000001,-0.40435737,-0.09008919,0.19537179999999998,3.12,44.28,-47.64
1553844713432,3.6392976999999997,2.2721667,9.543579,-0.48621333,0.07484443,0.22102815,3.24,43.98,-48.0
1553844713451,3.0048149,0.8834874,9.342461,-0.1716177,0.11638327,0.13550702,3.8999998999999996,44.1,-47.7
1553844713472,2.3679377999999995,-0.023942748,8.820508,0.16680163,0.03513819,-0.031870063,4.2599998,44.579997999999996,-47.64
1553844713492,2.205127,-0.40223816,8.341654,0.21506,-0.048550345,-0.12411071,5.46,44.1,-45.36
1553844713512,2.3631492,0.021548472000000003,8.310528,0.22116865,-0.043663427000000005,-0.16809301,5.3399997,43.739998,-44.76
1553844713531,2.7893302,0.8332075999999999,8.566715,0.19062538,-0.07909361,-0.23101214,3.84,43.62,-45.96
1553844713551,3.3448019999999996,1.2234744,9.038387,0.08189137,-0.140791,-0.24750549,3.48,43.559998,-45.84
1553844713571,3.8452053,3.1700199000000002,9.984126,-0.0011863003,-0.09253265,-0.1980254,3.24,43.8,-47.52
1553844713592,4.348003,5.1883935999999995,9.445414999999999,-0.18811107,-0.07909361,0.08847039,3.84,43.739998,-46.92
1553844713611,4.4844766,3.3567734,9.601042,-0.49843059999999995,-0.008233242,0.316934,4.02,44.28,-46.559998
1553844713632,3.3064934999999998,0.85236186,9.763853,-0.33105353,0.054075014000000005,0.2692865,3.0,44.64,-47.76
1553844713652,2.3463893,-0.04070267,9.344854,0.10082819,0.04674463,0.022496943999999998,3.12,45.059998,-48.059998
1553844713672,2.0518935000000003,-0.58420306,8.439817999999999,0.24560326,-0.03511131,-0.14488013,3.24,45.36,-48.0
1553844713692,2.2075214,0.102953814,7.85801,0.1851276,0.04796636,-0.15831918,3.8999998999999996,45.0,-46.26
1553844713712,2.9234095,0.49800915,8.317711,0.12587367,0.10294423,-0.1399932,4.08,45.3,-45.66
1553844713732,3.4238129,1.6137413,9.088667,0.14053445,0.060794532000000005,-0.12472158,3.4199998,44.52,-46.739998
1553844713752,4.14449,4.0032277,9.711179,0.023859175,-0.037554774,0.04143377,3.24,44.219997,-47.46
1553844713772,4.6640472,4.017593,10.08708,-0.33105353,-0.11452380000000001,0.24485189999999998,3.24,44.16,-47.219997
1553844713792,3.859571,2.1620302000000002,9.909904,-0.50148493,-0.032056987,0.26867563,3.24,43.86,-47.399998
1553844713812,2.6767993,0.65842557,9.541185,-0.17467202,0.05468588,0.10740721,3.72,44.34,-46.26
1553844713832,2.1117504,-0.18914771,8.791777,0.18390587,0.112718076,-0.05874813,4.14,45.239998,-45.78
1553844713851,2.013585,-0.5794145,8.171659,0.28958556,0.14387220000000003,-0.13693888,3.8999998999999996,45.42,-47.34
1553844713871,2.4421604,0.50758624,8.298556,0.33417872,0.12493538,-0.16748215,3.9599998,44.82,-47.82
1553844713892,3.0455174,1.0870007,8.339259,0.27431393,0.015590503,-0.14243668,3.84,44.7,-47.76
1553844713912,3.7925312999999994,1.7909175,9.613013,0.11182377,-0.07848274,-0.08012842,4.38,44.82,-46.32
1553844713931,3.9481592000000005,4.14449,9.984126,0.07211753,-0.07298495599999999,0.00050579646,4.56,44.7,-46.92
1553844713951,4.5084195,4.5443335,9.876384,-0.27118877,-0.14323446,0.23629977,3.72,44.52,-48.719997
1553844713972,3.9026680000000002,2.7366562,9.759064,-0.5375260000000001,-0.012509298500000002,0.31876659999999996,2.82,44.7,-48.48
1553844713992,2.918621,0.67757976,9.529214,-0.22842817,0.045522900000000005,0.16543941,3.1799998,44.64,-48.48
1553844714012,2.1907616,-0.27773590000000004,8.925857,0.16985597,0.04674463,-0.027594006,3.9599998,44.16,-47.1
1553844714032,2.0087965,-0.66321415,8.080677,0.25782055,-0.0021245892,-0.121056385,4.56,44.399998,-46.98
1553844714052,2.205127,-0.0047885496,8.073495,0.26698354,0.057740204,-0.14976706,4.62,44.34,-47.579997999999996
1553844714071,2.7175019,0.49082634,8.262642,0.24926844,0.04796636,-0.17481253,4.2,44.399998,-46.8
1553844714091,3.3902931000000005,0.9433443000000001,9.203592,0.20589702,-0.022894006,-0.20230147,3.84,44.64,-47.579997999999996
1553844714111,3.9146392,4.3408203,10.10384,0.08800002,-0.014341895,-0.09601091,4.2,44.28,-46.86
1553844714131,4.556305,5.4134555,9.842864,-0.19177626,-0.09986303,0.12878749,4.08,44.76,-46.739998
1553844714152,4.285752,3.2202997000000004,9.814133,-0.6285449000000001,-0.060767654000000004,0.35541849999999997,4.02,45.0,-48.539997
1553844714171,2.813273,0.9481328000000001,9.531608,-0.13068973,0.09072693,0.13306355,3.3,44.7,-48.36
1553844714191,2.020768,0.10055954,9.028810499999999,0.23644027,0.10477682,-0.07524149,3.1799998,44.76,-47.94
1553844714211,2.0016138999999997,-0.2657645,8.461367999999998,0.22239038,-0.022894006,-0.16748215,4.02,44.219997,-47.16
1553844714232,2.4421604,0.29449580000000003,7.9944835,0.13625838,0.024753481,-0.13754974,5.04,44.28,-46.44
1553844714251,2.8803127,0.505192,8.22194,0.11609982,0.07301183,-0.13754974,4.44,44.16,-46.26
1553844714272,3.3855044999999997,0.70870537,9.115005,0.17596461,-0.04549602,-0.19863628,3.54,43.559998,-45.78
1553844714291,3.8859081,2.1883671000000002,10.170879,0.21383828,-0.05588073,-0.2016906,3.8999998999999996,43.32,-45.719997
1553844714311,4.5108137,5.2314906,9.613013,-0.04883379,-0.089478314,0.054261937999999996,3.8999998999999996,43.079997999999996,-45.719997
1553844714332,4.3408203,3.6728175000000003,9.763853,-0.6285449000000001,-0.024726603,0.38412917,4.02,42.6,-43.079997999999996
1553844714351,2.997632,1.0750294,9.505271,-0.38358796,0.1701394,0.26867563,4.38,42.36,-40.44
1553844714371,2.142876,0.22266756,9.273026,0.15580606,0.20923479,0.034103386,5.4,43.14,-41.04
1553844714392,1.9704881999999997,-0.339987,8.796566,0.29813766,-0.006400645999999999,-0.11922379599999999,5.7599998,43.079997999999996,-42.239998
1553844714411,2.205127,0.17238778,8.1549,0.19856663,-0.04671775,-0.12349985,5.52,42.899998,-42.36
1553844714431,2.6911650000000003,0.6560313,8.095042999999999,0.10938031,0.060183667,-0.106395625,5.52,43.26,-42.12
1553844714451,3.1843855,0.73743665,8.93304,0.12892799,0.011314446,-0.15037791,5.7599998,43.5,-42.54
1553844714471,3.6560576,1.6855695,9.974549,0.18451674,-0.03144612,-0.18519723,5.4,43.559998,-42.899998
1553844714492,4.333637,4.9776974,9.567522,0.017750522,-0.051604677,0.034714247999999996,4.74,43.379996999999996,-43.2
1553844714512,4.7095385,4.242655,9.505271,-0.46300042,-0.07909361,0.35297504,5.1,42.899998,-43.2
1553844714532,3.3448019999999996,1.6616267,9.526819,-0.41290948,0.09194866,0.34259033,5.1,42.96,-43.079997999999996
1553844714551,2.2386470000000003,0.28731298,9.217958,0.05134811,0.18480018,0.12817663,5.1,43.86,-42.54
1553844714571,1.9178141,-0.41181526,8.858817,0.30974412,0.092559524,-0.06974371,5.2799997,43.739998,-42.18
1553844714592,2.0255566000000003,-0.14126222,8.2578535,0.25476623,-0.0057897805,-0.15831918,5.7599998,43.079997999999996,-42.48
1553844714611,2.5187771,0.6153286,8.200391,0.16863424,0.049798958,-0.15098879,5.58,43.559998,-42.6
1553844714631,3.15326,0.9074302,9.213169,0.12343021,-0.012509298500000002,-0.15831918,5.64,43.559998,-42.78
1553844714651,3.6823947,3.6009892999999997,9.924269,0.054402437000000005,-0.10108476,-0.094789185,6.2999997,43.32,-43.98
1553844714672,4.6903844,4.743058,9.567522,-0.27302134,-0.15911695,0.16482855,5.1,43.379996999999996,-44.52
1553844714692,4.5610933,3.4597269999999996,9.553157,-0.55707365,-0.013120163999999998,0.3639706,4.02,43.5,-43.44
1553844714712,3.0550947,1.2043202,9.469357,-0.2192652,0.11393981,0.25584748,4.7999997,43.32,-42.96
1553844714731,2.0518935000000003,0.5147691,9.201198,0.13320406,0.17075028,0.060981455999999996,5.7,42.96,-42.96
1553844714752,1.6592325,-0.40463245,8.865999,0.17840809,0.017423097,-0.14121494,5.8199997,43.68,-44.399998
1553844714772,2.0542877,-0.09337672,8.310528,0.12404107,0.018033965,-0.17359081,4.7999997,44.76,-47.76
1553844714792,2.648068,0.5985687,8.255460000000001,0.12831713,0.052853283,-0.17481253,4.2,44.579997999999996,-49.02
1553844714812,3.2274826,0.90503585,8.777411,0.14664309,-0.042441695999999994,-0.2016906,4.38,44.04,-47.94
1553844714832,3.7207031,1.4796618000000001,10.015251,0.14419962,-0.11452380000000001,-0.21940568,4.2,44.399998,-48.12
1553844714851,4.348003,5.047130999999999,9.941028999999999,0.05195898,-0.09986303,-0.03981131,4.68,43.98,-46.92
1553844714872,4.786155,4.4318027,9.435837,-0.44406359999999995,-0.10169563,0.32487524,4.02,43.86,-46.559998
1553844714891,3.2633965,1.9489397000000002,9.368797,-0.43795496,0.1530352,0.33098388,3.1799998,44.34,-48.42
1553844714912,2.2386470000000003,0.44294083,9.28021,0.03729821,0.25138449999999996,0.09030299,3.6599998,43.739998,-48.6
1553844714931,1.8004947,-0.12450229,9.098245,0.2535445,0.093781255,-0.11800206,4.5,43.44,-48.12
1553844714951,2.0159793,-0.04070267,8.375174000000001,0.17535377,-0.099252164,-0.16931474,5.4,43.079997999999996,-46.02
1553844714972,2.6001825000000003,0.40463245,8.080677,0.11182377,-0.003957185,-0.14304753,5.46,43.5,-46.44
1553844714991,3.1149516,0.6488484999999999,8.693612,0.16374731,0.020477425,-0.15648657,5.4,44.16,-48.12
1553844715012,3.6225379,0.77574503,10.101445,0.22177951,-0.06931976,-0.21146445,4.3199997,44.04,-47.7
1553844715032,4.1420956,5.2314906,9.634561999999999,0.10999117,-0.10658255,-0.06974371,3.4199998,44.04,-48.36
1553844715051,4.7981267,4.5467277,9.160496,-0.48865676,-0.07848274,0.35786197,3.84,43.44,-48.12
1553844715071,3.7685885000000003,2.4708917,9.466963,-0.4972089,0.171972,0.43299840000000006,4.14,43.5,-47.879996999999996
1553844715092,2.1740015,0.43575802,9.378374,0.09288695,0.2507736,0.14161566,3.78,44.04,-47.94
1553844715111,1.6328955,-0.12929083,9.213169,0.38610226,0.112718076,-0.16320609,3.6599998,44.579997999999996,-47.82
1553844715132,1.8819,0.24182175,8.628966,0.2394946,-0.08764572400000001,-0.22184916,4.2,44.82,-48.48
1553844715151,2.6935592,0.7972935,8.272219999999999,0.018972252,0.021699157,-0.100286976,4.92,44.7,-48.0
1553844715171,3.2250881000000002,0.9529214,9.021627,0.018972252,0.017423097,-0.060580727,4.92,43.8,-47.7
1553844715192,3.4477558,2.4972286,9.507666,0.06356542,-0.06321111,-0.03614612,4.56,42.899998,-48.0
1553844715211,4.228289,4.0080160000000005,9.648928,-0.15695694,-0.1444562,0.12634404,3.9599998,43.5,-48.18
1553844715232,4.403071400000001,3.3495904999999997,9.596252999999999,-0.40130305,-0.07115236,0.3102145,3.4199998,44.1,-48.36
1553844715251,3.0766432,1.4102278999999998,9.505271,-0.23026077,0.10050077,0.25340402,3.8999998999999996,43.86,-48.6
1553844715271,1.8962656000000002,0.38068968,9.253872,0.07700445,0.14875913,0.017610023,5.1,43.079997999999996,-47.1
1553844715292,1.6257126,-0.27773590000000004,9.057542,0.16374731,0.05835107,-0.18031032,5.7599998,43.379996999999996,-46.379996999999996
1553844715311,2.0231621,0.18435916,8.497281,0.15275174,-0.0070115114,-0.23895338,4.62,44.1,-47.82
1553844715332,2.6552507999999997,1.1253091,8.229122,0.120986745,0.0052057933,-0.19252762,3.8999998999999996,44.1,-48.059998
1553844715353,3.1915683999999995,1.3000913,8.605023,0.09044349,-0.047328617,-0.13571715,3.6,44.16,-48.899998
1553844715372,3.7853483999999997,1.4700848,9.895537,0.10571512,-0.077261016,-0.15159966,4.56,44.52,-47.219997
1553844715391,4.0439300000000005,4.1157584,10.137360000000001,0.107547715,-0.08153707,-0.072798036,5.1,44.76,-46.98
1553844715411,4.3887057,4.3934940000000005,9.517242,-0.25469539999999996,-0.14140187,0.20697826,3.9599998,44.579997999999996,-49.5
1553844715432,3.493247,2.423006,9.378374,-0.48254812,0.07179011,0.34014687,3.48,44.1,-49.44
1553844715451,2.5020173,0.7637736999999999,9.426260000000001,-0.17222856,0.17441547,0.19415009,4.2,44.1,-48.899998
1553844715471,1.9728824,0.019154198,9.179649000000001,0.12037589,0.048577222999999996,-0.04469823,5.52,43.8,-46.559998
1553844715491,1.9824595,-0.23703320000000003,8.5331955,0.13992357,-0.121243306,-0.15159966,5.52,43.98,-45.48
1553844715512,2.4373717,0.26097596,8.047157,0.13503665,0.0009297369400000001,-0.1577083,4.62,44.64,-46.32
1553844715531,2.8276386000000002,0.61293435,8.322499,0.19367972,0.07117924,-0.16381696,4.44,43.98,-45.96
1553844715552,3.2705792999999996,0.8739103000000001,9.167678,0.21872519,0.006427524,-0.1980254,4.3199997,43.8,-46.379996999999996
1553844715572,3.7614057,2.473286,10.474953,0.15397346,-0.05588073,-0.18397550000000001,4.74,43.44,-45.18
1553844715591,4.5251794,5.2434616,9.555551,-0.14596136,-0.13346061,0.092746444,5.04,42.899998,-45.3
1553844715612,4.4318027,3.9984387999999997,9.385557,-0.5815083000000001,-0.03938737,0.40795290000000006,3.9599998,43.079997999999996,-47.879996999999996
1553844715632,2.9329867000000003,1.1947431999999998,9.438231,-0.29684508,0.20129353,0.3132688,3.48,43.86,-48.899998
1553844715651,2.030345,0.23224466,9.323306,0.19245797,0.22389555,0.080529146,4.3199997,45.059998,-48.539997
1553844715672,1.6281068,-0.30646718,9.033599,0.32684833,0.0125361765,-0.15709744,5.52,44.76,-46.98
1553844715692,2.0423164000000003,0.30886146,8.245882,0.17046683,-0.06321111,-0.17420167,5.4,44.16,-46.079997999999996
1553844715712,2.6624336,0.56265455,8.243488000000001,0.08983262,0.0143687725,-0.12716503,4.62,44.579997999999996,-47.28
1553844715732,3.1628369999999997,0.86193895,8.952193,0.14664309,0.040635977000000004,-0.1522105,4.5,44.579997999999996,-48.6
1553844715752,3.7326744,1.5131816999999999,10.297775999999999,0.17657548,-0.09314351,-0.17053647,4.08,44.64,-49.2
1553844715772,4.434197,5.1668449999999995,9.335278,-0.042725135,-0.14201273,0.05242934,4.2599998,44.64,-49.02
1553844715791,4.642499,3.8332339999999996,9.454991,-0.57845396,-0.019228818,0.4629308,4.56,44.399998,-46.5
1553844715811,3.0479119999999997,1.1468576000000001,9.718361999999999,-0.30417547,0.20434786,0.38657263,4.3199997,45.059998,-46.559998
1553844715831,1.7837347,0.17478207,9.201198,0.20223182,0.25627142,0.098244235,4.44,44.879996999999996,-48.059998
1553844715852,1.4629020000000001,-0.21548474,8.980925,0.35494816,0.02108829,-0.21268617,4.5,44.34,-47.7
1553844715871,2.073442,0.7709564999999999,8.351231,0.119154155,-0.10108476,-0.21207531,4.7999997,43.86,-47.7
1553844715891,2.7486273999999997,1.0822121999999998,8.494887,-0.014625336000000001,0.010092715,-0.12777591,5.7,42.96,-45.539997
1553844715911,3.3064934999999998,1.8962656000000002,9.371192,-0.007905818,-0.03327872,-0.05874813,5.58,43.32,-45.66
1553844715931,3.8811195,3.3663504,9.517242,-0.06960321,-0.10902601,0.049375015999999994,5.22,43.739998,-47.64
1553844715951,4.3958883,3.3567734,9.6585045,-0.27912998,-0.099252164,0.19720441,5.16,43.8,-48.239998
1553844715971,3.6464806000000003,2.1189332000000003,9.543579,-0.26080403,0.033305597,0.2234716,4.62,43.98,-48.3
1553844715991,2.3823035,0.82123625,9.273026,-0.009127548000000001,0.07179011,0.08419433,5.22,43.379996999999996,-45.36
1553844716011,1.647261,0.062251142999999995,9.050359,0.106325984,0.055907607000000005,-0.15098879,6.2999997,43.02,-41.04
1553844716032,1.8603516,0.052674048,8.803747999999999,0.08189137,-0.029613525,-0.2511707,6.72,42.66,-39.36
1553844716051,2.5714512000000003,0.818842,8.425453,0.06784147,-0.042441695999999994,-0.23284473,6.12,42.54,-40.379996999999996
1553844716072,3.1915683999999995,1.2761483999999998,8.549955,0.07089580000000001,-0.048550345,-0.18214291,5.58,42.36,-40.62
1553844716092,3.6656345999999997,1.472479,9.213169,0.09288695,-0.07176323,-0.17542339999999998,6.18,42.84,-40.559998
1553844716112,4.0128045,2.7558103,10.024828999999999,0.13259318,-0.067487165,-0.11922379599999999,7.2,43.559998,-40.559998
1553844716132,4.216318,4.3863115,9.574705,0.06051109,-0.057713325999999995,0.035935983,7.02,43.739998,-40.739998
1553844716151,3.7733772000000005,3.1915683999999995,9.536397000000001,-0.39214003,0.013147042,0.33342737,5.58,43.14,-41.46
1553844716171,2.6456738,1.0295382,9.469357,-0.25652800000000003,0.16769595,0.23996496,5.52,43.32,-40.02
1553844716191,2.205127,0.40463245,9.191621000000001,0.07333925,0.098057315,0.035935983,5.8199997,42.78,-38.1
1553844716212,2.1309047000000003,0.1699935,8.717555,0.13992357,-0.10169563,-0.08806966,6.54,42.42,-38.16
1553844716231,2.4349775,0.37350687,8.166871,0.10571512,-0.05221554,-0.09234572,6.48,42.78,-38.82
1553844716251,2.7558103,0.5961744000000001,8.420665,0.14664309,0.057129342,-0.09723264,6.12,43.079997999999996,-38.52
1553844716271,3.0287576,0.82123625,9.059936,0.21078393,0.028418673,-0.14060408,5.8199997,43.62,-39.059998
1553844716291,3.45015,1.5562786,9.984126,0.17474289,-0.052826405,-0.16748215,4.92,43.079997999999996,-41.64
1553844716311,4.046324299999999,4.5946136,9.711179,-0.03050783,-0.0845914,0.046931557,4.98,42.66,-42.899998
1553844716331,4.455744999999999,4.1540666,9.45978,-0.4526157,-0.038776506,0.339536,4.98,43.559998,-42.899998
1553844716351,3.3950818,2.1213273999999998,9.486116,-0.4458962,0.14020702,0.37496617,4.56,43.44,-42.42
1553844716372,2.2530127,0.43815228,9.395133999999999,-0.005462356999999999,0.13226576,0.1501678,5.52,43.379996999999996,-42.719997
1553844716391,1.8292258999999997,-0.090982445,8.976136,0.16496904,0.01070358,-0.06424592,5.94,43.8,-42.719997
1553844716412,1.8795058,-0.12210801,8.344047999999999,0.14481048,-0.09436524,-0.14426927,5.8199997,44.34,-41.94
1553844716432,2.3320236,0.46688359999999995,8.147717,0.13931271,0.027807808,-0.1558757,6.2999997,44.219997,-42.66
1553844716452,2.8611584,0.95531565,8.583475,0.15336262,0.060183667,-0.17603426,6.0,43.2,-42.78
1553844716472,3.328042,1.23784,9.356826,0.14236704,-0.048550345,-0.21696223,5.58,43.8,-42.899998
1553844716492,3.9002736000000002,2.1835787,10.316930000000001,0.1130455,-0.104749955,-0.20963185,4.7999997,44.1,-46.44
1553844716511,4.37434,4.869955,9.464568,-0.04089254,-0.11146947,0.04509896,4.74,43.2,-47.399998
1553844716532,4.1349125,3.8188684,9.282603,-0.42573765,-0.012509298500000002,0.33587083,4.2,43.2,-46.62
1553844716552,2.9569294,1.2953026,9.4142885,-0.32922095,0.17258286,0.29311025,3.54,43.739998,-47.34
1553844716572,2.1740015,0.22266756,9.37598,0.036687344,0.19885008,0.109850675,4.62,43.98,-47.16
1553844716592,1.8507744,-0.23224466,8.968952999999999,0.25720970000000004,-0.020450545,-0.14976706,4.7999997,44.879996999999996,-48.719997
1553844716611,2.2075214,0.32562137,8.317711,0.16008212,-0.10108476,-0.17481253,4.5,44.28,-47.399998
1553844716631,2.8156672,0.91700727,8.430242,0.07456099,0.010092715,-0.1259433,5.3399997,43.8,-46.079997999999996
1553844716651,3.2633965,1.1277034,9.179649000000001,0.07761532,0.017423097,-0.12411071,4.56,44.1,-47.399998
1553844716671,3.6273263,2.300898,9.93624,0.08922175,-0.03511131,-0.105173886,3.72,44.64,-48.78
1553844716692,4.235472,4.2570205,9.488511,-0.15023743,-0.091921784,0.121457115,3.4199998,44.46,-48.66
1553844716713,4.371946,3.4908525999999998,9.450203,-0.42085072,-0.022894006,0.33587083,3.72,43.98,-48.3
1553844716732,2.8970726000000004,1.1731946000000002,9.407105,-0.17406116,0.14203961,0.2747843,4.8599997,44.399998,-46.44
1553844716752,1.9321798,0.30646718,9.186832,0.24743585,0.17502634,0.057927128,4.98,44.7,-46.44
1553844716772,1.7645805,-0.18914771,8.971347999999999,0.32135054,0.064459726,-0.11433687,4.2599998,45.3,-47.7
1553844716792,2.1069617000000003,0.43096948,8.684034,0.20528615,-0.019228818,-0.15709744,4.5,45.18,-47.82
1553844716812,2.8827069,1.1205206,8.581081,0.05562417,0.03513819,-0.097843505,4.14,44.579997999999996,-48.96
1553844716832,3.476487,1.7406378,9.308941,-0.014625336000000001,-0.011898434,-0.020874487,4.62,44.04,-48.0
1553844716852,3.9601305,3.4812756,9.541185,-0.0873183,-0.09070005,0.11229414,6.0,43.32,-46.5
1553844716871,4.1804037,3.2993107000000004,9.708784,-0.2736322,-0.07542842,0.2552366,4.74,43.62,-48.059998
1553844716891,3.3615617999999996,2.291321,9.670475999999999,-0.29623422,0.05346415,0.27539515,4.38,44.04,-48.42
1553844716912,2.3727264,1.0750294,9.378374,-0.079377055,0.069346644,0.13489614,4.44,43.86,-48.3
1553844716932,1.7262721,0.15562786,9.014444000000001,0.043406863,-0.0057897805,-0.05386121,5.3399997,44.28,-47.34
1553844716952,1.8340145,-0.05506832,8.595447,0.101439066,-0.05221554,-0.16381696,5.52,44.34,-47.82
1553844716972,2.3631492,0.48364350000000006,8.379961999999999,0.17779721,-0.005178915300000001,-0.21207531,5.1,44.28,-48.239998
1553844716992,2.9329867000000003,1.2713598999999998,8.55235,0.18207327,-0.016785355,-0.21146445,4.8599997,43.68,-48.48
1553844717013,3.5483153,1.5299416000000001,9.26345,0.11548896,-0.077261016,-0.19619282,4.2599998,43.559998,-48.36
1553844717032,3.981679,2.4469488,10.307352999999999,0.07578272,-0.088867456,-0.15526484,4.92,43.86,-47.219997
1553844717052,4.170827,4.216318,9.45978,-0.09892473,-0.04671775,0.06647924,5.16,44.399998,-46.379996999999996
1553844717072,3.8116856,3.3136763999999994,9.481328,-0.43428975,0.043079436,0.26684305,3.3,44.52,-47.82
1553844717092,2.9928436,1.5059988000000002,9.342461,-0.3841988,0.1475374,0.23141286,3.54,43.68,-48.719997
1553844717114,2.3032923,0.53871185,9.289786,-0.075100996,0.11882673,0.08847039,4.14,44.219997,-48.719997
1553844717134,2.0902019,0.047885496,8.815719999999999,0.10693685,-0.083369665,-0.08990226,4.3199997,44.82,-47.52
1553844717155,2.3535721,0.14605077,8.190814,0.15641694,-0.06015679,-0.15282138,4.68,43.98,-45.78
1553844717172,2.6983478,0.47167215,8.341654,0.20467529,0.042468574,-0.15831918,4.38,43.8,-46.559998
1553844717191,3.0359404,0.7637736999999999,8.846846000000001,0.25598797,0.042468574,-0.18275379,4.62,44.219997,-48.3
1553844717211,3.6225379,1.036721,10.252285,0.20528615,-0.043052558,-0.21512964,4.5,43.8,-48.719997
1553844717231,4.1612496,5.578660500000001,9.651321000000001,0.0037006216999999997,-0.07481755,0.0060035832999999995,3.84,43.8,-48.899998
1553844717251,4.8029150000000005,4.618556,9.364009,-0.6273232,-0.050382942,0.44216138,3.78,44.1,-46.62
1553844717271,3.3639562000000005,1.8914771000000001,9.562733999999999,-0.4898785,0.13043317,0.45498952,4.08,44.34,-47.399998
1553844717291,2.2673783,0.49082634,9.387952,-0.022566582999999998,0.21534345,0.21675210000000003,4.14,45.0,-49.02
1553844717312,1.5921928,-0.05506832,9.143736,0.30485716,0.082174815,-0.04897429,5.7,45.0,-48.42
1553844717332,1.7286664,-0.023942748,8.415875999999999,0.18451674,-0.113912925,-0.17603426,5.16,44.82,-47.219997
1553844717351,2.2434354,0.45730647,7.9992722999999994,0.08922175,0.057129342,-0.14182581,5.2799997,44.399998,-46.44
1553844717372,2.8707354,0.5865973000000001,8.746285,0.095941275,0.09317039,-0.13632801,5.58,43.739998,-46.5
1553844717391,3.232271,0.9672870000000001,9.454991,0.17474289,-0.04183083,-0.19069502,5.7599998,43.86,-46.32
1553844717414,3.8883023000000003,3.7230972999999996,9.818921000000001,0.12587367,-0.10597168,-0.1173912,5.8799996,43.62,-46.02
1553844717432,4.788549400000001,4.415043,9.761458,-0.32555574,-0.14140187,0.20331307,3.78,43.559998,-47.16
1553844717452,3.7135203000000003,2.7055306,9.545974000000001,-0.46422216,0.032694727,0.33159477,4.74,43.559998,-46.8
1553844717472,2.5187771,0.81165916,9.526819,-0.16123301,0.15364604,0.17704585,4.7999997,44.1,-46.98
1553844717492,1.7454262999999999,0.102953814,9.244295,0.13748012,0.12371366,-0.056915537,4.74,45.3,-48.78
1553844717512,1.7789462,-0.23224466,8.73192,0.183295,-0.020450545,-0.1858081,5.64,44.219997,-47.1
1553844717532,2.2218869999999997,0.43096948,8.178842999999999,0.15336262,-0.0027354546,-0.18031032,5.7,44.28,-46.559998
1553844717551,2.762993,0.9122186999999999,8.336864,0.12892799,0.0052057933,-0.14426927,5.2799997,44.879996999999996,-46.5
1553844717571,3.2394537999999997,0.9792584000000001,9.138947,0.13809097,-0.07237409,-0.17420167,5.4,43.44,-46.32
1553844717592,3.7542229,3.1245286,10.348056,0.14481048,-0.09986303,-0.19191676,3.78,43.5,-48.18
1553844717612,4.4413795,4.975303,9.373586,-0.19116539,-0.12613024,0.12878749,4.14,44.219997,-49.2
1553844717632,4.3456087,4.1780095,9.622589999999999,-0.5998342,-0.013120163999999998,0.39207040000000004,4.14,44.52,-49.5
1553844717652,3.0359404,1.5706443,9.586677,-0.40802255,0.1738046,0.3340382,4.8599997,44.399998,-48.539997
1553844717672,2.1811842999999995,0.6464542,9.431047999999999,0.05379157,0.16464162,0.10679635,5.64,44.64,-46.5
1553844717692,1.9226026999999999,0.23463893,8.971347999999999,0.14053445,-0.037554774,-0.046530827999999996,6.12,44.579997999999996,-46.14
1553844717711,2.2027327999999997,0.098165266,8.061523,0.07028493,-0.07115236,-0.07524149,5.04,44.46,-47.64
1553844717732,2.5235654999999997,0.10055954,8.118986,0.13381493,0.09866817,-0.09173486,5.58,44.219997,-48.239998
1553844717752,2.7246847,0.27773590000000004,8.61939,0.30668979999999996,0.03758165,-0.18153204,5.16,44.34,-47.76
1553844717772,3.1317115,0.6201171999999999,9.562733999999999,0.3415091,-0.05343727,-0.26216626,4.8599997,44.1,-45.96
1553844717792,3.703943,2.6337023,10.771842,0.20834048,-0.10536081,-0.2523924,4.7999997,43.8,-45.78
1553844717811,4.573065,5.62894,9.526819,-0.301732,-0.20493186,0.13550702,3.9599998,43.739998,-47.28
1553844717831,4.163644000000001,3.545921,9.296969,-0.777596,0.04796636,0.45987648,4.2599998,43.8,-49.079997999999996
1553844717852,2.944958,1.2546,9.4932995,-0.42268333,0.24405411,0.3627489,4.98,43.92,-48.78
1553844717872,1.8819,0.117319465,9.366403,0.30546805,0.18235672,0.04754242,4.98,44.219997,-47.76
1553844717892,1.5179702,-0.34956414,8.842057,0.3958761,-0.07176323,-0.14976706,5.22,44.64,-46.8
1553844717912,1.8699286,0.23463893,8.159689,0.19856663,-0.09253265,-0.16015176,5.4,44.579997999999996,-47.52
1553844717931,2.4421604,0.54350036,8.166871,0.094719544,0.065070584,-0.1259433,5.3399997,44.16,-47.64
1553844717952,3.0024207,0.6081458000000001,9.052753,0.107547715,0.013757907,-0.16992562,4.68,43.8,-47.76
1553844717972,3.5985951000000003,2.5355369999999997,10.510866,0.15702779999999997,-0.11513466,-0.21940568,5.04,43.8,-47.1
1553844717991,4.4916596,5.569083,9.395133999999999,-0.050666384,-0.1902711,0.009668776,4.74,44.16,-46.92
1553844718012,4.8388295,4.5108137,9.696813,-0.68352276,-0.110858604,0.42139193,4.74,44.399998,-46.32
1553844718032,3.0263633999999997,1.2641771000000002,9.557945,-0.40313563,0.15425691,0.34992072,4.44,44.879996999999996,-48.18
1553844718052,1.8316202000000001,0.31604427,9.426260000000001,0.14847568,0.24710843,0.059759725,4.14,44.76,-48.42
1553844718072,1.5850098999999997,-0.24900457,8.968952999999999,0.27553564,-0.006400645999999999,-0.17359081,4.74,43.739998,-47.039997
1553844718091,1.9944308999999998,0.17957062,8.061523,0.15030827,-0.08214793,-0.17114733,4.98,43.44,-45.6
1553844718111,2.6169424,0.5770202,7.953780999999999,0.080058776,0.08584,-0.113726005,4.8599997,43.86,-45.6
1553844718131,3.007209,0.5602603,8.636149000000001,0.1710777,0.004594928,-0.14182581,4.2599998,44.34,-47.82
1553844718151,3.4549387,0.7637736999999999,10.180456,0.27125959999999993,-0.10780427599999999,-0.22856866,4.2599998,43.92,-48.239998
1553844718172,4.1899809999999995,5.4254265,9.931452,0.11060204,-0.15484089999999998,-0.072798036,3.72,43.32,-48.719997
1553844718191,4.867561,5.071073999999999,9.45978,-0.5442454999999999,-0.18966022,0.3224318,3.72,43.62,-47.16
1553844718211,3.3926873,2.1213273999999998,9.411894,-0.64687085,0.18113498,0.44032878,4.3199997,43.86,-46.98
1553844718231,2.3152637,0.2681588,9.555551,-0.114196375,0.27642995,0.22713679,3.8999998999999996,44.399998,-47.579997999999996
1553844718251,1.6831752,-0.42857520000000005,9.3831625,0.32684833,0.10111163599999999,-0.06791111,4.44,44.399998,-47.64
1553844718272,1.647261,-0.4189981,8.578687,0.29263988,-0.17011254,-0.20046887,4.68,44.399998,-47.76
1553844718291,2.185973,0.49082634,7.726325,0.14664309,-0.061378515999999994,-0.16381696,4.8599997,43.2,-47.16
1553844718312,2.8276386000000002,0.5985687,8.351231,0.107547715,0.044912033,-0.14426927,6.06,43.32,-45.84
1553844718332,3.213117,0.64166564,9.105427,0.17596461,-0.029613525,-0.21879484,5.3399997,44.16,-46.8
1553844718352,3.7877428999999996,3.0407290000000002,10.498895,0.18940365,-0.10963687,-0.22917953,3.84,44.34,-48.78
1553844718372,4.6999617,5.317684,9.486116,-0.18078068,-0.20493186,0.08541607,3.84,43.68,-48.84
1553844718392,4.3695517,3.8140797999999996,9.39274,-0.5717344,-0.09314351,0.37069014,3.72,44.34,-47.28
1553844718412,2.8180614,0.7446195,9.478933999999999,-0.21132395,0.17746979,0.26378873,3.8999998999999996,45.3,-47.039997
1553844718432,1.9537282,-0.098165266,9.215564,0.27859,0.23489113,0.004170988,4.2599998,44.7,-48.059998
1553844718451,1.7981004,-0.11013664,8.825297,0.4288628,0.040635977000000004,-0.19069502,4.44,44.7,-48.059998
1553844718472,2.351178,0.7972935,8.245882,0.19123626,-0.05832419,-0.145491,4.74,45.18,-48.42
1553844718491,2.8156672,0.9864412,8.389539,-0.008516683,0.0052057933,-0.050806884000000004,4.68,44.76,-48.66
1553844718512,3.3495904999999997,0.9768641,9.701602000000001,0.00064629543,-0.06504371,-0.058137268,5.2799997,43.68,-45.96
1553844718532,3.7661943,4.048719,9.196409,-0.004851492,-0.15300829999999999,0.038379442,5.3399997,43.62,-47.039997
1553844718551,4.3192715999999995,3.8571767999999995,9.330489,-0.34999037,-0.10841514,0.25401488,4.98,43.079997999999996,-47.64
1553844718571,3.5938065000000003,1.8220432,9.708784,-0.33716217,0.021699157,0.27722776,5.4,43.26,-46.32
1553844718592,2.423006,0.8882760000000001,9.284998,0.067230605,0.09133779,0.053651072,4.8599997,44.28,-46.26
1553844718611,2.0399222,0.5865973000000001,9.067119,0.24132721,0.07973135,-0.119834654,4.62,45.239998,-44.52
1553844718631,2.3583608,0.7302538000000001,8.691217,0.10266079,0.029029539,-0.09662178,5.22,45.539997,-45.78
1553844718652,2.8156672,0.79250497,8.545167,-0.025620911,0.046133768,-0.04103304,4.56,44.76,-48.0
1553844718672,2.9928436,0.7733508000000001,8.719949,0.036687344,-0.039998233,-0.07401976,4.68,44.46,-48.059998
1553844718691,3.2202997000000004,1.4198049,9.390346000000001,0.14786482,-0.08214793,-0.14304753,4.7999997,44.219997,-47.82
1553844718711,3.7302802,3.5842294999999997,9.514847999999999,0.058067627000000004,-0.049161214,-0.025150542999999997,4.68,44.04,-45.899998
1553844718732,4.1301239999999995,3.632115,9.725544000000001,-0.35976420000000003,-0.06382198,0.19781528,5.1,44.579997999999996,-46.26
1553844718752,3.4381785000000002,2.1548474,9.452597,-0.44833967,0.07850962,0.24179757,4.62,44.579997999999996,-48.0
1553844718772,2.6193366,0.723071,9.404712,-0.13557667,0.12554625,0.09763337,4.3199997,45.059998,-47.82
1553844718792,2.2362528,0.12929083,9.160496,0.1130455,0.028418673,-0.04897429,4.98,45.239998,-47.64
1553844718811,2.2099156000000004,-0.0670397,8.456578,0.20101011,-0.08642399,-0.13938233,4.98,44.46,-47.52
1553844718831,2.423006,0.59378016,8.042369,0.19612317,-0.021061412999999998,-0.14243668,4.3199997,44.46,-47.64
1553844718852,2.8443985,0.98404694,8.427847,0.16435818,0.04796636,-0.15159966,4.38,44.34,-47.76
1553844718872,3.3040992999999994,1.1300976999999999,9.457385,0.12648453,0.011925311000000001,-0.18825157,4.2,44.1,-48.12
1553844718892,3.7111259,2.3344178,10.553964,0.10999117,-0.054659000000000006,-0.19252762,3.4199998,44.34,-48.6
1553844718912,4.2139235,4.73827,9.452597,-0.05616417,-0.13529322,0.009668776,3.06,44.16,-48.3
1553844718932,4.2019525,3.6800002999999997,9.311335,-0.44772878,-0.088867456,0.2992189,3.54,44.219997,-47.82
1553844718951,3.1173458,1.3360053,9.364009,-0.3084515,0.11088548599999999,0.28944507,3.9599998,44.579997999999996,-48.18
1553844718971,2.3368123,0.2657645,9.347249,0.05012638,0.15425691,0.12878749,4.2,45.12,-48.66
1553844718991,1.9010541,-0.38547826,8.868394,0.26026404,0.006427524,-0.09234572,4.2599998,44.82,-48.059998
1553844719012,2.152453,0.24182175,8.2027855,0.19551231,-0.044885155,-0.1436584,3.72,44.1,-47.46
1553844719032,2.82285,0.7877164000000001,8.3129225,0.10388252,0.046133768,-0.10944995,3.54,43.8,-48.059998
1553844719051,3.1652312,0.90982443,8.964165,0.095941275,0.013147042,-0.13205196,4.14,43.68,-47.879996999999996
1553844719071,3.632115,2.4804687999999997,9.96976,0.11426724,-0.07970448,-0.14060408,3.78,44.04,-48.18
1553844719091,4.230683999999999,4.3240604000000005,9.663293,-0.05249898,-0.110858604,0.018220888,3.36,43.86,-48.3
1553844719111,4.383917299999999,3.6464806000000003,9.457385,-0.4037465,-0.06809804,0.28883418,3.72,43.559998,-48.78
1553844719131,3.3950818,2.0231621,9.39274,-0.34571430000000003,0.10294423,0.32121006,3.8999998999999996,44.52,-47.46
1553844719153,2.1811842999999995,0.43575802,9.313728999999999,0.058678493,0.15670037,0.111072406,3.48,45.0,-46.739998
1553844719171,1.7382435,-0.30886146,9.040782,0.19429058,-0.0027354546,-0.12777591,3.72,45.059998,-48.12
1553844719192,2.126116,0.3232271,8.310528,0.13137145,-0.016785355,-0.16626042,4.02,44.46,-48.78
1553844719211,2.6791935000000002,0.89545876,8.274613,0.091665216,0.030862134,-0.1399932,3.84,44.34,-48.96
1553844719231,3.1341057,1.0774237,8.815719999999999,0.09105435,-0.0021245892,-0.14060408,4.5,43.86,-46.379996999999996
1553844719252,3.6297207,1.6448668000000002,9.907509,0.12526279999999998,-0.07115236,-0.18275379,4.56,43.559998,-46.8
1553844719271,4.170827,4.367157499999999,9.694419,0.07822618,-0.11330206,-0.07401976,3.6,44.1,-48.66
1553844719291,4.3791285,4.000833,9.512454,-0.31883624,-0.11879985,0.22224988,3.12,44.04,-48.36
1553844719311,3.581835,2.4900458,9.469357,-0.42757025,0.079120494,0.30593842,3.0,43.86,-48.719997
1553844719332,2.423006,0.5889916000000001,9.395133999999999,-0.07876619,0.16708508,0.15383297,3.72,44.219997,-47.82
1553844719352,1.9585168000000002,0.014365649,9.086273,0.17901894,0.038192517999999995,-0.04408737,4.08,44.46,-47.219997
1553844719372,2.1189332000000003,0.052674048,8.356019,0.15763865,-0.09986303,-0.13877149,4.5,44.28,-48.239998
1553844719392,2.6097596000000003,0.65124273,8.20518,0.11426724,0.023531752000000003,-0.13205196,5.16,44.46,-48.0
1553844719412,3.1436827000000003,0.94573855,8.91628,0.119154155,0.05346415,-0.14304753,5.16,44.34,-48.239998
1553844719432,3.5195839999999996,1.9800651999999999,9.624985,0.11854329,-0.011287568000000001,-0.15159966,4.74,43.8,-47.34
1553844719452,4.010410299999999,3.6584517999999995,9.888355,-0.042725135,-0.069930635,-0.005602856,4.74,43.92,-46.44
1553844719472,4.5036309999999995,3.9002736000000002,9.696813,-0.36098593,-0.069930635,0.23629977,4.5,43.98,-47.64
1553844719492,3.5794407999999995,2.1141446,9.450203,-0.37870103,0.060183667,0.29433197,3.8999998999999996,43.86,-48.0
1553844719512,2.4086404,0.6392714,9.361614,-0.13374406,0.13043317,0.1691046,4.7999997,44.16,-46.92
1553844719532,1.8507744,-0.023942748,9.093455,0.067230605,0.09011607,-0.028815735,5.16,43.98,-46.32
1553844719552,1.8340145,-0.31604427,8.535589,0.15091914,-0.0057897805,-0.16748215,3.9599998,43.26,-45.36
1553844719571,2.2985039,0.43336374,8.140533999999999,0.19734491,0.03574906,-0.18641898,4.2599998,44.34,-45.66
1553844719592,2.7486273999999997,0.9792584000000001,8.310528,0.20223182,0.027196944,-0.16809301,5.1,45.48,-46.86
1553844719611,3.347196,1.2881198,9.273026,0.16496904,-0.03022439,-0.18458638,4.74,45.48,-48.48
1553844719632,3.9266107000000003,2.7294734,10.398335000000001,0.11609982,-0.08214793,-0.1558757,3.8999998999999996,44.7,-48.42
1553844719652,4.3863115,4.8340406,9.905114999999999,-0.07571186,-0.12796283,0.067700975,4.02,44.34,-46.14
1553844719672,4.1756153,3.7685885000000003,9.47654,-0.44895053,-0.07481755,0.35602936,3.4199998,44.76,-46.62
1553844719692,3.2155110000000002,1.8052831999999999,9.443019999999999,-0.3896966,0.1157724,0.33342737,3.1799998,45.12,-48.059998
1553844719712,2.1883671000000002,0.090982445,9.347249,0.010420139,0.11516154,0.11412673400000001,4.14,44.28,-47.219997
1553844719731,1.8268316999999998,-0.4764607,8.806142999999999,0.1588604,-0.060767654000000004,-0.10273043,4.08,44.04,-47.28
1553844719751,2.013585,-0.22745611,8.130958,0.15947126,-0.12551937,-0.18031032,4.38,43.739998,-47.1
1553844719771,2.6025767,0.53871185,8.025609,0.16680163,0.006427524,-0.16381696,4.44,43.62,-45.719997
1553844719791,3.0191805,0.94095,8.648121000000002,0.18390587,0.03574906,-0.17786685,3.8999998999999996,44.34,-47.76
1553844719812,3.4477558,1.4269878,9.725544000000001,0.16313644,-0.02900266,-0.20902099,3.6599998,44.76,-48.0
1553844719832,4.113364,4.348003,10.223554,0.04157427,-0.07848274,-0.0996761,3.36,44.04,-48.84
1553844719852,4.759818599999999,4.5850363,9.653716000000001,-0.34388173,-0.12063245,0.24973881,3.48,43.32,-47.879996999999996
1553844719872,3.7925312999999994,2.8348215,9.402317,-0.46544388,0.04185771,0.37496617,4.14,43.68,-46.62
1553844719892,2.5475084999999997,0.75180227,9.440625,-0.12030502400000001,0.13165489,0.22835854,4.2599998,44.76,-47.28
1553844719912,1.8244373999999999,-0.11492519,9.153313,0.13931271,0.06568145,0.01150137,3.8999998999999996,44.94,-48.18
1553844719932,1.7502148999999998,-0.39266106,8.650514999999999,0.15702779999999997,-0.09375438,-0.12533244,3.84,44.82,-48.18
1553844719952,2.2745612,0.22985038,7.9585695,0.13014974,-0.03266785,-0.14793447,5.1,44.219997,-47.16
1553844719972,2.8252442,0.7206767,8.351231,0.15397346,0.063237995,-0.14854532,4.8599997,44.46,-46.44
1553844719992,3.2442424,0.9720755999999999,8.978531,0.17840809,0.0125361765,-0.18947329999999998,4.62,44.219997,-45.96
1553844720012,3.816474,1.8459859,10.357633,0.16435818,-0.068708904,-0.21451877,3.84,44.64,-48.42
1553844720033,4.3887057,5.1189594000000005,9.953,0.011641869,-0.10536081,-0.025150542999999997,3.3,44.1,-48.539997
1553844720052,4.4844766,4.0582957,9.387952,-0.5039284,-0.054048132,0.37618792,2.6399999,44.04,-48.719997
1553844720071,2.9569294,1.4940275,9.545974000000001,-0.4037465,0.20984566,0.3645815,3.0,44.219997,-47.039997
1553844720092,1.9704881999999997,0.12689656,9.380769,0.086167425,0.17991325,0.0988551,3.48,45.059998,-46.079997999999996
1553844720111,1.6903580000000002,-0.3615355,9.103033,0.18757106,-0.019839682,-0.1033413,3.6,45.12,-47.94
1553844720131,1.924997,-0.047885496,8.224333999999999,0.11793242,-0.14628878,-0.17359081,4.62,45.12,-47.879996999999996
1553844720151,2.5499027,0.49800915,7.953780999999999,0.09899559599999999,0.044912033,-0.13449542,4.7999997,44.399998,-47.34
1553844720172,3.007209,0.6895511,8.621783,0.18818194,0.04430117,-0.17908859,5.52,43.98,-45.84
1553844720191,3.4573328,0.91461295,9.80695,0.23705114,-0.048550345,-0.24811636,4.56,43.98,-46.559998
1553844720212,4.005622,4.230683999999999,10.474953,0.16863424,-0.094976105,-0.18458638,3.24,44.399998,-48.66
1553844720231,4.7550297,5.4781010000000006,9.478933999999999,-0.19360885,-0.14018013,0.12817663,3.8999998999999996,44.34,-48.12
1553844720252,4.242655,3.5219781,9.364009,-0.65481216,0.08339655,0.46048734,3.6599998,44.46,-48.18
1553844720271,2.5834224,0.65842557,9.543579,-0.2663018,0.24038891,0.3132688,3.9599998,44.52,-46.379996999999996
1553844720292,1.7550035,-0.062251142999999995,9.3280945,0.21994692,0.17502634,0.026162136000000003,4.68,44.04,-45.36
1553844720312,1.7621863000000002,-0.34716985,8.73192,0.22300126,-0.13101715,-0.1717582,4.68,44.34,-47.039997
1553844720332,2.2123098,0.18675344,7.84125,0.10999117,-0.0968087,-0.15465398,5.04,44.76,-47.879996999999996
1553844720351,2.7079248,0.45012367,8.229122,0.08983262,0.10233337,-0.11678032599999999,4.98,44.7,-48.42
1553844720372,3.0479119999999997,0.5794145,8.988108,0.16557992,0.03758165,-0.177256,4.7999997,44.76,-48.6
1553844720392,3.4429672,1.5826156,9.948212,0.1851276,-0.059545923,-0.23895338,5.22,45.48,-46.5
1553844720412,4.419831299999999,4.922629,9.914692,-0.05799677,-0.113912925,-0.0153767,3.06,44.82,-48.3
1553844720432,4.6760187,4.4078599999999994,9.574705,-0.48926765,-0.08275881,0.31082535,2.9399998,44.1,-48.719997
1553844720452,3.014392,1.7741576000000001,9.5483675,-0.40557909999999997,0.13409835,0.31082535,3.48,44.7,-48.059998
1553844720471,2.0925963,0.5243462,9.490905999999999,-0.081209645,0.15120259,0.13550702,3.06,45.059998,-47.1
1553844720492,1.620924,-0.35435268,9.136553,0.14542136,0.029640405,-0.08806966,4.2,45.42,-44.46
1553844720511,1.7933118000000001,-0.35435268,8.260247999999999,0.18573846,-0.09131091,-0.21574049,5.04,43.86,-45.0
1553844720532,2.3631492,0.47167215,7.9130783,0.20345356,-0.0009028588499999999,-0.20596667,4.74,43.14,-45.84
1553844720552,2.8587642000000004,0.8882760000000001,8.226728,0.19551231,0.032694727,-0.19619282,5.3399997,43.5,-45.899998
1553844720571,3.4621215,1.1660118,9.445414999999999,0.15641694,-0.05221554,-0.22368175,4.98,43.559998,-45.78
1553844720592,4.1301239999999995,3.8715425000000003,10.472558,0.062343687,-0.13651493,-0.15098879,3.6,44.04,-45.96
1553844720611,4.7981267,4.800521,9.747093,-0.27668652,-0.19393627,0.1709372,3.0,44.579997999999996,-47.16
1553844720631,4.3815230000000005,3.6919718,9.457385,-0.5375260000000001,-0.03511131,0.36519235,2.52,44.579997999999996,-47.52
1553844720652,2.9473522,1.403045,9.488511,-0.36770543,0.12798971,0.3096036,2.28,44.76,-47.94
1553844720672,2.0494993000000004,0.31604427,9.301758,0.04401773,0.13287663,0.09030299,3.06,44.76,-47.34
1553844720692,1.8220432,-0.33519846,8.909097000000001,0.1307606,-0.07298495599999999,-0.10456303,3.54,45.0,-46.62
1553844720712,2.1141446,-0.019154198,8.023214999999999,0.13198233,-0.04977208,-0.12838677,3.8999998999999996,44.04,-46.02
1553844720732,2.597788,0.48124924,7.953780999999999,0.17229943,0.105387695,-0.10822822,3.6,43.5,-46.559998
1553844720751,3.0694604,0.6392714,8.73192,0.23399682,0.093781255,-0.1473236,3.12,43.92,-47.64
1553844720771,3.5243726000000004,1.0822121999999998,9.929058,0.26026404,-0.03266785,-0.22490348,3.84,44.1,-48.059998
1553844720792,4.1181526,4.6137676,10.202005,0.12159761,-0.09803043,-0.113726005,4.2,43.86,-48.36
1553844720812,4.759818599999999,4.9393888,9.608225,-0.3646511,-0.13284975,0.23874325,3.9599998,43.559998,-48.719997
1553844720832,4.024776,3.3615617999999996,9.3280945,-0.6389296,0.082174815,0.42505714,3.3,44.28,-48.899998
1553844720852,2.597788,0.74701375,9.57231,-0.22231951,0.18480018,0.26012352,2.3999999,44.94,-49.14
1553844720872,1.786129,-0.12689656,9.239507000000001,0.15947126,0.098057315,0.021275215,3.06,45.12,-48.059998
1553844720891,1.6688095,-0.52913475,8.609812,0.19734491,-0.12918456,-0.15282138,3.84,45.42,-47.399998
1553844720911,2.1021732999999996,0.19872479999999998,7.80773,0.15519520000000003,-0.005178915300000001,-0.16015176,4.2599998,44.7,-46.079997999999996
1553844720932,2.648068,0.65363705,8.22194,0.16680163,0.13104403,-0.14182581,4.2,44.16,-46.32
1553844720952,3.050306,0.82602483,8.91628,0.20039923,0.044912033,-0.18458638,3.36,43.86,-47.94
1553844720972,3.7614057,1.2162915,10.381575999999999,0.19551231,-0.10841514,-0.25300327,2.8799999,43.559998,-48.18
1553844720991,4.300117500000001,5.1021996,10.235525,0.09838474,-0.15423004,-0.10273043,2.8799999,43.98,-48.96
1553844721012,4.905869,4.8412237000000005,9.220352,-0.44100928,-0.172556,0.32548612,2.52,43.92,-48.6
1553844721033,3.2226939999999997,1.8483802,9.447808,-0.48010466,0.13287663,0.38779438,1.9799999,43.92,-48.059998
1553844721052,2.1787900000000002,0.26097596,9.419077,0.015917927,0.19213055,0.16421768,1.56,44.16,-47.879996999999996
1553844721072,1.7023293999999998,-0.24182175,9.098245,0.27859,0.022920884,-0.100286976,2.52,45.18,-47.34
1553844721091,1.9920366000000003,0.19154198,8.322499,0.15580606,-0.140791,-0.1436584,3.24,45.3,-47.76
1553844721111,2.604971,0.6608198000000001,7.929838,0.030578692999999997,0.033916462,-0.08073928,4.44,44.64,-46.14
1553844721131,2.9856608,0.57223165,8.626572999999999,0.09288695,0.084007405,-0.09906524,5.3399997,43.44,-43.62
1553844721151,3.1628369999999997,0.5985687,9.469357,0.2291099,-0.024115737999999998,-0.20779926,5.22,42.78,-42.54
1553844721171,3.5794407999999995,2.47568,10.302565,0.25598797,-0.102306485,-0.2334556,5.4,43.02,-42.719997
1553844721192,4.5682764,5.1788163,9.431047999999999,-0.15451348,-0.1249085,0.10190942,5.1,43.68,-43.26
1553844721211,4.4437739999999994,3.9721019999999996,9.435837,-0.65725553,-0.0027354546,0.41894847,4.5,43.26,-43.62
1553844721232,2.6600394,0.86193895,9.519637,-0.30600807,0.19579574,0.2796712,2.58,44.34,-47.219997
1553844721251,1.9058428,0.19154198,9.397528999999999,0.13686925,0.14692652,0.04632069,2.6399999,44.399998,-47.579997999999996
1553844721272,1.7885233,-0.28970724,8.736709,0.2236121,-0.118188985,-0.14976706,3.8999998999999996,44.7,-47.399998
1553844721291,2.1141446,0.14605077,7.9681463,0.14358877,-0.06382198,-0.1522105,4.14,45.42,-47.94
1553844721311,2.6504622,0.65363705,8.097438,0.11793242,0.11882673,-0.12227812,3.48,45.059998,-48.12
1553844721331,3.0024207,0.8044763,8.803747999999999,0.16313644,0.07667702400000001,-0.1577083,3.6599998,44.82,-47.76
1553844721352,3.5842294999999997,1.0008069,10.309747999999999,0.18696019,-0.08642399,-0.231623,4.14,43.86,-48.12
1553844721371,4.0798445,4.6712303,10.051166,0.09288695,-0.13834754,-0.10395216,3.9599998,43.739998,-48.36
1553844721391,4.764607,4.7670010000000005,9.284998,-0.39275092,-0.14628878,0.27906033,4.14,44.1,-48.84
1553844721413,3.510007,2.4780743,9.471751,-0.56379324,0.111496344,0.40978549999999997,3.6599998,44.219997,-48.719997
1553844721431,2.4421604,0.53392327,9.512454,-0.13557667,0.18296757,0.21553037,3.4199998,44.28,-48.12
1553844721451,1.7717633000000002,-0.031125572,9.323306,0.19734491,0.062016264,-0.042254772,3.3,45.42,-47.879996999999996
1553844721473,1.9058428,-0.007182824399999999,8.463761,0.13442577,-0.15056485,-0.1473236,4.2599998,45.36,-47.94
1553844721493,2.4254005000000003,0.47406640000000005,7.8723755,0.078837045,0.021699157,-0.1033413,3.6,44.82,-46.86
1553844721511,2.8994668,0.75180227,8.394327,0.12831713,0.14265047,-0.09173486,3.06,44.64,-46.079997999999996
1553844721532,3.2011453999999997,0.72785956,9.220352,0.21200567,0.017423097,-0.16198435,3.84,44.219997,-45.539997
1553844721551,3.5962007000000007,1.4700848,10.108628,0.24254893,-0.11330206,-0.231623,4.14,43.8,-46.079997999999996
1553844721572,4.247443700000001,4.601796,9.821315,0.05379157,-0.12429764,-0.04897429,4.2,43.8,-46.98
1553844721591,4.3767343,4.170827,9.289786,-0.37747929,-0.06565457,0.2833364,3.4199998,43.739998,-47.16
1553844721612,3.2514252999999997,2.0782306,9.356826,-0.39214003,0.12493538,0.32609698,3.0,44.04,-48.059998
1553844721632,2.2386470000000003,0.42857520000000005,9.397528999999999,0.031800423,0.15853298,0.12023538,3.78,44.34,-47.64
1553844721652,1.8914771000000001,-0.023942748,9.160496,0.25659886,0.031473,-0.08012842,5.1,44.04,-46.44
1553844721671,2.185973,0.39266106,8.40151,0.17718635,-0.08214793,-0.13510629999999998,4.62,44.46,-47.46
1553844721691,2.4182177000000005,0.67279124,8.219545,0.11182377,-0.037554774,-0.11861292,3.9599998,44.94,-48.6
1553844721711,2.9641123,0.8834874,8.609812,0.02813523,0.049188092,-0.08135014,4.08,44.52,-47.7
