TimeStamp,Ax,Ay,Az,Gx,Gy,Gz,Mx,My,Mz
1553845087352,1.2498114,5.810905,11.837295,-0.6181601999999999,-0.02778093,-0.06913284,10.139999000000001,33.12,-40.44
1553845087372,1.2833313,4.8891089999999995,11.4997015,-0.4532266,-0.14384532,-0.020263622,10.44,33.54,-39.78
1553845087393,1.1540405,2.0902019,9.684841,-0.02439918,-0.12185418,0.023107812000000002,9.78,33.6,-39.96
1553845087412,1.0343267,1.2354459,8.411087,0.17657548,-0.12918456,-0.010489778,10.2,33.12,-39.6
1553845087433,1.0965778999999998,1.0032011,7.879558599999999,0.095941275,-0.1743886,-0.060580727,10.5,33.54,-39.18
1553845087452,1.2665714,1.4940275,8.044764,-0.14107445,-0.13101715,-0.097843505,9.96,34.26,-39.6
1553845087472,1.6903580000000002,2.8084843,9.320911,-0.39214003,0.014979636999999999,-0.12838677,9.54,34.14,-39.719997
1553845087492,2.2530127,3.5219781,10.501289,-0.38725314,0.07606616,-0.09356745,9.78,34.26,-39.6
1553845087512,2.1452703,2.4708917,10.228342,-0.015236201999999999,0.04430117,-0.03553525,9.48,34.32,-39.48
1553845087532,1.5921928,1.515576,8.889942,0.332957,-0.04549602,-0.011100643,9.42,34.44,-39.6
1553845087552,1.2833313,1.3072741,8.188419999999999,0.4667365,-0.1371258,-0.022096219,9.78,34.2,-39.6
1553845087573,1.1708003,1.5443072,7.941809700000001,0.46368214,-0.11696725,-0.05508294,9.719999000000001,34.38,-39.36
1553845087592,1.2522057,2.3368123,8.784595,0.24132721,0.027807808,-0.05874813,10.08,33.719997,-39.54
1553845087612,1.7526091000000001,5.027977,10.920287,-0.28951472,0.19274142,-0.07463063,10.08,32.94,-39.239998
1553845087632,2.3942747000000004,5.818087599999999,12.349669,-0.5472998,0.013757907,-0.0074354519999999995,9.66,33.239998,-39.36
1553845087652,2.2362528,3.6129606,10.762265,-0.33166438,-0.14995398,0.062203187,9.66,33.78,-39.66
1553845087673,1.6257126,1.7981004,8.892337,-0.050666384,-0.12429764,0.081140004,9.66,33.96,-39.36
1553845087692,1.2569941999999998,1.132492,7.781393,0.05134811,-0.15117571,0.08236174,9.36,34.44,-39.719997
1553845087713,1.2306572,0.9289786,7.5060515,-0.0042406265000000005,-0.0986413,0.04632069,9.12,34.86,-39.6
1553845087732,1.3958621999999998,1.4006507,8.126168,-0.01401447,0.004594928,-0.005602856,8.88,34.38,-39.18
1553845087752,1.472479,1.7957061999999997,8.959375999999999,0.12281934,0.16036557,-0.042254772,9.48,34.44,-39.78
1553845087773,1.4940275,1.960911,9.347249,0.35616985,0.22939335,-0.059969865,9.42,34.14,-39.96
1553845087793,1.3814965,2.2194927000000004,9.225141,0.49666888,0.18907623,-0.054472078,8.82,34.079997999999996,-39.48
1553845087812,1.23784,2.7151077,9.158101,0.45818436,0.10172250000000001,-0.036756985,9.0,34.14,-40.14
1553845087832,1.333611,3.6919718,9.802161,0.16313644,0.08156395,-0.037367847,9.66,33.96,-40.079997999999996
1553845087852,1.5921928,4.7909440000000005,10.774237,-0.104422525,0.061405394,-0.052028615,9.599999,33.18,-40.5
1553845087873,1.7238779,4.252232,10.656918,-0.11847243,-0.036333042999999995,-0.03858958,9.36,33.3,-41.7
1553845087892,1.6257126,2.8180614,9.73991,-0.019512258,-0.06504371,-0.011100643,9.48,33.66,-41.28
1553845087912,1.4605076000000001,2.2865324,9.028810499999999,0.06356542,-0.091921784,0.014555697,9.54,33.0,-40.68
1553845087932,1.3144568,1.8268316999999998,8.3129225,0.11243464,-0.08092621,0.043266362999999995,9.36,33.12,-39.84
1553845087952,1.2593886,1.7645805,8.011244,0.12404107,0.007649255,0.038990308,8.94,33.48,-40.02
1553845087972,1.3288225,2.2673783,8.480521000000001,0.11426724,0.112718076,0.03288165,9.179999,33.3,-41.1
1553845087992,1.5467016000000002,3.1053743,9.423865,0.04401773,0.14937,0.012723101,9.36,32.76,-40.92
1553845088012,1.6113469999999999,3.8930907,10.139753,-0.073879264,0.099279046,0.0066144490000000005,9.179999,32.76,-41.28
1553845088032,1.4365649,4.209135,10.371999,-0.16367646,0.015590503,0.012112236,9.42,33.239998,-41.219997
1553845088052,1.1971374,3.6536633999999997,9.830893,-0.15756781,-0.051604677,0.03349252,10.019999499999999,33.66,-40.559998
1553845088072,1.0917894,2.9258040000000003,9.287392,-0.15756781,-0.09131091,0.044488095,10.019999499999999,33.719997,-40.44
1553845088092,1.0750294,2.3918805,9.026416000000001,-0.17406116,-0.12063245,0.03104906,9.84,33.719997,-40.32
1553845088112,1.1396747999999999,1.8220432,8.894731,-0.10564425599999999,-0.08581313,0.012723101,9.599999,33.719997,-40.2
1553845088133,1.1516461,1.4198049,8.526012,0.07761532,0.011925311000000001,-0.003159395,9.24,32.76,-39.78
1553845088152,1.0510867,1.620924,8.387145,0.23094249,0.07850962,-0.005602856,10.08,32.46,-39.0
1553845088172,1.0534808999999998,2.2147042999999997,8.664881,0.24621412,0.12249192,-0.009878913000000001,10.679999,33.719997,-38.64
1553845088192,1.2857256000000001,3.4094474000000003,9.581888000000001,0.036076482,0.13287663,-0.012322373999999999,9.9,33.899998,-39.96
1553845088212,1.7310607,4.948966,10.874796,-0.31700364,0.032694727,-0.0049919905,9.54,32.82,-41.16
1553845088233,1.8795058,5.0447370000000005,11.219572,-0.48071549999999996,-0.17499945,0.017610023,9.54,33.0,-40.8
1553845088252,1.7406378,3.2897336000000004,9.8787775,-0.34632516,-0.24463809,0.039601172999999996,9.9,33.719997,-39.66
1553845088272,1.4485363000000002,1.8723229,8.681641,-0.18994367,-0.19210368,0.015777428,9.66,33.84,-39.6
1553845088293,1.201926,1.201926,8.016032000000001,-0.094037816,-0.13590409,-0.017820163,9.54,34.559998,-40.98
1553845088312,1.175589,0.84996754,7.869981299999999,-0.031118697999999997,-0.03022439,-0.04286563400000001,9.96,34.559998,-40.62
1553845088333,1.3288225,1.0750294,8.236305,0.036687344,0.07423357,-0.07585236,10.38,34.2,-39.84
1553845088352,1.5012103,1.9513340000000001,8.968952999999999,0.068452336,0.14814825,-0.09417831,10.679999,33.719997,-39.42
1553845088372,1.6759924,3.3136763999999994,10.012857,-0.04394687,0.14814825,-0.071576305,10.08,33.3,-39.3
1553845088393,1.8819,4.6496816,11.023241,-0.29989940000000004,0.04002511,-0.0007159340299999999,9.78,34.2,-40.079997999999996
1553845088412,1.7693691000000003,4.455744999999999,11.102252,-0.36953807,-0.13284975,0.05181848,9.719999000000001,34.8,-39.719997
1553845088432,1.6233183,2.6624336,9.847652,-0.17650463,-0.19149281,0.07991828,9.78,34.86,-38.94
1553845088452,1.3886794,1.2474172,8.616995,0.020193983000000002,-0.13040629,0.04387723,9.42,34.62,-39.42
1553845088472,1.3479767,0.86912173,8.135746000000001,0.08800002,-0.08153707,0.0011166617,8.88,34.739998,-39.42
1553845088493,1.403045,0.81644773,8.162083,0.10571512,0.005816659,-0.03981131,8.58,34.739998,-39.12
1553845088512,1.4581133,1.2617828000000002,8.475733,0.17596461,0.13165489,-0.059969865,8.88,34.559998,-38.7
1553845088532,1.5850098999999997,1.9489397000000002,9.093455,0.2553771,0.21289998,-0.054472078,9.9,34.92,-38.46
1553845088552,1.7382435,2.8084843,9.809344,0.30485716,0.16891769,-0.033091795,10.38,34.5,-39.0
1553845088573,1.7981004,3.3424077000000003,10.041589,0.2975268,0.051020685999999996,-0.010489778,9.9,34.079997999999996,-39.899998
1553845088592,1.6113469999999999,3.0119977000000002,9.912297,0.3751067,-0.024726603,-0.009268047,9.179999,34.44,-40.2
1553845088612,1.5179702,2.3248408,9.232324,0.56508577,-0.019839682,-0.011711508999999998,9.12,34.5,-39.899998
1553845088633,1.2689656,2.1931557999999995,8.621783,0.67137635,0.03635992,-0.030037466000000002,9.66,34.14,-40.739998
1553845088652,1.1947431999999998,2.4254005000000003,8.593052,0.5882986,0.13898528,-0.06424592,9.54,33.36,-41.16
1553845088672,1.4293821000000002,3.328042,9.160496,0.2956942,0.23672372,-0.063024186,9.24,32.04,-41.399998
1553845088693,1.8268316999999998,4.5347567,10.290593,0.048293784000000006,0.17746979,-0.02576141,9.0,31.08,-41.399998
1553845088712,1.9010541,4.7286925,10.558752,0.042795997,-0.055269867,0.061592318,8.88,31.14,-41.52
1553845088732,1.4006507,3.5794407999999995,9.320911,0.15030827,-0.12735197,0.098244235,9.78,31.26,-41.28
1553845088752,1.0702409,3.0359404,8.286585,0.13625838,-0.019228818,0.08297260000000001,9.599999,31.439999,-41.16
1553845088773,1.1109436000000001,2.9018610000000002,8.454185,-0.013403606,0.057129342,0.042655498,9.66,31.8,-41.28
1553845088792,1.185166,3.0838259999999997,9.126975999999999,-0.11847243,0.048577222999999996,0.00050579646,9.719999000000001,31.38,-41.28
1553845088812,1.1827718,3.2442424,9.495694,-0.124581076,0.029029539,-0.009878913000000001,9.48,31.14,-41.579997999999996
1553845088832,1.0774237,3.3735332000000002,9.196409,-0.10320080000000001,0.040635977000000004,0.013333966000000001,9.66,31.8,-41.46
1553845088853,1.0032011,3.4884584000000003,8.995291,-0.13313319,0.08706174,0.036546845,9.84,32.34,-41.879996999999996
1553845088872,1.1420691,3.7111259,9.25866,-0.25408453,0.10783115,0.054261937999999996,9.66,32.219997,-41.399998
1553845088892,1.3814965,3.9313992999999994,9.761458,-0.41779637,0.013147042,0.054261937999999996,9.36,32.1,-41.04
1553845088913,1.4700848,3.7853483999999997,10.0200405,-0.48926765,-0.15239744,0.04509896,9.599999,32.7,-41.16
1553845088932,1.3120626,2.8276386000000002,9.519637,-0.39824873,-0.23425339,0.03227079,9.84,33.42,-40.86
1553845088952,1.1037607,1.7454262999999999,8.736709,-0.24492154,-0.15300829999999999,0.005392718,9.719999000000001,33.719997,-40.8
1553845088972,1.0750294,1.2857256000000001,8.265037,-0.13313319,-0.021061412999999998,-0.03553525,9.48,33.66,-40.26
1553845088992,1.1516461,1.5395187,8.391933,-0.08182051,0.09133779,-0.05386121,9.24,33.18,-39.78
1553845089012,1.324034,2.2075214,8.818114,-0.09525955,0.16280901,-0.05508294,9.54,32.64,-40.2
1553845089032,1.664021,3.2729738,9.783007000000001,-0.20277184,0.13898528,-0.047141694000000005,10.38,33.0,-40.2
1553845089053,1.7765520000000001,3.8452053,10.43425,-0.2858495,0.0052057933,-0.005602856,9.78,33.78,-39.96
1553845089072,1.6831752,3.4908525999999998,10.28341,-0.24614327,-0.17683205,0.03288165,9.78,33.6,-39.059998
1553845089093,1.3862851,2.343995,9.364009,-0.12213762,-0.2287556,0.035325114,11.58,32.88,-37.44
1553845089112,1.211503,1.4796618000000001,8.667274,-0.029896967000000003,-0.15423004,-0.0025485298,11.58,32.88,-35.88
1553845089132,1.2761483999999998,1.1731946000000002,8.444607000000001,0.043406863,-0.03938737,-0.052028615,11.219999000000001,33.66,-34.739998
1553845089153,1.3360053,1.2833313,8.559532,0.14419962,0.045522900000000005,-0.073408894,11.219999000000001,33.899998,-34.68
1553845089172,1.3431882,1.8148602999999999,8.760652,0.2168926,0.13470922,-0.077684954,10.44,33.54,-34.62
1553845089192,1.5730386,2.9377751,9.555551,0.11609982,0.1615873,-0.067300245,10.559999000000001,33.6,-34.739998
1553845089213,1.9633054,4.5634879999999995,10.520444,-0.16734165,0.038192517999999995,-0.031259197999999995,10.74,33.96,-35.04
1553845089232,1.9920366000000003,4.788549400000001,10.965778,-0.356099,-0.14873226,0.02188608,11.099999,33.899998,-35.219997
1553845089252,1.8052831999999999,3.3160705999999998,10.106233999999999,-0.26935613,-0.20493186,0.06953357,11.58,33.84,-34.5
1553845089272,1.4772675,1.7526091000000001,9.088667,-0.08365311,-0.15361917,0.06647924,11.16,33.78,-34.26
1553845089292,1.211503,0.90024734,8.277008,0.054402437000000005,-0.100473896,0.027994731000000002,10.8,33.66,-34.44
1553845089312,1.0774237,0.8356019,7.963358,0.120986745,0.0009297369400000001,-0.012322373999999999,10.26,33.84,-34.26
1553845089333,1.0558752,1.2833313,8.217151,0.19367972,0.14326134,-0.039200444,10.2,34.079997999999996,-34.559998
1553845089352,1.1612233,2.317658,9.100638,0.18818194,0.2703213,-0.03553525,10.679999,33.66,-34.38
1553845089372,1.5395187,3.9888617999999996,10.307352999999999,-0.03050783,0.23122594,-0.0062137214,10.679999,32.94,-34.02
1553845089393,1.838803,5.3919067,11.075915,-0.37075976,0.00031887164,0.053651072,10.98,33.0,-34.68
1553845089412,1.5730386,4.496448,10.92747,-0.41229862,-0.14262360000000002,0.0970225,11.639999000000001,33.719997,-35.04
1553845089432,1.4006507,2.3727264,9.593859,-0.24858673,-0.17805378,0.11351587,11.94,33.96,-34.02
1553845089452,1.1684061000000001,1.2761483999999998,8.76544,-0.14351789999999998,-0.16522561,0.09030299,11.34,34.079997999999996,-33.36
1553845089472,1.0941836,0.58420306,8.250671,-0.04089254,-0.099252164,0.035325114,11.219999000000001,34.26,-33.719997
1553845089492,1.23784,0.43336374,8.111803,0.08128051,0.057129342,-0.023928814,11.46,34.079997999999996,-33.719997
1553845089512,1.350371,0.70631105,8.296163,0.24193807,0.18113498,-0.08379361,11.7,34.02,-31.56
1553845089532,1.3096683,1.6017698,8.803747999999999,0.3696089,0.25016275,-0.10089783,12.3,33.78,-29.279999
1553845089553,1.3910737,3.059883,9.617802000000001,0.27370307,0.28986898,-0.059359,12.24,33.719997,-30.24
1553845089572,1.7981004,5.310501599999999,10.601849000000001,-0.20460443,0.10172250000000001,0.007836179,12.12,33.239998,-30.96
1553845089592,1.7885233,5.724711,11.727158,-0.47888294,-0.11208033,0.05242934,12.12,33.3,-31.619999
1553845089612,1.6951466,3.1293173,10.56354,-0.34143823,-0.21104050000000002,0.063424915,12.0,33.6,-32.34
1553845089633,1.3575538,1.4748733,9.356826,-0.18078068,-0.1829407,0.029827327999999997,12.0,33.66,-32.1
1553845089652,1.1133378,0.70870537,8.379961999999999,-0.04639033,-0.13773668,0.02188608,12.179999,34.02,-32.1
1553845089672,1.0606636999999999,0.16759923,7.747873299999999,0.043406863,-0.019228818,-0.009268047,12.36,33.3,-30.599998
1553845089693,1.2809371,0.22266756,7.759844999999999,0.16008212,0.14387220000000003,-0.05508294,12.3,32.7,-28.98
1553845089712,1.3096683,1.0343267,8.188419999999999,0.33234614,0.21961950000000002,-0.1015087,12.059999000000001,33.48,-29.099998
1553845089732,1.3096683,2.1979442000000002,9.138947,0.43680410000000003,0.2849821,-0.08868053,12.0,34.079997999999996,-29.519999
1553845089753,1.4820561,4.051113,10.113417,0.16008212,0.20740218,-0.034313522,11.94,34.38,-29.64
1553845089772,1.8819,6.0766697,11.552375999999999,-0.34021652,-0.03327872,0.04387723,12.54,34.079997999999996,-29.4
1553845089792,1.6712039,5.262616,11.619415,-0.40802255,-0.17133425,0.06586838,12.599999,33.239998,-31.5
1553845089812,1.4245936000000001,2.2530127,9.993703,-0.26385838,-0.14201273,0.05181848,12.179999,33.719997,-33.54
1553845089832,1.1037607,1.2450229,9.0838785,-0.14229618,-0.13773668,0.026773002,11.94,33.6,-32.64
1553845089852,0.9672870000000001,0.55307746,8.140533999999999,-0.042725135,-0.104749955,0.029827327999999997,11.519999499999999,33.059998,-32.219997
1553845089872,1.0415094999999999,0.19872479999999998,7.7933645,0.059900224,-0.0045680506,0.0060035832999999995,11.88,34.26,-32.1
1553845089892,1.1660118,0.44533512,7.927444,0.20772961,0.11393981,-0.02820487,12.24,34.86,-32.1
1553845089912,1.2210802,1.2665714,8.691217,0.45574090000000006,0.2055696,-0.055693805,11.82,34.5,-32.7
1553845089932,1.2905141000000002,2.4469488,9.428655000000001,0.56203145,0.2636018,-0.02453968,11.519999499999999,33.96,-33.42
1553845089952,1.4293821000000002,3.7829542000000003,9.926663000000001,0.34089822,0.20129353,0.021275215,11.94,33.12,-33.6
1553845089972,1.7909175,5.525986,11.008875999999999,-0.1875002,0.02108829,0.06037059,12.059999000000001,33.3,-34.2
1553845089992,1.7813405,5.571477400000001,11.547587,-0.42146158,-0.15728436,0.035935983,11.519999499999999,33.78,-34.68
1553845090012,1.6592325,3.1748084999999997,10.28341,-0.37931190000000004,-0.19210368,0.022496943999999998,11.219999000000001,33.6,-34.26
1553845090032,1.2498114,1.5538843999999998,9.378374,-0.24308895,-0.1969906,-0.011100643,11.94,33.899998,-33.78
1553845090052,1.0127783000000001,0.7326481,8.391933,-0.09525955,-0.1285737,0.0011166617,12.0,33.96,-33.48
1553845090073,1.1037607,0.16520496,7.781393,0.012252735,-0.01861795,0.0017275269,11.28,34.079997999999996,-33.42
1553845090092,1.1540405,0.26097596,7.6018224000000005,0.17413202,0.10294423,-0.023928814,11.219999000000001,34.62,-35.16
1553845090112,1.2067145000000001,0.90024734,8.13814,0.39709783,0.19274142,-0.06424592,11.28,34.8,-38.04
1553845090133,1.158829,2.2865324,9.064724,0.56386405,0.27154303,-0.045919962,11.16,34.68,-35.88
1553845090152,1.350371,3.7254915,9.778217999999999,0.3751067,0.23061506,0.0060035832999999995,10.92,34.32,-33.78
1553845090173,1.7214836,5.4781010000000006,11.162109,-0.17650463,0.0070383893000000005,0.04509896,11.46,33.42,-34.739998
1553845090192,1.6065584,6.026389599999999,11.978557,-0.35976420000000003,-0.15667349,0.01944262,11.88,33.36,-34.38
1553845090212,1.4198049,3.232271,10.312141,-0.32250142,-0.20859705,-0.02820487,11.94,34.26,-34.26
1553845090232,1.0989721000000001,1.6113469999999999,9.407105,-0.238202,-0.23914029999999997,-0.085015334,12.0,33.96,-34.559998
1553845090252,0.8547561,0.86193895,8.566715,-0.104422525,-0.17561032,-0.08990226,11.639999000000001,33.059998,-34.079997999999996
1553845090273,1.0175668,0.28491869999999997,7.865193,0.04585032,-0.018007086999999998,-0.06485678,10.86,33.48,-33.84
1553845090292,1.1612233,0.26337022,7.5515428,0.2113948,0.11821587,-0.062413324000000006,10.8,34.079997999999996,-34.32
1553845090312,1.2282629999999999,0.81165916,8.20518,0.48689502,0.31369275,-0.08135014,11.099999,34.26,-34.68
1553845090333,1.5490957,2.4086404,8.8324795,0.61212236,0.35584244,-0.036756985,11.28,34.02,-33.78
1553845090352,1.6616267,4.271386,9.565128,0.32257226,0.19640662,0.005392718,10.62,32.88,-33.78
1553845090372,1.8435916,6.459753500000001,11.717581,-0.27790827,-0.019839682,0.036546845,10.44,32.1,-34.92
1553845090393,1.7454262999999999,6.507639,12.067145,-0.5454671999999999,-0.35092866,0.050596748,11.4,32.34,-35.04
1553845090412,1.4676905,3.3136763999999994,10.340873,-0.48193726,-0.3045029,0.043266362999999995,11.88,32.94,-34.44
1553845090433,0.87630457,1.0774237,9.203592,-0.31517106,-0.26235318,-0.013544105,11.88,33.3,-33.96
1553845090453,0.77574503,0.43815228,8.308133,-0.17650463,-0.18171898,-0.01904189,11.219999000000001,34.14,-34.2
1553845090472,0.9074302,0.15802214,7.728719,-0.057385902999999995,-0.088867456,-0.010489778,10.74,34.86,-34.559998
1553845090492,1.0606636999999999,0.27773590000000004,7.2953553,0.08128051,0.05040982,-0.034924388,10.74,34.5,-34.5
1553845090513,1.2067145000000001,0.75659084,7.953780999999999,0.38854572,0.2758191,-0.060580727,10.92,34.559998,-34.8
1553845090532,1.5179702,2.1380875,8.784595,0.51132965,0.3405708,-0.051417753,10.8,34.079997999999996,-34.5
1553845090552,1.7693691000000003,4.348003,9.818921000000001,0.18024068,0.14203961,-0.0074354519999999995,10.98,32.82,-33.899998
1553845090572,1.977671,6.026389599999999,11.894757,-0.34632516,-0.16522561,0.05914886,10.98,32.7,-34.5
1553845090592,1.5275473999999998,5.320079,11.851661,-0.46971995,-0.31977449999999996,0.026773002,11.4,33.059998,-34.739998
1553845090612,1.4341706,2.657645,10.233130000000001,-0.28951472,-0.17011254,-0.005602856,11.759999,34.32,-34.079997999999996
1553845090632,1.1277034,1.1899546,8.9498,-0.098313875,-0.14628878,-0.031870063,11.16,34.739998,-33.899998
1553845090652,1.0008069,0.45012367,8.073495,0.03241129,-0.123686776,-0.02453968,10.74,34.739998,-34.14
1553845090672,0.9912298,0.19872479999999998,7.656891000000001,0.08372397,-0.047328617,-0.032480925,10.559999000000001,34.559998,-34.559998
1553845090692,1.132492,0.5123747999999999,7.8101244,0.20956221,0.12737885,-0.067300245,10.44,33.899998,-34.079997999999996
1553845090713,1.4652961000000002,1.5490957,8.724737,0.41969985,0.2825386,-0.08012842,10.5,34.2,-34.32
1553845090732,1.6041641000000002,3.057489,9.385557,0.37571755,0.24038891,-0.06363506,10.139999000000001,34.079997999999996,-35.46
1553845090752,1.6927522000000002,5.0662856,10.599455,0.008587544,0.052242417,-0.0007159340299999999,10.86,33.54,-35.04
1553845090772,1.6520496999999998,5.8061166,11.736735000000001,-0.33655134,-0.1444562,0.042655498,11.519999499999999,34.2,-34.8
1553845090792,1.5443072,3.9577362999999997,10.762265,-0.29195815,-0.17622119,0.04754242,10.26,34.92,-37.44
1553845090812,1.4221992,1.9345740000000002,9.464568,-0.14046358,-0.13834754,0.029827327999999997,9.48,35.04,-39.3
1553845090832,1.2905141000000002,1.446142,8.743892,-0.08182051,-0.15728436,0.021275215,8.88,34.5,-39.239998
1553845090852,1.2330515,1.0989721000000001,8.300951,-0.10381166,-0.12979543,0.012112236,8.519999499999999,34.32,-39.059998
1553845090873,1.2474172,1.2354459,8.291373,-0.09342695,0.008870985,-0.009878913000000001,9.0,35.219997,-39.239998
1553845090892,1.3958621999999998,1.6879636999999998,8.791777,0.015917927,0.14509393,-0.020263622,9.3,35.52,-39.42
1553845090913,1.5586729,2.370332,9.29218,0.1130455,0.16464162,-0.020874487,9.179999,35.52,-39.6
1553845090932,1.4796618000000001,2.9521408,9.615408,0.091665216,0.060183667,0.0035601228000000005,8.639999000000001,35.52,-38.879996999999996
1553845090952,1.3623424,2.9736892999999998,9.883567,0.05928936,-0.013731028999999999,0.02066435,9.9,35.16,-38.64
1553845090973,1.2785428,2.719896,9.828498,0.05623503,-0.046106886,0.0066144490000000005,9.719999000000001,35.34,-38.879996999999996
1553845090992,1.3431882,2.5570855,9.538791,0.054402437000000005,-0.013731028999999999,-0.015987566,9.54,35.219997,-39.3
1553845091012,1.4150163999999998,2.403852,9.366403,0.06051109,0.029029539,-0.012933239,8.94,35.1,-39.6
1553845091033,1.4581133,2.1285102000000005,9.227535000000001,0.07395013,0.051020685999999996,-0.009878913000000001,9.36,34.68,-39.719997
1553845091052,1.4940275,1.8914771000000001,9.14613,0.12526279999999998,0.051020685999999996,-0.020263622,9.0,34.5,-39.78
1553845091073,1.5012103,1.8651401,9.126975999999999,0.21994692,0.03513819,-0.019652756,9.66,34.5,-38.76
1553845091092,1.4006507,2.0040080000000002,9.000079,0.36533284,0.054075014000000005,-0.0062137214,10.44,34.5,-36.42
1553845091112,1.3144568,2.4110348,8.901914,0.40748253,0.12676798,0.009668776,10.92,34.26,-35.76
1553845091134,1.3647367,3.3950818,9.306546,0.18940365,0.17258286,0.023107812000000002,10.32,33.54,-35.46
1553845091152,1.5706443,4.901080599999999,10.439038,-0.13679838,0.09744645,0.027994731000000002,10.38,33.059998,-37.079997999999996
1553845091172,1.7526091000000001,4.786155,10.721561999999999,-0.33777305,-0.08398053,0.0408229,10.139999000000001,33.899998,-38.1
1553845091192,1.6161355,3.1915683999999995,10.0368,-0.31944707,-0.18721674,0.053651072,10.139999000000001,33.719997,-37.8
1553845091212,1.2522057,1.7430321,9.153313,-0.19177626,-0.20432098,0.031659923,10.2,33.66,-39.0
1553845091233,1.0032011,0.9601042,8.320105,-0.016457931999999998,-0.11574552,0.02066435,9.059999000000001,34.68,-39.6
1553845091252,0.9217958,0.77574503,7.977723599999999,0.11854329,0.007649255,0.008447044499999999,8.34,34.559998,-39.6
1553845091273,0.9313729,1.1612233,8.135746000000001,0.23155336,0.12249192,-0.020874487,8.7,34.26,-39.6
1553845091292,1.0846065,2.2793495999999998,8.779805999999999,0.2291099,0.24771929999999998,-0.04408737,8.94,34.32,-39.3
1553845091312,1.4964218,4.2019525,9.967366,-0.03600562,0.2141217,-0.047141694000000005,9.48,34.38,-39.18
1553845091332,1.8148602999999999,5.4421870000000006,11.150138,-0.35243379999999996,0.019255694,-0.003159395,9.54,34.32,-39.84
1553845091352,1.5634614,4.4078599999999994,11.030424,-0.38236620000000004,-0.22203608,0.035935983,9.9,33.899998,-40.62
1553845091372,1.3192455,2.2147042999999997,9.522031,-0.22659558,-0.23119906,0.046931557,9.96,34.44,-40.14
1553845091393,1.1181264,1.2546,8.662486,-0.12946801,-0.19882320000000003,0.007225314,9.42,35.16,-39.42
1553845091412,1.0893950000000001,0.9577099,8.377566999999999,-0.06960321,-0.13773668,-0.023317947999999998,9.3,35.04,-39.18
1553845091432,1.1947431999999998,0.9960183000000001,8.28898,0.017139658000000002,-0.019228818,-0.05386121,9.179999,33.78,-39.48
1553845091453,1.2737542,1.2641771000000002,8.466156,0.13625838,0.13287663,-0.07829582,8.88,34.44,-39.719997
1553845091473,1.4293821000000002,2.0949904999999998,9.064724,0.22666644,0.22511728,-0.07707409,8.76,34.739998,-38.879996999999996
1553845091492,1.6017698,3.5531040000000003,9.873989,0.05379157,0.12371366,-0.04286563400000001,8.639999000000001,34.62,-39.12
1553845091513,1.8268316999999998,4.8316464,10.690437,-0.24247807,-0.07359582,0.008447044499999999,8.7,35.16,-40.079997999999996
1553845091532,1.6305011999999999,4.5251794,10.958596,-0.31700364,-0.1866059,0.024940407,9.12,34.92,-40.26
1553845091552,1.5036045,2.482863,9.847652,-0.18078068,-0.16278215,0.034103386,9.42,34.559998,-39.719997
1553845091572,1.350371,1.5993756000000001,9.055147,-0.06899234,-0.1285737,0.010890506000000001,9.24,34.739998,-39.719997
1553845091592,1.2761483999999998,1.1540405,8.432636,0.008587544,-0.09070005,0.007225314,9.3,35.579997999999996,-39.0
1553845091613,1.2522057,0.9577099,8.147717,0.07822618,0.01070358,-0.008046316999999999,9.78,34.559998,-36.059998
1553845091632,1.3360053,1.0774237,8.298556,0.16619077,0.12004846,-0.027594006,10.08,34.26,-35.16
1553845091655,1.5036045,2.1213273999999998,9.115005,0.2553771,0.19518489,-0.03614612,10.32,34.32,-35.399998
1553845091672,1.637684,3.3256476000000004,9.787795,0.12831713,0.1298223,-0.019652756,10.74,34.2,-35.52
1553845091692,1.7238779,4.96812,10.700014,-0.18261328,-0.019228818,0.021275215,10.2,34.14,-34.86
1553845091713,1.6089526,4.4820824,10.826911,-0.34815773,-0.10963687,0.04509896,10.62,34.26,-34.32
1553845091732,1.5203645000000001,2.482863,9.914692,-0.24431066,-0.091921784,0.049375015999999994,11.099999,34.5,-33.899998
1553845091753,1.3479767,1.5850098999999997,9.158101,-0.13252233,-0.09253265,0.036546845,11.16,34.92,-34.32
1553845091772,1.2641771000000002,1.2905141000000002,8.645726,-0.09953561,-0.10780427599999999,0.029827327999999997,10.86,35.16,-34.5
1553845091792,1.2258687,1.2761483999999998,8.463761,-0.114196375,-0.06565457,0.010279640999999999,10.38,34.92,-33.66
1553845091813,1.3024855,1.5059988000000002,8.724737,-0.075100996,0.04674463,-0.014765833999999999,10.92,34.739998,-33.239998
1553845091832,1.4174107,1.9178141,9.265842999999998,0.03729821,0.11027461,-0.02453968,11.04,34.98,-33.54
1553845091852,1.5059988000000002,2.4469488,9.63935,0.055013303,0.0736227,-0.017820163,10.5,34.5,-33.48
1553845091873,1.5203645000000001,2.9401696,9.833286,-0.041503407,-0.020450545,-0.0019376645000000001,11.46,34.98,-32.46
1553845091892,1.5227587,2.8420042999999997,9.881172,-0.06960321,-0.050382942,-0.0007159340299999999,11.34,35.46,-32.76
1553845091912,1.4868447,2.2697724999999997,9.586677,-0.007294953000000001,-0.025337468999999998,-0.011711508999999998,10.139999000000001,35.219997,-33.84
1553845091933,1.5059988000000002,1.8771113999999998,9.253872,0.061121956,0.008870985,-0.02820487,9.84,35.34,-34.079997999999996
1553845091952,1.525153,1.8627458,9.071907000000001,0.08555657,0.011925311000000001,-0.03858958,10.32,35.52,-33.42
1553845091972,1.5036045,1.8531687,9.031203999999999,0.11365636400000001,0.027807808,-0.04286563400000001,10.5,35.64,-33.54
1553845091993,1.3958621999999998,1.802889,9.024022,0.21872519,0.05957280000000001,-0.040422175,10.44,34.26,-33.66
1553845092012,1.3647367,2.0662591,9.105427,0.27309218,0.070568375,-0.026372273999999998,10.26,33.96,-34.26
1553845092032,1.4198049,2.9162266,9.481328,0.10571512,0.00826012,-0.012322373999999999,10.26,34.38,-34.559998
1553845092053,1.5059988000000002,4.3934940000000005,10.398335000000001,-0.20765875,-0.050382942,0.0023383922,10.32,34.079997999999996,-34.5
1553845092072,1.5131816999999999,3.9721019999999996,10.482135000000001,-0.28890383,-0.04121997,0.02066435,10.08,33.48,-34.32
1553845092092,1.5371244,2.4804687999999997,9.893144,-0.18811107,-0.013120163999999998,0.04143377,9.84,34.14,-34.32
1553845092112,1.4054393,1.5443072,9.196409,-0.051888116,-0.043663427000000005,0.034103386,10.559999000000001,34.92,-34.02
1553845092132,1.324034,0.9960183000000001,8.516436,0.06539801,-0.07665015,0.039601172999999996,10.62,34.2,-34.079997999999996
1553845092153,1.2929084,0.7302538000000001,8.200391,0.20467529,-0.015563624,0.013944831999999999,10.32,35.1,-34.98
1553845092173,1.3048798000000001,1.2258687,8.456578,0.33356783,0.07667702400000001,-0.029426599999999997,9.059999000000001,35.64,-36.84
1553845092193,1.3958621999999998,2.2625897,9.09585,0.35616985,0.14448306,-0.036756985,8.7,35.64,-38.879996999999996
1553845092213,1.6496553,3.9026680000000002,10.10384,0.07639358,0.09866817,-0.020263622,9.0,35.34,-39.66
1553845092232,1.812466,5.4302154,11.138166,-0.32189056,-0.03266785,0.012112236,9.12,34.92,-40.02
1553845092252,1.7693691000000003,4.9561486,11.214784,-0.4703308,-0.13468234,0.029216462999999998,8.94,34.62,-40.32
1553845092272,1.6328955,2.6504622,10.00328,-0.32494488,-0.11330206,0.049375015999999994,8.34,35.04,-39.78
1553845092292,1.3791022,1.1516461,8.961771,-0.14351789999999998,-0.08581313,0.039601172999999996,8.46,35.34,-39.36
1553845092312,1.2713598999999998,0.50758624,8.267431,-0.013403606,-0.088867456,0.035935983,8.46,35.28,-39.059998
1553845092332,1.2426286,0.27773590000000004,7.881953,0.106325984,-0.05221554,0.0060035832999999995,9.42,34.92,-36.239998
1553845092352,1.2234744,0.5698373999999999,7.951386500000001,0.26454008,0.06262712,-0.045309097,10.74,34.38,-33.42
1553845092372,1.2761483999999998,1.4605076000000001,8.480521000000001,0.37266323,0.17808066,-0.066078514,10.38,34.8,-33.84
1553845092393,1.5012103,3.371139,9.747093,0.17840809,0.16647421,-0.058137268,10.139999000000001,34.26,-34.2
1553845092412,1.7933118000000001,5.2243075,11.066339,-0.21376741,0.014979636999999999,-0.013544105,10.5,33.6,-34.5
1553845092432,1.637684,5.4685235,11.674484,-0.46055698,-0.12735197,0.004170988,10.5,33.719997,-33.84
1553845092453,1.5874043,2.8204557999999995,10.400730000000001,-0.3102841,-0.10902601,0.016999159,11.46,33.66,-32.399998
1553845092473,1.403045,1.4748733,9.105427,-0.14107445,-0.08825659,0.0023383922,11.28,33.78,-32.46
1553845092492,1.3575538,0.74222517,8.480521000000001,-0.020733988000000002,-0.10780427599999999,0.00905791,10.92,34.68,-32.52
1553845092512,1.2809371,0.339987,8.075889,0.06661975,-0.09253265,-0.014765833999999999,10.98,34.68,-32.04
1553845092533,1.3743136999999999,0.5243462,8.006455,0.17596461,0.02108829,-0.042254772,10.62,34.68,-32.94
1553845092552,1.4772675,1.1564348,8.48531,0.32257226,0.12921144,-0.07646323,10.62,34.62,-34.38
1553845092572,1.5754328000000002,2.3607549999999997,9.249083500000001,0.34456342,0.14937,-0.07463063,10.44,34.2,-34.2
1553845092593,1.6424724999999998,3.9960446000000003,10.168485,0.08372397,0.046133768,-0.033702657000000004,10.38,34.559998,-34.26
1553845092612,1.6496553,5.269798799999999,11.037607000000001,-0.28035173,-0.06809804,0.018831754,10.32,34.98,-34.62
1553845092632,1.5921928,4.4677167,10.896344000000001,-0.33716217,-0.07665015,0.013944831999999999,9.719999000000001,34.32,-34.8
1553845092652,1.5658557,2.3296294,9.785401,-0.20704788,-0.038776506,0.017610023,9.78,34.5,-34.559998
1553845092673,1.4629020000000001,1.4102278999999998,8.973742,-0.10320080000000001,-0.06321111,0.012723101,10.32,34.32,-32.94
1553845092692,1.4102278999999998,0.8332075999999999,8.530801,-0.021344852,-0.08703486,0.020053484,10.92,33.899998,-32.28
1553845092712,1.4078336,0.6560313,8.248277,0.061732817,-0.01861795,0.004170988,10.38,34.5,-33.18
1553845092733,1.4940275,1.0032011,8.449396,0.19551231,0.08889433,-0.023928814,9.24,34.02,-33.6
1553845092752,1.5610671999999999,1.6137413,8.877971,0.30668979999999996,0.12860057,-0.036756985,9.599999,34.38,-33.42
1553845092773,1.4796618000000001,2.5139885,9.399923,0.33356783,0.12249192,-0.02576141,10.38,35.1,-34.26
1553845092792,1.4341706,3.397476,9.907509,0.20039923,0.06384886,-0.0043811253,10.62,35.16,-34.26
1553845092812,1.5107874,4.07745,10.422278,-0.01279274,0.006427524,0.0047818534,10.26,34.14,-33.84
1553845092832,1.5586729,3.5866237,10.309747999999999,-0.066548884,-0.009454971999999999,-0.012933239,10.38,33.899998,-33.84
1553845092852,1.5969813,2.3751206000000002,9.675264,-0.0042406265000000005,-0.00334632,-0.005602856,10.26,33.54,-33.42
1553845092872,1.5658557,1.9321798,9.277814999999999,0.058678493,-0.030835256000000002,0.016388291,10.2,33.54,-33.18
1553845092892,1.5059988000000002,1.6855695,8.937828,0.08555657,-0.06382198,0.026162136000000003,10.26,35.28,-34.2
1553845092912,1.4198049,1.7214836,8.777411,0.12465194,-0.019839682,0.02555127,10.26,35.399998,-35.04
1553845092932,1.4509305000000001,2.2218869999999997,8.899519999999999,0.14725395,0.0736227,0.029216462999999998,10.44,34.02,-34.8
1553845092953,1.5754328000000002,3.0718546,9.45978,0.06906319999999999,0.09500299,0.042655498,9.9,33.18,-34.86
1553845092972,1.6305011999999999,3.7733772000000005,9.979338,-0.09525955,0.019255694,0.058537994,10.08,32.94,-34.32
1553845092992,1.5706443,3.624932,10.0368,-0.18444587,-0.0406091,0.057927128,10.26,33.84,-34.44
1553845093012,1.4581133,2.6504622,9.668080999999999,-0.13679838,-0.051604677,0.050596748,10.2,33.719997,-34.86
1553845093032,1.333611,1.8747171000000002,9.09585,-0.053109847,-0.0406091,0.031659923,9.78,33.84,-33.96
1553845093052,1.2809371,1.6951466,8.777411,-0.0024080307,-0.025337468999999998,0.02188608,9.78,33.78,-33.48
1553845093073,1.3024855,1.6568381999999997,8.820508,0.034854747,0.014979636999999999,0.004170988,9.599999,32.7,-33.48
1553845093092,1.3360053,1.8627458,9.050359,0.061121956,0.065070584,-0.01904189,9.9,33.36,-33.0
1553845093112,1.4126221,2.5858168999999998,9.500483000000001,0.009809273,0.082174815,-0.037978712000000005,10.86,33.899998,-33.0
1553845093133,1.4916332,3.502824,9.895537,-0.13130060000000002,0.032083865,-0.034313522,10.139999000000001,33.84,-33.899998
1553845093152,1.4581133,3.3663504,9.93624,-0.19544145,-0.022894006,-0.020263622,9.9,33.78,-34.44
1553845093172,1.3838909,2.3942747000000004,9.610619999999999,-0.104422525,-0.03511131,-0.011711508999999998,10.62,33.66,-34.14
1553845093192,1.3623424,1.664021,9.050359,0.011031005,-0.022283142000000002,-0.010489778,10.38,34.5,-34.68
1553845093213,1.4485363000000002,1.5059988000000002,8.770228,0.08250224,-0.018007086999999998,-0.0043811253,10.08,34.68,-34.739998
1553845093232,1.4964218,1.7550035,8.810931,0.107547715,0.013147042,0.005392718,9.84,34.26,-34.14
1553845093252,1.6233183,2.52596,9.201198,0.011641869,0.05468588,-0.0013267993,9.9,34.02,-34.32
1553845093273,1.8100717,3.7135203000000003,10.096657,-0.18078068,0.041246843,-0.0007159340299999999,9.78,34.26,-34.44
1553845093292,1.7957061999999997,3.8332339999999996,10.36721,-0.32066882,-0.037554774,0.016388291,9.78,34.86,-34.86
1553845093312,1.5490957,3.059883,9.926663000000001,-0.31578190000000006,-0.06504371,0.03104906,9.96,34.32,-34.26
1553845093333,1.3216397,2.0040080000000002,9.330489,-0.24431066,-0.030835256000000002,0.0408229,10.139999000000001,34.62,-33.719997
1553845093352,1.3264283000000001,1.3383996,8.909097000000001,-0.16856338,-0.016785355,0.040212035,10.38,35.04,-33.239998
1553845093372,1.4341706,0.9481328000000001,8.798960000000001,-0.037838212999999996,0.0009297369400000001,0.038379442,9.9,35.219997,-33.18
1553845093392,1.4868447,0.8882760000000001,8.700794,0.13259318,0.031473,0.02432954,10.38,34.559998,-33.36
1553845093412,1.4317763000000001,1.1444633,8.74868,0.2767574,0.08828347,0.004170988,11.4,33.719997,-31.98
1553845093432,1.3910737,1.9920366000000003,9.143736,0.29813766,0.14265047,0.0060035832999999995,11.219999000000001,35.28,-31.92
1553845093452,1.489239,3.2346652000000002,9.759064,0.10510425,0.10966375,0.016388291,10.74,35.28,-32.46
1553845093472,1.6352897,4.565882,10.635368,-0.24614327,-0.019839682,0.03104906,11.28,34.079997999999996,-32.04
1553845093493,1.5538843999999998,3.8356282999999998,10.688042999999999,-0.32922095,-0.08031534,0.0047818534,11.7,34.44,-31.619999
1553845093512,1.4796618000000001,2.2075214,9.90272,-0.23942375,-0.07970448,-0.0074354519999999995,11.04,35.04,-31.98
1553845093532,1.3264283000000001,1.3814965,9.091061999999999,-0.13374406,-0.0968087,-0.0074354519999999995,10.5,35.46,-33.12
1553845093552,1.3048798000000001,0.87151605,8.578687,-0.04394687,-0.07848274,0.013944831999999999,10.8,35.28,-32.52
1553845093572,1.3814965,0.65842557,8.305738999999999,0.07211753,-0.0015137241,0.013333966000000001,11.04,34.559998,-30.9
1553845093592,1.3934678999999999,0.7206767,8.375174000000001,0.25720970000000004,0.08095308400000001,-0.0037702604,10.92,34.86,-30.9
1553845093612,1.4054393,1.3719195,8.806142999999999,0.43374977,0.14081787,-0.012933239,11.46,35.16,-31.08
1553845093633,1.4174107,2.2889266,9.217958,0.43802583,0.14692652,-0.0013267993,11.04,34.62,-31.92
1553845093652,1.5897985000000001,3.8547822999999997,10.034406,0.10938031,0.046133768,0.018831754,10.8,34.14,-32.76
1553845093672,1.7071179,5.3679643,11.262669,-0.29256904,-0.060767654000000004,0.024940407,11.82,34.5,-34.079997999999996
1553845093693,1.6879636999999998,4.3073006,11.030424,-0.39458352,-0.09436524,-0.008046316999999999,11.219999000000001,34.98,-34.98
1553845093712,1.5993756000000001,2.1332988999999998,9.897932,-0.2876821,-0.09070005,-0.017820163,11.16,35.04,-33.66
1553845093732,1.3288225,1.1827718,9.009656,-0.15878953,-0.1249085,-0.018431026,11.7,34.92,-33.059998
1553845093753,1.2162915,0.5147691,8.269825,-0.043336004000000004,-0.08092621,0.0035601228000000005,11.7,34.68,-31.859999
1553845093772,1.2474172,0.31365,7.92505,0.10021733,0.018033965,0.0023383922,11.88,34.86,-30.539998999999998
1553845093792,1.3120626,0.6368771,8.0711,0.29447249999999997,0.11943759,-0.03064833,11.58,35.34,-31.14
1553845093812,1.3791022,1.5514901,8.818114,0.45879522,0.18296757,-0.03981131,11.519999499999999,35.219997,-32.1
1553845093832,1.4772675,2.7869357999999997,9.483723,0.38243708,0.15670037,-0.019652756,11.34,34.559998,-32.82
1553845093852,1.6927522000000002,4.4749,10.532414,-0.007905818,0.032694727,0.007836179,11.46,34.44,-32.399998
1553845093872,1.7813405,5.5451403,11.509279,-0.38175535,-0.07054149,0.01150137,11.04,33.96,-32.399998
1553845093893,1.7478206000000003,4.0032277,10.862824,-0.40130305,-0.11208033,-0.0013267993,10.86,33.84,-32.399998
1553845093912,1.5562786,1.8292258999999997,9.605830000000001,-0.26324749999999997,-0.1249085,-0.017209295,11.4,34.68,-32.16
1553845093932,1.2713598999999998,0.97446984,8.856422,-0.14962655,-0.15606263,-0.018431026,11.219999000000001,35.1,-32.579997999999996
1553845093952,1.2138973,0.39505535,8.3129225,-0.03967081,-0.09986303,-0.0025485298,10.92,34.86,-32.82
1553845093972,1.185166,0.35674694,7.980117999999999,0.107547715,0.029029539,-0.0074354519999999995,10.62,35.399998,-32.88
1553845093992,1.2617828000000002,0.7039168,8.162083,0.31646362,0.16280901,-0.029426599999999997,10.98,35.82,-32.7
1553845094012,1.4054393,1.5395187,8.844451,0.47895379999999993,0.22267383,-0.033091795,10.98,35.219997,-32.94
1553845094032,1.5227587,2.8348215,9.560339,0.4154238,0.16891769,-0.009268047,10.92,34.92,-33.239998
1553845094052,1.6783867,4.235472,10.345661,0.078837045,0.020477425,0.018831754,10.8,34.26,-33.0
1553845094072,1.6879636999999998,5.233885,11.322526,-0.24614327,-0.061989382,0.010890506000000001,10.44,33.42,-33.78
1553845094092,1.6759924,4.1397014,10.735928999999999,-0.29195815,-0.069930635,-0.014765833999999999,11.28,33.6,-33.96
1553845094112,1.5993756000000001,2.2625897,9.624985,-0.21010222,-0.09008919,-0.016598431,11.4,34.32,-33.36
1553845094134,1.3743136999999999,1.3647367,9.007261999999999,-0.14840484,-0.14384532,-0.011100643,11.04,34.079997999999996,-33.12
1553845094152,1.2546,0.81165916,8.56911,-0.057385902999999995,-0.11330206,0.0060035832999999995,10.8,34.32,-33.059998
1553845094173,1.2306572,0.6656084,8.286585,0.07822618,-0.003957185,0.013333966000000001,10.62,35.1,-33.3
1553845094192,1.2761483999999998,0.91700727,8.262642,0.25782055,0.11393981,0.0023383922,10.679999,34.98,-33.12
1553845094213,1.4054393,1.6616267,8.755863,0.39831957,0.18174586,-0.0025485298,9.9,34.62,-33.48
1553845094232,1.489239,2.8563697,9.507666,0.35678074,0.17930238,0.010279640999999999,9.9,34.68,-34.02
1553845094252,1.6113469999999999,4.046324299999999,10.216371,0.097163,0.10722029,0.036546845,10.5,34.559998,-34.079997999999996
1553845094272,1.6903580000000002,4.7262983,10.838882,-0.16489819,0.008870985,0.053040206,10.32,34.559998,-34.68
1553845094293,1.6448668000000002,3.9768906000000004,10.407912,-0.22842817,-0.06015679,0.03288165,10.86,34.5,-34.86
1553845094312,1.5514901,2.4613144,9.57231,-0.19605231,-0.07787188,0.03104906,11.34,34.32,-34.98
1553845094332,1.3479767,1.8052831999999999,9.0838785,-0.19605231,-0.118188985,0.010890506000000001,10.98,34.62,-34.86
1553845094352,1.1995316999999999,1.4533247999999999,8.906702000000001,-0.20582616,-0.102306485,0.00050579646,10.8,35.219997,-34.2
1553845094373,1.1779832000000001,1.3192455,8.777411,-0.16734165,-0.019228818,-0.0153767,10.2,35.399998,-34.739998
1553845094392,1.1779832000000001,1.5203645000000001,8.794171,-0.057385902999999995,0.06873578,-0.022096219,9.84,35.1,-34.92
1553845094412,1.2737542,1.6807808999999998,8.885154,0.09227608,0.099889904,-0.028815735,10.44,35.16,-34.8
1553845094432,1.3192455,1.7813405,9.079089999999999,0.21506,0.062016264,-0.02820487,10.679999,34.8,-34.559998
1553845094452,1.2905141000000002,2.1069617000000003,9.342461,0.26637268,0.058961935,-0.016598431,10.8,34.38,-33.6
1553845094472,1.4269878,2.892284,9.644139,0.16435818,0.10050077,0.015166562,11.519999499999999,34.739998,-33.6
1553845094493,1.8268316999999998,3.9888617999999996,10.297775999999999,-0.10075733,0.09439212,0.048153285,11.4,34.98,-34.32
1553845094512,2.030345,4.2187123,10.618608,-0.28707123,0.0070383893000000005,0.058537994,10.62,34.44,-34.68
1553845094532,1.8842942999999999,2.8611584,10.180456,-0.26996702,-0.110858604,0.053651072,10.92,34.14,-34.14
1553845094553,1.4198049,1.5969813,9.349642999999999,-0.12946801,-0.16217127,0.016388291,10.74,34.38,-33.6
1553845094572,0.9768641,0.8882760000000001,8.55235,-0.0011863003,-0.12185418,-0.0025485298,10.5,34.38,-34.14
1553845094592,0.84278476,0.6488484999999999,8.075889,0.08189137,-0.010065838,-0.015987566,10.74,34.739998,-34.5
1553845094613,0.9313729,1.0223553,8.3129225,0.1588604,0.09866817,-0.033091795,10.5,35.1,-34.8
1553845094632,1.1516461,1.7837347,8.849239,0.21078393,0.17685893,-0.045309097,10.38,35.46,-34.739998
1553845094653,1.5323358999999999,3.2083282000000004,9.883567,0.13442577,0.16586336,-0.041643906,10.62,35.52,-34.2
1553845094672,1.7957061999999997,4.163644000000001,10.470163000000001,-0.038449082999999995,0.030251267999999998,-0.012322373999999999,10.92,35.28,-34.86
1553845094693,1.6855695,3.7638,10.381575999999999,-0.11236378,-0.08153707,-0.005602856,10.5,34.98,-34.8
1553845094712,1.6305011999999999,2.5714512000000003,9.778217999999999,-0.101368204,-0.103528224,0.0017275269,10.98,34.8,-34.32
1553845094733,1.594587,2.0973847,9.203592,-0.09220523,-0.1285737,-0.011100643,11.219999000000001,34.68,-34.14
1553845094752,1.5562786,1.8819,8.897125,-0.10075733,-0.10413908,-0.013544105,10.5,34.62,-34.02
1553845094772,1.5012103,1.6712039,8.882759,-0.086707436,-0.032056987,-0.022707082000000003,10.559999000000001,34.38,-34.739998
1553845094792,1.4054393,1.6017698,8.985713,-0.01279274,0.063237995,-0.031870063,10.86,35.04,-34.559998
1553845094812,1.2905141000000002,1.6568381999999997,9.126975999999999,0.10449339,0.098057315,-0.022707082000000003,10.92,36.059998,-34.2
1553845094832,1.1396747999999999,1.7406378,9.198803999999999,0.20834048,0.08156395,-0.005602856,10.559999000000001,35.399998,-35.52
1553845094853,1.0127783000000001,1.9154198,9.354432000000001,0.25598797,0.049798958,0.013333966000000001,10.019999499999999,35.1,-37.98
1553845094872,1.0774237,2.169213,9.603436,0.26881614,0.03513819,0.010890506000000001,9.3,35.76,-39.78
1553845094892,1.2282629999999999,2.310475,9.787795,0.31829622,0.027807808,0.0029492574,8.46,35.579997999999996,-39.78
1553845094913,1.3671309,2.2601955,9.6896305,0.40748253,0.03635992,-0.005602856,8.82,34.44,-39.42
1553845094932,1.5012103,2.1835787,9.440625,0.52537954,0.054075014000000005,-0.009878913000000001,9.059999000000001,34.26,-39.3
1553845094953,1.5467016000000002,2.4014575000000002,9.035994,0.5724161,0.05468588,-0.015987566,9.36,34.62,-39.96
1553845094972,1.6017698,2.8252442,8.861211,0.51071876,0.08278568,-0.0153767,9.84,34.2,-40.8
1553845094993,1.7406378,3.9481592000000005,9.153313,0.28286603,0.13593096,0.008447044499999999,9.719999000000001,33.48,-40.92
1553845095012,1.8747171000000002,5.3583870000000005,9.845258,0.022637444,0.108442016,0.036546845,9.719999000000001,32.88,-40.98
1553845095033,2.0518935000000003,5.506832,9.881172,-0.18872193,0.006427524,0.06037059,10.08,32.88,-40.739998
1553845095052,1.8603516,4.0032277,9.27542,-0.28646037,-0.03572218,0.053651072,10.139999000000001,33.3,-41.82
1553845095073,1.3934678999999999,2.5834224,8.954588000000001,-0.3420491,-0.04977208,0.010890506000000001,10.08,33.6,-42.719997
1553845095092,1.0486923000000001,1.9489397000000002,8.909097000000001,-0.32250142,-0.0106767025,-0.00010506882,10.38,33.54,-41.94
1553845095113,0.72785956,1.5059988000000002,9.0838785,-0.20032836,0.08889433,0.014555697,10.139999000000001,33.78,-40.92
1553845095133,0.5770202,1.472479,9.323306,-0.07632273,0.16525249,0.040212035,9.42,33.96,-39.6
1553845095152,0.5889916000000001,1.7023293999999998,9.411894,0.013474465,0.1701394,0.054872803,9.42,34.739998,-40.079997999999996
1553845095172,0.8140534,2.3248408,9.648928,0.03851994,0.108442016,0.050596748,9.84,34.38,-40.92
1553845095193,1.0870007,3.0096035,9.96976,-0.05860763,-0.0045680506,0.034714247999999996,10.38,33.18,-39.3
1553845095212,1.4533247999999999,3.5866237,10.261861999999999,-0.21315654,-0.1322389,0.034714247999999996,10.38,33.18,-39.42
1553845095232,1.6137413,3.7326744,10.022434,-0.30600807,-0.24891415,0.016388291,9.24,34.02,-40.5
1553845095253,1.4772675,2.8396098999999997,9.1628895,-0.22720644,-0.1847733,-0.037367847,9.179999,34.2,-39.3
1553845095272,1.3814965,1.8627458,8.470944,-0.09464868,-0.044885155,-0.07524149,9.96,34.38,-39.3
1553845095292,1.3383996,1.5036045,7.9849067,0.03241129,0.030862134,-0.08806966,9.719999000000001,34.62,-39.96
1553845095313,1.2210802,1.5371244,8.056735,0.13137145,0.0736227,-0.07401976,9.42,34.92,-40.02
1553845095332,1.0870007,1.9058428,8.372779,0.17962979999999998,0.14448306,-0.060580727,9.36,35.219997,-40.32
1553845095353,1.1827718,3.0407290000000002,9.440625,0.09349781,0.22817162,-0.012322373999999999,9.66,34.5,-40.379996999999996
1553845095372,1.446142,4.352792,10.764660000000001,-0.20949134,0.105387695,0.03104906,9.48,34.32,-39.96
1553845095393,1.4868447,4.632921700000001,11.401537,-0.397027,-0.10108476,0.057927128,9.54,34.32,-40.559998
1553845095412,1.1181264,3.0455174,10.297775999999999,-0.33777305,-0.19943407,0.05914886,10.38,34.079997999999996,-40.2
1553845095433,0.89545876,1.4605076000000001,9.215564,-0.25408453,-0.15728436,0.007836179,10.26,34.32,-39.42
1553845095452,0.99362403,0.9601042,8.899519999999999,-0.20032836,-0.16950166,-0.037978712000000005,10.38,35.399998,-38.94
1553845095473,1.2617828000000002,0.86912173,8.715160000000001,-0.079377055,-0.15606263,-0.06791111,10.74,36.12,-38.34
1553845095493,1.4245936000000001,0.9720755999999999,8.521224,0.06600887,-0.08642399,-0.072798036,10.019999499999999,36.12,-38.7
1553845095512,1.3934678999999999,1.2785428,8.439817999999999,0.26881614,0.079120494,-0.055693805,8.82,35.94,-39.239998
1553845095533,1.4581133,2.0973847,8.791777,0.42153245,0.26604527,-0.01904189,8.88,35.88,-39.36
1553845095552,1.6688095,3.3519847,9.481328,0.24560326,0.20007181,0.027383868,9.66,35.219997,-39.3
1553845095572,1.9920366000000003,4.843618,10.388759,-0.18811107,-0.003957185,0.05181848,9.66,34.559998,-39.78
1553845095593,1.9465453999999998,5.4757066,11.449422,-0.5301956,-0.18782762,0.048153285,9.36,34.8,-39.48
1553845095612,1.6233183,3.677606,10.4294615,-0.46422216,-0.2024884,0.030438194,9.599999,35.16,-39.6
1553845095633,1.0965778999999998,1.4820561,9.198803999999999,-0.31272757,-0.11330206,-0.0043811253,9.84,35.399998,-39.6
1553845095652,0.9241901,0.9122186999999999,8.719949,-0.2436998,-0.10902601,-0.0037702604,9.36,35.52,-39.3
1553845095673,1.0295382,0.47406640000000005,8.408693,-0.14535050000000002,-0.061378515999999994,-0.0025485298,9.42,35.579997999999996,-37.32
1553845095693,1.2689656,0.3423813,8.243488000000001,0.01958312,0.020477425,-0.008046316999999999,9.96,35.46,-34.38
1553845095713,1.3048798000000001,0.47167215,8.279403,0.31035498,0.11332894,-0.015987566,10.2,35.76,-33.96
1553845095732,1.2354459,1.1085492000000001,8.545167,0.5950181999999999,0.22633901,-0.017209295,10.62,35.64,-33.96
1553845095752,1.333611,2.030345,9.064724,0.6671003000000001,0.23122594,0.0047818534,10.44,35.16,-33.78
1553845095773,1.5419129999999999,3.7278860000000003,10.024828999999999,0.32196143,0.17930238,0.050596748,10.44,34.2,-34.2
1553845095792,1.9202085,6.0072355,11.533222,-0.3102841,0.051631555,0.062203187,10.32,33.6,-34.62
1553845095813,2.030345,6.4669360000000005,12.153339,-0.55401933,-0.17988639,0.054261937999999996,10.74,34.079997999999996,-34.44
1553845095832,1.620924,3.1436827000000003,10.106233999999999,-0.4232942,-0.25746626,0.03104906,11.519999499999999,34.079997999999996,-34.38
1553845095852,0.8284190999999999,1.1013663999999999,8.899519999999999,-0.3102841,-0.25624454,-0.037978712000000005,11.219999000000001,34.559998,-34.079997999999996
1553845095873,0.65363705,0.24182175,8.020821,-0.16856338,-0.13651493,-0.034313522,10.74,35.52,-34.86
1553845095892,0.8547561,-0.18675344,7.676044999999999,0.009809273,-0.021061412999999998,-0.033702657000000004,9.84,35.579997999999996,-37.559998
1553845095912,1.0534808999999998,-0.007182824399999999,7.450983,0.26759443,0.10050077,-0.05386121,9.179999,35.46,-38.52
1553845095933,1.1731946000000002,0.43575802,7.886741000000001,0.5351534,0.2300042,-0.09234572,9.179999,35.82,-38.579997999999996
1553845095952,1.4437478000000001,1.6137413,8.626572999999999,0.67259806,0.21839777,-0.09845438,9.36,36.059998,-39.18
1553845095972,1.6688095,3.1053743,10.381575999999999,0.59135294,0.11332894,-0.059969865,10.32,35.64,-39.0
1553845095992,1.6352897,5.00164,11.142955,0.13014974,0.12921144,0.0023383922,10.08,35.46,-39.3
1553845096012,2.0279508,6.9673395000000005,12.615434,-0.41290948,0.047355495,0.0848052,9.0,35.04,-39.84
1553845096032,1.9704881999999997,5.1261425,10.795785,-0.35121208,-0.17194512,0.08419433,9.66,34.2,-39.12
1553845096052,1.4389591,2.1572416000000003,9.091061999999999,-0.3005103,-0.27823567,-0.009268047,9.66,34.44,-39.36
1553845096072,1.0391153,1.2091087999999999,8.554744,-0.27974084,-0.3112224,-0.06485678,9.12,34.739998,-40.02
1553845096093,0.87151605,0.5458947,8.169266,-0.13740925,-0.16827993,-0.057526402000000004,9.54,34.26,-38.82
1553845096112,0.86193895,0.37829542,7.975329400000001,0.022637444,-0.006400645999999999,-0.028815735,9.54,34.14,-37.98
1553845096132,0.9217958,0.5794145,7.881953,0.23582943,0.18480018,-0.015987566,9.0,35.04,-38.28
1553845096152,1.211503,1.2546,8.564321000000001,0.42031074,0.3479012,0.0017275269,9.12,35.579997999999996,-38.76
1553845096173,1.594587,3.093403,9.696813,0.29691592,0.28314948,0.013944831999999999,9.24,34.8,-39.12
1553845096192,1.838803,4.9609375,10.764660000000001,-0.11969416,0.06751405,0.038990308,9.96,34.739998,-37.559998
1553845096212,1.8220432,5.7989334999999995,11.602655,-0.40435737,-0.1322389,0.07014443,10.5,35.34,-37.14
1553845096232,1.4581133,3.7949257000000003,10.175668,-0.29379073,-0.14201273,0.038379442,9.9,34.98,-38.82
1553845096252,1.2426286,1.664021,9.189227,-0.16428733,-0.09741957,-0.015987566,9.9,34.98,-39.12
1553845096272,1.1396747999999999,1.1492518999999999,8.796566,-0.16489819,-0.13956927,-0.06424592,9.96,35.52,-39.059998
1553845096293,1.1516461,1.0319325000000001,8.770228,-0.16245472,-0.121243306,-0.05630467,8.82,35.04,-38.82
1553845096312,1.211503,0.89545876,8.705584,-0.07204667,-0.02900266,-0.039200444,8.7,35.219997,-38.82
1553845096333,1.2522057,0.9481328000000001,8.60263,0.15519520000000003,0.12127019,-0.012933239,9.179999,36.12,-38.16
1553845096352,1.2713598999999998,0.9816527,8.662486,0.5015558,0.23855633,0.027994731000000002,9.0,35.94,-38.219997
1553845096372,1.2450229,1.4054393,8.612206,0.7868299,0.25443882,0.063424915,9.0,35.34,-39.42
1553845096392,1.403045,2.2625897,8.6984005,0.7990472,0.20495872,0.115348466,9.66,35.04,-38.879996999999996
1553845096413,1.5921928,3.5171897000000003,9.445414999999999,0.47773206,0.18663277,0.11473759,9.719999000000001,34.62,-39.0
1553845096432,1.8866886000000003,6.205960299999999,11.45421,-0.21498914,0.07667702400000001,0.049985882,9.36,34.32,-40.2
1553845096452,2.0087965,7.407886,12.244322,-0.44162014,-0.21531656,0.029827327999999997,9.66,34.02,-40.62
1553845096472,1.8316202000000001,3.4286015,10.168485,-0.35915333,-0.34420913,0.04509896,9.78,33.719997,-40.379996999999996
1553845096492,1.1492518999999999,1.2546,9.024022,-0.25041932,-0.34176564,-0.0037702604,9.599999,33.239998,-39.899998
1553845096512,0.68715686,0.56744313,7.881953,-0.10381166,-0.16156043,0.015166562,9.66,33.3,-39.6
1553845096532,0.7637736999999999,0.19872479999999998,7.580274,0.053180705999999994,0.0009297369400000001,0.03715771,9.36,34.079997999999996,-39.84
1553845096553,0.84039044,0.4644893,7.80773,0.23338595,0.10783115,-0.0013267993,9.42,33.96,-39.84
1553845096572,1.010384,1.1516461,8.171659,0.3806045,0.25443882,-0.047141694000000005,9.54,34.02,-39.6
1553845096592,1.3551594999999999,3.2107224,9.486116,0.36655456,0.38210964,-0.06363506,9.42,34.2,-39.899998
1553845096613,1.6520496999999998,4.9178405,10.518049000000001,0.03851994,0.21106738,-0.03064833,9.78,34.68,-40.14
1553845096632,1.7119064,5.724711,11.339286,-0.25530624,-0.03938737,0.04387723,10.08,34.62,-40.14
1553845096652,1.4078336,4.73827,10.7479,-0.28340605,-0.19088194,0.048153285,10.5,33.84,-39.899998
1553845096673,1.3934678999999999,2.7151077,9.387952,-0.22598471,-0.21104050000000002,0.018831754,10.139999000000001,33.66,-40.379996999999996
1553845096692,1.1803774999999999,1.7526091000000001,8.803747999999999,-0.27302134,-0.22936645,-0.086237065,9.599999,33.84,-40.68
1553845096713,1.0582695,1.7095122,8.863605499999998,-0.36587286,-0.21531656,-0.13327369,10.08,33.719997,-38.399998
1553845096732,0.9768641,1.6688095,8.945011000000001,-0.34937948,-0.13468234,-0.13083023,10.86,33.48,-35.82
1553845096753,1.0822121999999998,1.5778271000000001,8.76544,-0.21987605,0.014979636999999999,-0.11433687,11.219999000000001,33.96,-35.16
1553845096772,1.1899546,1.5036045,8.5331955,0.017750522,0.18052413,-0.067300245,10.86,34.5,-34.8
1553845096793,1.3551594999999999,2.1141446,8.9186735,0.05195898,0.13043317,-0.045919962,10.26,34.68,-35.04
1553845096812,1.594587,3.2610023,9.8787775,-0.13252233,-0.08092621,-0.037367847,10.32,34.44,-35.04
1553845096832,1.5826156,3.8021083,10.462981,-0.29501247,-0.23975118,-0.014154969,10.62,34.079997999999996,-34.079997999999996
1553845096853,1.5107874,3.0239692000000002,10.070319999999999,-0.19666317,-0.19332542,-0.028815735,10.44,34.559998,-34.02
1553845096872,1.5083932,1.7885233,9.378374,0.0037006216999999997,-0.03327872,-0.03858958,10.26,35.04,-33.84
1553845096892,1.5083932,1.3575538,8.672064,0.091665216,0.010092715,-0.032480925,10.559999000000001,35.16,-33.96
1553845096913,1.4940275,1.3312168,8.470944,0.07028493,0.025975212,-0.011711508999999998,10.92,35.52,-34.02
1553845096932,1.5969813,1.812466,8.870789,-0.03600562,0.026586076,0.007225314,9.84,35.34,-36.12
1553845096953,1.8004947,3.172414,9.873989,-0.23942375,-0.038776506,0.015166562,8.639999000000001,35.46,-39.42
1553845096972,1.838803,3.8284453999999997,10.530021000000001,-0.3890857,-0.13040629,0.075031355,8.82,35.76,-39.719997
1553845096993,1.7023293999999998,3.205934,10.281016000000001,-0.35182294,-0.15484089999999998,0.11046154,8.7,35.76,-38.7
1553845097013,1.5467016000000002,1.9178141,9.490905999999999,-0.20888048,-0.10108476,0.10679635,8.82,35.94,-38.34
1553845097032,1.4078336,0.98404694,9.055147,-0.03478389,-0.06565457,0.067700975,9.059999000000001,36.42,-38.879996999999996
1553845097052,1.2881198,0.74222517,8.58587,0.07395013,-0.051604677,0.037768576,8.88,36.48,-38.879996999999996
1553845097073,1.2593886,0.85236186,8.542772,0.18634933,0.008870985,0.026162136000000003,8.46,35.94,-38.219997
1553845097092,1.2569941999999998,1.3455825000000001,8.470944,0.25720970000000004,0.089505196,0.02432954,8.22,36.059998,-38.219997
1553845097113,1.403045,2.0925963,9.019233,0.20528615,0.11516154,0.028605599,8.7,36.12,-39.059998
1553845097132,1.6759924,3.4645156999999998,10.247497000000001,-0.015847066,0.049798958,0.04754242,9.179999,36.239998,-38.82
1553845097153,1.733455,4.0798445,11.008875999999999,-0.16734165,-0.02900266,0.062203187,8.94,36.6,-38.28
1553845097172,1.6257126,3.2849449999999996,10.735928999999999,-0.14107445,-0.034500446000000004,0.06953357,8.76,36.3,-38.7
1553845097192,1.620924,1.977671,9.783007000000001,-0.029286101000000002,-0.049161214,0.08236174,9.3,35.94,-38.64
1553845097213,1.525153,1.2833313,8.830086,0.012863601,-0.08764572400000001,0.0725879,9.179999,36.239998,-38.28
1553845097232,1.4581133,1.1109436000000001,8.41827,0.031800423,-0.069930635,0.05120761,9.48,35.52,-37.2
1553845097252,1.4293821000000002,1.3216397,8.449396,0.067230605,0.0021514674,0.013944831999999999,10.26,35.04,-35.219997
1553845097272,1.4126221,1.637684,8.758257,0.13503665,0.086450875,-0.02576141,10.26,35.52,-34.2
1553845097292,1.4772675,1.9321798,9.246689,0.22972077,0.1298223,-0.045919962,10.26,35.88,-34.2
1553845097312,1.3671309,2.0423164000000003,9.416683,0.35311553,0.104165964,-0.063024186,10.32,35.34,-34.2
1553845097333,1.1636176,2.152453,8.971347999999999,0.4154238,0.08034222,-0.06424592,10.26,34.62,-34.2
1553845097352,1.2330515,2.5163830000000003,8.990502000000001,0.28225520000000004,0.09500299,-0.033702657000000004,10.44,34.38,-34.26
1553845097372,1.7071179,3.5147953000000003,10.166091,-0.009738414,0.116994135,-0.019652756,10.2,34.62,-34.62
1553845097393,2.0902019,5.030371,11.44224,-0.32066882,0.036970787000000005,-0.015987566,10.74,34.98,-35.1
1553845097413,2.1404817000000005,3.8284453999999997,11.195628999999998,-0.34021652,-0.1230759,0.03715771,11.4,34.8,-34.8
1553845097432,1.786129,2.1979442000000002,9.998491,-0.21254566,-0.1902711,0.061592318,11.04,34.8,-34.5
1553845097452,1.3743136999999999,1.3072741,8.813326,-0.10808772,-0.21042964,0.053040206,10.44,34.8,-34.32
1553845097473,1.0415094999999999,0.6943397,7.764633,-0.039059944,-0.1322389,0.02432954,9.719999000000001,34.92,-33.899998
1553845097493,1.0391153,0.7302538000000001,7.8197017,0.04157427,-0.019839682,-0.023928814,10.139999000000001,35.16,-34.14
1553845097512,1.1564348,1.23784,8.317711,0.15275174,0.084007405,-0.07707409,10.26,35.1,-34.68
1553845097533,1.3671309,2.0662591,8.978531,0.19123626,0.15914384,-0.09723264,9.48,35.52,-36.239998
1553845097552,1.5538843999999998,2.9952377999999995,9.871595,0.12281934,0.16769595,-0.07951755,8.519999499999999,35.76,-38.579997999999996
1553845097573,1.7478206000000003,3.5076127,10.530021000000001,0.030578692999999997,0.07301183,-0.030037466000000002,8.4,36.0,-39.36
1553845097592,1.7190893,3.2011453999999997,10.417489999999999,0.026913501,-0.01861795,-0.0019376645000000001,8.7,35.82,-39.12
1553845097613,1.6855695,2.4708917,9.6585045,0.08066964,-0.03938737,0.009668776,8.34,34.92,-38.879996999999996
1553845097632,1.6831752,2.0279508,9.110215,0.10082819,-0.047939483,0.013944831999999999,8.34,34.559998,-39.719997
1553845097653,1.6017698,2.0758362,9.002473,0.06478715,-0.043663427000000005,0.0060035832999999995,9.66,34.5,-39.6
1553845097673,1.5371244,2.3870918999999997,9.1628895,-0.020733988000000002,0.0021514674,0.0011166617,9.3,34.559998,-39.18
1553845097692,1.5921928,2.8084843,9.490905999999999,-0.1135855,0.048577222999999996,0.007836179,8.76,35.219997,-39.66
1553845097713,1.6712039,3.100586,9.80695,-0.19849578,0.046133768,0.034103386,9.0,35.28,-39.78
1553845097732,1.5730386,2.918621,9.821315,-0.19177626,-0.00029199357999999995,0.05120761,8.28,34.62,-39.719997
1553845097752,1.3958621999999998,2.4421604,9.469357,-0.124581076,-0.039998233,0.05242934,8.22,34.68,-39.48
1553845097772,1.2067145000000001,1.6089526,8.9186735,-0.00057543506,-0.050993808,0.048153285,9.12,35.34,-39.059998
1553845097793,1.1300976999999999,1.2426286,8.595447,0.10999117,-0.026559198,0.03349252,8.94,35.52,-38.399998
1553845097812,1.1205206,1.2210802,8.492493,0.21078393,0.033305597,0.015777428,7.98,35.76,-39.3
1553845097832,1.2210802,1.5658557,8.760652,0.27431393,0.10722029,-0.017209295,9.0,36.0,-39.6
1553845097852,1.3216397,2.3392065,9.057542,0.23460768,0.17869152,-0.026983137999999997,9.719999000000001,34.98,-38.399998
1553845097872,1.6568381999999997,3.502824,10.1541195,0.017139658000000002,0.18541104,-0.0049919905,9.3,35.399998,-38.82
1553845097892,2.0159793,4.6688356,11.181263000000001,-0.24614327,0.038192517999999995,0.015777428,9.24,35.1,-39.96
1553845097913,1.9585168000000002,3.9840732000000005,11.008875999999999,-0.34082738,-0.13529322,0.029216462999999998,10.139999000000001,34.62,-40.14
1553845097932,1.7454262999999999,2.3870918999999997,9.900327,-0.19299799,-0.17377773,0.048153285,10.08,34.92,-40.14
1553845097952,1.4293821000000002,1.333611,8.93304,-0.07876619,-0.16217127,0.03104906,9.42,34.86,-40.02
1553845097972,1.211503,0.88109314,8.209969000000001,-0.020733988000000002,-0.13040629,0.0047818534,9.179999,36.0,-39.54
1553845097992,1.1803774999999999,0.90503585,8.095042999999999,0.030578692999999997,-0.032056987,-0.041643906,9.12,36.0,-39.42
1553845098012,1.1708003,1.2929084,8.265037,0.09533041,0.05835107,-0.07524149,8.88,35.52,-39.66
1553845098032,1.3288225,2.0614705,8.74868,0.15030827,0.16952854,-0.08440447599999999,8.639999000000001,35.46,-40.02
1553845098053,1.5969813,3.241848,9.864412,0.034243885,0.16952854,-0.059359,8.76,35.46,-39.84
1553845098072,1.9226026999999999,4.3791285,10.814939500000001,-0.23270422,0.0015406022,-0.009268047,9.179999,35.76,-39.059998
1553845098093,1.7909175,4.041536,10.829305,-0.31578190000000006,-0.116356395,0.016999159,8.82,35.7,-38.46
1553845098112,1.6951466,2.2338583,9.72315,-0.16734165,-0.09314351,0.038990308,8.639999000000001,35.34,-38.219997
1553845098132,1.6185298000000001,1.2186858999999999,8.861211,-0.04455773,-0.07115236,0.012112236,8.7,35.52,-38.579997999999996
1553845098152,1.4078336,0.9888355,8.492493,0.011031005,-0.051604677,-0.0049919905,8.46,36.12,-39.54
1553845098173,1.3695252,0.9529214,8.408693,0.07761532,0.00031887164,-0.020263622,9.0,36.059998,-38.579997999999996
1553845098192,1.3120626,1.1875603000000001,8.583475,0.16252560000000002,0.07728789999999999,-0.03981131,9.0,35.28,-37.86
1553845098212,1.403045,1.9872481,9.12937,0.19429058,0.12493538,-0.034924388,9.3,35.34,-38.46
1553845098233,1.5323358999999999,3.0694604,9.845258,0.054402437000000005,0.06812491,-0.014765833999999999,8.94,35.88,-38.76
1553845098252,1.6041641000000002,4.010410299999999,10.534809,-0.15451348,-0.03694391,0.015166562,8.639999000000001,35.88,-38.399998
1553845098272,1.5730386,3.5195839999999996,10.45101,-0.16673079,-0.036333042999999995,0.03227079,8.46,36.3,-38.04
1553845098292,1.5921928,2.2889266,9.785401,-0.07082493599999999,-0.019839682,0.046931557,7.98,36.12,-38.7
1553845098312,1.5467016000000002,1.7406378,9.136553,-0.017679663,-0.06565457,0.03715771,8.519999499999999,35.46,-38.94
1553845098332,1.5012103,1.6592325,8.810931,-0.081209645,-0.08825659,0.03715771,8.16,35.579997999999996,-38.76
1553845098352,1.472479,1.8962656000000002,8.964165,-0.16550905,-0.056491595,0.022496943999999998,7.98,35.94,-38.76
1553845098372,1.5754328000000002,2.3296294,9.421472,-0.20765875,0.013757907,0.010279640999999999,8.639999000000001,35.94,-38.52
1553845098392,1.5897985000000001,2.3727264,9.613013,-0.15207002,0.03635992,0.010279640999999999,9.0,35.64,-38.64
1553845098412,1.3814965,1.7957061999999997,9.311335,-0.018290527,0.033916462,0.004170988,8.82,35.76,-38.879996999999996
1553845098433,1.3192455,1.3862851,8.913885,0.07944792,-0.0057897805,-0.0068245865,8.94,36.0,-38.219997
1553845098452,1.3096683,1.4245936000000001,8.877971,0.10876945,-0.020450545,-0.026372273999999998,9.24,35.88,-38.219997
1553845098472,1.376708,1.8220432,9.179649000000001,0.11671069,0.016201368,-0.03064833,9.12,36.3,-38.16
1553845098493,1.5706443,2.6863763,9.718361999999999,0.018361388,0.07301183,-0.026372273999999998,8.58,36.84,-37.98
1553845098512,1.8076775,3.258608,10.319324499999999,-0.08915089,0.10294423,-0.0043811253,8.28,36.54,-38.64
1553845098532,1.8842942999999999,2.9042554,10.297775999999999,-0.117250696,0.046133768,0.020053484,8.88,36.12,-39.239998
1553845098552,1.7286664,2.1021732999999996,9.668080999999999,-0.04639033,-0.03572218,0.035325114,9.3,36.239998,-39.12
1553845098572,1.498816,1.5083932,8.961771,0.02813523,-0.08153707,0.03715771,9.24,36.239998,-39.12
1553845098592,1.3527653,1.2593886,8.56911,0.078837045,-0.07420669,0.03104906,9.42,35.76,-37.739998
1553845098612,1.3455825000000001,1.3910737,8.684034,0.11609982,-0.01861795,0.0035601228000000005,9.96,35.88,-36.899998
1553845098633,1.4102278999999998,1.7957061999999997,9.124581,0.16496904,0.06690318,-0.029426599999999997,9.78,36.3,-38.64
1553845098652,1.4365649,2.0878077,9.356826,0.22239038,0.12493538,-0.04286563400000001,8.7,36.239998,-38.94
1553845098673,1.4605076000000001,2.2961093999999997,9.466963,0.27248132,0.13409835,-0.026372273999999998,8.639999000000001,36.0,-38.219997
1553845098692,1.4772675,2.6073654,9.605830000000001,0.20895134,0.093781255,-0.0062137214,8.94,35.7,-38.28
1553845098712,1.647261,3.4908525999999998,10.070319999999999,-0.0024080307,0.00826012,0.015777428,8.88,35.579997999999996,-38.579997999999996
1553845098733,1.7430321,3.5411325,10.328901,-0.09159436,-0.044274293,0.035935983,8.88,34.92,-38.879996999999996
1553845098752,1.6831752,2.4421604,9.8237095,-0.04089254,-0.050382942,0.038990308,8.82,34.5,-38.82
1553845098773,1.4700848,1.9728824,9.273026,-0.007294953000000001,-0.07115236,0.028605599,8.76,35.219997,-39.42
1553845098792,1.3288225,1.8819,8.820508,-0.037227347,-0.056491595,0.023718676,9.3,35.88,-39.0
1553845098812,1.3000913,1.9585168000000002,8.755863,-0.09953561,0.013757907,0.016999159,9.599999,35.88,-38.219997
1553845098832,1.376708,2.2338583,9.220352,-0.117250696,0.069346644,0.0023383922,8.76,35.64,-38.52
1553845098852,1.4748733,2.264984,9.627379,-0.05860763,0.061405394,-0.012322373999999999,8.76,35.28,-38.7
1553845098872,1.3958621999999998,1.8268316999999998,9.349642999999999,0.07333925,0.020477425,-0.015987566,9.059999000000001,35.579997999999996,-38.7
1553845098892,1.2617828000000002,1.7621863000000002,9.016839,0.15458433,0.0027623328000000004,-0.014765833999999999,9.36,35.82,-38.219997
1553845098912,1.2186858999999999,2.19555,9.000079,0.11793242,0.02231002,-0.0068245865,9.48,35.34,-38.64
1553845098932,1.5467016000000002,3.258608,9.744699,-0.111752905,0.05957280000000001,0.0066144490000000005,8.519999499999999,35.219997,-39.12
1553845098953,1.8196488999999998,3.7925312999999994,10.553964,-0.31944707,0.04002511,0.012112236,8.639999000000001,34.98,-39.0
1553845098972,1.9034485,3.3807160000000005,10.680860000000001,-0.38053364,-0.052826405,0.015166562,9.3,35.52,-39.48
1553845098992,1.6137413,2.1069617000000003,9.735122,-0.27790827,-0.13773668,0.01944262,8.82,36.059998,-38.879996999999996
1553845099013,1.2833313,1.1995316999999999,8.815719999999999,-0.17467202,-0.12429764,0.012112236,8.82,36.42,-37.62
1553845099032,1.132492,0.7901106999999999,8.382356,-0.094037816,-0.068708904,-0.0049919905,9.24,36.6,-37.86
1553845099052,1.2569941999999998,0.74222517,8.241094,-0.00057543506,0.018033965,-0.022707082000000003,8.88,36.54,-38.94
1553845099072,1.3695252,1.1013663999999999,8.514041,0.08250224,0.069346644,-0.04286563400000001,8.639999000000001,36.42,-38.46
1553845099093,1.515576,2.2003386000000003,9.411894,0.05623503,0.099889904,-0.061802458,8.58,36.36,-37.92
1553845099112,1.7143008000000002,3.275368,10.261861999999999,-0.09709214,0.051020685999999996,-0.04103304,8.46,36.0,-37.739998
1553845099133,1.7478206000000003,3.5794407999999995,10.700014,-0.21193482,-0.025948334,-0.0043811253,8.88,35.76,-37.92
1553845099152,1.5802213999999999,2.6217308,10.163696,-0.14657223,-0.042441695999999994,0.013944831999999999,9.42,36.12,-38.76
1553845099172,1.5012103,1.4796618000000001,9.419077,-0.02439918,-0.034500446000000004,0.02432954,9.54,36.42,-37.62
1553845099192,1.4437478000000001,0.9026415999999999,8.7822,0.0849457,-0.03938737,0.018831754,9.96,36.48,-36.6
1553845099212,1.4844503,0.6656084,8.447001,0.17596461,-0.022283142000000002,0.0047818534,9.179999,36.66,-36.84
1553845099233,1.4150163999999998,0.9768641,8.545167,0.28714209999999996,0.018644828000000002,-0.031870063,8.7,36.84,-37.38
1553845099252,1.3647367,1.5562786,8.942616000000001,0.36655456,0.09622472,-0.04836342,9.42,36.239998,-38.04
1553845099272,1.4126221,2.1931557999999995,9.284998,0.38243708,0.1615873,-0.037367847,8.82,36.12,-37.86
1553845099292,1.5514901,2.944958,9.720756,0.24926844,0.09866817,-0.033091795,8.639999000000001,36.48,-37.739998
1553845099312,1.5874043,3.955342,10.419884,0.043406863,0.021699157,-0.01904189,9.36,36.059998,-37.38
1553845099332,1.6137413,3.7446458,10.503684,-0.03478389,-0.01617449,-0.0062137214,9.3,35.7,-37.739998
1553845099352,1.733455,2.5235654999999997,10.010463,0.027524367,-0.049161214,0.021275215,9.12,35.94,-39.12
1553845099372,1.5850098999999997,1.7478206000000003,9.249083500000001,0.11426724,-0.11879985,0.010279640999999999,9.48,36.36,-39.059998
1553845099393,1.4126221,1.3288225,8.681641,0.17718635,-0.10719341,0.0011166617,9.24,36.0,-39.239998
1553845099412,1.3168511,1.0822121999999998,8.461367999999998,0.28225520000000004,-0.00029199357999999995,-0.034924388,8.639999000000001,35.219997,-39.18
1553845099433,1.3288225,1.3527653,8.564321000000001,0.40259559999999994,0.108442016,-0.07463063,8.34,35.34,-38.94
1553845099452,1.3431882,1.9848539,8.775017,0.48506245,0.12493538,-0.09540005,8.099999,35.28,-39.36
1553845099473,1.1923488000000002,2.9138324,9.047964,0.45635180000000003,0.12249192,-0.07218716,8.58,35.1,-39.66
1553845099492,1.1468576000000001,3.9409763999999994,9.785401,0.22177951,0.20007181,-0.010489778,9.0,34.92,-39.84
1553845099512,1.6712039,5.7295,10.951413,-0.25652800000000003,0.098057315,0.038379442,8.46,34.5,-40.32
1553845099532,1.9992193999999999,5.514014700000001,11.320131,-0.47155255,-0.12918456,0.0408229,8.76,34.14,-39.66
1553845099552,1.7813405,3.1939626,10.122993,-0.40557909999999997,-0.25868800000000003,0.053651072,9.3,34.079997999999996,-39.48
1553845099572,1.3383996,1.515576,8.971347999999999,-0.27302134,-0.24463809,0.03349252,9.12,34.14,-40.68
1553845099592,1.0558752,0.84039044,8.245882,-0.17772634,-0.16766907,0.023107812000000002,9.0,34.98,-40.62
1553845099612,0.9888355,0.6943397,7.927444,-0.06471629,-0.03694391,0.009668776,8.34,35.16,-40.02
1553845099633,1.0606636999999999,1.0271438,8.049552,0.05134811,0.08278568,-0.0007159340299999999,7.74,34.559998,-39.3
1553845099652,1.2234744,1.6759924,8.490098,0.13137145,0.20984566,-0.028815735,8.22,35.04,-39.36
1553845099673,1.4916332,3.0263633999999997,9.553157,-0.006684086999999999,0.21167825,-0.034924388,8.7,35.219997,-39.899998
1553845099693,1.9393626,4.7286925,10.960989999999999,-0.38053364,-0.0070115114,0.007836179,8.58,35.16,-39.719997
1553845099712,1.7143008000000002,4.5970078,11.27464,-0.49659804,-0.21470569,0.034103386,8.28,35.1,-39.66
1553845099733,1.4700848,2.3823035,9.816526,-0.29928854,-0.15300829999999999,0.036546845,9.0,35.7,-39.239998
1553845099752,1.350371,0.98404694,8.760652,-0.12397022,-0.05832419,-0.00010506882,9.059999000000001,36.059998,-38.52
1553845099772,1.3431882,0.6344828,8.3129225,-0.020733988000000002,-0.043663427000000005,-0.023317947999999998,8.099999,35.04,-37.86
1553845099792,1.4605076000000001,0.57462597,8.281796,0.059900224,-0.046106886,-0.028815735,8.28,35.16,-37.02
1553845099812,1.4581133,0.7709564999999999,8.38475,0.18207327,0.024753481,-0.05263948,8.639999000000001,36.0,-37.44
1553845099832,1.4772675,1.5227587,8.791777,0.29508334,0.15670037,-0.058137268,9.12,35.82,-37.92
1553845099852,1.5706443,2.7677817000000005,9.574705,0.19673404,0.171972,-0.02576141,8.82,35.34,-38.64
1553845099872,1.9106313000000001,4.68799,10.714379,-0.19360885,-0.013120163999999998,0.02188608,7.98,35.04,-39.899998
1553845099893,1.7789462,5.106987999999999,11.30816,-0.42146158,-0.13895841,0.034103386,8.28,34.68,-39.48
1553845099912,1.6783867,3.007209,10.348056,-0.29195815,-0.076039284,0.042044632,8.519999499999999,35.1,-39.059998
1553845099933,1.5227587,1.2665714,9.287392,-0.12091588,-0.03694391,0.020053484,8.519999499999999,35.88,-38.7
1553845099952,1.3862851,0.7589851,8.521224,-0.02195572,-0.05832419,0.036546845,9.48,35.04,-34.02
1553845099973,1.376708,0.44772938,8.2027855,0.057456765,-0.047328617,0.044488095,10.74,34.62,-28.74
1553845099992,1.4150163999999998,0.54350036,8.111803,0.17596461,0.02108829,0.017610023,10.98,34.98,-28.98
1553845100013,1.4150163999999998,1.1037607,8.46855,0.33662218,0.12004846,-0.015987566,10.8,35.04,-30.42
1553845100033,1.4245936000000001,2.3272352,9.306546,0.35189380000000003,0.17502634,-0.009268047,10.62,35.46,-29.88
1553845100053,1.5227587,3.8212626000000003,10.017646000000001,0.09227608,0.09622472,0.02188608,10.5,34.68,-30.42
1553845100072,1.5993756000000001,4.9106574,11.008875999999999,-0.2577497,-0.022283142000000002,0.05548367,10.5,33.54,-31.439999
1553845100093,1.5850098999999997,3.6608462,10.716774000000001,-0.24980846,-0.025337468999999998,0.034714247999999996,10.5,34.14,-32.219997
1553845100112,1.5730386,1.8819,9.747093,-0.11847243,-0.03572218,0.02188608,10.44,34.2,-31.14
1553845100133,1.4629020000000001,1.2402343999999998,8.980925,-0.015847066,-0.08520226,0.014555697,10.62,34.44,-28.98
1553845100153,1.3479767,0.7805335999999999,8.4230585,0.06539801,-0.09070005,0.03349252,11.04,34.98,-28.92
1553845100172,1.3288225,0.7015225,8.2387,0.15214087,-0.033889584,0.013944831999999999,11.16,34.739998,-29.519999
1553845100192,1.3527653,1.0798178999999999,8.46855,0.2767574,0.08522914,-0.026983137999999997,11.099999,34.62,-29.64
1553845100213,1.3862851,1.9633054,8.954588000000001,0.38365883,0.18052413,-0.040422175,11.16,34.44,-30.24
1553845100232,1.3791022,2.9521408,9.371192,0.31890708,0.20434786,-0.026372273999999998,10.92,33.84,-31.679997999999998
1553845100252,1.5802213999999999,4.199558000000001,10.230737,-0.007905818,0.099889904,-0.005602856,10.98,33.66,-33.78
1553845100272,1.7166951000000001,5.071073999999999,11.229149000000001,-0.33471873,-0.049161214,-0.017820163,10.2,34.38,-34.92
1553845100292,1.7478206000000003,3.5578922999999993,10.587483,-0.32494488,-0.11146947,-0.012322373999999999,9.96,34.5,-34.739998
1553845100312,1.6017698,1.8699286,9.598647999999999,-0.1893328,-0.09803043,-0.005602856,10.26,34.62,-34.92
1553845100332,1.3575538,1.1061549,8.794171,-0.05616417,-0.104749955,0.020053484,10.139999000000001,34.92,-34.86
1553845100352,1.2689656,0.62251145,8.236305,0.062343687,-0.07420669,0.038379442,10.62,35.219997,-34.26
1553845100372,1.2474172,0.5506831999999999,7.9920893,0.17657548,0.0033731977000000003,0.016999159,10.559999000000001,34.86,-34.44
1553845100392,1.2785428,1.1540405,8.241094,0.29874852,0.11027461,-0.025150542999999997,10.5,34.92,-34.86
1553845100412,1.324034,2.2338583,8.976136,0.3170745,0.19640662,-0.042254772,10.019999499999999,34.62,-34.559998
1553845100432,1.5874043,3.955342,10.072714,0.036687344,0.15425691,-0.026372273999999998,9.42,34.5,-35.82
1553845100452,1.8172544999999998,5.1524790000000005,11.190841,-0.31700364,-0.017396221,-0.008657183,8.7,35.1,-38.34
1553845100472,1.7071179,4.309695,11.01127,-0.38114446,-0.116356395,-0.022096219,8.76,35.219997,-39.12
1553845100492,1.5634614,2.1237217999999998,9.7135725,-0.24614327,-0.11146947,-0.014154969,8.7,35.76,-38.76
1553845100513,1.4102278999999998,1.1444633,8.897125,-0.12580281,-0.113912925,-0.0153767,8.4,35.94,-38.82
1553845100532,1.3168511,0.7805335999999999,8.526012,-0.032951295,-0.100473896,0.007836179,9.179999,36.3,-38.82
1553845100552,1.3096683,0.66800267,8.332075999999999,0.058678493,-0.057102464000000006,0.0035601228000000005,8.7,36.36,-39.239998
1553845100572,1.2857256000000001,0.9289786,8.281796,0.1814624,0.049798958,-0.017820163,8.4,35.94,-39.059998
1553845100592,1.4341706,1.8771113999999998,8.822903,0.25110105,0.15425691,-0.026983137999999997,8.639999000000001,35.94,-39.059998
1553845100613,1.5802213999999999,3.397476,9.720756,0.07028493,0.09622472,-0.012322373999999999,8.58,35.64,-39.18
1553845100632,1.7430321,4.537151000000001,10.589877,-0.20888048,-0.047328617,0.013333966000000001,8.519999499999999,35.34,-39.0
1553845100652,1.5706443,4.264203500000001,10.862824,-0.31517106,-0.12002158,0.0029492574,8.639999000000001,35.82,-39.059998
1553845100672,1.5514901,2.7270790000000003,10.125388000000001,-0.23026077,-0.077261016,-0.0019376645000000001,8.76,35.7,-39.6
1553845100692,1.4437478000000001,1.4245936000000001,9.122187,-0.094037816,-0.064432845,-0.01904189,8.82,36.18,-39.66
1553845100712,1.4293821000000002,1.0558752,8.688824,-0.009738414,-0.07176323,-0.005602856,8.88,35.7,-40.2
1553845100732,1.3814965,0.84278476,8.492493,0.080058776,-0.03938737,-0.0025485298,8.519999499999999,35.82,-39.42
1553845100752,1.4245936000000001,0.9720755999999999,8.497281,0.16802338,0.03574906,-0.021485351,8.04,36.3,-38.46
1553845100772,1.56825,1.7741576000000001,9.009656,0.25110105,0.09072693,-0.045309097,7.8599997,35.579997999999996,-37.98
1553845100792,1.5658557,2.5331428,9.395133999999999,0.2620966,0.05468588,-0.04103304,7.9199996,35.399998,-38.46
1553845100813,1.4676905,3.1915683999999995,9.720756,0.16374731,-0.020450545,-0.028815735,8.82,35.76,-39.66
1553845100832,1.5131816999999999,3.816474,10.233130000000001,-0.02684264,-0.054659000000000006,-0.03553525,9.42,35.76,-40.02
1553845100853,1.5969813,3.3950818,10.245102000000001,-0.08548570400000001,-0.03938737,-0.04408737,8.639999000000001,35.399998,-39.36
1553845100872,1.733455,2.2530127,9.675264,-0.01279274,-0.021672277,-0.014154969,7.98,35.7,-39.54
1553845100893,1.7382435,1.8890828000000002,9.277814999999999,0.058678493,-0.05343727,0.0060035832999999995,8.4,35.94,-39.059998
1553845100912,1.6520496999999998,1.7262721,8.856422,0.06784147,-0.07848274,0.02188608,8.519999499999999,35.04,-38.7
1553845100933,1.5443072,1.8268316999999998,8.746285,0.05562417,-0.04549602,0.026162136000000003,8.46,35.219997,-39.42
1553845100952,1.5083932,2.2218869999999997,9.026416000000001,0.044628594,0.0070383893000000005,0.018831754,8.58,35.7,-39.48
1553845100973,1.5371244,2.8611584,9.57231,0.028746097999999998,0.028418673,0.02432954,8.519999499999999,35.16,-39.42
1553845100992,1.4605076000000001,2.8946784,9.75667,0.0030897565,-0.0027354546,0.024940407,8.46,34.739998,-38.7
1553845101012,1.4365649,2.5115943,9.615408,-0.008516683,-0.021061412999999998,0.016999159,8.46,34.92,-39.0
1553845101033,1.3647367,2.4110348,9.340066,-0.02439918,-0.019839682,0.021275215,8.22,35.399998,-39.54
1553845101052,1.4341706,2.5834224,9.316123,-0.07143581,-0.0015137241,0.036546845,8.34,35.219997,-39.42
1553845101072,1.6807808999999998,2.9569294,9.598647999999999,-0.20216097,-0.01617449,0.059759725,8.639999000000001,34.86,-39.899998
1553845101093,1.9154198,3.1652312,10.034406,-0.34388173,-0.07054149,0.06586838,7.98,34.559998,-39.84
1553845101112,1.9154198,2.796513,9.933846,-0.33777305,-0.08153707,0.0725879,8.099999,34.68,-38.879996999999996
1553845101134,1.6783867,1.637684,9.138947,-0.15207002,-0.038776506,0.05548367,8.76,35.219997,-38.879996999999996
1553845101152,1.4413534,0.7853220999999999,8.509253,0.015307061,-0.0015137241,0.023107812000000002,9.0,36.18,-39.239998
1553845101173,1.3192455,0.5794145,8.157294,0.15641694,0.016812233,-0.01904189,8.94,36.42,-38.76
1553845101192,1.3407938,0.84996754,8.296163,0.24193807,0.04002511,-0.05630467,9.3,36.3,-37.8
1553845101212,1.3527653,1.5921928,8.815719999999999,0.24438153,0.061405394,-0.059359,8.88,36.059998,-37.98
1553845101233,1.4269878,3.232271,9.778217999999999,0.07028493,0.084007405,-0.031259197999999995,8.4,35.399998,-39.18
1553845101252,1.6161355,4.810098,10.951413,-0.1734503,0.08767260000000002,0.048153285,9.12,35.7,-39.239998
1553845101272,1.376708,4.2546263,11.140561,-0.18322414,0.018644828000000002,0.13611788,8.88,36.12,-38.82
1553845101292,1.3479767,2.597788,10.292988000000001,-0.028675236,-0.04671775,0.2234716,8.16,35.82,-39.3
1553845101312,1.2522057,1.4174107,9.26345,0.11121291,-0.14506707,0.23385632,7.98,35.52,-39.3
1553845101332,1.2713598999999998,1.0223553,8.669669,0.15214087,-0.22997732,0.2075891,8.519999499999999,35.579997999999996,-38.64
1553845101353,1.4054393,1.0774237,8.46855,0.16435818,-0.15911695,0.14161566,8.76,34.98,-38.94
1553845101372,1.6568381999999997,1.4916332,8.542772,0.18573846,0.0070383893000000005,0.06709011,8.88,35.1,-39.059998
1553845101392,1.9106313000000001,2.0255566000000003,8.894731,0.21200567,0.13043317,0.008447044499999999,8.76,35.28,-39.3
1553845101412,2.0686533,2.3392065,9.100638,0.2938616,0.14265047,-0.02820487,9.3,35.579997999999996,-39.239998
1553845101432,2.1141446,2.4158232,8.973742,0.34761778,0.054075014000000005,-0.050196017999999995,10.019999499999999,35.28,-39.42
1553845101452,2.0758362,2.5929997000000005,8.954588000000001,0.19490144,-0.03572218,-0.027594006,9.42,34.079997999999996,-40.02
1553845101472,2.2458298,3.4621215,9.617802000000001,-0.035394754,0.03635992,-0.034924388,9.179999,34.079997999999996,-39.54
1553845101493,2.264984,4.3911,10.376787,-0.22354124,0.10783115,-0.026983137999999997,9.3,34.32,-39.36
1553845101512,2.264984,3.4286015,10.2642565,-0.23209336,0.1157724,-0.033091795,8.82,34.079997999999996,-39.12
1553845101533,1.7957061999999997,2.300898,9.761458,-0.1398527,0.112718076,-0.07463063,8.519999499999999,34.32,-39.12
1553845101553,1.2761483999999998,1.9226026999999999,9.234717999999999,-0.022566582999999998,0.08034222,-0.10822822,9.0,34.92,-39.6
1553845101572,0.9385556999999999,1.3910737,8.638542999999999,0.06906319999999999,0.044912033,-0.1155586,9.42,34.98,-39.6
1553845101593,0.81165916,1.1827718,8.48531,0.14114529,0.024142615,-0.10883908,9.179999,34.8,-40.32
1553845101612,0.7901106999999999,1.7430321,8.786988000000001,0.19551231,0.027196944,-0.09417831,8.16,34.68,-39.78
1553845101633,0.8786988000000001,2.5235654999999997,9.25866,0.19490144,0.026586076,-0.05874813,8.16,34.44,-39.6
1553845101652,1.201926,3.2083282000000004,9.850046,0.15091914,0.027196944,-0.01904189,7.8599997,34.32,-39.899998
1553845101673,1.6520496999999998,3.1987512000000002,10.055954,0.10327166,-0.018007086999999998,0.0011166617,8.519999499999999,34.44,-40.079997999999996
1553845101692,1.8819,2.657645,9.624985,0.10693685,-0.04121997,-0.003159395,8.82,34.079997999999996,-39.899998
1553845101713,1.9824595,2.1740015,9.213169,0.1429779,0.009481851,-0.02576141,9.059999000000001,33.6,-40.379996999999996
1553845101732,2.0183737,2.1309047000000003,9.186832,0.15458433,0.039414246,-0.03553525,8.639999000000001,33.3,-40.2
1553845101753,2.0279508,2.2937152000000003,9.335278,0.16863424,0.016812233,-0.030037466000000002,8.46,33.719997,-41.46
1553845101772,1.9992193999999999,2.4684972999999997,9.282603,0.20711875,0.0027623328000000004,-0.03981131,8.639999000000001,33.36,-40.86
1553845101793,1.977671,2.5499027,9.160496,0.26026404,0.03758165,-0.050806884000000004,8.7,33.059998,-40.559998
1553845101812,1.9441511999999999,2.6456738,9.079089999999999,0.30668979999999996,0.09561385,-0.045919962,8.639999000000001,33.18,-40.62
1553845101833,1.9106313000000001,2.9090437999999996,9.040782,0.30913323,0.18235672,-0.030037466000000002,8.639999000000001,33.12,-40.739998
1553845101852,1.6688095,3.7278860000000003,9.890749000000001,0.29997027,0.41815070000000004,-0.037978712000000005,8.16,32.88,-41.64
1553845101873,2.013585,3.78056,9.466963,0.18390587,-0.07787188,0.07319876,8.94,33.239998,-42.12
1553845101893,1.0079896000000002,4.336032,8.171659,0.13137145,-0.27823567,0.11657019,9.42,32.82,-41.879996999999996
1553845101912,0.43815228,3.632115,8.540379,0.022637444,0.32957524,0.20209132,9.24,32.28,-41.82
1553845101934,1.132492,3.2969165,9.677659,-0.23209336,0.4236485,0.17399153,9.96,32.28,-40.02
1553845101952,1.4198049,3.581835,9.761458,-0.31639275,0.19885008,0.1501678,10.44,32.34,-39.66
1553845101973,1.3168511,3.3998702000000005,9.622589999999999,-0.36648372,0.069346644,0.11046154,10.26,32.76,-40.92
1553845101992,1.1947431999999998,2.9377751,9.507666,-0.30661893,0.052853283,0.08175088,10.679999,32.7,-41.579997999999996
1553845102012,0.92658436,2.2410412,9.227535000000001,-0.17467202,0.044912033,0.06525751,10.62,33.239998,-40.86
1553845102032,0.6153286,1.9441511999999999,8.863605499999998,-0.07082493599999999,0.033305597,0.04509896,10.26,32.94,-40.2
1553845102052,0.51716334,1.8316202000000001,8.511647,-0.05799677,-0.015563624,0.046931557,10.559999000000001,32.88,-40.86
1553845102073,0.7541966,2.2889266,8.846846000000001,-0.117250696,0.010092715,0.016388291,10.2,33.36,-40.079997999999996
1553845102093,0.9672870000000001,2.4589202,9.284998,-0.11847243,0.00826012,-0.033702657000000004,10.139999000000001,33.78,-39.6
1553845102113,0.9792584000000001,2.343995,9.397528999999999,-0.04455773,-0.032056987,-0.100286976,9.84,34.44,-39.78
1553845102133,0.95531565,1.9968252,9.131764,0.03729821,-0.057713325999999995,-0.12960851,9.96,34.26,-39.66
1553845102152,0.90503585,2.1620302000000002,8.92825,0.080058776,-0.050993808,-0.13877149,10.26,34.2,-39.96
1553845102172,1.1061549,2.6217308,9.038387,0.036076482,-0.050382942,-0.12655418,10.679999,34.26,-40.559998
1553845102192,1.3647367,3.0981915,9.234717999999999,-0.033562157,-0.06382198,-0.09173486,10.8,33.6,-39.78
1553845102212,1.5850098999999997,3.7781656000000003,9.725544000000001,-0.124581076,-0.096197836,-0.06668938,10.679999,33.059998,-39.899998
1553845102233,1.7789462,3.9026680000000002,10.223554,-0.1716177,-0.091921784,-0.037367847,10.2,33.18,-40.26
1553845102252,1.8364087,3.4166303,9.900327,-0.16795251,-0.09314351,-0.0043811253,9.66,33.42,-39.719997
1553845102272,1.7166951000000001,2.5522968999999995,9.502875999999999,-0.09464868,-0.10597168,0.023718676,9.48,34.14,-40.32
1553845102292,1.376708,2.0997790000000003,8.942616000000001,-0.037227347,-0.13284975,0.042044632,9.36,34.02,-40.32
1553845102312,1.3168511,1.9513340000000001,8.760652,0.012863601,-0.01617449,0.049375015999999994,9.3,33.96,-39.48
1553845102332,1.4198049,2.185973,8.526012,-0.026231775,0.0039840629999999995,0.053040206,9.78,34.68,-39.54
1553845102353,1.5490957,2.9377751,8.992896,-0.10747685,0.0021514674,0.05120761,10.26,35.219997,-39.54
1553845102372,1.6352897,3.5794407999999995,9.938635000000001,-0.25469539999999996,0.01986656,0.06464665,9.719999000000001,34.44,-39.42
1553845102392,1.8076775,3.5842294999999997,10.61382,-0.30112112,-0.009454971999999999,0.059759725,9.48,33.36,-39.48
1553845102412,1.637684,2.7653873,10.08708,-0.20582616,-0.06260025,0.05609453,10.26,33.36,-39.059998
1553845102433,1.3910737,1.6951466,9.184438,-0.07815532,-0.05221554,0.05181848,10.44,34.38,-39.0
1553845102453,1.1277034,1.3264283000000001,8.542772,-0.0017971654999999998,-0.024726603,0.05242934,9.9,34.5,-38.46
1553845102472,1.1300976999999999,1.2976969999999999,8.3679905,0.061732817,0.0009297369400000001,0.035325114,9.84,34.68,-38.16
1553845102492,1.1396747999999999,1.4844503,8.293768,0.1429779,0.013757907,0.00050579646,9.24,35.52,-39.12
1553845102512,1.1277034,2.0662591,8.636149000000001,0.16802338,0.052242417,-0.033702657000000004,9.0,35.52,-39.719997
1553845102532,1.3407938,3.1556542000000003,9.615408,0.015917927,0.07667702400000001,-0.050806884000000004,9.78,34.62,-39.96
1553845102553,1.6089526,4.182798,10.525232,-0.21193482,0.006427524,-0.05386121,9.54,33.66,-39.899998
1553845102572,1.733455,3.7422516000000003,10.759871,-0.25836056,-0.061378515999999994,-0.059359,9.48,33.66,-39.42
1553845102593,1.6233183,2.3056867000000003,9.984126,-0.16795251,-0.091921784,-0.05630467,9.179999,34.5,-39.48
1553845102612,1.4820561,1.7885233,9.265842999999998,-0.12091588,-0.13040629,-0.050806884000000004,9.12,35.46,-39.3
1553845102632,1.3743136999999999,1.6400781999999998,8.696006,-0.11602897,-0.11757812,-0.045919962,9.24,35.28,-39.059998
1553845102652,1.4533247999999999,1.8196488999999998,8.624178,-0.15634607,-0.04671775,-0.053250343,9.48,34.559998,-38.76
1553845102673,1.6089526,2.2410412,9.064724,-0.16489819,0.017423097,-0.072798036,9.9,34.98,-38.16
1553845102692,1.6855695,2.49244,9.488511,-0.094037816,0.05957280000000001,-0.077684954,9.719999000000001,35.579997999999996,-38.579997999999996
1553845102713,1.5490957,2.2434354,9.466963,0.039741673,0.06262712,-0.07096544,9.36,35.219997,-38.7
1553845102732,1.4006507,2.1021732999999996,9.165284,0.09777387,0.040635977000000004,-0.06668938,9.179999,35.399998,-38.879996999999996
1553845102753,1.23784,2.3128695,9.117398,0.06356542,0.024142615,-0.050196017999999995,9.3,35.76,-38.64
1553845102772,1.3431882,2.6887705000000004,9.416683,-0.037227347,0.008870985,-0.03064833,8.639999000000001,35.64,-38.219997
1553845102793,1.5658557,3.241848,9.847652,-0.14840484,-0.008844106,-0.0013267993,8.4,35.64,-39.239998
1553845102812,1.6592325,3.0167862999999997,10.015251,-0.14962655,-0.010065838,0.029216462999999998,9.3,35.7,-39.6
1553845102833,1.6161355,2.1644243999999997,9.72315,-0.07693359,-0.022283142000000002,0.058537994,10.26,35.7,-38.16
1553845102852,1.5299416000000001,1.5227587,9.191621000000001,0.02569177,-0.04183083,0.07380962,9.719999000000001,35.46,-37.44
1553845102873,1.3743136999999999,1.2761483999999998,8.705584,0.08983262,-0.03938737,0.07136617,9.42,36.12,-37.14
1553845102892,1.2857256000000001,1.2426286,8.607418,0.13381493,-0.027170066,0.06831183,9.36,36.42,-37.92
1553845102913,1.2809371,1.8076775,8.9498,0.11121291,-0.0057897805,0.053040206,9.179999,36.0,-38.82
1553845102932,1.5179702,2.6624336,9.615408,0.0043114866,-0.0045680506,0.042044632,8.519999499999999,35.76,-39.059998
1553845102953,1.7885233,3.4429672,10.213975999999999,-0.13252233,-0.03327872,0.040212035,8.4,35.28,-39.719997
1553845102972,1.8699286,3.3208592000000006,10.319324499999999,-0.14473964,-0.026559198,0.034714247999999996,9.12,35.04,-38.76
1553845102993,1.7885233,2.4062462000000004,9.833286,-0.07632273,-0.009454971999999999,0.038379442,8.94,34.8,-38.34
1553845103012,1.6041641000000002,1.6161355,9.251478,0.01652879,-0.054048132,0.023718676,9.0,34.92,-38.76
1553845103033,1.359948,1.2593886,8.693612,0.091665216,-0.088867456,0.0066144490000000005,9.24,35.82,-38.28
1553845103052,1.2067145000000001,1.1013663999999999,8.38475,0.15214087,-0.060767654000000004,-0.017820163,8.88,35.82,-38.219997
1553845103073,1.1731946000000002,1.446142,8.535589,0.1991775,0.00031887164,-0.053250343,8.88,35.76,-38.399998
1553845103093,1.2426286,1.9800651999999999,8.844451,0.22666644,0.05346415,-0.08135014,8.82,35.7,-39.059998
1553845103112,1.3551594999999999,2.5929997000000005,9.035994,0.14908655,0.064459726,-0.07585236,8.46,35.28,-39.66
1553845103136,1.6161355,3.8571767999999995,10.142147999999999,-0.19727404,0.01070358,-0.07646323,9.12,35.28,-39.66
1553845103152,1.8100717,4.5970078,11.0352125,-0.40985516,-0.059545923,-0.06791111,9.42,34.98,-39.42
1553845103172,2.2242813,3.7207031,11.154926,-0.46605474,-0.14995398,-0.04469823,9.0,34.62,-38.219997
1553845103193,2.0016138999999997,2.3152637,10.261861999999999,-0.29317990000000005,-0.1371258,-0.012322373999999999,8.82,35.16,-37.98
1553845103212,1.6999351000000003,1.4629020000000001,9.217958,-0.13374406,-0.13346061,0.0029492574,9.0,35.82,-38.04
1553845103232,1.4581133,1.1372806,8.341654,-0.07082493599999999,-0.11452380000000001,0.0060035832999999995,9.059999000000001,35.88,-37.92
1553845103253,1.4293821000000002,1.0391153,8.083072,-0.018901393,-0.019839682,-0.014154969,8.82,35.88,-37.92
1553845103272,1.4198049,1.0846065,8.22194,0.06478715,0.06690318,-0.059359,8.94,36.18,-37.62
1553845103293,1.4485363000000002,1.3024855,8.640938,0.15275174,0.105387695,-0.09845438,9.12,36.78,-38.1
1553845103312,1.4700848,1.6161355,9.26345,0.23582943,0.11455067,-0.12960851,8.46,36.719997,-38.52
1553845103332,1.4868447,1.9441511999999999,9.550761999999999,0.31890708,0.111496344,-0.14182581,8.22,36.12,-39.0
1553845103352,1.472479,2.2673783,9.3280945,0.38488049999999996,0.11821587,-0.114947736,8.22,36.18,-39.42
1553845103372,1.5131816999999999,2.6767993,9.397528999999999,0.30607890000000004,0.16219817,-0.066078514,8.16,35.46,-38.82
1553845103393,1.6592325,3.581835,10.168485,0.11426724,0.15670037,-0.033091795,8.519999499999999,34.5,-38.46
1553845103413,1.7406378,4.206741,10.810151,-0.066548884,0.061405394,0.005392718,8.4,34.92,-38.7
1553845103432,1.7238779,3.2705792999999996,10.491713,-0.050666384,-0.049161214,0.049985882,8.639999000000001,35.219997,-39.18
1553845103453,1.5467016000000002,2.4804687999999997,9.711179,0.027524367,-0.094976105,0.06709011,8.94,35.52,-39.42
1553845103472,1.3096683,1.9704881999999997,8.976136,0.07211753,-0.12429764,0.06647924,8.519999499999999,35.16,-39.66
1553845103492,1.1420691,1.4796618000000001,8.269825,0.07333925,-0.064432845,0.04632069,8.04,34.44,-39.78
1553845103512,1.158829,1.6281068,8.061523,0.015307061,0.019255694,0.029216462999999998,8.4,34.68,-39.54
1553845103532,1.3360053,2.5858168999999998,8.631361,-0.13740925,0.06690318,0.038990308,8.46,34.8,-39.6
1553845103552,1.7741576000000001,3.840417,10.621003,-0.5338608,0.041246843,0.10374202,8.16,35.219997,-39.42
1553845103572,1.9345740000000002,4.1397014,11.741524,-0.6926857,-0.07970448,0.16177422,8.22,35.28,-39.12
1553845103592,1.5802213999999999,2.9593236000000003,10.898738999999999,-0.4458962,-0.07115236,0.18132192,9.42,35.52,-38.219997
1553845103612,1.2282629999999999,1.3216397,9.330489,-0.086707436,-0.0057897805,0.1428374,10.019999499999999,36.36,-37.62
1553845103632,1.0343267,0.7709564999999999,7.881953,0.119154155,0.0009297369400000001,0.09213558,9.059999000000001,36.899998,-38.34
1553845103652,0.77574503,0.8044763,7.3480296,0.19184712,0.010092715,0.053651072,8.76,36.719997,-38.219997
1553845103673,0.6296943,0.7972935,7.381549400000001,0.301192,0.052242417,0.01944262,8.58,36.42,-38.46
1553845103693,0.65842557,1.4365649,7.6473135999999995,0.38610226,0.056518473,-0.0043811253,8.88,35.7,-38.7
1553845103713,1.0271438,2.6815877,8.291373,0.28225520000000004,0.028418673,0.018220888,9.0,34.8,-38.94
1553845103732,1.802889,4.199558000000001,10.249889999999999,-0.09525955,-0.036333042999999995,0.054261937999999996,9.0,34.92,-39.48
1553845103753,2.2554069,4.972909,12.395161,-0.44345272,-0.07665015,0.0707553,9.12,35.04,-38.82
1553845103772,2.403852,3.7230972999999996,12.335303999999999,-0.46483302,-0.116356395,0.058537994,9.059999000000001,35.219997,-38.64
1553845103792,1.960911,1.4605076000000001,10.419884,-0.21071307,-0.10169563,0.027994731000000002,8.76,35.399998,-39.0
1553845103812,1.4437478000000001,0.531529,8.887547999999999,-0.057385902999999995,-0.091921784,0.010279640999999999,8.82,36.12,-38.46
1553845103833,1.1995316999999999,0.14605077,8.016032000000001,0.055013303,-0.083369665,-0.0068245865,8.82,36.48,-38.52
1553845103854,1.1923488000000002,0.03351985,7.656891000000001,0.17535377,-0.07787188,-0.06363506,8.88,36.42,-38.879996999999996
1553845103872,1.3192455,0.39505535,7.632948,0.31951794,-0.03694391,-0.14854532,9.179999,36.42,-38.579997999999996
1553845103892,1.4557191,1.4509305000000001,7.886741000000001,0.38854572,0.01986656,-0.18458638,8.82,36.0,-38.76
1553845103912,1.7813405,3.2993107000000004,9.557945,0.1991775,0.10233337,-0.14121494,8.88,35.52,-38.579997999999996
1553845103932,2.2817439999999998,5.109382599999999,11.770255,-0.22415212,0.023531752000000003,-0.057526402000000004,8.46,35.64,-38.879996999999996
1553845103952,2.0806248,5.1716337,12.395161,-0.42268333,-0.07176323,-0.031870063,8.4,36.18,-39.36
1553845103973,1.9489397000000002,3.0479119999999997,10.865219,-0.24492154,-0.076039284,0.0060035832999999995,8.28,36.3,-39.18
1553845103992,1.6807808999999998,1.4006507,9.033599,-0.040281676,-0.0968087,0.015166562,7.62,36.18,-38.52
1553845104012,1.5275473999999998,0.80208206,7.896318400000001,0.05012638,-0.119410716,0.026773002,8.519999499999999,36.6,-37.38
1553845104032,1.4676905,0.44772938,7.573091000000001,0.11671069,-0.06260025,0.008447044499999999,8.7,36.719997,-37.92
1553845104053,1.5131816999999999,0.66321415,7.731113400000001,0.23338595,0.042468574,-0.039200444,8.519999499999999,35.94,-39.059998
1553845104072,1.5921928,1.3383996,8.2578535,0.3274592,0.13593096,-0.072798036,8.28,35.82,-39.0
1553845104092,1.6161355,2.5810282000000004,9.222747,0.28775296,0.17991325,-0.05386121,7.62,36.059998,-39.18
1553845104112,1.7693691000000003,4.051113,10.628186,-0.101368204,0.0754553,0.004170988,8.22,35.34,-38.7
1553845104133,1.9226026999999999,5.212336,11.674484,-0.48376983,-0.036333042999999995,0.026162136000000003,8.88,34.62,-39.059998
1553845104152,1.8675343999999998,4.11097,11.332103,-0.4532266,-0.0845914,0.040212035,8.4,34.8,-39.66
1553845104172,1.6759924,1.802889,9.72315,-0.2333151,-0.07176323,0.056705399999999996,8.04,35.46,-38.76
1553845104192,1.5562786,0.8356019,8.729526,-0.07754446,-0.08642399,0.050596748,8.639999000000001,36.12,-38.34
1553845104213,1.5036045,0.29210153,8.073495,0.010420139,-0.09131091,0.034103386,8.34,36.66,-38.399998
1553845104232,1.4437478000000001,0.18196489,7.776604700000001,0.09777387,-0.021672277,-0.0043811253,7.5,36.719997,-37.68
1553845104252,1.4485363000000002,0.6249057,7.9873009999999995,0.23277509,0.11210721,-0.066078514,7.74,35.94,-37.44
1553845104273,1.5658557,1.6759924,8.717555,0.3256266,0.19457401,-0.08929139400000001,8.4,35.82,-37.98
1553845104292,1.5059988000000002,2.892284,9.63935,0.24865758,0.16647421,-0.05874813,8.46,35.76,-38.64
1553845104312,1.5778271000000001,4.0798445,10.759871,-0.014625336000000001,0.043690305,-0.0013267993,8.16,35.7,-38.579997999999996
1553845104332,1.5706443,4.7693954000000005,11.389565,-0.27790827,-0.08703486,0.021275215,8.7,35.76,-37.739998
1553845104352,1.4485363000000002,3.2921278,10.642551,-0.25469539999999996,-0.13651493,0.029827327999999997,8.58,35.46,-37.8
1553845104373,1.3575538,1.664021,9.531608,-0.11480723,-0.14812139,0.039601172999999996,8.04,35.46,-37.86
1553845104392,1.3910737,0.8786988000000001,8.899519999999999,-0.045168597000000005,-0.17683205,0.043266362999999995,7.5,35.579997999999996,-38.399998
1553845104413,1.4844503,0.600963,8.461367999999998,0.029967828,-0.16583647,0.038379442,7.74,35.64,-38.7
1553845104432,1.5012103,0.68715686,8.231517,0.1130455,-0.08581313,0.037768576,7.9199996,35.52,-38.46
1553845104453,1.6975409,1.0582695,8.406299,0.27736825,0.084007405,0.021275215,8.76,35.88,-38.04
1553845104472,1.9656997,1.7478206000000003,9.014444000000001,0.38915658,0.14326134,0.016388291,8.639999000000001,35.82,-37.739998
1553845104492,2.1404817000000005,2.7677817000000005,9.538791,0.40748253,0.09561385,0.021275215,8.4,35.579997999999996,-38.399998
1553845104512,2.0471049999999997,3.6656345999999997,10.017646000000001,0.23094249,0.058961935,0.043266362999999995,8.519999499999999,35.34,-39.18
1553845104532,2.2003386000000003,4.419831299999999,10.431855,-0.07265753,0.05835107,0.049375015999999994,8.58,35.52,-39.66
1553845104553,2.4900458,4.2570205,10.441432,-0.24614327,0.011314446,-0.003159395,8.639999000000001,35.219997,-38.34
1553845104572,2.4373717,2.4637089,9.574705,-0.19544145,-0.003957185,-0.023928814,7.9199996,35.46,-38.399998
1553845104593,1.9656997,1.3455825000000001,8.92825,-0.07876619,0.0033731977000000003,-0.061802458,8.7,36.18,-39.18
1553845104612,1.5897985000000001,1.1708003,8.631361,3.5430185000000004e-05,0.033916462,-0.053250343,9.059999000000001,35.7,-38.94
1553845104633,1.1923488000000002,1.1133378,8.597841,0.095941275,0.14142874,-0.032480925,8.099999,34.98,-38.82
1553845104653,1.0822121999999998,1.472479,8.763046000000001,0.12465194,0.20801306,-0.022096219,7.56,34.98,-39.059998
1553845104672,1.0319325000000001,2.4062462000000004,9.284998,0.09227608,0.19885008,-0.0025485298,7.7999997,35.1,-39.059998
1553845104693,1.0008069,3.4238129,10.08708,-0.037227347,0.105387695,0.016999159,8.7,35.399998,-38.879996999999996
1553845104712,0.9194015,4.0032277,10.6641,-0.1893328,-0.020450545,0.046931557,8.34,35.7,-38.94
1553845104732,0.85954463,3.4525442,10.381575999999999,-0.19910665,-0.08764572400000001,0.075031355,8.22,35.7,-39.12
1553845104753,1.0391153,2.0064023,9.438231,-0.11663983,-0.07237409,0.0707553,9.24,36.18,-38.04
1553845104772,1.359948,1.1444633,8.693612,-0.036616486000000004,-0.011287568000000001,0.02188608,9.059999000000001,36.059998,-37.98
1553845104793,1.7430321,0.86193895,8.387145,0.06967407,0.04796636,-0.02820487,8.46,35.399998,-38.76
1553845104813,2.0183737,0.9217958,8.305738999999999,0.19367972,0.05040982,-0.07707409,8.58,35.579997999999996,-38.52
1553845104832,2.0758362,1.5012103,8.506859,0.25232276,0.092559524,-0.12349985,8.58,35.579997999999996,-39.18
1553845104853,2.1452703,2.5283542000000003,9.050359,0.20162095,0.15181345,-0.1259433,9.12,35.46,-38.64
1553845104872,1.9848539,3.668029,9.873989,0.018972252,0.1530352,-0.07585236,9.3,35.28,-38.399998
1553845104893,1.8579572,4.348003,10.656918,-0.2418672,0.08095308400000001,-0.028815735,9.0,34.86,-38.76
1553845104912,1.6161355,3.9457648,10.690437,-0.37442496,-0.005178915300000001,-0.023317947999999998,9.12,35.1,-39.239998
1553845104932,1.1109436000000001,2.2817439999999998,9.775824,-0.31394932,-0.054048132,-0.041643906,9.36,35.7,-39.6
1553845104952,0.83081335,1.2593886,9.304152,-0.18811107,-0.047328617,-0.07585236,9.059999000000001,35.7,-38.219997
1553845104972,0.8451790000000001,0.9624985,8.976136,-0.061661962,-0.033889584,-0.06852197,8.28,36.36,-37.62
1553845104992,0.90982443,0.8236305,8.662486,0.05256984,-0.018007086999999998,-0.05386121,8.639999000000001,36.54,-38.579997999999996
1553845105012,0.9984126,0.82123625,8.487703999999999,0.1674125,0.049188092,-0.031870063,9.12,35.94,-38.82
1553845105033,1.2186858999999999,1.3216397,8.559532,0.26942699999999997,0.11393981,-0.020874487,8.94,35.219997,-38.82
1553845105052,1.3479767,2.3751206000000002,9.155706,0.29325077,0.10477682,0.01150137,8.639999000000001,35.76,-39.059998
1553845105073,1.5395187,3.4836697999999995,9.857229,0.13625838,0.02108829,0.05120761,8.46,36.12,-37.739998
1553845105092,1.8866886000000003,4.4629283,10.439038,-0.11908329,-0.048550345,0.093968175,8.58,35.52,-37.44
1553845105113,2.0997790000000003,4.1013927,10.458193,-0.2663018,-0.09558698,0.08541607,8.82,35.28,-38.52
1553845105132,1.9728824,2.5403256,9.73991,-0.25164106,-0.07237409,0.075031355,9.059999000000001,35.52,-38.879996999999996
1553845105152,1.6759924,1.5299416000000001,9.246689,-0.19055451,-0.07665015,0.06709011,8.94,36.18,-39.48
1553845105173,1.5371244,1.0319325000000001,8.901914,-0.08365311,-0.07298495599999999,0.07380962,8.76,36.18,-38.76
1553845105192,1.5179702,0.7781393,8.734314999999999,0.024470039,-0.021672277,0.06464665,8.519999499999999,36.239998,-38.76
1553845105212,1.4221992,0.83081335,8.571504,0.16069299,0.038192517999999995,0.03288165,8.28,36.36,-37.98
1553845105233,1.3096683,1.4006507,8.770228,0.29447249999999997,0.10111163599999999,0.010279640999999999,8.34,35.7,-37.14
1553845105252,1.2474172,2.1309047000000003,9.191621000000001,0.33540046,0.15364604,0.0066144490000000005,8.16,35.82,-37.5
1553845105273,1.3144568,3.2466366,9.809344,0.14908655,0.1530352,0.03349252,9.12,35.46,-38.1
1553845105292,1.7286664,4.2258949999999995,10.541992,-0.10747685,0.052853283,0.06525751,9.36,35.1,-37.739998
1553845105312,1.8531687,4.2258949999999995,10.575512,-0.2210978,-0.057102464000000006,0.06586838,9.0,35.28,-38.64
1553845105333,1.6855695,2.7294734,9.703996,-0.1978849,-0.09741957,0.049375015999999994,8.94,35.579997999999996,-38.399998
1553845105352,1.3958621999999998,1.5299416000000001,9.126975999999999,-0.13557667,-0.09253265,0.02066435,8.28,35.82,-38.46
1553845105373,1.1803774999999999,1.0870007,8.741497,-0.06410542,-0.03694391,-0.0043811253,8.34,35.1,-39.059998
1553845105392,1.2426286,0.8379962,8.561927,0.015307061,0.025975212,-0.017209295,9.179999,35.1,-38.94
1553845105412,1.2354459,1.0415094999999999,8.547561,0.11793242,0.060183667,-0.037978712000000005,9.66,36.059998,-37.8
1553845105432,1.2138973,1.5467016000000002,8.844451,0.22055778,0.12188106,-0.055693805,9.179999,35.94,-37.739998
1553845105453,1.3431882,2.430189,9.565128,0.27003786,0.16403076,-0.054472078,9.0,35.52,-38.46
1553845105472,1.4964218,3.0814316,9.75667,0.21750346,0.13165489,-0.041643906,9.599999,35.7,-38.399998
1553845105493,1.3958621999999998,3.1628369999999997,9.763853,0.13625838,0.060794532000000005,-0.031259197999999995,9.84,35.399998,-37.079997999999996
1553845105513,1.2905141000000002,2.944958,9.706389999999999,0.06051109,0.027807808,-0.042254772,9.42,34.86,-36.84
1553845105532,1.3647367,2.6791935000000002,9.636956,0.03729821,-0.024115737999999998,-0.0434765,9.599999,34.5,-38.579997999999996
1553845105553,1.4389591,2.2817439999999998,9.500483000000001,0.036076482,-0.07298495599999999,-0.02453968,9.54,34.739998,-38.94
1553845105572,1.2881198,2.1740015,9.452597,0.012863601,-0.069930635,-0.009268047,9.059999000000001,35.219997,-38.399998
1553845105593,1.3120626,2.4349775,9.431047999999999,-0.062272824000000004,-0.050993808,0.01150137,8.88,34.68,-38.52
1553845105612,1.4006507,2.875524,9.486116,-0.15145916,-0.043052558,0.03349252,9.179999,34.26,-39.18
1553845105633,1.5897985000000001,3.1676257000000003,9.763853,-0.28646037,-0.09253265,0.048764154000000004,9.3,34.739998,-39.54
1553845105652,1.6712039,3.2274826,10.067925,-0.38847485,-0.20004492,0.057316266,9.24,35.219997,-39.239998
1553845105673,1.5299416000000001,2.6935592,9.845258,-0.38358796,-0.21409483,0.038990308,9.36,35.219997,-38.579997999999996
1553845105693,1.3024855,1.6903580000000002,9.215564,-0.28157344,-0.11146947,0.010890506000000001,9.3,35.76,-38.04
1553845105713,1.2569941999999998,0.90982443,8.7534685,-0.12335935,-0.00334632,0.004170988,9.3,36.0,-38.579997999999996
1553845105732,1.4509305000000001,0.5554718000000001,8.394327,0.04157427,0.029640405,0.009668776,9.059999000000001,36.0,-39.18
1553845105753,1.5036045,0.6943397,8.099832000000001,0.23155336,0.034527324,-0.0074354519999999995,8.639999000000001,35.94,-38.879996999999996
1553845105772,1.4150163999999998,1.5059988000000002,8.55235,0.30424629999999997,0.10355510000000001,-0.017209295,8.4,36.18,-38.16
1553845105793,1.5826156,2.8491871,9.431047999999999,0.15702779999999997,0.1579221,-0.020263622,9.0,35.64,-37.68
1553845105813,1.9728824,4.8340406,10.953807000000001,-0.28829297,0.041246843,0.035325114,8.94,34.98,-38.579997999999996
1553845105832,1.8842942999999999,4.5634879999999995,11.509279,-0.3701489,-0.14995398,0.0408229,8.76,35.1,-38.94
1553845105852,1.4581133,2.3751206000000002,10.163696,-0.23881288,-0.121243306,0.009668776,8.22,35.34,-38.76
1553845105872,0.99362403,0.77574503,8.9976845,-0.10808772,-0.07848274,-0.025150542999999997,7.74,36.36,-38.579997999999996
1553845105892,1.0534808999999998,0.38787252,8.399116000000001,-0.01401447,-0.024726603,-0.030037466000000002,7.8599997,36.3,-37.559998
1553845105912,1.2282629999999999,0.33519846,8.200391,0.10449339,-0.00029199357999999995,-0.039200444,8.34,35.76,-36.78
1553845105932,1.3455825000000001,0.54828894,8.181237,0.24926844,0.030251267999999998,-0.05263948,8.82,35.88,-37.68
1553845105953,1.2929084,1.3048798000000001,8.497281,0.42153245,0.15608951,-0.06424592,8.82,35.82,-38.04
1553845105972,1.4772675,2.5594797000000002,9.395133999999999,0.39221090000000003,0.2422215,-0.031870063,9.24,35.94,-38.28
1553845105993,1.9010541,4.259414700000001,10.321719,0.015307061,0.093781255,0.013944831999999999,8.82,36.239998,-39.18
1553845106013,1.908237,4.9705143,11.63857,-0.28890383,-0.15606263,0.013944831999999999,9.719999000000001,35.28,-38.64
1553845106033,1.673598,3.2083282000000004,10.793391,-0.2644692,-0.24036203,-0.02820487,9.84,35.399998,-38.16
1553845106052,1.3407938,1.3264283000000001,9.651321000000001,-0.13557667,-0.20615359,-0.06363506,8.88,35.82,-38.34
1553845106073,1.1229149,0.66800267,8.688824,-0.009738414,-0.15300829999999999,-0.070354566,8.639999000000001,35.76,-39.18
1553845106092,1.2258687,0.5458947,8.1549,0.07028493,-0.04671775,-0.058137268,9.179999,36.3,-38.94
1553845106113,1.4533247999999999,0.76616794,7.951386500000001,0.16924511,0.062016264,-0.066078514,8.82,36.719997,-38.7
1553845106133,1.5562786,1.2474172,8.243488000000001,0.3207397,0.19029796,-0.078906685,7.8599997,36.12,-38.7
1553845106153,1.7430321,2.5642683999999996,9.016839,0.37327412,0.25382793,-0.055693805,8.04,35.64,-38.64
1553845106172,1.8890828000000002,3.9577362999999997,9.665688000000001,0.1710777,0.13287663,0.004170988,8.34,35.82,-38.52
1553845106192,1.8675343999999998,5.035159999999999,10.661706,-0.17406116,-0.01617449,0.049985882,7.7999997,35.219997,-38.76
1553845106212,1.515576,4.8986864,11.037607000000001,-0.34265998,-0.1249085,0.02066435,8.099999,34.14,-38.28
1553845106232,1.4174107,2.7725701000000003,10.063137,-0.29928854,-0.12551937,0.014555697,9.0,35.399998,-38.16
1553845106252,1.2162915,1.4868447,9.246689,-0.20643702,-0.13346061,0.007225314,8.519999499999999,35.88,-38.7
1553845106272,1.1348863,0.9505271000000001,8.664881,-0.13802011,-0.08092621,0.029216462999999998,9.0,35.16,-38.16
1553845106292,1.1827718,0.6177229000000001,8.466156,-0.05616417,-0.018007086999999998,0.039601172999999996,9.0,35.76,-38.04
1553845106313,1.2282629999999999,0.5889916000000001,8.399116000000001,0.119154155,0.082174815,0.035325114,8.099999,35.82,-38.219997
1553845106332,1.3288225,1.1085492000000001,8.741497,0.28286603,0.16647421,0.034714247999999996,8.22,35.76,-38.399998
1553845106352,1.5586729,1.9872481,9.284998,0.3488395,0.15731123,0.04387723,8.28,35.94,-38.219997
1553845106372,1.7741576000000001,3.067066,9.699207000000001,0.14725395,-0.00029199357999999995,0.056705399999999996,8.22,35.579997999999996,-39.0
1553845106392,1.812466,4.149278,10.611426,-0.06899234,-0.08520226,0.044488095,8.099999,35.579997999999996,-39.0
1553845106413,1.7550035,4.1516724,10.728745,-0.22354124,-0.09986303,-0.011100643,8.46,35.579997999999996,-39.059998
1553845106432,1.8411973999999998,2.597788,9.862017999999999,-0.21987605,-0.05832419,-0.023928814,9.179999,36.84,-38.94
1553845106452,1.6424724999999998,1.4533247999999999,9.14613,-0.12641367,-0.043663427000000005,-0.037978712000000005,9.36,36.84,-39.18
1553845106472,1.4533247999999999,1.1253091,8.581081,-0.07021407,-0.010065838,-0.02576141,8.58,35.76,-38.879996999999996
1553845106492,1.3383996,1.2282629999999999,8.420665,-0.05433158,0.043690305,0.00905791,8.46,35.219997,-38.34
1553845106512,1.350371,1.6017698,8.636149000000001,0.0030897565,0.123102784,0.034103386,8.16,35.579997999999996,-38.7
1553845106533,1.525153,2.3655436,9.105427,0.039130807000000004,0.14509393,0.06403578,8.22,36.3,-38.76
1553845106552,1.5730386,3.1963567999999998,9.847652,0.002478891,0.05835107,0.112904996,8.58,36.059998,-38.46
1553845106573,1.472479,3.4597269999999996,10.292988000000001,-0.08487484,-0.042441695999999994,0.13184182,8.82,35.82,-38.1
1553845106593,1.2474172,2.8420042999999997,10.202005,-0.12213762,-0.118188985,0.12390058,8.94,35.76,-38.219997
1553845106612,1.1109436000000001,1.6400781999999998,9.555551,-0.07876619,-0.104749955,0.09763337,9.179999,36.0,-38.219997
1553845106633,1.1372806,0.9960183000000001,9.071907000000001,-0.018901393,-0.05588073,0.049985882,9.059999000000001,36.36,-37.68
1553845106653,1.2833313,0.9289786,8.889942,0.043406863,-0.03144612,0.016999159,8.82,35.94,-38.1
1553845106673,1.3934678999999999,1.0965778999999998,8.892337,0.10693685,-0.022283142000000002,-0.015987566,9.059999000000001,35.82,-38.579997999999996
1553845106692,1.5419129999999999,1.4054393,9.088667,0.16374731,0.023531752000000003,-0.051417753,9.36,35.76,-38.82
1553845106713,1.7262721,1.8100717,9.344854,0.27797914,0.062016264,-0.07646323,9.599999,36.059998,-38.64
1553845106733,1.802889,1.960911,9.335278,0.42092156,0.042468574,-0.08318274,9.36,35.94,-37.32
1553845106752,1.7406378,1.8316202000000001,8.973742,0.56447494,0.0070383893000000005,-0.08806966,9.36,35.219997,-37.44
1553845106772,1.56825,1.838803,8.803747999999999,0.57974654,0.029640405,-0.09723264,9.3,35.04,-38.94
1553845106793,1.4341706,2.7390504,9.239507000000001,0.323794,0.17258286,-0.12227812,9.0,34.86,-39.96
1553845106813,1.7933118000000001,5.569083,10.592272,-0.11602897,0.19640662,-0.08196101,8.7,34.98,-40.26
1553845106832,2.2554069,5.9832925999999995,11.406325,-0.35426640000000004,-0.052826405,0.031659923,9.12,34.86,-40.02
1553845106853,2.013585,3.2514252999999997,10.029617,-0.25164106,-0.20187752,0.08602693,9.24,34.739998,-39.78
1553845106873,1.4820561,1.7047237000000002,8.964165,-0.1398527,-0.16766907,0.07686395,8.82,34.8,-40.079997999999996
1553845106892,1.0941836,1.2234744,8.118986,-0.07265753,-0.09253265,0.06953357,8.94,34.68,-39.54
1553845106912,0.95531565,1.1181264,8.107014999999999,-0.015847066,0.0009297369400000001,0.054872803,9.179999,34.32,-39.36
1553845106932,0.9433443000000001,1.5347302,8.61939,0.06600887,0.0736227,0.022496943999999998,9.059999000000001,34.98,-39.42
1553845106952,1.1013663999999999,2.1332988999999998,9.196409,0.120986745,0.13715269,-0.010489778,9.0,34.86,-38.64
1553845106972,1.2474172,2.7151077,9.656111,0.12831713,0.1530352,-0.013544105,9.3,34.26,-39.48
1553845106992,1.4054393,3.1269228,9.711179,0.06600887,0.09866817,-0.00010506882,9.12,34.559998,-40.079997999999996
1553845107012,1.5850098999999997,3.4190245000000004,9.8548355,-0.07143581,0.016812233,0.022496943999999998,9.3,34.62,-39.84
1553845107032,1.8411973999999998,3.3855044999999997,10.0200405,-0.14840484,-0.059545923,0.040212035,9.42,34.38,-40.079997999999996
1553845107052,1.8364087,2.6624336,9.653716000000001,-0.13313319,-0.116356395,0.05242934,8.88,34.44,-39.899998
1553845107072,1.6712039,2.1069617000000003,9.289786,-0.11969416,-0.11513466,0.034103386,9.3,34.559998,-40.02
1553845107092,1.4820561,2.0159793,9.141341,-0.1276354,-0.08764572400000001,0.013333966000000001,9.42,34.8,-40.32
1553845107112,1.3695252,1.8699286,9.079089999999999,-0.08976176400000001,-0.03694391,0.013333966000000001,8.519999499999999,34.86,-39.96
1553845107132,1.333611,1.4605076000000001,8.988108,0.040352535,0.032694727,0.012723101,8.46,34.92,-39.42
1553845107152,1.2546,1.3072741,8.767835,0.20101011,0.06873578,-0.011100643,9.54,35.04,-38.399998
1553845107172,1.1396747999999999,1.7430321,8.7822,0.30180284,0.098057315,-0.021485351,9.9,35.04,-38.879996999999996
1553845107192,1.201926,2.5738453999999997,9.074302000000001,0.24499239,0.17563719,-0.012322373999999999,9.059999000000001,34.86,-39.84
1553845107212,1.5969813,3.9170337,9.794978,-0.031118697999999997,0.1615873,0.013333966000000001,8.94,34.559998,-39.78
1553845107232,2.1213273999999998,5.0399485,10.822123,-0.30661893,0.016812233,0.04754242,9.179999,34.98,-39.899998
1553845107253,2.1596357999999998,4.0918155,10.606637,-0.3756467,-0.19943407,0.054261937999999996,8.88,35.04,-39.42
1553845107272,1.7430321,2.126116,9.462174000000001,-0.301732,-0.24952501,0.04632069,8.639999000000001,34.8,-39.12
1553845107292,1.2881198,1.2498114,8.854028999999999,-0.23453683,-0.18049724,0.00905791,8.82,34.8,-39.719997
1553845107312,1.0917894,0.9194015,8.545167,-0.16428733,-0.06931976,-0.005602856,9.3,35.88,-39.84
1553845107333,1.1899546,0.7901106999999999,8.547561,-0.028675236,0.049798958,-0.012322373999999999,9.059999000000001,36.36,-39.36
1553845107353,1.3024855,0.8739103000000001,8.600235000000001,0.16313644,0.1298223,-0.029426599999999997,8.76,35.76,-38.76
1553845107372,1.333611,1.5419129999999999,8.763046000000001,0.28958556,0.18785451,-0.039200444,8.76,35.7,-38.399998
1553845107393,1.4198049,2.6241252,9.308941,0.23582943,0.2177869,-0.023928814,9.059999000000001,35.399998,-39.059998
1553845107412,1.8004947,4.11097,10.163696,-0.055553306,0.12127019,0.01944262,9.24,35.16,-39.54
1553845107433,2.0399222,5.025583,11.063944000000001,-0.30600807,-0.06565457,0.04754242,9.599999,35.34,-39.6
1553845107452,1.908237,3.5267668,10.431855,-0.28279516,-0.17194512,0.054872803,9.599999,35.46,-39.54
1553845107473,1.5107874,1.5706443,9.284998,-0.18688932,-0.16950166,0.00905791,9.54,35.16,-38.04
1553845107492,1.1827718,1.0439038,8.710372,-0.16367646,-0.12246504400000001,-0.03614612,9.66,35.28,-37.44
1553845107513,1.1803774999999999,0.8667275,8.660092,-0.1135855,-0.03694391,-0.041643906,9.36,35.94,-38.34
1553845107532,1.2905141000000002,0.81165916,8.724737,0.018361388,0.045522900000000005,-0.033702657000000004,9.0,36.36,-38.7
1553845107552,1.3479767,0.9816527,8.652909,0.19245797,0.10722029,-0.04286563400000001,9.059999000000001,36.42,-38.82
1553845107572,1.403045,1.7143008000000002,8.952193,0.32318315,0.16769595,-0.041643906,9.12,36.48,-38.64
1553845107593,1.5347302,2.82285,9.3831625,0.24804673,0.16586336,-0.023928814,8.519999499999999,36.3,-38.34
1553845107612,1.7765520000000001,4.0391417,10.046377,-0.03050783,0.063237995,0.015166562,8.519999499999999,35.399998,-39.0
1553845107633,1.838803,4.5946136,10.881979,-0.25713882,-0.06565457,0.01944262,8.94,34.92,-39.36
1553845107653,1.8435916,3.354379,10.360027,-0.27424309999999996,-0.13834754,0.010890506000000001,8.519999499999999,34.86,-39.239998
1553845107672,1.5036045,1.6712039,9.435837,-0.20704788,-0.15117571,-0.019652756,9.24,35.219997,-37.8
1553845107693,1.2546,1.0032011,8.820508,-0.14412877,-0.10536081,-0.041643906,10.139999000000001,35.46,-37.86
1553845107712,1.2593886,0.7781393,8.573898,-0.06838148,-0.017396221,-0.050196017999999995,8.76,35.88,-38.94
1553845107733,1.2929084,0.7781393,8.518829,0.07456099,0.06873578,-0.04469823,8.04,36.18,-38.52
1553845107752,1.3048798000000001,1.0510867,8.612206,0.2431598,0.13715269,-0.04836342,8.94,35.7,-38.52
1553845107772,1.3168511,1.8986599999999998,9.062330000000001,0.35983506,0.18052413,-0.030037466000000002,9.179999,35.1,-38.64
1553845107793,1.4245936000000001,2.9832664,9.632168,0.2553771,0.14265047,0.0047818534,8.94,35.04,-38.579997999999996
1553845107813,1.7095122,3.9960446000000003,10.271438999999999,-0.018901393,0.02231002,0.038990308,9.24,35.219997,-38.52
1553845107832,1.7693691000000003,4.3767343,10.826911,-0.22659558,-0.09131091,0.02555127,9.24,35.46,-38.399998
1553845107852,1.7526091000000001,3.0742488,10.106233999999999,-0.23087163,-0.1267411,0.016388291,9.179999,35.34,-38.34
1553845107872,1.5921928,1.647261,9.399923,-0.16184385,-0.13407148,-0.003159395,8.88,35.399998,-38.399998
1553845107892,1.3982565,1.1229149,8.880365,-0.07449013,-0.121243306,-0.020874487,9.179999,35.88,-38.219997
1553845107912,1.3120626,0.89545876,8.58587,0.007976678000000001,-0.048550345,-0.020874487,9.54,35.82,-38.7
1553845107933,1.2330515,0.9194015,8.449396,0.13748012,0.052853283,-0.012933239,8.58,35.34,-39.059998
1553845107952,1.2976969999999999,1.2665714,8.56911,0.26759443,0.14875913,-0.020263622,8.22,35.28,-38.94
1553845107973,1.350371,2.0183737,9.12937,0.35494816,0.18907623,-0.022707082000000003,8.34,35.219997,-38.82
1553845107992,1.4916332,2.8108785,9.57231,0.30913323,0.18418932,-0.005602856,8.099999,35.04,-38.52
1553845108013,1.6137413,3.3448019999999996,9.835681,0.15336262,0.1157724,-0.0043811253,8.58,35.52,-38.579997999999996
1553845108032,1.5730386,3.8571767999999995,10.142147999999999,-0.047001194,0.016201368,-0.03614612,8.88,35.399998,-39.42
1553845108053,1.6113469999999999,3.605778,10.077502,-0.12702455,-0.05343727,-0.039200444,8.88,34.98,-39.66
1553845108072,1.5802213999999999,2.3128695,9.660899,-0.092816085,-0.10902601,-0.022707082000000003,8.82,35.34,-39.059998
1553845108092,1.3671309,1.6113469999999999,9.246689,-0.010349279,-0.13651493,-0.012933239,8.94,36.059998,-39.0
1553845108112,1.1444633,1.4916332,8.827691,0.03302215,-0.09131091,0.0011166617,8.639999000000001,35.76,-39.0
1553845108132,1.0989721000000001,1.6759924,8.746285,0.04646119,-0.0021245892,0.010279640999999999,8.4,34.739998,-39.12
1553845108153,1.2522057,2.169213,8.885154,0.04646119,0.09133779,0.013944831999999999,8.639999000000001,35.28,-39.18
1553845108173,1.4198049,2.8204557999999995,9.483723,-0.008516683,0.08278568,0.0023383922,7.68,35.76,-39.059998
1553845108192,1.5514901,3.3591676,9.953,-0.11663983,-0.025337468999999998,0.013333966000000001,7.9199996,34.68,-38.879996999999996
1553845108212,1.5012103,3.3424077000000003,10.024828999999999,-0.19483058,-0.1322389,0.010279640999999999,8.94,34.26,-38.64
1553845108232,1.4629020000000001,2.578634,9.617802000000001,-0.17589375,-0.14506707,-0.0043811253,8.94,34.98,-39.3
1553845108252,1.4676905,1.7382435,9.126975999999999,-0.07571186,-0.08825659,-0.020263622,8.88,35.28,-39.36
1553845108272,1.498816,1.3958621999999998,8.844451,0.029356962,-0.034500446000000004,-0.022096219,8.34,34.739998,-38.76
1553845108293,1.4509305000000001,1.4150163999999998,8.715160000000001,0.12159761,0.015590503,-0.011100643,8.04,34.739998,-39.059998
1553845108312,1.4078336,1.7071179,8.894731,0.18573846,0.09622472,-0.0153767,8.58,35.34,-38.94
1553845108333,1.4868447,2.423006,9.306546,0.14419962,0.13532008,-0.021485351,8.4,35.579997999999996,-38.76
1553845108352,1.673598,3.5171897000000003,10.024828999999999,-0.029286101000000002,0.079120494,-0.003159395,8.639999000000001,34.86,-38.82
1553845108373,1.7406378,4.075055600000001,10.506078,-0.21804346,-0.064432845,0.013333966000000001,8.94,34.739998,-39.12
1553845108392,1.6903580000000002,3.5147953000000003,10.276228,-0.29501247,-0.17988639,0.037768576,9.12,34.68,-38.94
1553845108413,1.5299416000000001,2.22907,9.471751,-0.24431066,-0.1743886,0.048764154000000004,9.0,34.8,-37.739998
