TimeStamp,Ax,Ay,Az,Gx,Gy,Gz,Mx,My,Mz
1553852016424,0.81165916,7.036773700000001,0.8044763,-1.292498,1.3281444,0.74361604,0.35999998,-16.14,-40.02
1553852016444,1.1995316999999999,6.732701,0.87151605,-1.4274993,1.1870345,0.71001846,0.84,-15.179998999999999,-40.26
1553852016464,1.3527653,6.766220599999999,0.5243462,-1.646189,0.9701774,0.64037985,1.74,-14.4,-40.68
1553852016484,0.68715686,6.653689999999999,1.7981004,-1.7359862000000001,1.0801332000000001,0.65198624,2.58,-13.679998999999999,-41.7
1553852016505,0.37590113,7.144516,4.0798445,-1.6926148,0.8443392,0.7497246999999999,3.1799998,-12.0,-42.36
1553852016524,0.9768641,6.656084,4.034353299999999,-1.605261,0.34648398,0.79065263,4.2,-10.2,-42.0
1553852016544,1.6496553,7.005648,3.9481592000000005,-1.6675692,0.028223196000000002,0.7656071999999999,4.74,-9.48,-41.94
1553852016565,2.0902019,8.741497,5.5571117,-1.6675692,0.018449353,0.9305408000000002,5.1,-7.9199996,-41.7
1553852016584,2.1548474,9.730332,6.193989,-1.4580425,-0.001709201,1.0215597,5.4,-6.3599997,-41.7
1553852016604,1.5969813,9.047964,5.499649,-1.274783,0.23408478,1.011175,4.92,-5.4,-42.239998
1553852016624,2.2386470000000003,8.334471,5.7438655,-1.2308006,0.33915359999999994,1.0356096,4.68,-4.3199997,-41.82
1553852016645,2.9617178,8.035186,5.813299,-1.1599403999999998,0.27867794,1.0038446,5.52,-3.24,-40.739998
1553852016664,2.9329867000000003,8.219545,6.399896599999999,-1.1135145,0.2090393,0.9268755999999999,5.8799996,-2.1,-40.98
1553852016685,2.9665065,8.444607000000001,6.8476257,-1.0756409,0.13390288,0.8731194999999999,6.6,-1.0799999,-41.76
1553852016704,3.1317115,8.351231,6.938608,-1.002337,0.22858699,0.74361604,6.8399997,-0.65999997,-41.34
1553852016724,3.1484714,8.628966,7.0870533,-0.9577438,0.3953532,0.6654253000000001,6.54,-0.42,-41.219997
1553852016744,3.2155110000000002,8.444607000000001,7.280989599999999,-0.8826074,0.486983,0.603117,6.8399997,0.65999997,-41.52
1553852016764,3.1963567999999998,7.965752,7.4629544999999995,-0.87833136,0.4503311,0.5560804,6.72,1.74,-42.12
1553852016785,2.8420042999999997,7.269017999999999,6.9098773,-0.9210919,0.53585225,0.39603373,7.259999799999999,2.1599998,-42.6
1553852016804,2.7127132,6.605803999999999,6.421444999999999,-1.0603693,0.6103776999999999,0.17184617,8.16,2.76,-42.899998
1553852016824,2.2434354,6.25624,6.5196104,-1.1935378,0.6250385,-0.06883474,8.4,3.84,-42.54
1553852016844,2.2410412,6.069486599999999,6.861991400000001,-1.3163216999999998,0.4729331,-0.26064643,8.76,5.46,-42.0
1553852016865,2.2673783,5.547535,7.5036573,-1.3407563,0.22919786,-0.30279616,9.24,6.42,-41.399998
1553852016884,2.2506182,5.2650104,7.6018224000000005,-1.3163216999999998,0.11191174,-0.32295468,10.019999499999999,6.8999996,-41.34
1553852016905,2.3248408,5.0806512999999995,7.1660647,-1.2876111000000001,0.10824654,-0.25881383,9.599999,8.46,-41.219997
1553852016924,2.4277947,4.948966,6.9457911999999995,-1.3212086,0.1442876,-0.19222952,8.4,9.36,-40.14
1553852016944,2.013585,4.405465599999999,6.723123599999999,-1.3798517,0.19621113,-0.07921945,9.059999000000001,9.719999000000001,-39.78
1553852016965,2.0399222,3.8140797999999996,7.307327000000001,-1.4867531999999999,0.07953587,-0.0028612928000000004,9.599999,10.679999,-38.76
1553852016984,1.6807808999999998,2.185973,8.8085375,-1.5881566999999999,-0.46352333,-0.17390357,9.9,12.059999000000001,-38.04
1553852017005,0.8236305,1.5658557,9.490905999999999,-1.7952401999999998,-1.3223999,-0.6497676,9.78,13.799999,-38.579997999999996
1553852017024,3.2633965,1.2474172,11.731947,-2.167868,-1.1079861999999998,-0.9442046000000001,8.76,15.36,-38.46
1553852017045,4.338426,5.360780999999999,13.180482999999999,-2.655949,0.055101264000000004,-1.241696,7.98,17.279999,-37.739998
1553852017064,4.3863115,5.8228765,14.123826999999999,-1.8868699,1.4545934999999999,-0.9863543,7.5,18.539998999999998,-37.079997999999996
1553852017085,4.245049,5.446975,14.279454999999999,-1.0243281,0.6812382,-0.4487929,7.7999997,19.32,-36.36
1553852017104,3.9457648,3.4118416,12.763879,-0.21676432,-0.23689231,-0.22216190000000002,8.28,21.72,-36.0
1553852017125,2.4948344,0.9337671999999999,8.803747999999999,0.09050090599999999,-0.66144365,-0.15069069,8.099999,23.1,-34.8
1553852017144,1.7645805,-0.27294734,6.591439,-0.22226210000000002,-0.492234,-0.08410637,7.259999799999999,23.039998999999998,-33.899998
1553852017164,1.7238779,-0.14605077,7.101419,-0.59611166,-0.087841205,-0.0413458,6.72,23.699999,-34.38
1553852017184,2.7390504,0.54828894,9.364009,-0.6162701999999999,0.12779422,0.002025629,6.6,23.519999,-34.5
1553852017205,3.9457648,0.8379962,10.522838,-0.43728665,0.07648155,0.08754676,6.8999996,23.4,-33.239998
1553852017224,4.2905407,1.0582695,10.498895,-0.3432134,-0.13182349999999998,0.18650693,6.8399997,24.24,-32.94
1553852017244,4.1660379999999995,0.96489275,9.866806,-0.40429990000000005,-0.2808746,0.28424537,6.6,24.539998999999998,-33.96
1553852017265,4.127730000000001,0.9529214,9.553157,-0.42018244,-0.26560300000000003,0.33677977,6.48,24.539998999999998,-34.5
1553852017284,4.309695,0.6081458000000001,9.574705,-0.33588302,-0.30103317,0.34411016,6.8399997,24.779999,-33.36
1553852017305,4.405465599999999,0.84039044,9.335278,-0.21737519,-0.33707422,0.30440393,6.96,25.199999,-33.12
1553852017325,4.5395449999999995,1.6328955,8.827691,-0.28762466,-0.25766173,0.28180190000000005,7.08,24.96,-33.18
1553852017345,4.288146,2.1716073,9.055147,-0.39269352,-0.14770599,0.26591942,7.44,24.119999,-32.7
1553852017364,3.703943,2.2721667,9.134158,-0.46905166,-0.07318044,0.22132625,6.96,24.48,-32.7
1553852017384,3.014392,1.9393626,9.284998,-0.44095185,-0.03775025,0.16146146,7.2,25.74,-31.74
1553852017404,2.3248408,1.4605076000000001,9.009656,-0.33405045,-0.05302188,0.105261855,7.02,26.46,-31.98
1553852017425,2.0686533,0.9122186999999999,8.964165,-0.24242066,-0.042026307,0.08754676,7.2,26.519999,-31.92
1553852017444,2.2985039,0.6368771,8.913885,-0.1465148,-0.017591698,0.07410773,8.04,26.4,-31.019999
1553852017464,2.8013015,0.84039044,9.074302000000001,-0.07748704,-0.067682646,0.08265984,7.3199997,26.34,-30.72
1553852017484,2.8013015,0.84039044,9.074302000000001,-0.07748704,-0.067682646,0.08265984,7.3199997,26.34,-30.72
1553852017504,3.11974,0.97446984,8.564321000000001,0.14364618,-0.16542108,0.13458338,7.5,26.939999,-31.679997999999998
1553852017525,2.7222904999999997,0.6895511,8.396722,0.32079712,-0.19046657,0.16329405,6.8999996,26.46,-31.32
1553852017544,2.4565259999999998,0.34716985,8.147717,0.49183938,-0.19107743,0.14374636,6.72,26.46,-31.14
1553852017564,2.3823035,0.50040346,8.356019,0.6689903,-0.19657521,0.0851033,6.48,26.4,-31.619999
1553852017585,3.0694604,1.5658557,8.231517,0.5437628999999999,0.1565049,0.11503569999999999,6.6,26.4,-32.28
1553852017604,3.8021083,2.1787900000000002,9.251478,0.30369288,0.4729331,0.17795482,7.3199997,26.34,-32.64
1553852017624,4.3456087,3.1484714,10.46777,-0.03778079,0.500422,0.23781961,7.2,25.5,-33.0
1553852017644,4.4246197,4.0080160000000005,11.097464,-0.28090516,0.29700390000000004,0.42352265,7.14,25.14,-33.18
1553852017665,4.206741,3.6512692,10.688042999999999,-0.24119891,-0.14281908,0.60067356,7.14,24.9,-33.0
1553852017684,3.407053,2.2793495999999998,9.071907000000001,-0.011513588,-0.21673377,0.68802726,7.62,25.08,-32.219997
1553852017704,2.9904492,1.5083932,8.102226,0.1748003,0.02516887,0.6935251,8.28,25.08,-32.04
1553852017724,2.779753,1.2426286,8.676852,0.13142888,0.2023198,0.6733665,8.16,25.26,-32.34
1553852017744,3.2562137000000004,1.2138973,8.796566,0.031857843999999996,0.31716245,0.6263299,9.12,25.08,-32.46
1553852017764,2.9090437999999996,1.2617828000000002,9.790189999999999,-0.03289387,0.24996729,0.6446559000000001,9.66,24.9,-32.579997999999996
1553852017784,3.2226939999999997,1.7262721,9.857229,-0.054885022,0.18155037,0.67519915,9.48,24.779999,-32.1
1553852017805,2.9904492,1.9058428,9.809344,0.0031471776,0.21514796,0.7900418,9.84,24.3,-32.28
1553852017824,3.1915683999999995,1.673598,9.996098,0.034301303,0.19926545,0.83280236,10.5,24.3,-32.399998
1553852017845,3.3495904999999997,1.23784,9.747093,0.04896207,0.16200268,0.88411504,11.099999,24.18,-32.16
1553852017864,3.3328303999999997,0.95531565,9.696813,0.023916595,-0.038361114,0.9824644,11.7,24.24,-32.28
1553852017884,3.3328303999999997,0.75659084,9.593859,0.059957645999999996,-0.1758058,1.0606551000000002,12.719999000000001,23.939999,-32.88
1553852017904,3.15326,0.7685622,8.930645,0.1558635,-0.13976474,1.1150221000000002,13.38,23.82,-32.399998
1553852017924,3.5267668,0.82123625,9.040782,0.27192790000000006,0.06976203,1.2500234,13.32,23.039998999999998,-31.98
1553852017945,3.1795970000000002,1.1492518999999999,9.486116,0.31224498,0.027612332000000003,1.2457473,13.679998999999999,22.38,-32.34
1553852017964,2.8013015,1.498816,9.079089999999999,0.39226833,0.023336272999999998,1.1950454,14.34,21.9,-32.579997999999996
1553852017985,2.5331428,1.0582695,9.761458,0.37638584,-0.13304523,1.020338,14.7,21.24,-33.0
1553852018004,2.19555,0.7996878000000001,9.296969,0.25543449999999995,-0.44397566,0.8285263,15.299999,20.64,-33.059998
1553852018025,1.9106313000000001,0.7302538000000001,8.236305,0.14120273,-0.2478879,0.6446559000000001,16.32,20.82,-33.12
1553852018044,2.2218869999999997,0.32083282,8.394327,0.04896207,0.027612332000000003,0.40764013,16.199999,21.06,-33.96
1553852018064,2.3942747000000004,0.34956414,8.636149000000001,-0.01762224,0.03677531,0.22010452,15.42,20.46,-34.38
1553852018084,2.7677817000000005,0.37590113,8.743892,-0.070767514,0.005010317,0.056392635999999996,16.02,20.1,-33.719997
1553852018104,2.9066495999999997,0.28970724,8.442213,-0.09398039400000001,-0.023700349,-0.108540975,16.68,19.92,-34.5
1553852018125,2.8779182,0.30646718,8.621783,-0.09275867,-0.032863326,-0.33395025,16.199999,20.16,-34.44
1553852018144,2.9473522,0.6057515,8.504464,-0.11902587,0.015395027,-0.48422313,15.66,20.16,-33.18
1553852018165,3.1843855,0.8044763,9.071907000000001,-0.050608963,0.06792944,-0.5856267,15.66,20.039998999999998,-33.66
1553852018184,3.8883023000000003,1.0343267,9.624985,0.10699427,0.21942401,-0.44207340000000006,14.58,20.4,-33.899998
1553852018205,5.4804949999999995,0.21309046,9.850046,0.19984578,0.45155284,0.105261855,14.639999,20.699999,-33.6
1553852018224,4.771789599999999,-0.7039168,9.981731,0.24382807,0.032499254,0.11931176,15.54,20.939999,-33.54
1553852018245,3.3567734,1.3862851,9.081485,0.07034235400000001,-0.8184359999999999,-0.14824723,15.78,20.52,-33.42
1553852018264,2.2793495999999998,2.5283542000000003,8.310528,-0.20332527,-0.53132933,-0.2905788,16.08,20.039998999999998,-34.079997999999996
1553852018284,1.0822121999999998,0.44294083,9.172467,-0.27601826,0.18521556,-0.45306897,15.48,20.34,-34.2
1553852018305,1.132492,-0.97446984,8.935433,-0.06526973,0.37336206,-0.7023020000000001,15.42,20.82,-33.66
1553852018324,1.5490957,0.17238778,8.739103,-0.053052425,0.13634634,-0.8263075999999999,14.88,21.0,-33.78
1553852018345,2.7246847,1.9680939,9.58907,-0.06526973,-0.2002404,-0.66565007,14.519999499999999,21.119999,-34.079997999999996
1553852018364,4.0199876,2.6815877,9.783007000000001,0.08133793,-0.2546074,-0.38281947,14.88,21.539998999999998,-34.14
1553852018384,4.9274178,2.6456738,9.699207000000001,0.20961963,-0.20085128,-0.15863192,14.16,21.96,-34.14
1553852018404,5.0806512999999995,1.8747171000000002,9.543579,0.23955204,-0.23750319,-0.026074173,13.679998999999999,21.9,-34.32
1553852018424,4.6544704,1.0199611,8.786988000000001,0.22428040000000002,-0.20451647,0.006301685699999999,13.679998999999999,21.48,-34.14
1553852018445,4.3599744000000005,0.6105401,8.226728,0.18701762,-0.029198138,-0.004083023,13.62,21.42,-34.14
1553852018465,4.2258949999999995,0.77574503,8.356019,0.16197214,0.11435519,-0.013856866,12.9,21.42,-34.079997999999996
1553852018484,4.0822387,1.5562786,8.736709,0.15342003,0.15894836,0.006912550999999999,12.96,21.539998999999998,-33.84
1553852018504,4.06069,2.2625897,9.138947,0.13937013,0.19498941,0.04539706,13.559999,21.24,-34.2
1553852018524,3.9601305,2.5139885,9.308941,0.12959628,0.19926545,0.091822825,13.2,21.06,-34.98
1553852018544,3.7278860000000003,2.2985039,9.330489,0.12470936,0.19376768,0.13030733,13.2,20.82,-34.92
1553852018565,3.2538195,1.9202085,9.419077,0.11004860000000001,0.10763568400000001,0.1290856,14.4,19.8,-33.96
1553852018584,2.7222904999999997,2.0351336,9.253872,0.07339668,0.048992615,0.11014878,14.7,19.68,-33.96
1553852018604,2.5044115000000002,2.1979442000000002,9.043175999999999,0.04285342,0.08320106599999999,0.10770532,14.519999499999999,20.52,-34.68
1553852018624,2.578634,2.0638650000000003,8.892337,0.06850976,0.11557693,0.104651,14.759998999999999,20.58,-34.32
1553852018644,2.7390504,1.8723229,8.9186735,0.0941661,0.05693386,0.077772915,14.34,20.1,-33.719997
1553852018664,2.9377751,1.7741576000000001,8.976136,0.056292452,-0.030419867000000003,0.046618793,14.099998999999999,19.859999,-33.78
1553852018685,3.100586,1.6448668000000002,8.973742,9.285152e-05,-0.051189285,0.019129856,14.82,20.1,-33.899998
1553852018704,3.1269228,1.5179702,8.968952999999999,-0.017011376,-0.02125689,-0.009580811,15.36,20.1,-34.38
1553852018724,3.1221343999999998,1.376708,9.009656,-0.0035723401000000003,-0.017591698,-0.052341375,15.059999,19.98,-34.739998
1553852018745,3.1269228,1.350371,9.088667,-0.008459262,-0.049356687999999996,-0.09021502,14.639999,19.859999,-34.62
1553852018764,3.15326,1.3455825000000001,9.165284,-0.024341757999999998,-0.07684562,-0.124423474,14.639999,20.279999,-34.559998
1553852018785,3.2155110000000002,1.403045,9.074302000000001,-0.048165504000000005,-0.05851967,-0.14885810000000002,14.4,20.34,-34.739998
1553852018804,3.2969165,1.4581133,9.09585,-0.058550213,-0.0316416,-0.15496674,14.219999,19.98,-34.68
1553852018824,3.4166303,1.4341706,9.215564,-0.053052425,-0.04813496,-0.15802108,14.16,20.4,-34.14
1553852018844,3.4118416,1.733455,9.100638,-0.041445985,-0.05424361,-0.14397116,13.5,20.76,-34.02
1553852018865,3.3352248999999996,1.8052831999999999,9.100638,-0.043889448,-0.042637173,-0.10976271,13.32,20.76,-34.32
1553852018884,3.3495904999999997,1.7885233,9.038387,-0.0341156,-0.03652852,-0.088993296,13.44,20.76,-34.559998
1553852018904,3.4908525999999998,1.6855695,9.043175999999999,-0.023730893,-0.009039585,-0.06089349,13.98,20.34,-33.84
1553852018924,3.5219781,1.7765520000000001,9.024022,-0.007848397,-0.016369967,-0.025463307,14.28,20.279999,-33.36
1553852018944,3.5315554,1.7621863000000002,9.052753,0.0055906385999999995,-0.02614381,-0.003472158,13.38,20.34,-33.78
1553852018964,3.5363437999999996,1.908237,9.064724,-0.008459262,-0.020035159,0.03195803,13.62,20.46,-33.84
1553852018985,3.562681,1.7717633000000002,9.038387,-0.02678522,0.0013451253,0.07349686,13.98,21.18,-34.02
1553852019004,3.5602864999999997,1.5658557,9.124581,-0.018843971,0.026390601,0.09670974,13.86,21.119999,-33.84
1553852019025,3.5890178999999995,1.4796618000000001,9.14613,-0.0005180137,0.031277522,0.12236608,13.86,21.119999,-33.36
1553852019044,3.5315554,1.376708,9.165284,0.015975347,0.011729835,0.13397253,13.559999,21.48,-34.32
1553852019065,3.4597269999999996,1.3886794,9.126975999999999,0.031246978999999998,-0.00048747047999999997,0.1413029,13.38,21.06,-35.399998
1553852019084,3.3759273999999997,1.4341706,9.134158,0.038577362999999996,0.00073426,0.15229848,13.98,21.06,-34.8
1553852019105,3.2801563999999996,1.515576,9.205987,0.041631687,-0.0041526617,0.16573752,14.099998999999999,20.64,-33.66
1553852019124,3.2083282000000004,1.5754328000000002,9.26345,0.030636115,-0.029809002,0.18223087,13.32,19.92,-33.42
1553852019144,3.1652312,1.5897985000000001,9.148524,0.018418808000000002,-0.049356687999999996,0.19200471,13.5,19.92,-33.96
1553852019164,3.0646717999999997,1.5730386,9.035994,0.0019254473000000002,-0.07867822,0.18650693,13.86,20.46,-34.02
1553852019185,3.0263633999999997,1.5562786,8.966559,-0.012735318,-0.117162734,0.17917654,14.16,20.34,-34.5
1553852019204,3.014392,1.6496553,8.913885,-0.039002527,-0.114108406,0.15962885,13.92,20.039998999999998,-34.26
1553852019225,3.100586,1.7190893,8.892337,-0.058550213,-0.10922148,0.14435723,13.86,20.22,-33.12
1553852019244,3.2179053,1.7597919999999998,8.870789,-0.054885022,-0.08356514599999999,0.13885945,13.92,19.92,-34.2
1553852019264,3.4190245000000004,1.5874043,8.863605499999998,-0.05610675,-0.07745649,0.105261855,13.74,19.98,-35.1
1553852019285,3.6943660000000005,1.4269878,8.796566,-0.07748704,-0.1037237,0.049062252,13.86,20.1,-34.32
1553852019304,3.7638,1.3791022,8.633755,-0.09581299,-0.06951524,-0.008969945,13.92,20.039998999999998,-33.899998
1553852019325,3.7446458,1.2593886,8.684034,-0.101310775,0.005010317,-0.051119648,13.679998999999999,19.32,-34.26
1553852019344,3.8523881,1.0750294,8.844451,-0.09031521,0.07403809,-0.06822388,13.98,19.5,-34.8
1553852019364,3.9313992999999994,0.9696813,9.055147,-0.054274153,0.07281636,-0.07983031,13.74,20.279999,-34.32
1553852019385,3.8883023000000003,1.0558752,9.122187,-0.031672142,0.08686626,-0.076165125,14.16,20.1,-33.78
1553852019404,3.7949257000000003,1.1803774999999999,9.143736,-0.018233107,0.10763568400000001,-0.06333695,14.759998999999999,20.34,-34.44
1553852019425,3.677606,1.2953026,9.268238,-0.0017397442000000002,0.10702481,-0.0431784,14.82,20.76,-34.68
1553852019444,3.624932,1.3575538,9.3280945,0.0025363127,0.08686626,-0.03279369,14.46,20.46,-34.079997999999996
1553852019464,3.5195839999999996,1.4844503,9.093455,-0.0005180137,0.075870685,0.009966876999999999,13.92,20.16,-34.44
1553852019485,3.562681,1.6089526,8.889942,-0.013346183999999999,0.16566788,0.05211658,13.86,20.699999,-35.219997
1553852019504,3.5243726000000004,1.5538843999999998,9.004868,-0.022509163,0.21759142,0.08754676,13.86,21.06,-35.04
1553852019524,3.4046587999999995,1.6257126,9.177256,-0.017011376,0.16444615,0.13763770000000003,14.16,20.88,-34.079997999999996
1553852019544,3.3591676,1.6568381999999997,9.316123,-0.022509163,0.11802038599999999,0.20544375,14.4,21.18,-33.48
1553852019564,3.2873392,1.637684,9.220352,-0.035948195,0.07648155,0.25858903,15.12,20.88,-33.18
1553852019584,3.172414,1.5299416000000001,9.076694999999999,-0.040224254,0.058155593,0.2891323,15.059999,20.52,-33.78
1553852019604,3.0766432,1.1444633,9.117398,-0.01395705,0.039829633999999996,0.2720281,15.059999,20.58,-34.2
1553852019624,3.0048149,0.87630457,9.050359,-0.0017397442000000002,0.028223196000000002,0.22621319,14.88,20.58,-34.02
1553852019644,2.997632,0.7326481,8.985713,0.0007037167699999999,0.047770884000000007,0.16695924,14.7,20.34,-33.78
1553852019665,3.0957972999999996,0.8236305,9.019233,-0.0041832053,0.06792944,0.094877146,14.639999,19.92,-33.96
1553852019684,3.2226939999999997,1.0175668,9.093455,-0.0060158009999999994,0.0807576,0.033179756,14.7,20.4,-34.26
1553852019704,3.3088877,1.0965778999999998,9.184438,0.0007037167699999999,0.09297491599999999,-0.0022504274,14.82,20.46,-34.079997999999996
1553852019724,3.3304362000000003,1.1013663999999999,9.182044,0.021473136,0.07281636,-0.030961093999999998,15.48,20.1,-33.12
1553852019744,3.294522,0.98404694,9.119793,0.038577362999999996,0.046549152999999996,-0.06883474,16.619999,19.859999,-32.579997999999996
1553852019765,3.1939626,0.88109314,9.026416000000001,0.041020826,0.03555358,-0.1293104,16.859999,19.98,-32.94
1553852019784,3.1245286,0.8978530999999998,8.980925,0.027581787000000003,0.06609684,-0.18123394,16.68,19.92,-33.42
1553852019804,3.1795970000000002,1.0822121999999998,8.9186735,0.013531887,0.08381194,-0.20994459999999998,16.02,19.8,-33.12
1553852019825,3.2442424,1.2450229,9.122187,0.0086449655,0.07953587,-0.20627941,15.42,19.98,-32.7
1553852019844,3.4142358,1.4102278999999998,9.316123,0.003758043,0.06059905,-0.19222952,15.599998999999999,20.82,-32.94
1553852019865,3.3615617999999996,1.4533247999999999,9.522031,-0.011513588,0.028223196000000002,-0.17329270000000002,15.54,21.3,-33.0
1553852019884,3.1460772,1.4198049,9.5483675,-0.018843971,-0.032252464,-0.1781796,15.059999,20.52,-33.12
1553852019904,3.0239692000000002,1.4940275,9.3831625,-0.035948195,-0.07134784,-0.17756876,15.179998999999999,20.16,-33.719997
1553852019924,2.9018610000000002,1.6951466,9.320911,-0.035948195,-0.06401746,-0.16779491,15.36,20.64,-33.6
1553852019944,2.9952377999999995,1.802889,9.368797,-0.012735318,-0.05180015,-0.14458203,15.24,20.4,-34.02
1553852019965,3.2466366,1.8651401,9.296969,-0.006626666,-0.09761504,-0.09876714,15.24,20.16,-34.14
1553852019984,3.4022646,1.6999351000000003,9.134158,0.0055906385999999995,-0.14037561,-0.056617435,15.059999,20.64,-33.78
1553852020005,3.4238129,1.5874043,8.992896,0.006812369499999999,-0.13976474,-0.03157196,15.059999,20.939999,-34.44
1553852020024,3.4357843,1.489239,9.04557,0.007423234599999999,-0.09761504,0.001414764,14.82,20.88,-34.26
1553852020045,3.5602864999999997,1.4844503,9.196409,0.009866696,-0.053632747,0.05333831,14.7,21.119999,-34.559998
1553852020064,3.677606,1.5059988000000002,9.261055,0.017197078,-0.05057842,0.1009858,14.46,21.3,-34.44
1553852020085,3.5243726000000004,1.3886794,9.1628895,0.031246978999999998,-0.08417601,0.11625743,14.639999,20.22,-33.899998
1553852020104,3.205934,1.2546,8.935433,0.03979909,-0.09089552599999999,0.094877146,15.12,19.92,-34.079997999999996
1553852020125,2.9090437999999996,1.0941836,8.894731,0.025138326000000003,-0.06096313,0.047840524,14.519999499999999,20.46,-34.14
1553852020144,2.8587642000000004,1.0798178999999999,8.968952999999999,0.003758043,-0.031030732999999998,0.006301685699999999,14.04,20.4,-33.6
1553852020165,2.954535,1.1037607,9.093455,-0.0060158009999999994,-0.0023200663,-0.00835908,14.04,20.34,-33.36
1553852020184,3.2274826,1.1564348,9.196409,0.02086227,-0.023700349,-0.0046938885999999996,14.4,20.58,-33.6
1553852020204,3.3759273999999997,1.2162915,9.182044,0.042242552999999995,-0.04813496,-0.0046938885999999996,14.34,20.52,-33.96
1553852020224,3.371139,1.2665714,9.074302000000001,0.046518613,-0.061573993,-0.004083023,14.759998999999999,20.46,-34.26
1553852020244,3.3615617999999996,1.3000913,8.978531,0.04285342,-0.042637173,-0.005304754,15.599998999999999,20.4,-34.32
1553852020264,3.347196,1.3431882,8.909097000000001,0.03918823,-0.021867754,-0.019965518,15.0,20.46,-34.8
1553852020284,3.3855044999999997,1.5012103,8.899519999999999,0.03552304,-0.006596123000000001,-0.027906768,13.86,20.22,-34.739998
1553852020304,3.4381785000000002,1.6161355,9.004868,0.021473136,-0.0041526617,-0.026074173,14.099998999999999,19.68,-34.2
1553852020324,3.4716985,1.7023293999999998,9.052753,0.0049797734,-0.00048747047999999997,-0.018743789,14.759998999999999,19.74,-34.02
1553852020344,3.493247,1.7047237000000002,9.079089999999999,-0.015178779,0.005010317,-0.009580811,14.519999499999999,19.98,-33.96
1553852020365,3.493247,1.5921928,9.038387,-0.024952624,0.010508103999999999,0.001414764,14.34,20.46,-34.26
1553852020384,3.5339496,1.5203645000000001,9.052753,-0.022509163,0.0037885862,0.008745147,15.0,21.0,-34.14
1553852020404,3.5842294999999997,1.4365649,9.086273,-0.011513588,-0.01331564,0.018518991999999998,15.54,20.52,-33.719997
1553852020425,3.5339496,1.4150163999999998,9.122187,-0.00479407,-0.023700349,0.019740721,15.059999,19.8,-34.32
1553852020444,3.4262072999999997,1.3551594999999999,9.14613,-0.007848397,-0.034695923,0.020962453,14.58,20.34,-34.5
1553852020465,3.3519847,1.350371,9.126975999999999,-0.0060158009999999994,-0.0316416,0.019129856,14.82,20.64,-34.5
1553852020484,3.2825508,1.2953026,9.028810499999999,-0.010902723000000001,0.005010317,0.016686395,14.7,20.34,-34.32
1553852020504,3.3160705999999998,1.2641771000000002,9.035994,-0.007848397,0.017838487,0.013632068,14.28,20.34,-34.92
1553852020525,3.397476,1.2809371,9.091061999999999,-0.006626666,0.009897239,0.009356013,13.92,20.279999,-35.16
1553852020544,3.4190245000000004,1.3096683,9.148524,-0.007237531700000001,-0.007817853,0.006301685699999999,13.98,20.64,-34.26
1553852020564,3.397476,1.3575538,9.117398,-0.006626666,-0.02125689,0.002025629,14.099998999999999,20.76,-34.079997999999996
1553852020584,3.337619,1.3958621999999998,9.050359,-0.0023506095,-0.012704776000000001,0.002025629,13.86,20.4,-34.68
1553852020604,3.3591676,1.403045,9.04557,-0.007848397,-0.0041526617,0.001414764,14.34,20.34,-34.44
1553852020624,3.3902931000000005,1.3719195,9.052753,-0.0029614746999999998,-0.015759101,0.0026364942999999997,14.4,20.76,-33.66
1553852020644,3.3950818,1.4293821000000002,9.024022,0.003758043,-0.019424293000000002,0.003858225,14.519999499999999,20.82,-33.78
1553852020665,3.4357843,1.4102278999999998,8.988108,-0.0017397442000000002,-0.0029309313,0.005079956,14.58,20.46,-33.6
1553852020684,3.4812756,1.4245936000000001,9.033599,-0.011513588,0.015395027,0.008745147,14.34,20.34,-33.719997
1553852020704,3.493247,1.4198049,9.043175999999999,-0.007848397,0.008064643,0.012410338,13.74,20.46,-34.62
1553852020724,3.4645156999999998,1.3886794,9.12937,-0.0041832053,0.0068429126,0.020962453,13.679998999999999,20.64,-34.739998
1553852020744,3.45015,1.3791022,9.107821000000001,-0.008459262,0.006232046999999999,0.022184184,13.92,20.279999,-34.2
1553852020765,3.440573,1.3934678999999999,9.134158,-0.01762224,0.005010317,0.025238508,13.86,19.92,-34.02
1553852020784,3.4262072999999997,1.3982565,9.074302000000001,-0.01640051,0.010508103999999999,0.030736296,14.34,20.1,-34.62
1553852020804,3.407053,1.4006507,9.035994,-0.007848397,0.005621182,0.027071103,14.7,20.64,-35.34
1553852020824,3.397476,1.4269878,9.031203999999999,-0.0029614746999999998,0.00073426,0.03256889,14.759998999999999,21.0,-35.34
1553852020844,3.4238129,1.4102278999999998,9.059936,-0.0017397442000000002,-0.0047635273,0.034401483999999996,14.219999,20.52,-34.86
1553852020864,3.4621215,1.3479767,9.093455,-0.0035723401000000003,-0.01331564,0.034401483999999996,14.099998999999999,20.58,-33.719997
1553852020885,3.476487,1.2953026,9.076694999999999,-0.0060158009999999994,-0.015148236,0.03195803,14.759998999999999,21.06,-33.96
1553852020904,3.4716985,1.2354459,9.117398,-0.0029614746999999998,-0.023089485,0.025849372000000002,14.759998999999999,20.88,-35.1
1553852020924,3.4573328,1.1708003,9.035994,9.285152e-05,-0.019424293000000002,0.019740721,14.4,20.88,-35.04
1553852020944,3.46691,1.1947431999999998,8.995291,-0.0041832053,-0.006596123000000001,0.008745147,14.34,20.82,-35.04
1553852020965,3.4477558,1.1803774999999999,9.059936,-0.006626666,0.013562431000000002,-0.00041783185,13.86,20.1,-34.44
1553852020984,3.4740927000000004,1.2354459,9.076694999999999,-0.00479407,0.027001465,-0.0046938885999999996,13.86,20.16,-34.26
1553852021005,3.4812756,1.2569941999999998,9.040782,0.0043689082,0.019060217,-0.008969945,14.28,20.52,-34.68
1553852021024,3.4238129,1.3072741,9.002473,0.007423234599999999,0.018449353,-0.015078598,14.219999,20.1,-34.26
1553852021044,3.3902931000000005,1.3838909,9.009656,0.0043689082,0.039829633999999996,-0.011413406999999999,14.16,20.1,-34.62
1553852021064,3.3926873,1.4006507,9.050359,0.0013145820000000001,0.044105694,-0.011413406999999999,14.28,20.4,-34.8
1553852021085,3.397476,1.359948,9.107821000000001,0.009866696,0.029444927000000003,-0.016300328,14.219999,20.88,-34.2
1553852021104,3.3639562000000005,1.3479767,9.131764,0.0025363127,0.010508103999999999,-0.016300328,14.46,20.82,-34.079997999999996
1553852021124,3.3136763999999994,1.3886794,9.11261,-0.0035723401000000003,0.011118969,-0.019965518,14.46,20.4,-33.84
1553852021144,3.3160705999999998,1.3838909,9.117398,-0.007237531700000001,0.020281948,-0.013856866,14.519999499999999,20.16,-34.02
1553852021164,3.3400133000000003,1.4006507,9.155706,0.0086449655,-0.0029309313,-0.013246003000000001,14.58,20.88,-34.559998
1553852021185,3.3591676,1.4078336,9.141341,0.00925583,-0.02125689,-0.004083023,14.04,20.76,-34.559998
1553852021205,3.3807160000000005,1.3838909,9.086273,0.0031471776,-0.024311215,-0.00041783185,14.639999,20.34,-34.62
1553852021224,3.4166303,1.350371,9.055147,-0.0005180137,-0.019424293000000002,0.003858225,15.54,20.039998999999998,-34.68
1553852021245,3.4429672,1.3216397,9.038387,0.0049797734,-0.015759101,0.00446909,14.519999499999999,19.619999,-34.62
1553852021264,3.4645156999999998,1.3264283000000001,9.067119,0.012921021000000001,-0.02125689,0.002025629,13.86,20.1,-34.92
1553852021284,3.4788813999999997,1.3575538,9.076694999999999,0.0019254473000000002,-0.02125689,0.006912550999999999,14.28,20.64,-34.8
1553852021304,3.4980354,1.3743136999999999,9.091061999999999,-0.0029614746999999998,-0.015148236,0.0075234165,14.099998999999999,20.82,-33.96
1553852021324,3.4836697999999995,1.2976969999999999,9.062330000000001,0.0043689082,-0.01087218,0.003858225,13.98,20.4,-34.44
1553852021344,3.4381785000000002,1.2953026,9.040782,0.003758043,-0.01087218,-0.004083023,14.04,20.46,-34.44
1553852021365,3.4429672,1.3455825000000001,9.009656,-0.0005180137,-0.0035417966999999996,-0.0046938885999999996,13.5,20.52,-33.96
1553852021384,3.46691,1.3312168,9.052753,0.0013145820000000001,0.011118969,-0.006526484599999999,13.74,20.52,-34.079997999999996
1553852021404,3.4740927000000004,1.359948,8.985713,0.003758043,0.012340700000000001,-0.0046938885999999996,14.759998999999999,20.58,-33.6
1553852021425,3.4549387,1.3360053,9.062330000000001,0.0019254473000000002,0.017227621999999998,-0.0046938885999999996,14.4,20.4,-33.78
1553852021444,3.4309957000000004,1.3695252,9.105427,0.0013145820000000001,0.012951565,-0.005915619,13.62,20.699999,-34.079997999999996
1553852021464,3.3926873,1.359948,9.074302000000001,-0.0005180137,0.014173295,-0.005304754,13.5,20.88,-34.02
1553852021485,3.3902931000000005,1.4413534,9.100638,-0.0005180137,0.0068429126,0.0032473598,13.799999,20.279999,-34.26
1553852021504,3.3783216,1.3982565,9.043175999999999,0.0007037167699999999,-0.0041526617,0.005690820500000001,13.74,20.58,-34.68
1553852021524,3.387899,1.3862851,9.043175999999999,-0.0011288789,0.0025668556,0.00446909,14.219999,20.039998999999998,-34.38
1553852021544,3.3807160000000005,1.3743136999999999,9.055147,-0.0011288789,0.005621182,0.0075234165,13.86,20.279999,-33.54
1553852021565,3.3807160000000005,1.3551594999999999,9.035994,-0.0029614746999999998,0.018449353,0.012410338,13.92,20.52,-34.5
1553852021584,3.371139,1.3527653,9.100638,9.285152e-05,0.008675508,0.008745147,14.46,20.699999,-34.98
1553852021604,3.371139,1.3671309,9.11261,9.285152e-05,-0.0023200663,0.011188608999999999,13.92,20.699999,-34.559998
1553852021625,3.3855044999999997,1.3647367,9.088667,-0.0005180137,-0.0047635273,0.009966876999999999,13.98,20.52,-34.14
1553852021644,3.3663504,1.3671309,9.012051,0.0019254473000000002,-0.0047635273,0.012410338,14.519999499999999,21.18,-34.2
1553852021664,3.3926873,1.3719195,9.057542,0.0019254473000000002,0.004399452,0.013632068,14.4,21.119999,-34.68
1553852021685,3.4573328,1.3455825000000001,9.093455,0.003758043,-0.001709201,0.010577743,14.4,20.34,-34.5
1553852021704,3.4716985,1.2976969999999999,9.131764,0.0031471776,-0.0047635273,0.008134281,14.16,20.1,-33.899998
1553852021725,3.4740927000000004,1.2833313,9.126975999999999,0.011699291,0.0019559904,0.005690820500000001,14.04,20.279999,-34.079997999999996
1553852021744,3.4597269999999996,1.2306572,9.126975999999999,0.020251404,0.00012339478,0.003858225,14.46,20.64,-34.92
1553852021765,3.4597269999999996,1.2306572,9.122187,0.03002525,-0.00048747047999999997,0.00019303341,14.7,20.939999,-34.44
1553852021784,3.5171897000000003,1.23784,9.134158,0.043464284000000006,0.00073426,-0.009580811,14.58,20.82,-34.26
1553852021805,3.5411325,1.2354459,9.124581,0.051405534,-0.006596123000000001,-0.015078598,14.28,20.4,-33.78
1553852021824,3.4740927000000004,1.2833313,9.098245,0.055681586,-0.009650448,-0.023019847000000003,13.74,19.74,-33.54
1553852021845,3.4046587999999995,1.376708,9.103033,0.05934678,-0.001709201,-0.019965518,13.44,19.439999,-34.38
1553852021864,3.3424077000000003,1.4700848,8.978531,0.059957645999999996,0.016005892,-0.015078598,14.28,19.439999,-35.04
1553852021884,3.3783216,1.472479,8.9976845,0.057514182999999997,0.018449353,-0.010802541,14.759998999999999,19.32,-34.92
1553852021904,3.3998702000000005,1.5921928,8.945011000000001,0.047129475,-0.0029309313,-0.00041783185,14.219999,19.619999,-34.559998
1553852021924,3.3950818,1.6448668000000002,9.016839,0.03918823,0.0013451253,0.006301685699999999,14.099998999999999,19.5,-34.62
1553852021944,3.4429672,1.664021,9.019233,0.030636115,-0.013926506000000002,0.009356013,14.16,19.56,-34.2
1553852021965,3.4094474000000003,1.6185298000000001,9.002473,0.014142752,-0.01331564,-0.001028697,13.799999,19.98,-34.079997999999996
1553852021984,3.4262072999999997,1.5754328000000002,8.937828,0.003758043,-0.024311215,-0.006526484599999999,13.799999,20.16,-34.38
1553852022005,3.4118416,1.5107874,8.913885,-0.0005180137,-0.018813428,-0.014467731999999999,14.099998999999999,20.279999,-35.219997
1553852022024,3.4046587999999995,1.4652961000000002,9.000079,-0.0011288789,-0.001709201,-0.026685037,14.4,20.16,-34.8
1553852022044,3.4286015,1.4389591,9.043175999999999,-0.010902723000000001,0.009286373,-0.034626286,14.519999499999999,20.22,-33.36
1553852022065,3.4740927000000004,1.3623424,9.091061999999999,-0.018843971,0.014173295,-0.034626286,14.4,20.34,-33.84
1553852022084,3.4525442,1.2953026,9.105427,-0.013346183999999999,0.011118969,-0.033404555,14.34,20.34,-34.92
1553852022104,3.3687446000000003,1.3791022,9.04557,0.0019254473000000002,0.015395027,-0.029739362999999998,13.92,20.76,-35.04
1553852022124,3.337619,1.3910737,9.062330000000001,0.011699291,0.027612332000000003,-0.02118725,13.86,20.699999,-34.5
1553852022145,3.3687446000000003,1.3791022,9.153313,0.0049797734,0.027612332000000003,-0.02363071,14.34,20.039998999999998,-34.8
1553852022164,3.347196,1.4341706,9.155706,0.0019254473000000002,0.019671084,-0.023019847000000003,14.34,20.039998999999998,-34.68
1553852022184,3.3687446000000003,1.4844503,9.165284,0.017807944,0.0013451253,-0.013246003000000001,14.16,19.92,-34.26
1553852022204,3.4453614000000004,1.5227587,9.0838785,0.026360057000000003,-0.012704776000000001,0.00019303341,14.34,19.74,-34.14
1553852022225,3.493247,1.5514901,9.040782,0.022084,-0.015759101,0.003858225,14.28,19.859999,-33.66
1553852022244,3.4860642,1.5730386,8.995291,0.012921021000000001,-0.015148236,0.009966876999999999,14.16,19.14,-34.26
1553852022265,3.5171897000000003,1.5634614,8.985713,0.0043689082,-0.009039585,0.009966876999999999,14.16,19.199999,-34.86
1553852022284,3.5195839999999996,1.5323358999999999,8.976136,0.0043689082,-0.009039585,0.012410338,14.759998999999999,19.92,-34.44
1553852022304,3.5147953000000003,1.5203645000000001,9.000079,0.0025363127,-0.009039585,0.008745147,14.7,20.279999,-34.68
1553852022324,3.440573,1.5658557,9.064724,-0.0041832053,-0.009039585,0.009356013,14.16,20.46,-34.5
1553852022345,3.407053,1.5371244,9.093455,-0.006626666,-0.0047635273,0.014853798999999999,14.099998999999999,20.46,-34.32
1553852022364,3.4549387,1.5227587,9.057542,-0.01395705,-0.009650448,0.011188608999999999,14.099998999999999,20.4,-34.86
1553852022385,3.4884584000000003,1.5443072,9.007261999999999,-0.021898296,-0.008428719,0.009966876999999999,13.679998999999999,20.34,-34.559998
1553852022404,3.5219781,1.5275473999999998,9.071907000000001,-0.026174355,-0.006596123000000001,0.014242933999999999,13.259998999999999,19.8,-34.32
1553852022424,3.4429672,1.4629020000000001,8.990502000000001,-0.025563488,-0.001709201,0.018518991999999998,14.04,19.8,-34.5
1553852022444,3.3759273999999997,1.4245936000000001,9.031203999999999,-0.021287432000000002,-0.00048747047999999997,0.021573316000000002,14.099998999999999,19.619999,-34.8
1553852022465,3.3615617999999996,1.4221992,9.110215,-0.020065702,-0.01209391,0.020351587,14.219999,20.039998999999998,-35.219997
1553852022484,3.3424077000000003,1.446142,9.189227,-0.0341156,-0.03408506,0.019740721,14.58,20.279999,-34.44
1553852022505,3.3136763999999994,1.4772675,9.222747,-0.054274153,-0.05424361,0.016686395,14.639999,19.859999,-34.079997999999996
1553852022524,3.2705792999999996,1.4868447,9.208381,-0.062215402999999996,-0.07745649,0.018518991999999998,13.86,20.039998999999998,-34.14
1553852022544,3.2466366,1.515576,9.105427,-0.054885022,-0.11349754,0.02646024,13.74,20.1,-34.739998
1553852022564,3.354379,1.4796618000000001,9.055147,-0.048165504000000005,-0.14159733,0.03928841,14.16,20.22,-34.86
1553852022585,3.5315554,1.4126221,9.014444000000001,-0.044500314000000006,-0.14342993,0.038677542999999995,14.04,20.039998999999998,-34.559998
1553852022604,3.5890178999999995,1.3264283000000001,9.040782,-0.043889448,-0.13060176,0.036844946,14.04,20.1,-34.86
1553852022625,3.5171897000000003,1.1468576000000001,9.067119,-0.021898296,-0.11838446,0.038677542999999995,13.74,20.34,-35.219997
1553852022644,3.4645156999999998,1.0295382,9.059936,0.013531887,-0.11044321,0.04539706,13.44,20.34,-35.1
1553852022664,3.4573328,1.0534808999999998,8.92825,0.032468706,-0.10799976,0.03623408,13.92,20.34,-34.8
1553852022684,3.6033835,1.1157321000000002,8.906702000000001,0.032468706,-0.07318044,0.029514564,14.04,20.22,-35.16
1553852022704,3.8188684,1.1205206,8.954588000000001,0.038577362999999996,-0.052411016,0.01729726,13.98,20.279999,-34.92
1553852022725,4.024776,1.0558752,8.887547999999999,0.037966497,-0.042637173,-0.009580811,13.98,20.039998999999998,-34.86
1553852022744,4.1516724,1.1636176,8.839663,0.023916595,-0.0053743925,-0.016300328,13.559999,19.74,-34.8
1553852022765,4.106180999999999,1.0893950000000001,8.74868,0.015364483,0.025779735,-0.026074173,12.9,20.1,-34.92
1553852022784,3.938582,1.1229149,8.691217,0.014142752,0.05693386,-0.047454458,12.84,20.64,-35.52
1553852022805,3.8092911,1.2881198,8.8324795,0.010477561,0.07709242,-0.062115222000000005,13.139999,20.58,-35.52
1553852022824,3.7302802,1.4652961000000002,9.04557,0.0043689082,0.06120992,-0.06089349,13.2,19.74,-34.26
1553852022845,3.6369035000000003,1.6041641000000002,9.186832,0.010477561,0.02516887,-0.052952245,13.86,19.68,-33.36
1553852022864,3.562681,1.7023293999999998,9.208381,0.025749192,-0.008428719,-0.029739362999999998,14.219999,20.1,-33.96
1553852022885,3.4549387,1.6520496999999998,9.100638,0.047129475,-0.0316416,-0.010191676,14.16,19.38,-34.32
1553852022905,3.3807160000000005,1.664021,8.92825,0.047129475,-0.02125689,0.002025629,13.559999,19.26,-34.079997999999996
1553852022924,3.4094474000000003,1.6233183,8.839663,0.0361339,0.014173295,0.010577743,13.259998999999999,19.98,-34.14
1553852022945,3.5339496,1.6137413,8.825297,0.026970922999999997,0.032499254,0.013632068,13.86,19.56,-34.26
1553852022964,3.6488747999999998,1.6400781999999998,8.851633999999999,0.022084,0.026390601,0.013632068,13.799999,19.5,-34.32
1553852022984,3.6440864,1.6975409,8.901914,0.023916595,0.017227621999999998,0.013632068,13.139999,19.5,-34.44
1553852023005,3.6584517999999995,1.6927522000000002,8.930645,0.021473136,0.014173295,0.016686395,13.259998999999999,19.68,-34.5
1553852023024,3.6584517999999995,1.664021,8.885154,0.0049797734,0.022725409,0.013632068,13.98,20.16,-34.739998
1553852023045,3.6536633999999997,1.5562786,8.923461999999999,-0.0060158009999999994,0.030055791000000002,-0.001028697,14.519999499999999,19.74,-34.92
1553852023064,3.6560576,1.4389591,8.899519999999999,-0.013346183999999999,0.02150368,-0.020576386000000002,14.639999,20.039998999999998,-35.219997
1553852023085,3.5914123,1.446142,8.911489999999999,-0.025563488,0.017227621999999998,-0.038902342,14.099998999999999,20.1,-35.7
1553852023104,3.5076127,1.4796618000000001,8.956982,-0.027396085,0.024558003999999998,-0.04073494,13.86,19.92,-35.64
1553852023124,3.4908525999999998,1.4341706,8.988108,-0.023120027,0.02883406,-0.035848014,13.98,20.34,-34.68
1553852023144,3.4884584000000003,1.4126221,9.038387,-0.014567914,0.02516887,-0.03157196,13.74,20.4,-34.559998
1553852023165,3.4980354,1.4269878,9.038387,-0.012124454,0.016005892,-0.023019847000000003,13.5,20.22,-34.8
1553852023184,3.5267668,1.4174107,9.074302000000001,-0.012735318,0.017227621999999998,-0.013246003000000001,13.5,19.38,-34.26
1553852023204,3.605778,1.4413534,9.074302000000001,-0.006626666,0.004399452,-0.010802541,13.86,19.859999,-33.84
1553852023224,3.6608462,1.4269878,9.002473,-0.0017397442000000002,0.0013451253,-0.001028697,14.04,20.279999,-34.68
1553852023244,3.6991546000000004,1.4365649,9.002473,0.006201504,0.00012339478,0.0026364942999999997,14.219999,20.039998999999998,-35.46
1553852023264,3.7063375,1.4509305000000001,8.983319,0.0025363127,0.0025668556,0.006912550999999999,14.04,20.22,-35.219997
1553852023284,3.6943660000000005,1.4820561,8.990502000000001,9.285152e-05,0.007453778,0.011188608999999999,13.62,19.98,-34.68
1553852023305,3.675212,1.4796618000000001,8.925857,0.009866696,0.013562431000000002,0.010577743,13.62,20.34,-35.219997
1553852023324,3.6584517999999995,1.4557191,8.942616000000001,0.0043689082,0.017227621999999998,0.006301685699999999,13.38,20.34,-35.399998
1553852023345,3.6081722000000003,1.4389591,9.002473,-0.007237531700000001,0.019060217,0.0026364942999999997,13.679998999999999,20.22,-34.44
1553852023364,3.581835,1.4437478000000001,9.040782,-0.010291858000000001,0.026390601,0.002025629,13.799999,20.58,-34.32
1553852023385,3.562681,1.4557191,9.040782,-0.0023506095,0.022114542999999997,0.006912550999999999,13.559999,20.22,-35.1
1553852023404,3.5483153,1.4533247999999999,9.019233,0.0031471776,0.012951565,0.009356013,13.799999,20.22,-35.34
1553852023425,3.5267668,1.4317763000000001,9.047964,0.0025363127,0.009897239,0.010577743,14.04,20.34,-35.04
1553852023445,3.5076127,1.4317763000000001,9.069513,0.003758043,0.00012339478,0.008134281,13.679998999999999,19.98,-35.399998
1553852023464,3.5171897000000003,1.4485363000000002,9.057542,0.0025363127,-0.006596123000000001,0.005690820500000001,13.679998999999999,20.1,-35.34
1553852023484,3.5411325,1.4652961000000002,8.964165,0.0019254473000000002,-0.0053743925,0.008745147,14.639999,20.82,-34.86
1553852023504,3.5698638,1.4652961000000002,8.952193,0.0019254473000000002,-0.0029309313,0.003858225,13.98,20.22,-34.8
1553852023524,3.5698638,1.4533247999999999,8.971347999999999,-0.0029614746999999998,-0.0041526617,-0.00041783185,13.679998999999999,20.039998999999998,-35.04
1553852023544,3.5602864999999997,1.4557191,8.988108,-0.006626666,-0.001709201,-0.006526484599999999,14.04,19.38,-34.62
1553852023564,3.6033835,1.4629020000000001,8.966559,-0.009070126999999999,0.011729835,-0.005915619,13.86,19.32,-34.8
1553852023584,3.6297207,1.4174107,8.976136,-0.0060158009999999994,0.008064643,-0.010191676,13.559999,20.039998999999998,-34.62
1553852023604,3.6105663999999997,1.4198049,8.947405,-0.007237531700000001,0.004399452,-0.012635137,13.679998999999999,20.46,-34.559998
1553852023624,3.5602864999999997,1.4485363000000002,9.007261999999999,-0.006626666,0.012340700000000001,-0.008969945,13.62,20.699999,-35.34
1553852023645,3.5650752,1.4557191,9.064724,-0.00479407,0.017838487,-0.0016395624,13.559999,20.16,-35.28
1553852023664,3.5315554,1.4221992,9.031203999999999,0.006201504,0.009286373,-0.00041783185,13.559999,20.1,-34.68
1553852023685,3.5531040000000003,1.4006507,8.990502000000001,0.0086449655,0.010508103999999999,0.003858225,13.92,20.1,-34.8
1553852023704,3.529161,1.4533247999999999,8.971347999999999,0.0007037167699999999,0.012340700000000001,0.00446909,14.58,19.8,-34.92
1553852023725,3.5076127,1.4748733,8.961771,-0.0017397442000000002,0.014784161,0.011799472,14.58,19.38,-34.86
1553852023744,3.5435266000000003,1.4509305000000001,9.040782,0.010477561,0.031888388,0.018518991999999998,13.86,19.26,-34.559998
1553852023764,3.6009892999999997,1.4126221,9.007261999999999,0.019029675,0.030666657000000003,0.01607553,14.219999,20.039998999999998,-34.2
1553852023785,3.545921,1.446142,9.079089999999999,0.012921021000000001,0.004399452,0.013632068,14.219999,19.98,-34.44
1553852023804,3.5076127,1.515576,9.067119,0.0031471776,0.014784161,0.014853798999999999,13.38,19.439999,-34.68
1553852023825,3.5339496,1.6041641000000002,8.9976845,-0.007237531700000001,0.038607907000000004,0.025238508,13.679998999999999,19.8,-34.62
1553852023844,3.5578922999999993,1.673598,8.973742,-0.010902723000000001,0.046549152999999996,0.04234273400000001,14.34,20.1,-34.559998
1553852023864,3.581835,1.6065584,9.021627,-0.01395705,0.027001465,0.056392635999999996,14.34,19.56,-34.26
1553852023885,3.6225379,1.5419129999999999,9.064724,-0.022509163,-0.0029309313,0.055170905,14.16,19.439999,-34.2
1553852023904,3.6536633999999997,1.4437478000000001,8.968952999999999,-0.029839545,-0.0029309313,0.060668692,14.099998999999999,20.039998999999998,-34.68
1553852023924,3.624932,1.3024855,9.002473,-0.013346183999999999,0.007453778,0.060668692,14.16,20.16,-34.86
1553852023944,3.6345089999999995,1.2593886,8.942616000000001,0.0019254473000000002,0.02516887,0.056392635999999996,14.4,20.1,-34.8
1553852023964,3.6129606,1.1899546,8.995291,0.011088425,0.027612332000000003,0.04478619599999999,14.34,20.22,-34.86
1553852023984,3.5890178999999995,1.158829,9.064724,0.017197078,0.018449353,0.03256889,13.679998999999999,19.56,-35.16
1553852024004,3.5315554,1.1061549,9.026416000000001,0.023916595,0.02150368,0.008745147,13.2,19.56,-34.68
1553852024024,3.4477558,1.0917894,8.990502000000001,0.025749192,0.032499254,-0.010802541,13.74,20.34,-34.62
1553852024044,3.4262072999999997,1.2210802,9.04557,0.021473136,0.053879537000000005,-0.029739362999999998,14.28,20.46,-34.92
1553852024065,3.4022646,1.2522057,9.086273,0.02086227,0.06365338,-0.04562186,14.7,20.16,-35.28
1553852024084,3.4142358,1.2881198,9.074302000000001,0.025138326000000003,0.053879537000000005,-0.062115222000000005,14.34,19.8,-35.34
1553852024105,3.397476,1.3671309,9.016839,0.021473136,0.034331847,-0.07860858,14.099998999999999,19.38,-34.079997999999996
1553852024125,3.3615617999999996,1.489239,8.947405,0.012310157,0.025779735,-0.08593897,13.92,19.8,-34.32
1553852024144,3.3615617999999996,1.5850098999999997,9.024022,0.019640539,0.019060217,-0.0853281,13.679998999999999,19.8,-34.98
1553852024164,3.3687446000000003,1.6185298000000001,9.043175999999999,0.026360057000000003,0.0019559904,-0.08166291,13.799999,19.8,-34.68
1553852024185,3.3400133000000003,1.664021,9.0838785,0.024527462000000003,-0.019424293000000002,-0.07372166,13.92,19.92,-33.96
1553852024204,3.3687446000000003,1.7526091000000001,9.0838785,0.017807944,-0.025532946,-0.06516955,14.58,20.1,-33.899998
1553852024225,3.407053,1.7693691000000003,9.062330000000001,-0.0005180137,-0.019424293000000002,-0.055395704000000004,14.639999,20.76,-35.34
1553852024244,3.4621215,1.6065584,9.074302000000001,-0.007848397,-0.035917655,-0.032182824,13.74,20.34,-35.579997999999996
1553852024265,3.5004299,1.4413534,9.026416000000001,0.0086449655,-0.04508063599999999,-0.02240898,13.44,19.68,-35.04
1553852024285,3.5387383000000003,1.4245936000000001,8.947405,0.012921021000000001,-0.04813496,-0.03157196,13.259998999999999,19.439999,-34.559998
1553852024304,3.5890178999999995,1.4269878,8.913885,0.007423234599999999,-0.032863326,-0.043789264,14.099998999999999,19.74,-34.5
1553852024324,3.5842294999999997,1.4772675,8.9498,-0.0017397442000000002,-0.013926506000000002,-0.04684359,14.759998999999999,19.38,-34.38
1553852024345,3.6895776,1.4964218,9.009656,-0.0011288789,0.008675508,-0.03706975,14.759998999999999,19.38,-34.559998
1553852024364,3.7183087,1.5083932,9.11261,9.285152e-05,-0.009039585,-0.03706975,14.16,20.039998999999998,-34.8
1553852024385,3.572258,1.4700848,9.086273,0.003758043,-0.03530679,-0.04195667,13.019999499999999,20.1,-34.5
1553852024404,3.4453614000000004,1.498816,9.000079,-0.007237531700000001,-0.018202562,-0.03768061,13.559999,19.859999,-35.04
1553852024424,3.3783216,1.5107874,8.882759,-0.0041832053,0.011118969,-0.034626286,13.799999,19.619999,-35.1
1553852024444,3.397476,1.525153,8.897125,0.009866696,0.02150368,-0.035848014,13.74,19.68,-34.86
1553852024464,3.4525442,1.5897985000000001,8.930645,0.02330573,-0.0029309313,-0.03279369,13.92,19.92,-34.559998
1553852024484,3.510007,1.6855695,8.973742,0.006201504,0.005621182,-0.023019847000000003,13.98,20.22,-33.78
1553852024504,3.6273263,1.6592325,9.019233,-0.015789645,0.018449353,-0.012635137,13.44,20.22,-34.62
1553852024525,3.6297207,1.515576,9.067119,-0.0029614746999999998,0.017838487,-0.0077482144999999995,13.32,19.98,-34.86
1553852024544,3.5938065000000003,1.4317763000000001,9.062330000000001,0.014142752,0.00073426,-0.008969945,13.799999,20.16,-34.68
1553852024564,3.5411325,1.4796618000000001,8.937828,0.0019254473000000002,0.005621182,-0.015689462,14.219999,20.4,-35.1
1553852024585,3.4812756,1.5514901,8.897125,-0.012735318,0.043494828,-0.014467731999999999,13.98,20.34,-34.62
1553852024604,3.46691,1.6017698,8.995291,-0.015178779,0.061820785999999996,-0.005304754,13.74,20.16,-34.14
1553852024624,3.4645156999999998,1.7047237000000002,9.028810499999999,-0.023730893,0.04960348,0.0075234165,14.099998999999999,19.92,-34.26
1553852024644,3.4381785000000002,1.6975409,9.028810499999999,-0.031672142,0.031888388,0.029514564,13.98,20.039998999999998,-34.5
1553852024665,3.4046587999999995,1.5921928,8.992896,-0.046943773,0.016616756,0.046618793,13.5,20.22,-34.02
1553852024684,3.3926873,1.4748733,9.002473,-0.050608963,0.005621182,0.049062252,13.62,20.46,-34.68
1553852024704,3.3663504,1.4916332,9.035994,-0.051830698,0.005621182,0.03562322,13.799999,20.46,-34.8
1553852024724,3.2035396,1.5514901,9.119793,-0.043889448,0.027612332000000003,0.03256889,14.04,20.279999,-34.26
1553852024744,2.9736892999999998,1.6807808999999998,9.186832,-0.036559064,0.022725409,0.046618793,14.7,20.4,-34.38
1553852024764,2.7701759999999997,1.7238779,9.225141,-0.02922868,-0.047524095,0.077772915,14.4,20.46,-33.96
1553852024784,2.8084843,1.6257126,9.153313,-0.019454835,-0.120217055,0.10831618,14.34,20.1,-34.14
1553852024805,3.0263633999999997,1.4964218,9.021627,-0.008459262,-0.122660525,0.13519426,14.28,20.279999,-34.559998
1553852024824,3.3519847,1.4221992,9.016839,-0.0029614746999999998,-0.079289086,0.14985502,14.16,20.46,-34.02
1553852024844,3.7374629999999995,1.3000913,8.978531,-0.00479407,-0.042026307,0.15413107,13.799999,19.92,-33.84
1553852024864,4.010410299999999,1.175589,8.901914,-0.007237531700000001,-0.027365541,0.13763770000000003,13.139999,20.039998999999998,-34.5
1553852024885,4.127730000000001,1.1708003,8.789383,-0.025563488,-0.01087218,0.10159666,12.9,19.92,-34.739998
1553852024904,4.182798,1.2234744,8.791777,-0.032283004,0.017227621999999998,0.072886,13.259998999999999,19.32,-34.14
1553852024924,4.1157584,1.2665714,8.904308,-0.04083512,0.031888388,0.043564465,14.28,19.439999,-34.5
1553852024945,4.005622,1.3527653,8.959375999999999,-0.046943773,0.05693386,0.020351587,14.34,19.859999,-34.8
1553852024964,3.9098508,1.3814965,9.019233,-0.054885022,0.08197934,0.006301685699999999,14.639999,20.58,-34.559998
1553852024985,3.7063375,1.4269878,9.117398,-0.06404800000000001,0.08197934,0.005079956,15.059999,20.699999,-34.38
1553852025004,3.5578922999999993,1.3910737,9.196409,-0.054274153,0.06609684,0.013021204,14.88,19.8,-34.38
1553852025024,3.4908525999999998,1.3192455,9.26345,-0.038391657,0.04716002,0.024016777000000003,14.639999,19.8,-34.38
1553852025044,3.3950818,1.350371,9.174861,-0.024341757999999998,0.040440504,0.043564465,14.82,20.4,-33.84
1553852025064,3.3328303999999997,1.2953026,9.11261,-0.010902723000000001,0.036164444,0.06555562,14.519999499999999,20.1,-33.66
1553852025085,3.2777622,1.2713598999999998,9.115005,-0.0041832053,0.02516887,0.07532946,14.219999,19.92,-33.42
1553852025104,3.2202997000000004,1.2881198,9.057542,0.0007037167699999999,0.022114542999999997,0.08143811,14.759998999999999,20.88,-33.719997
1553852025124,3.2705792999999996,1.3862851,9.016839,0.0019254473000000002,0.03677531,0.09548801,15.059999,21.119999,-34.32
1553852025144,3.3400133000000003,1.3862851,9.136553,0.0019254473000000002,0.041051365,0.104651,14.519999499999999,20.64,-34.26
1553852025164,3.4094474000000003,1.3024855,9.201198,0.012310157,0.020281948,0.09976407,14.28,20.46,-34.44
1553852025184,3.4573328,1.2138973,9.481328,0.032468706,-0.01209391,0.07838378,15.179998999999999,20.4,-34.32
1553852025205,3.3064934999999998,1.2138973,9.538791,0.102107346,-0.017591698,0.042953603,15.12,20.82,-34.14
1553852025224,3.4118416,1.7669748,9.517242,0.19923492,0.023336272999999998,0.0851033,14.88,20.22,-34.62
1553852025245,3.5147953000000003,1.4964218,8.956982,0.25604537,-0.2759877,0.13519426,14.88,19.68,-34.14
1553852025264,3.1484714,1.5969813,8.55235,0.25543449999999995,-0.26743558,0.11503569999999999,14.34,19.98,-33.899998
1553852025284,3.6177492,1.2785428,8.55235,0.17235686,-0.09639331,0.06250129,14.28,19.68,-34.079997999999996
1553852025304,3.816474,0.98404694,8.4230585,0.042242552999999995,-0.0072069885,-0.030350229,14.639999,19.26,-33.899998
1553852025324,3.7422516000000003,0.73743665,8.317711,-0.0041832053,0.04838175,-0.12747781,14.58,19.14,-34.92
1553852025345,3.7350687999999996,0.7853220999999999,8.763046000000001,-0.012124454,0.06792944,-0.20078163,14.58,19.26,-35.219997
1553852025365,3.6919718,1.1660118,9.126975999999999,0.03552304,0.031888388,-0.22888143,14.82,19.619999,-35.219997
1553852025385,3.5746522000000005,1.3743136999999999,9.150917999999999,0.08989005,0.019671084,-0.22338365,14.759998999999999,19.56,-35.16
1553852025404,3.4118416,1.1348863,8.897125,0.08805745,0.030055791000000002,-0.21238808,14.519999499999999,19.68,-34.86
1553852025424,3.4549387,1.0271438,8.454185,0.048351205999999994,0.087477125,-0.21299893,14.219999,20.1,-34.98
1553852025444,3.8092911,1.3623424,8.336864,-0.04083512,0.23591737,-0.19284038,14.58,19.619999,-34.68
1553852025466,3.806897,1.7119064,9.198803999999999,-0.16850595,0.32021679999999997,-0.21055548,15.059999,19.56,-34.92
1553852025484,3.4956412000000006,1.8579572,9.380769,-0.22104037,0.31044292,-0.25759210000000005,15.48,19.92,-34.8
1553852025505,3.0431232,1.5850098999999997,9.155706,-0.19599488,0.29944736,-0.27775064,15.42,19.56,-34.44
1553852025524,2.8803127,1.7885233,9.186832,-0.1904971,0.19865460000000001,-0.25637037,14.82,19.439999,-34.44
1553852025544,2.7510218999999996,2.0782306,9.502875999999999,-0.19416229999999998,0.054490402,-0.18001221,15.0,19.439999,-34.14
1553852025564,2.7031362,2.3775147999999997,9.586677,-0.13307577,-0.051189285,-0.062115222000000005,14.46,19.8,-34.02
1553852025584,2.6073654,2.1476645,9.402317,-0.101310775,-0.04324804,0.035012352999999996,13.679998999999999,20.52,-34.14
1553852025605,2.7773588,1.7933118000000001,9.064724,-0.11597154,-0.032863326,0.09854233,13.98,20.82,-34.739998
1553852025624,2.9329867000000003,1.333611,8.942616000000001,-0.14407136,-0.04446977,0.122976944,14.759998999999999,20.64,-34.739998
1553852025645,3.1676257000000003,1.1875603000000001,8.76544,-0.15995385,-0.04019371,0.12236608,14.82,20.64,-33.96
1553852025664,3.4309957000000004,1.2665714,8.825297,-0.16850595,0.032499254,0.1132031,14.88,21.18,-33.96
1553852025684,3.4908525999999998,1.2641771000000002,9.021627,-0.19660576,0.0966401,0.10220753,15.12,20.939999,-33.36
1553852025704,3.4309957000000004,1.3192455,9.387952,-0.22287296,0.05998819,0.10831618,14.46,20.46,-32.88
1553852025725,3.2873392,1.4054393,9.562733999999999,-0.21554258,0.011729835,0.13458338,14.46,20.58,-34.02
1553852025744,3.0790374,1.4341706,9.624985,-0.16728422,-0.053632747,0.18223087,14.94,21.18,-34.8
1553852025765,2.9258040000000003,1.3958621999999998,9.47654,-0.08603915,-0.13243435,0.22499144,15.48,20.76,-34.2
1553852025784,2.9042554,1.2043202,9.390346000000001,-0.03350474,-0.18435791,0.23965219999999998,15.059999,20.82,-32.94
1553852025805,2.9952377999999995,1.0079896000000002,9.256267,-0.021287432000000002,-0.17030801,0.2524804,14.7,21.24,-32.52
1553852025824,3.2538195,0.9529214,9.069513,-0.04205685,-0.15686898,0.24637173,14.4,20.76,-33.239998
1553852025844,3.5578922999999993,0.88588166,8.954588000000001,-0.07198925,-0.13976474,0.22315885,15.24,20.82,-34.38
1553852025864,3.7326744,0.90024734,8.899519999999999,-0.070767514,-0.13609955,0.19689165,15.48,20.76,-33.48
1553852025885,3.8643596,1.0822121999999998,8.806142999999999,-0.08726088,-0.11349754,0.18467434,14.94,21.18,-33.0
1553852025904,3.7063375,1.1899546,9.064724,-0.11169549,-0.07073697400000001,0.2170502,14.519999499999999,21.119999,-32.94
1553852025924,3.1748084999999997,1.1923488000000002,9.445414999999999,-0.084817424,-0.08906293,0.2640868,15.0,21.18,-33.42
1553852025944,2.8084843,1.1037607,9.754275,-0.021898296,-0.20695993,0.3428884,15.299999,21.24,-32.82
1553852025964,2.7725701000000003,0.70870537,9.524425500000001,0.022694867,-0.42626056,0.37954035,15.719999,21.3,-32.579997999999996
1553852025984,2.8348215,0.5123747999999999,9.172467,0.053848993,-0.48001668,0.45528764,16.199999,20.52,-32.82
1553852026005,3.3495904999999997,0.038308397,9.26345,0.05934678,-0.5850854999999999,0.4051967,16.38,20.58,-32.94
1553852026024,3.3040992999999994,-0.18196489,9.210775,0.14303532,-0.59485936,0.3526623,16.02,19.56,-32.88
1553852026044,3.1748084999999997,-0.1699935,9.708784,0.29758424,-0.6174614,0.35693833,14.94,20.34,-33.239998
1553852026065,3.057489,0.18675344,9.818921000000001,0.42403329999999995,-0.6681632,0.41802487,14.099998999999999,20.16,-33.6
1553852026084,3.0407290000000002,0.58420306,9.536397000000001,0.484509,-0.7072585,0.58479106,13.86,19.68,-33.6
1553852026104,3.6392976999999997,0.66800267,8.813326,0.45640920000000007,-1.1324208,0.6611491999999999,13.559999,19.14,-33.96
1553852026125,4.3192715999999995,0.24421602,8.059128999999999,0.3788293,-1.0242976000000001,0.63610375,13.32,18.9,-34.38
1553852026144,4.975303,0.15802214,7.834067299999999,0.37944016,-0.7573495,0.5542478,12.48,18.6,-35.219997
1553852026164,5.104593799999999,0.05506832,8.320105,0.33057097,-0.6150179,0.49193954,11.94,18.779999,-36.18
1553852026185,5.684008599999999,0.42857520000000005,8.3679905,0.30002767,-0.67915875,0.4962156,11.7,18.24,-36.719997
1553852026204,6.533976,1.2306572,7.865193,0.32507315,-0.7610147,0.5597456000000001,11.219999000000001,17.34,-36.3
1553852026225,7.0080423,2.0447106,7.719142,0.33179268,-0.6907652,0.63549286,10.44,16.98,-36.719997
1553852026244,7.127756,1.6879636999999998,7.393521000000001,0.3824945,-0.62357,0.6764208,10.679999,16.619999,-37.92
1553852026265,6.474119,1.2330515,7.328875,0.36355767,-0.5618725999999999,0.6092257,11.28,17.039998999999998,-38.04
1553852026284,6.229903,0.95531565,6.670449700000001,0.20351097,-0.32852209999999993,0.47361359999999997,10.98,16.92,-37.68
1553852026304,6.203566,1.2450229,6.471725,0.017197078,-0.14159733,0.27447152,10.2,16.08,-37.2
1553852026324,6.100612,1.5778271000000001,6.589044,-0.11474982,0.040440504,0.067388214,9.48,16.02,-37.86
1553852026344,6.1676519999999995,1.6065584,6.883539999999999,-0.17156029,0.20720671,-0.038902342,9.179999,15.78,-38.16
1553852026364,6.483696,0.9313729,7.850827000000001,-0.18255587,0.25607592,-0.086549826,9.66,15.059999,-37.739998
1553852026385,6.5651016,0.031125572,8.152505999999999,-0.21676432,0.20415239,-0.15985367,10.62,15.24,-37.8
1553852026404,6.3304625,-0.19872479999999998,7.7957587,-0.26013574,0.24691294,-0.26125729999999997,10.74,15.719999,-37.92
1553852026425,6.1125836,-0.18914771,7.6616793,-0.28823555,0.38802284,-0.33150682,10.08,16.08,-37.98
1553852026445,5.6672482,0.5411060999999999,7.580274,-0.37620014,0.6354233,-0.5129338,10.139999000000001,15.96,-37.86
1553852026465,5.6792197,0.7853220999999999,7.960963700000001,-0.46844079999999994,0.77775484,-0.56668997,11.219999000000001,16.92,-37.739998
1553852026487,5.7031627,0.75180227,8.164477,-0.4769929,0.7808092,-0.5685225,11.219999000000001,16.92,-37.739998
1553852026505,5.7007685,-0.10774237,8.28898,-0.31450275,0.7337726,-0.5654682,11.94,17.52,-36.12
1553852026525,5.715134,-0.15802214,8.255460000000001,-0.22531642,0.7716462,-0.5153773,11.7,17.76,-36.0
1553852026544,5.7103453,-0.11971374,8.286585,-0.21065566,0.7930265000000001,-0.48727745,11.639999000000001,17.88,-35.82
1553852026565,4.7789725999999995,-0.043096945,9.124581,-0.18988624,0.8608325000000001,-0.40297803,12.719999000000001,19.14,-35.46
1553852026584,3.9194279,0.17957062,8.985713,-0.10008905,0.6830706999999999,-0.43291044,13.5,19.38,-35.1
1553852026605,3.407053,0.42378664,8.976136,-0.009070126999999999,0.6488623,-0.43779734,14.099998999999999,18.96,-35.219997
1553852026624,3.0239692000000002,0.6201171999999999,9.28021,0.049572937000000004,0.62015164,-0.41275185,14.28,19.08,-35.219997
1553852026645,3.0981915,0.7015225,9.627379,0.03918823,0.45766148,-0.35166535,14.04,19.32,-35.219997
1553852026664,3.1700199000000002,0.5818088,9.581888000000001,0.07278581,0.260352,-0.28630278,13.86,19.56,-34.92
1553852026684,3.1580484,0.43815228,9.170073,0.17235686,0.15283970000000002,-0.22460538,14.219999,19.859999,-34.559998
1553852026704,3.2729738,0.37829542,9.110215,0.22366953,0.13084856,-0.20322509,14.519999499999999,19.5,-35.52
1553852026724,3.5267668,0.723071,9.184438,0.20778704,0.121074714,-0.20872289,15.24,19.859999,-35.579997999999996
1553852026744,3.7183087,1.0247495999999998,9.294575,0.17174599,0.10458135,-0.19955991,15.48,19.68,-34.739998
1553852026765,3.9313992999999994,1.211503,9.177256,0.17541118,0.10213789,-0.17634702,15.54,19.439999,-34.32
1553852026784,3.9409763999999994,1.3791022,8.968952999999999,0.19190454,0.11435519,-0.15802108,14.82,19.8,-34.38
1553852026804,3.9409763999999994,1.4126221,8.760652,0.19312626,0.09419664,-0.13358645,14.639999,19.199999,-35.04
1553852026825,3.8811195,1.4221992,8.707977,0.1821307,0.08136847,-0.10609752,15.12,18.6,-34.86
1553852026844,3.8092911,1.3168511,8.743892,0.17602205,0.10091616,-0.095101945,14.88,18.84,-35.1
1553852026865,3.7422516000000003,1.3288225,8.851633999999999,0.1558635,0.12596163,-0.099378,15.179998999999999,18.84,-35.04
1553852026884,3.7063375,1.4916332,8.93304,0.12287676,0.14184414,-0.10182147,15.36,18.6,-34.86
1553852026904,3.6273263,1.5634614,9.009656,0.097831294,0.15100712,-0.095101945,15.12,18.72,-35.1
1553852026925,3.5267668,1.5897985000000001,9.007261999999999,0.099053025,0.1387898,-0.10304319,15.12,18.66,-34.62
1553852026944,3.5698638,1.4509305000000001,9.088667,0.10149648,0.09541837,-0.099378,15.059999,18.779999,-34.5
1553852026964,3.605778,1.4365649,9.076694999999999,0.11493552,0.05571213,-0.10304319,15.12,18.84,-34.68
1553852026984,3.6225379,1.2067145000000001,9.050359,0.1344832,0.03372098,-0.09449108,15.54,18.84,-35.28
1553852027004,3.6225379,1.0606636999999999,9.11261,0.15280916,0.020892812,-0.11648223,15.48,18.48,-35.16
1553852027025,3.3112822,1.5012103,8.940222,0.13875926,0.011729835,-0.16107539999999998,14.82,17.64,-34.92
1553852027044,3.1652312,1.4389591,8.959375999999999,0.13203976,0.057544727000000004,-0.17084923,14.58,17.699999,-35.219997
1553852027064,3.100586,1.3958621999999998,9.210775,0.17724377,0.015395027,-0.16779491,14.34,17.699999,-35.399998
1553852027084,3.3160705999999998,1.2282629999999999,9.251478,0.2102305,-0.10189110000000001,-0.1836774,14.4,17.76,-35.1
1553852027104,3.5483153,1.1253091,9.234717999999999,0.21939348,-0.12693657,-0.16901663,14.759998999999999,17.88,-34.62
1553852027124,3.4238129,1.4150163999999998,9.100638,0.24627155,-0.08112168,-0.15985367,15.059999,17.699999,-35.16
1553852027145,3.3352248999999996,1.8579572,8.763046000000001,0.25604537,-0.06829351,-0.1433603,15.299999,17.88,-35.52
1553852027164,3.790137,1.8076775,8.624178,0.25054762,-0.057297938,-0.19589472,14.7,17.94,-35.76
1553852027184,3.7350687999999996,2.1213273999999998,8.664881,0.23894116,-0.075013034,-0.20994459999999998,14.519999499999999,16.859999,-35.82
1553852027205,3.8212626000000003,2.1500587,8.827691,0.17785464,-0.059130535,-0.27958325,14.4,16.5,-35.52
1553852027224,3.5219781,2.3942747000000004,8.770228,0.12348764,-0.045691498,-0.29729834,14.4,17.52,-35.94
1553852027244,3.6033835,2.4517374,8.696006,0.093555234,0.012951565,-0.25698122,13.98,17.699999,-36.66
1553852027265,3.5195839999999996,2.6815877,8.724737,0.09599869999999999,-0.006596123000000001,-0.24842912,13.559999,17.64,-36.78
1553852027284,2.9856608,2.9665065,8.712766,0.11371379,-0.082343414,-0.17940135,14.04,17.1,-36.059998
1553852027304,3.5507095,2.6648278,8.858817,0.07889447,-0.049356687999999996,-0.19528385,13.92,17.16,-35.88
1553852027324,3.5315554,2.813273,8.796566,0.059957645999999996,-0.056076205999999996,-0.19345126,13.259998999999999,17.52,-36.66
1553852027344,3.545921,2.6552507999999997,8.679246000000001,0.031857843999999996,-0.05485448,-0.16229711,13.679998999999999,17.16,-36.78
1553852027364,3.5507095,2.6001825000000003,8.676852,0.010477561,-0.03958285,-0.12869954,13.98,17.279999,-36.18
1553852027384,3.4884584000000003,2.5211713,8.6984005,0.003758043,-0.047524095,-0.10793012,13.44,17.22,-36.18
1553852027405,3.5267668,2.52596,8.626572999999999,0.0049797734,-0.05057842,-0.10304319,13.86,17.52,-36.059998
1553852027424,3.5076127,2.6432792999999997,8.638542999999999,-0.007237531700000001,-0.05485448,-0.102432325,13.559999,17.22,-35.82
1553852027444,3.5842294999999997,2.7677817000000005,8.640938,-0.06099367,-0.07256957,-0.11281704,12.719999000000001,16.74,-36.12
1553852027465,3.6800002999999997,2.8707354,8.736709,-0.12391279999999999,-0.07134784,-0.12808867,12.84,16.5,-36.54
1553852027484,3.6800002999999997,2.8707354,8.736709,-0.12391279999999999,-0.07134784,-0.12808867,12.84,16.5,-36.54
1553852027504,3.6800002999999997,2.8707354,8.736709,-0.12391279999999999,-0.07134784,-0.12808867,12.84,16.5,-36.54
1553852027525,3.8930907,2.3128695,8.358414,-0.26563355,-0.0010983357,-0.23254663,12.54,17.46,-35.34
1553852027544,3.9577362999999997,2.1572416000000003,8.370385,-0.27052045,0.06243165,-0.2557595,12.3,18.24,-35.34
1553852027564,4.024776,2.0351336,8.576292,-0.26319006,0.08197934,-0.24904,12.36,18.539998999999998,-35.52
1553852027584,3.9601305,1.812466,8.813326,-0.26196834,0.10091616,-0.22949229,12.179999,18.48,-35.88
1553852027604,3.8452053,1.6951466,9.093455,-0.2717422,0.08136847,-0.20933375,12.42,18.84,-36.18
1553852027624,3.6488747999999998,1.637684,9.179649000000001,-0.26380092,0.06792944,-0.18612087,12.719999000000001,18.42,-35.64
1553852027645,3.4860642,1.6185298000000001,9.069513,-0.22226210000000002,0.08136847,-0.16779491,11.88,18.48,-35.04
1553852027664,3.3519847,1.5850098999999997,8.940222,-0.17156029,0.06915117,-0.15618847,11.82,19.199999,-34.98
1553852027684,3.050306,1.6448668000000002,8.889942,-0.10008905,0.07892501,-0.14091684,12.78,19.619999,-34.98
1553852027705,2.9305923,1.7669748,9.033599,-0.06710233,0.05998819,-0.10059973,12.84,19.199999,-34.8
1553852027724,2.8084843,1.9680939,9.28021,-0.03716993,0.029444927000000003,-0.02240898,12.48,19.439999,-35.04
1553852027744,2.7246847,2.1500587,9.265842999999998,-0.012124454,-0.009039585,0.046007928,12.48,19.859999,-35.04
1553852027764,2.8348215,2.1404817000000005,9.124581,0.024527462000000003,-0.04813496,0.1132031,13.019999499999999,20.1,-34.98
1553852027784,3.1053743,1.9728824,9.0838785,0.05445986,-0.08906293,0.13885945,13.08,20.22,-35.1
1553852027804,3.3208592000000006,1.8675343999999998,9.012051,0.07034235400000001,-0.11533014,0.14741156,12.179999,20.279999,-35.16
1553852027824,3.5698638,1.9034485,9.076694999999999,0.07461841,-0.14281908,0.15596367,11.82,19.92,-35.28
1553852027845,3.7949257000000003,1.8555629,9.0838785,0.09172264,-0.16053416,0.17184617,11.94,19.8,-35.16
1553852027864,3.9337934999999997,1.7765520000000001,9.007261999999999,0.11188119999999999,-0.17458406,0.18650693,12.179999,19.859999,-35.1
1553852027884,4.048719,1.6328955,8.882759,0.11004860000000001,-0.15442550000000002,0.18039829,11.759999,19.32,-35.34
1553852027904,4.1349125,1.6616267,8.6984005,0.081948794,-0.102501966,0.15229848,11.82,18.72,-35.7
1553852027924,4.245049,1.7765520000000001,8.672064,0.040409956000000004,-0.051189285,0.11564657,12.48,18.66,-35.399998
1553852027944,4.3815230000000005,1.9034485,8.712766,0.0080341,-0.015148236,0.06860994,12.0,18.84,-35.399998
1553852027965,4.4413795,1.924997,8.746285,-0.010902723000000001,0.007453778,0.023405912999999997,11.94,19.14,-35.94
1553852027984,4.4294085999999995,1.8531687,8.806142999999999,-0.028617814,0.02150368,-0.01752206,12.12,19.32,-35.52
1553852028004,4.182798,1.908237,8.707977,-0.06588059,0.03738617,-0.05967176,12.54,19.439999,-34.8
1553852028024,3.8906965,1.9417567999999998,8.710372,-0.09703472,0.047770884000000007,-0.08410637,12.66,19.98,-34.98
1553852028044,3.6081722000000003,2.0590763,8.830086,-0.09703472,0.031888388,-0.09143675,11.88,19.5,-36.12
1553852028065,3.3783216,2.0494993000000004,8.909097000000001,-0.07931963,0.010508103999999999,-0.089604154,11.759999,19.74,-35.64
1553852028084,3.2633965,2.0806248,8.980925,-0.07382184,0.007453778,-0.086549826,12.3,19.68,-34.98
1553852028105,3.258608,2.0447106,8.966559,-0.07321098,0.0019559904,-0.08166291,12.78,19.38,-35.04
1553852028124,3.2442424,2.0064023,8.983319,-0.07137838,0.0037885862,-0.06822388,12.719999000000001,19.14,-34.92
1553852028144,3.328042,1.9633054,8.940222,-0.03961339,0.005010317,-0.051119648,12.48,19.439999,-35.46
1553852028164,3.3831102999999993,1.9226026999999999,8.942616000000001,-0.00479407,-0.009650448,-0.03157196,11.88,20.16,-35.88
1553852028185,3.4118416,1.8507744,8.954588000000001,0.024527462000000003,-0.033474192,-0.01752206,11.759999,19.98,-35.28
1553852028204,3.4166303,1.8483802,8.885154,0.028192653999999998,-0.0438589,-0.010191676,11.88,19.92,-34.98
1553852028225,3.4740927000000004,1.8411973999999998,8.865999,0.025749192,-0.034695923,-0.003472158,11.94,19.439999,-35.399998
1553852028244,3.5914123,1.8435916,8.854028999999999,0.021473136,-0.017591698,0.001414764,12.42,18.9,-35.64
1553852028265,3.668029,1.8747171000000002,8.801354,0.022694867,-0.0047635273,-0.00041783185,11.94,19.02,-35.399998
1553852028284,3.7374629999999995,1.9106313000000001,8.798960000000001,0.020251404,0.0031777209999999997,-0.010802541,11.7,19.199999,-35.16
1553852028305,3.7973199999999996,1.9680939,8.875577,0.006201504,-0.0047635273,-0.013856866,12.179999,19.199999,-35.219997
1553852028324,3.78056,1.9848539,8.899519999999999,-0.00479407,-0.017591698,-0.015078598,12.54,19.38,-35.34
1553852028345,3.7111259,1.9273912,8.842057,-0.012735318,-0.023089485,-0.019965518,12.3,19.92,-35.76
1553852028365,3.7183087,1.8890828000000002,8.798960000000001,-0.0035723401000000003,-0.0053743925,-0.026685037,11.82,19.619999,-36.48
1553852028384,3.7374629999999995,1.8675343999999998,8.837268,0.0049797734,0.006232046999999999,-0.025463307,12.12,19.859999,-36.42
1553852028405,3.7063375,1.9106313000000001,8.91628,0.0019254473000000002,-0.018202562,-0.016911193999999997,11.7,19.8,-35.76
1553852028424,3.677606,1.8938714,8.954588000000001,-0.007848397,-0.027365541,-0.001028697,11.759999,19.38,-35.399998
1553852028445,3.6704233,1.8459859,8.897125,-0.0029614746999999998,-0.008428719,0.012410338,12.36,19.8,-35.88
1553852028464,3.7063375,1.838803,8.830086,0.0013145820000000001,0.017838487,0.020351587,12.179999,19.74,-36.0
1553852028485,3.7135203000000003,1.8172544999999998,8.822903,0.0049797734,0.044105694,0.025238508,12.719999000000001,19.98,-35.94
1553852028504,3.7709827000000007,1.8627458,8.8324795,0.0043689082,0.042883962000000005,0.027071103,12.9,19.98,-35.64
1553852028524,3.8356282999999998,1.8699286,8.861211,0.0049797734,0.030666657000000003,0.01729726,12.12,19.5,-35.399998
1553852028544,3.955342,1.9704881999999997,8.9498,0.003758043,0.017838487,-0.003472158,11.759999,20.039998999999998,-36.18
1553852028564,3.9146392,2.1237217999999998,9.033599,0.006201504,0.011118969,-0.011413406999999999,11.46,19.98,-36.059998
1553852028584,3.6728175000000003,2.116539,8.976136,0.020251404,0.016616756,-0.00041783185,11.94,19.68,-36.12
1553852028605,3.4740927000000004,2.0925963,8.791777,0.0080341,0.0013451253,0.008134281,12.3,19.68,-35.7
1553852028624,3.4142358,2.1069617000000003,8.691217,-0.0041832053,-0.024311215,0.01607553,12.059999000000001,19.92,-35.64
1553852028644,3.3926873,2.142876,8.741497,-0.012124454,-0.030419867000000003,0.03562322,11.46,19.32,-35.34
1553852028664,3.4956412000000006,1.9872481,8.882759,-0.0060158009999999994,-0.00048747047999999997,0.05456004,11.34,18.6,-35.46
1553852028684,3.6369035000000003,1.802889,8.911489999999999,-0.0023506095,0.024558003999999998,0.060668692,12.0,19.08,-35.46
1553852028704,3.8787252999999997,1.6664151999999999,8.858817,-0.0017397442000000002,0.03799704,0.046007928,12.12,20.4,-35.399998
1553852028724,4.0535073,1.6903580000000002,8.825297,-0.009680992,0.027612332000000003,0.009356013,12.24,20.4,-35.579997999999996
1553852028745,4.000833,1.7981004,8.849239,-0.006626666,0.030666657000000003,-0.015689462,12.42,20.22,-35.16
1553852028764,3.8452053,1.8603516,8.945011000000001,0.0007037167699999999,0.019671084,-0.025463307,12.84,19.98,-35.04
1553852028784,3.6823947,1.9034485,8.980925,0.0013145820000000001,-0.0035417966999999996,-0.02363071,13.139999,19.859999,-35.46
1553852028804,3.5578922999999993,1.9297855,8.961771,-0.009680992,-0.022478618,-0.019965518,12.78,19.98,-35.34
1553852028824,3.4812756,1.9585168000000002,8.873182,-0.01762224,-0.024311215,-0.01752206,12.719999000000001,19.98,-35.399998
1553852028845,3.5195839999999996,2.0064023,8.849239,-0.025563488,-0.0053743925,-0.011413406999999999,12.9,19.92,-35.76
1553852028864,3.6345089999999995,2.0231621,8.882759,-0.031672142,-0.0035417966999999996,0.001414764,12.599999,19.8,-35.76
1553852028885,3.6800002999999997,2.0064023,8.861211,-0.0341156,-0.01331564,0.010577743,12.9,19.619999,-35.94
1553852028904,3.6704233,1.9944308999999998,8.873182,-0.036559064,-0.018813428,0.015464664,13.2,19.5,-35.7
1553852028925,3.7350687999999996,2.0040080000000002,8.906702000000001,-0.04205685,-0.021867754,0.035012352999999996,13.08,19.439999,-35.64
1553852028944,3.6991546000000004,2.0183737,8.858817,-0.035337333,-0.027976407000000002,0.041731868,13.32,19.02,-36.059998
1553852028965,3.6369035000000003,1.9968252,8.798960000000001,-0.02922868,-0.02125689,0.06616648,13.2,19.439999,-35.82
1553852028985,3.6464806000000003,1.9202085,8.717555,-0.027396085,-0.0010983357,0.078994654,12.12,19.619999,-35.64
1553852029004,3.6440864,1.8747171000000002,8.717555,-0.02922868,0.014173295,0.08082725,11.88,19.859999,-35.46
1553852029025,3.7398572,1.8052831999999999,8.827691,-0.04083512,0.018449353,0.07227513,12.059999000000001,19.56,-35.579997999999996
1553852029045,3.7829542000000003,1.7957061999999997,8.892337,-0.049387235,0.0037885862,0.055781774000000006,12.599999,19.199999,-35.94
1553852029064,3.7925312999999994,1.7741576000000001,8.92825,-0.053052425,-0.0041526617,0.046007928,12.66,19.56,-35.88
1553852029084,3.5411325,1.733455,8.904308,-0.05121983,-0.010261314,0.038677542999999995,12.36,19.619999,-35.46
1553852029104,3.6009892999999997,1.5706443,8.854028999999999,-0.04327858,0.012340700000000001,0.02646024,12.0,19.56,-34.8
1553852029124,3.510007,1.5299416000000001,8.937828,-0.03716993,0.02516887,0.028292835,12.78,20.52,-34.44
1553852029144,3.5794407999999995,1.5467016000000002,8.983319,-0.021287432000000002,0.02883406,0.024627642999999998,12.9,21.0,-34.68
1553852029164,3.6009892999999997,1.5634614,9.050359,-0.0035723401000000003,0.024558003999999998,0.028292835,13.08,20.58,-35.16
1553852029184,3.5962007000000007,1.5874043,9.050359,0.010477561,0.015395027,0.025849372000000002,13.32,20.16,-34.44
1553852029204,3.6129606,1.6448668000000002,9.026416000000001,0.017807944,0.0031777209999999997,0.025238508,12.3,18.84,-34.32
1553852029224,3.605778,1.7214836,8.92825,0.019640539,-0.0010983357,0.020351587,12.42,19.02,-34.739998
1553852029245,3.6512692,1.7693691000000003,8.851633999999999,0.02086227,-0.01087218,0.011799472,12.599999,18.84,-34.92
1553852029264,3.6967604,1.8435916,8.820508,0.015364483,-0.0029309313,0.006301685699999999,12.719999000000001,19.14,-35.579997999999996
1553852029285,3.7207031,1.8627458,8.830086,0.0049797734,-0.001709201,-0.0016395624,12.36,19.98,-35.399998
1553852029304,3.756617,1.8579572,8.854028999999999,-0.009070126999999999,-0.0041526617,-0.008969945,12.54,19.439999,-35.28
1553852029325,3.78056,1.8220432,8.894731,-0.01762224,-0.0035417966999999996,-0.013246003000000001,12.78,18.96,-34.739998
1553852029344,3.7709827000000007,1.7597919999999998,8.921068,-0.020676566,-0.0053743925,-0.013856866,12.599999,19.8,-34.92
1553852029365,3.7638,1.7262721,8.889942,-0.022509163,-0.009650448,-0.013856866,12.059999000000001,20.34,-34.86
1553852029384,3.7374629999999995,1.7238779,8.911489999999999,-0.023730893,-0.009039585,-0.011413406999999999,12.12,20.279999,-34.98
1553852029405,3.8188684,1.6544438999999997,8.839663,-0.020676566,-0.011483044,-0.009580811,12.719999000000001,19.98,-35.64
1553852029424,3.7302802,1.7071179,8.930645,-0.012124454,0.009286373,-0.015078598,12.48,19.74,-36.12
1553852029445,3.7063375,1.7406378,8.940222,-0.009680992,0.007453778,-0.012024271000000001,12.719999000000001,19.26,-35.82
1553852029465,3.7063375,1.7286664,8.93304,-0.0041832053,0.005621182,-0.00835908,12.9,19.26,-35.64
1553852029484,3.7015488,1.7214836,8.906702000000001,0.0007037167699999999,0.0068429126,-0.005304754,12.599999,20.22,-34.44
1553852029505,3.7374629999999995,1.7286664,8.909097000000001,0.0031471776,0.0025668556,-0.0016395624,12.54,20.279999,-35.04
1553852029524,3.7063375,1.7933118000000001,8.861211,0.0049797734,0.008675508,0.00019303341,12.48,19.439999,-35.399998
1553852029544,3.7087317000000004,1.802889,8.858817,0.0043689082,0.016616756,0.0032473598,12.12,20.22,-35.16
1553852029564,3.7015488,1.7717633000000002,8.815719999999999,-0.009680992,0.026390601,0.003858225,12.96,20.279999,-36.0
1553852029585,3.6919718,1.7573976999999998,8.834874000000001,-0.030450411,0.030055791000000002,0.008134281,12.36,19.14,-35.88
1553852029604,3.6632404000000003,1.7478206000000003,8.839663,-0.0341156,0.03738617,0.008134281,12.48,19.26,-35.579997999999996
1553852029624,3.6800002999999997,1.7119064,8.906702000000001,-0.029839545,0.044716556,0.010577743,12.84,19.92,-35.46
1553852029644,3.7087317000000004,1.6807808999999998,8.980925,-0.027396085,0.03921877,0.013021204,12.36,19.56,-35.46
1553852029664,3.6823947,1.6999351000000003,8.990502000000001,-0.022509163,0.025779735,0.008745147,12.48,19.56,-34.98
1553852029684,3.6297207,1.7071179,8.973742,-0.019454835,0.015395027,0.005690820500000001,12.54,19.68,-35.16
1553852029705,3.6225379,1.6807808999999998,8.961771,-0.010291858000000001,0.00073426,0.006301685699999999,13.019999499999999,19.8,-35.52
1553852029724,3.562681,1.6855695,8.971347999999999,-0.00479407,0.0037885862,0.002025629,13.2,20.22,-35.16
1553852029745,3.572258,1.6783867,8.954588000000001,9.285152e-05,-0.00048747047999999997,-0.004083023,12.599999,19.92,-34.559998
1553852029764,3.5890178999999995,1.6903580000000002,8.947405,0.0013145820000000001,0.005010317,-0.010802541,12.48,20.22,-35.52
1553852029784,3.6105663999999997,1.6927522000000002,8.93304,-0.0005180137,0.0025668556,-0.015689462,12.3,20.039998999999998,-35.219997
1553852029804,3.6536633999999997,1.7382435,8.921068,9.285152e-05,0.0025668556,-0.011413406999999999,12.599999,19.56,-34.86
1553852029825,3.7015488,1.7478206000000003,8.911489999999999,0.0013145820000000001,-0.0029309313,-0.005915619,12.599999,19.92,-34.86
1553852029844,3.677606,1.7286664,8.930645,0.0025363127,-0.0010983357,-0.0046938885999999996,13.08,19.92,-34.92
1553852029864,3.6800002999999997,1.7597919999999998,8.906702000000001,0.0013145820000000001,-0.0010983357,-0.006526484599999999,13.44,19.56,-35.1
1553852029884,3.6728175000000003,1.6879636999999998,8.909097000000001,-0.0060158009999999994,-0.009039585,-0.011413406999999999,12.719999000000001,19.859999,-35.76
1553852029904,3.6488747999999998,1.6352897,8.882759,-0.008459262,-0.013926506000000002,-0.009580811,12.719999000000001,20.16,-35.7
1553852029924,3.675212,1.647261,8.93304,-0.00479407,-0.0029309313,-0.0046938885999999996,12.84,19.98,-34.8
1553852029945,3.7685885000000003,1.8866886000000003,8.93304,-0.0017397442000000002,0.016005892,-0.0028612928000000004,12.9,20.039998999999998,-35.579997999999996
1553852029964,3.8380224999999997,1.6688095,9.021627,0.003758043,0.011118969,0.020962453,12.42,20.16,-36.36
1553852029985,3.8140797999999996,1.6328955,8.942616000000001,0.021473136,0.0019559904,0.024016777000000003,12.78,20.279999,-36.12
1553852030004,3.7973199999999996,1.6017698,8.882759,0.016586214,-0.0047635273,0.019740721,12.719999000000001,20.279999,-35.76
1553852030024,3.7111259,1.6807808999999998,8.849239,-0.0023506095,0.007453778,0.002025629,12.599999,20.88,-35.76
1553852030044,3.615355,1.7071179,8.904308,-0.010291858000000001,0.044105694,-0.012635137,12.78,20.76,-35.04
1553852030064,3.6033835,1.7573976999999998,9.035994,-0.010902723000000001,0.03372098,-0.019965518,12.3,19.92,-34.559998
1553852030085,3.605778,1.7933118000000001,9.043175999999999,-0.008459262,-0.005985257700000001,-0.005915619,12.78,20.1,-34.98
1553852030104,3.6033835,1.8747171000000002,9.000079,0.0086449655,-0.024311215,0.005079956,12.719999000000001,20.16,-35.1
1553852030125,3.5985951000000003,1.8842942999999999,8.889942,0.014142752,-0.017591698,0.014242933999999999,13.139999,19.92,-35.219997
1553852030144,3.6033835,1.802889,8.839663,0.007423234599999999,-0.009039585,0.019129856,12.9,19.619999,-35.28
1553852030164,3.6392976999999997,1.7502148999999998,8.837268,0.0013145820000000001,-0.006596123000000001,0.017908123999999997,12.48,19.56,-35.7
1553852030184,3.6656345999999997,1.7166951000000001,8.901914,-0.010902723000000001,-0.006596123000000001,0.012410338,12.96,19.439999,-35.46
1553852030205,3.6704233,1.6999351000000003,8.904308,-0.015178779,0.004399452,0.00080389867,12.24,19.439999,-35.399998
1553852030224,3.6560576,1.673598,8.882759,-0.018233107,0.019060217,-0.00041783185,11.759999,19.619999,-35.579997999999996
1553852030245,3.6608462,1.6161355,8.906702000000001,-0.012735318,0.020892812,-0.0016395624,12.12,19.08,-35.76
1553852030264,3.6129606,1.6065584,8.930645,-0.011513588,0.008064643,-0.0046938885999999996,12.0,19.439999,-35.82
1553852030285,3.6033835,1.5921928,8.9498,-0.010902723000000001,0.006232046999999999,-0.00041783185,11.7,20.22,-35.219997
1553852030304,3.5674694,1.5969813,8.93304,-0.006626666,0.009286373,-0.003472158,12.059999000000001,20.039998999999998,-34.62
1553852030325,3.5578922999999993,1.594587,8.961771,-0.007237531700000001,0.015395027,0.001414764,12.42,20.279999,-35.88
1553852030344,3.5650752,1.6281068,9.038387,-0.0041832053,0.006232046999999999,0.003858225,12.719999000000001,19.98,-35.7
1553852030365,3.5938065000000003,1.6424724999999998,9.009656,0.0031471776,-0.011483044,0.003858225,12.66,20.22,-35.64
1553852030384,3.6225379,1.7214836,8.964165,0.0080341,-0.024311215,0.0032473598,12.719999000000001,19.8,-35.1
1553852030404,3.641692,1.8148602999999999,8.870789,0.015364483,-0.01698083,-0.005304754,12.9,19.98,-34.32
1553852030425,3.6991546000000004,1.8675343999999998,8.827691,0.013531887,0.00012339478,-0.005304754,12.599999,20.16,-34.2
1553852030444,3.7183087,1.8938714,8.825297,0.013531887,-0.00048747047999999997,-0.013246003000000001,12.719999000000001,19.98,-34.14
1553852030465,3.7614057,1.8603516,8.834874000000001,0.0080341,-0.0029309313,-0.00835908,12.9,19.68,-34.559998
1553852030485,3.7518287000000003,1.8292258999999997,8.873182,-0.012735318,-0.01087218,-0.014467731999999999,12.42,19.439999,-35.16
1553852030504,3.7374629999999995,1.7382435,8.877971,-0.021898296,0.00012339478,-0.015078598,12.78,19.5,-35.76
1553852030524,3.7087317000000004,1.6568381999999997,8.91628,-0.025563488,0.005621182,-0.015689462,13.32,19.439999,-35.04
1553852030544,3.675212,1.6113469999999999,8.909097000000001,-0.024952624,0.007453778,-0.012635137,13.32,19.859999,-35.04
1553852030564,3.624932,1.5754328000000002,8.954588000000001,-0.024341757999999998,0.009897239,-0.008969945,13.08,20.039998999999998,-35.16
1553852030584,3.632115,1.5131816999999999,8.990502000000001,-0.018233107,0.007453778,-0.0016395624,11.82,19.8,-34.86
1553852030605,3.641692,1.5299416000000001,9.024022,-0.009680992,0.0037885862,0.0032473598,12.3,19.92,-35.1
1553852030624,3.641692,1.5874043,8.992896,-0.0011288789,0.008675508,0.009966876999999999,12.54,20.279999,-35.399998
1553852030644,3.677606,1.637684,8.947405,0.006812369499999999,0.005621182,0.008134281,12.24,19.439999,-35.94
1553852030664,3.6991546000000004,1.7190893,8.906702000000001,0.0080341,0.007453778,0.011188608999999999,12.48,19.8,-35.579997999999996
1553852030685,3.668029,1.7502148999999998,8.851633999999999,0.006201504,0.004399452,0.012410338,12.3,19.619999,-35.46
1553852030704,3.6823947,1.7645805,8.856422,0.006201504,0.008675508,0.012410338,12.66,18.96,-35.76
1553852030725,3.6895776,1.7454262999999999,8.91628,0.0043689082,0.007453778,0.014853798999999999,12.599999,19.74,-35.46
1553852030744,3.6823947,1.7358493000000002,8.913885,-0.0029614746999999998,0.016005892,0.023405912999999997,12.48,20.22,-35.7
1553852030764,3.6632404000000003,1.6759924,8.880365,-0.0041832053,0.027001465,0.021573316000000002,12.48,19.859999,-35.34
1553852030784,3.6608462,1.6544438999999997,8.9186735,-0.0041832053,0.027001465,0.019129856,12.719999000000001,19.92,-34.8
1553852030804,3.641692,1.6855695,8.952193,-0.007237531700000001,0.020281948,0.015464664,12.9,19.68,-35.52
1553852030825,3.6081722000000003,1.6807808999999998,8.942616000000001,-0.007848397,0.025779735,0.013021204,12.78,19.56,-35.52
1553852030844,3.6009892999999997,1.7071179,8.961771,-0.007848397,0.024558003999999998,0.009966876999999999,13.259998999999999,20.22,-35.52
1553852030865,3.581835,1.6975409,8.966559,-0.00479407,0.015395027,0.005079956,14.16,20.939999,-34.62
1553852030884,3.5650752,1.6927522000000002,8.968952999999999,-0.0035723401000000003,0.0031777209999999997,0.001414764,13.2,20.039998999999998,-34.02
1553852030904,3.529161,1.6903580000000002,8.954588000000001,9.285152e-05,-0.007817853,-0.0022504274,12.54,19.32,-35.28
1553852030924,3.5411325,1.6999351000000003,8.952193,0.0043689082,-0.010261314,-0.003472158,12.719999000000001,19.98,-35.399998
1553852030944,3.5483153,1.6807808999999998,8.956982,0.0007037167699999999,-0.015148236,-0.00713735,13.2,20.279999,-35.219997
1553852030964,3.5866237,1.6759924,8.935433,-0.0005180137,-0.020646023,-0.012024271000000001,12.9,19.859999,-34.98
1553852030985,3.6177492,1.6544438999999997,8.935433,-0.0023506095,-0.024311215,-0.013856866,12.42,19.619999,-34.92
1553852031004,3.6608462,1.6664151999999999,8.945011000000001,-0.005404935699999999,-0.020035159,-0.013856866,13.019999499999999,19.92,-35.1
1553852031024,3.6919718,1.6400781999999998,8.930645,0.0007037167699999999,-0.018813428,-0.012635137,12.96,19.98,-35.16
1553852031045,3.6943660000000005,1.6281068,8.911489999999999,0.0019254473000000002,-0.015759101,-0.012024271000000001,12.84,19.619999,-34.98
1553852031065,3.7350687999999996,1.6424724999999998,8.906702000000001,-0.0029614746999999998,-0.009039585,-0.010802541,12.48,19.98,-34.86
1553852031085,3.7278860000000003,1.6352897,8.887547999999999,-0.0017397442000000002,-0.005985257700000001,-0.011413406999999999,12.599999,19.98,-35.52
1553852031105,3.7494342000000005,1.6448668000000002,8.91628,-0.00479407,0.0019559904,-0.008969945,13.139999,19.8,-35.1
1553852031125,3.7326744,1.6831752,8.9186735,-0.006626666,0.008064643,-0.0077482144999999995,13.139999,20.16,-34.8
1553852031144,3.703943,1.6783867,8.887547999999999,-0.007848397,0.011729835,-0.0077482144999999995,12.9,20.4,-35.04
1553852031165,3.6823947,1.6951466,8.885154,-0.005404935699999999,0.016616756,-0.0046938885999999996,12.54,20.52,-34.559998
1553852031184,3.6871831,1.6831752,8.9186735,-0.00479407,0.016005892,-0.0028612928000000004,12.719999000000001,20.4,-34.559998
1553852031205,3.632115,1.6831752,8.954588000000001,-0.0041832053,0.018449353,-0.0028612928000000004,12.3,20.52,-34.5
1553852031225,3.6392976999999997,1.6831752,8.964165,-0.0005180137,0.013562431000000002,-0.001028697,12.3,20.46,-34.68
1553852031245,3.6201434,1.6927522000000002,8.930645,-0.005404935699999999,0.011729835,-0.004083023,12.719999000000001,20.1,-35.1
1553852031265,3.5985951000000003,1.6783867,8.940222,-0.005404935699999999,0.012340700000000001,-0.003472158,12.059999000000001,20.22,-35.28
1553852031284,3.6177492,1.6783867,8.959375999999999,-0.006626666,0.008064643,-0.005915619,11.88,20.22,-35.16
1553852031304,3.6201434,1.6831752,8.978531,-0.011513588,0.0037885862,-0.009580811,12.48,19.619999,-34.38
1553852031325,3.6177492,1.6927522000000002,8.956982,-0.01640051,-0.0023200663,-0.012024271000000001,13.259998999999999,19.92,-34.079997999999996
1553852031344,3.6201434,1.733455,8.978531,-0.021898296,-0.007817853,-0.015078598,12.9,20.4,-34.8
1553852031365,3.5866237,1.7430321,8.935433,-0.02922868,-0.016369967,-0.015078598,12.24,20.4,-35.16
1553852031384,3.5746522000000005,1.7047237000000002,8.887547999999999,-0.029839545,-0.010261314,-0.013246003000000001,11.759999,19.92,-35.82
1553852031404,3.5962007000000007,1.6568381999999997,8.877971,-0.020676566,-0.005985257700000001,-0.010191676,12.059999000000001,20.16,-35.64
1553852031424,3.6369035000000003,1.6233183,8.91628,-0.017011376,-0.007817853,-0.005915619,13.2,21.119999,-35.04
1553852031444,3.6512692,1.6352897,8.935433,-0.015178779,-0.006596123000000001,-0.005304754,12.96,20.46,-35.04
1553852031464,3.6800002999999997,1.6089526,8.930645,-0.0041832053,-0.0053743925,-0.005915619,12.54,19.56,-34.739998
1553852031485,3.6632404000000003,1.5921928,8.945011000000001,-0.006626666,-0.0023200663,-0.008969945,12.719999000000001,20.4,-34.38
1553852031511,3.6369035000000003,1.5179702,8.897125,0.015975347,-0.0023200663,-0.016911193999999997,12.66,21.6,-35.04
1553852031525,3.6392976999999997,1.5036045,8.858817,0.031246978999999998,-0.0023200663,-0.02118725,12.3,20.88,-35.219997
1553852031544,3.6129606,1.4437478000000001,8.7822,0.06545543,0.008064643,-0.026074173,12.3,20.1,-34.62
1553852031564,3.7398572,1.5921928,8.899519999999999,0.0782836,0.0068429126,-0.012635137,12.179999,20.46,-34.98
1553852031584,3.981679,1.9633054,9.29218,0.02086227,0.014784161,0.01729726,12.24,20.699999,-34.98
1553852031604,3.7614057,1.9920366000000003,9.440625,-0.07931963,-0.015148236,-0.0016395624,12.3,19.98,-34.739998
1553852031624,3.5914123,1.9226026999999999,8.854028999999999,-0.04205685,-0.048745826,-0.00041783185,12.36,20.52,-34.559998
1553852031644,3.545921,1.5993756000000001,8.466156,0.012310157,-0.03408506,0.018518991999999998,12.48,20.939999,-35.16
1553852031664,3.6009892999999997,1.5299416000000001,8.672064,0.011699291,0.011729835,0.029514564,12.179999,20.22,-35.88
1553852031684,3.7135203000000003,1.6520496999999998,9.069513,0.018418808000000002,0.041051365,0.036844946,12.42,20.46,-34.92
1553852031704,3.7925312999999994,1.7430321,9.071907000000001,0.013531887,0.009897239,0.036844946,12.719999000000001,20.52,-34.26
1553852031725,3.7183087,1.6616267,8.911489999999999,-0.0041832053,-0.009650448,0.022184184,13.019999499999999,19.26,-33.78
1553852031744,3.5938065000000003,1.5706443,8.834874000000001,-0.021287432000000002,-0.0041526617,0.006912550999999999,13.98,19.38,-31.679997999999998
1553852031764,3.5411325,1.5443072,8.892337,-0.01762224,0.012340700000000001,-0.004083023,14.639999,19.5,-28.8
1553852031784,3.5435266000000003,1.5610671999999999,8.983319,-0.0029614746999999998,0.031888388,-0.0046938885999999996,14.639999,19.5,-27.539998999999998
1553852031804,3.5698638,1.6137413,8.973742,0.011088425,0.025779735,-0.0077482144999999995,14.519999499999999,19.92,-28.859999
1553852031824,3.6081722000000003,1.6688095,8.980925,0.009866696,0.00073426,-0.00835908,14.219999,19.56,-29.279999
1553852031844,3.6177492,1.7214836,8.964165,0.0025363127,-0.025532946,-0.010802541,13.799999,19.439999,-28.019999
1553852031865,3.615355,1.664021,8.906702000000001,0.0025363127,-0.019424293000000002,-0.011413406999999999,14.219999,19.619999,-28.32
1553852031884,3.6345089999999995,1.6592325,8.865999,0.0080341,-0.0029309313,-0.013246003000000001,14.519999499999999,19.68,-29.22
1553852031905,3.6536633999999997,1.7071179,8.889942,0.003758043,0.0025668556,-0.014467731999999999,13.559999,19.74,-29.34
1553852031924,3.6967604,1.6855695,8.947405,9.285152e-05,-0.006596123000000001,-0.012635137,13.559999,20.1,-28.98
1553852031945,3.6823947,1.7023293999999998,8.930645,-0.0035723401000000003,-0.01331564,-0.012635137,14.34,19.68,-28.439999
1553852031964,3.7111259,1.6616267,8.91628,-0.0023506095,-0.008428719,-0.012635137,14.34,19.619999,-28.92
1553852031985,3.703943,1.6544438999999997,8.894731,9.285152e-05,0.00073426,-0.005304754,14.4,19.38,-29.16
1553852032004,3.677606,1.6496553,8.887547999999999,0.0007037167699999999,0.00012339478,-0.00713735,14.7,18.96,-29.22
1553852032025,3.6704233,1.664021,8.921068,-0.0011288789,-0.0053743925,-0.00713735,14.219999,19.38,-28.5
1553852032044,3.6704233,1.6903580000000002,8.93304,-0.0005180137,-0.01087218,-0.006526484599999999,13.98,19.32,-28.439999
1553852032065,3.675212,1.6664151999999999,8.92825,-0.0041832053,-0.0023200663,-0.003472158,14.519999499999999,19.68,-29.099998
1553852032084,3.6656345999999997,1.6616267,8.909097000000001,-0.0005180137,-0.0035417966999999996,-0.001028697,14.099998999999999,19.74,-29.16
1553852032104,3.6704233,1.6759924,8.897125,0.0025363127,-0.0047635273,-0.0022504274,14.04,19.199999,-29.22
1553852032125,3.6560576,1.6616267,8.9186735,0.0025363127,-0.0029309313,0.001414764,14.28,19.08,-29.279999
1553852032144,3.6512692,1.6712039,8.921068,9.285152e-05,0.006232046999999999,0.006301685699999999,14.099998999999999,19.08,-29.58
1553852032164,3.6656345999999997,1.673598,8.935433,0.003758043,0.005010317,0.006912550999999999,13.799999,19.619999,-29.76
1553852032184,3.668029,1.6496553,8.91628,0.0013145820000000001,0.0031777209999999997,0.00446909,13.62,18.96,-28.859999
1553852032204,3.6704233,1.647261,8.925857,0.003758043,0.006232046999999999,0.0032473598,13.98,18.6,-29.099998
1553852032225,3.668029,1.6616267,8.913885,0.0013145820000000001,0.006232046999999999,0.003858225,13.32,19.32,-31.199999
1553852032244,3.6632404000000003,1.6592325,8.882759,0.0013145820000000001,0.008064643,-0.001028697,13.139999,19.26,-32.399998
1553852032264,3.6704233,1.6520496999999998,8.901914,0.0013145820000000001,0.009897239,-0.0022504274,13.799999,19.619999,-32.1
1553852032284,3.6560576,1.6759924,8.930645,-0.0029614746999999998,0.009286373,-0.003472158,13.2,19.619999,-31.92
1553852032304,3.641692,1.6927522000000002,8.925857,-0.00479407,0.008064643,-0.005304754,13.139999,19.439999,-32.16
1553852032325,3.6536633999999997,1.6951466,8.923461999999999,-0.0035723401000000003,0.009897239,-0.005915619,13.559999,19.439999,-31.019999
1553852032344,3.6656345999999997,1.6712039,8.901914,-0.0023506095,0.0037885862,-0.006526484599999999,13.799999,19.56,-31.019999
1553852032365,3.668029,1.6903580000000002,8.909097000000001,-0.0023506095,0.006232046999999999,-0.006526484599999999,13.44,19.74,-31.679997999999998
1553852032384,3.6536633999999997,1.6975409,8.923461999999999,-0.0035723401000000003,0.005010317,-0.0046938885999999996,12.84,19.68,-31.439999
1553852032405,3.6584517999999995,1.6783867,8.887547999999999,-0.0041832053,0.0068429126,-0.0028612928000000004,13.019999499999999,19.5,-31.56
1553852032424,3.6512692,1.6688095,8.921068,-0.005404935699999999,0.010508103999999999,-0.001028697,13.44,19.439999,-31.74
1553852032444,3.6632404000000003,1.6664151999999999,8.925857,-0.00479407,0.008064643,-0.0016395624,13.98,19.74,-31.5
1553852032464,3.6656345999999997,1.6496553,8.93304,-0.005404935699999999,0.008064643,0.00019303341,13.74,19.8,-31.679997999999998
1553852032484,3.6392976999999997,1.6568381999999997,8.925857,-0.0017397442000000002,0.0068429126,-0.0016395624,13.799999,18.66,-31.56
1553852032505,3.6656345999999997,1.6544438999999997,8.945011000000001,-0.0017397442000000002,0.0037885862,0.00080389867,12.96,19.439999,-31.98
1553852032524,3.6392976999999997,1.6712039,8.925857,0.0013145820000000001,-0.0029309313,-0.00041783185,12.599999,20.279999,-31.56
1553852032544,3.6512692,1.6783867,8.923461999999999,0.0007037167699999999,-0.0023200663,0.00446909,13.32,19.74,-31.32
1553852032564,3.6656345999999997,1.647261,8.91628,0.0007037167699999999,0.0037885862,0.0032473598,13.86,19.439999,-31.859999
1553852032584,3.6440864,1.6448668000000002,8.897125,0.0007037167699999999,0.008675508,0.005690820500000001,13.139999,19.56,-32.219997
1553852032604,3.6584517999999995,1.6592325,8.9186735,9.285152e-05,0.009897239,0.005079956,12.719999000000001,19.619999,-32.64
1553852032625,3.6536633999999997,1.6927522000000002,8.9186735,-0.0029614746999999998,0.011729835,0.002025629,13.679998999999999,19.859999,-32.34
1553852032644,3.6488747999999998,1.6999351000000003,8.91628,-0.005404935699999999,0.014173295,0.00080389867,14.099998999999999,20.4,-31.679997999999998
1553852032665,3.6584517999999995,1.6951466,8.91628,-0.007848397,0.012951565,0.00019303341,13.98,20.039998999999998,-32.219997
1553852032684,3.6345089999999995,1.664021,8.906702000000001,-0.0060158009999999994,0.008675508,-0.0016395624,13.5,19.5,-32.04
1553852032705,3.6297207,1.6616267,8.930645,-0.009070126999999999,0.012951565,-0.001028697,12.84,19.56,-31.38
1553852032724,3.5962007000000007,1.6496553,8.906702000000001,-0.010902723000000001,0.014173295,0.002025629,13.2,19.74,-31.56
1553852032744,3.5914123,1.6688095,8.952193,-0.007848397,0.016616756,0.001414764,13.62,20.279999,-31.859999
1553852032765,3.5985951000000003,1.647261,8.952193,-0.007848397,0.017227621999999998,0.001414764,12.599999,20.699999,-32.04
1553852032784,3.5985951000000003,1.6352897,8.973742,-0.007237531700000001,0.012951565,0.00080389867,12.48,20.039998999999998,-32.399998
1553852032804,3.562681,1.6328955,8.992896,-0.0060158009999999994,0.010508103999999999,-0.003472158,13.139999,20.22,-32.04
1553852032824,3.5387383000000003,1.6137413,8.973742,-0.0029614746999999998,0.0037885862,0.00019303341,13.259998999999999,20.58,-32.1
1553852032845,3.4812756,1.6233183,8.959375999999999,9.285152e-05,0.0031777209999999997,0.0032473598,13.32,20.039998999999998,-32.88
1553852032865,3.4908525999999998,1.6328955,8.995291,0.003758043,-0.0029309313,0.008134281,13.2,20.22,-33.0
1553852032884,3.5363437999999996,1.6664151999999999,8.983319,0.014753617,-0.016369967,0.008745147,12.9,20.1,-34.2
1553852032904,3.5938065000000003,1.6759924,8.971347999999999,0.014753617,-0.018813428,0.010577743,12.66,19.859999,-34.92
1553852032924,3.6632404000000003,1.6592325,8.91628,0.012310157,-0.016369967,0.011188608999999999,13.019999499999999,19.92,-35.28
1553852032945,3.7302802,1.6520496999999998,8.875577,0.0043689082,-0.013926506000000002,0.00446909,12.719999000000001,20.52,-35.46
1553852032964,3.790137,1.6568381999999997,8.830086,9.285152e-05,-0.006596123000000001,0.00446909,12.12,21.06,-35.28
1553852032984,3.8140797999999996,1.6544438999999997,8.856422,-0.0023506095,0.0025668556,0.00080389867,12.48,20.58,-34.8
1553852033004,3.7757714,1.647261,8.889942,-0.008459262,0.011118969,-0.004083023,12.78,20.279999,-34.62
1553852033024,3.7638,1.6328955,8.945011000000001,-0.011513588,0.012951565,-0.0046938885999999996,13.019999499999999,20.58,-34.92
1553852033044,3.7183087,1.6233183,8.945011000000001,-0.012735318,0.016616756,-0.005304754,13.259998999999999,20.58,-35.34
1553852033064,3.6608462,1.6448668000000002,8.952193,-0.007848397,0.015395027,-0.003472158,12.9,20.46,-35.219997
1553852033085,3.6129606,1.6448668000000002,8.992896,0.0007037167699999999,0.009286373,-0.0022504274,12.66,19.8,-35.16
1553852033104,3.6345089999999995,1.6664151999999999,8.990502000000001,0.0019254473000000002,0.0031777209999999997,-0.003472158,12.96,19.74,-35.52
1553852033124,3.624932,1.6879636999999998,8.973742,0.0055906385999999995,-0.0035417966999999996,0.002025629,12.9,20.16,-35.46
1553852033144,3.6656345999999997,1.6831752,8.935433,0.007423234599999999,-0.0041526617,0.001414764,12.719999000000001,20.64,-35.579997999999996
1553852033164,3.675212,1.6568381999999997,8.913885,0.003758043,0.00012339478,0.00080389867,13.38,20.64,-35.1
1553852033184,3.7087317000000004,1.647261,8.909097000000001,-0.0023506095,-0.00048747047999999997,0.00080389867,13.38,20.22,-34.44
1553852033204,3.6584517999999995,1.637684,8.892337,-0.0041832053,0.0019559904,-0.0022504274,12.36,20.4,-34.739998
1553852033224,3.615355,1.6400781999999998,8.911489999999999,-0.009680992,0.011118969,-0.004083023,12.3,20.1,-35.64
1553852033244,3.5914123,1.637684,8.923461999999999,-0.010291858000000001,0.011729835,-0.003472158,12.3,20.1,-36.0
1553852033265,3.5962007000000007,1.6568381999999997,8.983319,-0.008459262,0.005621182,-0.005304754,12.54,20.279999,-35.1
1553852033284,3.5938065000000003,1.6520496999999998,8.956982,-0.007237531700000001,-0.0010983357,-0.0046938885999999996,12.9,20.279999,-34.739998
1553852033305,3.5674694,1.647261,8.942616000000001,-0.0035723401000000003,-0.007817853,-0.006526484599999999,12.42,19.98,-35.1
1553852033324,3.5794407999999995,1.6305011999999999,8.925857,-0.0041832053,-0.001709201,-0.0046938885999999996,12.059999000000001,20.1,-34.98
1553852033345,3.572258,1.6328955,8.904308,-0.0011288789,-0.0010983357,-0.0022504274,12.48,20.4,-35.04
1553852033364,3.5698638,1.6352897,8.935433,-0.0005180137,0.0013451253,-0.004083023,12.96,20.58,-35.04
1553852033385,3.5914123,1.6305011999999999,8.947405,9.285152e-05,-0.0010983357,-0.0046938885999999996,12.96,20.58,-34.62
1553852033404,3.5914123,1.6520496999999998,8.952193,0.0013145820000000001,-0.00048747047999999997,-0.00041783185,13.139999,20.699999,-35.04
1553852033424,3.5938065000000003,1.6520496999999998,8.964165,-0.00479407,0.0037885862,0.005079956,13.38,20.52,-35.52
1553852033444,3.5938065000000003,1.6233183,8.942616000000001,-0.0005180137,0.0019559904,0.00019303341,12.78,19.8,-34.739998
1553852033464,3.6081722000000003,1.6424724999999998,8.923461999999999,-0.0005180137,0.00012339478,0.003858225,12.42,19.92,-34.62
1553852033484,3.6345089999999995,1.6400781999999998,8.956982,-0.0029614746999999998,-0.0023200663,0.0026364942999999997,12.42,20.58,-35.34
1553852033505,3.6392976999999997,1.6592325,8.945011000000001,0.0007037167699999999,-0.0029309313,0.006912550999999999,12.84,20.039998999999998,-35.04
1553852033524,3.6512692,1.620924,8.942616000000001,-0.0017397442000000002,-0.0010983357,0.0032473598,13.139999,19.439999,-34.5
1553852033544,3.668029,1.6400781999999998,8.911489999999999,-0.0005180137,0.00012339478,0.003858225,13.2,20.34,-34.8
1553852033564,3.6800002999999997,1.6281068,8.901914,9.285152e-05,0.0019559904,0.005079956,13.019999499999999,20.699999,-34.8
1553852033584,3.6728175000000003,1.6113469999999999,8.899519999999999,-0.0011288789,0.004399452,0.0026364942999999997,12.42,20.16,-34.92
1553852033604,3.6728175000000003,1.6233183,8.940222,-0.0011288789,0.006232046999999999,0.00019303341,12.719999000000001,19.98,-35.46
1553852033624,3.6392976999999997,1.6305011999999999,8.964165,-0.0017397442000000002,0.0068429126,-0.00041783185,12.54,20.46,-35.46
1553852033645,3.6369035000000003,1.637684,8.923461999999999,-0.0011288789,0.004399452,-0.005304754,12.0,20.039998999999998,-35.1
1553852033664,3.624932,1.6592325,8.93304,0.0007037167699999999,0.008064643,-0.0028612928000000004,12.059999000000001,19.8,-35.28
1553852033684,3.6297207,1.620924,8.945011000000001,0.0025363127,0.0037885862,-0.005304754,12.12,20.22,-35.16
1553852033705,3.605778,1.6520496999999998,8.942616000000001,9.285152e-05,-0.00048747047999999997,-0.006526484599999999,12.599999,20.16,-35.04
1553852033724,3.5938065000000003,1.6616267,8.937828,0.0031471776,-0.0053743925,-0.009580811,13.019999499999999,20.22,-34.8
1553852033744,3.5938065000000003,1.6592325,8.935433,0.0031471776,-0.00048747047999999997,-0.005304754,13.5,20.46,-34.739998
1553852033765,3.6225379,1.6328955,8.925857,0.0055906385999999995,0.004399452,-0.0046938885999999996,13.139999,20.52,-35.46
1553852033784,3.6297207,1.620924,8.913885,0.0049797734,0.0025668556,-0.004083023,12.24,20.279999,-35.399998
1553852033804,3.6105663999999997,1.6544438999999997,8.92825,-0.0023506095,-0.00048747047999999997,-0.0046938885999999996,12.48,20.58,-34.8
1553852033824,3.581835,1.6664151999999999,8.925857,-0.0023506095,0.0068429126,-0.005304754,12.719999000000001,20.82,-35.04
1553852033845,3.6273263,1.6496553,8.921068,-0.0041832053,0.014173295,-0.001028697,12.84,20.82,-34.739998
1553852033864,3.624932,1.6496553,8.925857,-0.0035723401000000003,0.0037885862,-0.0016395624,13.019999499999999,20.58,-34.86
1553852033884,3.6225379,1.6712039,8.925857,-0.0041832053,0.0031777209999999997,-0.00041783185,12.599999,20.46,-34.92
1553852033905,3.624932,1.6448668000000002,8.947405,-0.0060158009999999994,0.0068429126,0.002025629,12.179999,20.46,-34.26
1553852033925,3.6392976999999997,1.637684,8.945011000000001,-0.00479407,0.007453778,0.002025629,12.599999,20.279999,-34.44
1553852033944,3.6440864,1.6305011999999999,8.937828,-0.00479407,0.005621182,0.00080389867,12.9,19.92,-34.5
1553852033965,3.6512692,1.6257126,8.940222,-0.005404935699999999,0.005010317,-0.0022504274,12.78,19.56,-34.38
1553852033984,3.6536633999999997,1.6281068,8.959375999999999,-0.0029614746999999998,0.007453778,-0.003472158,12.9,19.68,-34.38
1553852034005,3.6369035000000003,1.6352897,8.937828,-0.0005180137,0.00073426,-0.0016395624,13.139999,20.16,-34.5
1553852034024,3.632115,1.6520496999999998,8.956982,-0.0023506095,0.00073426,-0.0022504274,12.66,20.1,-34.32
1553852034044,3.6369035000000003,1.6305011999999999,8.930645,-0.0023506095,0.0031777209999999997,-0.005915619,12.48,20.279999,-34.5
1553852034065,3.641692,1.6328955,8.959375999999999,-0.0035723401000000003,0.0037885862,-0.003472158,12.96,21.0,-34.86
1553852034085,3.6488747999999998,1.6400781999999998,8.954588000000001,-0.005404935699999999,0.00073426,-0.0077482144999999995,12.96,20.82,-34.62
1553852034104,3.6536633999999997,1.6520496999999998,8.925857,-0.0023506095,-0.0035417966999999996,-0.0077482144999999995,12.66,20.58,-34.62
1553852034125,3.6536633999999997,1.6400781999999998,8.937828,-0.0060158009999999994,-0.00048747047999999997,-0.0077482144999999995,12.9,20.34,-34.86
1553852034144,3.632115,1.6448668000000002,8.921068,-0.005404935699999999,0.0037885862,-0.006526484599999999,12.719999000000001,19.98,-34.98
1553852034164,3.624932,1.6257126,8.911489999999999,-0.007848397,0.011118969,-0.008969945,12.42,20.1,-34.68
1553852034185,3.6129606,1.6305011999999999,8.945011000000001,-0.006626666,0.012340700000000001,-0.005915619,12.84,20.34,-34.68
1553852034204,3.6033835,1.6305011999999999,8.971347999999999,-0.00479407,0.009897239,-0.0046938885999999996,12.78,20.699999,-34.079997999999996
1553852034225,3.5866237,1.6352897,8.976136,-0.0035723401000000003,0.009286373,-0.0022504274,12.3,20.699999,-34.32
1553852034244,3.5842294999999997,1.6113469999999999,8.959375999999999,-0.0029614746999999998,0.008064643,-0.0028612928000000004,12.059999000000001,20.52,-35.04
1553852034264,3.572258,1.6400781999999998,8.9498,0.0013145820000000001,0.008675508,-0.0016395624,12.3,20.76,-34.68
1553852034284,3.581835,1.6328955,8.940222,9.285152e-05,0.008675508,0.0032473598,12.78,20.279999,-35.28
1553852034304,3.5770466,1.6352897,8.971347999999999,0.0031471776,0.0031777209999999997,0.001414764,13.44,19.92,-35.64
1553852034324,3.6033835,1.637684,8.985713,0.003758043,-0.0047635273,0.0026364942999999997,12.66,20.82,-35.52
1553852034345,3.6369035000000003,1.6520496999999998,8.983319,0.0055906385999999995,-0.012704776000000001,0.00019303341,12.12,20.699999,-35.04
1553852034364,3.632115,1.6305011999999999,8.947405,0.003758043,-0.008428719,0.002025629,13.139999,20.039998999999998,-34.26
1553852034385,3.6297207,1.6161355,8.889942,0.0031471776,-0.0029309313,-0.0016395624,12.96,20.699999,-34.32
1553852034406,3.6369035000000003,1.620924,8.913885,-0.0005180137,0.0019559904,-0.003472158,12.84,20.52,-34.32
1553852034424,3.624932,1.6496553,8.947405,-0.0023506095,0.00012339478,-0.003472158,12.9,19.74,-34.14
1553852034447,3.605778,1.664021,8.954588000000001,-0.00479407,0.0025668556,-0.0016395624,13.019999499999999,19.859999,-34.44
1553852034464,3.5890178999999995,1.6759924,8.947405,-0.0011288789,0.00012339478,-0.0016395624,12.84,19.92,-34.86
1553852034485,3.5866237,1.6496553,8.935433,9.285152e-05,-0.0047635273,-0.0028612928000000004,12.78,20.76,-35.34
1553852034504,3.5770466,1.6496553,8.937828,-0.0023506095,-0.0041526617,-0.0022504274,13.38,20.58,-35.1
1553852034524,3.5698638,1.6616267,8.913885,-0.0041832053,0.0025668556,0.00080389867,12.78,19.74,-35.1
1553852034545,3.6081722000000003,1.637684,8.935433,-0.0029614746999999998,0.00012339478,0.00080389867,12.3,20.1,-35.1
1553852034564,3.632115,1.6448668000000002,8.968952999999999,-0.0017397442000000002,-0.0041526617,0.00080389867,12.42,20.16,-34.92
1553852034585,3.624932,1.6185298000000001,8.952193,-0.0023506095,-0.0047635273,0.0032473598,12.719999000000001,20.52,-35.16
1553852034604,3.6536633999999997,1.620924,8.93304,-0.0017397442000000002,-0.0023200663,0.00080389867,13.139999,20.76,-34.98
1553852034624,3.668029,1.6137413,8.947405,9.285152e-05,-0.0029309313,-0.001028697,12.78,20.1,-34.86
1553852034644,3.668029,1.6089526,8.952193,-0.0035723401000000003,-0.001709201,-0.00041783185,12.78,20.58,-35.219997
1553852034665,3.6488747999999998,1.6161355,8.925857,-0.0041832053,0.0013451253,-0.0016395624,12.48,20.58,-35.7
1553852034684,3.6584517999999995,1.6137413,8.930645,-0.0041832053,0.004399452,-0.0022504274,12.36,19.8,-35.399998
1553852034705,3.6345089999999995,1.6305011999999999,8.968952999999999,-0.0023506095,0.005621182,-0.0022504274,13.08,20.52,-34.86
1553852034724,3.6225379,1.6185298000000001,8.937828,-0.0005180137,0.0025668556,-0.0028612928000000004,13.2,20.939999,-34.68
1553852034744,3.605778,1.6616267,8.945011000000001,0.0013145820000000001,0.0037885862,-0.0022504274,12.9,20.699999,-34.5
1553852034765,3.5602864999999997,1.647261,8.92825,0.0025363127,0.0019559904,0.002025629,12.54,20.4,-34.44
1553852034785,3.5602864999999997,1.6305011999999999,8.956982,0.0025363127,0.0019559904,0.0032473598,12.24,20.22,-34.98
1553852034804,3.5267668,1.6281068,8.959375999999999,0.006812369499999999,-0.0035417966999999996,0.005690820500000001,12.66,20.039998999999998,-35.46
1553852034824,3.5435266000000003,1.6113469999999999,9.004868,0.012310157,-0.007817853,0.008745147,13.019999499999999,20.1,-35.34
1553852034845,3.5794407999999995,1.6137413,9.004868,0.013531887,-0.011483044,0.008745147,12.84,20.58,-35.46
1553852034864,3.6345089999999995,1.6544438999999997,8.956982,0.011699291,-0.015759101,0.0075234165,13.019999499999999,21.0,-35.399998
1553852034884,3.7135203000000003,1.6400781999999998,8.889942,0.013531887,-0.018202562,-0.001028697,13.08,21.359999,-34.559998
1553852034904,3.7278860000000003,1.6257126,8.901914,0.00925583,-0.016369967,-0.003472158,13.2,21.18,-34.38
1553852034924,3.74704,1.647261,8.911489999999999,0.0019254473000000002,-0.013926506000000002,-0.005915619,13.08,20.52,-34.44
1553852034945,3.7542229,1.6568381999999997,8.904308,-0.0017397442000000002,-0.007817853,-0.009580811,12.54,20.34,-34.32
1553852034964,3.7159145,1.6759924,8.885154,-0.00479407,0.00012339478,-0.012635137,12.36,19.8,-34.68
1553852034984,3.668029,1.6328955,8.887547999999999,-0.010291858000000001,0.009286373,-0.010802541,12.48,19.98,-35.28
1553852035004,3.6512692,1.6305011999999999,8.940222,-0.010291858000000001,0.014784161,-0.006526484599999999,12.719999000000001,20.4,-35.04
1553852035024,3.624932,1.6664151999999999,8.937828,-0.005404935699999999,0.012340700000000001,-0.0046938885999999996,12.78,20.1,-35.16
1553852035045,3.5890178999999995,1.6592325,8.956982,-0.0035723401000000003,0.009897239,-0.003472158,12.66,20.82,-35.82
1553852035064,3.5602864999999997,1.6831752,8.911489999999999,-0.0011288789,0.008064643,0.00019303341,13.139999,20.88,-34.98
1553852035084,3.5531040000000003,1.6448668000000002,8.945011000000001,-0.0011288789,0.004399452,0.001414764,13.32,20.279999,-34.2
1553852035104,3.5411325,1.6903580000000002,8.91628,-0.0029614746999999998,0.0037885862,0.006301685699999999,13.5,19.859999,-34.92
1553852035124,3.510007,1.6688095,8.956982,-0.0023506095,0.0013451253,0.010577743,13.019999499999999,20.16,-35.64
1553852035144,3.4716985,1.6161355,8.976136,0.0007037167699999999,-0.001709201,0.01729726,12.78,20.939999,-35.16
1553852035164,3.476487,1.6257126,8.985713,0.010477561,-0.011483044,0.021573316000000002,13.32,20.4,-35.04
1553852035185,3.4980354,1.637684,8.968952999999999,0.012921021000000001,-0.015148236,0.023405912999999997,12.96,19.859999,-35.94
1553852035205,3.5531040000000003,1.6185298000000001,8.964165,0.017197078,-0.018202562,0.023405912999999997,12.9,20.58,-36.12
1553852035224,3.6632404000000003,1.6017698,8.923461999999999,0.016586214,-0.019424293000000002,0.021573316000000002,13.259998999999999,20.699999,-35.28
1553852035245,3.7542229,1.620924,8.93304,0.015975347,-0.02125689,0.014242933999999999,13.44,20.699999,-34.68
1553852035265,3.8116856,1.6616267,8.909097000000001,0.011088425,-0.018813428,0.008134281,13.32,21.24,-34.739998
1553852035284,3.8954852,1.6783867,8.849239,0.0080341,-0.01087218,0.0026364942999999997,13.139999,20.939999,-34.8
1553852035305,3.9242165,1.6783867,8.839663,0.0007037167699999999,-0.009039585,-0.003472158,13.08,20.58,-34.68
1553852035324,3.9074564,1.6783867,8.839663,-0.010902723000000001,0.004399452,-0.00713735,13.019999499999999,20.279999,-34.92
1553852035344,3.8667538,1.6712039,8.856422,-0.014567914,0.009286373,-0.009580811,12.96,20.16,-34.62
1553852035364,3.7853483999999997,1.6616267,8.892337,-0.019454835,0.012951565,-0.012635137,13.139999,20.46,-34.14
1553852035384,3.6608462,1.637684,8.947405,-0.021898296,0.018449353,-0.008969945,12.719999000000001,20.1,-34.44
1553852035404,3.5770466,1.6089526,8.971347999999999,-0.01762224,0.019671084,-0.005915619,12.66,19.92,-34.5
1553852035425,3.4525442,1.6161355,9.028810499999999,-0.020065702,-0.005985257700000001,0.005690820500000001,13.139999,19.98,-34.26
1553852035444,3.4573328,1.5874043,9.028810499999999,-0.0029614746999999998,0.010508103999999999,0.006912550999999999,13.32,19.74,-34.26
1553852035464,3.4262072999999997,1.5706443,9.021627,0.0013145820000000001,0.007453778,0.009356013,13.2,20.039998999999998,-34.68
1553852035484,3.4190245000000004,1.5826156,9.026416000000001,0.009866696,-0.0041526617,0.015464664,12.059999000000001,19.98,-34.8
1553852035504,3.4262072999999997,1.5993756000000001,9.012051,0.022084,-0.021867754,0.013632068,12.059999000000001,19.92,-35.1
1553852035524,3.45015,1.6568381999999997,8.9976845,0.025138326000000003,-0.033474192,0.019740721,12.3,20.279999,-35.46
1553852035544,3.5243726000000004,1.7119064,8.952193,0.026360057000000003,-0.03958285,0.022184184,12.24,19.98,-35.16
1553852035564,3.6392976999999997,1.7095122,8.873182,0.026360057000000003,-0.03958285,0.020351587,12.66,19.56,-35.04
1553852035584,3.756617,1.6759924,8.825297,0.016586214,-0.038361114,0.01607553,12.96,20.16,-35.16
1553852035605,3.816474,1.673598,8.837268,0.0025363127,-0.037139386,0.006301685699999999,13.139999,20.88,-35.04
1553852035624,3.849994,1.6903580000000002,8.830086,-0.00479407,-0.029198138,-0.004083023,13.2,20.52,-35.219997
1553852035645,3.840417,1.6496553,8.834874000000001,-0.01395705,-0.014537371,-0.006526484599999999,12.9,20.279999,-35.34
1553852035664,3.8140797999999996,1.6041641000000002,8.887547999999999,-0.015178779,-0.0047635273,-0.010802541,12.78,20.76,-35.28
1553852035684,3.7877428999999996,1.5921928,8.921068,-0.014567914,-0.001709201,-0.010191676,13.08,20.76,-34.92
1553852035705,3.7638,1.56825,8.947405,-0.011513588,0.005010317,-0.010191676,12.599999,20.4,-35.219997
1553852035724,3.7326744,1.5634614,8.935433,-0.008459262,0.011118969,-0.00835908,12.48,20.52,-35.46
1553852035745,3.7183087,1.5419129999999999,8.952193,-0.007237531700000001,0.013562431000000002,-0.0077482144999999995,12.54,20.88,-34.559998
1553852035764,3.6919718,1.5490957,8.954588000000001,-0.0029614746999999998,0.012951565,-0.009580811,13.08,20.64,-34.86
1553852035784,3.6871831,1.5802213999999999,8.940222,0.0031471776,0.008064643,-0.00835908,13.259998999999999,20.88,-35.399998
1553852035804,3.6584517999999995,1.5874043,8.9186735,0.0055906385999999995,0.009286373,-0.008969945,12.48,20.82,-34.86
1553852035824,3.6512692,1.6113469999999999,8.913885,0.0043689082,0.008064643,-0.008969945,12.78,19.98,-35.64
1553852035845,3.605778,1.6257126,8.911489999999999,0.006201504,0.017227621999999998,-0.005915619,13.08,20.1,-36.66
1553852035866,3.5890178999999995,1.620924,8.913885,0.003758043,0.018449353,-0.006526484599999999,12.54,20.88,-35.579997999999996
1553852035884,3.5842294999999997,1.6592325,8.935433,0.0049797734,0.014784161,-0.006526484599999999,13.019999499999999,20.939999,-34.739998
1553852035905,3.6081722000000003,1.673598,8.942616000000001,0.0043689082,0.010508103999999999,0.00080389867,13.2,20.16,-34.86
1553852035924,3.5985951000000003,1.7143008000000002,8.9498,0.007423234599999999,0.005010317,0.001414764,13.259998999999999,20.16,-34.68
1553852035945,3.5938065000000003,1.6855695,8.9186735,0.009866696,-0.0010983357,0.001414764,13.259998999999999,20.22,-35.1
1553852035964,3.632115,1.7190893,8.863605499999998,0.0080341,-0.005985257700000001,0.0032473598,12.48,20.039998999999998,-35.219997
1553852035986,3.6632404000000003,1.7119064,8.849239,9.285152e-05,-0.0047635273,0.005690820500000001,12.3,20.1,-35.219997
1553852036004,3.7135203000000003,1.6999351000000003,8.861211,-0.0011288789,-0.0047635273,0.002025629,12.48,20.16,-35.579997999999996
1553852036025,3.6967604,1.6568381999999997,8.906702000000001,-0.0060158009999999994,-0.0072069885,-0.0016395624,12.42,20.34,-35.1
1553852036044,3.6919718,1.6496553,8.93304,-0.0029614746999999998,-0.0023200663,-0.0016395624,12.78,19.98,-34.68
1553852036064,3.668029,1.6281068,8.942616000000001,-0.005404935699999999,-0.0023200663,0.002025629,13.08,19.74,-34.92
1553852036084,3.703943,1.6041641000000002,8.93304,0.0007037167699999999,-0.005985257700000001,0.002025629,12.719999000000001,19.98,-34.86
1553852036105,3.7135203000000003,1.6257126,8.937828,0.0019254473000000002,-0.010261314,-0.0022504274,12.3,19.98,-34.739998
1553852036124,3.7446458,1.6305011999999999,8.935433,9.285152e-05,-0.008428719,0.00080389867,12.48,19.619999,-35.34
1553852036144,3.7422516000000003,1.620924,8.911489999999999,0.003758043,-0.001709201,0.002025629,12.84,19.619999,-35.219997
1553852036165,3.7159145,1.5850098999999997,8.913885,0.0043689082,0.00073426,0.00446909,12.78,19.68,-34.86
1553852036184,3.7446458,1.620924,8.911489999999999,0.0055906385999999995,0.0037885862,0.005079956,12.54,19.74,-34.92
1553852036205,3.7446458,1.6281068,8.887547999999999,0.0025363127,0.0037885862,0.005690820500000001,12.12,20.16,-35.34
1553852036224,3.7183087,1.6328955,8.906702000000001,-0.0011288789,0.010508103999999999,0.003858225,12.36,20.16,-34.98
1553852036245,3.7398572,1.647261,8.93304,-0.0041832053,0.012951565,0.00080389867,12.719999000000001,20.58,-34.86
1553852036264,3.7302802,1.6664151999999999,8.925857,-0.0005180137,0.005621182,0.00019303341,12.24,20.82,-35.64
1553852036285,3.703943,1.6712039,8.911489999999999,-0.0029614746999999998,0.004399452,-0.0028612928000000004,12.36,20.82,-35.399998
1553852036304,3.7302802,1.6568381999999997,8.901914,-0.0035723401000000003,0.008675508,0.00019303341,12.9,20.52,-34.98
1553852036325,3.6967604,1.647261,8.894731,-0.0029614746999999998,0.007453778,0.00080389867,12.84,20.64,-35.46
1553852036344,3.6919718,1.6616267,8.894731,-0.00479407,0.0068429126,0.00080389867,12.48,20.64,-35.64
1553852036365,3.6895776,1.6448668000000002,8.9186735,-0.008459262,0.010508103999999999,0.0032473598,12.42,20.22,-34.739998
1553852036384,3.6728175000000003,1.6185298000000001,8.913885,-0.008459262,0.010508103999999999,0.00019303341,12.36,20.22,-34.38
1553852036404,3.6345089999999995,1.6137413,8.923461999999999,-0.010291858000000001,0.016616756,-0.0022504274,12.179999,20.76,-35.1
1553852036424,3.6225379,1.6137413,8.92825,-0.012124454,0.018449353,-0.00041783185,12.3,21.24,-35.399998
1553852036445,3.6081722000000003,1.6089526,8.940222,-0.009070126999999999,0.016616756,-0.001028697,12.84,20.699999,-34.98
1553852036464,3.6225379,1.6328955,8.937828,-0.007848397,0.015395027,0.002025629,13.019999499999999,20.34,-34.98
1553852036484,3.6297207,1.6352897,8.92825,-0.00479407,0.012340700000000001,0.0026364942999999997,12.84,20.279999,-34.5
1553852036505,3.6464806000000003,1.6305011999999999,8.93304,-0.0041832053,0.013562431000000002,0.003858225,12.599999,20.58,-34.32
1553852036524,3.632115,1.6281068,8.9498,-0.007237531700000001,0.014173295,0.006912550999999999,12.48,20.1,-35.28
1553852036544,3.6488747999999998,1.6185298000000001,8.940222,-0.0060158009999999994,0.011118969,0.008134281,12.24,19.859999,-35.34
1553852036565,3.6536633999999997,1.6113469999999999,8.935433,-0.0041832053,0.010508103999999999,0.0075234165,12.179999,20.699999,-34.86
1553852036584,3.6273263,1.6089526,8.923461999999999,-0.005404935699999999,0.010508103999999999,0.0075234165,12.719999000000001,20.64,-35.04
1553852036604,3.6800002999999997,1.6017698,8.9186735,-0.006626666,0.009897239,0.0075234165,13.08,20.64,-35.46
1553852036625,3.6369035000000003,1.6017698,8.9186735,-0.006626666,0.012951565,0.006301685699999999,12.9,20.52,-35.34
1553852036644,3.641692,1.6041641000000002,8.961771,-0.0035723401000000003,0.009897239,0.005079956,12.42,20.4,-34.68
