TimeStamp,Ax,Ay,Az,Gx,Gy,Gz,Mx,My,Mz
1554115534827,6.3711652999999995,5.138114,5.150085,-0.035366043,0.08566469,0.004972443,-32.82,22.26,-4.38
1554115534847,6.160469,5.0399485,5.5044379999999995,-0.058578923,0.08688642,0.006194174,-32.64,22.68,-4.62
1554115534867,5.995264,4.932206,5.9473785999999995,-0.048194215,0.07527997,0.004972443,-32.7,22.98,-4.7999997
1554115534887,5.8755503,4.9202347,6.124555,-0.004211916,0.05451056,0.004972443,-33.36,22.38,-4.3199997
1554115534907,5.7989334999999995,5.0088230000000005,6.028784,0.039770383,0.028243355,0.007415904,-32.7,22.5,-4.3199997
1554115534927,5.8156934,5.2027593,5.8156934,0.056874607,0.0019761492,0.022687534,-32.04,22.619999,-5.04
1554115534947,5.851608000000001,5.310501599999999,5.7318940000000005,0.039159514,-0.021847595,0.044678684,-32.28,21.72,-5.8199997
1554115534967,5.94259,5.3272614,5.7199225,0.02327702,-0.049336534,0.06972416,-32.7,21.72,-5.58
1554115534988,6.0838523,5.1907879999999995,5.672037,0.018390099,-0.07682547,0.090493575,-32.82,22.32,-5.64
1554115535007,6.2706056,5.0040345,5.502043700000001,0.016557503,-0.071938545,0.084384926,-32.82,22.98,-7.3799996
1554115535028,6.4549650000000005,4.908263,5.3488097,0.011670581000000001,-0.051169127,0.059950314000000005,-33.3,22.859999,-8.519999499999999
1554115535047,6.5579184999999995,4.8986864,5.3272614,0.009837985,-0.03528663,0.03368311,-33.18,22.68,-8.46
1554115535067,6.560312700000001,4.9537544,5.3703585,0.009227119,-0.029177979,0.018411478000000002,-32.219997,23.1,-7.259999799999999
1554115535087,6.5148215,5.0758624,5.3966956,0.0037293321999999998,-0.021847595,0.017189749,-32.28,23.279999,-6.72
1554115535108,6.4932733,5.0830455,5.4565525,0.0006750061000000001,-0.012073752,0.022687534,-32.94,22.8,-7.3199997
1554115535127,6.5052447,4.996851400000001,5.525986,0.0012858714,-0.0029107728,0.014746287,-33.0,22.68,-7.8599997
1554115535148,6.526793,4.869955,5.499649,0.0012858714,0.01602605,-0.009688323,-32.579997999999996,22.92,-7.7999997
1554115535167,6.5124273,4.8627720000000005,5.514014700000001,-0.0011575897,0.027021623999999998,-0.021294761000000002,-32.399998,22.38,-7.7999997
1554115535187,6.423839,4.982486,5.487678,-0.0017684549,0.021523837,-0.021905629,-32.46,22.5,-7.2
1554115535208,6.3232800000000005,5.1021996,5.3871183,-0.004211916,0.0148043195,-0.018240436999999998,-32.46,23.1,-7.14
1554115535227,6.2586346,5.1548739999999995,5.377541000000001,-0.0011575897,0.04412585,-0.01640784,-32.579997999999996,22.8,-7.3799996
1554115535247,6.246663,5.138114,5.549929,0.0025076016,0.05878661599999999,-0.0060231313,-32.82,22.439999,-7.62
1554115535268,6.182017299999999,5.0950169999999995,5.6457,0.011670581000000001,0.050845365999999996,-0.0005253441,-32.76,22.56,-8.16
1554115535287,6.2083544999999996,5.121353599999999,5.626546,0.019611828,0.036184605,0.0037507126,-33.0,22.74,-8.4
1554115535307,6.318491000000001,5.1309309999999995,5.5619005999999995,0.0037293321999999998,0.033130277,-0.0017470747,-33.059998,22.74,-8.22
1554115535328,6.275394400000001,5.0926222999999995,5.5092263,-0.025592199,0.03557374,-0.013964378999999999,-33.0,22.439999,-8.28
1554115535347,6.2155375,5.0806512999999995,5.5810547,-0.058578923,0.03496287,-0.021905629,-32.7,22.14,-8.28
1554115535367,6.2322974,4.9872746,5.6337285,-0.06652017,0.036795467000000005,-0.020683898,-32.52,22.38,-7.98
1554115535388,6.2538457,4.925023,5.648094,-0.07629401,0.03496287,-0.029236011,-33.3,23.46,-8.099999
1554115535407,6.25624,4.925023,5.66246,-0.0555246,0.038628064,-0.03290119999999999,-33.3,23.279999,-7.5
1554115535427,6.201172,5.020794400000001,5.6552773,-0.029868256,0.030686814,-0.029846877,-32.82,22.439999,-7.5
1554115535447,6.2179317,5.1907879999999995,5.643306,0.0025076016,0.021523837,-0.009077458,-33.059998,22.32,-8.519999499999999
1554115535467,6.25624,5.2482505,5.5738715999999995,0.02083356,0.012360858,0.014746287,-32.94,22.14,-8.519999499999999
1554115535488,6.23948,5.193182,5.4134555,0.016557503,0.022745566000000002,0.028796189,-32.52,22.14,-7.2
1554115535507,6.205960299999999,5.109382599999999,5.4421870000000006,0.0037293321999999998,0.04595845,0.029407052000000003,-32.28,22.38,-7.5
1554115535527,6.136526,4.9609375,5.537957700000001,0.0055619282999999995,0.069171324,0.025741862,-32.399998,22.38,-8.46
1554115535547,6.1724404999999996,4.891503299999999,5.7199225,-0.004211916,0.07222565,0.02207667,-32.76,22.74,-8.16
1554115535567,6.1892004,4.948966,5.8444247,-0.007266241999999999,0.056954022,0.012302826000000001,-32.88,23.34,-8.16
1554115535588,6.193989,5.05192,5.89231,-0.0060445117000000005,0.030686814,0.011081096,-32.52,22.199999,-6.66
1554115535607,6.201172,5.030371,5.7917510000000005,0.0006750061000000001,0.003808745,0.012302826000000001,-32.579997999999996,21.6,-5.2799997
1554115535627,6.182017299999999,5.0184,5.7175283,0.012892311000000002,-0.011462886,0.006805039000000001,-33.18,21.9,-6.2999997
1554115535648,6.1892004,5.0591025,5.698374299999999,0.021444422999999997,-0.023680191,0.006805039000000001,-33.3,21.18,-7.2
1554115535667,6.182017299999999,5.0950169999999995,5.681614,0.028774807000000003,-0.04261701,0.0135245565,-32.46,21.779999,-7.3199997
1554115535687,6.186806,5.0830455,5.7031627,0.031829134,-0.04689307,0.017800614,-31.8,22.5,-6.48
1554115535708,6.184412,5.0231886,5.640911599999999,0.034883462000000004,-0.05300172400000001,0.017800614,-32.1,22.74,-6.0
1554115535727,6.2490573,4.948966,5.5355635,0.03244,-0.035897497,0.012302826000000001,-32.76,22.859999,-7.5
1554115535747,6.186806,4.9800916,5.549929,0.019611828,-0.020625865,0.007415904,-33.059998,21.96,-8.58
1554115535768,6.170046299999999,5.0375543,5.640911599999999,0.015335771000000002,-0.02123673,0.014135422,-33.059998,21.84,-8.7
1554115535787,6.220326,5.0638914,5.61218,0.017168367,-0.026734518,0.014746287,-32.88,22.32,-7.9199996
1554115535807,6.263423,5.042342700000001,5.4948606,0.014114041,-0.019404136000000002,0.009859365,-32.579997999999996,22.32,-7.7999997
1554115535828,6.2514515,4.989669,5.5092263,0.008616254,-0.0102411555,0.008637634,-32.579997999999996,22.68,-8.4
1554115535847,6.22272,4.9992456,5.6241517,0.011059715,-0.012684616999999999,0.007415904,-31.92,22.74,-8.28
1554115535867,6.220326,5.0327660000000005,5.6241517,0.020222694,-0.011462886,0.0031398472,-32.34,22.199999,-7.56
1554115535888,6.2346916,5.0662856,5.626546,0.023887886,0.0013652839000000002,-0.0066339965,-32.94,22.619999,-7.14
1554115535907,6.1413150000000005,5.104593799999999,5.566689,0.015335771000000002,-0.0004673119,-0.0066339965,-32.46,22.859999,-7.74
1554115535927,6.1101894,5.150085,5.643306,0.0043401974,-0.01879327,0.0006963864,-32.579997999999996,22.68,-8.04
1554115535947,6.182017299999999,5.147691,5.6504884,0.0018967367000000002,-0.03711923,0.017189749,-32.7,22.98,-7.98
1554115535967,6.273,5.030371,5.595420400000001,0.0055619282999999995,-0.043838747000000004,0.027574457,-32.34,23.279999,-8.099999
1554115535987,6.325673999999999,4.96812,5.4804949999999995,0.009227119,-0.040173553,0.027574457,-31.98,22.68,-7.44
1554115536007,6.344828,4.96812,5.446975,0.012281446000000001,-0.03773009,0.025741862,-32.28,22.14,-7.44
1554115536027,6.299337,5.00164,5.4948606,-0.00237932,-0.03711923,0.02207667,-32.94,22.5,-8.099999
1554115536047,6.2682114,5.0854397,5.571477400000001,-0.010931433999999999,-0.031010574,0.023909265,-32.7,22.98,-8.82
1554115536067,6.23948,5.090228,5.559506,-0.021927007999999998,-0.031010574,0.027574457,-32.34,22.68,-9.3
1554115536087,6.316097,5.0136113,5.583449,-0.023759604,-0.03284317,0.041013494,-32.46,22.02,-8.46
1554115536107,6.316097,4.9609375,5.571477400000001,-0.0029901853000000003,-0.015128078,0.03857003,-32.1,22.14,-7.74
1554115536127,6.3567995999999996,4.932206,5.4852834,0.01044885,-0.0022999076,0.037959166,-31.98,22.98,-7.8599997
1554115536147,6.3759537,4.96812,5.3943010000000005,0.0037293321999999998,0.012360858,0.036737435,-32.219997,23.22,-7.9199996
1554115536168,6.438205,5.042342700000001,5.4110613,-0.01765095,0.016636916,0.035515702999999996,-32.04,23.4,-8.099999
1554115536187,6.4501762000000005,5.0567082999999995,5.420637999999999,-0.026203063999999998,0.022745566000000002,0.021465803999999998,-32.16,22.619999,-7.98
1554115536208,6.407079,5.011217,5.525986,-0.020094411,0.040460657000000004,-0.0029688051,-32.399998,22.32,-7.2
1554115536227,6.378348,4.9393888,5.657671499999999,-0.0060445117000000005,0.03007595,-0.0066339965,-32.64,22.74,-7.14
1554115536247,6.3903193,5.0184,5.7917510000000005,0.0018967367000000002,0.0019761492,-0.011520918,-32.28,22.08,-7.3799996
1554115536268,6.349616999999999,5.047130999999999,5.6600657,0.0049510626,-0.027345384,-0.010299188,-31.679997999999998,22.619999,-7.9199996
1554115536287,6.23948,5.054314,5.4661292999999995,-0.0029901853000000003,-0.027345384,-0.0048014005,-32.34,22.98,-7.98
1554115536307,6.138921,5.0040345,5.4302154,-0.02314874,0.012360858,0.007415904,-32.88,22.98,-7.02
1554115536328,6.1724404999999996,5.047130999999999,5.5523233,-0.023759604,0.042293254,0.006194174,-33.059998,22.8,-7.08
1554115536347,6.2945485,5.0184,5.5882373,-0.01520749,0.036795467000000005,0.0019181169,-32.399998,22.859999,-7.9199996
1554115536367,6.4094739999999994,5.0231886,5.569083,-0.031700853,0.01846951,0.0019181169,-32.46,22.859999,-7.8599997
1554115536388,6.459753500000001,4.9561486,5.5355635,-0.041474696,0.013582588999999999,0.004972443,-33.18,22.619999,-7.8599997
1554115536407,6.428628,4.905869,5.5523233,-0.026203063999999998,0.017858647,-0.0005253441,-32.76,22.98,-7.14
1554115536427,6.404685,4.9274178,5.566689,-0.009709704,0.025799895,-0.007855727,-32.399998,22.98,-6.6
1554115536448,6.301731,4.9872746,5.569083,-0.0005467243599999999,0.022745566000000002,-0.011520918,-32.7,22.92,-7.9199996
1554115536467,6.308914,5.0375543,5.5978145999999995,-0.0005467243599999999,0.019080376,-0.007244861700000001,-33.42,23.279999,-7.98
1554115536487,6.349616999999999,5.0375543,5.6169686,-0.0054336459999999994,0.017858647,0.005583308,-33.0,23.22,-8.099999
1554115536507,6.352011,4.9633317,5.6600657,-0.0036010507,0.010528262,0.012913692,-32.219997,22.92,-7.9199996
1554115536527,6.325673999999999,4.896292,5.5810547,0.008005389,0.00014355333,0.014746287,-32.28,22.98,-7.259999799999999
1554115536547,6.28976,4.932206,5.4900723,0.013503177,-0.0004673119,0.004361578,-32.219997,22.92,-7.3199997
1554115536567,6.299337,4.96812,5.4924664000000005,0.003118467,0.01724778,-0.0060231313,-31.8,22.74,-6.96
1554115536588,6.3232800000000005,5.0040345,5.5978145999999995,-0.0036010507,0.03435201,-0.005412266,-31.5,22.859999,-6.6
1554115536607,6.316097,5.006428700000001,5.652883,-0.009098838,0.028243355,-0.0066339965,-32.399998,22.92,-7.7999997
1554115536627,6.282577,5.0184,5.609786,-0.006655377,0.0074739363,-0.0048014005,-32.82,23.16,-8.94
1554115536648,6.308914,4.98488,5.626546,-0.011542298999999999,-0.0035216382,0.004361578,-32.399998,23.34,-8.88
1554115536667,6.378348,4.9106574,5.525986,-0.02681393,-0.03284317,0.008026769,-32.579997999999996,23.039998999999998,-9.0
1554115536687,6.347222299999999,4.965726,5.664854,-0.007266241999999999,0.010528262,-0.00235794,-32.88,23.039998999999998,-8.7
1554115536707,6.3304625,4.9705143,5.595420400000001,-0.0054336459999999994,0.010528262,-0.011520918,-32.399998,23.22,-7.9199996
1554115536727,6.2586346,5.025583,5.5044379999999995,-0.012153164,0.0013652839000000002,-0.015796974,-32.7,22.68,-7.9199996
1554115536748,6.237086,5.0830455,5.559506,-0.023759604,-0.0041325036,-0.0060231313,-33.18,22.26,-8.46
1554115536767,6.273,5.0591025,5.62894,-0.027424796,0.0013652839000000002,-0.009688323,-32.16,22.8,-8.28
1554115536787,6.311308400000001,5.025583,5.734287999999999,-0.03231172,0.014193454,-0.012131783,-31.98,23.519999,-8.16
1554115536808,6.273,4.9705143,5.621757,-0.031089988,0.015415183999999998,-0.012742648999999998,-32.219997,23.16,-8.28
1554115536827,6.193989,4.9441776,5.5571117,-0.02681393,0.0074739363,-0.0048014005,-32.34,22.08,-8.04
1554115536847,6.1748347,4.972909,5.5642949999999995,-0.024370467000000003,0.011749993,8.552113e-05,-32.46,22.32,-7.9199996
1554115536868,6.2155375,4.9944572,5.648094,-0.018872681999999998,0.01724778,0.007415904,-32.88,23.1,-8.22
1554115536887,6.273,4.982486,5.6672482,-0.019483548,0.025189027000000003,0.006805039000000001,-32.94,22.92,-8.7
1554115536907,6.3280683,4.946572,5.602603,-0.017040087,0.028243355,0.006194174,-32.7,22.8,-7.68
1554115536927,6.3711652999999995,4.869955,5.5882373,-0.01398576,0.03129768,0.0019181169,-33.059998,22.32,-6.72
1554115536948,6.3903193,4.8484063,5.669643,-0.010320568,0.025799895,-0.0066339965,-32.64,22.08,-7.5
1554115536968,6.3711652999999995,4.9417834,5.727105,-0.006655377,0.019080376,-0.013964378999999999,-32.219997,22.38,-8.58
1554115536987,6.3304625,5.027977,5.693585400000001,-0.004211916,0.01969124,-0.009077458,-32.399998,22.5,-9.3
1554115537007,6.23948,5.0160055,5.5523233,-0.01398576,0.02885422,-0.010299188,-32.28,22.32,-8.28
1554115537028,6.1532865,4.9441776,5.6361227,-0.01642922,0.038017199999999994,-0.005412266,-32.579997999999996,22.5,-7.7999997
1554115537047,6.196383,4.865166,5.7438655,-0.007266241999999999,0.028243355,-0.0060231313,-33.36,22.74,-8.34
1554115537067,6.2538457,4.867561,5.7438655,6.414085e-05,0.024578162999999997,-0.0133535145,-32.94,22.199999,-7.74
1554115537087,6.3137026,4.9346004,5.6504884,-0.008487972,0.04168239,-0.022516493,-32.94,22.14,-7.68
1554115537107,6.299337,5.025583,5.6385174000000005,-0.01765095,0.041071527000000004,-0.029846877,-33.12,22.619999,-7.98
1554115537128,6.191594599999999,5.05192,5.6600657,-0.022537872,0.03984979,-0.022516493,-32.64,22.38,-6.3599997
1554115537147,6.124555,5.0662856,5.648094,-0.015818356000000002,0.03984979,-0.010299188,-32.76,22.14,-6.48
1554115537167,6.067092400000001,5.0638914,5.705557,-0.011542298999999999,0.04595845,8.552113e-05,-33.18,22.68,-7.62
1554115537188,6.0431495,4.9800916,5.770201999999999,-0.0011575897,0.04962364,0.006805039000000001,-33.12,22.98,-7.62
1554115537208,6.124555,4.922629,5.813299,0.0055619282999999995,0.031908546,0.0031398472,-32.76,23.1,-7.56
1554115537227,6.186806,4.8627720000000005,5.8420305,0.0067836586,0.012360858,-0.008466592,-32.76,22.92,-6.72
1554115537247,6.160469,4.8172809999999995,5.832453299999999,0.0049510626,0.0148043195,-0.020683898,-32.88,22.68,-6.72
1554115537268,6.1125836,4.932206,5.8061166,0.0061727935,0.010528262,-0.032290336,-33.18,22.5,-8.16
1554115537287,6.067092400000001,5.0447370000000005,5.8037220000000005,0.009837985,0.0013652839000000002,-0.03595553,-33.36,22.8,-9.179999
1554115537307,6.0431495,5.0950169999999995,5.7438655,0.0037293321999999998,-0.004743369,-0.024349087999999998,-33.059998,22.92,-8.94
1554115537327,6.0838523,5.0662856,5.688797,0.0037293321999999998,-0.0035216382,-0.0041905358,-33.239998,22.32,-8.04
1554115537347,6.136526,5.027977,5.5978145999999995,0.0043401974,0.005030475,0.0025289822,-33.3,22.199999,-7.98
1554115537367,6.119766,5.035159999999999,5.62894,0.0025076016,0.0148043195,0.007415904,-32.94,22.68,-8.04
1554115537387,6.103006400000001,5.0614967,5.715134,-0.0036010507,0.021523837,0.012302826000000001,-32.7,22.74,-8.58
1554115537407,5.9665327,5.0806512999999995,5.916253,0.0043401974,0.003808745,0.018411478000000002,-32.64,22.68,-9.059999000000001
1554115537427,5.94259,5.0184,6.002447,0.019000962,-0.02245846,0.03123965,-33.12,22.5,-8.46
1554115537448,6.0000525,4.946572,5.8851275,0.037937786,-0.036508362999999995,0.045900412,-33.719997,22.38,-8.639999000000001
1554115537467,6.107795200000001,4.901080599999999,5.6385174000000005,0.034883462000000004,-0.026734518,0.034904838,-33.18,22.74,-8.82
1554115537487,6.2131433,4.896292,5.5642949999999995,0.0043401974,-0.007797694799999999,0.015968017,-32.64,23.039998999999998,-8.4
1554115537507,6.2490573,4.965726,5.619363,-0.017040087,-0.009019425,0.006805039000000001,-32.82,23.519999,-8.28
1554115537527,6.2538457,5.0160055,5.62894,-0.018872681999999998,-0.021847595,0.008637634,-33.0,23.34,-8.16
1554115537548,6.2490573,5.0591025,5.6792197,-0.021316143,-0.015738943999999998,0.019022344,-33.54,23.16,-8.4
1554115537567,6.280183,5.0088230000000005,5.734287999999999,-0.011542298999999999,-0.0022999076,0.027574457,-32.94,23.4,-8.46
1554115537588,6.2921543,4.948966,5.707951,-0.0005467243599999999,-0.0016890424,0.028796189,-32.7,22.619999,-7.7999997
1554115537607,6.2586346,4.9346004,5.6145744,-0.0048227813000000005,-0.0029107728,0.02207667,-33.18,22.68,-8.639999000000001
1554115537627,6.2083544999999996,4.9633317,5.6385174000000005,-0.017040087,-0.0035216382,0.017189749,-32.579997999999996,23.82,-8.46
1554115537647,6.1676519999999995,5.0160055,5.7606254,-0.027424796,-0.012073752,0.021465803999999998,-32.399998,23.279999,-7.8599997
1554115537667,6.1676519999999995,5.011217,5.846819,-0.021927007999999998,-0.024291055,0.029407052000000003,-33.059998,22.56,-8.7
1554115537687,6.201172,4.98488,5.8013277,-0.012764029,-0.03711923,0.034293976000000004,-33.12,22.92,-8.82
1554115537707,6.2682114,4.8747435,5.684008599999999,-0.004211916,-0.03711923,0.03246138,-32.399998,23.16,-8.58
1554115537727,6.320885700000001,4.800521,5.6337285,-0.0048227813000000005,-0.029177979,0.02207667,-32.04,22.92,-7.9199996
1554115537747,6.347222299999999,4.8172809999999995,5.707951,-0.0048227813000000005,-0.015738943999999998,0.017800614,-32.64,22.74,-8.099999
1554115537768,6.3544054,4.8484063,5.741471,0.0025076016,-0.004743369,0.015357151999999999,-32.94,22.68,-9.12
1554115537787,6.3927135,4.925023,5.7558365,0.012892311000000002,-0.009630291,0.011081096,-32.399998,22.38,-9.059999000000001
1554115537808,6.4310220000000005,4.9800916,5.6768255,0.021444422999999997,-0.023680191,0.011081096,-32.28,22.32,-9.0
1554115537827,6.387925,4.9633317,5.521198,0.026331346000000002,-0.029788842000000003,0.014135422,-32.219997,22.619999,-8.22
1554115537847,6.332856700000001,4.891503299999999,5.4661292999999995,0.013503177,-0.007797694799999999,0.015357151999999999,-31.859999,22.98,-6.8399997
1554115537868,6.3280683,4.850801000000001,5.5642949999999995,0.0043401974,0.020912971000000002,0.0037507126,-32.28,23.039998999999998,-6.96
1554115537887,6.296942700000001,4.8316464,5.7007685,0.01044885,0.033741143,-0.005412266,-32.579997999999996,22.619999,-7.98
1554115537907,6.318491000000001,4.922629,5.777385,0.012281446000000001,0.025189027000000003,-0.008466592,-32.64,22.439999,-8.4
1554115537928,6.3376455,4.9561486,5.7462597,0.011059715,0.009306532,-0.0048014005,-33.18,22.56,-8.099999
1554115537947,6.311308400000001,4.972909,5.652883,0.008005389,-0.0041325036,-0.007244861700000001,-32.94,22.56,-7.3199997
1554115537967,6.2682114,5.0040345,5.559506,0.0006750061000000001,0.003808745,-0.011520918,-32.219997,22.619999,-8.28
1554115537988,6.203566,4.982486,5.6385174000000005,-0.007266241999999999,0.008695666999999999,-0.009688323,-32.34,22.56,-9.059999000000001
1554115538007,6.191594599999999,4.922629,5.748654,-0.014596625,0.008084802,-0.012742648999999998,-32.04,22.619999,-8.28
1554115538027,6.122161,4.9106574,5.8204823,-0.011542298999999999,0.00014355333,-0.008466592,-32.579997999999996,22.5,-8.46
1554115538048,6.191594599999999,4.975303,5.7366824,0.0061727935,0.00014355333,-0.0133535145,-32.82,22.92,-8.099999
1554115538067,6.119766,4.9585433,5.684008599999999,0.0006750061000000001,-0.015738943999999998,-0.0029688051,-32.1,23.039998999999998,-7.8599997
1554115538087,6.136526,5.011217,5.595420400000001,0.0055619282999999995,-0.0084085595,-0.0029688051,-31.98,22.68,-8.519999499999999
1554115538108,6.191594599999999,4.948966,5.7606254,-0.0005467243599999999,0.0019761492,0.0037507126,-32.46,22.8,-9.179999
1554115538127,6.138921,4.922629,5.7797794,0.008005389,-0.0041325036,0.004361578,-33.12,22.8,-9.12
1554115538147,6.1892004,4.905869,5.813299,0.017168367,-0.015128078,0.0025289822,-32.219997,22.859999,-8.04
1554115538168,6.2131433,4.9417834,5.7175283,0.019611828,-0.020625865,-0.0066339965,-32.16,23.16,-8.34
1554115538187,6.244269,4.9561486,5.595420400000001,0.017779233000000002,-0.015738943999999998,-0.0066339965,-32.46,23.1,-8.58
1554115538207,6.162863300000001,4.9609375,5.583449,0.009227119,-0.011462886,-0.0029688051,-32.46,22.98,-8.46
1554115538228,6.244269,4.9609375,5.6552773,0.0067836586,0.0019761492,-0.00235794,-32.34,22.92,-7.56
1554115538247,6.2873654000000005,4.9776974,5.674431299999999,0.0043401974,-0.0071868296,8.552113e-05,-32.1,23.1,-7.44
1554115538267,6.320885700000001,4.996851400000001,5.585843,-0.0017684549,-0.0071868296,-0.00235794,-32.28,22.92,-7.9199996
1554115538287,6.296942700000001,5.0088230000000005,5.674431299999999,-0.007266241999999999,-0.0004673119,8.552113e-05,-32.399998,22.74,-8.22
1554115538307,6.241874,4.9585433,5.664854,6.414085e-05,-0.0041325036,0.006805039000000001,-32.94,22.92,-8.46
1554115538328,6.2490573,4.95136,5.604997,0.0012858714,-0.0022999076,0.004972443,-33.12,22.68,-9.12
1554115538347,6.263423,4.908263,5.6361227,-0.004211916,0.011139126999999999,0.004361578,-33.059998,22.38,-8.4
1554115538367,6.2514515,4.9274178,5.6768255,-0.006655377,0.01846951,0.0031398472,-32.28,23.16,-8.16
1554115538388,6.22272,4.925023,5.7390766,-0.0029901853000000003,0.0148043195,-0.0017470747,-32.52,22.56,-8.16
1554115538407,6.2179317,4.9633317,5.7007685,-0.0017684549,0.0013652839000000002,-0.0011362094,-33.059998,22.26,-7.7999997
1554115538427,6.2538457,4.96812,5.7175283,0.0043401974,-0.0016890424,-0.0041905358,-32.64,22.859999,-8.7
1554115538447,6.2586346,4.982486,5.669643,0.0049510626,-0.0084085595,-0.0035796703,-32.34,22.8,-8.519999499999999
1554115538468,6.263423,4.9441776,5.62894,-0.0036010507,-0.010852021000000002,-0.0048014005,-32.16,22.92,-8.099999
1554115538487,6.246663,4.9393888,5.688797,-0.009098838,-0.0016890424,-0.0060231313,-32.46,22.56,-7.7999997
1554115538507,6.25624,4.9417834,5.688797,-0.007877107,0.002587014,-0.0035796703,-32.1,22.5,-7.98
1554115538528,6.237086,4.9585433,5.7031627,0.0018967367000000002,0.002587014,0.0013072516,-31.92,22.68,-8.28
1554115538547,6.203566,4.982486,5.648094,0.0067836586,-0.0022999076,0.004361578,-32.46,22.56,-7.8599997
1554115538567,6.2107487,4.965726,5.640911599999999,0.0061727935,-0.0004673119,0.008637634,-33.0,22.68,-8.22
1554115538587,6.220326,4.965726,5.695979599999999,0.0043401974,-0.0010781772000000001,0.01047023,-32.94,22.859999,-8.46
1554115538607,6.2514515,4.9705143,5.672037,0.009227119,0.0013652839000000002,0.012913692,-32.46,23.279999,-8.34
1554115538628,6.296942700000001,4.9393888,5.672037,0.011059715,0.005030475,0.008026769,-32.28,23.4,-7.7999997
1554115538647,6.3567995999999996,4.915446299999999,5.669643,0.009837985,0.00014355333,0.0006963864,-32.04,22.5,-7.14
1554115538667,6.3567995999999996,4.915446299999999,5.6002088,0.0043401974,-0.0071868296,-0.005412266,-31.98,22.38,-7.259999799999999
1554115538688,6.320885700000001,4.9393888,5.61218,-0.009098838,-0.0004673119,-0.009077458,-31.98,22.68,-7.56
1554115538707,6.316097,4.946572,5.724711,-0.01398576,0.00014355333,-0.0133535145,-32.16,22.92,-7.3199997
1554115538728,6.282577,4.972909,5.727105,0.0018967367000000002,-0.013906348,-0.012131783,-32.1,23.279999,-7.74
1554115538747,6.2275085,4.95136,5.681614,0.009837985,-0.026123652,-0.009077458,-31.859999,22.56,-7.56
1554115538768,6.2107487,4.9561486,5.6361227,0.009227119,-0.024291055,-0.012131783,-31.32,22.68,-6.54
1554115538787,6.203566,4.929812,5.619363,0.003118467,-0.0035216382,-0.010299188,-31.56,23.34,-7.08
1554115538808,6.2873654000000005,4.932206,5.688797,-0.00237932,0.0013652839000000002,-0.013964378999999999,-32.64,22.92,-7.8599997
1554115538827,6.320885700000001,4.915446299999999,5.669643,-0.0017684549,-0.009630291,-0.021905629,-33.3,22.74,-7.3799996
1554115538847,6.2945485,4.948966,5.6385174000000005,-0.006655377,-0.019404136000000002,-0.02557082,-33.3,22.5,-7.3199997
1554115538868,6.2586346,4.972909,5.6600657,-0.006655377,-0.015738943999999998,-0.02801428,-32.88,23.1,-7.98
1554115538887,6.1748347,5.0231886,5.6792197,-0.0036010507,-0.012684616999999999,-0.022516493,-32.7,23.22,-8.04
1554115538907,6.1269493,5.0399485,5.741471,0.0055619282999999995,-0.015738943999999998,-0.009077458,-33.0,22.859999,-7.74
1554115538928,6.114978,5.025583,5.770201999999999,0.013503177,-0.026123652,8.552113e-05,-32.94,23.58,-8.34
1554115538947,6.1293435,5.011217,5.7534423,0.02205529,-0.03773009,0.005583308,-32.7,23.58,-8.22
1554115538967,6.1724404999999996,5.0040345,5.6504884,0.026331346000000002,-0.043838747000000004,0.005583308,-32.52,22.92,-7.44
1554115538987,6.1987777,4.989669,5.643306,0.02083356,-0.045060474,0.004361578,-32.34,22.8,-8.04
1554115539007,6.2131433,4.965726,5.672037,0.015335771000000002,-0.043838747000000004,0.006194174,-32.52,22.5,-8.639999000000001
1554115539027,6.275394400000001,4.95136,5.602603,0.016557503,-0.04261701,0.0013072516,-32.579997999999996,22.199999,-8.22
1554115539047,6.2777886,4.9274178,5.607392,0.015946638,-0.038340956,0.0025289822,-32.94,22.92,-7.8599997
1554115539067,6.308914,4.946572,5.5882373,0.02205529,-0.038340956,0.0006963864,-32.82,22.68,-7.2
1554115539087,6.344828,4.9872746,5.6002088,0.025109615,-0.040784415,8.552113e-05,-32.88,22.8,-7.7999997
1554115539108,6.342434,5.0040345,5.607392,0.033661727,-0.055445182999999995,8.552113e-05,-33.239998,22.98,-7.7999997
1554115539127,6.368771,4.9944572,5.547535,0.039159514,-0.06460816400000001,-0.005412266,-33.42,23.039998999999998,-7.8599997
1554115539147,6.3137026,4.9561486,5.437398,0.026331346000000002,-0.05727778,-0.010299188,-33.239998,23.34,-7.7999997
1554115539167,6.265817,4.965726,5.4685235,0.014114041,-0.04200615,-0.014575245,-33.059998,23.16,-7.7999997
1554115539187,6.301731,4.965726,5.5092263,0.0067836586,-0.03039971,-0.014575245,-32.7,22.8,-7.8599997
1554115539208,6.318491000000001,4.9944572,5.578660500000001,0.009837985,-0.018182404,-0.009688323,-32.88,22.74,-7.74
1554115539227,6.332856700000001,5.0136113,5.602603,0.025109615,-0.015128078,-0.007855727,-32.7,22.8,-6.72
1554115539248,6.3400397,5.020794400000001,5.525986,0.026331346000000002,-0.016960675,-0.007855727,-32.219997,22.74,-6.7799997
1554115539267,6.344828,5.0591025,5.461341,0.017779233000000002,-0.029788842000000003,-0.01518611,-32.76,22.92,-8.34
1554115539287,6.280183,5.090228,5.446975,0.009227119,-0.026123652,-0.013964378999999999,-32.94,22.5,-8.82
1554115539307,6.2490573,5.133325,5.3966956,0.0043401974,-0.0041325036,-0.0041905358,-32.7,22.5,-8.639999000000001
1554115539328,6.2873654000000005,5.073468,5.420637999999999,-0.0036010507,0.02763249,0.006805039000000001,-32.64,22.619999,-8.04
1554115539347,6.316097,5.0375543,5.497255,-0.0060445117000000005,0.03129768,0.008026769,-32.52,22.439999,-7.62
1554115539367,6.332856700000001,5.011217,5.5355635,-0.0029901853000000003,0.023967297999999998,0.011691960500000001,-32.76,22.199999,-6.6
1554115539388,6.3280683,5.0088230000000005,5.4685235,-0.0005467243599999999,0.01724778,0.011081096,-33.0,22.56,-7.08
1554115539407,6.349616999999999,4.9944572,5.5044379999999995,-0.0048227813000000005,0.028243355,0.008637634,-32.94,22.92,-7.9199996
1554115539428,6.3352512999999995,5.0160055,5.5882373,-0.008487972,0.041071527000000004,0.008026769,-33.12,22.859999,-7.08
1554115539447,6.3280683,4.9944572,5.652883,-0.009098838,0.033130277,0.011081096,-33.3,22.38,-7.44
1554115539467,6.316097,4.9872746,5.7199225,-0.008487972,-0.0004673119,0.009859365,-33.059998,22.26,-7.259999799999999
1554115539488,6.2706056,5.0136113,5.693585400000001,0.003118467,-0.031621437999999995,0.0037507126,-32.88,22.5,-7.02
1554115539507,6.2586346,5.087834,5.621757,0.01044885,-0.04567134,0.005583308,-32.94,22.859999,-7.8599997
1554115539527,6.263423,5.0614967,5.523592,0.0018967367000000002,-0.029177979,0.008026769,-33.42,23.1,-8.04
1554115539547,6.2921543,5.0184,5.5403519999999995,-0.0048227813000000005,-0.016349807,0.01047023,-33.42,21.84,-7.3799996
1554115539567,6.3400397,4.96812,5.5307746,-0.007877107,-0.014517213000000001,0.014746287,-33.12,21.6,-7.14
1554115539588,6.3927135,5.011217,5.4948606,-0.0036010507,-0.023680191,0.0135245565,-33.6,22.68,-7.3199997
1554115539607,6.404685,5.035159999999999,5.3799353,-0.0048227813000000005,-0.014517213000000001,0.014746287,-33.18,22.98,-6.2999997
1554115539627,6.407079,5.035159999999999,5.341627,-0.004211916,0.003808745,0.008026769,-32.34,22.92,-5.8799996
1554115539648,6.3759537,4.948966,5.4517636,0.008616254,0.024578162999999997,0.007415904,-32.64,22.74,-6.8999996
1554115539667,6.3567995999999996,4.948966,5.525986,0.0055619282999999995,0.03129768,0.0092485,-33.36,22.74,-7.44
1554115539687,6.3807425,4.982486,5.559506,0.01044885,0.029465087,8.552113e-05,-33.78,23.279999,-7.3799996
1554115539708,6.378348,5.0399485,5.523592,6.414085e-05,0.025189027000000003,-0.0005253441,-33.12,23.46,-7.56
1554115539727,6.4094739999999994,5.0160055,5.439792,-0.01642922,0.024578162999999997,-0.00235794,-32.34,23.1,-8.46
1554115539747,6.3711652999999995,4.996851400000001,5.5307746,-0.029868256,0.036184605,-0.0017470747,-32.94,22.98,-8.16
1554115539767,6.3591940000000005,5.0686800000000005,5.499649,-0.024981335,0.037406333,-0.0060231313,-33.18,22.92,-7.62
1554115539788,6.296942700000001,5.047130999999999,5.5283804000000005,-0.030479122,0.03007595,-0.007855727,-32.82,22.8,-6.48
1554115539807,6.237086,5.0160055,5.595420400000001,-0.03597691,0.023356432000000003,-0.009077458,-32.46,22.619999,-5.46
1554115539827,6.203566,4.992063,5.688797,-0.03231172,0.01969124,-0.007855727,-31.56,23.039998999999998,-5.1
1554115539847,6.205960299999999,5.0040345,5.7223167,-0.021316143,0.011749993,-0.0005253441,-31.859999,22.5,-4.5
1554115539867,6.229903,5.00164,5.6385174000000005,-0.013374893999999998,0.0013652839000000002,0.004361578,-32.64,22.439999,-4.98
1554115539887,6.261029,4.996851400000001,5.5571117,-0.014596625,-0.0071868296,0.0025289822,-32.34,22.56,-4.74
1554115539907,6.2777886,4.9992456,5.547535,-0.021316143,0.00014355333,0.0031398472,-32.579997999999996,22.199999,-5.2799997
1554115539927,6.28976,5.0040345,5.578660500000001,-0.01765095,0.0031978795,0.0025289822,-32.34,22.199999,-5.7599998
1554115539948,6.301731,5.00164,5.607392,-0.010320568,0.00441961,0.006805039000000001,-32.399998,22.26,-4.74
1554115539967,6.325673999999999,4.965726,5.549929,-0.0054336459999999994,0.003808745,0.007415904,-32.88,22.26,-5.52
1554115539987,6.332856700000001,4.982486,5.537957700000001,-0.0005467243599999999,-0.0022999076,0.006805039000000001,-32.16,22.02,-6.54
1554115540007,6.318491000000001,4.965726,5.4924664000000005,-0.006655377,0.005030475,0.008637634,-31.619999,22.439999,-6.18
1554115540027,6.3304625,4.9776974,5.566689,-0.007877107,0.012971723000000001,0.0037507126,-32.52,22.619999,-5.46
1554115540048,6.2682114,4.996851400000001,5.569083,-0.0048227813000000005,0.0148043195,0.0037507126,-32.76,22.5,-5.04
1554115540067,6.25624,5.027977,5.585843,-0.0029901853000000003,0.009306532,0.008637634,-32.34,22.619999,-5.4
1554115540087,6.275394400000001,4.989669,5.6002088,-0.0060445117000000005,0.008695666999999999,0.0092485,-32.64,22.74,-5.8199997
1554115540107,6.2873654000000005,4.9537544,5.652883,-0.009098838,0.006863071,0.0037507126,-32.7,22.439999,-5.52
1554115540127,6.2346916,4.992063,5.643306,-0.006655377,0.0019761492,0.004361578,-32.1,21.9,-5.22
1554115540148,6.280183,5.035159999999999,5.585843,-0.0048227813000000005,-0.0041325036,0.0037507126,-31.859999,21.96,-6.0
1554115540168,6.299337,5.020794400000001,5.578660500000001,-0.010320568,-0.0035216382,0.0037507126,-32.16,22.439999,-5.8199997
1554115540187,6.325673999999999,4.9705143,5.590631500000001,-0.009709704,0.0007544185499999999,0.007415904,-32.34,22.56,-5.46
1554115540208,6.344828,4.925023,5.6457,-0.006655377,-0.0010781772000000001,0.0031398472,-32.34,22.199999,-6.24
1554115540227,6.325673999999999,4.9346004,5.648094,6.414085e-05,-0.010852021000000002,0.0025289822,-32.34,22.32,-6.48
1554115540247,6.282577,4.98488,5.578660500000001,0.0061727935,-0.02245846,-0.0005253441,-32.28,22.56,-6.8999996
1554115540268,6.282577,5.011217,5.523592,0.003118467,-0.017571539,-0.0005253441,-31.859999,22.92,-7.3799996
1554115540287,6.304126,5.020794400000001,5.5116205,-0.0048227813000000005,0.00014355333,0.0037507126,-32.04,23.46,-7.2
1554115540307,6.344828,4.992063,5.5810547,-0.008487972,0.006863071,0.0031398472,-32.34,23.279999,-7.08
1554115540327,6.320885700000001,4.9944572,5.6002088,-0.006655377,0.0007544185499999999,0.004972443,-32.52,22.439999,-7.56
1554115540348,6.344828,4.9561486,5.604997,-0.006655377,0.003808745,0.006194174,-32.7,22.74,-7.62
1554115540367,6.3352512999999995,4.946572,5.5882373,-0.009098838,0.011749993,0.0031398472,-32.64,22.98,-7.3799996
1554115540387,6.3137026,4.915446299999999,5.5978145999999995,-0.0005467243599999999,0.009306532,0.0025289822,-32.52,22.14,-6.8999996
1554115540408,6.263423,4.922629,5.595420400000001,0.0037293321999999998,-0.0010781772000000001,-0.0005253441,-32.46,22.859999,-6.96
1554115540427,6.263423,4.965726,5.585843,0.0025076016,-0.0029107728,-0.0035796703,-32.88,22.74,-7.2
1554115540447,6.2586346,4.9944572,5.583449,-0.0011575897,-0.0016890424,-0.0060231313,-33.059998,22.199999,-8.099999
1554115540467,6.2179317,5.0375543,5.583449,-0.0060445117000000005,0.0031978795,-0.0017470747,-32.7,22.619999,-7.9199996
1554115540487,6.229903,5.035159999999999,5.576266,-0.004211916,0.00441961,0.0025289822,-33.0,22.32,-7.56
1554115540508,6.2251142999999995,5.0088230000000005,5.583449,-0.00237932,0.003808745,0.006805039000000001,-33.36,22.14,-7.98
1554115540527,6.2682114,4.982486,5.652883,-0.0054336459999999994,0.008084802,0.008637634,-32.76,22.439999,-7.74
1554115540548,6.3280683,4.9633317,5.6672482,0.0012858714,0.002587014,0.008637634,-32.64,22.68,-7.62
1554115540567,6.320885700000001,4.965726,5.619363,0.0018967367000000002,-0.0053542336,0.008637634,-33.239998,22.8,-7.9199996
1554115540587,6.3376455,4.96812,5.542746,-0.0005467243599999999,-0.006575964399999999,0.006805039000000001,-33.239998,22.859999,-7.74
1554115540607,6.3544054,4.9346004,5.5523233,-0.006655377,-0.0016890424,0.006194174,-32.579997999999996,22.98,-8.22
1554115540628,6.3280683,4.9705143,5.518803599999999,-0.008487972,0.0074739363,0.006194174,-32.82,22.859999,-8.4
1554115540647,6.361587999999999,4.975303,5.554717500000001,-0.009709704,0.011749993,0.006194174,-32.46,22.68,-7.9199996
1554115540667,6.352011,4.975303,5.5738715999999995,-0.012764029,0.011139126999999999,0.008026769,-32.16,22.859999,-7.62
1554115540688,6.2777886,5.0088230000000005,5.571477400000001,-0.013374893999999998,0.017858647,0.015968017,-32.52,22.56,-8.099999
1554115540708,6.263423,4.996851400000001,5.593026,-0.010931433999999999,0.020302108,0.016578883,-32.76,23.039998999999998,-7.44
1554115540727,6.30652,4.9800916,5.643306,-0.011542298999999999,0.022745566000000002,0.023909265,-32.46,22.859999,-7.3799996
1554115540748,6.304126,4.948966,5.593026,-0.011542298999999999,0.030686814,0.021465803999999998,-32.16,22.619999,-8.34
1554115540767,6.308914,4.9346004,5.6169686,-0.020094411,0.033741143,0.018411478000000002,-32.46,22.619999,-8.16
1554115540788,6.316097,4.9274178,5.62894,-0.024981335,0.020912971000000002,0.014746287,-32.64,22.74,-7.3799996
1554115540807,6.311308400000001,4.908263,5.664854,-0.020705279,0.014193454,0.014746287,-32.94,23.16,-6.48
1554115540827,6.3280683,4.908263,5.6385174000000005,-0.022537872,0.014193454,0.006194174,-32.94,23.16,-7.14
1554115540848,6.299337,4.9274178,5.643306,-0.022537872,0.01969124,0.004972443,-33.12,22.859999,-8.22
1554115540867,6.273,4.936994599999999,5.643306,-0.020705279,0.020302108,0.004361578,-32.82,23.22,-8.519999499999999
1554115540887,6.265817,4.9441776,5.648094,-0.015818356000000002,0.012971723000000001,0.007415904,-32.399998,22.859999,-9.12
1554115540908,6.2921543,4.95136,5.626546,-0.015818356000000002,0.025189027000000003,0.015357151999999999,-32.16,22.68,-7.5
1554115540927,6.25624,4.975303,5.62894,-0.013374893999999998,0.02885422,0.019022344,-32.34,22.8,-7.08
1554115540947,6.2490573,4.975303,5.6600657,-0.013374893999999998,0.03435201,0.02452013,-32.82,22.439999,-7.98
1554115540967,6.2777886,4.925023,5.6600657,-0.012764029,0.03496287,0.026963592999999998,-33.18,22.38,-8.28
1554115540987,6.2514515,4.9106574,5.686403,-0.012153164,0.020912971000000002,0.03123965,-33.0,22.74,-8.16
1554115541007,6.378348,4.8484063,5.6768255,-0.012153164,0.025799895,0.023909265,-32.82,22.5,-7.9199996
1554115541028,6.3759537,4.843618,5.686403,-0.01520749,0.021523837,0.012913692,-32.46,23.22,-7.259999799999999
1554115541047,6.325673999999999,4.8268580000000005,5.7103453,-0.011542298999999999,0.013582588999999999,0.006194174,-32.64,23.46,-7.62
1554115541067,6.2945485,4.850801000000001,5.7390766,-0.0054336459999999994,0.006863071,0.004361578,-32.82,23.039998999999998,-8.22
1554115541088,6.2777886,4.8747435,5.7223167,0.0006750061000000001,-0.0029107728,-0.0017470747,-32.64,22.74,-7.68
1554115541107,6.2873654000000005,4.896292,5.657671499999999,0.0025076016,-0.0084085595,-0.0017470747,-32.579997999999996,23.039998999999998,-7.5
1554115541128,6.28976,4.8938975,5.669643,0.0006750061000000001,-0.0041325036,-0.0017470747,-32.46,23.22,-7.74
1554115541147,6.282577,4.905869,5.691191000000001,0.0025076016,-0.0041325036,-0.0060231313,-32.579997999999996,22.92,-7.74
1554115541168,6.2873654000000005,4.905869,5.705557,0.0025076016,-0.005965099000000001,-0.0041905358,-33.0,22.32,-8.099999
1554115541187,6.30652,4.903475,5.7103453,0.0037293321999999998,-0.0084085595,-0.0041905358,-32.82,22.26,-8.34
1554115541208,6.30652,4.9393888,5.688797,0.009227119,-0.011462886,-0.0035796703,-32.52,22.859999,-8.46
1554115541227,6.320885700000001,4.869955,5.715134,0.012892311000000002,-0.019404136000000002,-0.005412266,-32.219997,23.16,-7.8599997
1554115541247,6.3567995999999996,4.8316464,5.741471,0.023887886,-0.028567112999999998,-0.008466592,-32.04,22.74,-7.56
1554115541268,6.3903193,4.7933383,5.691191000000001,0.029385672999999998,-0.04261701,-0.024349087999999998,-33.0,23.1,-7.56
1554115541287,6.320885700000001,4.846012,5.648094,0.027553077999999998,-0.048725665,-0.028625146,-32.88,23.279999,-7.74
1554115541307,6.332856700000001,4.9106574,5.607392,0.028163942,-0.05483432,-0.029846877,-32.94,23.58,-7.74
1554115541327,6.320885700000001,4.96812,5.6145744,0.023887886,-0.05727778,-0.029846877,-32.34,23.64,-7.5
1554115541347,6.299337,4.992063,5.643306,0.024498751000000003,-0.05483432,-0.02557082,-32.82,23.039998999999998,-7.62
1554115541368,6.275394400000001,4.9705143,5.62894,0.02083356,-0.05239086,-0.024959954,-33.3,23.1,-7.98
1554115541387,6.2706056,4.9800916,5.6002088,0.018390099,-0.055445182999999995,-0.020683898,-33.12,23.22,-7.68
1554115541407,6.282577,4.946572,5.62894,0.02327702,-0.06033211,-0.023127357999999997,-32.88,22.8,-7.5
1554115541427,6.284971,4.9393888,5.585843,0.019000962,-0.059110373,-0.026792549,-33.059998,22.68,-7.5
1554115541447,6.280183,4.9346004,5.5738715999999995,0.018390099,-0.053612586,-0.028625146,-33.54,22.98,-7.259999799999999
1554115541467,6.308914,4.9633317,5.549929,0.0147249065,-0.043838747000000004,-0.027403416,-33.239998,22.98,-7.2
1554115541487,6.347222299999999,5.011217,5.4924664000000005,0.014114041,-0.03528663,-0.027403416,-32.76,23.4,-7.2
1554115541507,6.404685,4.996851400000001,5.4852834,0.011670581000000001,-0.027345384,-0.023127357999999997,-32.219997,23.279999,-7.5
1554115541528,6.3711652999999995,4.96812,5.4493694,0.0067836586,-0.020015,-0.022516493,-32.04,23.22,-8.16
1554115541547,6.368771,4.989669,5.4852834,0.003118467,-0.015738943999999998,-0.026181685,-32.76,23.16,-7.7999997
1554115541568,6.325673999999999,4.96812,5.5355635,0.003118467,-0.0035216382,-0.023738224,-33.059998,23.16,-7.5
1554115541587,6.3280683,4.9992456,5.5283804000000005,0.0067836586,0.002587014,-0.017018706,-32.7,22.92,-7.74
1554115541607,6.3280683,4.996851400000001,5.537957700000001,0.008616254,0.00441961,-0.01518611,-33.18,22.02,-7.9199996
1554115541628,6.2873654000000005,4.9944572,5.5164089999999995,0.003118467,0.0013652839000000002,-0.012131783,-33.3,22.74,-7.14
1554115541647,6.2921543,5.0231886,5.523592,-0.0036010507,0.00441961,-0.0133535145,-32.64,22.56,-7.5
1554115541667,6.273,5.0375543,5.497255,-0.011542298999999999,0.010528262,-0.009077458,-32.579997999999996,22.439999,-8.28
1554115541687,6.263423,5.047130999999999,5.525986,-0.013374893999999998,0.012971723000000001,-0.0066339965,-33.12,22.98,-7.8599997
1554115541707,6.2586346,5.0495257,5.5283804000000005,-0.01398576,0.01969124,-0.0005253441,-32.64,22.8,-7.62
1554115541727,6.261029,5.047130999999999,5.5571117,-0.01642922,0.01724778,0.0013072516,-32.579997999999996,22.14,-7.14
1554115541747,6.237086,5.011217,5.576266,-0.020705279,0.01724778,0.006194174,-33.48,22.199999,-6.7799997
1554115541768,6.273,5.011217,5.6313343,-0.012153164,0.014193454,0.008026769,-33.48,22.439999,-7.3199997
1554115541787,6.325673999999999,4.972909,5.5882373,-0.0011575897,0.006252206,0.01047023,-32.64,22.14,-7.56
1554115541807,6.344828,4.905869,5.525986,-0.0017684549,0.011749993,0.004972443,-32.04,22.859999,-7.56
1554115541827,6.3903193,4.8891089999999995,5.5523233,-0.010320568,0.009306532,-0.0066339965,-32.52,22.92,-6.8999996
1554115541847,6.3807425,4.9178405,5.583449,-0.012764029,0.0013652839000000002,-0.0188513,-32.94,21.96,-5.3399997
1554115541867,6.301731,5.0231886,5.566689,-0.0048227813000000005,-0.0041325036,-0.018240436999999998,-32.64,21.96,-4.44
1554115541888,6.244269,5.121353599999999,5.5403519999999995,0.0018967367000000002,-0.005965099000000001,-0.007855727,-32.219997,22.68,-4.92
1554115541907,6.1987777,5.104593799999999,5.542746,0.003118467,-0.0010781772000000001,0.0013072516,-32.64,22.8,-6.42
1554115541927,6.205960299999999,5.042342700000001,5.5738715999999995,0.0006750061000000001,0.0031978795,0.012913692,-33.0,22.68,-6.48
1554115541947,6.2179317,4.98488,5.6337285,0.0043401974,0.003808745,0.012913692,-32.34,22.619999,-5.22
1554115541967,6.2346916,4.9609375,5.547535,0.0061727935,0.0007544185499999999,0.014746287,-32.28,22.38,-5.3399997
1554115541988,6.299337,4.9776974,5.497255,-0.0048227813000000005,0.005030475,0.014746287,-32.88,22.8,-6.8399997
1554115542007,6.3735595,4.975303,5.499649,-0.021316143,0.011749993,0.011081096,-33.18,22.74,-7.9199996
1554115542027,6.459753500000001,4.9800916,5.5307746,-0.019483548,0.028243355,0.011081096,-32.94,22.38,-7.9199996
1554115542047,6.560312700000001,4.9800916,5.446975,-0.02314874,0.04290412,0.004972443,-32.64,22.859999,-7.3199997
1554115542067,6.5459476,4.915446299999999,5.420637999999999,-0.040252965,0.05206709999999999,-0.011520918,-33.12,23.1,-7.3199997
1554115542087,6.4980617,4.879532,5.506832,-0.04758335,0.047180176,-0.02557082,-33.899998,22.56,-7.3199997
1554115542108,6.428628,4.896292,5.583449,-0.039642103,0.048401907,-0.027403416,-33.54,22.439999,-7.7999997
1554115542127,6.3711652999999995,4.9346004,5.602603,-0.03292258,0.068560466,-0.029846877,-32.88,22.199999,-8.28
1554115542147,6.273,4.9633317,5.669643,-0.020705279,0.07711257,-0.031679474,-33.12,21.72,-6.96
1554115542167,6.186806,5.0231886,5.741471,-0.0017684549,0.068560466,-0.027403416,-33.239998,22.08,-6.54
1554115542188,6.091035,5.054314,5.715134,0.0061727935,0.052677963,-0.021294761000000002,-33.059998,22.5,-7.74
1554115542207,6.107795200000001,5.0758624,5.6768255,0.0012858714,0.044736717,-0.012131783,-33.059998,22.32,-7.9199996
1554115542227,6.1293435,5.1021996,5.7390766,-0.0029901853000000003,0.038017199999999994,-0.0060231313,-32.94,21.96,-7.5
1554115542248,6.028784,5.090228,5.7534423,-0.0005467243599999999,0.022134703,0.004972443,-33.36,21.66,-6.96
1554115542267,5.95935,5.0662856,5.7438655,6.414085e-05,0.0056413407,0.014135422,-33.3,21.9,-6.8399997
1554115542287,5.933013,5.05192,5.7606254,0.0006750061000000001,-0.005965099000000001,0.02452013,-33.18,22.439999,-7.5
1554115542307,5.9808984,5.05192,5.794144999999999,0.008616254,-0.010852021000000002,0.034904838,-33.719997,22.68,-7.5
1554115542327,6.0599093,4.9800916,5.7989334999999995,0.017779233000000002,-0.032232303,0.039180897,-33.78,22.5,-8.04
1554115542347,6.0958239999999995,4.948966,5.7630196,0.025720483,-0.047503937,0.042846087000000005,-33.6,22.08,-8.7
1554115542368,6.134132,4.9561486,5.741471,0.037937786,-0.06399730000000001,0.04162436,-33.6,21.9,-8.22
1554115542387,6.1987777,4.9776974,5.695979599999999,0.044657300000000004,-0.07132768,0.043456957000000004,-33.6,21.96,-7.74
1554115542407,6.2538457,4.9800916,5.66246,0.04038125,-0.07254941,0.04223522,-33.3,22.56,-7.56
1554115542427,6.387925,4.9633317,5.4900723,0.028774807000000003,-0.06399730000000001,0.03123965,-32.88,22.619999,-7.74
1554115542447,6.4693303,4.922629,5.4254265,0.0055619282999999995,-0.051169127,0.022687534,-32.16,22.26,-6.8999996
1554115542467,6.5363703,4.869955,5.4230323,-0.018872681999999998,-0.04200615,0.008637634,-32.579997999999996,22.74,-6.8399997
1554115542488,6.476513400000001,4.8723493,5.521198,-0.02314874,-0.031621437999999995,-0.0017470747,-33.66,22.859999,-7.9199996
1554115542507,6.4693303,4.869955,5.576266,-0.011542298999999999,-0.02245846,-0.0060231313,-33.36,22.38,-7.56
1554115542527,6.464542,4.9393888,5.547535,0.0061727935,-0.020625865,-0.010910053000000001,-33.3,22.38,-7.2
1554115542548,6.428628,4.9776974,5.499649,0.008005389,-0.012073752,-0.010910053000000001,-33.059998,22.32,-7.14
1554115542567,6.411868,5.025583,5.4924664000000005,0.0067836586,0.00014355333,-0.0048014005,-32.7,22.68,-6.96
1554115542588,6.3567995999999996,4.972909,5.523592,0.0006750061000000001,0.011139126999999999,-0.00235794,-33.059998,23.1,-7.5
1554115542607,6.3232800000000005,4.936994599999999,5.5571117,-0.0029901853000000003,0.0148043195,-0.00235794,-33.54,22.26,-7.56
1554115542628,6.3137026,4.9417834,5.602603,0.0012858714,0.0148043195,-0.0005253441,-32.94,22.32,-8.04
1554115542647,6.30652,4.9800916,5.6241517,0.008616254,0.009917397,-0.00235794,-32.7,22.32,-7.8599997
1554115542667,6.296942700000001,5.0160055,5.590631500000001,0.008616254,0.002587014,-0.0011362094,-33.3,21.84,-6.66
1554115542687,6.282577,4.9992456,5.5451403,0.009837985,0.006252206,0.0019181169,-32.88,21.96,-6.2999997
1554115542707,6.246663,5.0088230000000005,5.5619005999999995,0.0043401974,0.011139126999999999,0.0013072516,-32.64,21.96,-6.2999997
1554115542727,6.2706056,4.9705143,5.602603,0.0055619282999999995,0.016636916,-0.0017470747,-32.579997999999996,22.14,-7.02
1554115542747,6.2179317,4.948966,5.6241517,-0.00237932,0.01724778,-0.0041905358,-32.34,22.08,-7.08
1554115542768,6.23948,4.9776974,5.715134,0.008005389,0.0007544185499999999,-0.0011362094,-32.28,22.32,-7.259999799999999
1554115542787,6.299337,5.00164,5.652883,0.015946638,-0.011462886,0.0019181169,-32.64,22.5,-8.4
1554115542807,6.311308400000001,4.989669,5.585843,0.011670581000000001,-0.011462886,0.0025289822,-33.42,21.9,-7.74
1554115542827,6.347222299999999,4.9776974,5.549929,0.0018967367000000002,-0.010852021000000002,-0.0011362094,-33.3,21.96,-7.02
1554115542847,6.3567995999999996,4.9776974,5.5092263,-0.0060445117000000005,-0.011462886,-0.0017470747,-32.7,22.619999,-8.04
1554115542867,6.361587999999999,4.9944572,5.4948606,-0.008487972,-0.004743369,-0.00235794,-32.64,22.8,-7.74
1554115542887,6.352011,4.98488,5.537957700000001,-0.014596625,0.00441961,-0.0041905358,-33.059998,22.8,-7.3799996
1554115542907,6.25624,4.989669,5.61218,-0.012153164,-0.006575964399999999,-0.00235794,-32.579997999999996,22.98,-8.04
1554115542928,6.28976,4.996851400000001,5.61218,-0.0029901853000000003,-0.0029107728,0.0006963864,-32.64,22.8,-7.44
1554115542947,6.273,4.9872746,5.621757,0.0012858714,0.00441961,0.0025289822,-33.36,22.859999,-7.44
1554115542967,6.352011,4.9561486,5.542746,0.0006750061000000001,0.0074739363,0.0019181169,-32.7,22.619999,-7.62
1554115542988,6.342434,4.9705143,5.5619005999999995,-0.007877107,-0.0010781772000000001,-0.0005253441,-32.7,22.199999,-7.56
1554115543007,6.3544054,5.0184,5.549929,-0.009098838,-0.0010781772000000001,0.0006963864,-33.6,22.8,-8.04
1554115543027,6.3376455,5.00164,5.549929,-0.009709704,0.006863071,0.005583308,-33.239998,22.92,-8.34
1554115543047,6.299337,5.0160055,5.5331693,-0.0036010507,0.008695666999999999,0.004972443,-33.0,22.74,-8.099999
1554115543068,6.2777886,4.989669,5.578660500000001,-0.0036010507,0.005030475,0.007415904,-33.36,22.619999,-7.02
1554115543087,6.275394400000001,4.9872746,5.648094,-0.004211916,0.00441961,0.011691960500000001,-33.18,22.26,-7.14
1554115543107,6.2538457,4.925023,5.657671499999999,0.003118467,0.0013652839000000002,0.006805039000000001,-33.3,22.8,-7.7999997
1554115543128,6.273,4.9537544,5.640911599999999,0.009227119,-0.0016890424,0.004972443,-33.18,22.859999,-7.8599997
1554115543147,6.304126,4.972909,5.583449,0.0043401974,-0.0016890424,0.004361578,-32.7,22.199999,-8.28
1554115543167,6.311308400000001,5.0040345,5.569083,0.0025076016,-0.0022999076,0.005583308,-32.64,21.72,-8.16
1554115543187,6.320885700000001,4.996851400000001,5.590631500000001,-0.0017684549,0.0013652839000000002,0.006805039000000001,-32.34,22.08,-7.68
1554115543208,6.304126,4.9800916,5.554717500000001,-0.00237932,-0.0041325036,0.0037507126,-33.059998,22.5,-7.3799996
1554115543227,6.318491000000001,4.9609375,5.5451403,-0.0048227813000000005,-0.0041325036,-0.00235794,-33.0,22.199999,-7.02
1554115543247,6.318491000000001,4.9776974,5.576266,-0.012153164,0.0019761492,-0.0011362094,-32.28,22.32,-6.7799997
1554115543268,6.28976,4.9944572,5.6457,-0.010931433999999999,0.00441961,0.0013072516,-32.04,22.56,-5.8199997
1554115543287,6.304126,4.9872746,5.607392,-0.0029901853000000003,-0.010852021000000002,0.0031398472,-32.399998,22.74,-6.42
1554115543307,6.2945485,4.9633317,5.569083,-0.0029901853000000003,-0.009630291,0.006194174,-33.239998,22.92,-7.3199997
1554115543327,6.284971,4.9872746,5.5523233,-0.0029901853000000003,0.0031978795,0.006194174,-32.82,22.74,-8.22
1554115543347,6.3137026,4.989669,5.554717500000001,-0.007877107,0.00441961,0.005583308,-32.52,22.56,-8.82
1554115543367,6.332856700000001,4.972909,5.554717500000001,-0.009098838,0.006863071,0.004361578,-32.52,22.619999,-7.14
1554115543387,6.344828,4.965726,5.585843,-0.008487972,0.011749993,0.0031398472,-33.0,22.859999,-7.02
1554115543408,6.3280683,4.9441776,5.5978145999999995,-0.0060445117000000005,0.011749993,0.004972443,-33.719997,22.8,-7.8599997
1554115543427,6.320885700000001,4.932206,5.62894,-0.0011575897,0.0031978795,0.0019181169,-33.6,21.96,-7.3199997
1554115543447,6.2777886,4.9393888,5.6337285,0.0049510626,-0.0016890424,0.0025289822,-33.18,22.199999,-7.02
1554115543467,6.296942700000001,4.9776974,5.6145744,0.008616254,-0.0016890424,0.005583308,-32.94,22.5,-6.66
1554115543488,6.2945485,4.9872746,5.5882373,0.01044885,0.0007544185499999999,0.008026769,-32.76,22.439999,-7.2
1554115543507,6.2873654000000005,4.9705143,5.576266,0.003118467,0.005030475,0.008026769,-33.059998,22.68,-8.28
1554115543527,6.320885700000001,4.9633317,5.5978145999999995,0.0037293321999999998,0.002587014,0.004361578,-33.36,22.5,-8.22
1554115543547,6.2921543,4.96812,5.5810547,0.0006750061000000001,0.0007544185499999999,0.004972443,-33.54,23.039998999999998,-8.16
1554115543567,6.311308400000001,4.9609375,5.583449,-0.004211916,0.0031978795,0.0013072516,-33.12,23.16,-7.7999997
1554115543587,6.325673999999999,4.9705143,5.5978145999999995,-0.004211916,0.0031978795,-0.0011362094,-32.64,22.8,-7.08
1554115543607,6.316097,4.965726,5.61218,0.0006750061000000001,-0.0022999076,0.0037507126,-32.7,22.32,-7.14
1554115543628,6.296942700000001,4.972909,5.585843,0.0055619282999999995,-0.006575964399999999,0.0025289822,-33.0,22.619999,-7.56
1554115543647,6.301731,4.9872746,5.549929,0.0012858714,-0.0016890424,0.004361578,-32.82,22.8,-7.56
1554115543667,6.3137026,4.948966,5.5523233,-0.0011575897,0.0031978795,0.0031398472,-33.059998,22.26,-7.08
1554115543688,6.325673999999999,4.95136,5.6002088,-0.0017684549,0.0056413407,0.0025289822,-33.42,22.439999,-7.02
1554115543707,6.304126,4.972909,5.602603,-0.0011575897,0.003808745,-0.0017470747,-33.059998,22.859999,-7.9199996
1554115543727,6.308914,4.965726,5.595420400000001,-0.0029901853000000003,0.006863071,0.0013072516,-33.239998,23.22,-7.8599997
1554115543747,6.2945485,4.9537544,5.604997,-0.00237932,-0.0010781772000000001,-0.0005253441,-33.3,23.1,-6.8999996
1554115543767,6.3280683,4.9705143,5.5810547,-0.0036010507,0.00441961,8.552113e-05,-32.94,22.92,-6.7799997
1554115543787,6.2921543,4.9705143,5.593026,-0.0029901853000000003,0.006252206,-0.0017470747,-32.88,22.98,-7.2
1554115543807,6.2873654000000005,4.9776974,5.609786,0.003118467,-0.0041325036,0.005583308,-32.76,22.68,-7.3799996
1554115543828,6.2777886,4.9633317,5.626546,0.0043401974,-0.0041325036,0.007415904,-33.12,22.38,-7.68
1554115543847,6.2873654000000005,4.9633317,5.583449,0.0018967367000000002,0.006863071,0.006805039000000001,-32.76,22.38,-7.68
1554115543867,6.325673999999999,4.9585433,5.578660500000001,-0.0011575897,0.008695666999999999,0.006194174,-31.92,22.32,-7.56
1554115543887,6.344828,4.9561486,5.576266,-0.00237932,-0.0010781772000000001,0.006194174,-32.04,22.199999,-6.96
1554115543907,6.342434,4.9609375,5.5810547,-0.0036010507,0.0013652839000000002,0.004361578,-32.219997,22.8,-7.74
1554115543927,6.320885700000001,4.982486,5.585843,-0.0060445117000000005,0.0019761492,0.0006963864,-32.34,23.16,-8.099999
1554115543947,6.308914,4.9944572,5.593026,-0.0005467243599999999,0.0031978795,0.0037507126,-33.0,22.56,-7.8599997
1554115543967,6.301731,4.9633317,5.5882373,0.0012858714,-0.0016890424,0.004361578,-33.0,22.199999,-7.68
1554115543987,6.28976,4.9441776,5.590631500000001,0.0006750061000000001,0.002587014,0.0019181169,-32.76,22.56,-6.24
1554115544007,6.301731,4.9417834,5.609786,0.0018967367000000002,0.0019761492,0.0037507126,-33.18,22.38,-6.8999996
1554115544028,6.301731,4.965726,5.576266,0.0025076016,0.008695666999999999,8.552113e-05,-33.3,22.56,-7.8599997
1554115544047,6.318491000000001,4.9705143,5.5810547,0.0012858714,-0.0010781772000000001,-0.0005253441,-32.88,22.619999,-8.04
1554115544067,6.325673999999999,4.95136,5.593026,0.0037293321999999998,-0.0022999076,0.0006963864,-32.88,22.32,-8.7
1554115544088,6.3376455,4.946572,5.5978145999999995,0.0025076016,-0.0004673119,-0.0011362094,-32.7,22.38,-7.14
1554115544107,6.3232800000000005,4.965726,5.5810547,-0.0011575897,0.0031978795,-0.0017470747,-32.34,22.5,-6.96
1554115544127,6.30652,4.98488,5.604997,-0.0029901853000000003,0.0031978795,0.0013072516,-32.7,22.68,-7.98
1554115544147,6.3137026,4.972909,5.609786,0.0012858714,-0.0029107728,0.0006963864,-32.76,22.8,-7.2
1554115544168,6.299337,4.9633317,5.602603,0.0012858714,-0.0022999076,0.0013072516,-32.64,22.8,-7.02
1554115544187,6.3232800000000005,4.9609375,5.5738715999999995,0.0006750061000000001,0.0031978795,-0.0005253441,-32.52,22.92,-6.66
1554115544207,6.347222299999999,4.9609375,5.593026,-0.004211916,0.00441961,8.552113e-05,-32.7,22.68,-6.8399997
1554115544228,6.3304625,4.9609375,5.5619005999999995,-0.0017684549,0.0007544185499999999,-0.0017470747,-32.64,21.84,-7.14
1554115544247,6.318491000000001,4.9609375,5.571477400000001,-0.0036010507,0.0007544185499999999,-0.0060231313,-32.7,21.84,-6.8999996
1554115544267,6.316097,4.9585433,5.619363,-0.0017684549,0.0007544185499999999,-0.0048014005,-33.18,22.859999,-7.3199997
1554115544288,6.296942700000001,4.96812,5.621757,-0.0029901853000000003,0.00441961,-0.0029688051,-32.82,22.98,-7.3199997
1554115544307,6.280183,4.989669,5.6169686,-0.0011575897,0.0074739363,-0.0035796703,-32.7,22.439999,-7.3799996
1554115544327,6.282577,4.9705143,5.6241517,-0.0029901853000000003,0.00441961,0.0037507126,-33.3,22.5,-7.68
1554115544347,6.273,4.9609375,5.6169686,0.0037293321999999998,-0.007797694799999999,0.004361578,-33.18,22.92,-7.74
1554115544367,6.299337,4.9944572,5.5642949999999995,-0.0029901853000000003,0.00014355333,0.004361578,-32.94,23.22,-7.74
1554115544387,6.28976,4.9800916,5.5642949999999995,-0.0054336459999999994,0.0056413407,0.004361578,-32.82,23.1,-7.08
1554115544407,6.299337,4.9537544,5.607392,-0.0060445117000000005,0.002587014,0.007415904,-32.579997999999996,23.1,-6.96
1554115544427,6.3352512999999995,4.9609375,5.578660500000001,-0.004211916,-0.0016890424,0.0037507126,-33.0,22.74,-7.62
1554115544447,6.349616999999999,4.96812,5.5882373,-0.0060445117000000005,0.003808745,0.004361578,-33.42,22.56,-8.16
1554115544468,6.347222299999999,4.9441776,5.6241517,-0.0048227813000000005,0.005030475,8.552113e-05,-33.3,22.56,-8.46
1554115544487,6.296942700000001,4.9393888,5.621757,-0.0036010507,0.0031978795,0.0037507126,-33.12,22.439999,-8.099999
1554115544507,6.301731,4.9537544,5.6145744,0.0006750061000000001,-0.0010781772000000001,0.0013072516,-33.3,22.619999,-7.98
1554115544527,6.301731,4.9585433,5.5619005999999995,0.003118467,0.0007544185499999999,0.0037507126,-33.6,22.68,-8.22
1554115544547,6.316097,4.9633317,5.5810547,0.003118467,0.0013652839000000002,0.0025289822,-32.82,22.619999,-7.62
1554115544567,6.311308400000001,4.965726,5.607392,0.0006750061000000001,0.006252206,0.004361578,-32.28,22.32,-7.74
1554115544587,6.325673999999999,4.965726,5.61218,0.0006750061000000001,0.005030475,0.0019181169,-33.0,21.9,-7.8599997
1554115544608,6.296942700000001,4.9800916,5.5978145999999995,-0.0017684549,0.0056413407,0.0025289822,-33.12,22.26,-7.44
1554115544627,6.2921543,4.9561486,5.5978145999999995,-0.0060445117000000005,0.0074739363,0.0031398472,-32.82,22.859999,-7.74
1554115544647,6.2945485,4.9633317,5.6385174000000005,-0.004211916,0.0056413407,0.0025289822,-33.36,22.859999,-7.98
1554115544668,6.301731,4.9633317,5.621757,-0.0036010507,0.0074739363,0.0037507126,-33.059998,22.199999,-7.7999997
1554115544687,6.296942700000001,4.946572,5.604997,0.003118467,0.005030475,0.004972443,-32.64,22.56,-7.7999997
1554115544707,6.2945485,4.95136,5.590631500000001,0.0037293321999999998,-0.0022999076,8.552113e-05,-32.88,23.34,-7.74
1554115544728,6.316097,4.965726,5.593026,0.0012858714,0.0007544185499999999,0.0025289822,-32.76,23.279999,-7.7999997
1554115544747,6.301731,4.9633317,5.6169686,6.414085e-05,0.005030475,0.0037507126,-32.46,23.46,-8.34
1554115544767,6.3137026,4.948966,5.602603,-0.0036010507,0.006863071,0.0006963864,-32.219997,22.98,-8.4
1554115544788,6.284971,4.9633317,5.621757,-0.0017684549,0.00014355333,0.0013072516,-32.579997999999996,22.98,-7.68
1554115544807,6.28976,4.972909,5.5882373,-0.0048227813000000005,0.003808745,0.0006963864,-32.76,22.56,-6.66
1554115544827,6.280183,4.9776974,5.5738715999999995,-0.00237932,0.008695666999999999,0.0013072516,-32.7,22.26,-7.2
1554115544848,6.265817,4.975303,5.619363,-0.0017684549,0.009917397,0.0092485,-33.18,22.56,-7.98
1554115544867,6.2706056,4.96812,5.6361227,-0.0017684549,0.0056413407,0.012302826000000001,-33.12,22.32,-7.7999997
1554115544888,6.280183,4.9441776,5.578660500000001,-0.004211916,0.008084802,0.017189749,-33.0,22.56,-7.68
1554115544907,6.275394400000001,4.96812,5.604997,-0.0060445117000000005,0.016636916,0.017800614,-33.12,22.8,-7.62
1554115544927,6.3137026,4.9633317,5.626546,-0.006655377,0.012360858,0.02207667,-33.0,22.56,-7.44
1554115544947,6.282577,4.948966,5.583449,-0.0060445117000000005,0.011139126999999999,0.017189749,-32.88,22.14,-7.5
1554115544967,6.3376455,4.9417834,5.6145744,-0.008487972,0.012971723000000001,0.017189749,-32.88,22.74,-7.5
1554115544987,6.325673999999999,4.932206,5.640911599999999,-0.0048227813000000005,0.012971723000000001,0.012302826000000001,-33.48,22.92,-7.44
1554115545008,6.3137026,4.936994599999999,5.6361227,-0.0029901853000000003,0.006863071,0.009859365,-32.82,22.68,-6.66
1554115545027,6.2131433,4.929812,5.6145744,-0.010931433999999999,-0.03711923,0.015968017,-31.679997999999998,22.56,-5.2799997
1554115545047,6.316097,4.9274178,5.62894,-0.0017684549,-0.0004673119,0.008637634,-31.859999,21.779999,-5.1
1554115545068,6.311308400000001,4.936994599999999,5.6169686,-0.00237932,0.011139126999999999,0.008026769,-32.1,22.08,-5.22
1554115545087,6.318491000000001,4.9537544,5.607392,-0.0011575897,0.006863071,0.0037507126,-31.92,22.8,-5.8799996
1554115545107,6.325673999999999,4.946572,5.621757,-0.0011575897,0.005030475,0.008026769,-32.46,22.859999,-6.18
1554115545128,6.332856700000001,4.936994599999999,5.604997,-0.0017684549,0.00441961,0.005583308,-33.12,23.279999,-6.6
1554115545147,6.3280683,4.915446299999999,5.6457,-0.0011575897,0.0056413407,0.004972443,-33.3,23.64,-7.74
1554115545167,6.3232800000000005,4.9106574,5.652883,0.0012858714,0.005030475,0.0031398472,-33.6,22.98,-8.4
1554115545187,6.316097,4.915446299999999,5.6313343,0.0037293321999999998,0.0013652839000000002,8.552113e-05,-33.719997,22.74,-8.28
1554115545207,6.30652,4.9106574,5.619363,0.003118467,-0.0022999076,8.552113e-05,-33.059998,22.32,-7.56
1554115545227,6.2921543,4.925023,5.61218,0.0018967367000000002,-0.0022999076,0.0013072516,-32.64,22.14,-7.5
1554115545247,6.308914,4.936994599999999,5.626546,0.0043401974,-0.0016890424,-0.0035796703,-32.76,22.859999,-7.08
1554115545267,6.299337,4.9346004,5.6385174000000005,0.0037293321999999998,-0.0041325036,-0.0041905358,-32.94,22.8,-6.8999996
1554115545287,6.3137026,4.9393888,5.6361227,0.0049510626,-0.005965099000000001,-0.0048014005,-33.42,22.38,-7.44
1554115545308,6.316097,4.915446299999999,5.664854,0.008616254,-0.009630291,-0.0017470747,-33.42,22.199999,-7.08
1554115545327,6.311308400000001,4.9417834,5.6361227,0.011670581000000001,-0.012684616999999999,-0.0060231313,-33.0,22.38,-7.2
1554115545347,6.3280683,4.948966,5.609786,0.01044885,-0.014517213000000001,-0.008466592,-32.76,22.92,-7.9199996
1554115545368,6.311308400000001,4.932206,5.643306,0.008005389,-0.015128078,-0.005412266,-33.0,22.98,-8.34
1554115545387,6.3232800000000005,4.922629,5.6552773,0.012281446000000001,-0.025512787000000002,-0.009077458,-33.239998,22.619999,-7.68
1554115545408,6.3137026,4.922629,5.578660500000001,0.008616254,-0.020625865,-0.0060231313,-33.18,22.5,-7.02
1554115545427,6.325673999999999,4.9537544,5.554717500000001,0.0025076016,-0.018182404,-0.007855727,-32.76,22.439999,-7.02
1554115545447,6.308914,4.9585433,5.607392,0.0006750061000000001,-0.02245846,-0.008466592,-32.7,22.8,-7.02
1554115545468,6.344828,4.9872746,5.61218,0.0049510626,-0.02245846,-0.008466592,-33.36,22.56,-7.5
1554115545487,6.3400397,4.9705143,5.6145744,0.0043401974,-0.020625865,-0.0066339965,-32.76,22.56,-7.5
1554115545508,6.352011,4.95136,5.62894,0.0067836586,-0.026123652,-0.008466592,-32.16,22.74,-7.68
1554115545527,6.318491000000001,4.9537544,5.595420400000001,0.01044885,-0.03345404,-0.010299188,-32.76,22.74,-6.7799997
1554115545547,6.320885700000001,4.95136,5.5738715999999995,0.013503177,-0.032232303,-0.009077458,-33.36,22.56,-6.24
1554115545568,6.30652,4.9441776,5.537957700000001,0.0049510626,-0.023069326,-0.012742648999999998,-33.96,22.56,-7.02
1554115545587,6.3280683,4.96812,5.547535,0.0043401974,-0.021847595,-0.0133535145,-33.66,22.92,-7.02
1554115545608,6.342434,4.9776974,5.5523233,0.0055619282999999995,-0.02245846,-0.013964378999999999,-33.3,22.74,-6.8999996
1554115545627,6.347222299999999,4.992063,5.569083,0.0061727935,-0.021847595,-0.013964378999999999,-33.6,22.859999,-6.8399997
1554115545648,6.3567995999999996,4.9800916,5.5403519999999995,0.008616254,-0.017571539,-0.01518611,-33.6,22.74,-6.8999996
1554115545667,6.3567995999999996,4.9776974,5.5571117,0.0025076016,-0.0102411555,-0.0188513,-32.88,22.439999,-7.2
1554115545687,6.320885700000001,4.98488,5.5978145999999995,0.0025076016,-0.011462886,-0.015796974,-32.88,22.14,-7.2
1554115545708,6.316097,4.98488,5.585843,0.0067836586,-0.015128078,-0.015796974,-33.18,22.08,-7.02
1554115545727,6.30652,4.982486,5.559506,0.0147249065,-0.026734518,-0.014575245,-32.88,22.14,-6.42
1554115545747,6.304126,5.00164,5.5116205,0.012892311000000002,-0.024901923,-0.010910053000000001,-32.52,21.72,-6.6
1554115545767,6.3400397,5.0040345,5.5164089999999995,0.0067836586,-0.017571539,-0.007855727,-32.579997999999996,22.26,-6.6
1554115545787,6.352011,4.9944572,5.487678,0.0012858714,-0.012073752,-0.010299188,-33.239998,22.439999,-6.48
1554115545807,6.349616999999999,4.972909,5.5642949999999995,6.414085e-05,-0.013906348,-0.008466592,-33.12,22.38,-7.62
1554115545827,6.3352512999999995,4.9872746,5.571477400000001,0.0025076016,-0.019404136000000002,-0.010299188,-33.0,22.26,-6.72
1554115545847,6.349616999999999,4.996851400000001,5.5355635,0.0055619282999999995,-0.01879327,-0.012131783,-33.239998,21.779999,-4.74
1554115545867,6.3280683,5.00164,5.542746,0.011670581000000001,-0.021847595,-0.015796974,-32.7,22.14,-4.38
1554115545887,6.342434,4.996851400000001,5.542746,0.011670581000000001,-0.023069326,-0.010299188,-32.28,22.38,-4.7999997
1554115545907,6.3232800000000005,4.9944572,5.5116205,0.012281446000000001,-0.026734518,-0.010299188,-32.7,21.84,-4.56
1554115545927,6.3304625,5.0160055,5.437398,0.0061727935,-0.02245846,-0.008466592,-32.52,21.96,-4.02
1554115545948,6.318491000000001,5.0327660000000005,5.4661292999999995,0.0018967367000000002,-0.017571539,-0.009077458,-32.52,22.56,-4.08
1554115545967,6.3352512999999995,5.0231886,5.497255,0.0049510626,-0.012684616999999999,-0.0029688051,-32.46,22.439999,-4.02
1554115545987,6.3352512999999995,5.035159999999999,5.5044379999999995,0.003118467,-0.009019425,8.552113e-05,-32.04,22.199999,-3.6599998
1554115546008,6.344828,5.011217,5.5164089999999995,0.0061727935,-0.009630291,-0.00235794,-32.1,22.32,-3.78
1554115546027,6.3376455,4.9944572,5.518803599999999,0.0055619282999999995,-0.011462886,8.552113e-05,-32.579997999999996,21.779999,-4.2
1554115546047,6.344828,4.996851400000001,5.4948606,0.007394524,-0.016349807,-0.0048014005,-32.64,21.24,-3.9599998
1554115546067,6.3352512999999995,4.9992456,5.4924664000000005,0.0025076016,-0.009019425,-0.0029688051,-31.859999,20.58,-2.7
1554115546087,6.3376455,5.035159999999999,5.4709177,0.0025076016,-0.004743369,-0.0017470747,-30.779999,19.98,-1.86
1554115546107,6.3591940000000005,5.0447370000000005,5.4709177,-0.0005467243599999999,0.00014355333,-0.0005253441,-31.019999,21.66,-3.0
1554115546128,6.366377,5.0399485,5.4661292999999995,-0.0017684549,0.006252206,0.0013072516,-32.52,22.439999,-3.78
1554115546147,6.332856700000001,5.027977,5.4757066,-0.0029901853000000003,0.008084802,0.005583308,-33.3,22.14,-3.6
1554115546167,6.342434,5.0184,5.482889,-0.00237932,0.012971723000000001,0.0031398472,-32.88,22.199999,-4.3199997
1554115546188,6.3376455,5.0399485,5.502043700000001,-0.0036010507,0.01602605,0.007415904,-32.82,22.199999,-4.5
1554115546207,6.316097,5.042342700000001,5.4852834,-0.00237932,0.013582588999999999,0.008637634,-33.3,22.26,-4.7999997
1554115546227,6.332856700000001,5.020794400000001,5.4852834,-0.0017684549,0.015415183999999998,0.009859365,-32.64,22.14,-5.22
1554115546248,6.332856700000001,4.996851400000001,5.4948606,-0.0054336459999999994,0.017858647,0.012302826000000001,-32.399998,22.74,-4.56
1554115546267,6.3567995999999996,5.006428700000001,5.4924664000000005,-0.007877107,0.017858647,0.008637634,-32.76,23.1,-4.56
1554115546288,6.349616999999999,5.00164,5.514014700000001,-0.007877107,0.015415183999999998,0.006194174,-32.1,22.74,-4.92
1554115546307,6.3304625,5.0184,5.537957700000001,-0.0048227813000000005,0.01602605,0.006194174,-32.1,22.92,-4.7999997
1554115546327,6.3352512999999995,5.011217,5.521198,-0.0011575897,0.012360858,0.008026769,-32.579997999999996,23.039998999999998,-4.3199997
1554115546348,6.3544054,5.020794400000001,5.5044379999999995,-0.00237932,0.014193454,0.008637634,-33.0,22.56,-4.44
1554115546367,6.3376455,4.996851400000001,5.5164089999999995,-0.0036010507,0.013582588999999999,0.004361578,-33.3,22.14,-5.22
1554115546387,6.3400397,4.9944572,5.542746,-0.0005467243599999999,0.0074739363,0.008637634,-32.82,22.439999,-5.22
1554115546407,6.3232800000000005,4.989669,5.502043700000001,0.0006750061000000001,0.006252206,0.008637634,-33.0,22.859999,-5.1
1554115546427,6.320885700000001,5.0136113,5.487678,-0.007266241999999999,0.01602605,0.01047023,-33.54,22.619999,-5.1
1554115546448,6.308914,5.0040345,5.4948606,-0.010320568,0.01846951,0.0135245565,-33.84,21.96,-5.04
1554115546467,6.325673999999999,5.025583,5.5355635,-0.0060445117000000005,0.015415183999999998,0.0135245565,-33.719997,21.84,-5.58
1554115546487,6.3567995999999996,5.0040345,5.5403519999999995,-0.0048227813000000005,0.015415183999999998,0.014746287,-33.18,22.32,-5.2799997
1554115546508,6.3567995999999996,4.982486,5.566689,-0.0011575897,0.011749993,0.0135245565,-33.54,22.439999,-4.62
1554115546527,6.349616999999999,4.965726,5.554717500000001,-0.0017684549,0.008084802,0.015968017,-33.66,22.439999,-4.8599997
1554115546548,6.385530999999999,4.9561486,5.5619005999999995,-0.0017684549,0.0056413407,0.01047023,-33.239998,22.8,-5.2799997
1554115546567,6.3304625,4.95136,5.5403519999999995,-0.00237932,0.0056413407,0.006805039000000001,-32.7,22.68,-5.16
1554115546587,6.332856700000001,4.9705143,5.514014700000001,-0.0054336459999999994,0.009917397,0.004361578,-32.28,22.5,-5.4
1554115546607,6.349616999999999,4.996851400000001,5.5355635,-0.006655377,0.017858647,0.004361578,-32.52,22.56,-6.12
1554115546627,6.3591940000000005,4.9872746,5.5355635,-0.0036010507,0.01602605,0.006194174,-32.34,22.5,-6.06
1554115546647,6.325673999999999,5.011217,5.542746,-0.006655377,0.012971723000000001,0.007415904,-32.399998,22.98,-5.3399997
1554115546668,6.3376455,5.0088230000000005,5.5355635,-0.0054336459999999994,0.011139126999999999,0.008026769,-32.399998,22.68,-5.3399997
1554115546687,6.320885700000001,4.9992456,5.537957700000001,-0.009098838,0.020302108,0.007415904,-32.88,22.439999,-5.8799996
1554115546708,6.3280683,4.989669,5.578660500000001,-0.009098838,0.017858647,0.004972443,-33.18,22.08,-5.8199997
1554115546727,6.3304625,4.9705143,5.566689,-0.009098838,0.008695666999999999,0.007415904,-32.46,21.72,-5.46
1554115546747,6.318491000000001,4.992063,5.569083,-0.012764029,0.0074739363,0.008026769,-32.52,22.5,-5.4
1554115546767,6.352011,4.9776974,5.5523233,-0.0036010507,0.0074739363,0.008026769,-32.7,22.56,-5.52
1554115546787,6.347222299999999,4.96812,5.525986,-0.004211916,0.011749993,0.008026769,-32.7,21.84,-4.98
1554115546807,6.342434,4.95136,5.521198,-0.0060445117000000005,0.010528262,0.007415904,-32.219997,21.6,-4.98
1554115546827,6.347222299999999,4.9346004,5.5882373,-0.010931433999999999,0.009917397,0.0037507126,-32.04,22.199999,-5.52
1554115546848,6.3567995999999996,4.9585433,5.583449,-0.006655377,0.013582588999999999,0.0037507126,-31.98,22.32,-5.52
1554115546867,6.304126,4.96812,5.549929,-0.0036010507,0.00441961,0.0006963864,-31.92,22.14,-5.16
1554115546888,6.304126,4.972909,5.566689,-0.007266241999999999,0.0013652839000000002,0.0025289822,-32.16,22.38,-5.52
1554115546907,6.311308400000001,4.98488,5.604997,-0.007266241999999999,0.00441961,0.004361578,-32.1,22.74,-5.46
1554115546927,6.308914,4.9705143,5.554717500000001,-0.0060445117000000005,0.011139126999999999,0.006805039000000001,-32.04,22.5,-5.22
1554115546947,6.311308400000001,4.9585433,5.5523233,-0.012764029,0.016636916,0.006805039000000001,-32.04,22.32,-4.8599997
1554115546967,6.347222299999999,4.948966,5.569083,-0.012153164,0.009917397,0.008026769,-32.1,22.38,-4.5
1554115546987,6.3544054,4.96812,5.566689,-0.009709704,0.009917397,0.007415904,-32.46,22.619999,-5.22
1554115547007,6.347222299999999,4.972909,5.593026,-0.008487972,0.010528262,0.008026769,-32.46,22.26,-5.8799996
1554115547028,6.3232800000000005,4.9393888,5.559506,-0.0011575897,0.009306532,0.004972443,-32.219997,21.9,-6.12
1554115547047,6.342434,4.9633317,5.559506,-0.007266241999999999,0.012971723000000001,0.005583308,-32.76,22.26,-5.52
1554115547068,6.3232800000000005,4.9417834,5.585843,-0.010320568,0.014193454,0.005583308,-32.52,22.439999,-4.98
1554115547087,6.311308400000001,4.95136,5.585843,-0.009098838,0.009917397,0.0031398472,-32.34,22.68,-5.16
1554115547107,6.311308400000001,4.9561486,5.604997,-0.01398576,0.012971723000000001,0.0013072516,-32.399998,22.5,-5.7599998
1554115547127,6.308914,4.946572,5.609786,-0.009098838,0.012971723000000001,0.0025289822,-32.219997,22.38,-5.58
1554115547147,6.3137026,4.96812,5.607392,-0.0054336459999999994,0.012971723000000001,0.005583308,-32.64,22.26,-4.92
1554115547167,6.320885700000001,4.9537544,5.583449,-0.0036010507,0.008695666999999999,0.004972443,-32.7,21.9,-4.98
1554115547188,6.3352512999999995,4.9346004,5.602603,-0.007877107,0.0074739363,0.005583308,-32.28,22.14,-5.3399997
1554115547207,6.316097,4.929812,5.5978145999999995,-0.007877107,0.008084802,0.0025289822,-32.399998,21.84,-5.7
1554115547227,6.30652,4.9178405,5.571477400000001,-0.006655377,0.008695666999999999,0.0019181169,-32.64,22.199999,-5.8199997
1554115547247,6.30652,4.9561486,5.61218,-0.011542298999999999,0.008695666999999999,0.0013072516,-32.64,23.039998999999998,-5.8199997
1554115547268,6.308914,4.9585433,5.604997,-0.008487972,0.006863071,0.0006963864,-32.82,22.98,-5.7599998
1554115547287,6.3280683,4.9705143,5.619363,-0.004211916,0.006252206,0.006194174,-32.64,22.56,-5.4
1554115547307,6.311308400000001,4.936994599999999,5.6002088,-0.00237932,0.005030475,0.004972443,-32.219997,22.26,-4.7999997
1554115547328,6.316097,4.9417834,5.6002088,-0.0036010507,0.006252206,0.0025289822,-32.28,21.9,-5.1
1554115547347,6.320885700000001,4.925023,5.6241517,-0.0005467243599999999,0.003808745,0.0013072516,-32.28,21.66,-5.58
1554115547367,6.352011,4.936994599999999,5.609786,-0.004211916,0.006863071,0.0025289822,-32.52,22.619999,-5.16
1554115547388,6.311308400000001,4.925023,5.6145744,-0.006655377,0.008084802,0.0025289822,-32.7,22.8,-5.4
1554115547407,6.308914,4.925023,5.6385174000000005,-0.0017684549,0.0031978795,0.0037507126,-32.52,22.439999,-5.7
1554115547427,6.299337,4.9274178,5.6361227,-0.0005467243599999999,-0.0022999076,0.0006963864,-32.94,22.5,-4.98
1554115547448,6.2921543,4.9585433,5.621757,0.0025076016,0.00014355333,0.0025289822,-33.36,22.199999,-4.8599997
1554115547467,6.3137026,4.9441776,5.593026,0.0012858714,0.0007544185499999999,0.0031398472,-32.64,22.38,-4.98
1554115547487,6.318491000000001,4.946572,5.6002088,-0.0005467243599999999,0.0019761492,0.008026769,-31.92,22.8,-4.92
1554115547508,6.3137026,4.9585433,5.583449,-0.0036010507,0.003808745,0.0037507126,-32.76,22.8,-4.8599997
1554115547527,6.332856700000001,4.948966,5.607392,-0.0011575897,0.005030475,0.004361578,-32.88,22.619999,-4.98
1554115547547,6.301731,4.936994599999999,5.62894,0.0012858714,-0.0016890424,0.0025289822,-32.94,22.619999,-5.2799997
1554115547567,6.311308400000001,4.9346004,5.619363,0.0037293321999999998,-0.0041325036,-0.0017470747,-32.82,22.859999,-5.22
1554115547588,6.284971,4.9274178,5.6169686,0.0025076016,-0.004743369,0.0006963864,-32.82,22.92,-4.92
1554115547607,6.3304625,4.9178405,5.6313343,0.0067836586,-0.0084085595,-0.0005253441,-32.399998,22.619999,-5.16
1554115547627,6.3304625,4.9393888,5.6241517,0.0055619282999999995,-0.009019425,8.552113e-05,-32.04,22.68,-5.46
1554115547648,6.3232800000000005,4.922629,5.609786,0.01044885,-0.0071868296,8.552113e-05,-32.34,22.619999,-5.3399997
1554115547667,6.332856700000001,4.929812,5.593026,0.009227119,-0.0084085595,-0.0011362094,-32.88,22.5,-4.92
1554115547688,6.332856700000001,4.929812,5.6169686,0.009227119,-0.011462886,-0.00235794,-32.399998,23.279999,-4.7999997
1554115547707,6.3376455,4.9417834,5.609786,0.008005389,-0.012684616999999999,-0.0035796703,-31.679997999999998,23.519999,-5.1
1554115547727,6.352011,4.9537544,5.621757,0.01044885,-0.015738943999999998,-0.007855727,-32.82,22.859999,-5.4
1554115547748,6.318491000000001,4.9417834,5.595420400000001,0.008616254,-0.014517213000000001,-0.005412266,-33.3,22.68,-5.8199997
1554115547767,6.342434,4.946572,5.583449,0.009227119,-0.014517213000000001,-0.007244861700000001,-32.52,22.439999,-5.7599998
1554115547788,6.3304625,4.9537544,5.566689,0.01044885,-0.020625865,-0.009688323,-32.7,21.84,-5.58
1554115547807,6.342434,4.965726,5.578660500000001,0.011670581000000001,-0.021847595,-0.010299188,-32.28,22.14,-5.2799997
1554115547827,6.3400397,4.9705143,5.5810547,0.007394524,-0.02123673,-0.010910053000000001,-31.859999,22.619999,-5.4
1554115547848,6.3280683,4.95136,5.571477400000001,0.0067836586,-0.020625865,-0.010299188,-32.34,22.74,-5.8199997
1554115547867,6.325673999999999,4.9776974,5.585843,0.0049510626,-0.019404136000000002,-0.010299188,-32.46,22.8,-5.64
1554115547887,6.3400397,4.9585433,5.602603,0.007394524,-0.020625865,-0.010910053000000001,-33.18,22.56,-5.58
1554115547908,6.3352512999999995,4.9776974,5.566689,0.0067836586,-0.020625865,-0.009688323,-33.18,22.439999,-5.52
1554115547927,6.344828,4.96812,5.559506,0.009227119,-0.015128078,-0.010299188,-32.7,22.619999,-5.4
1554115547947,6.301731,4.9800916,5.559506,0.0061727935,-0.02123673,-0.014575245,-32.34,22.08,-5.58
1554115547967,6.316097,4.975303,5.559506,0.009227119,-0.02245846,-0.007855727,-32.399998,22.199999,-5.58
1554115547987,6.316097,4.98488,5.518803599999999,0.0061727935,-0.018182404,-0.0048014005,-32.34,22.619999,-5.22
1554115548007,6.3352512999999995,4.982486,5.482889,0.0018967367000000002,-0.013295481999999999,-0.007244861700000001,-32.16,22.32,-5.2799997
1554115548027,6.3304625,4.9944572,5.518803599999999,-0.0005467243599999999,-0.011462886,-0.0029688051,-32.34,22.38,-5.64
1554115548047,6.342434,5.006428700000001,5.5355635,-0.0005467243599999999,-0.0102411555,-0.0048014005,-32.34,22.14,-5.1
1554115548067,6.3352512999999995,4.9992456,5.5810547,0.0067836586,-0.009630291,-0.007244861700000001,-32.399998,21.84,-4.62
1554115548088,6.352011,4.98488,5.585843,0.0049510626,-0.007797694799999999,-0.0048014005,-32.219997,22.199999,-4.8599997
1554115548107,6.3280683,4.9561486,5.578660500000001,0.012892311000000002,-0.01879327,-0.0060231313,-32.16,22.08,-4.98
1554115548128,6.299337,4.989669,5.5164089999999995,0.01044885,-0.024901923,-0.009688323,-32.7,21.9,-4.5
1554115548147,6.30652,4.996851400000001,5.5044379999999995,0.008616254,-0.02123673,-0.008466592,-32.82,22.14,-4.56
1554115548167,6.344828,5.00164,5.5116205,0.0067836586,-0.015738943999999998,-0.008466592,-32.219997,22.02,-5.16
1554115548187,6.3400397,5.00164,5.5307746,0.0037293321999999998,-0.0102411555,-0.0066339965,-32.76,21.66,-5.04
1554115548207,6.361587999999999,4.996851400000001,5.525986,0.0037293321999999998,-0.0102411555,-0.0060231313,-32.76,21.72,-4.62
1554115548228,6.3735595,4.975303,5.497255,0.0049510626,-0.011462886,-0.005412266,-31.98,22.74,-4.8599997
1554115548247,6.3711652999999995,4.9776974,5.5044379999999995,0.0049510626,-0.013295481999999999,-0.008466592,-32.04,22.98,-5.64
1554115548267,6.3759537,4.982486,5.521198,0.0018967367000000002,-0.009630291,-0.008466592,-32.88,22.68,-5.58
1554115548288,6.332856700000001,4.98488,5.5355635,0.0049510626,-0.0102411555,-0.009077458,-33.3,22.439999,-5.4
1554115548307,6.3400397,5.00164,5.5355635,0.008616254,-0.012073752,-0.007855727,-32.76,22.08,-4.92
1554115548328,6.325673999999999,5.025583,5.521198,0.009227119,-0.018182404,-0.007244861700000001,-32.7,22.199999,-4.74
1554115548348,6.347222299999999,5.006428700000001,5.499649,0.0067836586,-0.012684616999999999,-0.0048014005,-33.18,22.56,-5.64
1554115548367,6.3280683,5.025583,5.482889,0.0037293321999999998,-0.0084085595,-0.0066339965,-32.64,22.38,-5.58
1554115548387,6.3639827,4.9992456,5.518803599999999,0.0025076016,-0.0071868296,-0.0041905358,-32.52,21.96,-5.7
1554115548407,6.361587999999999,5.0184,5.506832,0.0018967367000000002,-0.007797694799999999,-0.0048014005,-33.059998,22.199999,-5.64
1554115548428,6.344828,5.0040345,5.502043700000001,0.003118467,-0.0102411555,-0.0041905358,-32.88,22.619999,-4.92
1554115548447,6.347222299999999,5.0088230000000005,5.502043700000001,0.0043401974,-0.012073752,-0.005412266,-32.82,22.38,-4.92
1554115548467,6.3591940000000005,5.0136113,5.4948606,0.0049510626,-0.009019425,-0.0029688051,-32.64,22.439999,-5.1
1554115548488,6.3376455,5.0375543,5.437398,0.0012858714,-0.0041325036,-0.0066339965,-32.94,22.8,-4.92
1554115548507,6.352011,5.011217,5.446975,-0.004211916,0.0007544185499999999,-0.00235794,-33.18,22.32,-4.7999997
1554115548527,6.325673999999999,5.0231886,5.497255,-0.007266241999999999,0.002587014,0.0013072516,-32.219997,22.02,-4.74
1554115548548,6.3232800000000005,5.027977,5.4733124,-0.008487972,0.011139126999999999,0.004972443,-32.1,22.14,-4.92
1554115548567,6.3232800000000005,5.035159999999999,5.502043700000001,-0.010931433999999999,0.019080376,0.009859365,-32.82,22.32,-5.52
1554115548587,6.3304625,5.0399485,5.525986,-0.007877107,0.011749993,0.011081096,-32.76,22.859999,-5.7599998
1554115548607,6.3376455,5.035159999999999,5.506832,-0.0054336459999999994,0.010528262,0.015357151999999999,-32.64,22.38,-5.46
1554115548628,6.352011,5.00164,5.521198,-0.0011575897,0.0148043195,0.017189749,-32.64,21.48,-5.22
1554115548647,6.344828,4.96812,5.518803599999999,-0.0011575897,0.009306532,0.011081096,-32.219997,22.14,-5.58
1554115548667,6.3400397,4.9609375,5.5092263,-0.00237932,0.0056413407,0.01047023,-32.219997,22.32,-5.4
1554115548687,6.3352512999999995,4.982486,5.5092263,-0.00237932,0.005030475,0.004972443,-32.28,22.08,-5.3399997
1554115548707,6.342434,4.9992456,5.4924664000000005,-0.008487972,0.013582588999999999,0.008026769,-32.399998,22.02,-5.58
1554115548727,6.332856700000001,5.025583,5.499649,-0.007877107,0.013582588999999999,0.008026769,-32.34,21.96,-5.7
1554115548748,6.347222299999999,5.0088230000000005,5.525986,-0.009709704,0.019080376,0.012302826000000001,-31.74,22.26,-5.64
1554115548767,6.3567995999999996,4.9872746,5.506832,-0.007877107,0.01602605,0.0135245565,-31.98,22.14,-5.46
1554115548787,6.342434,4.9992456,5.525986,-0.0054336459999999994,0.013582588999999999,0.0135245565,-32.16,21.84,-5.58
1554115548807,6.3567995999999996,4.9872746,5.5044379999999995,-0.0054336459999999994,0.013582588999999999,0.009859365,-32.579997999999996,22.08,-5.16
1554115548827,6.3280683,4.98488,5.5307746,-0.008487972,0.016636916,0.012913692,-32.94,22.74,-4.68
1554115548847,6.347222299999999,4.989669,5.5331693,-0.009098838,0.019080376,0.011081096,-32.28,22.8,-4.98
1554115548867,6.352011,4.9944572,5.5523233,-0.009098838,0.019080376,0.011081096,-32.1,22.26,-5.46
1554115548887,6.361587999999999,4.9872746,5.5642949999999995,-0.007877107,0.013582588999999999,0.009859365,-32.7,22.32,-5.2799997
1554115548908,6.344828,4.975303,5.5331693,-0.007266241999999999,0.010528262,0.0092485,-32.94,22.199999,-5.22
1554115548927,6.347222299999999,4.9776974,5.5403519999999995,-0.0060445117000000005,0.012971723000000001,0.008026769,-32.94,22.08,-5.8799996
1554115548947,6.3304625,4.9776974,5.5403519999999995,-0.0048227813000000005,0.011749993,0.004972443,-32.7,22.14,-5.8199997
1554115548967,6.3352512999999995,4.98488,5.5283804000000005,-0.008487972,0.014193454,0.004361578,-32.28,22.859999,-5.1
1554115548988,6.318491000000001,4.982486,5.549929,-0.007877107,0.01602605,0.007415904,-32.7,22.619999,-5.52
1554115549007,6.325673999999999,4.975303,5.542746,-0.010931433999999999,0.013582588999999999,0.006194174,-33.0,22.38,-5.8799996
1554115549027,6.3400397,4.972909,5.5882373,-0.009709704,0.013582588999999999,0.006805039000000001,-32.7,22.74,-5.8199997
1554115549047,6.3735595,4.96812,5.566689,-0.010931433999999999,0.01602605,0.0031398472,-32.46,22.02,-5.7599998
1554115549068,6.3232800000000005,4.9609375,5.559506,-0.011542298999999999,0.015415183999999998,0.0025289822,-32.579997999999996,22.439999,-4.8599997
1554115549087,6.3376455,4.9705143,5.583449,-0.007266241999999999,0.009306532,0.0031398472,-32.399998,22.5,-4.62
1554115549107,6.325673999999999,4.9537544,5.5642949999999995,-0.010320568,0.006863071,0.0031398472,-32.16,21.96,-5.2799997
1554115549127,6.3304625,4.9585433,5.5810547,-0.009709704,0.009917397,0.0037507126,-32.34,22.32,-4.98
1554115549147,6.311308400000001,4.9705143,5.593026,-0.008487972,0.0031978795,0.0037507126,-33.12,22.68,-5.16
1554115549167,6.3280683,4.9609375,5.5523233,-0.0060445117000000005,-0.0004673119,8.552113e-05,-33.42,22.56,-5.8199997
1554115549187,6.352011,4.9705143,5.5403519999999995,-0.007877107,0.0007544185499999999,8.552113e-05,-33.059998,22.5,-6.18
1554115549207,6.3304625,4.9776974,5.559506,-0.010931433999999999,0.00441961,-0.00235794,-33.059998,22.08,-5.7599998
1554115549227,6.304126,5.006428700000001,5.5619005999999995,-0.010931433999999999,0.008695666999999999,0.0006963864,-32.34,21.72,-4.7999997
1554115549247,6.299337,4.98488,5.5738715999999995,-0.008487972,0.006252206,-0.0029688051,-32.1,22.02,-4.56
1554115549267,6.299337,4.95136,5.609786,-0.012153164,0.009917397,0.0019181169,-32.34,22.8,-4.56
1554115549288,6.30652,4.9441776,5.6241517,-0.011542298999999999,0.006863071,0.0019181169,-31.679997999999998,22.92,-3.9599998
1554115549307,6.3376455,4.9202347,5.6313343,-0.0036010507,0.0013652839000000002,-0.0005253441,-31.56,21.96,-3.72
1554115549327,6.3639827,4.9441776,5.578660500000001,-0.0029901853000000003,-0.005965099000000001,-0.0048014005,-32.399998,21.84,-4.74
1554115549347,6.3567995999999996,4.9633317,5.542746,-0.0054336459999999994,-0.0084085595,-0.007855727,-32.399998,22.14,-4.74
1554115549368,6.3400397,4.982486,5.542746,-0.007266241999999999,-0.006575964399999999,-0.0060231313,-32.04,22.38,-4.14
1554115549387,6.30652,4.9872746,5.5642949999999995,-0.0060445117000000005,-0.0084085595,-0.00235794,-31.26,22.02,-2.9399998
1554115549407,6.30652,4.96812,5.590631500000001,-0.0048227813000000005,-0.0084085595,0.004361578,-31.08,21.3,-1.68
1554115549427,6.284971,4.9992456,5.571477400000001,-0.0036010507,-0.0102411555,0.005583308,-32.46,21.84,-2.82
1554115549448,6.28976,5.0088230000000005,5.583449,-0.0029901853000000003,-0.013906348,0.011691960500000001,-32.34,22.38,-4.02
1554115549467,6.299337,4.9944572,5.5882373,-0.0054336459999999994,-0.014517213000000001,0.017800614,-31.74,22.02,-4.68
1554115549487,6.318491000000001,4.9441776,5.5810547,-0.004211916,-0.016349807,0.021465803999999998,-31.98,22.14,-5.2799997
1554115549508,6.3544054,4.9274178,5.5738715999999995,-0.0054336459999999994,-0.017571539,0.018411478000000002,-32.7,22.56,-5.3399997
1554115549527,6.3400397,4.9130519999999995,5.5978145999999995,-0.0017684549,-0.01879327,0.014746287,-32.7,23.279999,-5.52
1554115549547,6.3376455,4.908263,5.6002088,0.0018967367000000002,-0.01879327,0.012913692,-32.399998,23.46,-5.46
1554115549568,6.347222299999999,4.9106574,5.607392,0.008005389,-0.019404136000000002,0.004361578,-32.16,22.859999,-5.64
1554115549587,6.3544054,4.9346004,5.578660500000001,0.011670581000000001,-0.024901923,0.004361578,-32.219997,22.8,-5.64
1554115549607,6.3735595,4.9441776,5.554717500000001,0.015335771000000002,-0.027345384,0.006805039000000001,-32.64,22.8,-5.2799997
1554115549627,6.366377,4.946572,5.569083,0.019611828,-0.027956247000000004,0.011081096,-32.579997999999996,22.08,-5.2799997
1554115549648,6.3903193,4.95136,5.5307746,0.023887886,-0.023069326,0.014135422,-32.52,21.96,-5.46
1554115549667,6.423839,4.936994599999999,5.506832,0.028163942,-0.02245846,0.008637634,-32.34,22.56,-5.16
1554115549687,6.4310220000000005,4.932206,5.518803599999999,0.028163942,-0.02245846,0.006194174,-31.859999,22.74,-5.4
1554115549707,6.4358106,4.96812,5.4924664000000005,0.025720483,-0.026123652,0.007415904,-32.1,22.199999,-5.64
1554115549728,6.411868,4.9609375,5.4852834,0.017779233000000002,-0.019404136000000002,0.0013072516,-32.46,21.779999,-5.04
1554115549747,6.3951080000000005,4.932206,5.518803599999999,0.007394524,-0.016349807,0.006194174,-32.04,22.56,-4.7999997
1554115549767,6.378348,4.946572,5.499649,0.008616254,-0.011462886,-0.0005253441,-32.34,23.46,-4.68
1554115549787,6.3975024000000005,4.965726,5.4685235,0.008616254,-0.009630291,-0.0041905358,-32.82,22.74,-5.16
1554115549807,6.4142623,4.965726,5.4709177,0.0061727935,-0.004743369,-0.005412266,-32.579997999999996,22.38,-5.7599998
1554115549827,6.3975024000000005,4.9633317,5.5307746,0.0018967367000000002,-0.004743369,-0.007244861700000001,-32.219997,23.039998999999998,-5.58
1554115549847,6.378348,4.946572,5.537957700000001,0.0055619282999999995,-0.013906348,-0.011520918,-32.16,23.1,-5.2799997
1554115549867,6.3975024000000005,4.9609375,5.514014700000001,0.012281446000000001,-0.014517213000000001,-0.011520918,-32.82,22.92,-5.3399997
1554115549887,6.3759537,4.9800916,5.482889,0.007394524,-0.011462886,-0.012742648999999998,-32.64,23.039998999999998,-5.2799997
1554115549907,6.385530999999999,5.0040345,5.4661292999999995,0.0043401974,-0.009630291,-0.011520918,-32.28,23.039998999999998,-4.62
1554115549927,6.3975024000000005,4.98488,5.4852834,0.003118467,-0.012073752,-0.012131783,-32.16,22.8,-4.2
1554115549948,6.3903193,5.0040345,5.497255,0.004128838,-0.013178196000000001,-0.010530706499999999,-31.74,23.1,-4.44
1554115549967,6.407079,5.00164,5.514014700000001,0.0016853772,-0.011956465,-0.010530706499999999,-32.219997,22.56,-4.98
1554115549987,6.3975024000000005,4.98488,5.5044379999999995,0.010848356000000002,-0.013789061000000002,-0.012363302,-32.46,22.68,-5.04
1554115550007,6.3591940000000005,4.9872746,5.518803599999999,0.012680951999999999,-0.016843388,-0.014195896999999999,-32.34,22.92,-4.98
1554115550027,6.3711652999999995,4.982486,5.499649,0.010848356000000002,-0.0156216575,-0.008087245,-32.7,22.619999,-4.92
1554115550047,6.361587999999999,4.989669,5.4733124,0.011459221,-0.019286849,-0.009308975,-33.48,22.38,-5.22
1554115550067,6.3639827,5.00164,5.4685235,0.009626625,-0.014399926,-0.0068655144,-33.36,21.84,-5.3399997
1554115550087,6.3903193,4.9992456,5.463735,0.006572299,-0.0113456,-0.011141571000000001,-32.399998,22.439999,-4.8599997
1554115550107,6.3927135,4.9944572,5.4804949999999995,0.004128838,-0.008291274,-0.016028494,-32.1,22.92,-4.7999997
1554115550127,6.4334164000000005,4.98488,5.5164089999999995,0.005350569,-0.013789061000000002,-0.014195896999999999,-31.679997999999998,22.859999,-4.62
1554115550147,6.3831367,4.9992456,5.4852834,0.00901576,-0.01806512,-0.014195896999999999,-32.04,22.8,-5.16
1554115550168,6.3735595,5.0136113,5.463735,0.010848356000000002,-0.015010792,-0.011752437,-32.7,22.439999,-5.3399997
1554115550187,6.3927135,5.020794400000001,5.4421870000000006,0.00901576,-0.013178196000000001,-0.011141571000000001,-32.28,21.779999,-4.5
1554115550207,6.385530999999999,5.0184,5.4350038,0.00901576,-0.0064586782999999995,-0.009308975,-32.04,21.9,-5.2799997
1554115550228,6.4094739999999994,5.0160055,5.3727527,0.0016853772,-0.008291274,-0.009919841,-32.28,22.38,-5.64
1554115550247,6.3951080000000005,5.020794400000001,5.375147,-0.0056450055,-0.0009608910000000001,-0.006254649300000001,-32.579997999999996,22.32,-3.8999998999999996
1554115550267,6.385530999999999,5.0231886,5.482889,-0.009921063,0.00026083947,0.0010757337,-32.28,21.96,-3.54
1554115550288,6.3975024000000005,5.0495257,5.5044379999999995,-0.0068667363,0.0027043005,0.0059626554,-32.04,21.539998999999998,-4.7999997
1554115550307,6.3903193,5.05192,5.4709177,-0.0056450055,-0.00035002577,0.006573521,-31.8,21.539998999999998,-5.2799997
1554115550327,6.3591940000000005,5.0495257,5.4541580000000005,-0.0025906793,-0.0070695435,0.0071843863,-31.859999,22.02,-4.7999997
1554115550347,6.280183,5.030371,5.4733124,0.0022962423999999997,-0.008291274,0.016347364,-32.399998,21.9,-4.68
1554115550368,6.284971,4.972909,5.5403519999999995,0.013902682,-0.0052369474,0.020012556,-32.28,22.199999,-4.56
1554115550387,6.3232800000000005,4.9561486,5.5882373,0.021233065,0.0045368959999999995,0.017569095,-31.679997999999998,22.619999,-4.74
1554115550407,6.4310220000000005,4.891503299999999,5.5307746,0.024898257000000003,-0.0009608910000000001,0.0059626554,-32.16,21.96,-4.98
1554115550427,6.4573593,4.905869,5.377541000000001,0.010848356000000002,-0.010734734,-0.00075686205,-32.579997999999996,22.08,-4.08
1554115550447,6.476513400000001,4.95136,5.200365000000001,-0.023360098,0.0027043005,-0.0086981105,-32.219997,22.32,-4.56
1554115550468,6.459753500000001,5.011217,5.300924299999999,-0.049627304000000004,0.03446929,-0.011752437,-32.399998,21.539998999999998,-5.22
1554115550487,6.5148215,5.0327660000000005,5.4134555,-0.041075192,0.058293037,-0.012363302,-32.88,22.199999,-5.1
1554115550507,6.529187,5.011217,5.4852834,-0.026414424,0.05951477,-0.014195896999999999,-32.579997999999996,22.68,-5.2799997
1554115550527,6.464542,4.996851400000001,5.4948606,-0.022138366,0.04607573,-0.008087245,-32.579997999999996,22.08,-5.52
1554115550547,6.3975024000000005,5.030371,5.4733124,-0.019084042,0.033247564,-0.004422053,-32.52,22.38,-5.2799997
1554115550567,6.366377,5.0686800000000005,5.4685235,-0.019084042,0.032636695,-0.005643784000000001,-32.399998,22.08,-4.74
1554115550587,6.304126,5.104593799999999,5.4948606,-0.02702529,0.043021407000000005,0.0059626554,-32.579997999999996,21.96,-5.04
1554115550607,6.2777886,5.0854397,5.525986,-0.028857885,0.044854004,0.012071308000000001,-32.04,22.619999,-5.16
1554115550627,6.203566,5.020794400000001,5.593026,-0.021527502999999996,0.039356217,0.017569095,-31.859999,23.16,-4.98
1554115550647,6.191594599999999,4.989669,5.652883,-0.016029714,0.032636695,0.023677748,-32.1,22.619999,-4.7999997
1554115550668,6.2155375,4.965726,5.7318940000000005,-0.005034141,0.017975932,0.024288611,-31.56,21.96,-4.8599997
1554115550687,6.280183,4.929812,5.7582307,0.004128838,0.0020934353,0.024288611,-31.439999,22.439999,-5.2799997
1554115550707,6.30652,4.9202347,5.66246,0.010848356000000002,-0.018675983,0.017569095,-32.52,22.56,-5.22
1554115550727,6.352011,4.9393888,5.576266,0.010848356000000002,-0.029060692000000003,0.016347364,-32.399998,22.26,-5.52
1554115550747,6.385530999999999,4.925023,5.502043700000001,0.015735278000000002,-0.036391076,0.014514768999999999,-32.399998,22.38,-5.16
1554115550767,6.3975024000000005,4.965726,5.487678,0.016346144,-0.029060692000000003,0.012071308000000001,-32.34,22.74,-4.92
1554115550787,6.4549650000000005,4.9776974,5.4517636,0.015735278000000002,-0.021119443999999998,0.012071308000000001,-32.1,23.34,-4.98
1554115550808,6.478907599999999,4.975303,5.401484,0.013902682,-0.017454252,0.006573521,-32.64,23.519999,-4.38
1554115550827,6.476513400000001,4.9872746,5.3895125,0.006572299,-0.0040152175,0.012071308000000001,-32.399998,22.859999,-4.7999997
1554115550847,6.4501762000000005,4.992063,5.3895125,0.00046364672,0.008812953,0.013903904,-32.1,22.8,-5.16
1554115550868,6.4310220000000005,4.9705143,5.39909,-0.0068667363,0.028971506,0.014514768999999999,-31.98,22.56,-4.98
1554115550887,6.399896599999999,4.96812,5.4517636,-0.012975388000000001,0.03874535,0.014514768999999999,-32.04,22.199999,-4.92
1554115550907,6.404685,4.9609375,5.547535,-0.012975388000000001,0.035080157,0.016347364,-32.46,22.68,-5.22
1554115550927,6.3951080000000005,4.9537544,5.576266,-0.008699331999999999,0.02469545,0.010849578,-31.98,22.8,-5.3399997
1554115550948,6.4094739999999994,4.9585433,5.5882373,-0.0068667363,0.01308901,0.009016982,-32.04,22.98,-4.7999997
1554115550967,6.387925,4.9633317,5.571477400000001,-0.0019798144,0.010645548999999999,0.007795251400000001,-32.579997999999996,22.74,-5.46
1554115550988,6.3807425,4.9705143,5.5738715999999995,-0.005034141,0.009423818,0.002297464,-32.28,22.619999,-5.7599998
1554115551007,6.3591940000000005,4.9609375,5.5738715999999995,-0.0013689491,0.0033151659000000004,-0.00014599678999999998,-32.219997,23.039998999999998,-4.68
1554115551027,6.368771,4.9585433,5.566689,-0.00381241,0.0033151659000000004,-0.0032003229999999997,-32.219997,23.22,-4.74
1554115551048,6.3735595,4.9561486,5.554717500000001,0.001074512,-0.00035002577,-0.0032003229999999997,-31.859999,23.16,-5.3399997
1554115551067,6.387925,4.932206,5.571477400000001,0.0035179729999999998,-0.0015717562,-0.0032003229999999997,-31.8,23.279999,-5.3399997
1554115551087,6.399896599999999,4.905869,5.547535,0.004128838,-0.007680409,-0.00747638,-32.52,22.98,-5.3399997
1554115551108,6.378348,4.9393888,5.542746,0.0035179729999999998,-0.01012387,-0.008087245,-32.64,23.1,-5.46
1554115551127,6.4190507000000006,4.9441776,5.5738715999999995,0.009626625,-0.009513005,-0.011752437,-32.34,23.519999,-5.7599998
1554115551147,6.3927135,4.9561486,5.549929,0.015124412,-0.019897711999999998,-0.009919841,-32.16,23.4,-5.8799996
1554115551168,6.399896599999999,4.96812,5.499649,0.013902682,-0.023562904,-0.011752437,-32.1,23.1,-5.3399997
1554115551187,6.3927135,4.9346004,5.5116205,0.013902682,-0.022341175,-0.012974167,-32.82,23.1,-4.5
1554115551207,6.407079,4.965726,5.4709177,0.011459221,-0.01806512,-0.015417628000000001,-32.579997999999996,23.1,-4.62
1554115551227,6.3759537,4.9776974,5.463735,0.004128838,-0.00890214,-0.018471954,-31.439999,22.56,-5.16
1554115551247,6.3951080000000005,4.9705143,5.5092263,-0.0025906793,0.0008717047,-0.014806762,-31.92,22.619999,-4.68
1554115551267,6.4094739999999994,4.946572,5.525986,-0.0032015448,0.003926031,-0.02030455,-32.7,22.38,-4.5
1554115551288,6.387925,4.9609375,5.5164089999999995,-0.0032015448,0.00148257,-0.019693686000000002,-32.04,22.439999,-4.5
1554115551307,6.3831367,4.9944572,5.5092263,-0.0013689491,-0.0021826214999999998,-0.018471954,-31.199999,22.32,-4.62
1554115551327,6.332856700000001,5.0184,5.525986,0.0047397036,-0.0021826214999999998,-0.019082818,-31.859999,22.68,-5.16
1554115551348,6.2514515,5.0088230000000005,5.537957700000001,0.008404895,-0.0052369474,-0.013585033,-32.579997999999996,22.92,-4.7999997
1554115551367,6.275394400000001,5.0327660000000005,5.537957700000001,0.0077940295,-0.009513005,-0.010530706499999999,-32.52,22.859999,-4.68
1554115551387,6.2777886,5.0375543,5.549929,0.0047397036,-0.0046260823,-0.005643784000000001,-32.7,23.1,-5.22
1554115551407,6.2945485,5.025583,5.6241517,0.005350569,-0.0113456,0.0016865989000000002,-32.52,22.92,-5.04
1554115551428,6.332856700000001,4.992063,5.6002088,0.0077940295,-0.029060692000000003,0.0047409255,-32.219997,22.98,-5.04
1554115551447,6.361587999999999,5.006428700000001,5.521198,0.010237491,-0.0394454,0.0035191946999999996,-32.46,22.859999,-5.3399997
1554115551467,6.399896599999999,5.0184,5.461341,0.0022962423999999997,-0.04738665,-0.0013677273,-32.16,22.68,-5.7599998
1554115551488,6.4190507000000006,5.0040345,5.4661292999999995,-0.0025906793,-0.048608378,0.002297464,-32.34,22.68,-5.7
1554115551507,6.440599400000001,5.020794400000001,5.4565525,-0.0019798144,-0.04311059,0.0047409255,-32.82,22.56,-5.22
1554115551527,6.471725,4.972909,5.4517636,-0.006255870699999999,-0.03700194,0.002297464,-31.98,22.619999,-5.04
1554115551548,6.459753500000001,4.948966,5.502043700000001,-0.006255870699999999,-0.04249973,-0.00075686205,-32.04,22.68,-4.7999997
1554115551567,6.464542,4.95136,5.4900723,0.005961434,-0.049219247,-0.0068655144,-32.46,22.32,-5.16
1554115551587,6.4980617,4.9441776,5.4589467,0.00901576,-0.048608378,-0.008087245,-32.82,22.14,-5.52
1554115551607,6.4908790000000005,4.936994599999999,5.305713,-0.0007580837700000001,-0.03272588,-0.017250223000000002,-32.64,22.92,-4.8599997
1554115551627,6.471725,4.9585433,5.2075477,-0.026414424,-0.0009608910000000001,-0.023358876,-32.52,23.34,-4.5
1554115551647,6.4453879999999995,5.0160055,5.296136,-0.04657298,0.02591718,-0.020915415,-32.7,22.8,-4.7999997
1554115551667,6.426234,5.0614967,5.446975,-0.03863173,0.032025833,-0.01663936,-32.46,22.26,-4.62
1554115551687,6.404685,4.996851400000001,5.4230323,-0.040464327,0.033247564,-0.010530706499999999,-32.52,22.26,-5.04
1554115551707,6.3711652999999995,5.00164,5.463735,-0.050238165999999994,0.04424314,-0.012363302,-32.34,22.92,-5.52
1554115551727,6.320885700000001,4.989669,5.607392,-0.047794707,0.041188814,-0.012363302,-32.28,22.8,-5.04
1554115551748,6.2777886,5.0040345,5.705557,-0.033133943,0.017365066000000002,-0.004422053,-32.52,22.14,-5.22
1554115551767,6.2346916,5.0375543,5.643306,-0.017251445,-0.00890214,0.0059626554,-33.3,22.56,-5.58
1554115551787,6.30652,5.035159999999999,5.4924664000000005,-0.0123645235,-0.015010792,0.0047409255,-33.54,22.92,-5.04
1554115551807,6.28976,4.9944572,5.4757066,-0.014197119,0.0075912224,0.0059626554,-32.82,22.92,-4.2599998
1554115551827,6.3567995999999996,4.9537544,5.643306,0.001074512,0.010645548999999999,0.011460442,-32.88,22.98,-4.44
1554115551847,6.387925,4.948966,5.5164089999999995,0.012070087,-0.01012387,0.016958231,-32.219997,23.22,-4.62
1554115551868,6.471725,4.948966,5.3583870000000005,0.004128838,-0.019897711999999998,0.009016982,-31.92,23.039998999999998,-4.38
1554115551887,6.5196104,4.879532,5.4493694,-0.013586253999999999,0.0069803569999999995,0.0016865989000000002,-32.7,22.38,-4.38
1554115551907,6.452570400000001,4.9274178,5.5978145999999995,-0.006255870699999999,0.018586798,0.0010757337,-32.34,22.38,-4.92
1554115551928,6.438205,4.9992456,5.5451403,0.015735278000000002,0.0008717047,0.007795251400000001,-31.98,22.439999,-5.1
1554115551947,6.4693303,5.00164,5.3799353,0.014513547,-0.0070695435,0.009016982,-32.52,22.439999,-5.22
1554115551967,6.4334164000000005,4.9609375,5.31529,0.0016853772,0.011256413500000001,0.00413006,-33.12,22.56,-5.58
1554115551988,6.442993599999999,4.9202347,5.36557,-0.020916637,0.051573522000000004,-0.004422053,-32.7,22.38,-4.98
1554115552007,6.3376455,4.948966,5.5355635,-0.03741,0.06562342,-0.005032919,-32.34,22.26,-5.1
1554115552027,6.30652,5.0375543,5.643306,-0.041686054,0.048519194,0.00535179,-32.219997,22.56,-5.22
1554115552047,6.273,5.020794400000001,5.626546,-0.026414424,0.036912754,0.021845153,-32.46,22.619999,-4.8599997
1554115552068,6.3137026,4.9992456,5.518803599999999,-0.011753658,0.032025833,0.02734294,-32.579997999999996,22.56,-4.7999997
1554115552087,6.3927135,4.946572,5.5307746,-0.0019798144,0.03385843,0.026732073999999998,-32.16,22.619999,-4.68
1554115552107,6.3903193,4.867561,5.5355635,0.0035179729999999998,0.02591718,0.020623421,-32.16,22.74,-4.68
1554115552127,6.3951080000000005,4.846012,5.554717500000001,0.007183165,0.02469545,0.006573521,-31.679997999999998,22.92,-4.5
1554115552148,6.347222299999999,4.8340406,5.7103453,0.008404895,0.027749775,-0.0038111883,-32.399998,22.92,-4.14
1554115552167,6.296942700000001,4.843618,5.7558365,0.0077940295,0.024084583,-0.008087245,-32.399998,22.5,-4.2
1554115552188,6.273,4.936994599999999,5.7390766,0.012070087,0.0027043005,-0.0038111883,-31.92,22.199999,-4.56
1554115552207,6.275394400000001,5.0495257,5.578660500000001,0.015124412,-0.022952039,-0.00075686205,-32.64,21.84,-4.2
1554115552227,6.3232800000000005,5.071073999999999,5.518803599999999,0.006572299,-0.02417377,0.008406117,-32.94,22.32,-4.2
1554115552247,6.4549650000000005,5.0040345,5.4493694,0.001074512,-0.015010792,0.013293038,-32.1,22.619999,-4.5
1554115552267,6.5028505,4.9705143,5.401484,-0.011142793,-0.008291274,0.006573521,-31.859999,22.92,-4.3199997
1554115552287,6.5124273,4.9178405,5.384723999999999,-0.012975388000000001,0.00026083947,0.0029083295,-31.619999,22.8,-2.52
1554115552308,6.5052447,4.886715000000001,5.3631754,-0.014807984,0.013699875,-0.00014599678999999998,-30.9,22.14,-0.24
1554115552327,6.5028505,4.886715000000001,5.403878,-0.016029714,0.03752362,-0.0019785925,-30.3,22.02,-0.29999998
1554115552347,6.5052447,4.8938975,5.549929,-0.014807984,0.058903903,0.0010757337,-30.42,21.539998999999998,-0.24
1554115552367,6.464542,4.843618,5.6002088,-0.014807984,0.054016978,-0.0038111883,-31.439999,21.84,0.24
1554115552387,6.347222299999999,4.8172809999999995,5.6457,-0.013586253999999999,0.047297463,-0.009308975,-31.74,22.8,-0.12
1554115552407,6.244269,4.8268580000000005,5.686403,-0.010531928000000001,0.041188814,-0.019082818,-31.859999,23.039998999999998,-3.0
1554115552427,6.1101894,4.9393888,5.774991,-0.0044232756,0.028971506,-0.020915415,-32.7,22.56,-5.58
1554115552447,6.057515,5.0327660000000005,5.7917510000000005,0.0029071076,0.01308901,-0.009308975,-32.7,22.619999,-5.1
1554115552467,6.124555,5.0567082999999995,5.7630196,0.006572299,-0.0034043519,-0.0013677273,-32.34,22.619999,-4.2599998
1554115552487,6.2131433,5.030371,5.674431299999999,0.0035179729999999998,-0.011956465,0.006573521,-32.399998,22.08,-4.56
1554115552507,6.2945485,4.9705143,5.602603,-0.0007580837700000001,-0.016232522,0.00535179,-32.28,22.26,-4.68
1554115552528,6.3807425,4.9393888,5.5882373,0.0047397036,-0.022341175,0.0071843863,-32.52,22.5,-3.8999998999999996
1554115552547,6.447782,4.8891089999999995,5.514014700000001,0.008404895,-0.016232522,0.012071308000000001,-31.74,21.0,-2.22
1554115552567,6.507639,4.860378,5.502043700000001,0.015124412,-0.0052369474,0.012071308000000001,-30.539998999999998,21.0,-1.8
1554115552588,6.510033,4.9178405,5.4062724,0.018178739,0.0075912224,0.016958231,-31.74,22.5,-3.4199998
1554115552607,6.5004563,4.908263,5.3631754,0.012680951999999999,0.024084583,0.013293038,-32.1,22.5,-4.44
1554115552627,6.459753500000001,4.8579836,5.502043700000001,0.0029071076,0.035080157,0.0071843863,-32.219997,22.5,-4.8599997
1554115552648,6.4166565,4.8819265,5.5307746,0.00046364672,0.05035179,-0.0032003229999999997,-32.28,22.32,-5.04
1554115552667,6.3304625,4.8843207,5.6552773,-0.005034141,0.058293037,-0.012974167,-31.92,22.98,-4.92
1554115552687,6.273,4.9106574,5.7318940000000005,-0.0068667363,0.04424314,-0.017250223000000002,-31.619999,23.1,-5.22
1554115552707,6.182017299999999,5.0088230000000005,5.7917510000000005,-0.008088467,0.021030258,-0.012974167,-31.98,22.68,-5.2799997
1554115552727,6.201172,5.035159999999999,5.7103453,0.0016853772,0.0075912224,-0.004422053,-32.34,22.8,-4.8599997
1554115552747,6.1987777,4.996851400000001,5.643306,-0.0019798144,0.00148257,0.0029083295,-32.64,22.8,-4.8599997
1554115552767,6.2179317,4.989669,5.6241517,-0.0044232756,0.00026083947,0.0035191946999999996,-32.46,22.98,-5.3399997
1554115552787,6.2322974,4.989669,5.66246,-0.008699331999999999,-0.0052369474,0.008406117,-32.34,22.32,-5.2799997
1554115552808,6.2921543,4.9800916,5.6552773,-0.014197119,-0.011956465,0.0157365,-32.34,22.5,-4.98
1554115552827,6.344828,4.9106574,5.6169686,-0.020916637,-0.014399926,0.014514768999999999,-31.74,22.439999,-4.68
1554115552847,6.4621477,4.8412237000000005,5.5523233,-0.035577405,-0.0046260823,0.0071843863,-31.679997999999998,22.38,-5.3399997
1554115552867,6.478907599999999,4.810098,5.583449,-0.036799133,-0.0021826214999999998,-0.006254649300000001,-32.28,22.74,-5.46
1554115552888,6.426234,4.8747435,5.5523233,-0.032523073,-0.005847813,-0.011141571000000001,-32.399998,23.1,-4.8599997
1554115552907,6.3544054,4.98488,5.554717500000001,-0.034966536,-0.005847813,-0.0068655144,-32.1,22.92,-5.4
1554115552927,6.201172,5.0998054,5.4326096,-0.04229692,0.014921605,0.010849578,-31.98,22.74,-6.0
1554115552947,6.2873654000000005,5.0231886,5.6361227,-0.041686054,0.03752362,0.027953804,-32.04,22.26,-5.8799996
1554115552967,6.191594599999999,4.8843207,5.830058999999999,-0.019084042,0.040577944,0.046890628,-32.52,22.439999,-4.98
1554115552987,6.344828,4.8316464,5.748654,0.018178739,0.008202087,0.045668895999999994,-31.92,22.56,-5.16
1554115553008,6.361587999999999,4.819675,5.652883,0.02184393,-0.0040152175,0.025510342999999998,-32.04,22.8,-5.4
1554115553027,6.402291,4.7693954000000005,5.6241517,0.00901576,0.0027043005,0.007795251400000001,-32.399998,23.46,-5.8199997
1554115553047,6.385530999999999,4.764607,5.7654138,0.0035179729999999998,0.008202087,-0.00075686205,-32.52,23.279999,-6.0
1554115553068,6.3544054,4.7957325,5.8611846,0.014513547,-0.00890214,-0.008087245,-32.28,23.16,-5.8799996
1554115553087,6.30652,4.932206,5.7318940000000005,0.026119987999999997,-0.03272588,-0.0025894577,-32.1,22.68,-5.1
1554115553107,6.284971,5.0184,5.5307746,0.027341716000000002,-0.030893288999999997,0.0071843863,-31.8,22.26,-5.1
1554115553127,6.3232800000000005,5.025583,5.4134555,0.017567873,-0.010734734,0.016347364,-31.679997999999998,22.68,-4.92
1554115553147,6.368771,4.9609375,5.4948606,0.0035179729999999998,0.005147761,0.018790823999999998,-31.199999,22.98,-4.92
1554115553167,6.4142623,4.8723493,5.578660500000001,-0.0056450055,0.01308901,0.016347364,-31.56,22.98,-4.98
1554115553187,6.4621477,4.8148865999999995,5.549929,-0.009310197,0.016143335,0.010238713,-31.019999,22.92,-4.38
1554115553207,6.447782,4.757423999999999,5.585843,-0.009310197,0.024084583,0.00046486847000000003,-30.72,22.619999,-4.44
1554115553227,6.3927135,4.771789599999999,5.6385174000000005,-0.0044232756,0.024084583,-0.012363302,-31.679997999999998,22.74,-5.04
1554115553247,6.347222299999999,4.819675,5.693585400000001,-0.0013689491,0.022251987999999997,-0.015417628000000001,-31.439999,22.98,-5.58
1554115553268,6.318491000000001,4.8819265,5.7534423,-0.0056450055,0.014310741,-0.011752437,-31.679997999999998,22.859999,-5.46
1554115553288,6.265817,4.95136,5.727105,0.005961434,-0.0064586782999999995,-0.0086981105,-31.619999,23.4,-5.2799997
1554115553307,6.244269,5.0088230000000005,5.695979599999999,0.015124412,-0.015010792,-0.0032003229999999997,-31.679997999999998,23.16,-5.58
1554115553327,6.265817,4.9944572,5.621757,0.017567873,-0.0113456,0.0071843863,-31.92,22.859999,-5.7599998
1554115553347,6.296942700000001,4.9705143,5.559506,0.005961434,-0.005847813,0.010238713,-32.219997,22.56,-6.42
1554115553368,6.3376455,4.8843207,5.602603,-0.005034141,-0.0009608910000000001,0.010238713,-32.34,22.26,-5.94
1554115553387,6.3711652999999995,4.829252200000001,5.6457,-0.0044232756,-0.0015717562,0.0071843863,-32.219997,22.56,-5.58
1554115553407,6.411868,4.7933383,5.607392,0.007183165,0.0008717047,0.0035191946999999996,-32.579997999999996,22.98,-5.94
1554115553427,6.4166565,4.819675,5.62894,0.012680951999999999,0.003926031,0.002297464,-32.34,22.56,-6.12
1554115553448,6.385530999999999,4.8364353,5.6313343,0.019400468,-0.0034043519,0.0010757337,-31.74,22.439999,-5.3399997
1554115553467,6.318491000000001,4.925023,5.652883,0.02306566,-0.0064586782999999995,0.006573521,-31.8,22.5,-4.74
1554115553487,6.2538457,4.9393888,5.6792197,0.029174312999999997,-0.0064586782999999995,0.008406117,-32.399998,22.859999,-5.1
1554115553507,6.275394400000001,4.948966,5.66246,0.033450373,-0.009513005,0.013903904,-32.579997999999996,22.98,-5.52
1554115553528,6.299337,4.925023,5.640911599999999,0.029785179,-0.007680409,0.013293038,-32.219997,22.26,-5.58
1554115553547,6.3137026,4.9202347,5.626546,0.023676526,-0.009513005,0.012682173,-31.92,22.08,-5.52
1554115553567,6.3544054,4.891503299999999,5.640911599999999,0.019400468,-0.01806512,0.010849578,-31.98,22.619999,-5.7599998
1554115553588,6.366377,4.8723493,5.621757,0.018178739,-0.024784636000000002,0.00535179,-32.04,22.98,-5.4
1554115553607,6.411868,4.869955,5.609786,0.015735278000000002,-0.02661723,0.0035191946999999996,-32.1,23.22,-5.22
1554115553627,6.442993599999999,4.8579836,5.5523233,0.015735278000000002,-0.02661723,0.0016865989000000002,-31.92,23.16,-5.64
1554115553648,6.447782,4.9130519999999995,5.5116205,0.015124412,-0.019897711999999998,-0.00747638,-31.019999,23.34,-5.8799996
1554115553667,6.4094739999999994,4.9202347,5.4757066,0.00901576,-0.008291274,-0.0038111883,-31.199999,23.46,-5.8199997
1554115553687,6.385530999999999,4.936994599999999,5.5044379999999995,0.0035179729999999998,0.0057586264,-0.0013677273,-32.04,22.859999,-5.7599998
1554115553707,6.3951080000000005,4.9274178,5.569083,0.004128838,0.008812953,0.0071843863,-31.74,22.859999,-5.7599998
1554115553728,6.3831367,4.886715000000001,5.604997,0.0047397036,0.011256413500000001,0.0059626554,-31.98,23.16,-5.4
1554115553747,6.3400397,4.903475,5.6145744,-0.00014721852,0.0069803569999999995,0.0029083295,-32.28,23.279999,-5.22
1554115553767,6.282577,4.8723493,5.648094,-0.0025906793,0.0069803569999999995,0.00046486847000000003,-31.92,23.519999,-5.64
1554115553788,6.2921543,4.915446299999999,5.681614,0.004128838,-0.0027934870000000003,-0.0032003229999999997,-31.859999,23.699999,-5.7
1554115553807,6.284971,4.9106574,5.6672482,0.008404895,-0.0064586782999999995,-0.0025894577,-31.859999,23.34,-5.58
1554115553827,6.3137026,4.9393888,5.6504884,0.009626625,-0.015010792,-0.00014599678999999998,-32.1,23.279999,-5.58
1554115553847,6.3400397,4.922629,5.648094,0.00901576,-0.028449827999999996,0.002297464,-32.04,23.279999,-5.7599998
1554115553867,6.3759537,4.9346004,5.609786,0.017567873,-0.04249973,0.0047409255,-31.92,23.519999,-5.58
1554115553887,6.387925,4.9346004,5.566689,0.015735278000000002,-0.041888863,0.0071843863,-31.38,23.64,-4.8599997
1554115553908,6.464542,4.905869,5.554717500000001,0.018789603999999998,-0.044332325,0.002297464,-31.619999,22.859999,-5.22
1554115553927,6.5028505,4.8747435,5.5164089999999995,0.015124412,-0.03455848,-0.0019785925,-31.74,22.26,-6.18
1554115553947,6.5220046,4.8555894,5.525986,0.009626625,-0.03578021,-0.009308975,-31.8,22.74,-5.94
1554115553968,6.507639,4.843618,5.4733124,0.008404895,-0.037612803,-0.01786109,-32.16,23.699999,-5.52
1554115553987,6.4813019999999995,4.8627720000000005,5.463735,0.0029071076,-0.031504154,-0.023358876,-32.1,23.16,-5.58
1554115554007,6.4621477,4.886715000000001,5.5044379999999995,0.0035179729999999998,-0.021119443999999998,-0.030078393999999998,-31.679997999999998,22.439999,-6.12
1554115554027,6.4190507000000006,4.915446299999999,5.547535,0.011459221,-0.0156216575,-0.03313272,-31.5,22.26,-6.18
1554115554048,6.3831367,4.9705143,5.5451403,0.015735278000000002,-0.01806512,-0.029467529,-31.679997999999998,22.38,-5.4
1554115554068,6.3544054,4.996851400000001,5.559506,0.015735278000000002,-0.019897711999999998,-0.025191471,-31.92,22.199999,-4.92
1554115554087,6.320885700000001,4.9992456,5.5283804000000005,0.018789603999999998,-0.01806512,-0.022137146,-32.219997,22.32,-5.46
1554115554107,6.366377,4.9992456,5.461341,0.015124412,-0.013789061000000002,-0.01786109,-32.1,22.98,-5.16
1554115554128,6.3376455,4.98488,5.339233,-0.013586253999999999,0.011256413500000001,-0.021526279,-33.0,23.46,-5.16
1554115554147,6.299337,5.0088230000000005,5.4134555,-0.034966536,0.02958237,-0.016028494,-32.94,23.519999,-5.4
1554115554167,6.3280683,5.042342700000001,5.4948606,-0.03863173,0.050962653,-0.005643784000000001,-32.399998,23.16,-5.94
1554115554188,6.3759537,5.0136113,5.525986,-0.045351245,0.06134736,-0.004422053,-32.1,22.439999,-5.52
1554115554207,6.4334164000000005,4.989669,5.578660500000001,-0.06062288,0.06501256,-0.004422053,-31.8,22.199999,-5.22
1554115554228,6.4549650000000005,4.8723493,5.640911599999999,-0.07039672,0.060125634000000004,-0.01663936,-32.1,22.92,-4.8599997
1554115554247,6.5028505,4.7909440000000005,5.6600657,-0.05756855,0.04241054,-0.030078393999999998,-32.64,22.8,-5.4
1554115554267,6.4693303,4.7789725999999995,5.686403,-0.028247021,0.02041939,-0.038019642,-32.52,22.8,-5.4
1554115554287,6.3400397,4.8891089999999995,5.695979599999999,-0.0019798144,-0.0034043519,-0.032521855,-32.16,22.8,-5.04
1554115554307,6.205960299999999,5.0399485,5.6457,0.012680951999999999,-0.01256733,-0.012974167,-31.92,22.619999,-4.74
1554115554327,6.1987777,5.042342700000001,5.5355635,0.01695701,-0.01012387,0.00413006,-32.46,23.1,-4.7999997
1554115554348,6.2346916,4.946572,5.576266,0.008404895,0.0008717047,0.009627847,-31.679997999999998,22.68,-4.38
1554115554367,6.2682114,4.9585433,5.6385174000000005,0.0035179729999999998,-0.00035002577,0.010849578,-31.619999,22.32,-4.38
1554115554387,6.3280683,4.9561486,5.688797,0.005961434,-0.011956465,0.012682173,-31.439999,22.74,-4.92
1554115554407,6.368771,4.9561486,5.609786,0.008404895,-0.017454252,0.012071308000000001,-31.92,23.4,-3.72
1554115554427,6.3975024000000005,4.896292,5.5619005999999995,0.0077940295,-0.009513005,0.009016982,-31.92,22.92,-3.3
1554115554447,6.440599400000001,4.8172809999999995,5.5283804000000005,0.005961434,0.00026083947,0.0059626554,-31.98,23.039998999999998,-4.3199997
1554115554467,6.4142623,4.788549400000001,5.4757066,0.007183165,0.011256413500000001,-0.004422053,-32.399998,22.68,-5.2799997
1554115554487,6.349616999999999,4.8412237000000005,5.521198,0.017567873,0.013699875,-0.011752437,-32.399998,22.74,-5.4
1554115554507,6.30652,4.932206,5.569083,0.02550912,0.01553247,-0.008087245,-32.34,22.92,-5.22
1554115554528,6.2921543,5.00164,5.607392,0.0206222,0.009423818,-0.005643784000000001,-32.399998,23.22,-5.04
1554115554547,6.275394400000001,5.047130999999999,5.691191000000001,0.015735278000000002,0.00148257,-0.00075686205,-32.399998,23.34,-5.4
1554115554567,6.311308400000001,5.006428700000001,5.674431299999999,0.008404895,-0.011956465,0.006573521,-32.94,23.16,-5.64
1554115554588,6.3232800000000005,5.00164,5.6241517,0.0016853772,-0.01806512,0.007795251400000001,-32.46,22.38,-5.4
1554115554607,6.3137026,5.006428700000001,5.569083,0.0029071076,-0.018675983,0.010238713,-32.16,22.68,-5.16
1554115554628,6.299337,4.9633317,5.502043700000001,0.0029071076,-0.017454252,0.016347364,-32.1,22.14,-4.8599997
1554115554647,6.368771,4.9417834,5.6002088,-0.0044232756,-0.019286849,0.021845153,-32.1,21.96,-4.92
1554115554667,6.426234,4.908263,5.6361227,0.001074512,-0.027838962000000002,0.021845153,-32.16,22.32,-4.92
1554115554687,6.4932733,4.879532,5.4589467,0.0077940295,-0.02417377,0.016347364,-31.859999,22.32,-4.62
1554115554707,6.569889999999999,4.9202347,5.310501599999999,-0.0007580837700000001,-0.009513005,0.0010757337,-31.98,22.14,-4.98
1554115554727,6.5124273,4.860378,5.3368387,-0.023970962999999998,0.019197661,-0.0038111883,-32.219997,22.439999,-5.52
1554115554748,6.440599400000001,4.8819265,5.5882373,-0.023970962999999998,0.033247564,-0.0086981105,-32.34,22.56,-5.64
1554115554767,6.28976,4.901080599999999,5.7175283,-0.011142793,0.030804101,0.0016865989000000002,-32.34,22.68,-5.64
1554115554787,6.296942700000001,4.9992456,5.6457,0.012070087,0.0069803569999999995,0.00535179,-32.46,22.439999,-6.12
1554115554808,6.320885700000001,5.0447370000000005,5.571477400000001,0.012070087,0.008202087,0.013293038,-32.52,22.5,-6.06
1554115554827,6.318491000000001,4.9393888,5.559506,-0.0032015448,0.016754203,0.010849578,-31.98,22.5,-4.8599997
1554115554847,6.3232800000000005,4.867561,5.7223167,-0.010531928000000001,0.008202087,0.012071308000000001,-32.16,22.8,-4.98
1554115554868,6.273,4.903475,5.7558365,-0.0007580837700000001,-0.010734734,0.012682173,-32.34,22.56,-5.04
1554115554887,6.2682114,4.9417834,5.607392,0.020011336,-0.02173031,0.014514768999999999,-31.92,21.84,-5.3399997
1554115554908,6.28976,4.9537544,5.482889,0.021233065,-0.01012387,0.012682173,-32.219997,22.14,-5.04
1554115554927,6.347222299999999,4.975303,5.4685235,0.014513547,-0.0040152175,0.01817996,-32.04,23.039998999999998,-4.92
1554115554947,6.4166565,4.946572,5.585843,0.011459221,-0.0046260823,0.024288611,-31.439999,23.16,-5.3399997
1554115554967,6.4549650000000005,4.915446299999999,5.6002088,0.020011336,-0.01256733,0.029786400000000005,-31.439999,23.58,-5.46
1554115554987,6.5028505,4.843618,5.578660500000001,0.031006908,-0.016232522,0.023066884,-31.56,23.519999,-5.7599998
1554115555007,6.5124273,4.8316464,5.542746,0.03894816,-0.010734734,0.013293038,-32.82,22.98,-5.4
1554115555027,6.5004563,4.8268580000000005,5.4804949999999995,0.03894816,-0.01012387,0.0071843863,-32.34,22.74,-6.06
1554115555048,6.495667500000001,4.9130519999999995,5.401484,0.031617776,-0.014399926,-0.0086981105,-31.859999,23.34,-5.94
1554115555067,6.4980617,4.925023,5.4110613,0.015124412,-0.00890214,-0.011141571000000001,-32.399998,23.519999,-5.4
1554115555087,6.483696,4.9130519999999995,5.4254265,-0.009921063,0.019197661,-0.016028494,-32.04,23.1,-5.8199997
1554115555108,6.4334164000000005,4.8579836,5.6002088,-0.022749234,0.041188814,-0.024580607,-32.16,22.8,-6.06
1554115555127,6.368771,4.905869,5.6600657,-0.010531928000000001,0.017975932,-0.027024066,-32.52,22.68,-5.7
1554115555147,6.3280683,5.0088230000000005,5.547535,-0.005034141,-0.011956465,-0.027024066,-32.399998,22.92,-5.2799997
1554115555168,6.2945485,5.073468,5.523592,-0.008699331999999999,-0.01012387,-0.017250223000000002,-31.98,22.74,-5.58
1554115555187,6.2921543,5.0184,5.549929,-0.0056450055,0.0057586264,-0.008087245,-31.92,22.859999,-5.8199997
1554115555207,6.349616999999999,4.9609375,5.6313343,0.006572299,0.00148257,-0.005032919,-32.64,22.859999,-5.46
1554115555228,6.3376455,4.929812,5.571477400000001,0.005350569,-0.01256733,-0.004422053,-32.28,22.859999,-5.58
1554115555247,6.361587999999999,4.9393888,5.559506,-0.0019798144,-0.016843388,-0.005643784000000001,-32.04,23.039998999999998,-5.4
1554115555267,6.3903193,4.925023,5.549929,-0.0013689491,-0.0040152175,-0.0068655144,-32.1,23.4,-4.8599997
1554115555288,6.3975024000000005,4.946572,5.502043700000001,-0.0044232756,0.0020934353,-0.014195896999999999,-32.34,23.46,-4.74
1554115555307,6.368771,4.95136,5.559506,-0.011142793,-0.0009608910000000001,-0.01786109,-32.28,23.64,-5.52
1554115555327,6.3759537,4.929812,5.648094,-0.011753658,-0.011956465,-0.016028494,-32.399998,23.16,-6.06
1554115555348,6.4094739999999994,4.915446299999999,5.6145744,0.0029071076,-0.01806512,-0.01663936,-32.219997,22.8,-5.8199997
1554115555367,6.4453879999999995,4.925023,5.499649,0.0077940295,-0.013789061000000002,-0.024580607,-31.98,22.92,-5.2799997
1554115555387,6.378348,5.0160055,5.4302154,0.0029071076,-0.018675983,-0.030078393999999998,-32.219997,22.68,-5.4
1554115555407,6.3352512999999995,5.073468,5.384723999999999,-0.0123645235,-0.0064586782999999995,-0.020915415,-32.04,22.619999,-5.4
1554115555428,6.308914,5.0638914,5.39909,-0.025803559,0.0069803569999999995,-0.011752437,-33.0,22.74,-5.58
1554115555447,6.332856700000001,5.0088230000000005,5.4757066,-0.02702529,0.027749775,0.00046486847000000003,-32.579997999999996,22.98,-6.06
