TimeStamp,Ax,Ay,Az,Gx,Gy,Gz,Mx,My,Mz
1554101343460,4.9106574,1.673598,8.432636,-0.031890832,0.023478605,-0.029267777000000002,22.5,9.54,-32.94
1554101343480,4.8986864,1.7071179,8.379961999999999,-0.017230064,0.011261301000000001,-0.024991719,22.74,9.24,-33.239998
1554101343501,4.865166,1.6424724999999998,8.320105,-0.0031801646000000003,0.0033200525,-0.012774414,21.84,9.66,-33.239998
1554101343520,4.8627720000000005,1.5562786,8.310528,0.005371949,-0.011340713,-0.013996145,21.96,10.019999499999999,-31.619999
1554101343540,4.8627720000000005,1.5874043,8.269825,-0.0025692992000000002,-0.038218785,-0.01582874,22.68,9.599999,-30.72
1554101343560,4.9178405,1.647261,8.272219999999999,-0.004401895,-0.04249484,-0.0146070095,22.5,9.84,-30.96
1554101343580,4.948966,1.6927522000000002,8.2387,0.0047610835,-0.033331863999999996,-0.0146070095,22.56,9.599999,-30.24
1554101343601,4.975303,1.6807808999999998,8.195602000000001,-0.006234491,-0.026612345,-0.013996145,22.74,9.24,-31.199999
1554101343620,4.965726,1.6855695,8.219545,-0.014786603999999998,-0.020503692,-0.01582874,21.9,9.36,-32.82
1554101343640,5.0040345,1.647261,8.20518,-0.017840931,-0.0064537909999999995,-0.0146070095,21.539998999999998,9.179999,-31.14
1554101343660,5.027977,1.637684,8.171659,-0.013564873500000001,0.0033200525,-0.016439606000000002,21.96,9.24,-29.34
1554101343680,5.106987999999999,1.6520496999999998,8.140533999999999,-0.01906266,0.00026572638,-0.013996145,21.779999,9.42,-29.46
1554101343700,5.1021996,1.6999351000000003,8.226728,-0.01906266,-0.003399465,-0.0146070095,21.72,9.36,-30.24
1554101343720,5.078257,1.7262721,8.2578535,-0.0031801646000000003,0.0069852443,-0.002389705,22.32,9.3,-31.019999
1554101343741,5.0614967,1.7071179,8.22194,0.005371949,0.011261301000000001,0.006773274,22.92,9.12,-30.9
1554101343760,5.0591025,1.6281068,8.22194,0.010258871,0.012483031499999998,0.011049331,23.34,9.84,-30.3
1554101343780,5.05192,1.6328955,8.262642,0.010869736000000001,0.0063743787,0.0086058695,22.14,10.559999000000001,-31.439999
1554101343801,5.0399485,1.6592325,8.233911500000001,0.015145793000000001,0.0008765916,0.0049406779999999996,21.119999,10.98,-32.28
1554101343820,5.0184,1.6688095,8.217151,0.009648005500000001,0.009428705,0.0018863518,22.08,10.74,-32.579997999999996
1554101343840,4.9776974,1.6831752,8.226728,0.0023176228,0.017369954,-0.00300057,22.98,10.62,-31.439999
1554101343860,4.886715000000001,1.6664151999999999,8.279403,0.0041502183,0.022867741,-0.002389705,22.619999,10.38,-30.779999
1554101343881,4.8627720000000005,1.6496553,8.303345,0.0065936795,0.02164601,-0.00300057,22.5,10.26,-32.34
1554101343900,4.901080599999999,1.6233183,8.296163,0.00781541,0.016759088000000002,-0.0066657616,22.38,10.139999000000001,-32.88
1554101343920,4.922629,1.6161355,8.253065,0.00781541,0.0069852443,-0.013996145,21.6,10.44,-32.34
1554101343940,4.9561486,1.6592325,8.262642,0.00048502699999999996,-0.007064656999999999,-0.012774414,21.6,11.219999000000001,-32.16
1554101343961,4.9346004,1.7095122,8.267431,-0.0013475687,-0.01561677,-0.018272201999999998,22.56,11.099999,-32.94
1554101343980,4.929812,1.6999351000000003,8.2578535,0.0010958922,-0.011951578000000001,-0.011552683999999999,22.619999,10.38,-32.46
1554101344000,4.975303,1.7166951000000001,8.243488000000001,0.002928488,-0.0040103304,-0.0048331656,22.5,10.38,-32.04
1554101344021,4.965726,1.673598,8.241094,0.002928488,-0.005842926,-0.0060548964,22.5,11.219999000000001,-32.46
1554101344040,4.9417834,1.6496553,8.229122,0.0017067576000000001,-0.009508118000000001,-0.0060548964,22.619999,11.099999,-32.28
1554101344060,4.965726,1.6688095,8.214757,0.0035393531,-0.0064537909999999995,-0.0011679743,23.16,10.8,-31.439999
1554101344080,5.011217,1.6975409,8.183631,0.0035393531,0.0069852443,0.0012754864999999999,23.4,10.2,-30.359999
1554101344101,5.05192,1.7143008000000002,8.207574000000001,0.009037141,0.013704761999999999,0.006773274,23.34,9.42,-29.76
1554101344120,5.0495257,1.7143008000000002,8.207574000000001,0.0059828144,0.013093897,0.004329813,23.039998999999998,10.019999499999999,-29.34
1554101344140,5.05192,1.6999351000000003,8.188419999999999,0.0035393531,0.016759088000000002,0.006773274,22.859999,10.019999499999999,-29.939999
1554101344160,5.030371,1.6688095,8.214757,0.0023176228,0.016148223,0.005551543000000001,22.8,10.44,-30.779999
1554101344181,5.020794400000001,1.6903580000000002,8.243488000000001,0.002928488,0.019202549,0.0012754864999999999,22.439999,11.28,-32.16
1554101344200,4.9776974,1.6807808999999998,8.260247999999999,0.0041502183,0.017369954,0.0037189478,21.779999,10.38,-32.52
1554101344220,4.9585433,1.6903580000000002,8.260247999999999,0.0010958922,0.018591685,0.0061624087,21.539998999999998,9.84,-31.679997999999998
1554101344241,4.9178405,1.6568381999999997,8.260247999999999,0.0035393531,0.013093897,0.0049406779999999996,22.32,10.2,-30.72
1554101344260,4.8986864,1.6424724999999998,8.250671,0.0023176228,0.011872166000000002,0.004329813,23.4,10.139999000000001,-29.82
1554101344280,4.8891089999999995,1.673598,8.296163,-0.00501276,0.0063743787,-0.0011679743,22.859999,9.84,-30.84
1554101344300,4.8747435,1.6855695,8.332075999999999,-0.0037910298,0.0051526483,-0.0060548964,21.9,10.019999499999999,-31.619999
1554101344321,4.896292,1.6831752,8.300951,-0.0025692992000000002,0.004541783,-0.0036114353999999998,22.02,10.08,-31.92
1554101344340,4.8986864,1.6664151999999999,8.265037,-0.006234491,-0.0021777346,-0.007276627,22.02,10.08,-32.46
1554101344360,4.896292,1.664021,8.255460000000001,-0.010510548,-0.0040103304,-0.008498357,21.66,9.96,-31.38
1554101344380,4.915446299999999,1.6592325,8.265037,-0.011121413,-0.008897252,-0.010330953,22.02,10.08,-31.32
1554101344400,4.9274178,1.6664151999999999,8.255460000000001,-0.010510548,-0.010118983,-0.0042223004,22.56,10.5,-31.679997999999998
1554101344420,4.965726,1.673598,8.279403,-0.0037910298,-0.0040103304,-0.0048331656,22.14,10.2,-32.219997
1554101344440,4.989669,1.6592325,8.269825,-0.0025692992000000002,-0.0064537909999999995,-0.00300057,21.96,10.08,-32.28
1554101344461,5.0160055,1.673598,8.253065,-0.0025692992000000002,-0.009508118000000001,-0.005444030999999999,22.56,10.139999000000001,-30.72
1554101344480,4.98488,1.6712039,8.241094,0.00048502699999999996,-0.007064656999999999,-0.00300057,22.56,9.66,-31.679997999999998
1554101344500,4.9609375,1.6759924,8.243488000000001,0.0035393531,-0.0009560041,0.0024972172,22.26,9.719999000000001,-32.04
1554101344520,4.946572,1.6688095,8.224333999999999,0.0017067576000000001,0.00026572638,0.0031080823,22.56,10.44,-31.38
1554101344540,4.948966,1.6927522000000002,8.236305,0.005371949,0.0020983220999999997,0.0061624087,23.1,10.92,-32.04
1554101344560,4.98488,1.673598,8.265037,0.0035393531,0.0027091872999999997,0.004329813,22.859999,10.139999000000001,-32.28
1554101344580,4.9800916,1.6783867,8.267431,0.0047610835,0.0033200525,0.0037189478,22.56,9.96,-31.439999
1554101344601,4.982486,1.6999351000000003,8.262642,0.0023176228,-0.0015668693,0.0012754864999999999,22.619999,10.8,-31.859999
1554101344620,4.9417834,1.6975409,8.224333999999999,0.0010958922,0.0014874570000000002,5.375614000000001e-05,21.9,10.5,-32.46
1554101344640,4.929812,1.6783867,8.236305,-0.0019584339999999998,0.0069852443,-0.002389705,21.539998999999998,10.26,-32.04
1554101344660,4.9106574,1.6592325,8.272219999999999,-0.0031801646000000003,0.004541783,0.0006646214,21.96,10.5,-31.439999
1554101344681,4.925023,1.6592325,8.293768,-0.007456221,0.0014874570000000002,-0.00300057,23.16,10.32,-30.0
1554101344700,4.9393888,1.6759924,8.272219999999999,-0.0037910298,-0.0009560041,-0.0060548964,22.92,10.019999499999999,-30.539998999999998
1554101344720,4.948966,1.6807808999999998,8.255460000000001,-0.00501276,0.00026572638,-0.0048331656,22.02,10.26,-31.56
1554101344740,4.932206,1.6975409,8.253065,-0.006234491,-0.0009560041,-0.0066657616,22.859999,10.2,-31.98
1554101344760,4.95136,1.664021,8.260247999999999,-0.0068453559999999995,-0.0021777346,-0.0060548964,23.22,10.2,-31.92
1554101344780,4.9441776,1.6664151999999999,8.269825,-0.006234491,0.00026572638,-0.0036114353999999998,23.039998999999998,9.78,-30.24
1554101344800,4.9417834,1.673598,8.286585,-0.0007367035000000001,-0.0009560041,-0.00300057,22.98,9.66,-29.88
1554101344820,4.96812,1.6831752,8.281796,0.00048502699999999996,-0.0064537909999999995,5.375614000000001e-05,22.5,10.86,-30.96
1554101344840,4.946572,1.6759924,8.2578535,0.0059828144,-0.008286388,0.0006646214,22.14,10.8,-32.04
1554101344860,4.965726,1.6712039,8.209969000000001,0.0065936795,-0.0015668693,0.0024972172,22.56,10.5,-32.34
1554101344880,4.975303,1.6400781999999998,8.233911500000001,0.0023176228,-0.0040103304,0.0012754864999999999,22.08,10.74,-32.04
1554101344900,4.9800916,1.6592325,8.253065,-0.00012583824,-0.0021777346,0.0024972172,21.9,10.44,-31.8
1554101344920,4.9800916,1.6879636999999998,8.281796,0.005371949,-0.0040103304,-0.002389705,22.32,10.62,-32.52
1554101344940,4.95136,1.6927522000000002,8.2578535,0.0072045447,-0.005232061,-0.0011679743,22.859999,11.219999000000001,-33.36
1554101344960,4.9393888,1.6975409,8.272219999999999,0.0114806015,-0.0064537909999999995,-0.0036114353999999998,22.32,10.8,-32.64
1554101344980,4.9106574,1.7095122,8.260247999999999,0.012091467,-0.011340713,-0.002389705,22.38,9.66,-31.679997999999998
1554101345001,4.9441776,1.6783867,8.2578535,0.0133131975,-0.016227635,-0.00300057,22.8,9.179999,-31.5
1554101345020,4.922629,1.6688095,8.284191,0.015145793000000001,-0.0168385,5.375614000000001e-05,22.74,9.12,-30.3
1554101345040,4.95136,1.6520496999999998,8.269825,0.015145793000000001,-0.011951578000000001,-0.0011679743,23.279999,10.139999000000001,-29.88
1554101345061,5.00164,1.6520496999999998,8.277008,0.0133131975,-0.0168385,-0.0011679743,23.039998999999998,10.8,-29.88
1554101345080,5.035159999999999,1.6879636999999998,8.277008,0.0114806015,-0.022947152999999998,-0.0060548964,22.32,10.38,-29.279999
1554101345100,5.0447370000000005,1.7382435,8.181237,0.010869736000000001,-0.024168883999999998,-0.007887492,21.72,10.86,-30.66
1554101345120,4.989669,1.7597919999999998,8.097438,0.005371949,-0.016227635,-0.007276627,21.96,11.16,-31.56
1554101345140,4.9393888,1.7789462,8.102226,-0.0025692992000000002,0.004541783,-0.0011679743,21.96,10.38,-33.0
1554101345161,4.915446299999999,1.7526091000000001,8.0926485,-0.0068453559999999995,0.010650435,5.375614000000001e-05,21.96,10.38,-33.0
1554101345180,4.992063,1.7071179,8.250671,-0.012954008000000001,0.015537357,-0.0011679743,22.08,10.98,-32.1
1554101345200,4.9705143,1.7047237000000002,8.279403,-0.012954008000000001,0.0143156275,5.375614000000001e-05,22.56,10.74,-31.74
1554101345220,4.9417834,1.6783867,8.2578535,-0.008067086,0.008817839000000001,0.0024972172,23.039998999999998,10.019999499999999,-31.619999
1554101345240,4.9441776,1.6568381999999997,8.260247999999999,-0.004401895,0.0033200525,0.0049406779999999996,22.68,9.78,-30.96
1554101345260,4.946572,1.620924,8.250671,-0.0007367035000000001,0.0027091872999999997,0.009827601,22.199999,9.9,-30.06
1554101345280,4.95136,1.647261,8.2578535,0.0041502183,0.0014874570000000002,0.0073841390000000005,22.14,10.019999499999999,-30.359999
1554101345301,4.9800916,1.6616267,8.262642,0.002928488,-0.0009560041,0.0086058695,21.96,10.08,-30.359999
1554101345320,4.982486,1.6807808999999998,8.269825,0.002928488,-0.0009560041,0.004329813,21.96,9.96,-31.38
1554101345340,4.9537544,1.6664151999999999,8.2387,0.0017067576000000001,-0.0009560041,0.0037189478,22.26,10.559999000000001,-33.0
1554101345360,4.946572,1.6616267,8.219545,0.00048502699999999996,-0.0027885998,0.0006646214,22.02,10.5,-32.82
1554101345381,4.95136,1.6065584,8.229122,-0.0019584339999999998,0.00026572638,0.0012754864999999999,22.199999,9.719999000000001,-32.46
1554101345400,4.9561486,1.6879636999999998,8.255460000000001,-0.008067086,-0.0021777346,-0.005444030999999999,22.68,9.9,-31.92
1554101345420,4.9441776,1.7478206000000003,8.284191,-0.006234491,-0.0027885998,-0.0036114353999999998,22.199999,9.96,-32.64
1554101345440,4.9393888,1.7741576000000001,8.2387,-0.0037910298,-0.0040103304,5.375614000000001e-05,21.66,10.019999499999999,-33.48
1554101345460,4.936994599999999,1.7430321,8.197997,-0.00012583824,-0.005232061,0.0006646214,22.08,10.5,-32.7
1554101345480,4.9705143,1.7430321,8.207574000000001,-0.0007367035000000001,-0.0040103304,0.0018863518,22.14,10.92,-32.28
1554101345500,4.9776974,1.6951466,8.2027855,-0.008067086,0.00026572638,0.0031080823,22.56,10.86,-31.859999
1554101345521,5.0088230000000005,1.664021,8.248277,-0.005623625,-0.005842926,-0.0011679743,23.16,10.74,-31.14
1554101345540,5.0040345,1.6448668000000002,8.269825,-0.0031801646000000003,-0.0027885998,-0.0017788396,22.38,10.62,-32.16
1554101345560,5.0184,1.673598,8.243488000000001,-0.0007367035000000001,-0.00034513889999999997,-0.0048331656,22.14,9.78,-32.399998
1554101345580,4.9872746,1.6688095,8.231517,-0.0013475687,0.004541783,-0.00300057,22.26,10.019999499999999,-32.88
1554101345600,4.965726,1.6951466,8.217151,-0.0013475687,0.005763513499999999,0.0006646214,22.08,10.5,-33.18
1554101345620,4.9417834,1.6903580000000002,8.224333999999999,0.0023176228,0.003930918,0.004329813,22.439999,10.08,-31.92
1554101345641,4.9537544,1.6831752,8.236305,0.0010958922,0.0075961095,0.0061624087,22.5,10.62,-32.219997
1554101345660,4.9872746,1.6161355,8.293768,0.005371949,0.003930918,0.005551543000000001,22.38,11.16,-33.0
1554101345680,5.0399485,1.5706443,8.293768,0.0059828144,0.0008765916,0.0018863518,22.199999,10.5,-32.46
1554101345701,5.042342700000001,1.6137413,8.293768,0.00781541,-0.009508118000000001,-0.0042223004,22.02,10.139999000000001,-32.16
1554101345720,4.989669,1.6664151999999999,8.286585,0.009648005500000001,-0.013784174,-0.008498357,22.8,10.019999499999999,-32.04
1554101345740,4.903475,1.7358493000000002,8.274613,0.013924063,-0.016227635,-0.007276627,22.56,9.78,-32.399998
1554101345761,4.886715000000001,1.7621863000000002,8.212361999999999,0.013924063,-0.008897252,-0.00055710913,22.26,10.08,-33.059998
1554101345780,4.8986864,1.7717633000000002,8.20518,0.010258871,-0.007064656999999999,0.0037189478,22.56,10.019999499999999,-32.88
1554101345800,4.946572,1.7669748,8.260247999999999,0.009037141,-0.010118983,-0.0011679743,21.96,9.48,-32.64
1554101345821,4.9633317,1.7119064,8.241094,0.009037141,-0.011951578000000001,-0.0048331656,22.199999,10.019999499999999,-32.16
1554101345840,4.972909,1.6496553,8.229122,0.0035393531,-0.011340713,-0.0060548964,22.859999,10.26,-31.08
1554101345860,4.9178405,1.6544438999999997,8.197997,-0.0019584339999999998,-0.008286388,-0.0036114353999999998,22.74,9.719999000000001,-30.06
1554101345881,4.9417834,1.673598,8.147717,-0.009288817,-0.00034513889999999997,-0.0048331656,23.039998999999998,9.66,-29.88
1554101345900,4.965726,1.6688095,8.22194,-0.013564873500000001,0.0051526483,-0.0048331656,23.1,9.42,-29.939999
1554101345920,5.011217,1.7143008000000002,8.269825,-0.012954008000000001,-0.0027885998,-0.007887492,22.8,9.42,-29.64
1554101345941,5.006428700000001,1.7478206000000003,8.260247999999999,-0.0068453559999999995,-0.003399465,-0.0017788396,22.8,9.84,-30.3
1554101345960,4.996851400000001,1.7502148999999998,8.2387,0.0017067576000000001,-0.0040103304,0.0061624087,22.38,9.96,-31.679997999999998
1554101345980,4.982486,1.6927522000000002,8.219545,0.0114806015,-0.005232061,0.009827601,22.439999,10.32,-33.3
1554101346000,5.0160055,1.6807808999999998,8.190814,0.0041502183,-0.005842926,0.0061624087,22.08,10.32,-33.66
1554101346020,4.9992456,1.673598,8.207574000000001,0.002928488,-0.0015668693,0.0024972172,22.02,10.38,-32.399998
1554101346040,5.011217,1.7214836,8.2387,-0.0013475687,0.0014874570000000002,0.0037189478,22.14,9.719999000000001,-32.04
1554101346060,4.996851400000001,1.7047237000000002,8.22194,-0.0007367035000000001,0.00026572638,-0.0011679743,22.26,9.84,-32.219997
1554101346081,5.00164,1.6855695,8.2027855,-0.0007367035000000001,0.0033200525,5.375614000000001e-05,22.859999,10.559999000000001,-32.46
1554101346100,4.9800916,1.6807808999999998,8.214757,-0.0068453559999999995,0.008817839000000001,-0.002389705,22.56,11.28,-33.3
1554101346120,4.9705143,1.6712039,8.250671,-0.0031801646000000003,0.0051526483,-0.0060548964,21.66,10.8,-32.46
1554101346141,4.9537544,1.673598,8.200391,-0.008677952,0.0033200525,-0.0017788396,22.14,10.44,-31.619999
1554101346160,4.9609375,1.6592325,8.2578535,-0.0025692992000000002,-0.003399465,-0.0036114353999999998,21.96,10.26,-31.5
1554101346181,4.9800916,1.6496553,8.28898,-0.0025692992000000002,-0.0009560041,-0.0017788396,21.42,10.86,-32.399998
1554101346200,4.982486,1.6855695,8.308133,0.0010958922,-0.0046211956,-0.0011679743,21.66,11.16,-32.7
1554101346220,4.975303,1.7621863000000002,8.2387,0.008426275,-0.0107298475,0.0006646214,21.66,10.86,-32.399998
1554101346241,4.9393888,1.7430321,8.171659,0.00781541,-0.0064537909999999995,0.0037189478,22.56,9.719999000000001,-30.24
1554101346260,4.9537544,1.6975409,8.186026,0.0047610835,-0.0021777346,0.0031080823,22.74,10.2,-30.359999
1554101346280,5.006428700000001,1.6712039,8.214757,-0.00501276,-0.00034513889999999997,0.0006646214,22.38,10.5,-31.98
1554101346300,5.006428700000001,1.7023293999999998,8.262642,-0.0025692992000000002,-0.0027885998,-0.002389705,21.24,10.32,-32.76
1554101346321,5.006428700000001,1.7190893,8.217151,-0.00012583824,-0.0040103304,-0.00300057,21.42,10.019999499999999,-32.82
1554101346340,4.9705143,1.7190893,8.190814,-0.0037910298,-0.003399465,0.0018863518,21.84,9.96,-32.64
1554101346360,4.95136,1.6903580000000002,8.229122,-0.0037910298,-0.0015668693,0.0006646214,22.32,10.679999,-32.46
1554101346380,4.9609375,1.6927522000000002,8.233911500000001,-0.0007367035000000001,-0.0027885998,0.0037189478,22.02,10.26,-32.579997999999996
1554101346401,5.0040345,1.6783867,8.217151,-0.00501276,-0.00034513889999999997,-0.00055710913,22.14,10.139999000000001,-32.399998
1554101346420,5.006428700000001,1.7119064,8.231517,-0.004401895,0.0033200525,0.0012754864999999999,22.56,10.2,-32.76
1554101346441,5.011217,1.6999351000000003,8.265037,0.002928488,-0.0021777346,0.0037189478,22.08,9.96,-31.8
1554101346460,4.972909,1.7166951000000001,8.212361999999999,0.00048502699999999996,-0.0015668693,0.0018863518,22.32,10.38,-31.74
1554101346480,4.9633317,1.7023293999999998,8.2387,-0.0019584339999999998,0.0008765916,0.0031080823,22.74,10.2,-31.56
1554101346501,4.9705143,1.7166951000000001,8.231517,-0.00012583824,-0.007064656999999999,0.0024972172,21.66,10.5,-33.0
1554101346520,4.98488,1.7047237000000002,8.229122,0.0017067576000000001,-0.0021777346,0.0018863518,21.539998999999998,10.019999499999999,-32.46
1554101346540,4.9992456,1.6783867,8.207574000000001,-0.0007367035000000001,-0.0027885998,0.0012754864999999999,22.02,9.78,-32.34
1554101346561,4.9992456,1.6616267,8.233911500000001,-0.008067086,-0.00034513889999999997,0.0031080823,21.779999,10.559999000000001,-32.34
1554101346580,4.9800916,1.6568381999999997,8.236305,-0.0068453559999999995,-0.0009560041,-0.00300057,21.84,10.679999,-32.34
1554101346600,4.9944572,1.6544438999999997,8.209969000000001,-0.004401895,0.00026572638,-0.0036114353999999998,22.619999,10.5,-32.28
1554101346620,4.996851400000001,1.6712039,8.241094,-0.004401895,0.003930918,-0.0036114353999999998,22.199999,10.44,-32.64
1554101346640,4.996851400000001,1.6831752,8.248277,-0.0025692992000000002,0.0027091872999999997,-0.0036114353999999998,21.779999,10.559999000000001,-33.059998
1554101346660,4.975303,1.6975409,8.269825,-0.0031801646000000003,0.0014874570000000002,5.375614000000001e-05,22.32,9.9,-32.64
1554101346681,4.9872746,1.7119064,8.217151,0.0035393531,-0.003399465,-0.0017788396,22.08,10.139999000000001,-32.16
1554101346700,4.98488,1.6951466,8.195602000000001,0.0017067576000000001,0.00026572638,0.0031080823,21.66,10.44,-32.88
1554101346720,4.9705143,1.6927522000000002,8.212361999999999,0.00048502699999999996,-0.0040103304,0.0024972172,21.18,10.38,-32.82
1554101346740,4.965726,1.6879636999999998,8.200391,-0.0025692992000000002,0.0014874570000000002,0.0018863518,21.66,9.66,-32.64
1554101346761,4.9633317,1.7095122,8.245882,-0.0031801646000000003,0.003930918,0.0018863518,22.32,10.139999000000001,-32.579997999999996
1554101346780,4.98488,1.7071179,8.195602000000001,-0.00501276,0.0075961095,0.0031080823,22.619999,10.559999000000001,-32.04
1554101346800,4.972909,1.7238779,8.209969000000001,-0.008677952,0.0069852443,0.0031080823,22.26,10.44,-32.28
1554101346821,4.9633317,1.7119064,8.229122,-0.008067086,0.0075961095,0.0024972172,22.02,10.38,-33.3
1554101346840,4.972909,1.7238779,8.229122,-0.009288817,0.012483031499999998,0.0024972172,21.66,10.62,-33.66
1554101346860,4.948966,1.6975409,8.248277,-0.010510548,0.015537357,0.0037189478,21.66,10.8,-32.7
1554101346880,4.9585433,1.6089526,8.274613,-0.0031801646000000003,0.012483031499999998,0.004329813,22.08,10.44,-31.5
1554101346900,4.9561486,1.5706443,8.274613,-0.004401895,0.0075961095,0.005551543000000001,22.08,10.44,-31.5
1554101346920,4.9776974,1.5754328000000002,8.269825,-0.0025692992000000002,0.0014874570000000002,-0.00055710913,22.56,10.019999499999999,-32.1
1554101346941,5.00164,1.6089526,8.260247999999999,-0.0007367035000000001,0.0008765916,-0.0048331656,22.56,9.9,-32.7
1554101346960,5.0136113,1.6712039,8.262642,0.0010958922,-0.003399465,-0.008498357,22.26,10.2,-32.52
1554101346980,4.9633317,1.7214836,8.231517,-0.00012583824,-0.0064537909999999995,-0.0036114353999999998,21.72,10.679999,-31.92
1554101347001,4.95136,1.7478206000000003,8.200391,-0.0007367035000000001,-0.0064537909999999995,-0.0036114353999999998,22.08,10.86,-32.46
1554101347020,4.932206,1.7238779,8.186026,0.0023176228,0.00026572638,0.0018863518,21.66,10.559999000000001,-33.42
1554101347040,4.948966,1.6855695,8.224333999999999,0.00048502699999999996,0.0014874570000000002,-0.0017788396,21.18,10.44,-33.0
1554101347060,4.9800916,1.6807808999999998,8.265037,-0.00501276,-0.0015668693,0.0006646214,21.18,10.5,-33.0
1554101347080,4.9872746,1.6879636999999998,8.274613,-0.0013475687,-0.005232061,-0.0017788396,22.199999,10.32,-31.8
1554101347101,5.0136113,1.6879636999999998,8.265037,0.0035393531,-0.007064656999999999,-0.0011679743,21.6,10.2,-31.439999
1554101347120,4.996851400000001,1.6592325,8.250671,0.0035393531,-0.0046211956,0.0018863518,21.66,10.139999000000001,-32.16
1554101347140,4.992063,1.6759924,8.250671,0.0017067576000000001,-0.007675522,0.0031080823,21.539998999999998,10.44,-32.7
1554101347161,4.9705143,1.6783867,8.291373,0.0114806015,-0.008286388,5.375614000000001e-05,21.48,10.26,-33.48
1554101347181,5.042342700000001,1.637684,8.363202000000001,0.02186531,-0.011951578000000001,-0.005444030999999999,21.48,10.26,-32.88
1554101347200,5.0614967,1.6951466,8.3679905,0.026141367999999998,-0.03211013,-0.007887492,21.72,10.679999,-33.239998
1554101347220,4.8891089999999995,1.9106313000000001,8.150111,0.016978389,-0.04127311,-0.0042223004,21.9,10.5,-33.54
1554101347241,4.697566999999999,1.9920366000000003,8.004061,0.018810984,-0.033331863999999996,0.007995004,22.08,10.08,-31.32
1554101347260,4.6760187,1.9800651999999999,7.9873009999999995,0.01575666,-0.012562443500000001,0.022044905,21.72,10.38,-30.359999
1554101347281,4.8531949999999995,1.7238779,8.099832000000001,-0.012954008000000001,0.018591685,0.03304048,21.6,10.08,-31.08
1554101347300,4.908263,1.5634614,8.114198,-0.029447371,0.015537357,0.026931827999999998,21.539998999999998,10.2,-31.98
1554101347321,5.0686800000000005,1.525153,7.9944835,-0.04410813400000001,0.036306772,0.011049331,22.14,10.08,-32.88
1554101347340,5.0830455,1.4509305000000001,8.353624,-0.04960592,0.024089472,-0.002389705,22.26,10.139999000000001,-32.46
1554101347360,5.205153500000001,1.4126221,8.442213,-0.044719003,0.008817839000000001,-0.01338528,22.26,10.08,-33.3
1554101347380,5.260222,1.4365649,8.408693,-0.038610347,0.0075961095,-0.02376999,22.26,9.66,-33.6
1554101347401,5.195576,1.5443072,8.320105,-0.026393042999999998,-0.0021777346,-0.022548257999999998,21.9,10.2,-32.7
1554101347420,5.0591025,1.6328955,8.22194,-0.007456221,-0.010118983,-0.010330953,21.539998999999998,10.559999000000001,-32.34
1554101347440,4.869955,1.7717633000000002,8.269825,0.017589254,-0.01561677,0.012881926,22.199999,10.62,-32.82
1554101347461,5.011217,1.7310607,8.372779,0.04996511,-0.009508118000000001,0.028764422999999997,22.26,10.44,-32.88
1554101347480,5.193182,1.7813405,8.375174000000001,0.053019437999999995,-0.017449366,0.02632096,22.02,10.86,-32.399998
1554101347501,5.030371,1.8507744,8.0926485,0.04629992,-0.024168883999999998,0.017768849,22.5,10.5,-31.679997999999998
1554101347520,5.0950169999999995,1.7693691000000003,8.023214999999999,0.040802132000000005,0.017369954,0.014714521999999999,22.14,10.08,-31.859999
1554101347540,5.0495257,1.7214836,8.004061,0.018200118,0.013093897,0.0104384655,21.9,10.679999,-32.28
1554101347560,4.9106574,1.6400781999999998,8.073495,-0.013564873500000001,0.008817839000000001,0.0024972172,22.199999,10.62,-32.219997
1554101347580,4.9705143,1.6568381999999997,8.183631,-0.031279966,0.032641582,-0.0042223004,22.38,10.44,-32.52
1554101347600,4.8891089999999995,1.6664151999999999,8.2027855,-0.04227554,0.031419855,-0.013996145,22.439999,10.44,-32.64
1554101347621,4.896292,1.6448668000000002,8.293768,-0.041664675,0.03813937,-0.0146070095,22.02,10.2,-32.46
1554101347640,4.9705143,1.6592325,8.415875999999999,-0.033723425,0.027143797,-0.015217874,22.08,9.9,-32.16
1554101347660,4.8891089999999995,1.6424724999999998,8.336864,-0.017840931,0.008817839000000001,-0.010330953,22.619999,10.92,-32.7
1554101347680,4.901080599999999,1.6448668000000002,8.320105,-0.00501276,0.016759088000000002,-0.0017788396,22.619999,10.86,-33.42
1554101347701,4.8771377000000005,1.6975409,8.308133,0.00781541,-0.0015668693,0.0024972172,22.14,10.08,-32.94
1554101347720,4.8316464,1.647261,8.279403,0.015145793000000001,-0.008897252,0.012271061000000002,22.439999,10.2,-32.76
1554101347740,4.922629,1.6616267,8.303345,0.018200118,-0.012562443500000001,0.011660195,22.92,10.139999000000001,-32.28
1554101347761,4.9417834,1.6999351000000003,8.248277,0.014534927,-0.024168883999999998,0.005551543000000001,22.32,10.26,-32.16
1554101347780,4.96812,1.6712039,8.142928999999999,0.0041502183,-0.011340713,0.0037189478,22.199999,10.08,-32.28
1554101347800,5.0447370000000005,1.6592325,8.123775,-0.012343143,-0.005842926,-0.005444030999999999,22.38,9.54,-32.399998
1554101347821,4.996851400000001,1.7095122,8.123775,-0.028836504,-0.0015668693,-0.009720088,23.16,9.96,-30.3
1554101347840,4.9944572,1.6975409,8.219545,-0.02822564,0.01003957,-0.0066657616,23.519999,10.74,-28.92
1554101347860,4.9633317,1.6759924,8.315316000000001,-0.021506123,0.015537357,-0.0042223004,22.32,10.32,-31.26
1554101347880,4.975303,1.6855695,8.305738999999999,-0.019673526,0.013093897,0.0006646214,22.26,10.32,-32.1
1554101347900,4.9992456,1.6975409,8.248277,-0.010510548,0.0063743787,0.0012754864999999999,22.26,10.8,-32.04
1554101347920,4.936994599999999,1.6664151999999999,8.197997,-0.006234491,0.0033200525,0.005551543000000001,22.38,10.019999499999999,-31.199999
1554101347940,4.891503299999999,1.620924,8.317711,0.0035393531,0.008206975,0.011049331,22.92,9.84,-30.66
1554101347961,4.891503299999999,1.5730386,8.41827,0.012091467,-0.007675522,0.015325387,22.859999,10.38,-31.619999
1554101347980,4.8388295,1.5658557,8.396722,0.01942185,-0.02844494,0.017157983,22.619999,10.8,-32.16
1554101348000,4.922629,1.5610671999999999,8.324894,0.02430877,-0.035775322000000005,0.0104384655,21.96,11.04,-32.76
1554101348020,4.9800916,1.5921928,8.209969000000001,0.018810984,-0.036997054,-0.00055710913,22.5,11.099999,-32.04
1554101348041,5.073468,1.6592325,8.171659,0.0041502183,-0.03516446,-0.011552683999999999,23.34,10.679999,-31.74
1554101348060,5.1165650000000005,1.6448668000000002,8.152505999999999,-0.010510548,-0.030888401,-0.02743518,23.279999,10.2,-31.8
1554101348080,5.1309309999999995,1.6712039,8.123775,-0.017230064,-0.012562443500000001,-0.02865691,23.1,9.9,-30.84
1554101348100,5.087834,1.6712039,8.181237,-0.021506123,-0.007675522,-0.02743518,22.68,9.599999,-31.08
1554101348120,4.9705143,1.6424724999999998,8.20518,-0.0166192,-0.009508118000000001,-0.021326527,22.56,10.26,-30.96
1554101348140,4.9417834,1.594587,8.260247999999999,-0.0068453559999999995,0.00026572638,-0.015217874,22.199999,10.98,-31.8
1554101348161,4.9776974,1.5850098999999997,8.300951,-0.0013475687,0.004541783,-0.0066657616,22.08,10.74,-32.219997
1554101348180,5.047130999999999,1.6927522000000002,8.286585,0.020032715,-0.0040103304,0.0031080823,22.14,10.019999499999999,-33.0
1554101348200,5.05192,1.7023293999999998,8.140533999999999,0.027973962999999998,-0.008286388,0.005551543000000001,21.84,10.08,-33.239998
1554101348220,5.020794400000001,1.7238779,8.102226,0.021254446,-0.0027885998,0.0086058695,21.84,10.08,-32.88
1554101348241,4.9776974,1.7358493000000002,8.195602000000001,0.01942185,0.003930918,0.011049331,22.02,9.9,-30.84
1554101348260,4.9130519999999995,1.7143008000000002,8.253065,0.016367523000000002,0.00026572638,0.006773274,21.779999,10.32,-31.08
1554101348280,4.901080599999999,1.7406378,8.269825,0.009037141,-0.005842926,0.007995004,21.779999,10.92,-33.12
1554101348300,4.8891089999999995,1.7358493000000002,8.265037,0.0047610835,-0.011951578000000001,0.0049406779999999996,21.72,10.5,-32.94
1554101348320,4.908263,1.6807808999999998,8.2027855,0.0035393531,-0.008897252,0.0006646214,21.42,10.86,-32.16
1554101348340,4.996851400000001,1.7262721,8.147717,-0.011121413,-0.0107298475,-0.008498357,22.56,11.28,-30.599998
1554101348360,5.0327660000000005,1.7933118000000001,8.147717,-0.022727853,-0.008286388,-0.007276627,23.279999,10.92,-31.26
1554101348381,4.98488,1.7502148999999998,8.164477,-0.020284392,0.0020983220999999997,-0.0042223004,22.5,10.86,-33.3
1554101348400,5.0184,1.620924,8.166871,-0.020284392,0.011872166000000002,-0.0017788396,22.14,11.219999000000001,-32.64
1554101348420,5.054314,1.5514901,8.253065,-0.022116987,0.009428705,-0.0066657616,22.38,10.8,-32.04
1554101348440,5.097411,1.5730386,8.281796,-0.019673526,0.003930918,-0.0060548964,22.439999,10.38,-31.74
1554101348461,5.0830455,1.6352897,8.310528,-0.00501276,-0.008286388,-0.0036114353999999998,22.02,9.96,-32.219997
1554101348480,5.006428700000001,1.6137413,8.233911500000001,0.010258871,-0.007064656999999999,0.0006646214,22.02,10.74,-32.34
1554101348500,4.9776974,1.6137413,8.207574000000001,0.010869736000000001,-0.005232061,0.0031080823,22.38,11.759999,-32.46
1554101348520,5.006428700000001,1.6903580000000002,8.226728,0.0059828144,-0.0064537909999999995,0.004329813,22.14,10.74,-33.059998
1554101348540,5.006428700000001,1.7478206000000003,8.217151,0.010258871,-0.005842926,0.006773274,21.9,10.139999000000001,-32.16
1554101348560,5.006428700000001,1.6999351000000003,8.152505999999999,0.009648005500000001,-0.005232061,0.0061624087,22.439999,9.66,-30.96
1554101348580,4.9872746,1.6281068,8.197997,0.0017067576000000001,-0.0015668693,0.0031080823,21.6,9.54,-31.679997999999998
1554101348600,5.025583,1.6305011999999999,8.245882,-0.006234491,0.0014874570000000002,-0.002389705,21.3,10.2,-32.76
1554101348620,5.00164,1.664021,8.274613,-0.0019584339999999998,0.0051526483,-0.00055710913,22.26,10.32,-33.0
1554101348641,4.972909,1.6999351000000003,8.224333999999999,0.0023176228,0.0008765916,0.0006646214,22.38,10.32,-33.239998
1554101348660,4.996851400000001,1.6783867,8.176449,-0.00012583824,-0.007064656999999999,0.0037189478,22.199999,10.26,-32.399998
1554101348680,5.05192,1.7095122,8.193209,-0.004401895,-0.0046211956,0.0006646214,22.14,10.139999000000001,-32.1
1554101348700,5.0950169999999995,1.733455,8.219545,0.0017067576000000001,-0.0015668693,0.0018863518,22.199999,9.84,-32.76
1554101348720,5.097411,1.7262721,8.186026,0.0041502183,0.0014874570000000002,0.0006646214,22.32,10.44,-32.52
1554101348741,5.0088230000000005,1.6831752,8.190814,0.0041502183,-0.0021777346,-0.00055710913,22.199999,10.8,-32.34
1554101348760,4.972909,1.6065584,8.219545,-0.0037910298,0.0008765916,-0.002389705,22.439999,10.74,-32.04
1554101348780,4.9776974,1.6424724999999998,8.22194,-0.0068453559999999995,0.0063743787,-0.00300057,22.26,10.62,-32.94
1554101348800,4.972909,1.6496553,8.209969000000001,-0.007456221,0.008817839000000001,-0.007276627,21.3,10.139999000000001,-33.899998
1554101348821,4.9944572,1.6616267,8.233911500000001,-0.008067086,0.003930918,-0.009720088,22.02,10.62,-32.82
1554101348840,4.9609375,1.7166951000000001,8.229122,-0.011732277,-0.0015668693,-0.0048331656,22.439999,10.679999,-32.46
1554101348860,4.925023,1.7023293999999998,8.181237,-0.004401895,-0.00034513889999999997,-0.0011679743,21.96,10.26,-32.28
1554101348880,4.9417834,1.637684,8.200391,-0.00501276,0.0033200525,0.0006646214,21.66,10.08,-31.92
1554101348900,5.020794400000001,1.6233183,8.250671,-0.0037910298,-0.0021777346,-0.0042223004,22.199999,10.2,-32.219997
1554101348920,5.0184,1.6352897,8.291373,-0.005623625,-0.008897252,-0.0011679743,22.5,10.38,-32.82
1554101348940,5.00164,1.6424724999999998,8.262642,-0.0007367035000000001,-0.011951578000000001,-0.0048331656,21.539998999999998,10.08,-33.18
1554101348960,4.992063,1.6520496999999998,8.214757,0.0017067576000000001,-0.008286388,-0.0011679743,22.08,10.26,-32.28
1554101348980,4.9944572,1.7071179,8.2027855,-0.00012583824,-0.008897252,0.0012754864999999999,22.38,10.92,-31.98
1554101349000,5.00164,1.7119064,8.186026,0.0035393531,-0.0064537909999999995,0.0031080823,22.02,10.679999,-32.399998
1554101349020,5.0136113,1.7214836,8.178842999999999,0.0047610835,-0.0040103304,0.0037189478,21.779999,10.32,-32.16
1554101349040,5.047130999999999,1.6616267,8.174054,0.0010958922,0.004541783,0.005551543000000001,21.42,9.719999000000001,-32.04
1554101349060,5.087834,1.6568381999999997,8.207574000000001,-0.0025692992000000002,0.011261301000000001,0.0049406779999999996,22.38,10.139999000000001,-31.199999
1554101349080,5.090228,1.6424724999999998,8.22194,-0.0025692992000000002,0.0075961095,0.0024972172,22.68,10.92,-31.859999
1554101349100,5.0184,1.6424724999999998,8.219545,0.002928488,0.0027091872999999997,0.0012754864999999999,22.5,10.559999000000001,-32.88
1554101349121,5.00164,1.6233183,8.176449,0.0017067576000000001,0.005763513499999999,0.0018863518,22.439999,10.2,-31.98
1554101349140,5.0040345,1.5969813,8.250671,-0.0013475687,0.012483031499999998,-0.0017788396,21.96,10.2,-31.14
1554101349160,5.0136113,1.6257126,8.300951,-0.00501276,0.0033200525,-0.007887492,21.96,10.26,-31.859999
1554101349180,5.0040345,1.6927522000000002,8.255460000000001,-0.0025692992000000002,-0.0015668693,-0.009720088,21.72,10.26,-32.219997
1554101349201,4.9561486,1.7358493000000002,8.219545,-0.0013475687,-0.0015668693,-0.008498357,21.84,10.32,-32.1
1554101349220,4.903475,1.6975409,8.200391,-0.0019584339999999998,0.0027091872999999997,-0.007276627,22.26,10.26,-32.46
1554101349240,4.915446299999999,1.6520496999999998,8.231517,-0.0031801646000000003,0.0033200525,-0.00055710913,22.439999,10.5,-31.56
1554101349260,4.9417834,1.6496553,8.291373,-0.0007367035000000001,-0.0046211956,-0.0048331656,22.92,10.679999,-30.66
1554101349280,4.975303,1.6712039,8.248277,0.0017067576000000001,-0.008286388,-0.00300057,22.859999,10.8,-30.359999
1554101349300,4.989669,1.6927522000000002,8.248277,0.0035393531,-0.007675522,5.375614000000001e-05,22.26,10.38,-31.38
1554101349320,5.0040345,1.7047237000000002,8.20518,0.0017067576000000001,-0.007675522,0.0012754864999999999,21.96,10.2,-32.88
1554101349341,5.042342700000001,1.673598,8.197997,0.0041502183,-0.0021777346,0.0012754864999999999,21.66,10.8,-33.36
1554101349360,5.047130999999999,1.6712039,8.209969000000001,0.0017067576000000001,-0.0015668693,0.0031080823,21.84,10.559999000000001,-33.3
1554101349380,5.025583,1.6831752,8.229122,-0.0019584339999999998,-0.0040103304,0.0018863518,22.14,10.559999000000001,-32.88
1554101349400,5.025583,1.6879636999999998,8.166871,0.002928488,-0.005232061,0.0031080823,21.72,10.74,-32.579997999999996
1554101349421,5.020794400000001,1.6424724999999998,8.135746000000001,-0.0037910298,0.004541783,0.0031080823,21.72,10.26,-32.88
1554101349440,5.0375543,1.6544438999999997,8.2027855,-0.005623625,0.010650435,0.0037189478,22.439999,10.139999000000001,-33.0
1554101349460,5.05192,1.6759924,8.214757,-0.007456221,0.008817839000000001,0.0018863518,22.439999,9.84,-32.46
1554101349480,5.020794400000001,1.664021,8.181237,-0.0068453559999999995,0.0051526483,0.0018863518,22.859999,9.84,-32.28
1554101349501,4.992063,1.647261,8.212361999999999,-0.011121413,0.012483031499999998,0.0018863518,22.619999,10.559999000000001,-32.46
1554101349520,4.96812,1.6783867,8.245882,-0.009288817,0.013704761999999999,-0.0017788396,21.72,10.32,-32.82
1554101349540,4.9585433,1.6568381999999997,8.269825,-0.010510548,0.014926492,5.375614000000001e-05,21.72,10.08,-32.399998
1554101349560,4.9417834,1.6688095,8.296163,-0.0037910298,0.005763513499999999,5.375614000000001e-05,21.96,10.86,-32.28
1554101349580,4.925023,1.6257126,8.260247999999999,-0.0037910298,-0.0015668693,0.0037189478,22.38,10.44,-32.579997999999996
1554101349600,4.946572,1.5778271000000001,8.267431,0.00048502699999999996,-0.003399465,0.0049406779999999996,22.439999,9.84,-31.38
1554101349620,4.98488,1.6233183,8.2387,0.0010958922,-0.0009560041,0.0018863518,22.56,10.08,-30.24
1554101349640,4.996851400000001,1.664021,8.231517,0.002928488,-0.0015668693,-0.0017788396,22.26,10.26,-31.92
1554101349660,4.989669,1.6975409,8.245882,0.0010958922,-0.0064537909999999995,-0.0017788396,22.38,10.26,-33.0
1554101349680,4.996851400000001,1.6831752,8.22194,-0.0007367035000000001,-0.005842926,5.375614000000001e-05,22.56,9.96,-33.18
1554101349700,4.965726,1.6712039,8.219545,-0.005623625,-0.003399465,-0.00055710913,22.98,10.38,-32.7
1554101349721,4.982486,1.6927522000000002,8.245882,-0.0007367035000000001,-0.005842926,-0.00055710913,23.16,11.04,-31.98
1554101349740,5.006428700000001,1.6807808999999998,8.277008,-0.0025692992000000002,-0.011951578000000001,5.375614000000001e-05,22.56,10.5,-32.52
1554101349760,5.0447370000000005,1.6568381999999997,8.236305,0.002928488,-0.011951578000000001,0.0018863518,22.439999,10.2,-32.399998
1554101349780,5.0614967,1.6352897,8.178842999999999,0.002928488,-0.007064656999999999,-0.00300057,22.56,10.86,-32.16
1554101349801,5.042342700000001,1.6257126,8.171659,0.0041502183,-0.005232061,-0.00055710913,22.74,10.26,-31.98
1554101349820,5.0591025,1.620924,8.193209,0.0065936795,0.0027091872999999997,0.004329813,22.08,10.38,-31.98
1554101349840,5.0926222999999995,1.620924,8.174054,0.002928488,0.0051526483,0.005551543000000001,21.84,11.219999000000001,-31.679997999999998
1554101349860,5.1165650000000005,1.6305011999999999,8.162083,-0.0037910298,0.01003957,-0.0011679743,21.9,11.219999000000001,-31.92
1554101349881,5.071073999999999,1.6927522000000002,8.22194,-0.00501276,0.018591685,-0.0036114353999999998,21.84,10.98,-32.76
1554101349900,5.030371,1.7358493000000002,8.272219999999999,0.002928488,0.015537357,-0.0048331656,22.26,10.32,-31.92
1554101349920,4.9393888,1.7837347,8.233911500000001,0.010869736000000001,0.01003957,0.0018863518,21.84,10.5,-31.56
1554101349940,4.8723493,1.7119064,8.195602000000001,0.008426275,0.01003957,0.006773274,21.779999,10.92,-31.92
1554101349961,4.891503299999999,1.6257126,8.224333999999999,0.0023176228,0.009428705,0.007995004,22.32,10.44,-31.98
1554101349980,4.936994599999999,1.5586729,8.272219999999999,0.00048502699999999996,0.0069852443,0.005551543000000001,22.32,10.38,-32.76
1554101350000,5.00164,1.5993756000000001,8.317711,0.0017067576000000001,0.0033200525,-0.0017788396,22.5,10.62,-32.219997
1554101350020,5.0088230000000005,1.6448668000000002,8.303345,0.0047610835,0.00026572638,-0.0048331656,22.68,10.38,-30.9
1554101350040,4.972909,1.6520496999999998,8.2387,-0.00012583824,-0.0021777346,-0.008498357,22.74,10.5,-32.1
1554101350060,4.965726,1.6616267,8.186026,0.0023176228,-0.0064537909999999995,-0.007276627,22.38,10.5,-32.94
1554101350080,4.9561486,1.6664151999999999,8.157294,0.0023176228,-0.005232061,-0.009109222,21.539998999999998,10.74,-32.7
1554101350101,4.996851400000001,1.6999351000000003,8.197997,-0.0019584339999999998,-0.0021777346,-0.0066657616,21.84,10.139999000000001,-32.579997999999996
1554101350120,4.992063,1.7214836,8.277008,0.0010958922,-0.0027885998,-0.00300057,22.14,9.84,-30.179997999999998
1554101350140,4.982486,1.7358493000000002,8.241094,0.005371949,-0.007675522,0.0012754864999999999,22.68,10.139999000000001,-29.16
1554101350161,4.98488,1.6688095,8.193209,0.0059828144,-0.003399465,5.375614000000001e-05,23.519999,10.26,-30.06
1554101350180,5.0375543,1.6496553,8.162083,0.00048502699999999996,0.0051526483,0.0006646214,22.8,10.679999,-29.76
1554101350201,5.0447370000000005,1.6903580000000002,8.174054,-0.00012583824,0.0014874570000000002,-0.0017788396,22.08,10.26,-29.76
1554101350220,5.0160055,1.7262721,8.190814,-0.006234491,0.0069852443,-0.00055710913,21.72,10.019999499999999,-30.359999
1554101350240,4.9800916,1.6951466,8.217151,-0.005623625,0.011261301000000001,0.0018863518,21.9,10.139999000000001,-30.359999
1554101350260,5.00164,1.6496553,8.284191,-0.0031801646000000003,0.011872166000000002,0.0049406779999999996,21.72,10.26,-30.179997999999998
1554101350280,5.0327660000000005,1.5921928,8.293768,0.002928488,0.00026572638,0.0031080823,22.32,9.84,-30.179997999999998
1554101350300,5.042342700000001,1.6592325,8.250671,0.010869736000000001,-0.008286388,-0.0011679743,22.859999,10.019999499999999,-31.019999
1554101350320,4.996851400000001,1.6999351000000003,8.212361999999999,0.0114806015,-0.008897252,-0.0017788396,22.32,10.2,-31.619999
1554101350340,4.9800916,1.6975409,8.2027855,0.008426275,-0.0027885998,0.0018863518,22.56,10.44,-32.04
1554101350360,4.96812,1.7047237000000002,8.178842999999999,0.005371949,0.003930918,-0.00055710913,22.5,10.8,-32.579997999999996
1554101350380,5.00164,1.7047237000000002,8.233911500000001,-0.0013475687,0.005763513499999999,-0.005444030999999999,21.96,10.08,-32.64
1554101350400,4.98488,1.7143008000000002,8.274613,-0.0013475687,0.0063743787,-0.009720088,21.96,10.5,-32.579997999999996
1554101350420,4.972909,1.6975409,8.269825,0.0035393531,-0.00034513889999999997,-0.008498357,22.619999,10.74,-31.56
1554101350440,4.9417834,1.6400781999999998,8.265037,0.010258871,-0.0040103304,-0.008498357,22.5,10.2,-31.019999
1554101350460,4.946572,1.6137413,8.186026,0.012702332,-0.0027885998,-0.0066657616,21.84,10.559999000000001,-32.04
1554101350480,4.9346004,1.6616267,8.190814,-0.00012583824,0.0014874570000000002,-0.00300057,21.9,11.219999000000001,-32.579997999999996
1554101350501,4.896292,1.664021,8.183631,-0.0025692992000000002,-0.0046211956,0.0018863518,22.02,11.04,-32.76
1554101350520,4.8412237000000005,1.6305011999999999,8.233911500000001,-0.005623625,-0.007064656999999999,0.004329813,22.02,10.5,-32.88
1554101350540,4.896292,1.6616267,8.293768,-0.005623625,-0.007675522,0.0086058695,22.439999,10.5,-31.619999
1554101350560,5.025583,1.6664151999999999,8.375174000000001,0.0065936795,-0.0143950395,0.0061624087,21.96,10.559999000000001,-32.04
1554101350581,5.114171,1.7071179,8.329682,0.012702332,-0.02966667,-0.0060548964,20.939999,9.78,-32.88
1554101350600,5.133325,1.7478206000000003,8.2027855,0.0072045447,-0.024168883999999998,-0.010941818,21.66,9.78,-32.88
1554101350620,5.0926222999999995,1.7166951000000001,8.047157,0.0023176228,-0.012562443500000001,-0.01582874,22.08,9.84,-32.94
1554101350640,5.0375543,1.7286664,8.030397,-0.008067086,-0.0040103304,-0.01949393,21.72,9.84,-31.74
1554101350660,5.0399485,1.7047237000000002,8.068706500000001,-0.020895256,0.008817839000000001,-0.017661337,22.38,10.32,-31.74
1554101350680,5.0327660000000005,1.7310607,8.142928999999999,-0.031890832,0.019813413000000002,-0.007276627,22.56,10.26,-33.0
1554101350700,5.0184,1.6903580000000002,8.260247999999999,-0.01906266,0.023478605,-0.00055710913,22.32,10.5,-33.12
1554101350721,4.975303,1.664021,8.277008,-0.00501276,0.022867741,0.0049406779999999996,22.02,10.38,-32.76
1554101350740,4.9800916,1.6783867,8.28898,0.0047610835,0.017980818,0.0061624087,22.02,10.62,-31.14
1554101350760,4.925023,1.6568381999999997,8.279403,0.01575666,0.017980818,0.017157983,22.38,11.28,-31.38
1554101350780,4.908263,1.6257126,8.262642,0.01942185,0.011261301000000001,0.022044905,22.199999,10.559999000000001,-33.18
1554101350800,4.922629,1.6328955,8.22194,0.016978389,0.008206975,0.01899058,22.32,10.38,-32.88
1554101350820,4.9609375,1.6664151999999999,8.229122,0.00781541,0.0051526483,0.015936251999999998,22.859999,10.559999000000001,-32.579997999999996
1554101350840,4.9561486,1.6544438999999997,8.233911500000001,0.0023176228,0.004541783,0.007995004,22.38,10.139999000000001,-31.26
1554101350861,4.948966,1.6305011999999999,8.269825,-0.0013475687,0.0027091872999999997,0.004329813,22.08,10.08,-31.26
1554101350880,4.965726,1.6999351000000003,8.2578535,-0.008067086,-0.0027885998,-0.0042223004,21.96,9.96,-32.76
1554101350900,4.9537544,1.802889,8.241094,-0.006234491,-0.005842926,-0.0066657616,21.72,10.019999499999999,-31.98
1554101350920,4.891503299999999,1.7358493000000002,8.226728,-0.0007367035000000001,-0.013173309,-0.0048331656,22.68,10.139999000000001,-31.859999
1554101350941,4.901080599999999,1.6520496999999998,8.253065,-0.0007367035000000001,-0.012562443500000001,0.0006646214,22.74,10.26,-31.5
1554101350960,4.9537544,1.7119064,8.253065,-0.008067086,-0.0168385,-0.0011679743,23.039998999999998,10.5,-30.06
1554101350980,4.965726,1.7454262999999999,8.233911500000001,-0.0031801646000000003,-0.019281961,-0.00055710913,23.699999,10.8,-29.22
1554101351001,4.96812,1.664021,8.147717,0.0017067576000000001,-0.019281961,0.0012754864999999999,22.619999,10.5,-29.279999
1554101351020,4.989669,1.5993756000000001,8.142928999999999,-0.007456221,-0.0064537909999999995,-0.0011679743,22.38,10.32,-30.9
1554101351040,5.05192,1.6352897,8.303345,-0.017230064,0.005763513499999999,-0.0036114353999999998,22.14,10.5,-31.679997999999998
1554101351060,5.0998054,1.7190893,8.308133,-0.009288817,-0.005232061,-0.0017788396,21.3,10.74,-31.199999
1554101351081,5.0806512999999995,1.6879636999999998,8.169266,0.00781541,-0.011340713,-0.0048331656,21.359999,10.679999,-31.679997999999998
1554101351100,5.0758624,1.6496553,8.080677,0.00048502699999999996,-0.0046211956,-0.007276627,21.66,10.559999000000001,-32.52
1554101351121,5.0758624,1.647261,8.212361999999999,-0.012954008000000001,0.0014874570000000002,-0.013996145,21.66,10.5,-32.64
1554101351140,5.078257,1.6975409,8.245882,-0.014786603999999998,0.0020983220999999997,-0.013996145,22.32,10.5,-31.8
1554101351161,4.948966,1.7190893,8.358414,0.014534927,-0.04005138,-0.00300057,22.859999,10.62,-30.179997999999998
1554101351180,4.8579836,1.7214836,8.099832000000001,0.018810984,-0.04249484,0.0037189478,22.74,10.62,-29.82
1554101351200,4.929812,1.673598,8.111803,0.0041502183,-0.024779747999999997,0.0049406779999999996,22.68,10.32,-30.84
1554101351221,5.0184,1.7095122,8.166871,-0.011732277,0.019202549,0.0061624087,22.14,10.08,-31.019999
1554101351240,5.0567082999999995,1.6855695,8.356019,-0.00012583824,0.0033200525,0.0061624087,21.779999,9.96,-30.179997999999998
1554101351260,5.042342700000001,1.6783867,8.277008,0.009037141,-0.0046211956,0.0104384655,22.439999,9.48,-29.88
1554101351280,5.05192,1.6305011999999999,8.099832000000001,0.00781541,0.0051526483,0.005551543000000001,22.56,10.2,-30.96
1554101351300,5.090228,1.7095122,8.109408,-0.006234491,0.017369954,-0.0011679743,21.66,10.44,-31.92
1554101351321,5.0686800000000005,1.7071179,8.20518,-0.009288817,0.016759088000000002,-0.0042223004,22.02,10.44,-32.46
1554101351340,5.0327660000000005,1.6712039,8.248277,-0.00501276,0.013704761999999999,-0.007276627,22.5,10.38,-33.0
1554101351360,4.96812,1.5826156,8.217151,-0.0068453559999999995,0.012483031499999998,-0.008498357,22.38,9.9,-31.859999
1554101351381,4.989669,1.5538843999999998,8.178842999999999,-0.017230064,0.014926492,-0.007276627,22.14,9.96,-31.98
1554101351400,4.975303,1.620924,8.214757,-0.012954008000000001,0.010650435,-0.009109222,21.96,9.96,-33.36
1554101351420,4.9944572,1.647261,8.3129225,-0.006234491,0.014926492,-0.0066657616,22.14,10.38,-33.059998
1554101351441,5.027977,1.7382435,8.320105,0.0041502183,0.005763513499999999,-0.0017788396,22.38,10.26,-32.94
1554101351460,4.9776974,1.7693691000000003,8.272219999999999,0.009037141,-0.00034513889999999997,0.004329813,22.619999,9.599999,-31.859999
1554101351481,4.972909,1.7741576000000001,8.176449,0.017589254,-0.0040103304,0.0086058695,22.38,9.24,-31.08
1554101351500,4.996851400000001,1.7765520000000001,8.166871,0.0133131975,-0.005842926,0.009216735,21.72,9.66,-31.679997999999998
1554101351520,4.989669,1.7358493000000002,8.219545,0.010258871,-0.009508118000000001,0.012881926,21.84,10.019999499999999,-31.56
1554101351541,4.98488,1.6879636999999998,8.2387,0.0041502183,-0.003399465,0.0006646214,22.68,10.44,-30.96
1554101351560,4.989669,1.6400781999999998,8.245882,-0.0019584339999999998,0.0014874570000000002,-0.008498357,23.46,10.44,-30.119999
1554101351580,4.965726,1.6616267,8.217151,-0.009288817,-0.0009560041,-0.016439606000000002,23.76,10.139999000000001,-29.939999
1554101351601,4.948966,1.6664151999999999,8.262642,-0.014786603999999998,-0.0015668693,-0.017050471,23.16,10.559999000000001,-29.699999
1554101351620,4.936994599999999,1.6496553,8.245882,-0.009899682,-0.0015668693,-0.011552683999999999,22.439999,10.08,-29.46
1554101351640,4.9417834,1.6927522000000002,8.195602000000001,-0.006234491,-0.0027885998,-0.008498357,21.9,9.719999000000001,-29.82
1554101351660,4.9561486,1.6424724999999998,8.174054,-0.006234491,0.0008765916,-0.0048331656,21.84,10.019999499999999,-29.88
1554101351681,5.0040345,1.6783867,8.229122,-0.006234491,-0.0021777346,0.0012754864999999999,22.5,9.78,-29.519999
1554101351700,5.0614967,1.7430321,8.274613,0.005371949,-0.0064537909999999995,0.0006646214,22.5,9.48,-29.4
1554101351720,5.0662856,1.664021,8.253065,0.012091467,-0.011340713,0.0031080823,22.439999,10.559999000000001,-30.42
1554101351741,5.0399485,1.6951466,8.169266,0.009037141,-0.008897252,0.0037189478,22.5,10.86,-32.04
1554101351760,5.0375543,1.6664151999999999,8.157294,0.0059828144,-0.00034513889999999997,-0.0011679743,22.02,9.9,-32.34
1554101351780,4.972909,1.6855695,8.183631,0.0010958922,-0.00034513889999999997,-0.002389705,21.539998999999998,9.78,-31.98
1554101351800,4.96812,1.673598,8.2387,0.002928488,0.003930918,0.0012754864999999999,21.48,9.84,-32.7
1554101351820,4.9609375,1.6712039,8.22194,-0.00012583824,0.0027091872999999997,-0.0011679743,21.96,9.84,-32.88
1554101351840,4.9776974,1.6759924,8.2578535,-0.00012583824,0.0033200525,-0.0017788396,21.84,10.679999,-32.76
1554101351860,4.9944572,1.7023293999999998,8.224333999999999,0.005371949,-0.0009560041,-0.00055710913,21.9,11.16,-32.94
1554101351881,4.996851400000001,1.6951466,8.190814,0.005371949,0.0027091872999999997,0.0006646214,21.96,10.74,-31.74
1554101351900,4.9992456,1.6688095,8.212361999999999,0.00048502699999999996,0.004541783,0.0024972172,22.14,10.2,-31.859999
1554101351920,4.996851400000001,1.6352897,8.250671,0.00048502699999999996,0.0014874570000000002,-0.0011679743,22.32,10.2,-32.399998
1554101351940,4.992063,1.6807808999999998,8.2387,0.00048502699999999996,-0.0046211956,-0.0011679743,22.199999,10.92,-32.28
1554101351960,4.9872746,1.7238779,8.243488000000001,-0.0013475687,-0.0027885998,5.375614000000001e-05,22.199999,10.62,-32.88
1554101351980,4.989669,1.7502148999999998,8.207574000000001,-0.0019584339999999998,-0.0064537909999999995,-0.0042223004,21.9,10.08,-32.579997999999996
1554101352000,5.0040345,1.7047237000000002,8.178842999999999,-0.0037910298,-0.005232061,-0.00300057,22.02,9.96,-31.98
1554101352021,5.0160055,1.6879636999999998,8.195602000000001,-0.007456221,-0.0009560041,-0.002389705,22.38,10.139999000000001,-31.8
1554101352040,5.0040345,1.673598,8.219545,-0.008677952,0.005763513499999999,-0.0017788396,22.02,10.74,-32.399998
1554101352061,5.020794400000001,1.673598,8.233911500000001,-0.0037910298,0.0027091872999999997,-0.00055710913,22.26,11.099999,-32.7
1554101352080,5.011217,1.6688095,8.219545,0.0017067576000000001,-0.0009560041,0.0006646214,22.68,10.44,-32.94
1554101352100,5.0160055,1.6592325,8.2027855,0.0017067576000000001,0.00026572638,0.0024972172,22.38,10.019999499999999,-32.219997
1554101352120,5.042342700000001,1.6664151999999999,8.186026,0.0010958922,0.00026572638,0.0006646214,21.779999,10.26,-31.859999
1554101352140,5.0184,1.6975409,8.197997,0.005371949,-0.0027885998,0.0006646214,21.779999,10.26,-32.579997999999996
1554101352160,5.0136113,1.6592325,8.2027855,0.002928488,-0.0015668693,0.0024972172,22.26,10.5,-32.88
1554101352180,5.011217,1.6807808999999998,8.214757,0.00048502699999999996,0.00026572638,-0.002389705,21.9,10.32,-33.42
1554101352201,4.972909,1.6807808999999998,8.291373,-0.0019584339999999998,0.0020983220999999997,-0.005444030999999999,21.779999,10.2,-32.64
1554101352220,4.982486,1.6927522000000002,8.231517,-0.0013475687,0.0014874570000000002,-0.002389705,21.96,10.62,-31.98
1554101352240,4.9800916,1.6281068,8.214757,0.0010958922,-0.0015668693,-0.0011679743,22.32,10.32,-31.56
1554101352260,5.006428700000001,1.6999351000000003,8.253065,-0.0007367035000000001,-0.0046211956,-0.00300057,22.439999,9.9,-30.66
1554101352280,4.992063,1.802889,8.226728,-0.0019584339999999998,-0.005232061,-0.0042223004,22.14,10.32,-31.08
1554101352300,4.989669,1.8340145,8.111803,0.00048502699999999996,-0.0021777346,0.0012754864999999999,22.68,10.019999499999999,-31.08
1554101352321,4.965726,1.7071179,8.104619999999999,-0.005623625,0.0014874570000000002,0.0031080823,23.16,9.78,-31.619999
1554101352340,4.9944572,1.5586729,8.236305,-0.009899682,0.003930918,0.0037189478,22.74,10.559999000000001,-33.12
1554101352360,5.035159999999999,1.5850098999999997,8.336864,-0.010510548,0.003930918,5.375614000000001e-05,21.96,10.5,-33.36
1554101352380,5.025583,1.6688095,8.336864,0.00048502699999999996,-0.0064537909999999995,-0.002389705,21.9,10.62,-32.82
1554101352401,4.989669,1.7238779,8.128563,0.008426275,-0.008897252,-0.0017788396,22.38,10.5,-32.04
1554101352420,4.989669,1.6783867,8.102226,0.0023176228,0.0014874570000000002,-0.0011679743,22.08,10.62,-31.98
1554101352440,5.0495257,1.6400781999999998,8.157294,-0.005623625,0.011261301000000001,-0.0011679743,21.66,10.74,-32.34
1554101352460,5.0662856,1.6496553,8.231517,-0.008067086,0.009428705,-0.0011679743,22.02,10.139999000000001,-32.52
1554101352480,5.0591025,1.6783867,8.265037,-0.00012583824,-0.0046211956,-0.0017788396,21.9,10.38,-32.579997999999996
1554101352500,4.9776974,1.6999351000000003,8.224333999999999,0.00048502699999999996,-0.003399465,-0.00055710913,21.359999,10.32,-32.46
1554101352520,4.9274178,1.7358493000000002,8.150111,0.002928488,0.0020983220999999997,0.0012754864999999999,21.72,10.44,-31.859999
1554101352541,4.948966,1.733455,8.162083,-0.0013475687,0.0075961095,0.005551543000000001,22.26,10.38,-32.16
1554101352560,5.0136113,1.7358493000000002,8.193209,-0.0037910298,0.0143156275,0.006773274,22.5,10.8,-32.94
1554101352580,5.0327660000000005,1.7095122,8.260247999999999,-0.0068453559999999995,0.013093897,0.004329813,22.68,10.559999000000001,-33.0
1554101352600,5.0040345,1.6999351000000003,8.245882,-0.008677952,0.011261301000000001,0.0018863518,22.56,10.139999000000001,-33.059998
1554101352620,4.9609375,1.7095122,8.231517,-0.006234491,0.008817839000000001,0.0024972172,22.74,10.139999000000001,-31.56
1554101352640,4.936994599999999,1.7071179,8.176449,-0.007456221,0.010650435,0.0031080823,23.039998999999998,10.26,-30.119999
1554101352661,4.965726,1.664021,8.200391,-0.011732277,0.009428705,0.004329813,22.92,10.44,-30.359999
1554101352680,4.982486,1.6041641000000002,8.219545,-0.014786603999999998,0.01003957,0.0012754864999999999,22.92,10.5,-30.779999
1554101352700,5.0088230000000005,1.5874043,8.269825,-0.014175739,0.013093897,-0.00055710913,22.98,11.099999,-31.92
1554101352720,5.047130999999999,1.5993756000000001,8.298556,-0.011121413,0.012483031499999998,-0.0011679743,22.68,10.92,-32.46
1554101352741,5.0040345,1.6496553,8.281796,0.00048502699999999996,0.0008765916,-0.0036114353999999998,22.38,10.98,-32.46
1554101352760,4.982486,1.6568381999999997,8.231517,0.0017067576000000001,-0.008897252,5.375614000000001e-05,22.56,10.98,-33.059998
1554101352780,4.9585433,1.6544438999999997,8.207574000000001,0.0035393531,-0.007675522,0.0006646214,22.439999,10.92,-33.18
1554101352800,4.972909,1.7071179,8.2027855,0.002928488,-0.0009560041,0.0024972172,21.779999,11.16,-32.76
1554101352820,4.98488,1.7502148999999998,8.241094,0.0010958922,0.0063743787,0.0012754864999999999,21.9,10.86,-31.679997999999998
1554101352840,5.00164,1.7166951000000001,8.250671,0.0035393531,-0.0021777346,0.0024972172,22.08,10.679999,-31.32
1554101352860,4.96812,1.7071179,8.183631,-0.0013475687,-0.0009560041,0.0018863518,21.42,10.2,-31.98
1554101352881,4.9537544,1.6783867,8.176449,-0.004401895,0.0033200525,-0.00055710913,21.66,10.32,-32.219997
1554101352903,4.972909,1.6448668000000002,8.207574000000001,-0.008067086,0.009428705,0.0031080823,22.14,11.099999,-32.04
1554101352921,5.00164,1.673598,8.214757,-0.008067086,0.011872166000000002,0.0012754864999999999,22.199999,10.679999,-32.1
1554101352940,5.0184,1.6879636999999998,8.248277,-0.009899682,0.012483031499999998,5.375614000000001e-05,22.38,10.44,-31.38
1554101352960,5.0088230000000005,1.7214836,8.250671,-0.0068453559999999995,0.009428705,5.375614000000001e-05,22.26,10.5,-31.32
1554101352980,4.9633317,1.7166951000000001,8.2578535,0.00048502699999999996,0.008206975,0.0061624087,22.26,9.96,-32.7
1554101353000,4.936994599999999,1.7286664,8.207574000000001,-0.00012583824,0.008817839000000001,0.007995004,22.5,10.38,-33.3
1554101353020,4.915446299999999,1.6568381999999997,8.279403,0.00781541,0.010650435,0.012881926,22.14,11.16,-32.82
1554101353040,4.9417834,1.673598,8.284191,0.016367523000000002,-0.00034513889999999997,0.011660195,21.72,10.98,-32.04
1554101353061,4.975303,1.6831752,8.212361999999999,0.012091467,0.0033200525,0.011660195,22.26,11.04,-32.16
1554101353080,4.972909,1.6568381999999997,8.212361999999999,0.010258871,-0.010118983,0.011660195,21.96,10.5,-32.88
1554101353100,5.0088230000000005,1.6257126,8.126168,0.0023176228,0.0020983220999999997,0.012271061000000002,21.779999,10.38,-32.34
1554101353120,5.078257,1.6185298000000001,8.135746000000001,-0.009288817,0.016759088000000002,0.0037189478,22.32,10.8,-32.04
1554101353141,5.073468,1.6257126,8.262642,-0.013564873500000001,0.019202549,-0.0042223004,22.68,10.26,-31.32
1554101353160,5.0567082999999995,1.6544438999999997,8.305738999999999,-0.013564873500000001,0.0143156275,-0.0060548964,22.68,10.139999000000001,-31.26
1554101353180,4.9417834,1.6759924,8.308133,-0.008677952,0.003930918,-0.010941818,22.32,10.139999000000001,-32.7
1554101353200,4.8484063,1.6352897,8.269825,-0.0037910298,-0.00034513889999999997,-0.005444030999999999,21.66,10.559999000000001,-32.52
1554101353221,4.843618,1.6281068,8.308133,0.00048502699999999996,-0.0027885998,-0.0017788396,21.72,10.44,-32.579997999999996
1554101353240,4.8891089999999995,1.6712039,8.334471,0.0065936795,-0.007064656999999999,0.0012754864999999999,21.96,10.26,-31.14
1554101353260,4.891503299999999,1.6951466,8.279403,0.0114806015,-0.011951578000000001,5.375614000000001e-05,22.68,10.32,-30.3
1554101353280,4.946572,1.6831752,8.226728,0.009648005500000001,-0.012562443500000001,-0.002389705,22.56,10.019999499999999,-30.66
1554101353300,4.9561486,1.6544438999999997,8.20518,0.0041502183,-0.007675522,-0.002389705,22.439999,9.54,-30.119999
1554101353320,5.0136113,1.6903580000000002,8.2027855,-0.00501276,-0.0040103304,-0.0060548964,22.439999,9.48,-29.88
1554101353341,5.025583,1.6807808999999998,8.212361999999999,-0.008067086,-0.005842926,-0.011552683999999999,22.8,10.2,-29.58
1554101353360,5.027977,1.7071179,8.190814,-0.011121413,-0.005232061,-0.010941818,22.859999,10.32,-29.46
1554101353380,5.0160055,1.6927522000000002,8.226728,-0.011732277,-0.0027885998,-0.012163549,22.38,9.9,-29.64
1554101353400,4.9944572,1.673598,8.231517,-0.009288817,-0.0046211956,-0.008498357,22.98,10.679999,-29.34
1554101353421,5.0040345,1.6927522000000002,8.2578535,-0.00501276,-0.0015668693,-0.007887492,23.16,10.679999,-28.74
1554101353440,4.9992456,1.6951466,8.279403,0.002928488,-0.005232061,-0.009720088,22.56,9.719999000000001,-29.099998
1554101353460,4.975303,1.6879636999999998,8.262642,0.008426275,-0.003399465,-0.0042223004,22.26,10.26,-29.34
1554101353480,4.9776974,1.7238779,8.209969000000001,0.009037141,-0.007675522,-0.002389705,23.22,11.04,-29.4
1554101353500,4.9537544,1.7238779,8.157294,0.00048502699999999996,0.0020983220999999997,0.0006646214,22.92,11.099999,-30.42
1554101353520,4.8986864,1.6975409,8.169266,-0.0025692992000000002,0.01003957,0.007995004,21.96,11.28,-32.16
1554101353540,4.9130519999999995,1.6496553,8.236305,-0.0037910298,0.013704761999999999,0.0086058695,22.08,11.04,-32.94
1554101353561,4.96812,1.647261,8.300951,-0.00501276,0.013093897,0.0073841390000000005,22.56,10.86,-30.779999
1554101353580,4.992063,1.6424724999999998,8.346442,-0.0037910298,0.0069852443,0.011049331,22.74,10.5,-29.16
1554101353600,4.9800916,1.6688095,8.296163,0.0041502183,-0.0143950395,0.0018863518,22.56,9.9,-29.76
1554101353620,4.965726,1.7095122,8.212361999999999,0.0072045447,-0.016227635,0.0012754864999999999,22.199999,10.38,-31.8
1554101353640,4.948966,1.733455,8.152505999999999,0.00048502699999999996,-0.009508118000000001,0.0012754864999999999,21.0,10.559999000000001,-33.239998
1554101353660,4.9393888,1.7095122,8.181237,-0.0019584339999999998,-0.008897252,0.005551543000000001,20.88,10.679999,-32.16
1554101353680,4.982486,1.6496553,8.214757,-0.0007367035000000001,-0.005842926,0.0073841390000000005,21.9,10.62,-31.38
1554101353700,5.047130999999999,1.647261,8.272219999999999,-0.0031801646000000003,-0.0015668693,0.0012754864999999999,22.14,10.38,-32.04
1554101353721,5.0591025,1.6879636999999998,8.243488000000001,-0.0068453559999999995,-0.0027885998,0.0012754864999999999,22.26,10.5,-32.28
1554101353740,5.035159999999999,1.6257126,8.171659,-0.0007367035000000001,0.0033200525,0.0024972172,22.38,10.92,-32.219997
1554101353760,5.073468,1.5658557,8.133351,-0.008067086,0.017980818,5.375614000000001e-05,22.199999,11.04,-31.38
1554101353780,5.0662856,1.5419129999999999,8.209969000000001,-0.016008334,0.028365527999999997,-0.0017788396,21.779999,10.679999,-31.619999
1554101353800,5.0495257,1.5921928,8.315316000000001,-0.011121413,0.024700336,-0.0066657616,21.84,10.86,-32.88
1554101353820,4.9705143,1.7190893,8.341654,-0.0013475687,0.013093897,-0.0066657616,21.84,10.98,-33.719997
1554101353840,4.867561,1.7909175,8.255460000000001,0.012702332,-0.0009560041,0.0031080823,21.42,10.62,-32.94
1554101353860,4.7909440000000005,1.7717633000000002,8.20518,0.016367523000000002,-0.0009560041,0.007995004,21.779999,9.599999,-31.439999
1554101353880,4.7909440000000005,1.7143008000000002,8.241094,0.0065936795,0.0008765916,0.011660195,22.5,9.599999,-30.84
1554101353900,4.8723493,1.7358493000000002,8.279403,0.0035393531,-0.0009560041,0.012881926,22.38,10.32,-31.679997999999998
1554101353920,4.886715000000001,1.7119064,8.267431,-0.0007367035000000001,-0.005842926,0.009827601,21.96,10.2,-32.7
1554101353940,4.8986864,1.6568381999999997,8.209969000000001,-0.00501276,-0.007064656999999999,5.375614000000001e-05,22.08,9.9,-32.52
1554101353961,4.972909,1.6041641000000002,8.2578535,-0.014786603999999998,0.0020983220999999997,-0.0060548964,21.96,10.38,-32.94
1554101353980,4.9944572,1.594587,8.267431,-0.014786603999999998,-0.0009560041,-0.011552683999999999,22.26,10.62,-32.46
1554101354001,4.972909,1.6448668000000002,8.250671,-0.012343143,-0.007675522,-0.010941818,22.74,10.559999000000001,-32.04
1554101354020,4.972909,1.620924,8.241094,-0.0068453559999999995,-0.010118983,-0.007276627,22.68,10.559999000000001,-31.8
1554101354040,4.9992456,1.6065584,8.231517,-0.0007367035000000001,-0.013173309,-0.0042223004,21.9,10.2,-31.439999
1554101354060,5.0136113,1.6448668000000002,8.300951,0.002928488,-0.0143950395,-0.0017788396,21.119999,9.84,-31.74
1554101354080,4.9992456,1.7047237000000002,8.260247999999999,0.009648005500000001,-0.019281961,5.375614000000001e-05,22.02,9.599999,-31.26
1554101354100,4.946572,1.7047237000000002,8.166871,0.013924063,-0.018671097,0.0061624087,22.8,9.96,-30.599998
1554101354120,4.9417834,1.673598,8.145323,0.005371949,-0.0107298475,0.0031080823,22.619999,10.86,-30.48
1554101354140,5.0231886,1.6879636999999998,8.200391,-0.00501276,0.0008765916,-0.002389705,22.14,10.5,-31.08
1554101354161,5.035159999999999,1.7406378,8.2578535,-0.009288817,0.0069852443,-0.0048331656,21.66,9.84,-32.579997999999996
1554101354180,5.027977,1.7358493000000002,8.22194,-0.008677952,0.0020983220999999997,-0.007887492,21.96,10.5,-32.28
1554101354200,4.98488,1.6951466,8.178842999999999,-0.010510548,0.0008765916,-0.0048331656,22.14,10.44,-32.1
1554101354220,4.9872746,1.637684,8.157294,-0.009899682,0.01003957,-0.00055710913,22.02,10.26,-32.34
1554101354240,5.0327660000000005,1.5778271000000001,8.262642,-0.010510548,0.012483031499999998,5.375614000000001e-05,22.02,10.38,-31.5
1554101354261,5.0495257,1.5850098999999997,8.279403,-0.006234491,0.0051526483,-0.00055710913,22.439999,9.96,-30.96
1554101354280,5.0447370000000005,1.6688095,8.3129225,0.0023176228,0.004541783,-0.00300057,23.1,9.78,-30.42
1554101354300,4.98488,1.7190893,8.248277,0.0059828144,0.0075961095,0.0006646214,22.74,10.5,-30.66
1554101354321,4.908263,1.7143008000000002,8.217151,0.005371949,0.0143156275,0.0073841390000000005,23.16,11.099999,-30.48
1554101354340,4.8986864,1.6975409,8.207574000000001,0.0041502183,0.013704761999999999,0.007995004,23.4,10.86,-30.539998999999998
1554101354360,4.9441776,1.6759924,8.2578535,0.002928488,0.0075961095,0.005551543000000001,22.32,10.92,-31.38
1554101354381,4.96812,1.6807808999999998,8.2578535,-0.0025692992000000002,0.008206975,0.0006646214,21.9,10.98,-31.98
1554101354400,4.96812,1.6496553,8.272219999999999,-0.006234491,0.009428705,-0.002389705,21.42,10.8,-32.219997
1554101354420,4.96812,1.6257126,8.255460000000001,-0.011121413,0.005763513499999999,-0.010330953,21.96,10.62,-32.04
1554101354441,4.9776974,1.5993756000000001,8.214757,-0.014175739,0.0033200525,-0.011552683999999999,22.74,10.44,-32.399998
1554101354460,4.9393888,1.6592325,8.200391,-0.017840931,0.004541783,-0.010941818,22.439999,10.679999,-32.219997
1554101354480,4.929812,1.6616267,8.200391,-0.024560448,0.011872166000000002,-0.012774414,22.02,10.74,-32.1
1554101354500,4.905869,1.6568381999999997,8.243488000000001,-0.023949582,0.0143156275,-0.010941818,22.26,11.099999,-31.8
1554101354520,4.915446299999999,1.6352897,8.324894,-0.020284392,0.016148223,-0.0042223004,22.26,11.04,-31.98
1554101354540,4.9561486,1.6161355,8.406299,-0.0025692992000000002,0.009428705,0.0024972172,22.26,10.62,-32.46
1554101354560,4.9800916,1.6448668000000002,8.334471,0.0114806015,-0.0009560041,0.0049406779999999996,22.619999,10.8,-32.28
1554101354581,4.9633317,1.7262721,8.217151,0.015145793000000001,-0.0064537909999999995,0.0037189478,22.08,10.62,-32.46
1554101354600,4.925023,1.7190893,8.162083,0.012702332,-0.0040103304,0.011049331,22.26,10.559999000000001,-31.38
1554101354621,4.9274178,1.6520496999999998,8.226728,0.0114806015,0.0033200525,0.013492791,22.32,10.5,-31.74
1554101354640,5.0136113,1.6712039,8.245882,0.0065936795,0.010650435,0.012271061000000002,22.199999,10.679999,-33.12
1554101354660,5.0638914,1.7358493000000002,8.231517,0.0059828144,0.011261301000000001,0.009827601,22.74,10.8,-32.52
1554101354681,5.042342700000001,1.6783867,8.224333999999999,0.0059828144,0.008206975,0.0049406779999999996,22.5,10.679999,-32.46
1554101354700,4.9992456,1.6257126,8.224333999999999,0.0017067576000000001,0.0075961095,5.375614000000001e-05,22.619999,10.679999,-32.16
1554101354720,4.98488,1.6233183,8.190814,-0.005623625,0.01003957,-0.0048331656,22.98,10.679999,-31.8
1554101354740,4.95136,1.673598,8.20518,-0.010510548,0.019813413000000002,-0.009109222,22.8,10.38,-31.8
1554101354760,4.9346004,1.673598,8.2578535,-0.008067086,0.02042428,-0.009720088,22.859999,10.139999000000001,-31.439999
1554101354780,4.8986864,1.6448668000000002,8.324894,-0.00501276,0.015537357,-0.005444030999999999,22.32,10.38,-31.5
1554101354800,4.829252200000001,1.637684,8.322499,-0.009288817,0.005763513499999999,-0.0066657616,21.96,10.5,-31.26
1554101354820,4.807704,1.6257126,8.284191,-0.0025692992000000002,0.0075961095,-0.002389705,22.8,10.08,-30.42
1554101354841,4.8268580000000005,1.6328955,8.298556,0.00048502699999999996,0.0069852443,0.0012754864999999999,22.98,9.9,-31.32
1554101354860,4.8555894,1.6233183,8.363202000000001,0.00048502699999999996,-0.0040103304,-0.002389705,22.14,10.44,-33.12
1554101354880,4.8843207,1.7214836,8.332075999999999,-0.0031801646000000003,-0.011340713,0.0018863518,21.96,10.74,-33.18
1554101354900,4.903475,1.7238779,8.298556,0.0047610835,-0.012562443500000001,0.0031080823,22.439999,10.62,-32.76
1554101354921,4.9393888,1.6807808999999998,8.219545,0.0072045447,-0.011340713,-0.0017788396,22.68,10.139999000000001,-32.219997
1554101354941,4.982486,1.6305011999999999,8.209969000000001,0.0010958922,-0.0107298475,-0.007276627,22.32,10.32,-32.16
1554101354960,5.030371,1.647261,8.243488000000001,-0.012343143,-0.007675522,-0.008498357,22.32,10.86,-31.98
1554101354980,5.0184,1.6089526,8.277008,-0.011121413,-0.007064656999999999,-0.009109222,22.32,10.559999000000001,-32.219997
1554101355000,5.0160055,1.5730386,8.262642,-0.0031801646000000003,-0.0064537909999999995,-0.011552683999999999,22.32,10.92,-32.52
1554101355020,4.98488,1.5874043,8.226728,-0.00501276,-0.005232061,-0.0146070095,23.22,11.16,-31.619999
1554101355040,4.989669,1.6281068,8.233911500000001,-0.008067086,-0.0027885998,-0.0146070095,23.039998999999998,10.559999000000001,-31.92
1554101355060,4.9609375,1.6352897,8.274613,-0.0025692992000000002,-0.0046211956,-0.0146070095,21.84,10.32,-32.76
1554101355080,4.925023,1.6831752,8.274613,0.002928488,-0.0107298475,-0.012774414,21.539998999999998,9.9,-32.399998
1554101355100,4.9346004,1.7238779,8.2387,0.0010958922,-0.0015668693,-0.009109222,21.66,10.44,-32.64
1554101355120,4.8938975,1.733455,8.260247999999999,-0.0068453559999999995,-0.0021777346,-0.008498357,22.08,11.099999,-31.679997999999998
1554101355140,4.9130519999999995,1.7286664,8.2387,-0.0037910298,-0.003399465,-0.005444030999999999,22.5,11.099999,-31.679997999999998
1554101355161,4.8771377000000005,1.7454262999999999,8.303345,0.002928488,-0.0168385,-0.0036114353999999998,22.56,11.219999000000001,-32.1
1554101355180,4.8891089999999995,1.7238779,8.255460000000001,-0.00012583824,-0.007675522,0.0012754864999999999,22.26,11.28,-32.64
1554101355200,4.95136,1.6807808999999998,8.236305,-0.0037910298,0.005763513499999999,0.0031080823,21.96,10.62,-32.94
1554101355220,4.9633317,1.6616267,8.260247999999999,-0.0007367035000000001,0.0020983220999999997,0.0037189478,22.08,10.44,-31.92
1554101355240,4.9609375,1.6281068,8.279403,-0.00012583824,-0.008286388,0.004329813,22.619999,10.98,-29.82
1554101355261,4.96812,1.620924,8.269825,0.0035393531,-0.008286388,0.004329813,23.34,11.04,-29.64
1554101355280,4.982486,1.6448668000000002,8.293768,0.005371949,-0.008286388,0.0031080823,22.439999,11.219999000000001,-30.9
1554101355300,5.011217,1.6592325,8.277008,0.0041502183,-0.010118983,0.0006646214,21.72,11.519999499999999,-31.5
1554101355320,5.00164,1.6664151999999999,8.226728,0.0023176228,-0.013784174,-0.0017788396,22.56,11.16,-32.34
1554101355340,4.9633317,1.6592325,8.166871,-0.0019584339999999998,-0.009508118000000001,-0.005444030999999999,22.859999,11.16,-32.579997999999996
1554101355360,4.9633317,1.6520496999999998,8.224333999999999,-0.0068453559999999995,-0.00034513889999999997,-0.0060548964,22.68,11.34,-32.579997999999996
1554101355380,4.9537544,1.6688095,8.300951,-0.0031801646000000003,-0.005842926,-0.0066657616,22.439999,11.519999499999999,-32.7
1554101355400,4.9441776,1.6927522000000002,8.260247999999999,-0.0013475687,-0.007064656999999999,-0.0048331656,22.68,10.92,-32.46
1554101355420,4.9346004,1.6759924,8.2387,-0.00501276,-0.008286388,-0.002389705,22.5,10.62,-32.579997999999996
1554101355441,4.9417834,1.6592325,8.236305,-0.0037910298,-0.00034513889999999997,-0.0017788396,21.6,10.5,-31.38
1554101355460,4.9609375,1.6664151999999999,8.22194,-0.0037910298,0.0033200525,0.0012754864999999999,21.779999,10.32,-31.5
1554101355480,4.989669,1.6712039,8.272219999999999,-0.0007367035000000001,-0.0046211956,-0.00055710913,22.199999,10.679999,-33.6
1554101355501,4.972909,1.6807808999999998,8.277008,0.0017067576000000001,-0.007064656999999999,0.0037189478,22.199999,10.5,-33.84
1554101355520,4.9633317,1.637684,8.265037,0.0041502183,-0.013173309,0.0031080823,21.9,10.38,-33.12
1554101355540,4.9609375,1.6424724999999998,8.253065,0.005371949,-0.0143950395,-0.00055710913,22.38,10.08,-32.1
1554101355561,4.9346004,1.637684,8.245882,0.0035393531,-0.019892827,-0.002389705,22.26,10.679999,-31.679997999999998
1554101355580,4.922629,1.6616267,8.248277,0.0023176228,-0.021114558,-0.00300057,21.42,10.74,-32.94
1554101355600,4.936994599999999,1.6568381999999997,8.226728,-0.0007367035000000001,-0.019281961,-0.0036114353999999998,21.3,9.96,-33.059998
1554101355620,4.965726,1.6592325,8.224333999999999,-0.0031801646000000003,-0.017449366,-0.0066657616,21.72,9.96,-32.399998
1554101355641,5.0040345,1.6712039,8.188419999999999,-0.008067086,-0.0107298475,-0.009720088,22.14,10.08,-31.8
1554101355660,5.0614967,1.7023293999999998,8.169266,-0.0153974695,0.00026572638,-0.007276627,21.9,11.099999,-32.16
1554101355680,5.0638914,1.7262721,8.145323,-0.016008334,0.016148223,-0.0060548964,22.439999,10.98,-32.76
1554101355700,5.0638914,1.7238779,8.178842999999999,-0.0166192,0.025922066,-0.0048331656,22.439999,10.32,-31.859999
1554101355721,5.0806512999999995,1.6783867,8.229122,-0.011121413,0.027143797,-0.002389705,22.68,10.98,-31.8
1554101355740,5.071073999999999,1.6448668000000002,8.219545,-0.0019584339999999998,0.022867741,0.004329813,22.619999,10.679999,-31.8
1554101355760,5.05192,1.6664151999999999,8.224333999999999,0.0010958922,0.02164601,0.0037189478,22.02,10.679999,-31.5
1554101355780,5.0160055,1.6424724999999998,8.241094,0.0047610835,0.02164601,0.005551543000000001,22.68,10.98,-32.219997
1554101355800,4.9274178,1.6305011999999999,8.277008,0.0059828144,0.019202549,0.0024972172,22.859999,10.26,-30.779999
1554101355820,4.8771377000000005,1.6352897,8.291373,0.0047610835,0.02164601,0.0024972172,22.56,10.2,-29.46
1554101355841,4.8053099999999995,1.637684,8.310528,0.0023176228,0.011261301000000001,-0.0017788396,21.84,10.62,-29.64
1554101355860,4.8053099999999995,1.6233183,8.344047999999999,-0.00012583824,0.003930918,-0.00055710913,22.14,10.38,-28.619999
1554101355880,4.8148865999999995,1.6424724999999998,8.336864,0.0010958922,-0.005232061,-0.0011679743,22.92,10.44,-28.8
1554101355901,4.8316464,1.6783867,8.300951,-0.0013475687,-0.011951578000000001,-0.007887492,22.68,10.679999,-29.46
1554101355920,4.8747435,1.7238779,8.267431,-0.005623625,-0.0107298475,-0.008498357,22.56,10.5,-29.34
1554101355940,4.8938975,1.7143008000000002,8.2578535,-0.004401895,-0.007064656999999999,-0.005444030999999999,22.619999,10.5,-29.279999
1554101355960,4.9178405,1.664021,8.250671,-0.006234491,-0.011340713,-0.007276627,22.92,10.86,-29.34
1554101355981,4.9633317,1.6688095,8.2387,-0.004401895,-0.013784174,-0.0060548964,22.74,10.86,-29.279999
1554101356000,4.9872746,1.664021,8.260247999999999,-0.0019584339999999998,-0.0168385,-0.0017788396,22.5,10.44,-29.64
1554101356020,5.0088230000000005,1.6903580000000002,8.248277,0.0010958922,-0.017449366,0.0031080823,22.68,9.9,-30.0
1554101356040,5.025583,1.673598,8.20518,0.0017067576000000001,-0.012562443500000001,0.0031080823,23.1,9.96,-30.119999
1554101356060,5.025583,1.6712039,8.209969000000001,0.0047610835,-0.008897252,0.0024972172,22.8,10.38,-30.06
1554101356080,5.054314,1.6448668000000002,8.176449,0.005371949,-0.005232061,0.0037189478,22.26,10.559999000000001,-31.38
1554101356101,5.0327660000000005,1.6281068,8.219545,0.0035393531,-0.003399465,0.0024972172,22.199999,10.92,-33.0
1554101356120,5.0160055,1.6688095,8.233911500000001,-0.00012583824,0.0008765916,0.004329813,22.32,10.86,-32.82
1554101356140,4.975303,1.6807808999999998,8.214757,-0.00012583824,0.0033200525,-0.00055710913,22.619999,10.8,-32.82
1554101356160,4.9609375,1.637684,8.241094,0.0017067576000000001,0.005763513499999999,0.0024972172,22.26,10.62,-31.92
1554101356181,4.9633317,1.6520496999999998,8.233911500000001,-0.0007367035000000001,0.01003957,0.0018863518,22.02,10.62,-30.72
1554101356200,4.965726,1.673598,8.269825,-0.0025692992000000002,0.0051526483,-0.00055710913,22.8,10.5,-30.24
1554101356220,4.965726,1.673598,8.241094,-0.00501276,0.0069852443,-0.00055710913,23.34,10.38,-29.939999
1554101356240,4.96812,1.6879636999999998,8.250671,-0.0037910298,0.0033200525,-0.0011679743,22.98,10.559999000000001,-29.34
1554101356261,4.9705143,1.6664151999999999,8.229122,-0.0007367035000000001,0.0075961095,0.0006646214,22.439999,10.2,-29.16
1554101356280,4.9609375,1.6712039,8.255460000000001,-0.0013475687,0.0020983220999999997,-0.0017788396,22.92,9.9,-29.4
1554101356300,4.9561486,1.664021,8.195602000000001,-0.0068453559999999995,0.004541783,0.0018863518,22.98,10.32,-29.22
1554101356321,4.96812,1.6496553,8.250671,-0.0068453559999999995,0.0051526483,-0.0017788396,21.96,10.5,-28.74
1554101356340,4.9633317,1.6783867,8.274613,-0.005623625,0.008206975,-0.0011679743,22.32,10.08,-28.98
1554101356360,4.946572,1.6855695,8.262642,-0.00501276,0.004541783,-0.002389705,22.32,10.019999499999999,-29.4
1554101356380,4.9537544,1.664021,8.253065,-0.0037910298,0.004541783,0.0012754864999999999,22.859999,10.26,-29.099998
1554101356401,4.9393888,1.6664151999999999,8.226728,-0.007456221,0.005763513499999999,-0.002389705,23.039998999999998,10.679999,-29.699999
1554101356420,4.96812,1.6759924,8.267431,-0.005623625,0.0063743787,-0.002389705,22.859999,10.92,-29.939999
1554101356440,4.9633317,1.6664151999999999,8.260247999999999,-0.006234491,0.009428705,0.0012754864999999999,23.039998999999998,10.5,-29.22
1554101356461,4.946572,1.6879636999999998,8.262642,-0.00012583824,0.004541783,-0.0011679743,22.56,10.559999000000001,-29.34
1554101356480,4.932206,1.6520496999999998,8.281796,0.0010958922,0.004541783,0.0012754864999999999,23.039998999999998,10.44,-30.0
1554101356500,4.932206,1.6544438999999997,8.255460000000001,-0.00012583824,0.0020983220999999997,0.0018863518,23.279999,10.2,-31.439999
1554101356520,4.925023,1.6544438999999997,8.255460000000001,-0.0037910298,0.003930918,0.0037189478,22.74,10.26,-32.399998
1554101356540,4.946572,1.6592325,8.245882,0.00048502699999999996,0.0014874570000000002,0.0012754864999999999,22.26,9.9,-32.04
1554101356560,4.9585433,1.6568381999999997,8.253065,-0.0019584339999999998,0.003930918,-0.00300057,22.56,9.96,-32.16
1554101356580,4.9705143,1.6592325,8.272219999999999,-0.004401895,0.01003957,-0.00300057,22.619999,10.62,-32.1
1554101356601,4.9705143,1.6544438999999997,8.279403,-0.0025692992000000002,0.0014874570000000002,-0.00300057,22.439999,11.219999000000001,-32.219997
1554101356620,4.9393888,1.647261,8.253065,0.0017067576000000001,-0.00034513889999999997,-0.00055710913,22.08,11.099999,-33.059998
1554101356640,4.922629,1.6328955,8.226728,-0.0013475687,0.0014874570000000002,-0.00300057,22.199999,11.099999,-33.0
1554101356660,4.936994599999999,1.6616267,8.255460000000001,-0.006234491,0.0033200525,-0.0017788396,22.38,11.04,-32.82
1554101356681,4.95136,1.6759924,8.2578535,-0.0007367035000000001,0.003930918,-0.0017788396,22.8,10.559999000000001,-32.34
1554101356700,4.9346004,1.6807808999999998,8.2578535,-0.0019584339999999998,0.0008765916,5.375614000000001e-05,22.859999,10.26,-32.34
1554101356720,4.9441776,1.6688095,8.250671,-0.004401895,0.0020983220999999997,-0.00055710913,22.56,10.44,-32.82
1554101356740,4.9417834,1.6281068,8.262642,-0.0007367035000000001,0.0014874570000000002,-0.0017788396,22.38,10.86,-32.7
1554101356760,4.9417834,1.6712039,8.265037,-0.0019584339999999998,0.00026572638,-0.00300057,22.199999,11.099999,-32.7
1554101356780,4.932206,1.6688095,8.281796,-0.004401895,0.00026572638,-0.00055710913,22.199999,10.74,-32.46
1554101356801,4.936994599999999,1.6448668000000002,8.269825,0.00048502699999999996,-0.0015668693,-0.0036114353999999998,22.38,10.019999499999999,-31.38
1554101356820,4.9441776,1.6568381999999997,8.245882,-0.00012583824,-0.00034513889999999997,-0.002389705,22.92,10.139999000000001,-31.32
1554101356840,4.9393888,1.6328955,8.250671,-0.0019584339999999998,-0.0015668693,-0.0042223004,23.1,10.559999000000001,-32.52
1554101356861,4.972909,1.664021,8.2578535,-0.0013475687,-0.003399465,-0.0048331656,22.14,10.62,-32.34
1554101356880,4.975303,1.6664151999999999,8.279403,-0.00012583824,-0.0027885998,-0.002389705,21.119999,11.04,-31.98
1554101356900,4.9633317,1.6664151999999999,8.253065,-0.0013475687,-0.0009560041,-0.0011679743,21.9,11.34,-31.199999
1554101356921,4.9585433,1.6496553,8.245882,0.002928488,0.0020983220999999997,-0.0017788396,22.56,10.98,-31.199999
1554101356940,4.9609375,1.6568381999999997,8.243488000000001,0.0017067576000000001,-0.0027885998,-0.0048331656,22.02,10.559999000000001,-32.399998
1554101356960,4.96812,1.6664151999999999,8.22194,-0.0013475687,-0.0015668693,5.375614000000001e-05,22.14,10.26,-32.46
1554101356981,4.9537544,1.6807808999999998,8.253065,-0.0019584339999999998,0.003930918,-0.0017788396,22.439999,10.74,-33.36
1554101357000,4.9609375,1.6759924,8.253065,-0.00012583824,0.0063743787,-0.0036114353999999998,22.38,10.62,-32.579997999999996
1554101357020,4.9274178,1.6712039,8.274613,0.00048502699999999996,0.0027091872999999997,-0.00300057,21.9,10.26,-31.74
1554101357041,4.946572,1.6568381999999997,8.262642,-0.0025692992000000002,0.003930918,-0.0017788396,22.02,10.26,-32.579997999999996
1554101357060,4.9346004,1.6424724999999998,8.245882,-0.004401895,0.0075961095,5.375614000000001e-05,22.92,10.74,-32.399998
1554101357080,4.9417834,1.6759924,8.277008,-0.0019584339999999998,0.0020983220999999997,-0.00300057,22.68,11.219999000000001,-31.859999
1554101357100,4.9346004,1.6448668000000002,8.284191,-0.0013475687,0.0020983220999999997,0.0012754864999999999,21.96,11.28,-31.08
1554101357120,4.908263,1.6664151999999999,8.303345,-0.0013475687,0.0008765916,5.375614000000001e-05,22.5,11.219999000000001,-31.38
1554101357141,4.8986864,1.6855695,8.231517,0.00048502699999999996,0.00026572638,0.0018863518,22.98,11.219999000000001,-31.74
1554101357161,4.9130519999999995,1.6759924,8.248277,0.0017067576000000001,-0.0021777346,0.0006646214,22.68,10.74,-31.26
1554101357180,4.932206,1.6400781999999998,8.255460000000001,0.002928488,-0.005232061,0.0012754864999999999,22.619999,10.559999000000001,-31.56
1554101357201,4.9274178,1.6448668000000002,8.274613,-0.0019584339999999998,-0.0021777346,5.375614000000001e-05,22.68,11.04,-31.74
1554101357220,4.95136,1.664021,8.298556,0.0023176228,-0.0040103304,-0.0036114353999999998,22.68,10.2,-29.88
1554101357240,4.9441776,1.673598,8.255460000000001,0.0017067576000000001,-0.0015668693,-0.00055710913,22.5,10.44,-28.98
1554101357260,4.946572,1.6305011999999999,8.241094,0.0041502183,-0.0040103304,-0.002389705,22.439999,11.099999,-29.279999
1554101357280,4.936994599999999,1.6448668000000002,8.2387,0.0035393531,-0.0015668693,-0.00300057,23.039998999999998,11.099999,-29.22
1554101357301,4.948966,1.6424724999999998,8.233911500000001,-0.0013475687,-0.0015668693,0.0018863518,22.859999,10.26,-30.0
1554101357320,4.95136,1.6616267,8.269825,-0.0037910298,-0.00034513889999999997,0.0037189478,23.22,10.559999000000001,-29.699999
1554101357341,4.9537544,1.6616267,8.265037,-0.00012583824,-0.0021777346,0.0012754864999999999,23.1,10.62,-30.42
1554101357360,4.9346004,1.6688095,8.272219999999999,-0.00012583824,-0.0046211956,0.0006646214,22.74,10.32,-30.779999
1554101357380,4.946572,1.6496553,8.277008,0.0023176228,-0.003399465,-0.00055710913,23.039998999999998,10.5,-31.26
1554101357400,4.948966,1.6807808999999998,8.2387,0.0023176228,-0.0040103304,5.375614000000001e-05,22.38,10.62,-32.46
1554101357420,4.936994599999999,1.6568381999999997,8.241094,-0.0013475687,-0.0009560041,0.0031080823,22.199999,10.2,-32.399998
1554101357440,4.9417834,1.6616267,8.269825,-0.0013475687,-0.0015668693,0.0031080823,22.56,10.559999000000001,-31.98
1554101357461,4.9417834,1.6520496999999998,8.269825,-0.0007367035000000001,0.00026572638,0.0018863518,22.859999,10.74,-32.7
1554101357480,4.9441776,1.6496553,8.265037,-0.0007367035000000001,0.0020983220999999997,0.0012754864999999999,22.92,10.98,-32.64
1554101357500,4.9441776,1.6424724999999998,8.260247999999999,-0.0031801646000000003,-0.0021777346,-0.0011679743,22.56,10.86,-32.7
1554101357520,4.9585433,1.6448668000000002,8.248277,-0.0013475687,-0.0009560041,-0.0011679743,21.84,10.5,-32.7
1554101357541,4.936994599999999,1.6592325,8.245882,-0.0025692992000000002,-0.0009560041,-0.0017788396,21.779999,10.86,-32.7
1554101357560,4.946572,1.6616267,8.2578535,-0.0013475687,0.0051526483,-0.00055710913,22.199999,10.44,-32.7
1554101357580,4.932206,1.6568381999999997,8.28898,-0.0037910298,0.0027091872999999997,0.0024972172,21.96,10.74,-31.92
1554101357600,4.95136,1.6664151999999999,8.277008,-0.0013475687,-0.0027885998,-0.00300057,21.72,11.759999,-32.34
1554101357621,4.9393888,1.6664151999999999,8.262642,0.00048502699999999996,-0.00034513889999999997,0.0006646214,21.84,11.099999,-31.859999
1554101357640,4.9346004,1.6544438999999997,8.260247999999999,0.0017067576000000001,-0.0021777346,-0.0011679743,22.439999,10.08,-30.96
1554101357660,4.9178405,1.6616267,8.250671,-0.0037910298,0.00026572638,5.375614000000001e-05,22.26,10.5,-32.219997
1554101357680,4.9346004,1.637684,8.260247999999999,-0.0025692992000000002,0.0020983220999999997,5.375614000000001e-05,21.9,11.28,-33.42
1554101357701,4.9393888,1.637684,8.265037,-0.0019584339999999998,0.0020983220999999997,-0.00055710913,21.96,11.88,-32.7
1554101357720,4.9585433,1.6592325,8.265037,-0.00012583824,0.0014874570000000002,-0.00055710913,21.9,11.099999,-31.8
1554101357741,4.9537544,1.6664151999999999,8.262642,-0.0007367035000000001,0.0020983220999999997,5.375614000000001e-05,21.779999,10.44,-32.1
1554101357760,4.948966,1.6568381999999997,8.243488000000001,0.0023176228,0.00026572638,-0.0060548964,22.14,10.5,-32.04
1554101357780,4.96812,1.664021,8.272219999999999,0.0017067576000000001,0.00026572638,-0.0048331656,22.5,10.559999000000001,-32.52
1554101357800,4.9346004,1.664021,8.250671,0.0010958922,0.0051526483,-0.00055710913,22.14,11.04,-32.7
1554101357820,4.9106574,1.6592325,8.248277,-0.00012583824,0.00026572638,-0.00055710913,22.199999,11.219999000000001,-31.92
1554101357841,4.929812,1.6400781999999998,8.265037,0.002928488,0.0020983220999999997,-0.0017788396,22.92,10.62,-31.32
1554101357860,4.9441776,1.6520496999999998,8.305738999999999,-0.0025692992000000002,0.0069852443,-0.002389705,22.859999,10.44,-31.8
1554101357880,4.96812,1.6448668000000002,8.28898,0.0023176228,0.0020983220999999997,-0.0042223004,22.68,10.8,-32.76
1554101357900,4.948966,1.6664151999999999,8.236305,0.0017067576000000001,-0.00034513889999999997,-0.007276627,22.439999,10.26,-32.88
1554101357920,4.929812,1.6616267,8.245882,0.0023176228,0.0020983220999999997,-0.0036114353999999998,22.38,10.139999000000001,-32.64
1554101357940,4.9202347,1.6544438999999997,8.253065,-0.0007367035000000001,0.003930918,-0.0017788396,22.68,10.679999,-31.619999
1554101357960,4.95136,1.673598,8.277008,-0.0007367035000000001,0.0033200525,0.0024972172,22.5,10.86,-31.439999
1554101357981,4.946572,1.6592325,8.272219999999999,0.00048502699999999996,0.0008765916,-0.0017788396,22.14,11.28,-32.219997
1554101358000,4.946572,1.6592325,8.267431,-0.0013475687,0.0027091872999999997,-0.00055710913,22.199999,11.46,-32.399998
1554101358020,4.9393888,1.6616267,8.241094,-0.0013475687,0.00026572638,-0.00300057,22.439999,10.559999000000001,-32.7
1554101358040,4.946572,1.6592325,8.248277,-0.0013475687,0.003930918,-0.00055710913,22.439999,10.38,-32.219997
1554101358061,4.9178405,1.673598,8.2578535,-0.0025692992000000002,0.003930918,-0.0042223004,22.38,10.62,-31.32
1554101358080,4.901080599999999,1.6759924,8.279403,-0.0025692992000000002,0.004541783,-0.0048331656,21.96,11.219999000000001,-31.98
1554101358101,4.908263,1.6257126,8.28898,-0.0037910298,0.0020983220999999997,5.375614000000001e-05,22.14,11.4,-32.579997999999996
1554101358120,4.925023,1.647261,8.279403,-0.0007367035000000001,0.0008765916,-0.00300057,22.8,10.62,-32.16
1554101358140,4.9178405,1.6448668000000002,8.281796,0.0023176228,-0.00034513889999999997,-0.0011679743,23.16,10.62,-31.679997999999998
1554101358161,4.932206,1.6592325,8.265037,0.002928488,-0.0040103304,-0.0011679743,23.279999,10.92,-31.5
1554101358180,4.922629,1.6520496999999998,8.250671,0.0023176228,-0.0046211956,-0.0036114353999999998,22.92,11.04,-32.7
1554101358200,4.922629,1.6664151999999999,8.250671,-0.00012583824,-0.005232061,-0.002389705,22.98,10.74,-32.34
1554101358221,4.936994599999999,1.6352897,8.243488000000001,0.0023176228,-0.0009560041,-0.002389705,22.92,10.86,-31.199999
1554101358241,4.9346004,1.6520496999999998,8.253065,-0.0007367035000000001,-0.0040103304,-0.0048331656,22.56,10.5,-30.48
1554101358260,4.936994599999999,1.6568381999999997,8.265037,-0.0013475687,-0.0015668693,-0.0036114353999999998,22.74,10.26,-30.24
1554101358281,4.9417834,1.6424724999999998,8.2387,-0.00012583824,-0.0040103304,-0.005444030999999999,22.439999,10.44,-31.32
1554101358300,4.9346004,1.6520496999999998,8.260247999999999,0.0010958922,-0.005232061,-0.002389705,21.96,10.62,-32.399998
1554101358320,4.946572,1.6568381999999997,8.250671,0.0010958922,-0.0027885998,0.0012754864999999999,22.199999,10.5,-32.7
1554101358341,4.96812,1.6783867,8.284191,0.002928488,-0.003399465,0.0006646214,22.68,10.38,-31.98
1554101358360,4.965726,1.6592325,8.265037,0.0047610835,-0.005842926,-0.0011679743,22.68,10.38,-31.56
1554101358380,4.9346004,1.7071179,8.269825,0.005371949,-0.005842926,-0.0017788396,22.26,10.92,-31.98
1554101358400,4.922629,1.7214836,8.274613,0.005371949,-0.0046211956,-0.0017788396,22.02,10.98,-32.64
1554101358421,4.9202347,1.6855695,8.267431,0.005371949,-0.005232061,5.375614000000001e-05,22.26,11.04,-32.46
1554101358440,4.901080599999999,1.6568381999999997,8.248277,0.0072045447,-0.0046211956,-0.00055710913,22.5,10.86,-32.579997999999996
1554101358460,4.9346004,1.5969813,8.300951,0.009037141,-0.005842926,0.0037189478,21.779999,10.74,-32.7
1554101358481,4.9537544,1.6017698,8.293768,0.009648005500000001,-0.013173309,0.0012754864999999999,21.96,10.98,-32.04
1554101358500,4.9561486,1.647261,8.269825,0.009648005500000001,-0.019281961,-0.0048331656,22.74,10.8,-32.579997999999996
1554101358520,4.9561486,1.6975409,8.197997,0.0072045447,-0.0143950395,-0.0060548964,22.14,11.219999000000001,-33.0
1554101358540,4.9561486,1.7095122,8.20518,0.0017067576000000001,-0.0009560041,-0.005444030999999999,21.9,11.34,-32.7
1554101358561,4.9441776,1.6831752,8.212361999999999,-0.0037910298,0.003930918,-0.005444030999999999,22.32,10.92,-32.16
1554101358580,4.9346004,1.6712039,8.255460000000001,-0.004401895,-0.0015668693,-0.0042223004,22.32,10.62,-32.7
1554101358600,4.936994599999999,1.6520496999999998,8.269825,-0.00012583824,-0.0040103304,-0.007276627,22.02,10.08,-32.7
1554101358620,4.9274178,1.6616267,8.28898,0.0023176228,-0.0040103304,-0.00300057,21.96,9.84,-32.399998
1554101358641,4.9441776,1.6544438999999997,8.286585,0.002928488,-0.005842926,0.0006646214,21.84,10.44,-33.239998
1554101358660,4.948966,1.6496553,8.2387,0.0059828144,-0.009508118000000001,0.0024972172,21.779999,10.74,-32.88
1554101358681,4.9561486,1.6328955,8.226728,0.0059828144,-0.005232061,0.0018863518,21.9,10.62,-31.619999
1554101358700,4.982486,1.6568381999999997,8.236305,0.0047610835,-0.005232061,0.0006646214,22.02,10.86,-31.5
1554101358720,4.9776974,1.6879636999999998,8.219545,0.0010958922,-0.005842926,-0.00055710913,22.199999,10.86,-33.18
1554101358740,4.9872746,1.6975409,8.214757,0.00048502699999999996,-0.003399465,-0.00055710913,22.38,10.679999,-33.42
1554101358761,4.95136,1.7095122,8.197997,-0.0013475687,0.00026572638,-0.0017788396,22.38,10.62,-32.52
1554101358781,4.9274178,1.6927522000000002,8.214757,-0.0031801646000000003,0.0020983220999999997,-0.0017788396,22.02,10.92,-31.5
1554101358800,4.9393888,1.6927522000000002,8.243488000000001,-0.0025692992000000002,0.0033200525,0.0006646214,22.14,10.559999000000001,-31.14
1554101358820,4.9393888,1.6664151999999999,8.265037,-0.0007367035000000001,-0.0040103304,-0.00055710913,22.56,10.139999000000001,-31.679997999999998
1554101358840,4.9393888,1.6712039,8.265037,0.002928488,-0.003399465,0.0024972172,22.68,10.559999000000001,-31.92
1554101358861,4.932206,1.6712039,8.253065,-0.0007367035000000001,-0.0046211956,0.0006646214,22.32,10.86,-32.28
1554101358880,4.9393888,1.6831752,8.253065,0.00048502699999999996,-0.0046211956,0.0031080823,22.199999,10.679999,-31.32
1554101358900,4.9561486,1.6712039,8.233911500000001,-0.00012583824,-0.005232061,0.0006646214,21.96,10.86,-31.26
1554101358921,4.9537544,1.6688095,8.219545,0.0010958922,-0.003399465,-0.0017788396,21.72,11.219999000000001,-31.92
1554101358940,4.96812,1.664021,8.219545,-0.0037910298,-0.00034513889999999997,-0.00300057,21.84,11.04,-32.1
1554101358960,4.9585433,1.6999351000000003,8.2387,-0.0031801646000000003,0.0033200525,0.0012754864999999999,22.199999,10.559999000000001,-32.1
1554101358980,4.9633317,1.6927522000000002,8.214757,-0.0013475687,-0.00034513889999999997,-0.00055710913,22.619999,11.28,-31.199999
1554101359001,4.9585433,1.6831752,8.226728,-0.007456221,-0.0009560041,0.0018863518,22.32,11.82,-31.92
1554101359020,4.948966,1.664021,8.255460000000001,-0.0068453559999999995,0.0014874570000000002,0.0012754864999999999,22.02,10.92,-32.7
1554101359040,4.9633317,1.6568381999999997,8.272219999999999,-0.0068453559999999995,0.0033200525,0.0031080823,21.96,10.38,-32.399998
1554101359061,4.9585433,1.6759924,8.262642,-0.0031801646000000003,0.0020983220999999997,0.0018863518,21.96,11.04,-32.579997999999996
1554101359080,4.9537544,1.6855695,8.248277,-0.0013475687,0.0008765916,0.005551543000000001,21.9,11.099999,-32.46
1554101359100,4.922629,1.664021,8.260247999999999,-0.0025692992000000002,0.0014874570000000002,0.0024972172,22.14,10.62,-32.34
1554101359121,4.9609375,1.6544438999999997,8.262642,-0.004401895,0.004541783,0.0024972172,22.439999,11.4,-32.46
1554101359140,4.9872746,1.6305011999999999,8.281796,-0.0019584339999999998,0.0020983220999999997,0.0012754864999999999,22.38,11.46,-32.46
1554101359160,4.975303,1.6424724999999998,8.272219999999999,0.0010958922,0.0008765916,0.0012754864999999999,22.14,11.4,-32.94
1554101359180,4.975303,1.6496553,8.255460000000001,0.0017067576000000001,0.0020983220999999997,0.0031080823,21.96,11.34,-32.1
1554101359200,4.936994599999999,1.6688095,8.2387,0.00048502699999999996,0.0014874570000000002,0.0018863518,22.02,11.099999,-32.219997
1554101359221,4.932206,1.6951466,8.226728,-0.0007367035000000001,-0.0009560041,5.375614000000001e-05,21.779999,10.679999,-32.04
1554101359240,4.925023,1.6999351000000003,8.212361999999999,-0.0019584339999999998,0.003930918,0.0018863518,22.26,10.62,-31.679997999999998
1554101359260,4.948966,1.7071179,8.229122,0.00048502699999999996,0.0033200525,0.0037189478,22.38,10.86,-31.38
1554101359280,4.9609375,1.6975409,8.267431,-0.0037910298,-0.00034513889999999997,0.0024972172,23.039998999999998,10.92,-30.3
1554101359300,4.936994599999999,1.6520496999999998,8.272219999999999,-0.005623625,-0.0015668693,0.0037189478,23.1,11.28,-30.179997999999998
1554101359320,4.95136,1.6616267,8.267431,-0.0037910298,0.0027091872999999997,-0.00300057,22.38,11.34,-31.619999
1554101359340,4.929812,1.6664151999999999,8.265037,-0.0031801646000000003,0.0014874570000000002,5.375614000000001e-05,22.38,11.34,-33.0
1554101359361,4.9274178,1.6807808999999998,8.2387,-0.0025692992000000002,-0.0015668693,0.0006646214,22.439999,11.34,-32.399998
1554101359380,4.948966,1.6568381999999997,8.253065,-0.0019584339999999998,-0.0015668693,0.0012754864999999999,22.02,11.04,-32.399998
1554101359400,4.965726,1.6424724999999998,8.286585,-0.00012583824,0.0020983220999999997,0.0012754864999999999,22.439999,10.38,-31.92
1554101359421,4.965726,1.6712039,8.2387,-0.0013475687,-0.00034513889999999997,0.0031080823,22.92,10.2,-31.439999
1554101359440,4.9705143,1.6544438999999997,8.231517,0.00048502699999999996,0.0008765916,0.0018863518,22.8,10.5,-32.04
1554101359460,4.975303,1.6568381999999997,8.224333999999999,0.00048502699999999996,0.0027091872999999997,0.0012754864999999999,22.98,10.08,-32.399998
1554101359480,4.9609375,1.6400781999999998,8.236305,-0.0007367035000000001,0.0033200525,0.0012754864999999999,23.16,10.32,-32.7
1554101359501,4.95136,1.673598,8.262642,-0.0007367035000000001,0.0020983220999999997,5.375614000000001e-05,23.16,10.74,-31.32
1554101359520,4.96812,1.6592325,8.260247999999999,-0.0013475687,0.0027091872999999997,-0.00055710913,23.279999,11.04,-31.019999
1554101359540,4.9346004,1.6664151999999999,8.260247999999999,-0.0037910298,0.0027091872999999997,-0.0011679743,22.5,10.86,-32.28
1554101359561,4.9202347,1.664021,8.279403,-0.0007367035000000001,0.0027091872999999997,-0.00055710913,22.08,10.26,-32.82
1554101359580,4.9346004,1.664021,8.281796,-0.00012583824,-0.0046211956,-0.00300057,22.26,10.8,-32.1
1554101359600,4.922629,1.6831752,8.293768,0.0023176228,-0.0046211956,-0.00055710913,22.14,11.099999,-31.859999
1554101359621,4.936994599999999,1.6807808999999998,8.262642,-0.00012583824,-0.0046211956,0.0006646214,22.439999,10.679999,-32.1
1554101359640,4.9274178,1.6520496999999998,8.253065,0.00048502699999999996,-0.0027885998,5.375614000000001e-05,22.32,10.32,-31.92
1554101359660,4.9274178,1.6616267,8.245882,-0.0007367035000000001,-0.005232061,0.0018863518,21.84,10.38,-32.399998
1554101359680,4.9441776,1.6448668000000002,8.272219999999999,-0.0025692992000000002,-0.0027885998,-0.0011679743,22.14,10.92,-32.219997
1554101359701,4.9705143,1.6783867,8.250671,-0.00012583824,-0.0064537909999999995,-0.002389705,22.56,10.92,-32.399998
1554101359720,4.9585433,1.6783867,8.231517,-0.0013475687,-0.003399465,0.0031080823,22.92,10.26,-31.08
1554101359740,4.9585433,1.6257126,8.231517,0.0010958922,-0.007064656999999999,5.375614000000001e-05,22.8,10.32,-30.539998999999998
1554101359761,4.982486,1.6712039,8.255460000000001,-0.0019584339999999998,-0.00034513889999999997,-0.0017788396,21.72,10.32,-31.859999
1554101359780,4.989669,1.6903580000000002,8.260247999999999,-0.0019584339999999998,0.005763513499999999,-0.0011679743,22.02,9.9,-31.859999
1554101359800,4.975303,1.6807808999999998,8.260247999999999,0.0010958922,0.0027091872999999997,-0.002389705,22.08,10.139999000000001,-31.92
1554101359820,4.9393888,1.6616267,8.209969000000001,0.0010958922,0.0033200525,5.375614000000001e-05,22.439999,10.44,-30.96
1554101359840,4.925023,1.6544438999999997,8.229122,-0.0019584339999999998,0.0020983220999999997,0.0006646214,22.74,10.5,-29.939999
1554101359860,4.922629,1.6496553,8.2578535,-0.0019584339999999998,0.0014874570000000002,0.0006646214,22.14,11.04,-31.56
1554101359880,4.925023,1.6712039,8.260247999999999,-0.0019584339999999998,0.0033200525,0.0024972172,21.779999,11.219999000000001,-32.52
1554101359901,4.9441776,1.664021,8.265037,-0.0013475687,0.0020983220999999997,0.0018863518,22.02,10.679999,-32.28
1554101359920,4.946572,1.6712039,8.260247999999999,-0.0013475687,-0.0009560041,5.375614000000001e-05,22.26,10.44,-32.04
1554101359940,4.922629,1.6520496999999998,8.245882,-0.0019584339999999998,-0.0021777346,5.375614000000001e-05,22.68,11.099999,-31.74
1554101359960,4.9346004,1.664021,8.229122,-0.0013475687,0.0008765916,-0.00055710913,22.02,10.98,-31.98
1554101359981,4.936994599999999,1.6568381999999997,8.255460000000001,-0.0068453559999999995,0.0051526483,0.0006646214,21.96,11.58,-32.7
1554101360000,4.9609375,1.6664151999999999,8.262642,-0.005623625,0.0027091872999999997,-0.00300057,22.5,11.82,-32.82
1554101360020,4.936994599999999,1.6400781999999998,8.236305,-0.00501276,0.00026572638,5.375614000000001e-05,22.26,10.679999,-31.619999
1554101360040,4.9537544,1.6520496999999998,8.281796,-0.0037910298,0.0008765916,0.0012754864999999999,22.74,10.26,-31.199999
1554101360060,4.965726,1.6520496999999998,8.274613,-0.0013475687,0.00026572638,-0.00055710913,22.619999,10.74,-31.439999
1554101360080,4.9417834,1.6448668000000002,8.2578535,-0.0007367035000000001,-0.0021777346,5.375614000000001e-05,22.32,10.679999,-31.8
1554101360100,4.965726,1.6544438999999997,8.267431,-0.0025692992000000002,-0.0009560041,0.0006646214,22.38,10.8,-32.579997999999996
1554101360120,4.936994599999999,1.647261,8.243488000000001,-0.0019584339999999998,0.0033200525,-0.0017788396,22.08,11.04,-32.7
1554101360140,4.946572,1.6544438999999997,8.231517,-0.0025692992000000002,0.0027091872999999997,5.375614000000001e-05,22.26,10.559999000000001,-31.019999
1554101360160,4.96812,1.6568381999999997,8.267431,-0.0007367035000000001,-0.0015668693,-0.0017788396,22.26,10.679999,-30.84
1554101360181,4.9417834,1.6448668000000002,8.250671,-0.0025692992000000002,0.0008765916,-0.00300057,21.66,10.92,-32.52
1554101360200,4.948966,1.6616267,8.277008,-0.0025692992000000002,0.0027091872999999997,-0.00300057,22.08,10.8,-32.64
1554101360220,4.9346004,1.6568381999999997,8.269825,0.00048502699999999996,0.0020983220999999997,-0.0042223004,22.26,11.099999,-32.1
1554101360241,4.9393888,1.6664151999999999,8.255460000000001,-0.00012583824,0.0020983220999999997,-0.0017788396,23.279999,10.32,-30.0
1554101360260,4.9393888,1.6544438999999997,8.265037,-0.0007367035000000001,0.0008765916,-0.0017788396,23.64,9.96,-29.519999
1554101360281,4.972909,1.637684,8.255460000000001,-0.00012583824,0.0033200525,0.0006646214,23.22,10.62,-31.14
1554101360300,4.9537544,1.6496553,8.243488000000001,-0.0013475687,0.0033200525,-0.0017788396,22.98,11.04,-31.26
1554101360320,4.9633317,1.6137413,8.277008,-0.0025692992000000002,0.0063743787,-0.0036114353999999998,22.5,10.8,-31.8
1554101360340,4.9537544,1.6496553,8.267431,-0.00012583824,0.004541783,-0.0066657616,22.92,10.26,-30.84
1554101360360,4.932206,1.6520496999999998,8.250671,-0.0007367035000000001,-0.0009560041,-0.0066657616,23.16,10.38,-30.0
1554101360381,4.9346004,1.6424724999999998,8.248277,-0.0019584339999999998,0.00026572638,0.0006646214,23.039998999999998,10.559999000000001,-28.199999
1554101360400,4.929812,1.6185298000000001,8.272219999999999,0.0035393531,-0.003399465,-0.0042223004,22.74,10.679999,-29.099998
1554101360420,4.9417834,1.6592325,8.298556,0.005371949,-0.005232061,-0.0011679743,23.22,10.74,-30.72
1554101360440,4.9585433,1.6975409,8.274613,0.0059828144,-0.009508118000000001,-0.0011679743,22.32,10.559999000000001,-30.9
1554101360460,4.9417834,1.733455,8.231517,0.00781541,-0.011951578000000001,0.0006646214,22.14,10.92,-28.8
1554101360480,4.903475,1.6855695,8.219545,0.00781541,-0.005842926,5.375614000000001e-05,22.619999,11.099999,-28.74
1554101360500,4.915446299999999,1.6759924,8.2027855,0.002928488,0.0027091872999999997,0.0018863518,22.26,10.74,-29.279999
1554101360521,4.932206,1.6592325,8.224333999999999,-0.005623625,0.005763513499999999,0.0024972172,22.859999,10.62,-29.22
1554101360540,4.9585433,1.6592325,8.277008,-0.0037910298,0.0069852443,0.0024972172,23.039998999999998,10.679999,-30.119999
1554101360560,4.965726,1.647261,8.272219999999999,-0.0025692992000000002,0.0051526483,0.0031080823,22.14,10.679999,-30.3
1554101360580,4.9609375,1.6352897,8.308133,-0.0013475687,-0.0015668693,0.0006646214,21.779999,10.62,-31.38
1554101360601,4.96812,1.6328955,8.310528,0.0047610835,-0.007675522,-0.0011679743,22.439999,10.559999000000001,-32.64
1554101360620,4.9609375,1.6544438999999997,8.310528,0.009648005500000001,-0.0064537909999999995,-0.002389705,22.56,10.559999000000001,-32.579997999999996
1554101360640,4.9417834,1.6592325,8.284191,0.0133131975,-0.01561677,-0.0011679743,22.14,11.04,-32.76
1554101360661,4.9178405,1.6831752,8.253065,0.015145793000000001,-0.01806023,-0.00055710913,22.26,11.04,-31.019999
1554101360680,4.9346004,1.7071179,8.217151,0.012091467,-0.013784174,0.0006646214,22.56,10.98,-30.48
1554101360701,4.946572,1.7358493000000002,8.174054,0.0041502183,-0.007675522,-0.00055710913,22.14,10.86,-31.74
1554101360720,4.925023,1.6975409,8.181237,-0.0031801646000000003,-0.0027885998,-0.00055710913,21.66,10.38,-31.92
1554101360740,4.946572,1.6544438999999997,8.243488000000001,-0.011121413,0.0014874570000000002,-0.005444030999999999,21.42,10.44,-32.399998
1554101360760,4.96812,1.673598,8.279403,-0.0153974695,0.0027091872999999997,-0.005444030999999999,22.199999,10.62,-31.32
1554101360780,4.9585433,1.673598,8.279403,-0.00501276,-0.0009560041,-0.0060548964,23.1,10.8,-29.699999
1554101360800,4.9537544,1.6592325,8.253065,-0.00012583824,-0.003399465,-0.0060548964,22.56,10.8,-29.4
1554101360821,4.965726,1.6400781999999998,8.281796,0.00048502699999999996,-0.0064537909999999995,0.0006646214,22.199999,10.2,-29.82
1554101360840,4.9705143,1.6616267,8.269825,0.005371949,-0.013173309,0.004329813,22.439999,10.019999499999999,-30.0
1554101360861,4.96812,1.6831752,8.241094,0.008426275,-0.009508118000000001,0.0037189478,22.38,10.32,-29.4
1554101360880,4.98488,1.6975409,8.236305,0.009037141,-0.0046211956,0.0031080823,22.56,10.5,-29.279999
1554101360901,4.989669,1.6879636999999998,8.209969000000001,0.002928488,-0.0027885998,0.0006646214,22.8,11.099999,-29.4
1554101360920,4.965726,1.6975409,8.212361999999999,0.0017067576000000001,-0.0040103304,-0.00055710913,22.439999,10.98,-29.16
1554101360940,4.929812,1.6879636999999998,8.245882,-0.0013475687,0.0014874570000000002,0.0018863518,22.56,10.32,-29.34
1554101360960,4.922629,1.6783867,8.243488000000001,-0.0007367035000000001,0.0020983220999999997,0.0024972172,22.98,10.08,-29.519999
1554101360980,4.929812,1.6664151999999999,8.217151,-0.0031801646000000003,0.0020983220999999997,0.0031080823,22.92,10.019999499999999,-28.98
1554101361000,4.9537544,1.6879636999999998,8.2578535,-0.006234491,-0.00034513889999999997,-0.00055710913,22.859999,10.2,-29.699999
1554101361020,4.9585433,1.664021,8.262642,-0.0068453559999999995,-0.0009560041,0.0024972172,22.68,10.2,-30.599998
1554101361040,4.946572,1.6520496999999998,8.2578535,-0.0013475687,-0.005232061,0.0012754864999999999,22.38,10.2,-32.399998
1554101361060,4.9561486,1.6400781999999998,8.2387,-0.00012583824,-0.005842926,-0.00300057,22.439999,10.08,-32.16
1554101361081,4.9585433,1.6712039,8.2387,-0.0019584339999999998,-0.0040103304,-0.00300057,22.02,10.62,-32.04
1554101361100,4.975303,1.6712039,8.293768,-0.00012583824,-0.003399465,-0.0017788396,22.439999,11.519999499999999,-32.579997999999996
1554101361121,4.972909,1.6807808999999998,8.226728,0.0023176228,-0.0015668693,-0.0017788396,22.32,11.16,-32.399998
1554101361141,4.9537544,1.6688095,8.229122,0.0035393531,-0.003399465,5.375614000000001e-05,22.32,11.34,-32.579997999999996
1554101361160,4.9705143,1.6400781999999998,8.209969000000001,-0.0007367035000000001,-0.00034513889999999997,0.0012754864999999999,22.02,11.4,-32.7
1554101361181,4.9992456,1.6496553,8.233911500000001,-0.0013475687,-0.00034513889999999997,-0.00055710913,22.56,10.559999000000001,-31.199999
1554101361200,5.006428700000001,1.6712039,8.2387,-0.00012583824,-0.0009560041,0.0006646214,21.9,10.92,-31.98
1554101361221,4.9800916,1.6496553,8.224333999999999,-0.0019584339999999998,-0.0015668693,-0.002389705,21.96,10.5,-33.0
1554101361240,4.96812,1.6783867,8.224333999999999,-0.0013475687,0.0027091872999999997,-0.00300057,22.26,10.32,-32.399998
1554101361260,4.9441776,1.7095122,8.224333999999999,-0.004401895,0.005763513499999999,0.0024972172,22.5,10.62,-32.219997
1554101361281,4.95136,1.7047237000000002,8.236305,-0.0025692992000000002,0.0051526483,0.0024972172,22.32,9.9,-30.9
1554101361300,4.936994599999999,1.6759924,8.2387,-0.0031801646000000003,0.004541783,0.0012754864999999999,22.199999,9.84,-31.8
1554101361321,4.9537544,1.6664151999999999,8.2578535,-0.006234491,0.0027091872999999997,0.0037189478,22.32,10.26,-33.059998
1554101361340,4.9561486,1.6712039,8.260247999999999,-0.006234491,0.004541783,0.0049406779999999996,22.859999,10.62,-32.82
1554101361360,4.9393888,1.6783867,8.255460000000001,-0.0025692992000000002,0.003930918,5.375614000000001e-05,21.539998999999998,10.32,-31.92
1554101361380,4.929812,1.6783867,8.245882,-0.0031801646000000003,0.0033200525,-0.00055710913,21.6,10.679999,-31.26
1554101361401,4.925023,1.6783867,8.250671,-0.007456221,0.003930918,0.0018863518,21.84,10.8,-31.08
1554101361420,4.946572,1.6328955,8.253065,-0.007456221,0.0051526483,0.0037189478,22.68,11.4,-31.8
1554101361441,4.96812,1.6400781999999998,8.277008,-0.0025692992000000002,0.005763513499999999,0.0049406779999999996,22.08,11.04,-33.48
1554101361460,4.96812,1.6352897,8.281796,0.0010958922,0.0008765916,0.0006646214,21.9,11.219999000000001,-32.7
1554101361480,4.9800916,1.6424724999999998,8.274613,0.0023176228,-0.0046211956,-0.0011679743,22.5,10.92,-32.04
1554101361500,4.9609375,1.6448668000000002,8.245882,0.0010958922,-0.0021777346,-0.002389705,22.92,10.5,-31.56
1554101361520,4.948966,1.6927522000000002,8.214757,-0.0019584339999999998,-0.003399465,-0.0042223004,22.5,10.38,-31.92
1554101361540,4.948966,1.6712039,8.2387,-0.005623625,0.0020983220999999997,-0.0017788396,22.14,10.86,-32.7
1554101361560,4.948966,1.6831752,8.284191,-0.00501276,0.0008765916,0.0006646214,22.56,10.26,-32.82
1554101361581,4.9609375,1.6879636999999998,8.265037,-0.0037910298,0.00026572638,-0.002389705,22.68,10.62,-32.04
1554101361600,4.9633317,1.6879636999999998,8.265037,-0.0025692992000000002,0.0014874570000000002,5.375614000000001e-05,23.4,10.86,-30.599998
1554101361620,4.9561486,1.6664151999999999,8.262642,-0.00012583824,0.0020983220999999997,0.0006646214,22.92,11.28,-31.08
1554101361640,4.936994599999999,1.664021,8.236305,0.0010958922,0.0014874570000000002,0.0012754864999999999,21.84,10.559999000000001,-33.059998
1554101361660,4.9561486,1.6568381999999997,8.265037,-0.0007367035000000001,0.0008765916,0.0006646214,21.96,10.44,-33.54
1554101361680,4.9776974,1.6592325,8.2387,-0.0025692992000000002,0.0020983220999999997,0.0006646214,22.32,11.099999,-32.52
1554101361700,4.9609375,1.6592325,8.2578535,-0.0025692992000000002,0.0020983220999999997,0.0012754864999999999,22.74,10.139999000000001,-31.019999
1554101361721,4.9633317,1.6831752,8.267431,0.0010958922,0.0033200525,5.375614000000001e-05,22.439999,10.32,-31.32
1554101361740,4.9633317,1.6975409,8.279403,0.00048502699999999996,-0.00034513889999999997,-0.0017788396,22.26,10.92,-32.04
1554101361761,4.9417834,1.6759924,8.269825,0.0017067576000000001,0.0033200525,0.0031080823,22.02,10.559999000000001,-32.64
1554101361780,4.932206,1.6664151999999999,8.212361999999999,0.002928488,0.0027091872999999997,0.0024972172,22.26,10.139999000000001,-32.64
1554101361800,4.903475,1.6520496999999998,8.250671,-0.0037910298,0.0033200525,5.375614000000001e-05,22.26,10.86,-32.219997
1554101361820,4.922629,1.6568381999999997,8.272219999999999,-0.0025692992000000002,0.0020983220999999997,-0.00055710913,21.84,10.98,-31.38
1554101361841,4.9417834,1.647261,8.296163,-0.004401895,0.0020983220999999997,0.0024972172,22.619999,11.04,-31.619999
1554101361860,4.9441776,1.647261,8.272219999999999,-0.0025692992000000002,-0.0015668693,0.0018863518,22.56,11.099999,-31.8
1554101361880,4.9561486,1.6520496999999998,8.272219999999999,-0.0019584339999999998,-0.0021777346,-0.00055710913,21.779999,11.4,-32.7
1554101361901,4.9561486,1.6783867,8.236305,-0.00012583824,-0.00034513889999999997,0.0018863518,22.199999,10.8,-32.1
1554101361920,4.948966,1.673598,8.267431,-0.0007367035000000001,-0.0027885998,-0.0017788396,22.32,10.5,-31.92
1554101361940,4.946572,1.6616267,8.243488000000001,-0.0031801646000000003,-0.0021777346,-0.0011679743,22.5,10.679999,-32.7
1554101361960,4.95136,1.664021,8.260247999999999,-0.0019584339999999998,-0.003399465,-0.002389705,22.56,10.86,-32.88
1554101361980,4.9441776,1.664021,8.255460000000001,-0.0013475687,-0.0021777346,5.375614000000001e-05,22.74,11.28,-33.12
1554101362000,4.9609375,1.6664151999999999,8.2578535,0.0010958922,-0.003399465,-0.00055710913,22.56,11.219999000000001,-32.76
1554101362021,4.9609375,1.6520496999999998,8.226728,-0.0007367035000000001,-0.003399465,-0.0011679743,21.96,11.34,-32.28
1554101362040,4.9776974,1.6712039,8.250671,-0.0013475687,-0.00034513889999999997,-0.0017788396,21.84,10.98,-32.1
1554101362060,4.9633317,1.6592325,8.265037,-0.0025692992000000002,0.00026572638,-0.0011679743,22.08,10.32,-31.74
1554101362080,4.96812,1.6544438999999997,8.248277,-0.00501276,0.0008765916,-0.0011679743,22.5,10.32,-31.98
1554101362100,4.95136,1.6496553,8.255460000000001,-0.0031801646000000003,0.0020983220999999997,-0.0017788396,22.859999,10.679999,-32.82
1554101362120,4.9537544,1.6688095,8.267431,-0.0031801646000000003,-0.0009560041,-0.002389705,22.439999,11.28,-32.399998
1554101362141,4.95136,1.6664151999999999,8.253065,-0.004401895,0.0020983220999999997,-0.0011679743,22.5,11.58,-31.98
1554101362160,4.9561486,1.6616267,8.253065,-0.0019584339999999998,0.0027091872999999997,-0.00300057,22.38,11.099999,-32.64
1554101362180,4.9609375,1.664021,8.255460000000001,-0.0007367035000000001,0.00026572638,-0.0011679743,22.08,11.759999,-32.94
1554101362200,4.9609375,1.6568381999999997,8.265037,0.0017067576000000001,0.0014874570000000002,0.0018863518,21.84,11.099999,-32.52
1554101362220,4.936994599999999,1.6712039,8.272219999999999,0.0023176228,0.0008765916,0.0018863518,21.9,9.78,-31.5
1554101362240,4.946572,1.6520496999999998,8.245882,0.0017067576000000001,-0.0009560041,5.375614000000001e-05,21.84,10.08,-30.779999
1554101362260,4.95136,1.6328955,8.248277,0.0047610835,-0.0015668693,-0.0017788396,22.08,10.559999000000001,-30.48
1554101362280,4.946572,1.6400781999999998,8.241094,-0.00012583824,-0.0009560041,-0.00300057,22.56,10.139999000000001,-30.0
1554101362301,4.9417834,1.6783867,8.281796,-0.0019584339999999998,-0.0027885998,-0.00300057,22.56,10.5,-29.939999
1554101362320,4.9393888,1.7023293999999998,8.262642,0.0010958922,-0.00034513889999999997,5.375614000000001e-05,22.439999,10.92,-31.14
1554101362340,4.946572,1.7119064,8.250671,0.0041502183,-0.0046211956,0.0024972172,22.74,10.86,-32.16
1554101362361,4.936994599999999,1.6951466,8.224333999999999,-0.0007367035000000001,-0.0027885998,0.0012754864999999999,22.199999,11.04,-32.34
1554101362380,4.95136,1.6879636999999998,8.241094,-0.0037910298,0.0051526483,-0.0011679743,21.66,11.46,-32.94
1554101362400,4.9537544,1.6807808999999998,8.267431,-0.0037910298,0.004541783,0.0006646214,21.779999,11.16,-32.88
1554101362420,4.922629,1.6664151999999999,8.248277,-0.0031801646000000003,0.0014874570000000002,0.0024972172,21.84,10.62,-32.52
1554101362441,4.925023,1.620924,8.250671,-0.0013475687,0.005763513499999999,0.0018863518,22.08,10.38,-31.74
1554101362460,4.9346004,1.6161355,8.255460000000001,-0.00501276,0.0008765916,0.0024972172,21.96,9.84,-32.04
1554101362480,4.9609375,1.6257126,8.255460000000001,-0.0037910298,0.0008765916,0.0012754864999999999,22.08,10.019999499999999,-33.0
1554101362500,4.9609375,1.6496553,8.248277,-0.0031801646000000003,-0.0015668693,0.0037189478,22.32,10.74,-33.239998
1554101362521,4.9609375,1.664021,8.245882,-0.004401895,0.0008765916,-0.0011679743,22.14,11.099999,-32.82
1554101362540,4.972909,1.6712039,8.262642,-0.0025692992000000002,0.0014874570000000002,0.0018863518,22.14,11.28,-31.619999
1554101362560,4.95136,1.6520496999999998,8.267431,-0.0025692992000000002,0.0014874570000000002,0.0018863518,22.26,10.74,-31.14
1554101362580,4.929812,1.6520496999999998,8.274613,-0.0025692992000000002,0.003930918,0.0006646214,21.779999,10.44,-32.1
1554101362600,4.9106574,1.664021,8.241094,-0.0037910298,0.005763513499999999,0.0012754864999999999,21.359999,11.04,-32.579997999999996
1554101362620,4.936994599999999,1.6496553,8.260247999999999,-0.009288817,0.01003957,-0.00055710913,21.96,11.219999000000001,-32.7
1554101362641,4.9393888,1.6328955,8.269825,-0.005623625,0.0075961095,0.0012754864999999999,23.16,10.679999,-32.16
1554101362660,4.9417834,1.6281068,8.310528,-0.0025692992000000002,0.0027091872999999997,-0.00055710913,23.22,10.8,-31.5
1554101362680,4.9441776,1.637684,8.293768,-0.0031801646000000003,-0.0009560041,5.375614000000001e-05,22.32,10.92,-32.16
1554101362701,4.9417834,1.6544438999999997,8.265037,0.00048502699999999996,-0.003399465,-0.0011679743,21.779999,10.2,-32.16
1554101362720,4.9417834,1.6759924,8.2578535,0.0035393531,-0.0040103304,0.0012754864999999999,21.9,10.38,-32.16
1554101362740,4.9202347,1.6831752,8.241094,0.0017067576000000001,-0.003399465,-0.00300057,22.14,11.04,-32.46
1554101362761,4.932206,1.6879636999999998,8.262642,-0.00012583824,-0.0009560041,-0.0017788396,22.74,10.74,-30.539998999999998
1554101362780,4.936994599999999,1.6999351000000003,8.267431,-0.0013475687,0.0020983220999999997,-0.00055710913,23.039998999999998,10.38,-29.099998
1554101362800,4.948966,1.6616267,8.272219999999999,-0.005623625,0.0027091872999999997,-0.00055710913,23.039998999999998,9.66,-30.06
1554101362820,4.9537544,1.6400781999999998,8.284191,-0.0031801646000000003,0.00026572638,-0.00300057,22.68,10.139999000000001,-31.38
1554101362840,4.96812,1.620924,8.281796,-0.0031801646000000003,0.0008765916,-0.0048331656,22.14,10.92,-32.7
1554101362860,4.98488,1.637684,8.272219999999999,-0.0025692992000000002,0.0033200525,-0.002389705,22.619999,10.92,-31.619999
1554101362880,4.982486,1.6448668000000002,8.253065,0.00048502699999999996,0.0008765916,-0.002389705,22.38,10.98,-31.859999
1554101362900,4.972909,1.647261,8.226728,0.00048502699999999996,0.0033200525,-0.0011679743,21.539998999999998,10.559999000000001,-32.64
1554101362920,4.96812,1.6424724999999998,8.250671,-0.00012583824,0.0008765916,-0.00300057,21.96,10.139999000000001,-32.219997
1554101362941,4.9633317,1.6496553,8.277008,0.0010958922,0.0020983220999999997,-0.0042223004,22.56,10.5,-32.94
1554101362960,4.9441776,1.6927522000000002,8.229122,0.0017067576000000001,0.0027091872999999997,-0.0048331656,22.92,10.92,-31.859999
1554101362980,4.903475,1.6759924,8.253065,-0.0013475687,0.003930918,-0.0011679743,22.619999,10.92,-31.679997999999998
1554101363000,4.8938975,1.6352897,8.260247999999999,0.0010958922,0.0008765916,-0.002389705,21.9,11.16,-33.0
1554101363021,4.9441776,1.664021,8.28898,-0.0025692992000000002,0.0069852443,-0.00300057,22.26,11.16,-32.82
1554101363040,4.936994599999999,1.6903580000000002,8.324894,0.0035393531,0.00026572638,-0.002389705,22.68,11.4,-31.8
1554101363060,4.9130519999999995,1.6664151999999999,8.274613,0.00781541,-0.0046211956,-0.00300057,22.859999,11.4,-31.199999
1554101363081,4.9178405,1.6807808999999998,8.248277,0.0065936795,-0.007675522,0.0006646214,22.32,10.679999,-31.32
1554101363100,4.896292,1.6759924,8.253065,0.0023176228,-0.005232061,0.0037189478,21.96,10.98,-32.219997
1554101363120,4.896292,1.6712039,8.219545,0.0023176228,-0.0015668693,0.0037189478,22.68,11.34,-32.46
1554101363140,4.922629,1.6783867,8.231517,-0.0019584339999999998,0.0027091872999999997,0.005551543000000001,22.859999,11.16,-32.04
1554101363161,4.905869,1.6616267,8.262642,-0.0025692992000000002,0.00026572638,0.0024972172,22.859999,11.219999000000001,-32.88
1554101363180,4.9705143,1.6568381999999997,8.279403,-0.0031801646000000003,-0.005232061,0.0006646214,22.38,10.5,-31.38
1554101363200,4.965726,1.6592325,8.267431,-0.0013475687,-0.005232061,0.0018863518,22.5,10.74,-30.96
1554101363220,4.948966,1.6855695,8.231517,0.0023176228,-0.0040103304,-0.00055710913,22.439999,10.44,-32.399998
1554101363241,4.936994599999999,1.673598,8.243488000000001,0.0023176228,-0.005232061,0.004329813,22.56,10.26,-32.7
1554101363260,4.9441776,1.6568381999999997,8.291373,0.00048502699999999996,-0.005232061,0.0037189478,22.56,10.2,-31.08
1554101363280,4.946572,1.6544438999999997,8.291373,0.00048502699999999996,-0.0027885998,0.0031080823,22.26,10.019999499999999,-29.82
1554101363300,4.9441776,1.6544438999999997,8.250671,0.0017067576000000001,-0.0046211956,0.0037189478,22.32,9.96,-30.42
1554101363320,4.9393888,1.664021,8.265037,-0.0019584339999999998,-0.0046211956,0.0018863518,22.38,10.139999000000001,-31.859999
1554101363340,4.932206,1.6520496999999998,8.248277,-0.0037910298,-0.0009560041,-0.0011679743,22.56,10.2,-32.16
1554101363360,4.9441776,1.6448668000000002,8.2387,-0.0025692992000000002,0.0008765916,0.0006646214,22.859999,10.2,-31.859999
1554101363380,4.9274178,1.6233183,8.2578535,-0.0031801646000000003,-0.0015668693,-0.00055710913,23.039998999999998,10.2,-30.3
1554101363400,4.9441776,1.6448668000000002,8.262642,-0.0007367035000000001,-0.0021777346,-0.0017788396,22.74,10.74,-30.119999
