TimeStamp,Ax,Ay,Az,Gx,Gy,Gz,Mx,My,Mz
1553851376168,1.7645805,9.72315,3.5315554,-0.22156265,-0.6549178000000001,-0.15730329999999998,-17.039998999999998,-9.179999,-39.059998
1553851376188,1.3862851,10.956202000000001,3.512401,0.17916495,0.24916276,-0.13042523,-16.74,-8.82,-39.54
1553851376208,2.4804687999999997,8.667274,3.440573,0.355705,0.52710646,-0.22266588,-16.74,-8.82,-38.7
1553851376228,1.8268316999999998,8.3129225,2.9162266,0.036833342000000005,-0.022672263999999998,-0.1591359,-16.74,-9.24,-38.46
1553851376248,1.3982565,8.885154,3.067066,0.00018142698,-0.04771774,-0.121262245,-16.56,-9.24,-39.239998
1553851376268,1.376708,8.715160000000001,3.2202997000000004,0.07409612,0.06040541,-0.07178216400000001,-16.68,-9.66,-39.66
1553851376288,1.7813405,9.031203999999999,3.2681851,0.090589486,0.076898776,-0.058953992999999996,-16.14,-9.48,-38.82
1553851376308,1.5826156,9.024022,3.0814316,0.06065708400000001,0.051853300000000005,-0.0155825615,-15.9,-9.12,-38.82
1553851376328,1.5754328000000002,9.170073,3.0024207,0.061267953,0.05612935,0.019847622,-15.78,-9.599999,-39.36
1553851376348,1.4844503,9.239507000000001,2.8515813,0.06187882,0.10316598,0.040006176000000004,-15.719999,-9.599999,-38.879996999999996
1553851376368,1.4006507,9.347249,2.9808722000000003,0.05882449,0.05246416,0.061997324000000006,-15.78,-9.54,-38.34
1553851376388,1.2306572,9.4095,2.7845416000000003,0.040498532000000004,0.028029552000000003,0.07849068,-15.839998999999999,-9.54,-38.579997999999996
1553851376408,1.2665714,9.517242,3.0215747000000004,0.020339978999999998,0.012757921,0.06566251,-16.199999,-9.48,-39.6
1553851376428,1.2138973,9.507666,2.8467927000000004,0.015453058,0.0011514811,0.037562713,-16.38,-9.48,-39.54
1553851376448,1.4293821000000002,9.517242,2.7414446,-0.018144531000000002,-0.028170051,0.0009108001,-16.32,-9.179999,-39.0
1553851376468,1.5131816999999999,9.471751,2.779753,-0.026696645,-0.031835243,-0.031465057000000005,-16.32,-9.059999000000001,-39.059998
1553851376488,1.5299416000000001,9.452597,2.6265194,-0.029750971,-0.034278702,-0.051623613,-16.44,-9.3,-38.64
1553851376508,1.6616267,9.37598,2.7294734,-0.018144531000000002,-0.00068111473,-0.07056043,-16.26,-9.599999,-38.7
1553851376528,1.6496553,9.454991,2.7677817000000005,-0.010814147,0.0017623462,-0.09438418,-15.9,-9.179999,-39.42
1553851376549,1.6664151999999999,9.641745,2.7031362,-0.013257608999999998,-0.023893993,-0.103547156,-15.48,-9.42,-39.3
1553851376568,1.5514901,9.534002000000001,2.5929997000000005,-0.01936626,-0.0067897669999999995,-0.09743851,-15.78,-10.26,-39.719997
1553851376588,1.5443072,9.332883,2.5139885,-0.040135678,0.015812248,-0.08888639,-16.02,-10.38,-39.0
1553851376609,1.4174107,9.253872,2.2554069,-0.08106365,0.07995310000000001,-0.077279955,-15.24,-9.96,-38.1
1553851376628,1.3695252,9.124581,2.3200524,-0.1030548,0.15447865,-0.06078659,-15.78,-9.96,-38.579997999999996
1553851376648,1.4221992,9.043175999999999,2.423006,-0.10794172,0.17341548,-0.04795842,-16.32,-10.019999499999999,-39.18
1553851376668,1.3623424,9.124581,2.6217308,-0.09633528400000001,0.14348307,-0.030243327999999996,-15.96,-9.48,-39.12
1553851376689,1.2761483999999998,9.210775,2.753416,-0.0890049,0.06040541,-0.014971696000000001,-15.36,-9.54,-38.7
1553851376708,1.3000913,9.277814999999999,2.7917243999999997,-0.10122221,-0.028780917000000003,0.008852048000000001,-15.179998999999999,-9.84,-38.76
1553851376728,1.3527653,9.28021,2.8467927000000004,-0.10549826,-0.1081934,0.02534541,-15.36,-9.3,-38.52
1553851376748,1.3982565,9.244295,2.9138324,-0.08656144,-0.17294511,0.04061704,-15.42,-9.059999000000001,-38.46
1553851376768,1.5203645000000001,9.174861,2.978478,-0.057239905,-0.18516241,0.041227907,-15.66,-9.78,-39.239998
1553851376788,1.6041641000000002,9.186832,3.0455174,-0.03402703,-0.20165578,0.035119254,-15.78,-10.019999499999999,-38.879996999999996
1553851376808,1.664021,9.265842999999998,3.0814316,0.009955271,-0.20165578,0.02534541,-15.9,-9.54,-38.64
1553851376828,1.6592325,9.323306,3.0383348,0.038665935,-0.1717234,0.015571565,-15.839998999999999,-9.48,-38.82
1553851376849,1.6352897,9.27542,2.9736892999999998,0.052104972,-0.12713023,0.010073779,-16.32,-9.36,-38.76
1553851376869,1.6257126,9.2419,3.0431232,0.06187882,-0.08925658,-0.007030448000000001,-16.92,-8.46,-39.239998
1553851376888,1.5562786,9.229928999999998,3.093403,0.06554401,-0.08192619999999999,-0.016804293,-16.859999,-8.76,-39.059998
1553851376909,1.5083932,9.229928999999998,3.0000262,0.061267953,-0.06787629,-0.033297653999999996,-16.32,-9.42,-38.64
1553851376929,1.4676905,9.160496,3.1484714,0.047828916,-0.035500433,-0.056510534,-16.44,-9.48,-39.18
1553851376948,1.3695252,9.119793,2.8994668,0.033168152,-0.031224377,-0.077279955,-16.619999,-9.54,-38.7
1553851376968,1.3407938,9.289786,2.8276386000000002,0.0069009447,0.012757921,-0.0852212,-16.619999,-9.66,-37.739998
1553851376988,1.4389591,9.397528999999999,3.0359404,0.0020140228,0.008481864,-0.09438418,-17.039998999999998,-9.599999,-38.04
1553851377008,1.3192455,9.474146000000001,3.0431232,0.020339978999999998,-0.11124772599999999,-0.06994957,-16.56,-9.12,-39.239998
1553851377028,1.8507744,9.155706,3.3328303999999997,0.03072469,-0.18699501,-0.09377331,-16.38,-9.3,-38.76
1553851377048,2.1476645,8.74868,3.1963567999999998,0.023394305,-0.23403163,-0.16341196,-16.38,-9.36,-38.34
1553851377068,1.8100717,8.777411,3.1915683999999995,0.014231328,-0.18149722,-0.24221356,-17.039998999999998,-9.24,-38.76
1553851377088,0.92658436,9.301758,2.7175019,0.009955271,-0.10208475,-0.23305058,-17.52,-9.42,-38.7
1553851377109,0.51716334,9.692024,2.3487834999999997,-0.016922799999999998,-0.00068111473,-0.09560591,-16.859999,-9.54,-39.12
1553851377128,1.5203645000000001,9.320911,3.0479119999999997,0.017285653999999998,0.041468587,-0.05284534,-16.619999,-9.719999000000001,-38.82
1553851377148,1.5802213999999999,9.273026,3.2274826,0.06493314,-0.030613512000000002,-0.06017572400000001,-17.22,-9.96,-38.7
1553851377169,1.4389591,9.443019999999999,2.7486273999999997,0.07287439,0.046966374000000005,-0.07422563,-17.58,-10.32,-38.7
1553851377188,1.3814965,9.364009,2.7582044999999997,0.041109398,0.07506618,-0.041849766000000004,-16.56,-10.44,-38.34
1553851377208,1.5059988000000002,9.308941,2.7366562,0.020339978999999998,0.12332453,-0.035741117,-16.56,-9.84,-39.059998
1553851377228,2.0662591,9.033599,3.7063375,0.03561161,-0.0067897669999999995,-0.10049283,-16.74,-9.54,-38.52
1553851377248,1.010384,9.27542,2.9162266,0.045385458,-0.03305697,-0.07422563,-16.68,-10.32,-38.46
1553851377269,0.9672870000000001,9.232324,2.7845416000000003,0.04966151,-0.0067897669999999995,-0.06811697,-16.92,-10.62,-39.059998
1553851377289,1.2426286,9.330489,2.9258040000000003,0.04477459,-0.053215526,-0.10476889,-16.619999,-10.08,-38.94
1553851377308,0.6847626,9.617802000000001,2.8252442,0.055770165999999996,0.00909273,-0.05223448,-16.44,-10.139999000000001,-38.82
1553851377328,1.2067145000000001,9.179649000000001,2.9234095,0.060046222,-0.034889567999999996,-0.07972341,-16.98,-11.099999,-38.219997
1553851377348,1.201926,8.978531,2.597788,0.013009597,-0.10758253,-0.112099275,-16.98,-10.8,-38.7
1553851377369,0.5243462,9.912297,2.6337023,0.008733541,-0.04955033599999999,-0.051012743,-17.1,-9.96,-38.94
1553851377388,1.0989721000000001,9.536397000000001,2.7127132,0.011177001,-0.003735441,-0.032686785,-17.1,-10.08,-38.579997999999996
1553851377408,1.1181264,9.352037,2.7893302,0.004457484,-0.01167669,-0.048569287999999995,-16.8,-10.679999,-38.46
1553851377428,0.94095,9.323306,2.8156672,-0.03769222,-0.10880426,-0.10476889,-16.619999,-10.86,-38.16
1553851377448,0.9217958,9.177256,2.49244,-0.018755395,0.04879897,-0.046125825,-16.92,-10.74,-38.64
1553851377469,1.0606636999999999,9.352037,2.7342618,-0.038913947000000004,0.034138203,-0.051623613,-17.22,-11.04,-39.18
1553851377488,0.90024734,9.565128,3.0718546,-0.045633465,0.015201381000000002,-0.04001717,-16.8,-11.04,-38.82
1553851377509,0.80687064,9.4932995,2.7941186,-0.07190067,-0.020228801,-0.021691214,-16.859999,-10.2,-38.219997
1553851377528,0.7398309000000001,9.347249,2.8970726000000004,-0.09022663,-0.06298937,-0.012528235,-17.039998999999998,-10.5,-38.579997999999996
1553851377548,0.7853220999999999,9.471751,2.9401696,-0.08961576,-0.11063685,-0.00947391,-17.46,-11.04,-38.219997
1553851377568,0.6153286,9.502875999999999,2.935381,-0.07678760000000001,-0.11491292,-0.004586987,-17.22,-10.8,-37.92
1553851377588,0.74701375,9.332883,2.8084843,-0.07984192,-0.122854166,-0.00947391,-17.52,-10.26,-38.52
1553851377608,0.75180227,9.397528999999999,2.935381,-0.07923105,-0.17111252,-0.012528235,-17.94,-9.96,-38.579997999999996
1553851377629,0.9026415999999999,9.344854,2.8707354,-0.08106365,-0.16011694,-0.014971696000000001,-17.4,-10.92,-38.64
1553851377648,1.1492518999999999,8.923461999999999,3.1700199000000002,-0.08411797,-0.29511815,-0.09804937,-17.039998999999998,-10.86,-38.1
1553851377669,1.0774237,9.105427,2.9258040000000003,-0.04624433,-0.2486924,-0.2733677,-17.52,-9.84,-37.44
1553851377688,0.9217958,9.055147,2.9305923,-0.016311936000000003,-0.21204050000000002,-0.30513270000000003,-17.76,-10.019999499999999,-37.68
1553851377708,0.56265455,9.486116,2.7749646,-0.0010403035,-0.1625604,-0.31246307,-17.94,-9.96,-38.28
1553851377728,0.77574503,9.014444000000001,3.1077687999999997,-0.012646743,-0.121632434,-0.2642047,-18.48,-10.74,-38.28
1553851377749,0.7206767,9.088667,3.0407290000000002,-0.012035878,-0.12713023,-0.2098377,-17.94,-10.8,-37.559998
1553851377768,0.818842,8.73192,2.9042554,-0.035859622,-0.10941513,-0.17929445,-17.22,-9.96,-38.04
1553851377789,0.6608198000000001,7.862798700000001,2.7701759999999997,-0.04257914,-0.058102448,-0.20250732,-17.4,-10.019999499999999,-37.98
1553851377808,0.6488484999999999,6.763826400000001,2.578634,-0.057239905,0.16058731,-0.2452679,-17.64,-10.38,-38.16
1553851377829,-0.071828246,6.012023999999999,2.4948344,-0.10794172,0.08850521,-0.13347955,-17.699999,-11.4,-38.28
1553851377848,0.50998056,6.0814580000000005,2.0399222,-0.23439083,0.2961994,-0.06078659,-17.58,-11.519999499999999,-38.1
1553851377868,1.0055954,6.9673395000000005,2.6456738,-0.28875783,0.5155,-0.22694194,-17.46,-11.04,-37.92
1553851377889,1.3695252,7.3025384,4.3887057,-0.12382422,0.34812295,-0.34972587,-17.34,-10.139999000000001,-38.16
1553851377908,0.6464542,7.975329400000001,2.8994668,-0.049298655,0.31086016,-0.37843654,-17.16,-9.84,-38.579997999999996
1553851377928,2.5235654999999997,11.102252,2.9018610000000002,-0.01936626,0.3084167,-0.5067182,-15.96,-10.019999499999999,-39.36
1553851377948,3.5938065000000003,15.924322,4.2258949999999995,-0.119548164,0.92783403,-1.2037153999999999,-15.179998999999999,-10.26,-39.54
1553851377969,-2.0925963,11.504491,3.0407290000000002,0.053326704,0.5539845999999999,-0.7651142,-15.599998999999999,-10.74,-38.879996999999996
1553851377989,-1.4245936000000001,11.861238,3.7374629999999995,0.049050647999999995,0.42448112,-0.37782565,-15.24,-11.219999000000001,-39.12
1553851378008,-2.7390504,10.774237,3.3687446000000003,0.26346436,0.51977605,0.060775592999999996,-14.219999,-10.98,-39.6
1553851378028,-1.3096683,11.569136,2.1931557999999995,0.18344100000000002,0.28092778,0.07971242,-13.62,-11.46,-39.36
1553851378048,-0.600963,10.786208,3.0550947,0.0014031575,0.43242234,0.041838772999999996,-13.019999499999999,-11.88,-38.76
1553851378068,-0.5123747999999999,9.957788,2.6193366,-0.13604152,0.3786662,0.07238203,-12.599999,-11.28,-39.18
1553851378088,-0.46688359999999995,9.318518,3.093403,-0.30280775,0.257104,0.16156836,-12.42,-11.28,-40.2
1553851378108,-0.42378664,8.9498,3.3687446000000003,-0.3284641,-0.047106873,0.24464603,-12.66,-11.519999499999999,-40.44
1553851378129,-1.1157321000000002,8.763046000000001,3.5698638,-0.24416468,-0.11491292,0.31794986,-12.599999,-11.04,-39.96
1553851378149,0.43575802,8.791777,3.2729738,-0.14703709,-0.04649601,0.28862834,-12.179999,-10.74,-39.239998
1553851378168,0.52913475,8.825297,3.4884584000000003,-0.040135678,0.11660501,0.15179451,-12.179999,-10.92,-39.66
1553851378189,0.07422252,9.141341,3.3902931000000005,0.016063923,0.071400985,0.17195307,-12.42,-10.8,-40.5
1553851378208,-0.13168511,9.25866,3.2226939999999997,0.022783441,0.094003,0.19822028,-12.96,-10.74,-40.44
1553851378228,-0.14844504,9.340066,3.1484714,0.032557286,0.10560944,0.24342429999999998,-12.84,-10.5,-39.96
1553851378249,-0.021548472000000003,9.000079,3.014392,-0.02852924,0.08850521,0.31428468,-13.019999499999999,-10.74,-39.6
1553851378268,-0.06943397,9.28021,3.1460772,-0.045022603,0.03963599,0.43645772,-12.84,-10.92,-40.02
1553851378289,0.12689656,9.598647999999999,3.2370596000000003,-0.018144531000000002,-0.01167669,0.49876598,-12.3,-10.8,-40.14
1553851378308,-0.08140534,9.586677,3.0096035,0.0038466183,-0.08864571,0.5140376,-12.719999000000001,-10.92,-40.5
1553851378328,0.63208854,8.93304,3.0742488,0.0014031575,-0.031835243,0.4926573,-13.139999,-10.86,-39.899998
1553851378349,0.6249057,8.724737,3.1053743,0.026448634,0.120881066,0.308176,-13.2,-10.559999000000001,-39.239998
1553851378368,0.7733508000000001,8.985713,3.1365,0.025837766,0.12149194,0.21165931,-13.5,-9.9,-39.66
1553851378388,0.6656084,9.014444000000001,2.8898897,0.015453058,0.14409395,0.19638768,-13.799999,-9.36,-39.719997
1553851378409,0.54350036,9.002473,2.9617178,-0.005927225600000001,0.21739778,0.20860498,-13.62,-9.24,-39.96
1553851378428,0.45730647,9.04557,2.997632,0.015453058,0.1679177,0.20005287,-13.559999,-9.0,-39.96
1553851378449,0.098165266,8.985713,3.172414,0.055159297,0.22961508,0.26052853,-12.9,-9.059999000000001,-40.32
1553851378468,-0.028731298,8.324894,2.6863763,0.042941995,0.09278127,0.38575590000000004,-12.719999000000001,-9.36,-40.86
1553851378488,-0.40463245,8.559532,2.116539,-0.08411797,0.04391205,0.57023716,-13.08,-9.179999,-40.8
1553851378509,-0.39505535,8.727132000000001,1.1875603000000001,-0.34251398,0.41531809999999997,0.6007804,-12.96,-9.0,-40.379996999999996
1553851378528,0.6560313,9.534002000000001,4.158855399999999,-0.36939207,0.50572616,0.53908306,-13.559999,-8.94,-40.26
1553851378548,0.46927786,9.653716000000001,4.4988421999999995,-0.26737756,0.3542316,0.59222835,-13.5,-8.88,-39.96
1553851378568,0.7039168,9.27542,5.2243075,-0.16353045,0.44097444,0.53419614,-13.259998999999999,-8.22,-39.78
1553851378589,1.0415094999999999,9.842864,2.6791935000000002,0.07898304,0.23144768,0.40835792,-12.059999000000001,-7.56,-40.02
1553851378609,0.25858167,9.081485,2.997632,-0.109774314,0.6669946,0.42301866,-11.519999499999999,-7.62,-40.379996999999996
1553851378628,0.37829542,8.626572999999999,2.8563697,-0.21301055,0.7690090999999999,0.5036529000000001,-10.679999,-7.02,-40.68
1553851378648,0.27294734,8.458973,2.1740015,-0.2857035,1.0310704,0.63926494,-10.2,-8.22,-41.52
1553851378668,1.1372806,7.582668300000001,2.2242813,-0.5068367,1.3157336000000002,0.78892696,-9.719999000000001,-8.22,-41.879996999999996
1553851378688,1.2689656,9.665688000000001,2.7917243999999997,-0.7542371,1.2894663,1.0393816999999999,-8.58,-6.48,-42.0
1553851378708,0.07422252,6.533976,3.9146392,-1.0553937,1.5020474,1.1859893999999997,-8.28,-6.18,-42.12
1553851378728,1.2210802,4.860378,3.7278860000000003,-1.3021833,1.2552578,1.0509882,-7.259999799999999,-5.4,-42.3
1553851378748,1.7741576000000001,6.0934295999999994,4.558699,-1.3840392,0.92111456,0.84634835,-5.8799996,-3.6,-42.719997
1553851378768,2.0351336,6.5196104,4.786155,-1.3559395,0.837426,0.852457,-5.16,-2.58,-42.719997
1553851378789,3.9529476000000003,5.935407,3.6871831,-1.580127,0.69570524,0.18844643,-4.3199997,-1.86,-42.36
1553851378808,-0.43815228,7.594639999999999,6.605803999999999,-1.2490379999999999,0.6382839,0.72234267,-3.84,-0.35999998,-43.26
1553851378828,1.960911,7.144516,5.95935,-1.0431764000000001,0.3010863,0.84207225,-3.6599998,0.84,-43.14
1553851378848,1.786129,8.631361,5.145296599999999,-0.9008448,0.17891327,0.9599691999999999,-3.3,1.1999999,-42.239998
1553851378868,2.482863,9.306546,5.3512044,-0.69070715,0.09827905,1.051599,-3.12,1.9799999,-42.84
1553851378889,2.403852,9.079089999999999,4.7334814000000005,-0.58686006,0.049409837000000005,1.1841568,-2.3999999,3.0,-42.899998
1553851378908,3.4908525999999998,9.361614,4.9417834,-0.53310394,0.10438771,1.1817133,-1.74,3.6599998,-42.96
1553851378928,3.3424077000000003,8.9976845,5.7223167,-0.43231115,0.23022595,1.1646091,-1.62,3.84,-42.84
1553851378949,2.9665065,8.435030000000001,5.9737160000000005,-0.3388488,0.2522171,1.1694958999999998,-1.68,3.84,-42.6
1553851378968,3.0359404,8.327288000000001,6.423839,-0.22644958,0.2290042,1.0821424,-2.34,4.56,-42.36
1553851378988,3.0742488,7.798153,6.28976,-0.18429989,0.25649315,0.99601024,-1.9799999,5.3399997,-42.96
1553851379008,2.4948344,7.563514,6.0479383,-0.30219686,0.33040783,0.87689155,-1.4399998999999999,5.3399997,-43.02
1553851379028,1.7238779,7.2618356,5.1309309999999995,-0.6332858,0.29681027,0.63498896,-1.14,5.94,-42.36
1553851379048,2.2769554,6.8883285999999995,5.279376,-0.92466855,0.3817205,0.31978247,-0.29999998,6.48,-43.02
1553851379068,2.3631492,7.546754400000001,6.2682114,-1.0114113999999998,0.31208187,0.19027902,0.06,7.2,-42.66
1553851379089,2.6552507999999997,7.427040600000001,7.1062080000000005,-1.0095788,0.051242433,0.23242873,0.29999998,8.28,-42.12
1553851379108,3.0335462000000004,6.5411586999999995,6.9290313999999995,-0.9588770000000001,-0.028780917000000003,0.2800762,-0.17999999,8.34,-42.66
1553851379128,3.2681851,5.889916,6.58665,-0.91061866,0.055518486,0.2715241,0.17999999,8.88,-42.18
1553851379148,3.1077687999999997,6.2538457,6.2945485,-0.89168185,0.071400985,0.26541546,0.78,9.96,-41.94
1553851379168,2.779753,5.9713216,6.1317377,-0.9503249,0.21617605,0.2800762,0.96,11.219999000000001,-41.7
1553851379188,2.6504622,5.6313343,6.3711652999999995,-1.0230179,0.30719498,0.2996239,1.14,11.58,-41.579997999999996
1553851379208,2.5834224,5.047130999999999,6.943397,-1.0877695,0.30230805,0.2715241,1.62,12.24,-41.34
1553851379228,2.403852,4.800521,6.811711999999999,-1.1714581,0.24183238,0.23365045,2.52,13.38,-41.46
1553851379248,2.2075214,4.537151000000001,6.737489,-1.2093318000000002,0.20456961,0.17134221,2.28,14.58,-40.98
1553851379268,2.2003386000000003,4.5060253,6.857203,-1.2777486999999998,0.17036116,0.123083845,2.28,15.24,-40.5
1553851379289,2.22907,4.2019525,7.4222517,-1.3400569,-0.050772063,-0.002143526,2.8799999,16.56,-40.98
1553851379308,2.3607549999999997,3.632115,8.542772,-1.7322325,-0.6598046999999999,-0.5207681,2.9399998,17.46,-40.44
1553851379330,0.9696813,2.7821474,11.430268,-1.8128666000000002,-1.2187464,-1.3148928999999998,2.52,17.82,-39.6
1553851379348,3.6536633999999997,5.595420400000001,13.65455,-2.2636849999999997,-0.48143208,-1.2861823000000001,1.74,18.48,-39.18
1553851379368,6.938608,9.198803999999999,13.053586,-2.2490243999999997,0.95898813,-0.94776297,0.9,20.46,-38.34
1553851379389,4.7454529999999995,7.127756,13.707223,-1.5337011999999999,0.37011409999999995,-0.29169366,0.84,22.68,-37.8
1553851379408,5.090228,4.06069,11.451817,-0.68093336,-0.32749403,-0.13775562,0.96,23.58,-36.54
1553851379428,3.014392,2.8443985,9.742303999999999,-0.19529545,-0.1662256,-0.167688,1.1999999,24.119999,-35.82
1553851379449,0.69912827,1.7573976999999998,7.2881727,-0.1311546,0.66455114,0.014960701000000002,1.62,24.72,-35.82
1553851379469,-1.2306572,1.0846065,9.428655000000001,-0.48912165,1.4690607,0.063219056,1.14,25.5,-36.12
1553851379488,1.8483802,0.33040990000000003,9.107821000000001,-0.6632182,0.6034646,0.2012746,1.0799999,25.859999,-35.16
1553851379508,3.3639562000000005,0.7709564999999999,9.881172,-0.5214975000000001,0.40676599999999996,0.24342429999999998,1.8,26.699999,-34.14
1553851379528,4.5347567,0.88588166,10.853247999999999,-0.37672246,0.06834666,0.2556416,2.34,27.0,-33.66
1553851379549,3.4166303,0.749408,9.538791,-0.3700029,-0.2890095,0.38819936,2.76,26.88,-33.96
1553851379570,3.258608,0.7134939,9.737515,-0.27043188,-0.11124772599999999,0.41691002,3.6599998,26.699999,-33.96
1553851379589,3.275368,1.0415094999999999,9.73991,-0.29486647,-0.03366784,0.4242404,3.4199998,27.66,-33.54
1553851379608,3.0886145000000003,1.3671309,9.816526,-0.3034186,-0.110025994,0.35460177,3.06,28.14,-33.059998
1553851379628,3.3998702000000005,2.0494993000000004,9.617802000000001,-0.18674333,-0.33421353,0.253809,3.12,27.96,-33.6
1553851379649,3.6081722000000003,2.4134290000000003,8.8324795,-0.09633528400000001,-0.22120346,0.22509834,3.0,27.539998999999998,-33.48
1553851379668,3.7757714,2.5570855,8.274613,-0.09938961,-0.008622363000000001,0.18172692,3.1799998,27.9,-33.6
1553851379688,3.7757714,2.5570855,8.274613,-0.09938961,-0.008622363000000001,0.18172692,3.1799998,27.9,-33.6
1553851379709,3.2202997000000004,2.5092,8.887547999999999,-0.15864354,0.12576799,0.093762316,3.48,27.72,-32.34
1553851379728,2.6265194,2.3607549999999997,8.882759,-0.19346286,0.13309838,0.09131885,3.6,27.84,-31.8
1553851379748,2.3607549999999997,2.2410412,9.131764,-0.26982102,0.123935394,0.079101555,3.84,28.019999,-31.26
1553851379768,2.2434354,2.1907616,9.577099,-0.29853168,0.16303077,0.073603764,3.48,27.42,-31.38
1553851379788,2.2147042999999997,1.7933118000000001,9.842864,-0.26676669999999997,0.1324875,0.07971242,3.72,28.32,-32.1
1553851379809,2.0830189999999997,1.472479,9.7135725,-0.20262584,0.049409837000000005,0.09681664400000001,4.44,28.199999,-31.5
1553851379828,2.0590763,1.1875603000000001,9.615408,-0.14825884,-0.028170051,0.10781222,4.5,27.72,-30.539998999999998
1553851379848,2.1452703,1.1564348,9.347249,-0.10855259,-0.07581754,0.10659049,4.62,28.14,-30.42
1553851379869,2.2625897,1.175589,9.14613,-0.07128981,-0.075206675,0.09681664400000001,4.44,28.199999,-31.32
1553851379888,2.4014575000000002,1.2234744,9.0838785,-0.024864048,-0.057491582,0.069327705,4.68,28.619999,-31.619999
1553851379909,2.482863,1.4365649,9.014444000000001,0.009344406,-0.02328313,0.058942996,4.02,29.039998999999998,-31.98
1553851379928,2.5906053,1.4245936000000001,9.373586,0.052104972,-0.04221995,0.03939531,3.48,28.98,-32.219997
1553851379949,2.6001825000000003,1.6328955,9.308941,0.0832591,-0.050772063,0.024734545,4.62,28.68,-31.92
1553851379968,2.6217308,1.7166951000000001,9.39274,0.096698135,-0.057491582,0.028399736000000002,4.68,29.039998999999998,-31.74
1553851379988,2.6911650000000003,1.8100717,9.306546,0.10647198,-0.041609086,0.025956277000000003,4.44,29.16,-31.14
1553851380008,2.6767993,1.9992193999999999,9.27542,0.06798747,-0.019617938,0.017404161,4.56,29.099998,-31.439999
1553851380028,2.9138324,1.9465453999999998,9.172467,0.03438988,0.029862148999999998,-0.003976122,4.38,29.099998,-32.04
1553851380048,2.8491871,1.9369683000000002,9.25866,0.025837766,0.02314263,-0.0076413136,4.44,28.439999,-31.859999
1553851380069,2.7127132,1.9752767,9.179649000000001,0.056381032000000005,0.017033977,-0.010084774,4.5,28.019999,-32.28
1553851380088,2.569057,1.8196488999999998,9.167678,0.016674789,0.005427538000000001,-0.021691214,4.5,28.74,-32.28
1553851380108,2.3966691000000004,1.7119064,9.155706,-0.025474913,0.023753494,-0.044904094000000006,4.56,28.5,-32.04
1553851380128,2.3966691000000004,1.7119064,9.150917999999999,-0.02608578,0.012147056000000002,-0.06384092,4.3199997,27.72,-32.399998
1553851380148,2.2985039,1.515576,9.119793,-0.040746543999999996,0.022531765,-0.10476889,4.44,28.38,-32.34
1553851380169,2.3272352,1.3814965,9.196409,0.0062900796,0.029862148999999998,-0.15608157,4.74,28.68,-32.34
1553851380188,2.3272352,1.4605076000000001,9.205987,0.05882449,0.042079452,-0.19517694,4.44,28.019999,-31.859999
1553851380208,2.2003386000000003,1.7286664,9.28021,0.070430934,0.032916475,-0.21105944,4.2599998,28.38,-31.859999
1553851380228,2.2314641,1.7406378,9.294575,0.10769371,-0.035500433,-0.22755279999999997,4.68,29.16,-31.56
1553851380248,2.2003386000000003,1.6712039,9.076694999999999,0.13457178,-0.015952745,-0.23915924,4.2,28.5,-31.56
1553851380269,2.2075214,1.7621863000000002,9.227535000000001,0.18649533,-0.027559185,-0.2733677,4.08,28.32,-31.38
1553851380288,2.310475,2.020768,9.342461,0.24636012,-0.015341881000000002,-0.2715351,4.02,28.68,-32.7
1553851380308,2.4517374,2.2601955,9.354432000000001,0.22375810000000002,-0.009844094,-0.25626346,4.02,28.859999,-32.28
1553851380329,2.7270790000000003,2.3942747000000004,9.608225,0.19443657,-0.05260466,-0.24771135,3.54,28.199999,-32.34
1553851380348,2.8731298,2.6911650000000003,9.692024,0.13335004,-0.098419555,-0.2770329,2.6399999,27.96,-32.399998
1553851380368,2.8779182,3.0431232,9.663293,0.06737660000000001,-0.12713023,-0.30513270000000003,2.58,28.38,-32.1
1553851380389,2.9401696,2.892284,9.364009,0.115634955,-0.14179099,-0.2819198,3.06,28.14,-32.46
1553851380408,2.7869357999999997,2.4637089,8.830086,0.18649533,-0.082537055,-0.24954395,2.76,27.72,-33.0
1553851380429,2.7246847,2.2961093999999997,8.607418,0.15717379999999997,0.037803393,-0.22144416,2.34,27.24,-33.239998
1553851380448,2.7510218999999996,2.4900458,8.741497,0.09608727,0.10072252,-0.19578782,2.9399998,26.699999,-33.059998
1553851380468,2.8108785,2.7246847,9.119793,0.07409612,0.109274626,-0.15241638,2.6399999,27.06,-33.36
1553851380488,2.743839,3.0167862999999997,9.246689,0.11685669,0.078731366,-0.09010813,2.22,27.779999,-33.719997
1553851380508,2.5283542000000003,3.1173458,9.270632,0.15473033,0.06284886599999999,-0.033297653999999996,2.28,27.539998999999998,-33.54
1553851380529,2.403852,3.0455174,9.165284,0.14068043,0.06895752,-0.005197852,2.6399999,26.82,-33.3
1553851380549,2.3870918999999997,2.8300327999999997,9.071907000000001,0.11441323,0.08850521,0.0045759915,2.58,26.88,-32.7
1553851380579,2.3248408,2.4972286,8.992896,0.080815636,0.090337805,0.02656714,2.28,27.779999,-32.34
1553851380588,2.310475,2.4110348,9.002473,0.07837218,0.08972695,0.033897523,2.58,28.26,-32.579997999999996
1553851380608,2.1332988999999998,2.3751206000000002,9.038387,0.08203737,0.08606175,0.046725694000000005,2.22,26.88,-34.26
1553851380628,2.030345,2.4541316,9.210775,0.10708285,0.07628789999999999,0.071771175,2.58,26.76,-33.719997
1553851380648,1.9920366000000003,2.5546912999999996,9.416683,0.12174361,0.03963599,0.093762316,3.6,27.0,-33.12
1553851380668,2.0064023,2.604971,9.402317,0.12601967,-0.022061398,0.10231443,3.48,26.46,-33.3
1553851380689,2.0159793,2.6791935000000002,9.239507000000001,0.12235448,-0.048328605,0.09498405,2.58,26.699999,-33.12
1553851380708,2.0183737,2.8300327999999997,8.9976845,0.102806784,-0.028780917000000003,0.07543636,2.7,26.939999,-33.719997
1553851380728,2.0255566000000003,2.9234095,8.885154,0.08875689,-0.009233228000000001,0.06810598,2.22,26.939999,-34.079997999999996
1553851380749,2.0662591,3.0096035,8.777411,0.07898304,-0.019007072,0.058942996,1.56,27.0,-33.96
1553851380768,2.073442,3.0383348,8.8324795,0.08631343,-0.05260466,0.054056074,2.52,26.46,-33.96
1553851380788,2.169213,3.1580484,9.002473,0.07409612,-0.04649601,0.054666944,2.9399998,25.8,-33.54
1553851380809,2.466103,3.2083282000000004,9.038387,0.0069009447,-0.05626985,0.05344521,2.28,26.099998,-33.12
1553851380829,2.5187771,3.0550947,8.901914,-0.039524816000000004,-0.05688072,0.054666944,2.52,25.98,-33.18
1553851380848,2.432583,2.8563697,8.844451,-0.049298655,-0.04344168,0.050390884000000004,2.3999999,26.16,-33.54
1553851380868,2.264984,2.743839,9.000079,-0.037081353,-0.013509285,0.054666944,2.7,26.58,-34.02
1553851380888,2.2769554,2.6839821,9.000079,-0.049298655,-0.020228801,0.04978002,2.6399999,26.279999,-34.38
1553851380908,2.2865324,2.6600394,9.098245,-0.059683368,-0.036111300000000006,0.040006176000000004,2.46,26.34,-33.96
1553851380929,2.3224466,2.6959534,9.009656,-0.07434413,-0.050772063,0.025956277000000003,2.52,26.16,-32.88
1553851380948,2.308081,2.7318675999999997,8.942616000000001,-0.07984192,-0.058102448,0.02412368,2.76,25.8,-33.239998
1553851380968,2.3392065,2.6025767,8.880365,-0.074955,-0.07642840599999999,0.021680217,3.12,25.8,-33.78
1553851380988,2.4254005000000003,2.5403256,8.865999,-0.049909525,-0.08131533,0.011906375,3.24,26.46,-33.78
1553851381008,2.4948344,2.6432792999999997,9.043175999999999,-0.038303085,-0.059324175,0.0027433957000000003,2.22,26.88,-34.26
1553851381029,2.6767993,2.7653873,9.201198,-0.051131252,-0.042830817,0.0033542612,2.28,26.4,-34.26
1553851381048,2.8635526000000002,2.8372157000000002,9.304152,-0.080452785,-0.034889567999999996,0.0051868567,2.9399998,26.82,-33.96
1553851381068,3.0550947,2.7558103,9.390346000000001,-0.09083749,-0.04649601,-0.0033652566,2.8799999,27.18,-34.079997999999996
1553851381088,3.0766432,2.8108785,9.177256,-0.07923105,-0.025115725,-0.021080348999999998,2.8799999,26.76,-34.079997999999996
1553851381108,3.1341057,2.8300327999999997,8.911489999999999,-0.09877874,0.050020702,-0.027189001,2.3999999,26.519999,-33.66
1553851381128,3.2250881000000002,2.760599,8.693612,-0.13237633,0.11293982,-0.043682362999999995,2.04,26.88,-33.54
1553851381148,3.2346652000000002,2.8851009999999997,8.739103,-0.20873448,0.19113056,-0.041849766000000004,2.9399998,27.18,-33.719997
1553851381168,3.2825508,2.8156672,9.320911,-0.24416468,0.24122153,-0.045514955999999995,2.82,27.84,-34.2
1553851381189,3.0527002999999997,2.7055306,9.591465,-0.18307814,0.25527143,-0.044904094000000006,2.9399998,27.779999,-33.18
1553851381208,2.7222904999999997,2.5283542000000003,9.574705,-0.11343951,0.257104,-0.020469485,3.12,26.88,-32.52
1553851381229,2.4900458,2.2841382,9.794978,-0.040135678,0.26687786,0.008241183000000001,2.9399998,26.88,-32.7
1553851381248,2.1452703,2.1309047000000003,9.651321000000001,0.045385458,0.23389114,0.04611483,2.9399998,26.939999,-33.239998
1553851381269,1.7717633000000002,2.1285102000000005,9.1628895,0.07898304,0.2119,0.071771175,2.76,27.24,-33.18
1553851381288,1.6041641000000002,2.0638650000000003,8.995291,0.08203737,0.20456961,0.05161261,2.8799999,27.48,-32.94
1553851381308,1.4317763000000001,2.1787900000000002,8.770228,0.077761315,0.17646979999999998,-0.027189001,3.0,28.019999,-32.94
1553851381329,1.3216397,2.3320236,8.858817,0.08692429,0.15020260000000002,-0.14142081,3.8999998999999996,27.66,-32.64
1553851381348,1.4533247999999999,2.317658,9.165284,0.10036333,0.15447865,-0.20800512,3.36,27.539998999999998,-32.34
1553851381369,1.7143008000000002,2.3128695,9.354432000000001,0.09914159,0.17036116,-0.21533549,3.12,27.539998999999998,-32.46
1553851381388,1.977671,2.4373717,9.474146000000001,0.08142651,0.17769155,-0.1609685,3.6,27.24,-32.7
1553851381408,2.1548474,2.7151077,9.3831625,0.09486554,0.16058731,-0.07666908,4.02,26.46,-33.66
1553851381429,2.2697724999999997,2.8300327999999997,9.466963,0.14190216,0.1202702,-0.002143526,3.48,26.82,-33.6
1553851381448,2.291321,2.8013015,9.517242,0.18588446,0.05796195,0.046725694000000005,3.48,26.88,-33.899998
1553851381469,2.1883671000000002,2.760599,9.304152,0.21887119,0.014590516000000001,0.063219056,4.3199997,26.939999,-33.36
1553851381489,2.0494993000000004,2.6744049,9.117398,0.20665388,0.03474907,0.060775592999999996,4.56,26.88,-33.18
1553851381508,1.8004947,2.604971,8.712766,0.14373475,0.11355069,0.043671365999999996,4.8599997,26.88,-33.12
1553851381528,1.7813405,2.832427,8.736709,0.056381032000000005,0.1660851,0.03939531,4.44,26.519999,-33.36
1553851381548,1.8244373999999999,2.8587642000000004,8.945011000000001,0.033168152,0.13859616,0.055277806,4.14,26.4,-33.66
1553851381569,1.7526091000000001,2.631308,9.076694999999999,0.07165266599999999,0.10255511,0.07421463,4.38,25.74,-33.84
1553851381589,1.7143008000000002,2.6121537999999997,9.107821000000001,0.10463938,0.07384445,0.08398847,4.08,25.439999,-33.899998
1553851381609,1.5706443,2.719896,9.105427,0.09914159,0.039025128,0.077879824,4.14,25.38,-34.079997999999996
1553851381629,1.4605076000000001,2.7653873,9.064724,0.06065708400000001,0.02069917,0.06749511,3.8999998999999996,26.279999,-34.02
1553851381648,1.4269878,2.743839,9.040782,0.038055072999999995,0.031083878,0.050390884000000004,3.72,26.34,-34.02
1553851381669,1.4605076000000001,2.7079248,9.055147,0.008122675,0.019477438,0.014349835,4.74,26.16,-33.48
1553851381688,1.4557191,2.6720107000000004,9.071907000000001,-0.002262034,-0.01167669,-0.018636888,4.92,26.16,-33.54
1553851381709,1.4341706,2.6983478,9.007261999999999,-0.0034837644,-0.012898419,-0.046125825,5.04,25.92,-33.6
1553851381728,1.5203645000000001,2.7294734,9.016839,-0.00531636,-0.009233228000000001,-0.07056043,5.58,25.38,-33.54
1553851381749,1.6041641000000002,2.7869357999999997,9.074302000000001,-0.013257608999999998,-0.020839668999999998,-0.08888639,4.92,25.56,-34.32
1553851381769,1.6400781999999998,2.8108785,9.12937,-0.035248756,-0.039165627,-0.09866023,3.8999998999999996,26.4,-34.32
1553851381788,1.6879636999999998,2.875524,9.155706,-0.048687793,-0.072152354,-0.10660148400000001,3.6599998,26.16,-33.719997
1553851381808,1.7071179,2.8515813,9.170073,-0.049298655,-0.103917345,-0.10110369999999999,4.2599998,25.68,-33.719997
1553851381828,1.6759924,2.8372157000000002,9.150917999999999,-0.037081353,-0.11552378,-0.08949725,4.8599997,25.92,-34.14
1553851381849,1.6951466,2.8635526000000002,9.196409,-0.030972700000000002,-0.10452819999999999,-0.08277774,4.2599998,26.099998,-33.42
1553851381868,1.7909175,2.978478,9.249083500000001,-0.029750971,-0.088034846,-0.07422563,3.8999998999999996,26.519999,-32.82
1553851381888,1.9369683000000002,2.9497466,9.201198,-0.04135741,-0.08986744,-0.06323005,4.14,26.58,-33.6
1553851381908,1.9848539,2.8156672,9.1628895,-0.049909525,-0.11124772599999999,-0.05284534,3.72,26.279999,-33.78
1553851381929,2.030345,2.7558103,9.081485,-0.048687793,-0.11674552,-0.039406307,4.2599998,26.16,-33.719997
1553851381948,2.0183737,2.7869357999999997,9.131764,-0.035248756,-0.11308032,-0.02596727,4.44,26.4,-33.899998
1553851381969,2.0518935000000003,2.8396098999999997,9.165284,-0.019977124,-0.10636079999999999,-0.016193425,4.74,26.76,-33.6
1553851381988,2.0806248,2.8563697,9.227535000000001,-0.013868473999999999,-0.098419555,-0.0058087176,4.56,26.76,-33.54
1553851382008,2.0758362,2.8635526000000002,9.225141,-0.012035878,-0.09292177,0.0051868567,4.08,26.279999,-32.94
1553851382029,2.0782306,2.8300327999999997,9.179649000000001,-0.01936626,-0.08559138,0.0112955095,3.36,26.64,-33.12
1553851382048,2.0710478,2.8108785,9.172467,-0.020587992,-0.082537055,0.0094629135,3.0,26.46,-33.48
1553851382068,2.0423164000000003,2.7773588,9.117398,-0.012035878,-0.07337408,0.008241183000000001,3.54,26.22,-33.66
1553851382089,1.9824595,2.875524,9.134158,-0.00531636,-0.05993504400000001,0.011906375,3.0,26.22,-33.84
1553851382108,1.9896424,2.8898897,9.14613,-0.005927225600000001,-0.047106873,0.013738968999999998,3.12,26.279999,-33.78
1553851382128,2.0518935000000003,2.8946784,9.172467,-0.008370686,-0.050161199999999996,0.0094629135,2.82,26.64,-33.6
1553851382149,2.1069617000000003,2.8467927000000004,9.1628895,-0.020587992,-0.044663414000000005,0.010684643999999998,2.6399999,26.88,-33.54
1553851382168,2.1596357999999998,2.8204557999999995,9.14613,-0.02608578,-0.034889567999999996,0.0070194528,2.76,26.46,-33.54
1553851382189,2.1883671000000002,2.7366562,9.12937,-0.027307509,-0.024504859,-0.004586987,3.6599998,26.039998999999998,-33.54
1553851382209,2.1811842999999995,2.7749646,9.138947,-0.025474913,-0.01778534,-0.011917368999999999,3.48,25.92,-33.899998
1553851382228,2.169213,2.7845416000000003,9.174861,-0.014479338000000001,-0.015952745,-0.021691214,3.06,25.92,-33.899998
1553851382248,2.1811842999999995,2.8180614,9.167678,-0.010203282,-0.014731015,-0.018636888,3.84,26.4,-33.719997
1553851382269,2.1644243999999997,2.8108785,9.177256,-0.014479338000000001,-0.008011498,-0.020469485,3.6,27.359999,-33.42
1553851382288,2.1979442000000002,2.7773588,9.172467,-0.016311936000000003,-0.0025137104,-0.021080348999999998,3.54,26.82,-33.78
1553851382308,2.1452703,2.753416,9.158101,-0.016922799999999998,0.0035949420000000003,-0.019247754,3.36,26.82,-33.84
1553851382329,2.1548474,2.7366562,9.143736,-0.010814147,0.004205807,-0.021691214,2.76,26.58,-33.66
1553851382348,2.1285102000000005,2.7989072999999998,9.174861,-0.0040946295,0.0048166723,-0.019247754,3.0,26.099998,-33.36
1553851382368,2.1069617000000003,2.8635526000000002,9.203592,0.00018142698,0.004205807,-0.011917368999999999,3.48,26.279999,-33.66
1553851382389,2.0973847,2.8204557999999995,9.182044,-0.00042943824999999995,0.012147056000000002,-0.003976122,3.9599998,26.22,-33.84
1553851382408,2.1380875,2.743839,9.143736,0.0020140228,0.009703594,-0.005197852,3.8999998999999996,25.619999,-33.84
1553851382428,2.1380875,2.7151077,9.103033,-0.005927225600000001,0.013368786,-0.010084774,3.48,25.56,-33.6
1553851382448,2.116539,2.753416,9.103033,-0.006538090799999999,0.018866573,-0.012528235,4.02,26.46,-33.0
1553851382469,2.073442,2.7510218999999996,9.12937,-0.00531636,0.024975225,-0.011917368999999999,3.8999998999999996,26.699999,-33.6
1553851382488,2.0518935000000003,2.7701759999999997,9.186832,0.00018142698,0.02680782,-0.014360831000000001,3.12,26.699999,-33.78
1553851382508,2.0782306,2.7725701000000003,9.210775,0.0020140228,0.023753494,-0.011917368999999999,3.1799998,27.0,-33.66
1553851382528,2.0638650000000003,2.7582044999999997,9.165284,-0.0034837644,0.028640417,-0.016193425,2.9399998,26.4,-33.899998
1553851382548,2.0542877,2.779753,9.103033,-0.008981552,0.028640417,-0.013749965500000001,2.52,26.039998999999998,-33.96
1553851382568,2.0255566000000003,2.813273,9.103033,-0.0077598216,0.022531765,-0.012528235,2.52,25.92,-34.32
1553851382589,2.0279508,2.7749646,9.14613,-0.0028728994,0.014590516000000001,-0.011306506000000001,2.34,26.22,-34.02
1553851382608,2.020768,2.7486273999999997,9.141341,-0.002262034,0.016423114,-0.00947391,3.1799998,26.22,-33.6
1553851382629,2.0351336,2.7366562,9.1628895,-0.00531636,0.026196957000000003,-0.0155825615,3.3,26.22,-33.96
1553851382648,2.0327394,2.7294734,9.153313,-0.010814147,0.028640417,-0.017415157,3.24,26.82,-33.719997
1553851382669,2.0183737,2.7821474,9.174861,-0.013257608999999998,0.028640417,-0.021080348999999998,3.6,27.06,-33.78
1553851382689,1.9992193999999999,2.762993,9.172467,-0.010814147,0.018866573,-0.018026022,3.6,26.939999,-34.38
1553851382708,1.9704881999999997,2.779753,9.165284,-0.005927225600000001,0.00909273,-0.012528235,3.4199998,26.76,-34.32
1553851382729,1.9872481,2.7677817000000005,9.138947,-0.0016511687,0.004205807,-0.00947391,2.6399999,26.58,-34.38
1553851382748,1.9800651999999999,2.7270790000000003,9.136553,0.00018142698,0.005427538000000001,-0.008252178,2.7,26.58,-34.14
1553851382768,1.9896424,2.7270790000000003,9.172467,-0.0028728994,0.0023732113,-0.0076413136,3.0,26.699999,-33.36
1553851382788,1.9872481,2.7294734,9.12937,-0.0040946295,-0.0019028451999999999,-0.011306506000000001,3.3,26.76,-33.54
1553851382809,1.9752767,2.7462332000000003,9.153313,-0.00531636,-0.0055680363,-0.013139101,3.12,27.06,-33.84
1553851382829,1.9728824,2.7677817000000005,9.153313,-0.0077598216,-0.0074006324,-0.01069564,2.7,27.0,-33.66
1553851382849,1.9872481,2.7390504,9.134158,-0.005927225600000001,-0.011065823999999998,-0.008252178,3.24,27.18,-33.54
1553851382868,2.0255566000000003,2.7342618,9.136553,-0.010814147,-0.01167669,-0.010084774,3.84,26.939999,-33.42
1553851382889,2.0471049999999997,2.7103189999999997,9.143736,-0.010814147,-0.015952745,-0.016804293,3.84,26.34,-33.18
1553851382909,2.0040080000000002,2.7486273999999997,9.186832,-0.0016511687,-0.018396208,-0.018026022,3.3,26.82,-32.399998
1553851382928,2.0040080000000002,2.82285,9.186832,0.00079229224,-0.023893993,-0.016193425,3.0,27.0,-31.98
1553851382948,2.020768,2.796513,9.172467,0.00079229224,-0.020228801,-0.01069564,3.12,26.64,-32.46
1553851382969,2.0447106,2.6791935000000002,9.134158,-0.00042943824999999995,-0.015952745,-0.00947391,3.06,26.34,-33.059998
1553851382990,2.0710478,2.6839821,9.093455,-0.010814147,-0.013509285,-0.013749965500000001,2.8799999,26.82,-33.84
1553851383008,2.0758362,2.7031362,9.115005,-0.015090204,-0.019617938,-0.021691214,3.0,26.82,-33.899998
1553851383028,2.0255566000000003,2.7486273999999997,9.141341,-0.015090204,-0.019617938,-0.019247754,3.06,26.519999,-33.78
1553851383048,2.011191,2.7989072999999998,9.1628895,-0.006538090799999999,-0.022672263999999998,-0.0155825615,3.3,26.88,-33.6
1553851383068,1.9944308999999998,2.8108785,9.1628895,-0.0016511687,-0.02694832,-0.0076413136,2.58,26.64,-33.78
1553851383089,2.0183737,2.8348215,9.184438,-0.0016511687,-0.024504859,0.0021325308,2.58,26.039998999999998,-33.84
1553851383108,2.0255566000000003,2.813273,9.172467,-0.006538090799999999,-0.025115725,0.0070194528,3.36,26.4,-33.66
1553851383128,2.0375278000000003,2.7701759999999997,9.148524,-0.006538090799999999,-0.030613512000000002,0.0070194528,3.1799998,26.519999,-33.719997
1553851383148,2.0494993000000004,2.7462332000000003,9.148524,-0.0047054947,-0.02694832,0.013738968999999998,2.8799999,26.519999,-34.38
1553851383168,2.0854135,2.7653873,9.160496,-0.002262034,-0.028170051,0.0112955095,2.9399998,27.18,-34.26
1553851383188,2.1045675,2.7558103,9.1628895,-0.0034837644,-0.025726587999999998,0.010684643999999998,2.8799999,27.3,-33.42
1553851383209,2.116539,2.7510218999999996,9.134158,-0.0040946295,-0.022672263999999998,0.0064085876000000005,2.58,26.519999,-33.54
1553851383228,2.1213273999999998,2.7342618,9.160496,-0.008981552,-0.016563611000000002,0.0039651264,3.06,26.82,-33.42
1553851383249,2.1117504,2.7127132,9.131764,-0.007148956,-0.017174477,-0.002143526,2.8799999,27.42,-33.36
1553851383268,2.1069617000000003,2.7342618,9.124581,-0.007148956,-0.017174477,-0.0064195828,1.9799999,27.06,-34.02
1553851383289,2.0854135,2.7462332000000003,9.119793,-0.009592416999999999,-0.013509285,-0.003976122,2.46,26.58,-34.26
1553851383308,2.073442,2.7725701000000003,9.153313,-0.007148956,-0.010454959,-0.004586987,2.34,26.4,-34.26
1553851383329,2.0758362,2.7582044999999997,9.172467,-0.0077598216,-0.011065823999999998,-0.0009217956699999999,2.8799999,26.58,-34.92
1553851383348,2.1117504,2.7510218999999996,9.158101,-0.010814147,-0.0067897669999999995,0.0045759915,3.12,26.58,-34.44
1553851383368,2.1596357999999998,2.7270790000000003,9.14613,-0.015090204,-0.0074006324,0.0064085876000000005,2.34,26.34,-33.719997
1553851383388,2.1787900000000002,2.7151077,9.134158,-0.0077598216,-0.0043463064000000004,0.0076303175,2.76,26.64,-33.6
1553851383408,2.2170985,2.7366562,9.141341,-0.0010403035,-0.0055680363,0.010684643999999998,2.34,26.939999,-33.84
1553851383429,2.1572416000000003,2.7821474,9.155706,0.00079229224,-0.0049571716,0.016793298,1.9799999,26.88,-33.78
1553851383448,2.1332988999999998,2.7510218999999996,9.172467,0.0050683487,-0.008622363000000001,0.021680217,2.52,26.46,-33.48
1553851383468,2.1213273999999998,2.7749646,9.14613,0.0062900796,-0.012287554,0.022901948999999998,2.8799999,26.58,-33.3
1553851383489,2.116539,2.7725701000000003,9.14613,0.005679214,-0.008011498,0.020458488,2.46,26.88,-33.3
1553851383508,2.0997790000000003,2.7725701000000003,9.110215,-0.00042943824999999995,-0.0025137104,0.01618243,2.58,26.88,-33.18
1553851383528,2.116539,2.7127132,9.09585,-0.0010403035,0.005427538000000001,0.014349835,3.3,26.699999,-33.42
1553851383549,2.1117504,2.6815877,9.067119,-0.00531636,0.007870999,0.0094629135,3.3,27.0,-33.96
1553851383568,2.1045675,2.700742,9.09585,-0.00531636,0.0011514811,0.0009108001,2.8799999,27.06,-33.3
1553851383589,2.0590763,2.743839,9.131764,-0.008981552,-0.0031245756,-0.0009217956699999999,2.1,26.64,-33.84
1553851383608,2.0375278000000003,2.7773588,9.167678,-0.007148956,-0.0055680363,-0.002143526,2.04,26.88,-34.62
1553851383628,2.0806248,2.7510218999999996,9.155706,-0.010203282,-0.0055680363,0.0027433957000000003,2.9399998,26.519999,-34.32
1553851383648,2.0949904999999998,2.7222904999999997,9.138947,-0.014479338000000001,-0.0055680363,-0.00031093040000000003,3.1799998,26.279999,-34.02
1553851383668,2.1213273999999998,2.7510218999999996,9.117398,-0.018144531000000002,0.0017623462,0.0009108001,2.6399999,26.519999,-33.48
1553851383689,2.1572416000000003,2.7414446,9.124581,-0.01936626,0.0011514811,0.0009108001,3.06,26.64,-33.42
1553851383709,2.1452703,2.7510218999999996,9.131764,-0.016311936000000003,-0.006178901999999999,0.005797722,3.3,26.279999,-33.6
1553851383728,2.169213,2.7270790000000003,9.177256,-0.012646743,-0.012287554,0.008852048000000001,2.34,26.4,-33.78
1553851383748,2.1907616,2.7103189999999997,9.177256,-0.0077598216,-0.012287554,0.0094629135,2.1599998,27.119999,-33.84
1553851383769,2.176396,2.6648278,9.150917999999999,-0.010814147,-0.0067897669999999995,0.0070194528,2.82,26.519999,-33.48
1553851383788,2.169213,2.700742,9.131764,-0.015090204,-0.0019028451999999999,0.0009108001,3.06,26.039998999999998,-32.76
1553851383808,2.1189332000000003,2.6959534,9.143736,-0.010814147,0.0023732113,0.0015216654,2.58,27.06,-33.059998
1553851383828,2.126116,2.7079248,9.138947,-0.0077598216,0.0023732113,0.0039651264,2.28,27.42,-33.36
1553851383849,2.1452703,2.7127132,9.143736,-0.005927225600000001,-0.0031245756,0.0033542612,2.76,27.42,-33.18
1553851383869,2.1476645,2.6935592,9.150917999999999,-0.0047054947,-0.00068111473,0.0039651264,2.8799999,27.18,-33.42
1553851383888,2.152453,2.7294734,9.167678,-0.006538090799999999,0.0066492682999999995,0.0039651264,2.6399999,26.76,-33.36
1553851383909,2.1548474,2.7055306,9.141341,-0.0077598216,0.0023732113,0.0051868567,2.8799999,26.58,-33.239998
1553851383928,2.126116,2.7055306,9.12937,-0.006538090799999999,-0.00129198,0.0070194528,2.46,26.519999,-33.96
1553851383949,2.1285102000000005,2.667222,9.134158,-0.008981552,-0.003735441,0.005797722,2.22,26.519999,-34.02
1553851383968,2.1476645,2.6432792999999997,9.134158,-0.009592416999999999,-0.0025137104,0.0015216654,2.28,26.939999,-33.059998
1553851383989,2.1117504,2.7103189999999997,9.172467,-0.007148956,0.0005406157599999999,0.0009108001,2.7,27.72,-32.88
1553851384008,2.1500587,2.6911650000000003,9.165284,-0.007148956,-0.0019028451999999999,0.0021325308,2.9399998,27.72,-33.18
1553851384028,2.1404817000000005,2.6911650000000003,9.184438,-0.005927225600000001,-0.003735441,-0.00031093040000000003,2.76,27.539998999999998,-33.42
1553851384049,2.1596357999999998,2.7079248,9.184438,-0.0040946295,-0.0055680363,-0.0009217956699999999,2.52,27.24,-33.54
1553851384068,2.1380875,2.7055306,9.155706,-0.0028728994,-0.003735441,-0.002143526,2.34,26.519999,-33.36
1553851384088,2.1668186,2.7031362,9.177256,0.00079229224,-0.0067897669999999995,0.0015216654,2.82,26.279999,-32.82
1553851384108,2.1548474,2.7103189999999997,9.170073,0.0014031575,-0.0074006324,0.0051868567,2.46,26.279999,-33.18
1553851384129,2.1883671000000002,2.6767993,9.126975999999999,-0.002262034,-0.0067897669999999995,0.0027433957000000003,2.3999999,26.58,-33.48
1553851384148,2.1740015,2.6720107000000004,9.107821000000001,-0.008981552,-0.0043463064000000004,0.0039651264,3.12,27.06,-33.48
1553851384168,2.1740015,2.6839821,9.117398,-0.008981552,0.0005406157599999999,0.00029993482000000005,3.1799998,27.119999,-33.66
1553851384188,2.142876,2.7366562,9.184438,-0.0034837644,0.0017623462,0.0027433957000000003,3.4199998,27.359999,-33.66
1553851384208,2.1476645,2.7342618,9.201198,-0.0040946295,-0.00129198,0.005797722,3.4199998,27.359999,-33.78
1553851384228,2.142876,2.7222904999999997,9.174861,-0.0034837644,-0.0074006324,0.011906375,2.6399999,26.699999,-34.14
1553851384248,2.1787900000000002,2.7055306,9.150917999999999,-0.0047054947,-0.0074006324,0.015571565,2.34,27.18,-33.96
1553851384268,2.1644243999999997,2.6863763,9.141341,-0.0010403035,-0.0055680363,0.01618243,2.7,27.48,-33.899998
1553851384288,2.1883671000000002,2.6839821,9.134158,-0.0010403035,-0.0055680363,0.010684643999999998,3.24,27.359999,-34.14
1553851384309,2.1835787,2.6791935000000002,9.150917999999999,-0.0010403035,-0.0031245756,0.010073779,3.12,27.359999,-33.54
1553851384328,2.1787900000000002,2.6983478,9.165284,0.00018142698,-0.006178901999999999,0.010073779,2.76,26.939999,-33.36
1553851384348,2.176396,2.6624336,9.150917999999999,-0.002262034,-0.0043463064000000004,0.008852048000000001,2.34,26.58,-33.66
1553851384368,2.1668186,2.6337023,9.131764,-0.0028728994,-0.0043463064000000004,-0.0009217956699999999,2.34,26.88,-34.079997999999996
1553851384389,2.1452703,2.6624336,9.136553,-0.0028728994,-0.00068111473,-0.0015326607999999998,2.76,26.699999,-33.78
1553851384408,2.1644243999999997,2.7103189999999997,9.148524,-0.00531636,0.0017623462,-0.0015326607999999998,2.76,26.46,-33.18
1553851384428,2.169213,2.700742,9.138947,-0.0016511687,0.0023732113,0.0009108001,2.3999999,26.699999,-32.7
1553851384448,2.1500587,2.7151077,9.148524,-0.0016511687,-0.0025137104,0.0015216654,2.58,27.119999,-33.48
1553851384469,2.1476645,2.7270790000000003,9.148524,-0.0034837644,-0.0043463064000000004,0.0027433957000000003,2.52,27.3,-33.96
1553851384488,2.169213,2.7103189999999997,9.148524,-0.0047054947,-0.0031245756,0.005797722,2.34,26.76,-33.12
1553851384508,2.1787900000000002,2.700742,9.14613,-0.0047054947,-0.0043463064000000004,0.0039651264,2.6399999,26.58,-33.66
1553851384528,2.1883671000000002,2.6887705000000004,9.158101,-0.0028728994,-0.0031245756,0.0070194528,2.04,26.46,-34.26
1553851384548,2.1931557999999995,2.700742,9.215564,0.004457484,-0.0043463064000000004,0.008241183000000001,2.46,26.88,-33.36
1553851384568,2.205127,2.7079248,9.232324,0.0069009447,-0.008622363000000001,0.008852048000000001,2.34,26.64,-33.42
1553851384588,2.2434354,2.7246847,9.165284,0.011177001,-0.0043463064000000004,0.0112955095,1.8,26.46,-34.2
1553851384608,2.2410412,2.7318675999999997,9.174861,0.016063923,-0.0049571716,0.014349835,1.92,27.119999,-34.079997999999996
1553851384628,2.2338583,2.7318675999999997,9.155706,0.028281228999999998,-0.01412015,0.013128106,1.86,27.48,-33.6
1553851384648,2.2386470000000003,2.7318675999999997,9.174861,0.036222477,-0.01167669,0.018015025,2.1599998,27.06,-33.48
1553851384668,2.264984,2.7294734,9.11261,0.041109398,-0.0043463064000000004,0.021069353,2.34,26.82,-34.14
1553851384689,2.3056867000000003,2.7318675999999997,9.081485,0.037444208,0.007260133,0.017404161,2.7,26.46,-33.66
1553851384709,2.2889266,2.6600394,9.059936,0.037444208,0.01031446,0.013738968999999998,2.3999999,26.76,-33.12
1553851384729,2.22907,2.6983478,8.961771,0.013009597,0.042690318,0.010073779,2.22,26.82,-33.36
1553851384748,2.1596357999999998,2.743839,9.079089999999999,0.012398731999999999,0.05918368,0.014960701000000002,2.28,26.039998999999998,-33.96
1553851384769,2.0854135,2.813273,9.000079,0.0038466183,0.07567704,0.02412368,2.52,26.699999,-34.38
1553851384788,1.9944308999999998,2.7701759999999997,9.028810499999999,-0.0034837644,0.07017925400000001,0.025956277000000003,2.7,27.3,-33.66
1553851384808,1.9321798,2.6863763,9.141341,0.00018142698,0.04330118,0.032064926,2.34,26.519999,-33.48
1553851384828,1.8220432,2.5882110000000003,9.124581,0.0050683487,0.021920899,0.029621465,2.6399999,26.039998999999998,-33.96
1553851384849,1.8292258999999997,2.5953939999999998,9.14613,-0.00531636,0.00909273,0.030232332999999997,2.7,26.699999,-33.6
1553851384868,1.9321798,2.6337023,9.198803999999999,-0.016311936000000003,-0.011065823999999998,0.030232332999999997,2.82,27.0,-33.18
1553851384888,2.0279508,2.6863763,9.249083500000001,-0.018755395,-0.04344168,0.021069353,2.58,26.46,-34.02
1553851384908,2.1045675,2.6552507999999997,9.225141,-0.016311936000000003,-0.048328605,0.013128106,2.9399998,25.98,-33.48
1553851384929,2.2458298,2.6911650000000003,9.196409,-0.017533666,-0.042830817,0.00029993482000000005,3.12,26.34,-32.94
1553851384948,2.2194927000000004,2.803696,9.143736,-0.016311936000000003,-0.039165627,-0.010084774,2.04,26.699999,-33.059998
1553851384968,2.2889266,2.8276386000000002,9.107821000000001,-0.030972700000000002,-0.030002648,-0.011306506000000001,2.28,27.119999,-33.3
1553851384989,2.317658,2.7917243999999997,9.124581,-0.030972700000000002,-0.03366784,-0.012528235,2.34,27.3,-33.96
1553851385009,2.3846977000000003,2.8396098999999997,9.088667,-0.034637894,-0.04771774,-0.018026022,2.76,27.06,-34.5
1553851385028,2.3799092999999996,2.7701759999999997,9.079089999999999,-0.034637894,-0.03366784,-0.014971696000000001,2.76,26.939999,-33.96
1553851385048,2.3344178,2.7294734,9.081485,-0.036470487999999995,-0.012287554,-0.014971696000000001,2.28,26.82,-32.94
1553851385069,2.310475,2.7031362,9.100638,-0.035859622,-7.024949999999999e-05,-0.005197852,2.04,27.119999,-33.059998
1553851385088,2.264984,2.667222,9.107821000000001,-0.038913947000000004,0.013979651000000001,0.0033542612,2.1599998,26.939999,-33.36
1553851385108,2.2314641,2.6145482,9.131764,-0.03402703,0.017644841,0.0112955095,2.58,26.519999,-32.88
1553851385129,2.1740015,2.5953939999999998,9.177256,-0.026696645,0.021920899,0.02412368,3.12,26.76,-32.82
1553851385148,2.169213,2.5762396,9.210775,-0.015090204,0.015812248,0.03145406,3.36,26.699999,-32.94
1553851385168,2.1404817000000005,2.5858168999999998,9.227535000000001,-0.0028728994,0.016423114,0.043671365999999996,3.12,26.82,-32.76
1553851385188,2.1548474,2.6145482,9.201198,0.0038466183,0.013979651000000001,0.04733656,2.9399998,27.119999,-32.64
1553851385208,2.176396,2.6097596000000003,9.179649000000001,0.0038466183,0.022531765,0.05344521,3.12,27.42,-33.3
1553851385228,2.2027327999999997,2.6169424,9.191621000000001,0.00751181,0.018866573,0.052834347000000004,2.3999999,27.84,-33.96
1553851385249,2.1979442000000002,2.6744049,9.124581,0.004457484,0.0029840767,0.050390884000000004,2.34,27.539998999999998,-33.6
1553851385268,2.1644243999999997,2.6624336,9.064724,0.004457484,-0.008011498,0.045503963,3.0,27.06,-33.42
1553851385288,2.1620302000000002,2.667222,9.040782,-0.0040946295,-0.008622363000000001,0.038784448,2.9399998,26.519999,-33.78
1553851385309,2.169213,2.6744049,9.229928999999998,-0.008370686,0.0017623462,0.027788872000000003,2.82,26.88,-33.54
1553851385328,2.2266755000000003,2.7342618,9.198803999999999,-0.021809721,0.012147056000000002,0.018015025,2.76,27.24,-33.78
1553851385349,2.2266755000000003,2.6959534,9.182044,-0.024864048,-0.006178901999999999,0.01251724,2.58,26.939999,-34.079997999999996
1553851385368,2.1740015,2.6887705000000004,9.0838785,-0.026696645,-0.009844094,0.01251724,2.9399998,27.24,-33.0
1553851385389,2.126116,2.6696165,9.124581,-0.035248756,-0.02328313,0.01251724,3.1799998,27.24,-32.88
1553851385408,2.1380875,2.700742,9.122187,-0.038303085,-0.027559185,0.021069353,3.12,27.06,-33.84
1553851385428,2.1620302000000002,2.6791935000000002,9.103033,-0.057850774,-0.036111300000000006,0.028399736000000002,2.9399998,27.3,-33.719997
1553851385449,2.2123098,2.6241252,9.100638,-0.065792024,-0.04344168,0.035730116,3.1799998,27.18,-33.48
1553851385469,2.2530127,2.52596,9.119793,-0.053574715,-0.053826387999999996,0.041227907,3.36,27.18,-33.84
1553851385488,2.169213,2.4445546,9.074302000000001,-0.036470487999999995,-0.048328605,0.04611483,2.76,27.18,-33.48
1553851385508,2.1835787,2.4613144,9.1628895,-0.031583566,-0.042830817,0.056499537,2.52,27.06,-33.48
1553851385529,2.2458298,2.473286,9.265842999999998,-0.03341616,-0.04649601,0.06505165,2.76,26.88,-33.48
1553851385548,2.3248408,2.4613144,9.189227,-0.03769222,-0.04649601,0.06566251,2.58,26.76,-32.94
1553851385568,2.3559662999999995,2.4780743,9.217958,-0.036470487999999995,-0.044663414000000005,0.07116030000000001,2.22,26.939999,-32.76
1553851385588,2.343995,2.482863,9.203592,-0.029140104,-0.050772063,0.07238203,2.58,27.42,-33.059998
1553851385609,2.2985039,2.5499027,9.249083500000001,-0.016922799999999998,-0.04955033599999999,0.082155876,3.0,27.3,-32.76
1553851385629,2.2673783,2.6935592,9.138947,-0.020587992,-0.034889567999999996,0.09681664400000001,2.6399999,27.119999,-32.7
1553851385648,2.3272352,2.7318675999999997,9.050359,-0.05296385,-0.012898419,0.11819693,2.6399999,26.88,-32.94
1553851385669,2.4158232,2.6360965,9.179649000000001,-0.054796442,-0.01167669,0.13224682,3.36,26.58,-33.18
1553851385688,2.4517374,2.466103,9.239507000000001,-0.024864048,-0.03977649,0.13469029999999999,3.9599998,27.42,-33.48
1553851385708,2.3559662999999995,2.3487834999999997,9.143736,0.0038466183,-0.07154148,0.13407943,4.02,27.779999,-32.82
1553851385728,2.2817439999999998,2.2889266,9.119793,0.00751181,-0.07642840599999999,0.13163595,3.6,27.599998,-33.3
1553851385749,2.2697724999999997,2.2266755000000003,9.002473,-0.009592416999999999,-0.053215526,0.11514260000000001,2.82,27.24,-33.78
1553851385768,2.3296294,2.2003386000000003,9.026416000000001,-0.018755395,-0.035500433,0.0888754,2.82,27.119999,-33.96
1553851385788,2.4206119,2.1811842999999995,9.071907000000001,-0.019977124,-0.02939178,0.05222348,3.12,27.0,-33.42
1553851385808,2.4804687999999997,2.291321,9.126975999999999,-0.009592416999999999,-0.026337456000000002,0.027178004,3.24,26.88,-33.36
1553851385828,2.5187771,2.3799092999999996,9.141341,0.009344406,-0.036722165,0.013128106,3.72,26.82,-33.12
1553851385848,2.5953939999999998,2.4876516,9.174861,0.022172576,-0.047106873,0.008241183000000001,3.84,26.88,-32.7
1553851385868,2.6767993,2.5858168999999998,9.103033,0.016674789,-0.04893947,0.013128106,4.2599998,27.42,-32.52
1553851385888,2.779753,2.49244,9.115005,0.016063923,-0.040387355,0.016793298,3.6599998,27.66,-32.64
1553851385908,2.892284,2.4254005000000003,9.000079,0.0050683487,-0.0049571716,0.01618243,2.9399998,27.24,-33.239998
1553851385928,2.8731298,2.423006,8.995291,-0.0040946295,0.025586091000000002,0.00029993482000000005,3.24,27.119999,-33.059998
1553851385949,2.7821474,2.4445546,9.115005,-0.011425013000000001,0.07017925400000001,-0.008252178,3.54,28.08,-32.579997999999996
1553851385968,2.6528566000000002,2.5307484000000002,9.107821000000001,-0.01570107,0.10499857,-0.013139101,4.08,27.48,-31.859999
1553851385988,2.5235654999999997,2.5953939999999998,9.126975999999999,-0.032194432,0.11477242,-0.0155825615,3.84,26.64,-32.64
1553851386008,2.3559662999999995,2.578634,9.177256,-0.047466062,0.10560944,-0.012528235,3.72,27.06,-33.36
1553851386028,2.2793495999999998,2.5283542000000003,9.172467,-0.057239905,0.071400985,-0.014360831000000001,3.6599998,27.359999,-32.7
1553851386048,2.2123098,2.4637089,9.165284,-0.059683368,0.042690318,-0.014971696000000001,4.02,27.48,-31.98
1553851386068,2.1644243999999997,2.4182177000000005,9.103033,-0.059072502,0.026196957000000003,-0.014971696000000001,4.38,26.82,-32.579997999999996
1553851386089,2.1787900000000002,2.3823035,9.086273,-0.062737696,0.026196957000000003,-0.02230208,3.8999998999999996,27.48,-32.7
1553851386108,2.2266755000000003,2.3679377999999995,9.138947,-0.06701375,0.026196957000000003,-0.024134673,3.36,27.9,-31.92
1553851386129,2.2434354,2.3679377999999995,9.215564,-0.062737696,0.010925325,-0.030854193,3.1799998,27.0,-32.399998
1553851386148,2.291321,2.3942747000000004,9.268238,-0.06090509999999999,-0.012898419,-0.03390852,3.24,26.88,-32.579997999999996
1553851386169,2.3846977000000003,2.430189,9.26345,-0.054796442,-0.025726587999999998,-0.027799865,3.3,26.939999,-32.28
1553851386188,2.466103,2.4589202,9.220352,-0.061515965,-0.019617938,-0.022912946,3.78,27.359999,-32.46
1553851386209,2.5475084999999997,2.4206119,9.1628895,-0.065792024,-0.014731015,-0.014360831000000001,4.3199997,27.48,-32.579997999999996
1553851386228,2.5139885,2.3870918999999997,9.134158,-0.06640288,-0.01167669,-0.003976122,3.8999998999999996,27.42,-32.82
1553851386248,2.47568,2.291321,9.136553,-0.062126825999999996,-0.01167669,0.0045759915,3.48,27.96,-32.219997
1553851386268,2.4349775,2.291321,9.098245,-0.057239905,-0.010454959,0.010684643999999998,3.06,28.08,-32.399998
1553851386288,2.4158232,2.3032923,9.174861,-0.060294232999999996,-0.00068111473,0.010684643999999998,3.24,27.72,-32.82
1553851386309,2.4469488,2.3272352,9.2419,-0.05662904,0.00909273,0.014960701000000002,3.72,27.84,-32.82
1553851386328,2.4684972999999997,2.3990633,9.220352,-0.059072502,0.006038403,0.014349835,3.6,28.08,-32.64
1553851386351,2.4277947,2.3727264,9.153313,-0.06395942,0.007870999,0.01618243,3.3,27.779999,-32.219997
1553851386369,2.4158232,2.3248408,9.150917999999999,-0.06762462,0.010925325,0.018625893,3.6,27.84,-32.46
1553851386388,2.3224466,2.3320236,9.141341,-0.062737696,0.015812248,0.027788872000000003,3.72,28.5,-32.76
1553851386409,2.2793495999999998,2.2985039,9.28021,-0.06334856,0.013368786,0.046725694000000005,3.06,28.199999,-32.76
1553851386428,2.3224466,2.2817439999999998,9.337671,-0.059683368,-0.003735441,0.06505165,3.54,28.26,-32.82
1553851386448,2.3463893,2.2242813,9.277814999999999,-0.05052039,-0.042830817,0.08032328,4.2,28.619999,-32.76
1553851386469,2.3392065,2.1045675,9.217958,-0.035248756,-0.06787629,0.085210204,3.72,28.14,-32.7
1553851386488,2.351178,2.0279508,9.150917999999999,-0.02608578,-0.06726543,0.082155876,3.9599998,27.599998,-32.7
1553851386508,2.3799092999999996,2.0399222,9.088667,-0.013868473999999999,-0.09170003,0.06382992,3.54,27.96,-32.52
1553851386529,2.3679377999999995,2.0159793,9.136553,-0.014479338000000001,-0.101473875,0.054666944,3.0,28.619999,-32.64
1553851386548,2.4469488,1.977671,9.261055,0.0038466183,-0.121632434,0.03450839,3.54,28.68,-32.7
1553851386568,2.4469488,2.1117504,9.227535000000001,0.012398731999999999,-0.13934752,0.023512814,3.48,28.5,-32.64
1553851386588,2.5427197999999995,2.2075214,9.299363,0.009344406,-0.15950607,0.021069353,3.84,27.72,-32.88
1553851386609,2.6121537999999997,2.2218869999999997,9.277814999999999,0.010566137,-0.19554713,0.027178004,4.02,28.019999,-32.82
1553851386628,2.7701759999999997,2.176396,9.26345,0.013620462,-0.21814914,0.02534541,3.54,28.619999,-32.52
1553851386649,2.8491871,2.135693,9.170073,0.020950846000000002,-0.21204050000000002,0.022291085,2.7,28.619999,-32.219997
1553851386669,2.9042554,2.1644243999999997,9.12937,0.022172576,-0.16439301,0.023512814,2.9399998,28.26,-32.1
1553851386689,2.9114382,2.2338583,9.09585,0.017285653999999998,-0.1448453,0.018625893,2.8799999,28.26,-32.399998
1553851386709,2.8204557999999995,2.3559662999999995,9.191621000000001,0.010566137,-0.15584089,0.030843196,2.46,28.32,-32.52
1553851386728,2.7893302,2.4972286,9.081485,0.017896518,-0.1888276,0.05222348,2.7,28.439999,-32.46
1553851386748,2.8348215,2.4445546,9.110215,0.017896518,-0.18210809,0.0870428,2.52,28.68,-32.46
1553851386768,2.8827069,2.2937152000000003,9.052753,0.03194642,-0.21998173,0.0888754,3.0,28.5,-32.579997999999996
1553851386788,2.8874955,2.1404817000000005,9.055147,0.031335555,-0.20593184,0.073603764,2.8799999,28.74,-32.16
1553851386809,2.8994668,2.0542877,9.019233,0.019729115,-0.15584089,0.069327705,2.34,28.019999,-31.439999
1553851386828,2.8683412,2.0494993000000004,8.971347999999999,0.016674789,-0.117356375,0.06688425,2.52,27.84,-32.16
1553851386848,2.8563697,1.977671,9.038387,0.015453058,-0.10025215,0.05222348,2.1599998,28.439999,-33.3
1553851386868,2.8827069,1.8220432,9.028810499999999,0.024616037,-0.1081934,0.024734545,1.8,28.439999,-33.48
1553851386888,2.8827069,1.7645805,9.043175999999999,0.011787866000000001,-0.082537055,0.0039651264,2.04,27.599998,-32.579997999999996
1553851386909,2.9473522,1.8435916,9.093455,0.0050683487,-0.062378507,-0.012528235,1.86,26.939999,-32.16
1553851386928,2.9856608,1.9273912,9.141341,0.009955271,-0.050161199999999996,-0.02230208,1.56,27.599998,-32.52
1553851386948,3.0359404,2.0806248,9.150917999999999,0.02400517,-0.05688072,-0.026578136000000002,1.4399998999999999,27.66,-32.34
1553851386969,3.1077687999999997,2.142876,9.055147,0.036222477,-0.057491582,-0.026578136000000002,1.62,27.9,-32.579997999999996
1553851386988,3.1436827000000003,2.1644243999999997,8.978531,0.04477459,-0.058713312999999996,-0.02352381,1.62,28.56,-32.579997999999996
1553851387008,3.1652312,2.2003386000000003,8.995291,0.048439782,-0.06726543,-0.019247754,1.62,28.08,-31.98
1553851387028,3.1700199000000002,2.2218869999999997,8.966559,0.055159297,-0.06909802599999999,-0.017415157,1.56,27.66,-32.28
1553851387049,3.2346652000000002,2.2410412,8.901914,0.05393757,-0.057491582,-0.014360831000000001,1.1999999,27.539998999999998,-32.82
1553851387068,3.3064934999999998,2.2745612,8.868394,0.041109398,-0.030002648,-0.018026022,1.1999999,27.9,-33.12
1553851387088,3.3950818,2.2961093999999997,8.880365,0.03072469,-0.0074006324,-0.019858617,1.5,28.26,-33.36
1553851387108,3.4645156999999998,2.3416007000000003,8.889942,0.019729115,0.0048166723,-0.027189001,1.14,28.019999,-33.36
1553851387128,3.4549387,2.3846977000000003,8.858817,0.012398731999999999,0.005427538000000001,-0.030243327999999996,0.78,27.96,-33.719997
1553851387149,3.3615617999999996,2.432583,8.818114,0.0032357534,0.02314263,-0.02474554,1.26,27.96,-33.78
1553851387168,3.2801563999999996,2.3535721,8.8324795,0.0020140228,0.035359933999999996,-0.017415157,1.74,27.779999,-33.18
1553851387188,3.1843855,2.2721667,8.925857,0.0026248879999999997,0.048188105,-0.011306506000000001,1.56,27.48,-33.059998
1553851387209,3.0766432,2.2003386000000003,8.971347999999999,0.008122675,0.05796195,-0.0027543914000000003,1.1999999,27.42,-33.059998
1553851387228,2.9401696,2.1189332000000003,9.028810499999999,0.017896518,0.06529233599999999,0.0021325308,1.5,27.3,-32.88
1553851387248,2.813273,2.1213273999999998,9.09585,0.0392768,0.071400985,0.01251724,1.56,27.539998999999998,-32.7
1553851387268,2.7270790000000003,2.2218869999999997,9.110215,0.04966151,0.07017925400000001,0.021680217,1.1999999,27.96,-32.64
1553851387288,2.8156672,2.3583608,9.122187,0.052104972,0.048188105,0.03450839,1.74,28.26,-33.12
1553851387308,2.9258040000000003,2.3631492,9.059936,0.040498532000000004,0.01031446,0.03328666,1.56,27.84,-33.66
1553851387328,3.0096035,2.3032923,8.966559,0.032557286,-0.019007072,0.024734545,0.48,27.72,-33.48
1553851387349,3.0359404,2.2266755000000003,8.901914,0.027059497000000002,-0.020839668999999998,0.0015216654,1.56,27.779999,-32.94
1553851387368,3.0359404,2.1835787,8.887547999999999,0.00751181,0.0023732113,-0.019247754,1.9799999,27.119999,-33.0
1553851387388,3.0167862999999997,2.205127,8.942616000000001,-0.0047054947,0.02069917,-0.041849766000000004,1.3199999,27.18,-33.42
1553851387408,2.9689007000000003,2.2625897,9.012051,-0.012646743,0.017033977,-0.055899665,2.04,27.599998,-33.239998
1553851387428,2.9234095,2.370332,9.004868,-0.01570107,-0.0049571716,-0.06200832,2.34,27.119999,-33.48
1553851387448,2.9258040000000003,2.4565259999999998,8.990502000000001,-0.016311936000000003,-0.024504859,-0.06261919,2.46,26.82,-33.239998
1553851387468,2.9329867000000003,2.5068057,9.000079,-0.017533666,-0.045274275999999995,-0.051623613,2.46,27.119999,-33.18
1553851387488,2.9329867000000003,2.5283542000000003,8.980925,-0.019977124,-0.051993795,-0.030854193,2.22,27.119999,-33.66
1553851387509,2.9928436,2.4182177000000005,8.983319,-0.017533666,-0.058102448,-0.011917368999999999,1.38,27.18,-33.66
1553851387529,3.0694604,2.310475,8.973742,-0.008370686,-0.05688072,0.0009108001,0.96,27.119999,-33.36
1553851387549,3.1460772,2.2506182,8.971347999999999,-0.0010403035,-0.04893947,0.013128106,2.22,27.779999,-33.3
1553851387568,3.275368,2.176396,8.985713,0.0026248879999999997,-0.03977649,0.0112955095,2.04,28.439999,-33.48
1553851387588,3.3759273999999997,2.1668186,8.976136,0.013009597,-0.021450532999999997,0.0070194528,0.9,27.9,-32.94
1553851387608,3.3902931000000005,2.2434354,8.968952999999999,0.017896518,0.0035949420000000003,-0.003976122,1.0799999,27.84,-32.94
1553851387628,3.4238129,2.2410412,8.992896,0.026448634,0.022531765,-0.010084774,1.38,27.72,-33.42
1553851387648,3.4190245000000004,2.2625897,8.973742,0.03072469,0.026196957000000003,-0.016804293,1.38,28.08,-33.239998
1553851387668,3.337619,2.2242813,9.062330000000001,0.04599632,0.023753494,-0.027189001,1.62,27.66,-32.88
1553851387688,3.4645156999999998,1.9752767,9.227535000000001,0.07959391,0.00909273,-0.051623613,1.5,26.82,-33.0
1553851387708,3.572258,1.8340145,9.14613,0.11441323,0.029862148999999998,-0.10904495,1.8,26.699999,-33.0
1553851387729,3.6273263,1.9226026999999999,8.930645,0.11746755,0.10072252,-0.17013147,2.22,26.64,-33.42
1553851387749,3.6081722000000003,2.1787900000000002,8.763046000000001,0.091200344,0.17158289,-0.20800512,1.1999999,27.119999,-33.54
1553851387768,3.4333901,2.3344178,8.681641,0.07287439,0.22717161,-0.21777897,0.29999998,27.0,-33.239998
1553851387788,3.1939626,2.4062462000000004,8.777411,0.08264823,0.26565609999999995,-0.1927335,0.65999997,26.939999,-33.42
1553851387808,2.9497466,2.473286,8.913885,0.11380236,0.2735974,-0.14569685,1.56,26.939999,-33.6
1553851387828,2.7103189999999997,2.5594797000000002,9.062330000000001,0.13823697,0.26138008,-0.094995044,2.1,26.4,-33.719997
1553851387849,2.4996228,2.6456738,9.385557,0.15228689,0.22839336,-0.033297653999999996,2.22,26.58,-33.54
1553851387868,2.3392065,2.8180614,9.471751,0.18405187,0.21923038,0.025956277000000003,1.86,26.82,-33.059998
1553851387889,2.3463893,3.0096035,9.368797,0.17611061,0.21861951,0.0870428,2.22,26.58,-33.54
1553851387908,2.310475,3.0814316,9.1628895,0.18344100000000002,0.20579134,0.12125125,2.7,26.46,-34.079997999999996
1553851387928,2.1907616,3.1484714,8.693612,0.14251304,0.21617605,0.1469076,2.34,27.0,-34.26
1553851387948,2.0878077,3.0622776000000003,8.561927,0.10708285,0.1642525,0.14385328,2.22,27.06,-34.5
1553851387968,1.9992193999999999,2.9018610000000002,8.631361,0.11074804,0.101944245,0.11941866,2.28,26.279999,-33.84
1553851387989,1.9968252,2.8515813,8.736709,0.105250254,0.08361828,0.089486256,2.58,26.039998999999998,-33.12
1553851388008,2.135693,2.8707354,8.796566,0.055770165999999996,0.10377684,0.05222348,3.06,26.039998999999998,-33.059998
1553851388028,2.300898,2.8396098999999997,8.901914,-0.035248756,0.09155954,0.014960701000000002,3.48,26.039998999999998,-33.36
1553851388049,2.3487834999999997,2.7246847,8.983319,-0.092059225,0.058572814,-0.022912946,3.06,25.92,-34.079997999999996
1553851388068,2.3416007000000003,2.5882110000000003,8.971347999999999,-0.10549826,0.034138203,-0.06017572400000001,2.82,25.98,-34.44
1553851388088,2.3487834999999997,2.4708917,8.956982,-0.09389182,0.03963599,-0.09988196,3.4199998,25.38,-34.02
1553851388108,2.3320236,2.439766,8.945011000000001,-0.08533971,0.042690318,-0.13042523,3.54,25.14,-33.719997
1553851388128,2.3272352,2.4014575000000002,9.117398,-0.092059225,0.034138203,-0.16157936,3.3,26.16,-34.02
1553851388149,2.3894862999999997,2.3344178,9.196409,-0.10549826,0.014590516000000001,-0.18540311,3.24,27.06,-33.54
1553851388168,2.4445546,2.466103,9.318518,-0.10549826,0.0017623462,-0.19395521,2.58,26.939999,-32.94
1553851388188,2.4996228,2.5283542000000003,9.253872,-0.08411797,-7.024949999999999e-05,-0.18784656,2.46,26.58,-33.54
1553851388208,2.6001825000000003,2.3894862999999997,9.100638,-0.05540731,-0.01167669,-0.18967916,2.8799999,27.24,-33.84
1553851388229,2.6528566000000002,2.3990633,9.004868,-0.026696645,-0.0019028451999999999,-0.19212262,2.76,27.48,-33.3
1553851388248,2.7294734,2.4469488,9.024022,-0.0028728994,0.012757921,-0.19151175,2.82,27.119999,-32.94
1553851388268,2.8084843,2.5403256,9.155706,0.037444208,0.013979651000000001,-0.19029002,2.58,26.82,-33.059998
1553851388288,2.796513,2.6648278,9.232324,0.07348526,0.01153619,-0.18051617,2.04,26.46,-33.12
1553851388308,2.7845416000000003,2.796513,9.301758,0.11624583,0.015201381000000002,-0.16035762,2.22,26.099998,-33.78
1553851388329,2.700742,2.7677817000000005,9.26345,0.15167601,0.024975225,-0.13347955,1.9799999,26.039998999999998,-33.96
1553851388348,2.638491,2.6815877,9.184438,0.18283014,0.026196957000000003,-0.123705715,2.04,26.039998999999998,-33.78
1553851388368,2.6169424,2.8108785,8.971347999999999,0.18466273,0.031694744,-0.11881879,2.8799999,26.22,-34.26
1553851388388,2.5020173,2.978478,8.952193,0.13640438,0.027418686,-0.10660148400000001,2.58,26.16,-34.5
1553851388409,2.3392065,2.6815877,9.007261999999999,0.11930015,0.07506618,-0.09132985,2.82,25.68,-34.14
1553851388428,2.3894862999999997,2.8204557999999995,9.09585,0.14190216,0.10377684,-0.09316245,2.3999999,25.98,-33.84
1553851388448,2.3535721,3.057489,8.988108,0.14923254,0.10377684,-0.09255158,1.1999999,26.16,-33.54
1553851388468,2.291321,3.0838259999999997,9.016839,0.13396092,0.10438771,-0.09132985,1.8,26.16,-33.84
1553851388489,2.2530127,3.1795970000000002,8.983319,0.1272414,0.09705733,-0.083388604,2.82,25.8,-34.2
1553851388508,2.2458298,3.2202997000000004,9.019233,0.11746755,0.08728348,-0.07850168,2.52,25.439999,-34.5
1553851388529,2.1979442000000002,3.3424077000000003,8.988108,0.10158506,0.076898776,-0.07544736,2.1,25.5,-34.14
1553851388548,2.1309047000000003,3.46691,8.971347999999999,0.08753516,0.07262271,-0.06811697,2.04,25.199999,-33.899998
1553851388569,2.0231621,3.5483153,8.92825,0.07898304,0.06651406,-0.054067075,2.28,25.14,-34.26
1553851388588,1.9369683000000002,3.5890178999999995,8.897125,0.06432228,0.048188105,-0.041238904,2.7,25.019999,-34.86
1553851388609,1.9010541,3.493247,8.882759,0.037444208,0.03352734,-0.032075923,2.76,25.14,-35.219997
1553851388629,1.9154198,3.4357843,8.830086,0.0038466183,0.021310033,-0.024134673,2.22,24.6,-34.98
1553851388649,2.0447106,3.2226939999999997,8.901914,-0.030361835,0.012757921,-0.019858617,1.86,25.019999,-34.68
1553851388669,2.0686533,3.1915683999999995,8.873182,-0.043190005999999996,0.012757921,-0.021080348999999998,2.28,25.619999,-33.96
1553851388688,2.1069617000000003,3.1293173,8.983319,-0.05052039,0.021310033,-0.022912946,2.58,25.439999,-34.14
1553851388708,2.0590763,3.213117,8.961771,-0.057850774,0.030473012,-0.021080348999999998,2.1,25.68,-33.899998
1553851388728,1.9872481,3.2562137000000004,8.995291,-0.07006807599999999,0.02069917,-0.00947391,1.62,24.84,-33.899998
1553851388748,1.9034485,3.2466366,9.081485,-0.07800932,0.006038403,0.0033542612,2.04,25.08,-34.739998
1553851388768,1.8627458,3.1580484,9.024022,-0.08961576,-0.014731015,0.014349835,1.92,25.98,-34.559998
1553851388788,1.9034485,3.0239692000000002,9.007261999999999,-0.1030548,-0.03733303,0.013738968999999998,1.74,25.8,-34.38
1553851388808,1.9728824,2.9952377999999995,9.021627,-0.09694614,-0.050161199999999996,0.0064085876000000005,2.1599998,26.34,-34.2
1553851388828,2.0255566000000003,3.0431232,9.031203999999999,-0.09267009,-0.041609086,-0.00031093040000000003,2.1,26.22,-34.14
1553851388848,2.0997790000000003,3.057489,9.093455,-0.08656144,-0.030002648,0.0064085876000000005,2.22,25.68,-34.26
1553851388868,2.1644243999999997,2.9808722000000003,9.14613,-0.07678760000000001,-0.04771774,0.008852048000000001,2.34,25.859999,-33.899998
1553851388889,2.2123098,2.8683412,9.184438,-0.060294232999999996,-0.07887186,0.018625893,1.9799999,25.92,-34.2
1553851388910,2.2194927000000004,2.719896,9.160496,-0.02608578,-0.10208475,0.021069353,1.68,26.099998,-34.26
1553851388928,2.2099156000000004,2.6552507999999997,9.186832,0.015453058,-0.10513907,0.024734545,1.68,26.519999,-34.32
1553851388948,2.1931557999999995,2.700742,9.205987,0.04966151,-0.0904783,0.032064926,1.8,26.699999,-34.44
1553851388969,2.2769554,2.8084843,9.220352,0.07226352400000001,-0.07581754,0.037562713,2.28,25.68,-34.5
1553851388988,2.4996228,2.9234095,9.244295,0.08448083,-0.07337408,0.043671365999999996,2.34,25.619999,-34.079997999999996
1553851389008,2.5092,3.1436827000000003,9.366403,0.09486554,-0.08559138,0.06505165,1.4399998999999999,26.039998999999998,-33.36
1553851389029,2.264984,2.9425638,8.717555,0.06982007,-0.07642840599999999,0.032064926,1.4399998999999999,25.439999,-33.96
1553851389048,2.569057,3.0407290000000002,8.540379,0.054548435,-0.04344168,0.032064926,1.68,25.199999,-34.38
1553851389068,2.5953939999999998,3.0910087,8.502069,0.16206071,0.16669597,0.04978002,1.9799999,25.56,-34.079997999999996
1553851389088,2.6959534,3.2825508,9.577099,0.16267158,-0.021450532999999997,0.050390884000000004,1.62,25.68,-34.079997999999996
1553851389109,2.5187771,3.3639562000000005,9.28021,0.032557286,-0.09475436,0.030232332999999997,0.78,25.56,-34.14
1553851389128,2.6456738,3.2705792999999996,8.985713,-0.012035878,0.010925325,0.013128106,1.0799999,25.8,-33.96
1553851389148,2.700742,3.0335462000000004,8.679246000000001,-0.011425013000000001,0.09094867,-0.020469485,1.62,25.26,-33.96
1553851389168,2.5115943,2.9258040000000003,8.547561,0.012398731999999999,0.1538678,-0.06384092,1.3199999,24.72,-34.44
1553851389188,2.2937152000000003,3.0479119999999997,8.834874000000001,0.032557286,0.1538678,-0.083388604,1.4399998999999999,25.14,-34.559998
1553851389208,2.22907,3.1652312,9.134158,0.022783441,0.09461386,-0.084610336,1.9799999,25.14,-33.66
1553851389228,2.073442,3.2202997000000004,9.234717999999999,-0.017533666,0.05246416,-0.08766466,1.9799999,25.019999,-33.719997
1553851389248,1.9704881999999997,3.2202997000000004,9.251478,-0.047466062,0.040246855,-0.080334276,1.86,25.619999,-34.38
1553851389268,1.9393626,3.1556542000000003,9.141341,-0.05052039,0.038414262000000005,-0.0711713,2.1,25.859999,-34.26
1553851389288,1.9393626,3.057489,8.992896,-0.032805298,0.039025128,-0.06384092,2.76,25.859999,-34.079997999999996
1553851389308,1.9441511999999999,3.0550947,8.956982,-0.018144531000000002,0.025586091000000002,-0.05956486,2.52,25.68,-34.02
1553851389328,1.9872481,3.1460772,8.992896,-0.024864048,-7.024949999999999e-05,-0.0571214,1.9799999,25.019999,-33.6
1553851389348,2.0327394,3.2011453999999997,9.014444000000001,-0.04257914,-0.022061398,-0.04918015,1.8,25.5,-33.48
1553851389369,2.0758362,3.1963567999999998,9.012051,-0.05052039,-0.027559185,-0.036962844,2.04,25.619999,-33.96
1553851389388,2.0471049999999997,3.1077687999999997,9.014444000000001,-0.038303085,-0.01412015,-0.02596727,2.1599998,25.019999,-34.32
1553851389408,2.0255566000000003,3.0359404,9.019233,-0.020587992,-0.008011498,-0.016804293,1.74,25.92,-34.8
1553851389428,2.0423164000000003,2.9210152999999996,9.040782,-0.00042943824999999995,-0.008622363000000001,-0.016193425,1.5,26.46,-35.04
1553851389448,2.0255566000000003,2.9162266,9.014444000000001,0.010566137,-0.008622363000000001,-0.0076413136,1.8,25.859999,-35.219997
1553851389468,2.0087965,2.9377751,9.043175999999999,0.026448634,-0.012898419,-0.004586987,1.68,25.56,-35.34
1553851389488,2.0686533,3.0862203,9.064724,0.0392768,-0.014731015,0.0070194528,1.4399998999999999,25.38,-34.62
1553851389508,2.126116,3.1580484,9.055147,0.037444208,-0.015341881000000002,0.021680217,1.74,25.439999,-34.14
1553851389528,2.2338583,3.1772027,9.038387,0.036833342000000005,-0.026337456000000002,0.028399736000000002,1.26,25.68,-33.96
1553851389548,2.310475,3.1676257000000003,9.016839,0.03561161,-0.031835243,0.03145406,1.02,25.32,-34.079997999999996
1553851389568,2.3128695,3.1987512000000002,8.954588000000001,0.033779013999999996,-0.024504859,0.030232332999999997,1.8,24.84,-34.2
1553851389589,2.2985039,3.1772027,8.956982,0.027670362999999996,-0.006178901999999999,0.029621465,1.3199999,24.72,-34.739998
1553851389608,2.2697724999999997,3.1795970000000002,8.940222,0.017285653999999998,0.0035949420000000003,0.024734545,1.14,24.96,-35.16
1553851389628,2.185973,3.1580484,8.930645,0.0032357534,0.008481864,0.022901948999999998,1.92,25.56,-34.8
1553851389648,2.1069617000000003,3.110163,9.007261999999999,-0.00531636,0.0005406157599999999,0.019236756,2.28,25.619999,-34.8
1553851389669,2.056682,3.0886145000000003,9.052753,-0.012035878,-0.011065823999999998,0.014349835,2.1599998,25.38,-34.32
1553851389689,2.0399222,3.050306,9.091061999999999,-0.016922799999999998,-0.025726587999999998,0.0064085876000000005,1.8,25.199999,-34.44
1553851389708,2.0518935000000003,3.0455174,9.167678,-0.010203282,-0.048328605,0.0015216654,1.26,25.26,-35.04
1553851389729,2.0758362,3.1173458,9.050359,-0.0077598216,-0.055048123,-0.0027543914000000003,1.1999999,25.619999,-34.92
1553851389749,2.142876,3.1365,8.980925,0.00018142698,-0.054437257,-0.0015326607999999998,2.1,25.56,-34.26
1553851389768,2.2242813,3.0766432,8.976136,0.019729115,-0.040387355,0.0009108001,1.9799999,25.439999,-34.38
1553851389788,2.3032923,3.093403,9.031203999999999,0.026448634,-0.045274275999999995,-0.0009217956699999999,1.5,25.56,-35.1
1553851389808,2.3942747000000004,3.1269228,9.004868,0.02400517,-0.050772063,-0.004586987,1.5,25.32,-34.86
1553851389828,2.47568,3.1436827000000003,8.983319,0.014842193,-0.04405255,-0.008252178,1.14,24.779999,-34.68
1553851389849,2.4852571,3.1867797,8.92825,0.008733541,-0.009844094,-0.010084774,1.62,25.08,-34.38
1553851389868,2.5115943,3.213117,8.9186735,0.008122675,0.018866573,-0.007030448000000001,1.86,25.32,-34.559998
1553851389889,2.49244,3.2274826,8.947405,0.013009597,0.030473012,-0.0033652566,1.14,25.26,-34.86
1553851389908,2.4445546,3.2226939999999997,8.93304,0.0032357534,0.038414262000000005,0.0033542612,1.3199999,25.199999,-34.14
1553851389929,2.3751206000000002,3.2394537999999997,9.000079,-0.0047054947,0.04330118,0.0051868567,2.28,25.199999,-34.02
1553851389948,2.2314641,3.205934,9.047964,0.0014031575,0.03963599,0.014349835,2.1599998,25.26,-34.38
1553851389968,2.0925963,3.1412885,8.992896,0.0069009447,0.038414262000000005,0.025956277000000003,1.74,25.32,-34.98
1553851389988,2.020768,3.1652312,8.9976845,0.004457484,0.025586091000000002,0.03450839,1.5,25.32,-35.1
1553851390009,2.0351336,3.1460772,9.009656,-0.012035878,0.007870999,0.032064926,1.62,25.56,-34.559998
1553851390028,2.0686533,3.15326,8.968952999999999,-0.015090204,-0.00068111473,0.029621465,1.9799999,25.439999,-34.26
1553851390048,2.0542877,3.1436827000000003,8.964165,-0.019977124,0.004205807,0.022901948999999998,2.28,25.38,-34.32
1553851390069,2.0638650000000003,3.1795970000000002,8.954588000000001,-0.034637894,0.009703594,0.01618243,2.34,25.56,-34.8
1553851390088,2.1045675,3.1795970000000002,8.959375999999999,-0.05052039,0.005427538000000001,0.013128106,2.1599998,25.98,-34.739998
1553851390108,2.1332988999999998,3.1676257000000003,8.964165,-0.06457029,-0.003735441,0.008241183000000001,2.04,26.4,-34.739998
1553851390128,2.185973,3.1245286,9.055147,-0.065792024,-0.02939178,0.0045759915,1.62,25.56,-34.38
1553851390148,2.2578009999999997,3.1484714,9.064724,-0.06518115,-0.042830817,0.0027433957000000003,1.62,25.56,-34.14
1553851390169,2.2865324,3.0957972999999996,9.007261999999999,-0.07006807599999999,-0.034278702,0.0009108001,2.46,26.939999,-34.739998
1553851390189,2.3272352,3.0455174,9.000079,-0.06640288,-0.019007072,-0.003976122,2.04,26.279999,-34.8
1553851390208,2.3296294,3.0479119999999997,9.009656,-0.059683368,-0.010454959,-0.0033652566,1.14,25.08,-34.739998
1553851390228,2.3368123,3.0383348,9.093455,-0.052352987000000004,-0.025726587999999998,0.0021325308,1.26,25.74,-35.219997
1553851390248,2.3272352,3.0024207,9.138947,-0.03341616,-0.040387355,0.0112955095,1.1999999,26.099998,-35.34
1553851390268,2.3296294,2.9736892999999998,9.105427,-0.013868473999999999,-0.036722165,0.021680217,0.96,25.8,-35.28
1553851390288,2.310475,3.0000262,9.0838785,-0.010814147,-0.025726587999999998,0.03328666,0.9,25.619999,-35.16
1553851390308,2.310475,3.0287576,9.016839,-0.006538090799999999,-0.011065823999999998,0.04244964,1.02,25.92,-34.38
1553851390328,2.3032923,2.9928436,8.980925,-0.008981552,-0.0074006324,0.04733656,1.5,26.039998999999998,-34.62
1553851390348,2.3152637,2.9689007000000003,8.964165,-0.00531636,-0.01778534,0.04733656,1.8,25.92,-34.62
1553851390368,2.308081,3.0024207,9.031203999999999,-0.0028728994,-0.025726587999999998,0.03939531,1.68,25.92,-34.5
1553851390388,2.3224466,3.1173458,9.067119,-0.005927225600000001,-0.018396208,0.03695185,1.56,25.68,-34.98
1553851390409,2.2937152000000003,3.1652312,9.035994,-0.021809721,0.0005406157599999999,0.037562713,1.26,25.68,-34.44
1553851390428,2.3296294,3.0957972999999996,9.012051,-0.046855195999999995,0.010925325,0.03328666,1.14,25.619999,-34.26
1553851390448,2.3296294,3.0407290000000002,9.014444000000001,-0.05540731,0.0066492682999999995,0.028399736000000002,1.1999999,25.74,-34.38
1553851390469,2.2985039,3.0119977000000002,8.995291,-0.05418558,-0.01412015,0.018625893,1.56,25.619999,-34.02
1553851390488,2.2554069,3.0167862999999997,9.016839,-0.046855195999999995,-0.013509285,0.013128106,1.68,25.98,-34.32
1553851390509,2.2961093999999997,3.0215747000000004,9.033599,-0.056018177,-0.0019028451999999999,0.01251724,1.1999999,26.4,-34.5
1553851390528,2.3272352,3.0263633999999997,9.014444000000001,-0.06334856,-0.01167669,0.0112955095,1.14,25.74,-34.559998
1553851390549,2.3272352,2.9090437999999996,8.976136,-0.060294232999999996,-0.017174477,0.01251724,1.5,25.8,-34.62
1553851390568,2.291321,2.8587642000000004,9.009656,-0.04624433,-0.009844094,0.01251724,1.74,25.92,-34.68
1553851390588,2.3152637,2.8252442,9.088667,-0.040135678,-0.0043463064000000004,0.019236756,1.62,25.98,-34.38
1553851390608,2.3296294,2.8707354,9.12937,-0.04624433,-0.0049571716,0.027178004,1.14,26.22,-33.719997
1553851390629,2.3416007000000003,2.8779182,9.150917999999999,-0.048687793,-0.019007072,0.03450839,1.26,26.16,-34.32
1553851390648,2.3583608,2.8874955,9.062330000000001,-0.040746543999999996,-0.028170051,0.044282235,2.7,26.34,-34.26
1553851390669,2.3607549999999997,2.8970726000000004,8.956982,-0.034637894,-0.02939178,0.054056074,2.1599998,26.279999,-34.44
1553851390688,2.3751206000000002,2.9042554,8.93304,-0.026696645,-0.008622363000000001,0.056499537,0.96,25.68,-34.62
1553851390708,2.4804687999999997,3.0119977000000002,8.909097000000001,-0.048687793,0.020088303999999998,0.06260819,1.0799999,25.38,-33.96
1553851390729,2.5522968999999995,3.0048149,9.024022,-0.06457029,0.013368786,0.060775592999999996,1.3199999,25.619999,-33.66
1553851390749,2.5068057,2.8587642000000004,9.088667,-0.05418558,0.023753494,0.06505165,1.62,25.68,-33.36
1553851390768,2.4421604,2.7558103,9.067119,-0.03769222,0.029251281,0.056499537,1.8,26.22,-33.3
1553851390788,2.2865324,2.6791935000000002,9.134158,-0.03402703,0.031694744,0.05161261,2.22,26.64,-33.239998
1553851390808,2.2170985,2.6624336,9.150917999999999,-0.037081353,0.021310033,0.048558287,2.3999999,26.34,-33.48
1553851390828,2.152453,2.6265194,9.170073,-0.035248756,0.008481864,0.038784448,2.34,26.039998999999998,-33.899998
1553851390848,2.1213273999999998,2.6289136,9.12937,-0.030361835,-0.011065823999999998,0.030232332999999997,2.04,26.279999,-33.899998
1553851390869,2.152453,2.6815877,9.091061999999999,-0.02608578,-0.023893993,0.01618243,1.68,26.4,-33.96
1553851390888,2.2506182,2.7414446,9.100638,-0.020587992,-0.028170051,0.013128106,1.62,26.279999,-34.44
1553851390908,2.466103,2.7318675999999997,9.124581,-0.015090204,-0.045274275999999995,0.0051868567,2.34,26.099998,-34.38
1553851390928,2.5570855,2.7653873,9.016839,-0.016311936000000003,-0.045274275999999995,-0.003976122,2.76,26.58,-33.96
1553851390948,2.578634,2.7677817000000005,9.012051,-0.023642316,-0.023893993,-0.013139101,2.1,26.76,-34.38
1553851390969,2.5355369999999997,2.7845416000000003,9.074302000000001,-0.018755395,-0.006178901999999999,-0.01069564,1.56,26.34,-34.079997999999996
1553851390988,2.4708917,2.7821474,9.088667,-0.008370686,-0.0074006324,-0.011917368999999999,1.4399998999999999,26.279999,-33.78
1553851391008,2.4206119,2.7893302,9.04557,-0.011425013000000001,-0.0074006324,-0.0009217956699999999,1.74,26.099998,-33.84
1553851391029,2.3894862999999997,2.7869357999999997,9.059936,-0.015090204,-0.009844094,0.0039651264,1.92,26.46,-34.26
1553851391048,2.3799092999999996,2.7151077,9.126975999999999,0.00018142698,-0.020839668999999998,0.008852048000000001,2.28,26.22,-33.48
1553851391068,2.3392065,2.657645,9.179649000000001,0.018507386,-0.019007072,0.018625893,2.34,26.4,-32.94
1553851391089,2.3870918999999997,2.719896,9.153313,0.033779013999999996,-0.025115725,0.02534541,1.92,26.279999,-33.96
1553851391108,2.439766,2.7989072999999998,9.050359,0.029502958,-0.030002648,0.030232332999999997,1.56,26.22,-34.38
1553851391128,2.6001825000000003,2.8252442,9.033599,0.020339978999999998,-0.026337456000000002,0.029621465,1.68,26.46,-33.84
1553851391148,2.6528566000000002,2.8731298,9.019233,0.014231328,-0.009233228000000001,0.023512814,1.74,25.74,-34.559998
1553851391168,2.604971,2.8300327999999997,9.002473,0.011177001,0.005427538000000001,0.021069353,1.9799999,26.22,-34.62
1553851391188,2.5307484000000002,2.8156672,9.086273,0.014231328,0.007260133,0.014349835,2.52,26.76,-33.96
1553851391209,2.430189,2.8276386000000002,9.031203999999999,0.013620462,-7.024949999999999e-05,0.017404161,2.6399999,25.98,-33.239998
1553851391228,2.4014575000000002,2.8180614,9.004868,0.0020140228,0.0029840767,0.015571565,2.9399998,25.859999,-33.18
1553851391248,2.4086404,2.80609,9.040782,-0.005927225600000001,0.010925325,0.015571565,2.52,25.92,-34.02
1553851391268,2.432583,2.7486273999999997,9.088667,-0.005927225600000001,0.00909273,0.008241183000000001,2.1599998,26.4,-34.26
1553851391288,2.4493432,2.7390504,9.122187,-0.0077598216,0.0011514811,0.0045759915,2.22,26.34,-33.96
1553851391309,2.49244,2.7677817000000005,9.148524,-0.006538090799999999,-0.00129198,0.0015216654,2.1,25.74,-33.78
1553851391328,2.5331428,2.7342618,9.122187,-0.00531636,-0.00068111473,-0.00031093040000000003,1.62,26.22,-33.6
1553851391348,2.5187771,2.7127132,9.062330000000001,-0.00042943824999999995,0.006038403,-0.016193425,1.74,26.64,-33.12
1553851391368,2.5092,2.753416,9.016839,0.0062900796,0.028029552000000003,-0.024134673,1.8,26.099998,-33.48
1553851391388,2.4684972999999997,2.7749646,9.021627,0.011177001,0.041468587,-0.02596727,1.38,26.22,-33.84
1553851391409,2.47568,2.8276386000000002,8.992896,0.0069009447,0.03719253,-0.018636888,1.5,26.34,-33.48
1553851391428,2.4613144,2.7845416000000003,9.004868,0.0026248879999999997,0.02680782,-0.011917368999999999,1.9799999,26.4,-33.36
1553851391448,2.4134290000000003,2.7749646,8.985713,-0.0016511687,0.029862148999999998,0.0009108001,2.34,26.46,-33.36
1553851391468,2.3392065,2.7917243999999997,9.000079,0.00018142698,0.039025128,0.0039651264,2.52,26.46,-33.36
1553851391488,2.2410412,2.7941186,9.057542,-0.0040946295,0.04757724,0.011906375,2.22,26.58,-33.12
1553851391508,2.169213,2.813273,9.043175999999999,-0.009592416999999999,0.040246855,0.014349835,1.56,26.64,-33.239998
1553851391528,2.1117504,2.8348215,9.055147,-0.021198856000000002,0.026196957000000003,0.019847622,1.56,26.039998999999998,-33.84
1553851391548,2.1285102000000005,2.8443985,9.047964,-0.027918374,0.0029840767,0.019236756,2.22,25.74,-33.18
1553851391568,2.1189332000000003,2.7869357999999997,8.971347999999999,-0.043800868,-0.01412015,0.018015025,2.1599998,26.16,-33.059998
1553851391588,2.1883671000000002,2.7845416000000003,8.985713,-0.056018177,-0.012898419,0.010073779,1.8,26.82,-33.18
1553851391609,2.291321,2.7701759999999997,9.047964,-0.061515965,-0.008011498,-0.003976122,1.86,27.06,-33.3
1553851391628,2.3942747000000004,2.7175019,9.093455,-0.06395942,-0.008622363000000001,-0.016804293,2.22,26.88,-33.059998
1553851391648,2.432583,2.7701759999999997,9.110215,-0.06945722,-0.009233228000000001,-0.025356404,2.9399998,26.76,-33.18
1553851391668,2.5020173,2.7701759999999997,9.172467,-0.06945722,-0.026337456000000002,-0.03390852,3.1799998,27.0,-33.6
1553851391689,2.5187771,2.760599,9.12937,-0.05662904,-0.034889567999999996,-0.038184576,2.46,26.76,-33.719997
1553851391708,2.5283542000000003,2.6552507999999997,9.040782,-0.057850774,-0.028780917000000003,-0.032686785,2.34,26.519999,-33.96
1553851391728,2.5427197999999995,2.6001825000000003,9.026416000000001,-0.05662904,-0.014731015,-0.032075923,2.7,26.58,-33.42
1553851391748,2.5522968999999995,2.6073654,9.059936,-0.052352987000000004,-0.00068111473,-0.027799865,2.46,26.699999,-33.3
1553851391768,2.5283542000000003,2.6241252,9.155706,-0.048076928,0.0048166723,-0.019247754,2.7,27.42,-33.239998
1553851391789,2.5020173,2.5546912999999996,9.217958,-0.021809721,0.007870999,-0.0027543914000000003,2.1599998,27.599998,-33.78
1553851391808,2.4613144,2.466103,9.201198,0.011787866000000001,0.0035949420000000003,0.0009108001,1.92,27.42,-34.079997999999996
1553851391829,2.4373717,2.5618742,9.205987,0.028281228999999998,0.0035949420000000003,0.0076303175,2.28,27.18,-33.96
1553851391848,2.4493432,2.631308,9.196409,0.037444208,0.0023732113,0.017404161,1.92,27.3,-33.66
1553851391869,2.473286,2.7486273999999997,9.160496,0.036833342000000005,0.0023732113,0.027788872000000003,2.34,28.019999,-33.3
1553851391888,2.4708917,2.7486273999999997,9.069513,0.03500075,0.005427538000000001,0.03267579,1.62,27.599998,-34.14
1553851391908,2.4373717,2.7486273999999997,9.057542,0.03438988,0.010925325,0.032064926,1.26,26.699999,-33.719997
1553851391928,2.4277947,2.7582044999999997,9.040782,0.033779013999999996,0.012147056000000002,0.027178004,1.86,26.58,-33.36
1553851391949,2.4373717,2.7270790000000003,9.04557,0.017896518,0.0066492682999999995,0.013738968999999998,2.1,26.699999,-33.6
1553851391968,2.403852,2.7175019,9.043175999999999,0.004457484,0.0048166723,0.0021325308,2.58,26.279999,-33.78
1553851391988,2.343995,2.7462332000000003,9.086273,-0.002262034,0.015812248,-0.004586987,2.3999999,26.039998999999998,-33.899998
1553851392008,2.291321,2.7677817000000005,9.091061999999999,-0.010814147,0.018866573,-0.008863044,1.56,26.46,-33.84
1553851392028,2.2673783,2.779753,9.14613,-0.016311936000000003,0.01153619,-0.00947391,1.3199999,27.119999,-34.02
1553851392048,2.2961093999999997,2.762993,9.12937,-0.027918374,0.0005406157599999999,-0.008252178,2.1599998,27.119999,-33.36
1553851392068,2.3272352,2.6887705000000004,9.117398,-0.032805298,-0.015341881000000002,-0.008252178,1.68,26.4,-32.94
1553851392088,2.3368123,2.6552507999999997,9.076694999999999,-0.027307509,-0.022061398,-0.0076413136,1.74,26.76,-33.239998
1553851392108,2.3751206000000002,2.6360965,9.050359,-0.01936626,-0.019007072,-0.005197852,1.92,27.3,-33.6
1553851392128,2.4493432,2.6241252,9.088667,-0.0047054947,-0.01412015,-0.0033652566,1.68,27.3,-33.84
1553851392149,2.5020173,2.6648278,9.122187,0.0014031575,-0.0074006324,0.00029993482000000005,2.1599998,26.34,-33.96
1553851392168,2.5211713,2.6720107000000004,9.12937,-0.0028728994,-0.00068111473,0.005797722,2.1,26.16,-33.48
1553851392189,2.5092,2.6983478,9.088667,-0.0040946295,0.01153619,0.0094629135,1.9799999,26.699999,-33.54
1553851392209,2.4565259999999998,2.6600394,9.062330000000001,0.00018142698,0.018866573,0.008241183000000001,1.8,26.58,-33.6
1553851392228,2.4014575000000002,2.6456738,9.105427,0.0062900796,0.024364362,0.0064085876000000005,1.86,27.0,-32.399998
1553851392249,2.3775147999999997,2.6696165,9.086273,0.0014031575,0.028640417,0.011906375,1.92,27.18,-32.46
1553851392269,2.370332,2.667222,9.148524,0.0014031575,0.013368786,0.0051868567,1.9799999,27.06,-32.88
1553851392288,2.3416007000000003,2.6289136,9.117398,0.0038466183,0.004205807,0.0027433957000000003,2.04,27.06,-32.46
1553851392309,2.3272352,2.6648278,9.12937,0.00079229224,0.004205807,-0.0027543914000000003,2.3999999,26.939999,-32.7
1553851392328,2.3128695,2.6887705000000004,9.110215,-0.00042943824999999995,0.004205807,-0.0064195828,2.52,26.519999,-33.36
1553851392349,2.3200524,2.6863763,9.091061999999999,0.0020140228,-0.00129198,-0.013749965500000001,2.1599998,26.88,-33.48
1553851392369,2.3224466,2.6815877,9.107821000000001,-0.0047054947,-0.00068111473,-0.013139101,1.9799999,27.42,-33.239998
1553851392388,2.3775147999999997,2.6911650000000003,9.131764,-0.006538090799999999,-0.019007072,-0.0155825615,2.34,27.359999,-33.059998
1553851392409,2.4134290000000003,2.7175019,9.052753,-0.0047054947,-0.02328313,-0.012528235,2.46,26.699999,-33.84
1553851392428,2.4277947,2.7414446,9.057542,-0.005927225600000001,-0.014731015,-0.007030448000000001,1.8,26.279999,-33.899998
1553851392448,2.4277947,2.7821474,9.067119,-0.008370686,-0.015952745,-0.004586987,2.1,26.88,-33.48
1553851392468,2.4134290000000003,2.753416,9.069513,-0.015090204,-0.009844094,0.0033542612,2.28,27.18,-33.059998
1553851392489,2.4062462000000004,2.7222904999999997,9.069513,-0.016311936000000003,-0.0025137104,0.011906375,1.8,27.599998,-33.48
1553851392508,2.4134290000000003,2.7414446,9.115005,-0.012035878,0.0023732113,0.020458488,1.5,27.84,-33.899998
1553851392528,2.4086404,2.7055306,9.117398,-0.010814147,0.0017623462,0.029621465,1.74,27.3,-33.48
1553851392548,2.4277947,2.6720107000000004,9.117398,-0.006538090799999999,-0.0043463064000000004,0.03450839,2.3999999,27.06,-33.66
1553851392569,2.4637089,2.6241252,9.138947,-0.00042943824999999995,-0.0025137104,0.03695185,2.3999999,27.18,-33.36
1553851392589,2.4684972999999997,2.597788,9.1628895,0.013009597,-0.0067897669999999995,0.029621465,2.82,27.24,-33.48
1553851392608,2.4708917,2.5858168999999998,9.138947,0.013620462,-0.008622363000000001,0.021680217,2.82,27.24,-33.719997
1553851392628,2.4517374,2.5810282000000004,9.122187,0.010566137,-0.006178901999999999,0.01618243,2.04,27.0,-33.48
1553851392648,2.4804687999999997,2.5882110000000003,9.160496,0.014842193,-0.008011498,0.0070194528,2.6399999,26.64,-33.059998
1553851392668,2.466103,2.6073654,9.115005,0.019729115,0.0023732113,0.0015216654,2.82,26.16,-32.94
1553851392688,2.4637089,2.657645,9.091061999999999,0.014231328,-0.0043463064000000004,-0.010084774,2.22,26.88,-33.239998
1553851392708,2.432583,2.6744049,9.069513,0.004457484,-0.0049571716,-0.011917368999999999,2.3999999,27.18,-33.18
1553851392728,2.4158232,2.6959534,9.028810499999999,0.0050683487,-0.0031245756,-0.013139101,2.46,26.58,-33.12
1553851392748,2.423006,2.6744049,9.038387,0.008733541,0.006038403,-0.013749965500000001,1.8,26.34,-33.719997
1553851392769,2.4182177000000005,2.6863763,9.098245,0.009344406,0.004205807,-0.010084774,1.8,26.4,-33.899998
1553851392788,2.4349775,2.7175019,9.122187,0.0032357534,0.007870999,-0.011306506000000001,2.04,26.64,-33.84
1553851392809,2.4373717,2.6791935000000002,9.086273,-0.002262034,0.008481864,-0.011917368999999999,1.26,27.0,-33.84
1553851392829,2.3942747000000004,2.6624336,9.107821000000001,0.0020140228,0.012147056000000002,-0.01069564,1.5,27.18,-34.079997999999996
1553851392848,2.3918805,2.6600394,9.069513,0.0020140228,0.012147056000000002,-0.008863044,2.1599998,27.0,-34.86
1553851392868,2.3559662999999995,2.7222904999999997,9.107821000000001,0.0038466183,0.009703594,-0.012528235,1.9799999,26.939999,-34.38
1553851392888,2.3894862999999997,2.7318675999999997,9.100638,-0.00042943824999999995,0.017644841,-0.004586987,2.1599998,26.58,-33.239998
1553851392908,2.4062462000000004,2.7294734,9.081485,-0.0040946295,0.020088303999999998,-0.004586987,2.22,26.4,-32.94
1553851392928,2.3990633,2.6983478,9.055147,-0.013257608999999998,0.010925325,-0.007030448000000001,2.3999999,26.939999,-33.239998
1553851392948,2.3679377999999995,2.6935592,9.035994,-0.012646743,-0.00068111473,-0.01069564,1.9799999,26.76,-33.6
1553851392968,2.3200524,2.667222,9.014444000000001,-0.012035878,0.0017623462,-0.011917368999999999,1.92,26.16,-33.36
1553851392989,2.351178,2.6696165,9.069513,-0.016311936000000003,0.009703594,-0.011917368999999999,1.86,26.279999,-33.18
1553851393008,2.3463893,2.6744049,9.117398,-0.01936626,0.010925325,-0.012528235,1.26,26.76,-33.36
1553851393028,2.3799092999999996,2.6720107000000004,9.12937,-0.020587992,0.008481864,-0.010084774,1.62,26.699999,-33.42
1553851393049,2.3416007000000003,2.6432792999999997,9.105427,-0.016311936000000003,-0.0019028451999999999,-0.0076413136,2.22,26.64,-33.54
1553851393068,2.3296294,2.640885,9.071907000000001,-0.0077598216,-0.0055680363,-0.004586987,1.74,27.119999,-34.14
1553851393089,2.3416007000000003,2.6265194,9.115005,0.004457484,-0.0049571716,-0.00031093040000000003,1.56,26.279999,-34.14
1553851393108,2.3846977000000003,2.6552507999999997,9.158101,0.008122675,-0.009233228000000001,0.0021325308,2.1,26.279999,-33.48
1553851393129,2.4206119,2.6337023,9.179649000000001,0.014231328,-0.014731015,0.0039651264,1.74,26.699999,-33.36
1553851393148,2.4349775,2.6265194,9.150917999999999,0.017896518,-0.019617938,0.0015216654,1.68,26.82,-33.239998
1553851393168,2.4469488,2.648068,9.081485,0.020950846000000002,-0.025726587999999998,-0.002143526,2.1,26.82,-33.6
1553851393189,2.4421604,2.667222,9.057542,0.027670362999999996,-0.025726587999999998,-0.005197852,2.1599998,26.519999,-33.96
1553851393208,2.4349775,2.719896,9.059936,0.033168152,-0.027559185,-0.0064195828,2.1599998,27.24,-33.239998
1553851393229,2.4780743,2.7414446,9.091061999999999,0.03561161,-0.028170051,-0.003976122,1.68,27.119999,-33.48
1553851393248,2.4613144,2.7821474,9.055147,0.03561161,-0.02694832,0.0021325308,1.68,26.699999,-33.6
1553851393268,2.4637089,2.803696,9.004868,0.030113826,-0.013509285,0.0076303175,2.1599998,27.119999,-33.54
1553851393288,2.473286,2.7749646,9.024022,0.016063923,0.0005406157599999999,0.01251724,1.86,27.539998999999998,-33.96
1553851393309,2.5044115000000002,2.7989072999999998,9.031203999999999,0.0062900796,0.016423114,0.018015025,1.8,27.119999,-34.02
1553851393328,2.5092,2.7653873,9.071907000000001,0.00018142698,0.015812248,0.013738968999999998,1.86,26.58,-34.2
1553851393348,2.473286,2.7486273999999997,9.11261,-0.0010403035,0.020088303999999998,0.008852048000000001,2.28,26.4,-33.899998
1553851393368,2.4182177000000005,2.7462332000000003,9.098245,0.0038466183,0.017033977,0.0021325308,2.3999999,26.519999,-33.3
1553851393388,2.3823035,2.7510218999999996,9.076694999999999,0.00079229224,0.020088303999999998,-0.0009217956699999999,1.68,26.64,-33.42
1553851393409,2.4062462000000004,2.7749646,9.105427,-0.00531636,0.020088303999999998,-0.0033652566,1.62,26.64,-33.66
1553851393428,2.3942747000000004,2.7151077,9.105427,-0.00531636,0.018255709,-0.011917368999999999,2.1,27.18,-33.48
1553851393448,2.4086404,2.667222,9.088667,-0.006538090799999999,0.007260133,-0.02230208,2.1599998,26.699999,-33.18
1553851393468,2.3966691000000004,2.6983478,9.076694999999999,-0.009592416999999999,0.0066492682999999995,-0.026578136000000002,1.86,25.98,-33.3
1553851393489,2.3535721,2.7342618,9.091061999999999,-0.0028728994,0.0023732113,-0.02474554,1.4399998999999999,25.98,-33.36
1553851393508,2.3224466,2.7414446,9.067119,0.00018142698,0.0017623462,-0.017415157,1.92,26.58,-33.719997
1553851393528,2.3416007000000003,2.7462332000000003,9.062330000000001,-0.0016511687,-0.0055680363,-0.008252178,2.3999999,26.699999,-33.719997
1553851393549,2.3679377999999995,2.7318675999999997,9.016839,-0.0016511687,-0.011065823999999998,-0.003976122,2.04,27.0,-33.54
1553851393568,2.3870918999999997,2.760599,9.002473,-0.0016511687,-0.00068111473,-0.0027543914000000003,2.04,27.06,-33.54
1553851393588,2.430189,2.7749646,9.069513,-0.0047054947,0.010925325,0.0039651264,2.04,26.34,-33.719997
1553851393609,2.4565259999999998,2.7725701000000003,9.074302000000001,-0.007148956,0.012757921,0.0076303175,1.8,26.64,-34.14
1553851393628,2.4469488,2.7701759999999997,9.067119,-0.00531636,0.014590516000000001,0.0112955095,1.02,26.88,-33.719997
1553851393648,2.439766,2.7342618,9.062330000000001,-0.0077598216,0.017033977,0.0094629135,1.62,26.58,-33.18
1553851393668,2.4254005000000003,2.7366562,9.055147,-0.012035878,0.015812248,0.0070194528,1.92,26.039998999999998,-33.18
1553851393689,2.3870918999999997,2.7414446,9.071907000000001,-0.020587992,0.015812248,0.0021325308,1.68,26.519999,-33.36
1553851393708,2.343995,2.7486273999999997,9.052753,-0.030972700000000002,0.017644841,-0.0009217956699999999,1.92,27.0,-33.36
1553851393728,2.317658,2.7677817000000005,9.081485,-0.040135678,0.015201381000000002,-0.0027543914000000003,1.5,26.46,-33.239998
1553851393750,2.308081,2.7510218999999996,9.103033,-0.04257914,0.0048166723,-0.002143526,1.68,26.76,-33.66
1553851393768,2.3368123,2.7175019,9.105427,-0.039524816000000004,-0.008011498,-0.0033652566,2.22,26.88,-33.66
1553851393788,2.3224466,2.6815877,9.086273,-0.036470487999999995,-0.012898419,-0.0058087176,1.92,26.58,-33.3
1553851393809,2.3416007000000003,2.6791935000000002,9.11261,-0.034637894,-0.0067897669999999995,-0.0015326607999999998,1.38,26.4,-33.36
1553851393828,2.3799092999999996,2.667222,9.126975999999999,-0.027918374,-0.009233228000000001,0.0033542612,1.92,25.8,-33.6
1553851393849,2.430189,2.6360965,9.143736,-0.01570107,-0.012898419,0.01251724,2.3999999,25.98,-34.14
1553851393868,2.4637089,2.6025767,9.14613,0.00018142698,-0.011065823999999998,0.014349835,2.34,26.64,-34.02
1553851393888,2.4804687999999997,2.5929997000000005,9.105427,0.013009597,-0.01167669,0.016793298,1.9799999,26.64,-34.02
1553851393908,2.5092,2.604971,9.117398,0.020339978999999998,-0.003735441,0.020458488,1.74,26.82,-34.02
1553851393928,2.4876516,2.6337023,9.134158,0.03072469,0.0035949420000000003,0.027178004,1.92,26.22,-33.66
1553851393948,2.4972286,2.6241252,9.122187,0.038665935,0.007870999,0.024734545,2.04,26.099998,-34.44
1553851393968,2.4780743,2.6552507999999997,9.079089999999999,0.037444208,0.009703594,0.02412368,2.22,26.519999,-34.02
1553851393989,2.4541316,2.6959534,9.0838785,0.033779013999999996,0.0005406157599999999,0.02412368,1.8,26.58,-33.66
1553851394008,2.4182177000000005,2.7270790000000003,9.059936,0.03438988,-7.024949999999999e-05,0.022901948999999998,2.04,26.82,-33.42
1553851394028,2.3655436,2.7414446,9.012051,0.025226902000000002,0.01031446,0.017404161,1.86,26.4,-33.239998
1553851394048,2.3487834999999997,2.7701759999999997,9.040782,0.011787866000000001,0.013368786,0.010684643999999998,1.68,26.039998999999998,-33.6
1553851394069,2.3248408,2.7749646,9.103033,0.00018142698,0.0035949420000000003,0.0064085876000000005,2.28,26.76,-33.66
1553851394088,2.3056867000000003,2.7318675999999997,9.093455,-0.0028728994,0.0017623462,0.0033542612,2.1599998,26.939999,-33.719997
1553851394108,2.3152637,2.7342618,9.0838785,-0.007148956,-0.0049571716,0.00029993482000000005,1.86,26.699999,-33.78
1553851394128,2.2937152000000003,2.7270790000000003,9.081485,-0.012646743,-0.0049571716,0.0033542612,1.26,27.3,-33.66
1553851394149,2.3631492,2.7270790000000003,9.076694999999999,-0.020587992,-0.0055680363,-0.0027543914000000003,1.1999999,27.0,-33.84
1553851394168,2.4086404,2.7390504,9.035994,-0.027918374,-0.0031245756,-0.002143526,1.74,26.519999,-33.899998
1553851394188,2.4589202,2.6935592,9.050359,-0.034637894,-0.0049571716,-0.003976122,1.62,27.0,-33.18
1553851394208,2.4852571,2.638491,9.105427,-0.031583566,-0.0043463064000000004,-0.011306506000000001,1.92,26.76,-32.76
1553851394228,2.4517374,2.604971,9.040782,-0.023031452999999997,-0.0055680363,-0.018636888,1.86,26.519999,-32.7
1553851394248,2.4373717,2.5882110000000003,9.11261,-0.016311936000000003,0.0017623462,-0.019858617,1.74,26.519999,-33.18
1553851394268,2.4493432,2.6265194,9.136553,-0.007148956,0.0023732113,-0.016804293,1.92,26.58,-33.12
1553851394288,2.4541316,2.631308,9.100638,0.0014031575,0.0017623462,-0.008863044,1.62,27.0,-32.76
1553851394309,2.3870918999999997,2.6265194,9.093455,0.010566137,-0.0025137104,-0.0027543914000000003,1.8,27.06,-32.82
1553851394328,2.3990633,2.638491,9.091061999999999,0.020950846000000002,-0.0055680363,0.0021325308,1.9799999,27.0,-32.76
1553851394349,2.3966691000000004,2.657645,9.067119,0.03194642,-0.0055680363,0.0064085876000000005,2.46,26.46,-33.48
1553851394370,2.432583,2.657645,9.115005,0.0392768,-0.003735441,0.011906375,2.22,26.099998,-33.6
1553851394388,2.4589202,2.6791935000000002,9.093455,0.042331126,-0.0074006324,0.01251724,1.9799999,26.699999,-33.18
1553851394408,2.49244,2.7079248,9.091061999999999,0.041109398,-0.008011498,0.010684643999999998,2.34,27.06,-33.18
1553851394428,2.4852571,2.7869357999999997,9.103033,0.050272375,-0.0043463064000000004,0.0094629135,1.74,26.76,-33.239998
1553851394448,2.5283542000000003,2.7749646,9.033599,0.045385458,0.009703594,0.01251724,1.26,26.279999,-33.12
1553851394468,2.52596,2.8180614,9.000079,0.023394305,0.02069917,0.0009108001,1.9799999,26.16,-33.059998
1553851394488,2.5187771,2.8108785,8.971347999999999,0.0038466183,0.024975225,-0.0033652566,2.3999999,26.279999,-32.7
1553851394508,2.4804687999999997,2.7414446,8.945011000000001,-0.006538090799999999,0.03352734,-0.016193425,1.8,26.699999,-32.94
1553851394528,2.3727264,2.700742,8.983319,-0.005927225600000001,0.04330118,-0.027799865,1.56,26.939999,-33.18
1553851394548,2.308081,2.7701759999999997,9.069513,-0.012646743,0.045133777,-0.028410732999999997,1.92,26.099998,-33.719997
1553851394568,2.2554069,2.7941186,9.093455,-0.019977124,0.032305606,-0.019247754,1.92,25.68,-33.78
1553851394589,2.176396,2.8300327999999997,9.091061999999999,-0.02608578,0.018866573,-0.0076413136,2.1,26.279999,-33.36
1553851394608,2.1596357999999998,2.8563697,9.088667,-0.030972700000000002,-0.00129198,0.0045759915,2.28,26.82,-33.059998
1553851394628,2.1668186,2.813273,9.069513,-0.03341616,-0.013509285,0.021069353,2.3999999,26.699999,-33.059998
1553851394648,2.2554069,2.7342618,9.033599,-0.030361835,-0.023893993,0.027178004,1.86,26.519999,-34.5
1553851394668,2.3775147999999997,2.6791935000000002,9.052753,-0.029750971,-0.022672263999999998,0.02534541,1.74,26.699999,-34.38
1553851394688,2.4541316,2.638491,9.040782,-0.029750971,-0.013509285,0.013128106,1.8,26.88,-33.3
1553851394709,2.5283542000000003,2.6025767,9.050359,-0.030972700000000002,-0.0025137104,0.0009108001,1.86,26.76,-33.54
1553851394728,2.5499027,2.631308,9.086273,-0.026696645,0.007260133,-0.0064195828,2.1599998,26.64,-33.78
1553851394748,2.5187771,2.6432792999999997,9.131764,-0.023031452999999997,0.008481864,-0.011306506000000001,2.28,26.82,-33.899998
1553851394769,2.4972286,2.6289136,9.160496,-0.018144531000000002,0.007870999,-0.0155825615,1.68,26.699999,-33.36
1553851394788,2.4589202,2.6265194,9.141341,-0.010814147,0.007870999,-0.011917368999999999,1.56,26.16,-33.42
1553851394808,2.4014575000000002,2.6265194,9.126975999999999,-0.006538090799999999,0.007260133,-0.00947391,2.04,26.22,-33.78
1553851394829,2.3128695,2.6791935000000002,9.067119,0.0020140228,0.012147056000000002,-0.004586987,2.52,26.699999,-33.239998
1553851394848,2.3152637,2.7270790000000003,9.050359,-0.0028728994,0.015201381000000002,0.0009108001,2.52,26.58,-33.36
1553851394868,2.343995,2.7366562,9.038387,-0.009592416999999999,0.018255709,0.0045759915,2.6399999,26.82,-32.88
1553851394888,2.2745612,2.753416,9.071907000000001,-0.014479338000000001,0.021920899,0.008241183000000001,2.1599998,27.06,-32.94
1553851394910,2.2554069,2.7342618,9.107821000000001,-0.017533666,0.015812248,0.010073779,1.56,26.4,-33.54
1553851394928,2.2386470000000003,2.7175019,9.103033,-0.013257608999999998,-0.00068111473,0.008241183000000001,1.4399998999999999,26.82,-33.78
1553851394948,2.2625897,2.6001825000000003,9.107821000000001,-0.012646743,-0.0074006324,0.0039651264,1.68,27.119999,-33.6
1553851394968,2.3416007000000003,2.569057,9.11261,-0.013257608999999998,-0.014731015,-0.004586987,2.34,26.939999,-33.239998
1553851394989,2.423006,2.545114,9.0838785,-0.005927225600000001,-0.012287554,-0.018636888,3.3,27.0,-33.78
1553851395008,2.4517374,2.5810282000000004,9.115005,0.0020140228,-0.006178901999999999,-0.02474554,3.24,27.06,-34.32
1553851395029,2.4708917,2.6145482,9.131764,0.008122675,0.0005406157599999999,-0.02474554,3.24,26.46,-33.36
1553851395048,2.5139885,2.7151077,9.126975999999999,0.008733541,-0.012898419,-0.0155825615,2.46,27.359999,-33.239998
1553851395069,2.5211713,2.7342618,9.038387,0.008733541,-0.020839668999999998,-0.012528235,1.8,27.42,-33.059998
1553851395088,2.5570855,2.6887705000000004,9.021627,0.009955271,-0.014731015,-0.01069564,2.04,26.88,-33.12
1553851395108,2.5427197999999995,2.7246847,9.019233,0.015453058,0.014590516000000001,-0.012528235,1.92,26.34,-33.36
1553851395128,2.5187771,2.7294734,9.103033,0.01911825,0.040246855,-0.004586987,1.8,26.279999,-33.18
1553851395148,2.466103,2.7390504,9.126975999999999,0.026448634,0.045133777,0.0033542612,2.28,26.34,-33.66
1553851395168,2.3894862999999997,2.7486273999999997,9.158101,0.025226902000000002,0.04330118,0.016793298,2.1,27.0,-33.899998
1553851395188,2.3583608,2.7270790000000003,9.174861,0.026448634,0.031694744,0.02656714,1.8,26.58,-33.719997
1553851395208,2.308081,2.6863763,9.14613,0.03438988,0.017033977,0.022901948999999998,1.92,25.98,-32.82
1553851395228,2.2721667,2.700742,9.081485,0.036833342000000005,0.012147056000000002,0.016793298,2.22,26.699999,-33.059998
1553851395249,2.2769554,2.7342618,9.093455,0.027059497000000002,0.016423114,0.0064085876000000005,2.46,26.46,-33.84
1553851395268,2.3224466,2.8084843,9.067119,0.00751181,0.018866573,0.0045759915,1.74,25.98,-33.6
1553851395288,2.3200524,2.8204557999999995,9.040782,-0.0040946295,0.012757921,-0.0058087176,1.8,26.58,-33.18
1553851395309,2.2697724999999997,2.8276386000000002,9.040782,-0.011425013000000001,-7.024949999999999e-05,-0.0076413136,2.28,26.88,-33.18
1553851395328,2.22907,2.82285,9.009656,-0.017533666,0.0023732113,-0.007030448000000001,2.04,26.76,-33.42
1553851395349,2.2506182,2.832427,9.019233,-0.040135678,0.012147056000000002,-0.004586987,1.86,27.06,-33.059998
1553851395368,2.2793495999999998,2.7845416000000003,9.138947,-0.054796442,0.018255709,-0.0064195828,1.74,26.939999,-33.239998
1553851395388,2.317658,2.7103189999999997,9.196409,-0.051131252,0.005427538000000001,-0.007030448000000001,1.86,26.039998999999998,-33.18
1553851395409,2.2769554,2.5953939999999998,9.203592,-0.032805298,-0.021450532999999997,-0.008252178,2.7,26.76,-32.7
1553851395428,2.2170985,2.5522968999999995,9.14613,-0.00531636,-0.05138293,-0.0027543914000000003,2.7,27.539998999999998,-33.3
1553851395448,2.2218869999999997,2.5331428,9.148524,0.014842193,-0.055048123,0.0033542612,2.46,27.24,-33.78
1553851395468,2.3128695,2.604971,9.174861,0.024616037,-0.05138293,0.010684643999999998,2.7,26.82,-33.54
1553851395488,2.4637089,2.6265194,9.11261,0.022783441,-0.050161199999999996,0.0064085876000000005,2.58,26.58,-33.84
1553851395508,2.5642683999999996,2.6911650000000003,9.002473,0.016063923,-0.04771774,-0.0015326607999999998,2.34,26.82,-34.02
1553851395528,2.5810282000000004,2.762993,8.976136,0.02156171,-0.031224377,0.0015216654,2.34,26.88,-33.36
1553851395548,2.5953939999999998,2.8013015,8.983319,0.024616037,-0.020228801,0.005797722,2.1,26.88,-34.14
1553851395569,2.5546912999999996,2.8252442,8.980925,0.023394305,-0.013509285,0.0112955095,2.1,26.82,-34.559998
1553851395589,2.4613144,2.760599,8.988108,0.013620462,-0.0055680363,0.014349835,2.22,27.0,-34.079997999999996
1553851395608,2.4206119,2.638491,9.021627,0.013009597,-0.00129198,0.015571565,2.7,27.3,-33.36
1553851395628,2.370332,2.545114,9.026416000000001,0.017896518,0.004205807,0.010684643999999998,2.8799999,26.88,-33.18
1553851395648,2.3870918999999997,2.5570855,9.098245,0.023394305,0.00909273,-0.007030448000000001,1.92,26.64,-33.36
1553851395668,2.3751206000000002,2.5762396,9.174861,0.03561161,-0.006178901999999999,-0.018636888,1.8,26.099998,-33.54
1553851395688,2.3846977000000003,2.5929997000000005,9.189227,0.046607185,-0.02328313,-0.02352381,1.4399998999999999,25.74,-33.96
1553851395708,2.432583,2.6624336,9.136553,0.052104972,-0.031835243,-0.035741117,1.68,25.92,-33.239998
1553851395729,2.4852571,2.7414446,9.050359,0.042331126,-0.03305697,-0.044904094000000006,1.56,26.099998,-33.48
1553851395749,2.5355369999999997,2.7869357999999997,8.985713,0.031335555,-0.03366784,-0.05956486,1.38,26.099998,-33.719997
1553851395768,2.5211713,2.8013015,8.9498,0.017285653999999998,-0.019007072,-0.07056043,1.74,26.34,-32.88
1553851395789,2.4900458,2.9138324,8.980925,0.011177001,-0.009844094,-0.080334276,1.74,26.64,-33.42
1553851395809,2.4541316,2.928198,9.064724,0.00079229224,-0.0043463064000000004,-0.07422563,2.22,26.939999,-34.079997999999996
1553851395828,2.4134290000000003,2.9521408,9.0838785,-0.0016511687,-0.0074006324,-0.068727836,2.22,27.18,-33.84
1553851395848,2.3368123,2.9138324,9.069513,-0.0047054947,-0.011065823999999998,-0.05773226,1.74,26.699999,-33.899998
1553851395868,2.2961093999999997,2.8587642000000004,9.059936,-0.0077598216,-0.015341881000000002,-0.04429323,1.5,26.4,-34.02
1553851395888,2.2721667,2.8372157000000002,9.007261999999999,-0.002262034,-0.018396208,-0.030243327999999996,2.04,26.34,-33.78
1553851395909,2.2314641,2.8563697,9.007261999999999,-0.008370686,-0.012287554,-0.014971696000000001,2.28,26.64,-33.54
1553851395928,2.2530127,2.9210152999999996,9.009656,-0.010814147,0.0011514811,0.0015216654,1.8,26.699999,-33.66
1553851395949,2.248224,2.954535,9.004868,-0.010814147,0.01153619,0.021069353,1.56,26.88,-33.66
1553851395968,2.300898,2.9329867000000003,9.019233,-0.014479338000000001,0.006038403,0.045503963,1.8,27.06,-33.239998
1553851395988,2.3607549999999997,2.9090437999999996,9.055147,-0.011425013000000001,-0.020839668999999998,0.05588867,1.1999999,26.64,-33.36
1553851396009,2.3966691000000004,2.8659470000000002,9.043175999999999,-0.011425013000000001,-0.047106873,0.06749511,1.1999999,26.519999,-34.079997999999996
1553851396028,2.4613144,2.8013015,9.004868,-0.021809721,-0.050161199999999996,0.066273384,1.02,26.58,-33.899998
1553851396048,2.5379312,2.7510218999999996,9.050359,-0.023642316,-0.03305697,0.054666944,0.9,27.3,-33.96
1553851396068,2.5618742,2.7079248,9.105427,-0.0077598216,-0.031835243,0.03817358,1.68,26.939999,-33.54
1553851396089,2.5355369999999997,2.7246847,9.052753,-0.0016511687,-0.01412015,0.03267579,1.86,26.58,-33.18
1553851396108,2.4804687999999997,2.760599,9.086273,0.0032357534,-0.021450532999999997,0.03328666,1.68,27.06,-34.2
1553851396128,2.4086404,2.8276386000000002,9.088667,0.0014031575,-0.034889567999999996,0.03939531,1.68,26.519999,-34.86
1553851396148,2.3368123,2.8683412,9.064724,-0.007148956,-0.04221995,0.058332134,1.4399998999999999,26.099998,-34.079997999999996
1553851396168,2.3056867000000003,2.8467927000000004,9.026416000000001,-0.025474913,-0.051993795,0.06749511,1.5,26.039998999999998,-33.36
1553851396188,2.3870918999999997,2.7510218999999996,9.047964,-0.035859622,-0.055048123,0.070549436,1.92,26.099998,-33.96
1553851396208,2.578634,2.6241252,8.992896,-0.036470487999999995,-0.05260466,0.052834347000000004,1.5,25.92,-34.079997999999996
1553851396228,2.7653873,2.6001825000000003,8.865999,-0.03769222,-0.030002648,0.014960701000000002,1.4399998999999999,25.859999,-33.54
1553851396248,2.9258040000000003,2.6289136,8.834874000000001,-0.056018177,-0.00068111473,-0.020469485,1.5,26.4,-33.66
1553851396268,2.9497466,2.6528566000000002,8.91628,-0.06457029,0.016423114,-0.04673669,1.86,26.939999,-34.38
1553851396288,2.8898897,2.648068,9.071907000000001,-0.05418558,0.018866573,-0.061397452000000005,2.52,27.359999,-33.899998
1553851396308,2.7677817000000005,2.6241252,9.189227,-0.027918374,0.015201381000000002,-0.06078659,2.34,27.359999,-32.7
1553851396328,2.5594797000000002,2.604971,9.210775,0.00018142698,0.015812248,-0.045514955999999995,1.68,27.24,-32.76
1553851396348,2.3607549999999997,2.6217308,9.186832,0.014842193,0.021310033,-0.024134673,1.02,26.88,-33.12
1553851396368,2.2314641,2.631308,9.124581,0.02156171,0.024364362,-0.0009217956699999999,1.5,26.519999,-33.0
1553851396388,2.2170985,2.6767993,9.052753,0.01911825,0.018255709,0.01618243,1.9799999,26.82,-33.239998
1553851396408,2.3320236,2.7414446,9.007261999999999,0.016674789,0.012147056000000002,0.030232332999999997,1.62,26.82,-33.96
1553851396428,2.4254005000000003,2.8659470000000002,8.940222,0.00751181,0.007870999,0.03267579,1.86,26.46,-33.66
1553851396449,2.5331428,2.9066495999999997,8.91628,0.0020140228,0.007870999,0.038784448,1.5,26.58,-32.94
1553851396468,2.5858168999999998,2.8539755,8.964165,-0.0028728994,0.008481864,0.03817358,1.38,26.58,-33.239998
1553851396488,2.5834224,2.719896,8.990502000000001,-0.00531636,0.00909273,0.027788872000000003,2.1,26.64,-33.48
1553851396508,2.5020173,2.6337023,9.067119,-0.0028728994,0.0029840767,0.015571565,2.1599998,26.939999,-33.48
1553851396528,2.4206119,2.5714512000000003,9.035994,-0.010814147,-0.0031245756,0.0021325308,2.28,26.88,-33.3
1553851396548,2.3679377999999995,2.5738453999999997,9.079089999999999,-0.020587992,0.0017623462,-0.013139101,2.28,26.34,-33.84
1553851396568,2.3463893,2.6193366,9.081485,-0.026696645,0.0017623462,-0.019858617,1.86,26.34,-33.899998
1553851396589,2.3727264,2.6289136,9.088667,-0.024253184,-0.0049571716,-0.013749965500000001,1.92,26.939999,-33.36
1553851396609,2.3894862999999997,2.6767993,9.107821000000001,-0.019977124,-0.020228801,-0.011917368999999999,1.4399998999999999,27.0,-34.02
1553851396629,2.4469488,2.7151077,9.110215,-0.011425013000000001,-0.031224377,0.0027433957000000003,1.62,26.64,-34.14
1553851396648,2.4972286,2.7462332000000003,9.076694999999999,-0.00531636,-0.03977649,0.0112955095,1.26,26.16,-33.6
1553851396669,2.5499027,2.7390504,9.055147,0.0050683487,-0.048328605,0.014349835,0.9,26.64,-33.6
1553851396688,2.5738453999999997,2.7677817000000005,8.988108,-0.0028728994,-0.03977649,0.018625893,1.3199999,26.46,-33.84
1553851396708,2.638491,2.760599,8.935433,-0.009592416999999999,-0.027559185,0.018625893,1.3199999,26.16,-34.26
1553851396728,2.6504622,2.7486273999999997,8.959375999999999,-0.018755395,-0.019007072,0.017404161,1.68,26.76,-33.84
1553851396748,2.6504622,2.7127132,8.9976845,-0.018755395,-0.013509285,0.017404161,1.5,26.76,-33.66
1553851396768,2.6432792999999997,2.6360965,9.016839,-0.01936626,-0.011065823999999998,0.016793298,1.02,26.519999,-33.84
1553851396788,2.638491,2.5929997000000005,9.040782,-0.013868473999999999,-0.0031245756,0.011906375,1.56,27.06,-33.42
1553851396809,2.597788,2.5810282000000004,9.028810499999999,-0.013257608999999998,0.006038403,0.005797722,1.92,26.88,-33.239998
1553851396829,2.5642683999999996,2.5929997000000005,9.0838785,-0.012035878,0.013368786,0.0021325308,1.74,26.88,-33.059998
