TimeStamp,Ax,Ay,Az,Gx,Gy,Gz,Mx,My,Mz
1554118454038,-5.139154,-6.824671700000001,5.090072599999999,0.10333065,-0.16298546,-0.19068234,-13.56,24.12,-14.64
1554118454059,-5.117605999999999,-6.652888000000001,4.818331,-0.08841695,-0.111852765,-0.18855181,-13.68,24.06,-14.64
1554118454079,-5.2169657,-6.992266000000001,4.871003,-0.22796659,-0.060720075,-0.12250541,-13.8,24.0,-14.64
1554118454099,-5.121796,-7.553706,4.818331,-0.16192019,-0.058589544,-0.09267801,-13.86,24.0,-14.64
1554118454119,-4.9027267,-7.5094137000000005,4.794389,0.025566347000000003,-0.047936900000000005,-0.07563378,-13.98,23.94,-14.64
1554118454139,-4.924873000000001,-6.6989765,4.091092,0.022370555,-0.08522116,-0.015978966,-14.1,23.88,-14.64
1554118454159,-4.891354,-7.351995,4.3418846,-0.16405073,-0.07563378,0.027696876000000002,-14.16,23.88,-14.64
1554118454178,-5.1487308,-7.1969705,4.297592,-0.13954964,-0.10013486,-0.043675844000000005,-14.28,23.82,-14.64
1554118454199,-5.078101599999999,-7.177217999999999,3.7876269999999996,-0.15978967,-0.16298546,-0.015978966,-14.34,23.76,-14.64
1554118454218,-4.8877625,-8.298303,4.0186677,-0.20026971,-0.165116,0.027696876000000002,-14.4,23.76,-14.64
1554118454238,-4.4903255,-8.401254,4.6621094,-0.020240024,-0.06604639400000001,0.035153727999999995,-14.52,23.7,-14.58
1554118454259,-4.3969510000000005,-9.519346,6.1489085999999995,0.6221144000000001,0.11824436,0.053263225,-14.64,23.64,-14.58
1554118454278,-4.1611223,-9.240421000000001,6.8127007,1.7747306,0.33981937,0.06285059999999999,-14.7,23.58,-14.58
1554118454299,-4.647744,-5.7634419999999995,5.039196,2.457565,0.45699844,0.33449304,-14.76,23.52,-14.58
1554118454318,-5.21517,-5.819107,4.5896845,2.218946,0.61891866,0.5954828000000001,-14.76,23.4,-14.58
1554118454339,-5.5778913,-7.563283,6.425439,1.5691346000000002,0.7819041,0.71479243,-14.76,23.34,-14.82
1554118454359,-5.8969190000000005,-8.063073,7.229890299999999,1.3124058,1.0130665,0.8341021000000001,-14.7,23.04,-15.3
1554118454379,-6.3703723,-6.1489085999999995,7.2568254,0.95234644,1.160073,1.1430287000000001,-14.52,22.74,-15.96
1554118454399,-8.036138000000001,-5.2941785,7.3639660000000005,0.63915867,1.0130665,1.5563513999999998,-14.16,22.44,-16.8
1554118454419,-8.367735,-5.893926,6.049549,0.5209143,0.6860303000000001,1.8471686,-13.56,22.08,-17.82
1554118454439,-8.005612,-5.892729,4.394557,0.43036684,0.50813115,1.937716,-12.66,21.78,-18.96
1554118454459,-8.166622,-4.935647,4.1515455,0.113983296,0.3653857,1.9451729,-11.64,21.48,-20.16
1554118454479,-8.031349,-3.9288849999999997,3.9671922,-0.5091964,0.12996227,1.9515644,-10.56,21.24,-21.3
1554118454498,-7.631517999999999,-2.6024973,3.1890767,-1.3571468999999998,-0.128897,1.8514296000000001,-9.42,21.06,-22.26
1554118454519,-7.4256167,-2.2870612,3.3895910000000002,-1.7811221999999998,-0.30679616,1.6490293999999999,-8.16,21.18,-22.92
1554118454539,-7.72968,-3.5021186,4.441244,-0.99708754,-0.38029942,1.4072143999999998,-6.78,21.54,-23.16
1554118454558,-7.08564,-2.9418752,4.643554,0.24607609,-0.46658584,1.0897655000000002,-5.34,22.02,-23.1
1554118454579,-6.464943,-1.1258733,4.192846,0.79255676,-0.50813115,0.85540736,-4.08,22.56,-22.92
1554118454598,-5.6904187,-1.110311,3.8367082999999997,0.38456047,-0.4878911,0.7286409,-3.12,23.1,-22.56
1554118454619,-5.799355,-1.8740613000000002,4.056975,-0.39414784,-0.40906155,0.5901565,-2.22,23.58,-22.2
1554118454639,-5.9364233,-2.5725696,4.5920787,-0.8490158000000001,-0.38242993,0.48043427,-1.44,24.12,-21.84
1554118454659,-6.214748999999999,-3.1854854,4.987122,-0.5901565,-0.35473305,0.36325517,-0.78,24.54,-21.42
1554118454679,-6.3470287,-3.2830489999999997,4.999093,-0.041545313,-0.3174488,0.28016454,-0.18,24.84,-21.06
1554118454698,-6.43741,-3.1824925,4.678869000000001,0.29933932,-0.24394555,0.20133498,0.3,25.02,-20.88
1554118454718,-6.312312599999999,-3.2902317,4.7782279999999995,0.24714136,-0.15020229,0.15339808,0.54,25.08,-20.64
1554118454739,-6.502053299999999,-3.5045127999999997,5.1505265,0.039414786,-0.002130529,0.053263225,0.78,25.08,-20.52
1554118454758,-6.9228344,-2.9520507,5.7017913,0.007456851,0.036218993,0.049002163,0.96,25.14,-20.4
1554118454779,-6.8306575,-2.8694507999999996,5.625177,0.07669904,0.041545313,0.022370555,1.14,25.2,-20.28
1554118454799,-7.0742674,-2.5983074,5.463568,0.13102753,0.07350325,-0.03834952,1.32,25.26,-20.1
1554118454818,-6.8061169999999995,-2.4103625,5.301361,0.023435817999999997,0.08628642,-0.10333065,1.38,25.32,-20.04
1554118454839,-6.417059,-2.8137856,5.3408656,-0.13848437,0.13741912,-0.17363810000000002,1.44,25.38,-19.98
1554118454859,-6.206369400000001,-3.3237504999999996,5.680842,-0.1438107,0.21411815,-0.2545982,1.44,25.38,-19.92
1554118454880,-5.9047,-3.4967315,5.7849900000000005,-0.043675844000000005,0.29827404,-0.37390783,1.44,25.32,-19.92
1554118454900,-5.4342394,-3.5063082999999997,5.5180364,0.05539375,0.39308259999999995,-0.52837116,1.44,25.32,-19.92
1554118454919,-5.1780596,-2.4331074,5.580883999999999,0.16405073,0.535828,-0.7574029999999999,1.44,25.26,-19.92
1554118454938,-5.061941,-1.9506758000000002,5.4408236,0.20026971,0.6785734,-0.9864349,1.5,25.26,-19.92
1554118454959,-5.0254292000000005,-1.9069817,5.460575599999999,0.20772657,0.8064051999999999,-1.1590078000000001,1.5,25.2,-19.92
1554118454978,-4.7417164000000005,-1.9117701,5.4061074,0.26525086,0.94275904,-1.4008228,1.5,25.2,-19.92
1554118455000,-3.803788,-2.244564,4.733935400000001,0.3270362,1.0748518999999999,-1.75236,1.5,25.2,-19.92
1554118455018,-3.4871547,-2.368464,4.233547,0.2876214,1.1739215,-1.9931098000000003,1.38,25.2,-19.92
1554118455038,-3.4632127,-2.670732,3.1848867000000003,0.18322548,1.3187973,-2.328668,1.08,25.26,-19.98
1554118455059,-3.6918589999999996,-3.3363202000000003,2.415151,-0.22690132,1.5148059999999999,-2.735599,0.72,25.32,-20.04
1554118455078,-3.6601357000000005,-3.7541082,2.4073699,-0.5219796,1.6532904,-2.9955237,0.18,25.26,-20.1
1554118455099,-3.2710779999999997,-4.301183,2.244564,-0.5581986,1.7747306,-3.266101,-0.6,25.14,-20.22
1554118455119,-3.0705638,-4.926069999999999,1.8794483,-0.39201729999999996,1.8833876,-3.5334822999999997,-1.5,24.9,-20.34
1554118455138,-2.7629087,-5.653308999999999,1.1976993999999999,-0.36964676,1.9568908,-3.7518613,-2.52,24.6,-20.46
1554118455159,-2.6186580000000004,-6.399701,0.6757634,-0.55287224,2.0357203,-3.8967373,-3.72,24.24,-20.58
1554118455178,-2.5588029999999997,-7.20535,0.1328782,-0.72970617,2.0815268,-4.0309606,-4.98,23.7,-20.76
1554118455199,-2.3834279,-8.161235000000001,0.34117374,-0.6444850000000001,2.062352,-4.158792500000001,-6.36,23.1,-20.88
1554118455218,-1.9554642,-8.957906,-0.39085343,-0.23222765,1.9813918999999998,-4.2887545,-7.92,22.26,-21.0
1554118455239,-1.2898762,-9.402629,-0.92655605,-0.29933932,1.8695391,-4.3856936,-9.54,21.36,-21.12
1554118455260,-0.9008184000000001,-9.706693,-1.4526819,-0.76485986,1.7608821,-4.287689,-11.22,20.34,-21.24
1554118455279,-0.28072014,-9.709086,-0.11971009,-1.1163971000000001,1.6777915,-4.143879,-13.02,19.02,-21.3
1554118455299,0.108936176,-10.459669,0.7398083000000001,-0.44954160000000004,1.6064188,-4.1193776,-14.76,17.52,-21.48
1554118455319,0.79248077,-11.372458,-1.8249803,0.12996227,1.4402375,-4.2312303,-16.56,15.84,-21.72
1554118455339,1.8722657,-11.022903999999999,-2.5133132999999996,-0.38242993,1.3273195,-4.1428137000000005,-18.36,13.92,-22.14
1554118455359,2.0386627,-10.37228,-1.2964603000000001,-0.98110855,1.2634037,-3.991546,-20.04,11.88,-22.56
1554118455379,2.156577,-10.214862,0.36631286,-0.89162636,1.1653993,-3.9585227999999995,-21.66,9.78,-23.04
1554118455399,3.1824925,-10.171167,-0.85772276,-0.5219796,1.0098706,-4.034156299999999,-23.1,7.38,-23.58
1554118455420,4.863222,-10.278907,-3.1310172,-1.160073,0.89588743,-4.036287000000001,-24.3,5.04,-24.18
1554118455438,5.6604915,-10.675147,-2.6420016,-1.8738002,0.9406285,-3.7987330000000004,-25.32,2.7,-24.9
1554118455458,5.872378299999999,-11.363480000000001,-0.7625531999999999,-1.8152106,0.98110855,-3.5846150000000003,-26.34,0.24,-25.62
1554118455480,6.2626333,-10.510546000000001,0.8882488000000002,-0.9416938,0.94595486,-3.4738274,-27.3,-2.16,-26.22
1554118455499,6.432023,-8.885481,0.3788824,-0.080960095,0.86392945,-3.5185684999999998,-28.02,-4.38,-26.7
1554118455519,7.323863,-9.053075,-1.4263457,0.19174760000000002,0.6870956,-3.5984633,-28.62,-6.72,-27.12
1554118455538,9.048286000000001,-8.956709,-2.1877017000000003,-0.15126756,0.5592638000000001,-3.6155076,-29.04,-9.18,-27.48
1554118455558,9.929353,-8.304289,-1.9351135,-0.69029135,0.5699165,-3.6346824,-29.46,-11.58,-27.78
1554118455578,10.34774,-7.2915410000000005,-1.2078748,-1.2591426000000001,0.5496765,-3.5537221,-29.76,-14.16,-28.02
1554118455599,11.297639,-6.612186400000001,-1.3227965,-1.7587515999999999,0.50173956,-3.3822145,-30.3,-17.76,-28.56
1554118455618,11.601703,-6.170456400000001,-1.8100165000000001,-1.9686086999999999,0.51771855,-3.235208,-30.54,-19.92,-28.92
1554118455639,11.9135475,-6.0848637000000005,-2.1176715,-2.0335898,0.5230448000000001,-3.0658312000000003,-30.66,-22.02,-29.34
1554118455660,12.404359,-6.113594,-1.7489643,-1.9568908,0.52624065,-2.9028456,-30.72,-23.94,-29.82
1554118455679,12.348094999999999,-6.409278,-1.1803415000000002,-1.6735305,0.56459016,-2.6589,-30.78,-25.56,-30.24
1554118455699,11.981782,-6.291962,-0.96187055,-1.3571468999999998,0.5901565,-2.401106,-30.72,-26.22,-30.48
1554118455718,11.587936000000001,-5.7119665,-1.2234371000000002,-0.96299905,0.54435015,-2.0442424,-30.6,-27.42,-30.96
1554118455739,10.825383,-4.7273510000000005,-1.7178397,-0.7126619000000001,0.45486793,-1.5446335,-30.36,-28.86,-31.86
1554118455759,10.269928,-4.3388919999999995,-1.5981296,-0.68816084,0.32490566,-1.1100056,-30.06,-29.58,-32.28
1554118455780,9.93474,-4.210801999999999,-1.2282255,-0.70840085,0.22477080000000002,-0.716923,-29.76,-30.18,-32.58
1554118455798,9.604341,-4.0845080000000005,-1.0911574,-0.75101143,0.17150758,-0.39201729999999996,-29.46,-30.72,-32.94
1554118455818,9.187749,-4.1461587,-0.9684546,-0.7637946,0.14274544,-0.16724652,-29.16,-31.14,-33.18
1554118455838,9.080608,-4.179079,-0.91937345,-0.6828345,0.10226539,-0.036218993,-28.92,-31.44,-33.48
1554118455859,9.766547000000001,-4.2874165,-1.1198878,-0.49747851,0.058589544,-0.011717908999999999,-28.74,-31.68,-33.78
1554118455879,10.057443,-4.313154,-1.1851299,-0.21518342,0.10972224,-0.068176925,-28.62,-31.56,-34.08
1554118455899,9.347562,-4.164714,-1.055843,-0.10333065,0.1949434,-0.08628642,-28.38,-31.44,-34.2
1554118455920,8.472482000000001,-3.8564602999999997,-0.9032126,-0.13315806,0.22903186,-0.02876214,-28.2,-31.2,-34.32
1554118455939,8.377911,-3.5835214,-0.9319430000000001,-0.18429075,0.18642128,0.03195793,-27.96,-31.02,-34.44
1554118455958,8.689157000000002,-3.5811272000000005,-0.7781156,-0.21624869,0.1470065,0.084155895,-27.78,-30.84,-34.56
1554118455979,9.217675999999999,-3.7989995000000003,-0.58657944,-0.15765914,0.12037488,0.16192019,-27.6,-30.66,-34.62
1554118455998,9.689933,-3.8989575,-0.6913256999999999,-0.0053263223,0.10759171,0.23329292,-27.48,-30.42,-34.68
1554118456018,9.925163000000001,-3.7403417,-0.8643068000000002,0.12783173,0.101200126,0.33129725,-27.3,-30.18,-34.62
1554118456039,10.083779,-3.4410665000000003,-1.0809821000000002,0.2066613,0.09161274,0.45273739999999996,-27.12,-30.06,-34.62
1554118456058,9.985018,-3.0544027999999996,-1.163582,0.2066613,0.07989483,0.5795039000000001,-27.0,-29.76,-34.62
1554118456080,9.65821,-2.9257145,-1.009156,0.14274544,0.058589544,0.716923,-26.94,-29.4,-34.62
1554118456099,9.413403,-2.8802247000000003,-0.7745243,0.08522116,-0.002130529,0.8266452,-26.82,-29.1,-34.62
1554118456119,9.39365,-2.9059622000000003,-0.6865373,0.040480047000000005,-0.06711166,0.90654004,-26.76,-28.74,-34.62
1554118456138,9.441533999999999,-2.9203273999999997,-0.7200562,0.011717908999999999,-0.101200126,0.9757822,-26.7,-28.44,-34.62
1554118456159,9.524135000000001,-2.8562827,-0.7565677,-0.011717908999999999,-0.10439592,0.99708754,-26.64,-28.14,-34.68
1554118456178,9.35235,-2.7593174,-0.60812724,-0.02130529,-0.08948222,1.0162623,-26.58,-27.84,-34.74
1554118456199,9.497798,-2.7240029999999997,-0.5686229,-0.022370555,-0.10226539,1.0120013,-26.58,-27.6,-34.8
1554118456218,9.545682000000001,-2.6599581000000003,-0.38845924,-0.00958738,-0.10439592,0.9853696,-26.58,-27.24,-34.86
1554118456238,9.713275999999999,-2.5623944,-0.34835634,-0.020240024,-0.10546118,0.93849796,-26.58,-26.88,-34.92
1554118456258,9.537901,-2.5635915000000002,-0.36152446,-0.05965481,-0.07882957,0.8873653,-26.58,-26.34,-34.98
1554118456280,9.275736,-2.6635494,-0.3274071,-0.10759171,-0.056459017,0.8117314999999999,-26.64,-25.74,-35.04
1554118456299,9.068039,-2.6719291000000003,-0.20350714,-0.15446335,-0.026631612000000002,0.69135666,-26.76,-25.14,-35.04
1554118456318,8.69993,-2.7419596,0.15801731,-0.1438107,-0.00958738,0.58909124,-26.82,-24.3,-35.04
1554118456338,8.565855,-2.8431146000000003,0.46806642,-0.060720075,-0.013848438000000001,0.4644553,-26.94,-23.46,-35.04
1554118456359,8.471883,-2.8431146000000003,0.5410896,0.04474111,-0.007456851,0.33662358,-26.88,-22.68,-35.04
1554118456379,8.584411,-2.7012582000000003,0.28311434,0.10865697,0.008522116,0.22370553,-26.88,-22.02,-34.98
1554118456398,8.765771,-2.690484,0.17357962,0.12250541,0.015978966,0.094808534,-26.82,-21.42,-34.92
1554118456419,9.660604,-2.7760768,0.25318682,0.1107875,0.0031957934000000003,-0.10759171,-26.7,-20.82,-34.86
1554118456439,10.267534,-2.8688521000000002,0.3800795,0.08628642,0.035153727999999995,-0.2727077,-26.46,-20.46,-34.8
1554118456459,9.999383,-3.0496144,0.5021838,0.047936900000000005,0.09161274,-0.41438788,-26.34,-20.28,-34.74
1554118456479,9.367911999999999,-3.020884,0.5542577,0.008522116,0.12783173,-0.4857606,-26.16,-20.22,-34.74
1554118456498,8.786719999999999,-2.895787,0.5351041,-0.060720075,0.15978967,-0.535828,-26.04,-20.22,-34.74
1554118456519,8.337209,-2.871845,0.54647654,-0.13422333,0.18216023,-0.54435015,-25.98,-20.22,-34.74
1554118456539,8.321647,-3.0801406000000005,0.74878657,-0.13209279,0.17363810000000002,-0.55606806,-25.92,-20.22,-34.74
1554118456558,8.756194,-3.3028011,0.8146270999999999,-0.029827405,0.15446335,-0.6018744,-25.86,-20.28,-34.8
1554118456578,9.267356,-3.4243068999999995,0.7116765,0.08841695,0.15659387,-0.6689861,-25.86,-20.4,-34.8
1554118456599,9.624092,-3.3596635000000004,0.44532153,0.15659387,0.1768339,-0.76485986,-25.92,-20.52,-34.86
1554118456618,9.758167,-3.3662476999999997,0.31423897,0.13209279,0.18642128,-0.86606,-25.92,-20.7,-34.86
1554118456638,9.664794,-3.4159272000000005,0.42078096,0.047936900000000005,0.19920446,-0.9406285,-25.92,-20.94,-34.92
1554118456658,9.412804,-3.5236663999999998,0.55485624,-0.02876214,0.21092236,-0.99069595,-25.92,-21.18,-34.92
1554118456679,9.151836,-3.7086184,0.57879823,-0.06285059999999999,0.2130529,-1.0034790999999998,-25.92,-21.54,-34.98
1554118456699,8.930372,-3.8606502999999996,0.670975,-0.04261058,0.20453078,-0.9853696,-25.92,-21.96,-35.04
1554118456718,8.836999,-3.9408559999999997,0.7212533,0.014913702,0.19174760000000002,-0.9576728000000001,-25.92,-22.5,-35.16
1554118456739,8.811859,-4.000711,0.7374141,0.14594123,0.165116,-0.88843054,-25.86,-23.22,-35.34
1554118456759,8.796297000000001,-4.060566000000001,0.664391,0.25885928,0.13848437,-0.8223841999999999,-25.8,-23.88,-35.52
1554118456778,9.088988,-4.0916904999999995,0.6386533000000001,0.34301516,0.10759171,-0.76485986,-25.74,-24.54,-35.64
1554118456799,9.551069,-4.0892963,0.56443304,0.46978164,0.046871635999999994,-0.6668556,-25.68,-25.08,-35.76
1554118456818,9.862314999999999,-4.14975,0.4794389,0.5294364,0.018109497,-0.5858955,-25.62,-25.68,-35.88
1554118456839,9.950302,-4.1359835,0.36930559999999996,0.55074173,0.014913702,-0.5070659000000001,-25.56,-26.22,-35.94
1554118456858,9.518747,-4.0665517,0.3357868,0.5294364,0.027696876000000002,-0.4048005,-25.44,-26.88,-36.0
1554118456879,9.128492,-4.0186677,0.41718966,0.51452273,0.007456851,-0.26418558,-25.38,-27.6,-36.06
1554118456898,9.047089999999999,-3.9552212,0.47225627,0.5454154,-0.026631612000000002,-0.12144015,-25.38,-28.2,-36.12
1554118456918,8.889072,-3.8522705999999998,0.56203884,0.62317973,-0.053263225,0.03834952,-25.32,-28.92,-36.18
1554118456938,9.099762,-3.714604,0.51595044,0.6849651,-0.1107875,0.20240025,-25.32,-29.64,-36.24
1554118456958,9.546281,-3.5470097000000003,0.24241292,0.70840085,-0.15126756,0.34834146,-25.26,-30.36,-36.3
1554118456980,9.929353,-3.342904,0.025737667000000002,0.6988135,-0.17257284,0.46552056,-25.2,-31.08,-36.42
1554118456998,10.234613000000001,-3.2184057,-0.22086509999999998,0.6562029,-0.1768339,0.5773733,-25.14,-31.8,-36.48
1554118457018,10.105327,-3.008913,-0.35553896,0.6018744,-0.15339808,0.69135666,-25.14,-32.28,-36.54
1554118457039,9.572019000000001,-2.7928362,-0.35314476,0.5422196,-0.13848437,0.81705785,-25.08,-32.64,-36.54
1554118457059,9.165004,-2.6132712000000002,-0.29149407,0.48149952,-0.16937704,0.93849796,-25.08,-32.94,-36.48
1554118457078,9.091981,-2.5079262000000004,-0.26336220000000005,0.44315,-0.21411815,1.0578076,-25.08,-33.18,-36.36
1554118457098,9.205107,-2.5348610000000003,-0.32202014,0.43249738,-0.26418558,1.1377025,-25.08,-33.36,-36.24
1554118457119,9.442133,-2.5432408,-0.28012159999999997,0.46232477,-0.30786142,1.1685951,-25.14,-33.6,-36.06
1554118457140,9.783307,-2.5169046,-0.36990416,0.5539375,-0.34727620000000003,1.128115,-25.5,-33.78,-35.82
1554118457158,9.816825999999999,-2.4486697,-0.3513491,0.6040049,-0.3653857,1.0844392,-25.68,-33.84,-35.7
1554118457178,9.847352,-2.3965959999999997,-0.31364042,0.6263755,-0.39308259999999995,1.0056095999999999,-26.1,-33.9,-35.58
1554118457198,9.762358,-2.3888147,-0.35913026,0.608266,-0.39414784,0.9033443000000001,-26.46,-33.9,-35.4
1554118457219,9.450513,-2.3211784,-0.3824737,0.5422196,-0.38882150000000004,0.7819041,-26.88,-33.72,-35.28
1554118457239,9.149442,-2.2697031,-0.3238158,0.45380265,-0.39095205,0.6625945,-27.3,-33.48,-35.1
1554118457259,9.021352,-2.321777,-0.25438392,0.38349520000000004,-0.3898868,0.53263223,-27.72,-33.24,-34.86
1554118457278,8.941146,-2.3720553,-0.08259996,0.36005938,-0.39308259999999995,0.386691,-28.02,-33.0,-34.56
1554118457299,9.170391,-2.9825767999999995,0.14305355,0.46232477,-0.39095205,0.20772657,-28.38,-32.64,-34.2
1554118457319,9.293693,-3.539827,0.17357962,0.737163,-0.37071204,0.07882957,-28.5,-32.4,-33.9
1554118457338,9.41041,-3.9893386,-0.25079262,1.0833739,-0.34621096,0.033023197000000004,-28.68,-32.28,-33.6
1554118457359,9.258378,-3.7283707,-0.7110779,1.3177321000000002,-0.32597092,0.041545313,-28.86,-32.22,-33.3
1554118457379,9.06744,-3.3213562999999993,-1.0696096000000002,1.2314457,-0.35579833,0.099069595,-29.1,-32.34,-33.06
1554118457398,9.072227999999999,-3.2411506,-1.0462662,0.9214538000000001,-0.43569317,0.2130529,-29.4,-32.64,-32.88
1554118457419,8.998607000000002,-3.3512837999999996,-0.6302736,0.5752428,-0.53263223,0.29614353,-29.7,-32.88,-32.76
1554118457439,8.959103,-3.739743,-0.25737667,0.34514567,-0.62317973,0.35579833,-30.0,-33.24,-32.52
1554118457458,9.063251,-4.043208,-0.43933599999999995,0.17257284,-0.6498113,0.38242993,-30.24,-33.72,-32.22
1554118457478,8.962694,-4.248511,-0.6679823,0.0031957934000000003,-0.5997439,0.38562572,-30.48,-34.2,-31.92
1554118457500,8.772355000000001,-4.3478703,-0.7074866,-0.13741912,-0.53476274,0.36432046,-30.66,-34.68,-31.62
1554118457519,8.661622999999999,-4.371214,-0.86729956,-0.30146983,-0.47617322,0.35153726,-30.84,-35.1,-31.26
1554118457538,8.600571,-4.3460746,-0.88405895,-0.515588,-0.43462790000000007,0.37816888,-31.08,-35.4,-30.9
1554118457558,8.527548,-4.4657845,-0.6745663000000001,-0.74461985,-0.43675843,0.41864893,-31.38,-35.58,-30.42
1554118457579,8.579621000000001,-4.6686935,-0.26515785,-0.89588743,-0.45380265,0.44847634,-31.68,-35.58,-30.0
1554118457599,8.644264999999999,-4.990713599999999,-0.2124854,-0.91186637,-0.46019423,0.43995422,-32.04,-35.28,-29.58
1554118457618,8.672996000000001,-5.1798553,-0.42257659999999997,-0.85540736,-0.42077947,0.40373522,-32.34,-34.8,-29.22
1554118457639,8.56825,-5.248688700000001,-0.31783026,-0.74035877,-0.34834146,0.33129725,-32.64,-34.08,-28.98
1554118457659,8.513183,-5.2462945,-0.17836803,-0.5454154,-0.2695119,0.23435818,-32.94,-33.18,-28.68
1554118457678,8.416816,-5.130175599999999,-0.11372458,-0.31957933,-0.19068234,0.12570119999999999,-33.24,-32.28,-28.38
1554118457699,8.381501,-4.9823337,-0.09816227,-0.14807177,-0.12996227,0.017044231,-33.42,-31.38,-28.14
1554118457719,8.324639,-4.819528,-0.14305355,-0.02876214,-0.07882957,-0.09267801,-33.48,-30.6,-28.02
1554118457739,8.356961,-4.6082397,-0.130484,0.046871635999999994,-0.033023197000000004,-0.21624869,-33.54,-29.88,-27.96
1554118457759,8.498816999999999,-4.4538136,-0.15801731,0.10652645,0.010652645,-0.34194988,-33.66,-29.4,-27.9
1554118457781,8.686762,-4.296993700000001,-0.18974048,0.17150758,0.07137272,-0.46765109999999993,-33.72,-29.04,-27.9
1554118457799,8.816647999999999,-4.1772833,-0.26276365,0.23116238,0.1587244,-0.6125271,-33.9,-28.86,-27.84
1554118457818,8.880094999999999,-3.9073372,-0.5542577,0.23648871,0.22903186,-0.69668293,-33.9,-28.8,-27.84
1554118457839,8.899248,-3.4554317,-0.789488,0.101200126,0.314253,-0.78936094,-34.02,-28.86,-27.84
1554118457858,9.010578,-3.2974143,-0.8242039000000001,-0.11824436,0.38882150000000004,-0.8447546999999999,-34.08,-29.04,-27.9
1554118457878,9.15842,-3.1717186,-0.81761986,-0.28549087,0.44634579999999996,-0.9076053,-34.08,-29.46,-27.9
1554118457898,9.333197,-3.1573534,-0.8230068000000001,-0.38562572,0.4878911,-0.9598033000000001,-34.14,-30.0,-27.96
1554118457919,9.552266,-3.1094694,-1.0205284,-0.44528055,0.51665324,-0.9981528000000001,-34.14,-30.48,-27.96
1554118457938,9.707889999999999,-2.9891607999999996,-1.158195,-0.5336975,0.54435015,-1.0205233,-34.08,-31.08,-27.96
1554118457958,9.735422999999999,-2.9406781000000004,-1.1875241,-0.6263755,0.56672066,-1.0183928,-33.96,-31.74,-28.02
1554118457978,9.747394,-2.8107927000000004,-1.3060371000000002,-0.70627034,0.5837649,-1.0045444,-33.78,-32.76,-28.2
1554118457998,9.653421,-2.8395232999999998,-1.3437457,-0.84155893,0.59122175,-0.9491506,-33.6,-33.48,-28.38
1554118458018,9.64983,-2.8981812000000002,-1.3778629999999998,-0.9044095,0.57311225,-0.8969527,-33.48,-33.96,-28.68
1554118458038,9.64564,-2.9831752999999996,-1.3485341,-0.9598033000000001,0.54435015,-0.8319715,-33.3,-34.38,-29.04
1554118458058,9.589975,-3.0011318,-1.3042414,-0.9821738000000001,0.5134575,-0.7584683000000001,-33.06,-34.74,-29.46
1554118458078,9.560047,-2.8766334,-1.5885528,-1.0354371,0.48469532,-0.660464,-32.64,-35.04,-29.94
1554118458098,9.431359,-2.7682957999999998,-1.7477672,-1.2058792999999999,0.45699844,-0.54648066,-32.22,-35.34,-30.42
1554118458119,9.370307,-2.866458,-1.6621746,-1.4327807,0.42397526,-0.4261058,-31.74,-35.46,-30.84
1554118458138,9.386467999999999,-2.9376855,-1.5729905,-1.6128103999999999,0.386691,-0.30679616,-31.32,-35.28,-31.26
1554118458158,9.3421755,-2.9233203,-1.7369933000000002,-1.7449032,0.34834146,-0.20133498,-30.9,-34.86,-31.62
1554118458178,9.408614,-2.9502552000000004,-2.0500352,-1.9813918999999998,0.30679616,-0.09374327,-30.42,-34.32,-31.98
1554118458198,9.521142,-3.3213562999999993,-2.4851813,-2.3446472000000003,0.2727077,0.007456851,-30.0,-33.42,-32.28
1554118458218,9.467272,-3.6337996,-2.622848,-2.7409256,0.27377295,0.12463594,-29.58,-32.34,-32.64
1554118458238,9.340978,-3.957017,-2.8335377999999998,-3.0381343,0.23116238,0.24820662,-29.34,-31.14,-32.88
1554118458259,9.183558999999999,-4.4699745,-2.5306710999999997,-3.2032502,0.13528858,0.37710363,-29.1,-29.7,-33.18
1554118458278,9.156025999999999,-5.035605,-2.291251,-3.053048,0.014913702,0.5113269,-28.92,-28.14,-33.42
1554118458298,9.078813,-5.237316000000001,-2.409764,-2.6855316000000005,-0.11824436,0.6625945,-28.68,-26.46,-33.6
1554118458318,8.781333,-4.71957,-2.878429,-2.3190807999999996,-0.31105720000000003,0.8213189000000001,-28.38,-24.54,-33.66
1554118458338,8.824428999999999,-4.6040497,-3.5942953,-2.1294637,-0.6199839,1.0418286,-28.14,-22.32,-33.54
1554118458358,8.960898,-4.656722,-3.8612487,-2.1379857,-0.87351686,1.176052,-27.9,-19.98,-33.24
1554118458378,9.124303,-4.6166196,-3.9264907999999994,-2.118811,-1.1472898999999999,1.2516857,-27.66,-17.52,-32.7
1554118458399,9.018359,-4.855441000000001,-4.0282445,-1.9728698,-1.3923006000000002,1.2942963,-27.54,-14.88,-32.04
1554118458418,9.172785000000001,-4.948815,-4.745906400000001,-1.7726,-1.5456988,1.3038836999999999,-27.48,-12.18,-31.14
1554118458438,8.94773,-4.59567,-5.7365074,-1.6692694,-1.6362462,1.3070794,-27.42,-9.54,-30.0
1554118458458,8.756793,-4.437653,-5.807136,-1.6671387999999998,-1.7576863999999999,1.3166668,-27.42,-6.9,-28.74
1554118458478,8.583213,-4.407127,-5.427655000000001,-1.5659386999999998,-1.9089539,1.3060142,-27.48,-4.5,-27.36
1554118458498,8.602366,-4.2940005999999995,-5.8789620000000005,-1.4327807,-2.07407,1.3113406,-27.54,-2.4,-25.8
1554118458519,8.526351,-4.3724110000000005,-6.4709287,-1.4295848999999998,-2.1997712000000003,1.2687298999999999,-27.6,-0.36,-24.12
1554118458538,8.291121,-4.422689,-7.056311,-1.4956313,-2.2786007,1.2239889,-27.66,1.62,-22.38
1554118458558,7.969100500000001,-4.1880574,-7.769783,-1.5765913999999999,-2.364887,1.1536813999999997,-27.72,3.6,-20.52
1554118458579,7.835623700000001,-3.904943,-7.708132300000001,-1.6969663000000001,-2.457565,1.0876350000000001,-27.78,5.46,-18.6
1554118458598,7.4986396,-4.124611,-7.513005000000001,-1.6575514999999998,-2.5182853,1.0066749,-27.78,7.2,-16.68
1554118458618,6.9886745999999995,-3.9498343,-7.893683,-1.546764,-2.5513084,0.92784536,-27.78,8.88,-14.7
1554118458639,6.362591,-3.9683892999999997,-8.116942,-1.3401027,-2.530003,0.7850999,-27.78,10.38,-12.54
1554118458658,5.483919,-3.5057099999999997,-8.660426,-1.1494204,-2.5033715,0.664725,-27.72,11.76,-10.38
1554118458679,4.9218802,-3.3327288999999998,-8.47308,-1.0982877,-2.5086977000000004,0.49321744,-27.54,12.9,-8.22
1554118458698,4.6273932,-3.2261868,-8.368932000000001,-0.87990844,-2.4383903,0.42184472,-27.24,13.74,-6.06
1554118458718,4.0803185,-3.0621839,-8.339603,-0.7137272,-2.3616912,0.27696875,-26.94,14.34,-3.9
1554118458738,3.4386723,-2.9939492000000003,-8.381501,-0.52411014,-2.2381206000000002,0.15978967,-26.58,14.76,-1.8
1554118458758,2.7730842,-3.0053217,-8.460510000000001,-0.257794,-2.1124194,0.080960095,-26.22,15.18,0.24
1554118458779,2.273893,-2.9694088,-8.578424,0.014913702,-2.005893,0.026631612000000002,-25.74,15.54,1.98
1554118458799,2.0464439999999997,-2.4193408,-8.823232,0.082025364,-1.9100191999999998,0.012783173500000002,-25.26,15.78,3.54
1554118458819,1.9351135,-2.2313959999999997,-8.44375,-0.08735169,-1.8024273999999998,0.002130529,-24.54,16.08,4.98
1554118458838,1.5233108,-2.3421277999999996,-8.941745,-0.2908172,-1.6959009999999999,-0.022370555,-23.82,16.38,6.18
1554118458859,1.4203602,-2.0901381999999997,-9.693524,-0.62317973,-1.6170714,-0.043675844000000005,-23.04,16.74,7.98
1554118458879,1.1785458,-2.2397757,-9.661800999999999,-0.71585774,-1.5478293,-0.07989483,-22.56,16.98,8.94
1554118458899,0.78050977,-2.7365725,-9.264363000000001,-0.588026,-1.5052186,-0.10759171,-22.26,17.1,9.36
1554118458919,0.64583594,-2.6342204,-9.226655000000001,-0.386691,-1.4753913,-0.11611383,-21.78,17.16,10.14
1554118458938,0.54408234,-2.3427265,-9.257181,-0.31105720000000003,-1.4253238000000001,-0.11824436,-21.3,17.28,11.04
1554118458959,0.20290859,-2.1936872000000003,-9.626487,-0.33662358,-1.3763216999999999,-0.12037488,-20.94,17.34,12.06
1554118458978,0.025139118,-2.1416135,-10.016143,-0.39414784,-1.3550163999999998,-0.13635385,-20.7,17.4,13.08
1554118458999,-0.110133275,-2.4768016,-9.560047,-0.3898868,-1.2996226999999998,-0.16724652,-20.22,17.46,14.64
1554118459018,-0.42916065,-2.7994204,-9.039309,-0.15552860000000002,-1.2506205,-0.1949434,-19.8,17.46,15.42
1554118459039,-0.5734113000000001,-2.4654293,-9.824607,-0.010652645,-1.2144015,-0.18002969,-19.38,17.4,16.2
1554118459059,-0.48722005,-2.260725,-9.705494999999999,-0.14594123,-1.1685951,-0.18535602,-18.96,17.4,16.86
1554118459079,-0.94211835,-2.4259247999999998,-9.31943,-0.165116,-1.1132014,-0.18216023,-18.6,17.34,17.52
1554118459099,-1.1348516000000002,-2.4109612,-9.600749,-0.112918034,-1.0961571,-0.18322548,-18.18,17.28,18.0
1554118459119,-1.3383588,-2.4396915,-9.76116,-0.13102753,-1.055677,-0.18642128,-17.88,17.22,18.3
1554118459138,-1.5861586,-2.670732,-9.160214999999999,-0.15978967,-0.99069595,-0.18642128,-17.64,17.1,18.66
1554118459159,-1.8980032999999998,-2.7096379,-9.161413,-0.12783173,-0.9438243000000001,-0.14274544,-17.46,16.98,19.02
1554118459179,-2.156577,-2.2649147999999997,-9.305663000000001,-0.13635385,-0.9129315999999998,-0.10759171,-17.34,16.86,19.32
1554118459199,-2.5647886000000004,-2.1027076,-9.482236,-0.18748654,-0.90654004,-0.06178534,-17.1,16.68,19.68
1554118459219,-2.7425580000000003,-1.7537526999999997,-9.506777,-0.3653857,-0.9054747999999999,-0.025566347000000003,-16.74,16.56,19.98
1554118459240,-2.8395232999999998,-2.3415293999999998,-8.838196,-0.43569317,-0.86499476,-0.033023197000000004,-16.32,16.38,20.34
1554118459259,-2.8431146000000003,-2.5558102000000003,-8.562861999999999,-0.294013,-0.83942837,-0.036218993,-15.84,16.2,20.64
1554118459279,-3.0741549999999997,-2.3774424,-8.564658,-0.007456851,-0.7840345999999999,-0.022370555,-15.36,16.02,21.0
1554118459299,-3.3842041,-3.4308910000000004,-7.1670427,0.46125950000000004,-0.70840085,0.039414786,-14.88,15.96,21.3
1554118459318,-3.2626984,-1.9680338,-8.975264,0.8159926,-0.6924219,0.029827405,-14.46,15.9,21.6
1554118459338,-3.4991257000000004,-1.4718354999999999,-9.146449,0.44101948,-0.66152924,0.082025364,-13.98,15.84,21.9
1554118459359,-3.8744167999999997,-1.9644424999999999,-9.221267999999998,0.16298546,-0.6306366,0.17896444,-13.68,15.84,22.2
1554118459379,-3.7660792,-1.8555063000000003,-9.32362,-0.051132694000000006,-0.63915867,0.20879184,-13.38,15.9,22.44
1554118459399,-3.7469256,-1.8584990000000001,-8.533533,-0.29827404,-0.6146576,0.24820662,-13.14,16.08,22.74
1554118459419,-3.9743748,-2.1631612999999996,-8.574235,-0.42184472,-0.57417756,0.25246766,-12.78,16.5,22.92
1554118459440,-4.3047748,-2.0931308,-9.014768,-0.48043427,-0.5390238,0.24820662,-12.48,16.8,23.16
1554118459459,-4.4879313,-1.9895816000000002,-9.047089999999999,-0.41438788,-0.5028047999999999,0.22796659,-12.12,17.1,23.22
1554118459479,-4.7165775000000005,-1.5101427,-9.518148,-0.34621096,-0.46658584,0.17470337,-11.76,17.46,23.22
1554118459499,-4.7632639999999995,-1.1186907,-8.905831,-0.36964676,-0.45486793,0.128897,-11.4,17.7,23.28
1554118459519,-4.6561236,-1.3814543,-8.527548,-0.34834146,-0.45806372,0.094808534,-10.98,17.82,23.34
1554118459540,-4.59986,-2.0715830000000004,-8.534730999999999,-0.19068234,-0.47723848,0.047936900000000005,-10.62,17.88,23.46
1554118459558,-4.747103,-2.1733365,-9.008782,0.037284255,-0.50600064,-0.06285059999999999,-10.32,17.76,23.58
1554118459578,-4.875193,-2.1266496,-8.928576,0.30786142,-0.5390238,-0.16192019,-10.08,17.46,23.82
1554118459599,-5.0697220000000005,-1.9578583999999999,-8.212111,0.6402239000000001,-0.5613944000000001,-0.2428803,-9.78,17.28,24.0
1554118459619,-5.275025,-1.6795325,-8.070255,0.88949585,-0.567786,-0.24501082,-9.48,17.1,24.24
1554118459640,-5.173271,-1.7292121999999999,-8.297705,0.8671253000000001,-0.5592638000000001,-0.23968449999999997,-9.24,17.16,24.42
1554118459659,-5.251083,-1.9782091,-8.460510000000001,0.67005134,-0.4825648,-0.31212249999999997,-8.94,17.22,24.6
1554118459678,-5.6964045,-2.0805612,-8.450335,0.45912898,-0.39308259999999995,-0.35579833,-8.7,17.4,24.78
1554118459700,-5.8107276,-2.486977,-7.9768815,0.35473305,-0.350472,-0.28868666,-8.46,17.64,24.84
1554118459719,-6.233304,-1.5358804,-7.7183075,0.2972088,-0.31105720000000003,-0.18642128,-8.28,17.94,24.84
1554118459739,-5.494693,-1.4251486,-7.602189,0.04580637,-0.36645097,0.0010652645,-8.16,18.3,24.6
1554118459758,-5.2037973,-2.4732103,-7.73387,-0.22796659,-0.34621096,0.018109497,-8.04,18.6,24.42
1554118459779,-5.6090160000000004,-2.1990743,-8.273763,-0.37816888,-0.36325517,-0.027696876000000002,-7.92,18.9,24.24
1554118459799,-5.53719,-2.2260091,-7.9750857,-0.2790993,-0.37390783,0.051132694000000006,-7.86,19.02,24.06
1554118459819,-4.964976,-2.0446482,-7.2885485,-0.113983296,-0.32384038,0.07137272,-7.86,19.2,23.88
1554118459838,-5.094861,-1.2210428999999998,-7.4866686,-0.20026971,-0.22903186,0.07350325,-7.8,19.32,23.7
1554118459858,-5.3923407,-1.1384428999999998,-7.466916599999999,-0.47617322,-0.17257284,0.14274544,-7.74,19.44,23.58
1554118459879,-5.478532,-1.5197195,-8.060080000000001,-0.78936094,-0.15126756,0.19387813,-7.62,19.5,23.64
1554118459899,-4.748899,-2.3576900000000003,-8.199542,-0.93423694,-0.082025364,0.07989483,-7.44,19.56,23.82
1554118459919,-5.5162406,-2.9843724,-7.3549875999999985,-0.700944,0.080960095,-0.18535602,-7.08,19.5,24.18
1554118459938,-5.753267,-2.878429,-7.793725,-0.36432046,0.07350325,-0.10226539,-6.96,19.5,24.3
1554118459958,-5.6431336,-1.7405846,-8.006809,-0.13422333,0.054328485999999995,-0.10865697,-6.72,19.38,24.54
1554118459979,-5.981913,-1.441908,-8.15525,0.027696876000000002,0.022370555,-0.098004326,-6.42,19.08,24.9
1554118459999,-6.10701,-1.5682021000000002,-8.789114,0.13315806,-0.025566347000000003,-0.111852765,-6.24,18.78,25.08
1554118460019,-6.337452,-1.2575544,-8.919,0.07030745599999999,-0.056459017,-0.113983296,-6.12,18.48,25.26
1554118460039,-6.214748999999999,-1.2509704,-8.170214,-0.05965481,-0.09587380000000001,-0.1438107,-6.12,18.24,25.38
1554118460059,-6.145916000000001,-1.5640123,-7.77517,-0.04580637,-0.13422333,-0.15446335,-6.18,18.0,25.38
1554118460079,-5.984307299999999,-1.614889,-7.61835,0.007456851,-0.14594123,-0.18748654,-6.36,17.76,25.38
1554118460099,-6.0106435,-1.5951369,-8.069058,0.06285059999999999,-0.13635385,-0.21944448,-6.42,17.58,25.38
1554118460119,-6.003461,-1.38325,-8.444349,-0.018109497,-0.13848437,-0.22477080000000002,-6.54,17.4,25.32
1554118460138,-5.9412117,-1.5532384,-8.290522,-0.17044231,-0.12037488,-0.23009712,-6.6,17.34,25.32
1554118460158,-5.617396,-2.0614076,-7.86615,-0.26205507,-0.10013486,-0.19707392,-6.72,17.28,25.26
1554118460180,-5.145738,-3.5015199999999997,-7.105392,-0.07137272,0.040480047000000005,-0.07137272,-6.78,17.1,25.26
1554118460198,-5.743091000000001,-2.979584,-7.6506715,0.3206446,0.08841695,-0.10972224,-6.78,16.8,25.2
1554118460219,-6.191406,-1.5903485000000002,-8.555081,0.35260254,0.02130529,-0.19174760000000002,-6.78,16.56,25.2
1554118460239,-5.919664,-1.3617021999999999,-8.6299,0.084155895,0.05539375,-0.11611383,-6.78,16.38,25.2
1554118460258,-6.041768,-1.4676456,-7.796119,-0.1768339,0.13741912,-0.05752428,-6.78,16.26,25.2
1554118460278,-6.1608795999999995,-1.2000936000000002,-7.1808095000000005,-0.31851408,0.14913702,-0.022370555,-6.78,16.14,25.14
1554118460298,-6.201581,-1.1432313,-8.040328,-0.44741106,0.08948222,0.0010652645,-6.84,16.02,25.14
1554118460319,-6.149507,-1.8154035,-9.030928999999999,-0.5901565,0.08522116,0.037284255,-6.84,15.96,25.14
1554118460339,-5.7640405,-2.2307975,-8.628103999999999,-0.4282363,0.07563378,-0.025566347000000003,-6.96,15.9,25.14
1554118460359,-5.925050700000001,-1.3150153,-8.058883,-0.28229508,0.017044231,-0.08522116,-7.08,15.84,25.14
1554118460379,-5.5910597,-1.2922704,-8.197746,-0.3174488,-0.043675844000000005,-0.06604639400000001,-7.2,15.78,25.14
1554118460399,-5.431845,-1.5693992,-8.744224,-0.39308259999999995,-0.06498113,-0.10333065,-7.32,15.66,25.2
1554118460418,-5.756858,-1.2533646,-9.016563,-0.567786,-0.08948222,-0.13102753,-7.44,15.48,25.26
1554118460438,-6.071097,-1.292869,-9.184157,-0.7552725,-0.083090626,-0.11930962,-7.56,15.18,25.32
1554118460458,-6.190807,-1.0121487,-7.704541000000001,-0.8852348,-0.05006743,-0.09267801,-7.68,14.82,25.44
1554118460479,-5.8681884,-1.2204443,-7.184999499999999,-0.80107886,-0.10865697,0.0053263223,-7.8,14.4,25.56
1554118460499,-5.7209449999999995,-1.4999673,-7.5231805,-0.6870956,-0.10013486,-0.017044231,-7.86,13.98,25.74
1554118460519,-5.755062000000001,-1.3623008,-7.865550999999999,-0.43888897,-0.068176925,-0.06498113,-7.92,13.56,26.1
1554118460539,-5.8149176,-0.82719666,-8.109759,-0.18961707,-0.047936900000000005,-0.15339808,-7.98,13.02,26.46
1554118460559,-5.681441,-0.82001406,-7.798513400000001,0.07350325,-0.04474111,-0.12357068,-7.98,12.48,26.76
1554118460579,-5.3779755,-1.3317747,-7.60997,0.39734364,0.014913702,-0.13209279,-7.98,12.0,27.12
1554118460599,-5.410896,-1.2336124,-7.7811556,0.56672066,0.06604639400000001,-0.1438107,-8.04,11.52,27.48
1554118460619,-5.2642508,-0.92535895,-8.070853999999999,0.60720074,0.10546118,-0.17470337,-8.04,11.16,27.78
1554118460639,-5.995081,-0.28311434,-8.421603999999999,0.36964676,0.10013486,-0.17257284,-8.04,10.86,28.02
1554118460658,-6.203975,-0.7128736,-8.301894,0.19920446,0.06604639400000001,-0.06285059999999999,-8.04,10.68,28.2
1554118460678,-6.3099184,-0.8678981,-8.763975,0.09267801,0.029827405,-0.046871635999999994,-8.04,10.5,28.14
1554118460700,-6.178836,-1.1438298,-8.517971000000001,-0.040480047000000005,0.002130529,-0.056459017,-8.04,10.56,28.08
1554118460719,-5.897517,-1.8555063000000003,-7.704541000000001,-0.0031957934000000003,-0.00958738,-0.09587380000000001,-8.04,10.62,27.9
1554118460738,-5.85921,-1.8399439999999998,-7.581838,0.15659387,-0.02130529,-0.12996227,-8.1,10.68,27.84
1554118460759,-5.895722,-1.5442601,-7.6889787,0.29507825,-0.04261058,-0.12037488,-8.1,10.8,27.66
1554118460780,-5.950189599999999,-1.5388732,-7.7907324000000004,0.3334278,-0.05219796,-0.12676647,-8.1,10.92,27.6
1554118460798,-5.8825536,-1.340753,-8.176199,0.24181503,-0.013848438000000001,-0.19281286,-8.16,11.1,27.54
1554118460818,-6.0268044000000005,-1.3221979,-7.955932000000001,0.098004326,-0.0031957934000000003,-0.17576863,-8.16,11.28,27.54
1554118460839,-5.9849057,-1.6370354,-7.587225,0.07776430000000001,0.00958738,-0.12676647,-8.28,11.46,27.6
1554118460858,-6.089053599999999,-1.7142484,-7.8290396,0.31638354,0.025566347000000003,-0.082025364,-8.28,11.64,27.66
1554118460879,-6.118981,-1.9009962,-8.397662,0.531567,0.011717908999999999,-0.043675844000000005,-8.34,11.82,27.66
1554118460899,-5.4665610000000004,-2.7754784,-7.943961,0.7499462,0.029827405,0.01917476,-8.4,12.0,27.6
1554118460918,-5.389348,-2.5797524,-8.395268,0.9416938,0.07563378,-0.24394555,-8.46,12.24,27.6
1554118460941,-5.715558000000001,-2.8568811000000003,-8.282741,0.9960223,0.05965481,-0.24820662,-8.52,12.42,27.48
1554118460959,-5.5886655,-2.7856536,-8.515577,1.0205233,0.025566347000000003,-0.25353295,-8.52,12.66,27.24
1554118460979,-5.579088700000001,-2.6797101000000003,-8.792705999999999,0.93636745,0.0063915867,-0.26312032,-8.52,12.9,26.88
1554118460998,-5.6987987,-2.629432,-8.645462,0.74035877,-0.00958738,-0.2428803,-8.52,13.26,26.46
1554118461019,-5.699397,-2.7329812,-8.09719,0.58483016,-0.03089267,-0.23755397,-8.52,13.74,26.04
1554118461038,-5.5419784000000005,-2.9502552000000004,-7.831434,0.6103965,-0.060720075,-0.23648871,-8.52,14.34,25.68
1554118461059,-5.8065375999999995,-2.80361,-8.297705,0.721184,-0.06178534,-0.25353295,-8.52,15.0,25.26
1554118461078,-5.988497,-2.475006,-8.752603,0.6466155,-0.07776430000000001,-0.26631612,-8.52,15.78,24.96
1554118461099,-6.172850599999999,-2.4594438,-8.860342,0.39414784,-0.12676647,-0.29614353,-8.46,16.56,24.6
1554118461119,-6.395511,-2.8646624,-8.692748,0.25992453,-0.2066613,-0.32490566,-8.46,17.28,24.3
1554118461139,-6.51163,-3.2225955,-8.116942,0.27590349999999997,-0.32170987,-0.39627838,-8.46,17.94,24.12
1554118461158,-6.4667387000000005,-3.5865142,-7.7709804,0.44634579999999996,-0.43888897,-0.45699844,-8.46,18.48,23.94
1554118461178,-6.6965823,-3.942053,-7.779958199999999,0.7456851,-0.531567,-0.51026165,-8.46,18.9,23.7
1554118461198,-7.0395517000000005,-3.9348705,-8.401853,0.97897804,-0.6327670999999999,-0.5422196,-8.46,19.2,23.46
1554118461219,-7.20535,-3.9264907999999994,-8.441956,1.0396981,-0.74781567,-0.57311225,-8.46,19.44,23.22
1554118461239,-7.289147,-4.246715,-8.025963,0.99495703,-0.8863,-0.608266,-8.4,19.74,22.92
1554118461259,-7.2059484,-4.607641,-7.563283,0.96086854,-1.0396981,-0.6295713000000001,-8.4,19.98,22.62
1554118461278,-7.328651400000001,-5.1696800000000005,-7.3071036,1.0769824,-1.160073,-0.6562029,-8.4,20.28,22.26
1554118461301,-7.438784599999999,-5.5940523,-7.0066314,1.3326459,-1.2836437,-0.67218184,-8.4,20.58,21.9
1554118461319,-7.3938932,-5.7640405,-6.7109475000000005,1.5968314,-1.4242586000000002,-0.6562029,-8.4,20.94,21.3
1554118461339,-7.4483614000000005,-6.035782299999999,-6.637924000000001,1.804558,-1.530785,-0.6348976,-8.4,21.3,20.76
1554118461359,-7.6321163,-6.2608375999999994,-5.897517,1.9313244999999999,-1.6234629999999999,-0.5997439,-8.4,21.72,19.98
1554118461379,-7.5483193,-6.528988,-5.239112,2.0772657,-1.7395768,-0.55287224,-8.4,22.26,19.26
1554118461399,-7.4495587,-6.640917,-4.707599,2.2786007,-1.8098843,-0.46978164,-8.4,22.86,18.48
1554118461419,-7.563882,-6.5846534,-4.353855599999999,2.4458472999999996,-1.865278,-0.35899413,-8.4,23.52,17.58
1554118461438,-7.319673,-6.678625599999999,-3.8271315,2.4969799999999998,-1.9238676,-0.23861924,-8.34,24.24,16.62
1554118461458,-7.0048356,-6.6923923,-3.0986955000000003,2.4959147,-1.9185413,-0.1107875,-8.22,24.96,15.54
1554118461479,-7.041946,-6.350619999999999,-2.4426842,2.4064324,-1.8556907,0.041545313,-7.92,25.68,14.4
1554118461499,-6.917447,-5.753267,-2.1039047,2.0889835,-1.8002968999999998,0.18216023,-7.68,26.52,13.02
1554118461519,-6.6229606,-5.2301335,-1.7723078,1.598962,-1.7235979,0.2695119,-7.38,27.3,11.7
1554118461538,-6.4098763,-5.156512,-1.1300632,1.1142666,-1.6234629999999999,0.30892670000000005,-7.14,28.14,10.2
1554118461558,-6.1698580000000005,-5.6042275,-0.46926352,0.82344943,-1.5030881,0.3206446,-6.78,28.74,8.7
1554118461578,-6.208165,-6.053739,0.50637364,0.84581995,-1.3518206,0.28229508,-6.48,29.28,7.38
1554118461599,-6.0884547,-6.0639142999999995,0.9020155000000001,1.0769824,-1.2484899999999999,0.24820662,-6.12,29.82,6.12
1554118461619,-6.0405707,-5.707777,1.204882,1.2996226999999998,-1.1142666,0.2130529,-5.4,30.6,4.68
1554118461639,-6.3685765,-5.337274,1.2940661,1.510545,-0.9672601000000001,0.16724652,-4.98,31.08,3.9
1554118461658,-6.4805055,-5.0787005,1.2467805,1.5488945,-0.902279,0.18216023,-4.56,31.44,3.06
1554118461679,-6.4787097000000005,-4.968567,1.2054806,1.3709954,-0.8000136,0.19813919,-4.2,31.68,2.22
1554118461699,-6.5666966,-4.947618,1.5149311,1.0727214,-0.7094661,0.2130529,-3.84,31.92,1.44
1554118461718,-6.730699499999999,-5.1104236,1.9129671999999998,0.88949585,-0.6498113,0.21944448,-3.66,31.98,1.02
1554118461739,-6.900687700000001,-5.275025,2.2164322999999997,0.7499462,-0.5901565,0.22583607,-3.24,32.16,-0.54
1554118461759,-6.822277499999999,-5.1529207,2.3948002,0.7041398,-0.53795856,0.21731395,-3.06,32.22,-1.62
1554118461779,-6.821679,-5.0942625999999995,2.5965118,0.660464,-0.46765109999999993,0.1768339,-3.0,32.22,-2.7
1554118461799,-6.8103065,-5.068525,2.718616,0.572047,-0.4165184,0.14061491,-3.0,32.22,-3.66
1554118461818,-6.805517999999999,-5.193622,2.8760347,0.51026165,-0.3717773,0.10013486,-2.94,32.22,-4.32
1554118461840,-6.96174,-5.317522,3.1824925,0.5368933000000001,-0.34194988,0.07776430000000001,-2.88,32.16,-4.8
1554118461859,-7.091027,-5.4713492,3.103484,0.6412892,-0.33555830000000003,0.07030745599999999,-2.76,32.1,-5.28
1554118461878,-7.131129700000001,-5.2810106,2.9700072,0.67005134,-0.33129725,0.06924219,-2.64,32.04,-5.64
1554118461899,-7.253833,-4.868608999999999,2.7898436,0.5411543000000001,-0.32384038,0.07563378,-2.52,31.92,-5.88
1554118461918,-7.1586633,-4.8404775,2.9311013,0.32597092,-0.33129725,0.07669904,-2.46,31.8,-6.12
1554118461939,-7.016806599999999,-4.964976,3.3620577000000003,0.19920446,-0.350472,0.05752428,-2.34,31.68,-6.48
1554118461958,-6.8150949999999995,-5.019444,3.5529952000000007,0.22370553,-0.36218992,0.043675844000000005,-2.28,31.62,-6.9
1554118461979,-6.901885000000001,-4.9895163,3.5547910000000003,0.27377295,-0.34834146,0.040480047000000005,-2.22,31.44,-7.38
1554118461998,-6.9569516,-4.847659999999999,3.5853171,0.26205507,-0.33768883,0.043675844000000005,-2.16,31.2,-7.8
1554118462019,-6.8599863,-4.807557,3.7618894999999997,0.20772657,-0.31851408,0.043675844000000005,-2.16,30.84,-8.28
1554118462038,-6.9246297000000006,-4.805162999999999,3.8492777,0.12783173,-0.30040458,0.047936900000000005,-2.16,30.48,-8.64
1554118462058,-6.9731125999999986,-4.7303440000000005,3.855862,0.054328485999999995,-0.2972088,0.054328485999999995,-2.16,30.12,-8.94
1554118462079,-6.931812299999999,-4.7159786,3.6595372999999998,-0.047936900000000005,-0.29614353,0.07989483,-2.16,29.7,-9.18
1554118462098,-6.9360023,-4.821324,3.8827964999999995,-0.13741912,-0.26844665,0.10013486,-2.16,29.34,-9.36
1554118462118,-6.974908,-4.8698063,4.0078936,-0.13954964,-0.25566345,0.12570119999999999,-2.16,28.92,-9.42
1554118462138,-6.747458999999999,-4.8997335,3.98874,-0.13954964,-0.22796659,0.1438107,-2.22,28.56,-9.48
1554118462159,-6.713939999999999,-4.823718,3.98874,-0.16298546,-0.18002969,0.13528858,-2.22,28.32,-9.54
1554118462178,-6.8049197,-4.7967830000000005,3.9707835,-0.22796659,-0.15552860000000002,0.12144015,-2.22,28.26,-9.54
1554118462198,-7.0940194000000005,-4.88477,3.970185,-0.28868666,-0.14061491,0.113983296,-2.28,28.2,-9.54
1554118462218,-7.16405,-5.1918263,4.065953299999999,-0.2695119,-0.16085494,0.09587380000000001,-2.34,28.14,-9.54
1554118462238,-6.9246297000000006,-5.365406,4.3101616,-0.14487597,-0.17257284,0.07563378,-2.34,28.14,-9.6
1554118462258,-6.907272,-5.3444567,4.533421,0.022370555,-0.16405073,0.043675844000000005,-2.4,28.14,-9.6
1554118462278,-6.9743094,-5.1648917,4.5136685,0.17150758,-0.16831179,0.020240024,-2.4,28.14,-9.6
1554118462298,-7.0012445,-5.0158525,4.406528,0.23861924,-0.17363810000000002,0.0031957934000000003,-2.4,28.2,-9.6
1554118462318,-6.905475999999999,-4.9679685,4.371214,0.22477080000000002,-0.19281286,-0.033023197000000004,-2.4,28.32,-9.6
1554118462339,-6.8516070000000004,-5.024831,4.5220485,0.23542345,-0.18535602,-0.06178534,-2.34,28.56,-9.6
1554118462358,-6.6247563,-4.8279076,4.559158999999999,0.1949434,-0.16298546,-0.07243799,-2.28,28.74,-9.6
1554118462379,-6.5684924,-4.917092,4.4448357000000005,0.101200126,-0.11611383,-0.10013486,-2.22,28.92,-9.6
1554118462398,-6.637326,-5.024831,4.451419400000001,0.01917476,-0.096939065,-0.1107875,-2.22,28.98,-9.6
1554118462419,-6.6510925,-5.115810400000001,4.4897265,-0.008522116,-0.07776430000000001,-0.10439592,-2.1,29.22,-9.6
1554118462438,-6.578069,-4.8763905,4.3903675,0.002130529,-0.05965481,-0.09161274,-2.04,29.4,-9.6
1554118462458,-6.543952,-4.900332499999999,4.335301,-0.041545313,-0.027696876000000002,-0.08841695,-1.98,29.52,-9.6
1554118462478,-6.672640299999999,-4.835689,4.507085,-0.068176925,0.008522116,-0.12463594,-1.92,29.58,-9.6
1554118462499,-6.8067155,-4.920683,4.563947,-0.02130529,0.036218993,-0.15446335,-1.86,29.58,-9.6
1554118462518,-6.695385000000001,-4.991312000000001,4.298789,0.014913702,0.043675844000000005,-0.165116,-1.86,29.64,-9.6
1554118462538,-6.654085,-5.059547,4.211999400000001,-0.0031957934000000003,0.06178534,-0.18855181,-1.8,29.7,-9.6
1554118462561,-6.6145806,-5.1259856,4.3556514,-0.027696876000000002,0.06604639400000001,-0.20879184,-1.8,29.76,-9.54
1554118462579,-6.455965,-5.346851,4.512471700000001,-0.02130529,0.07882957,-0.20026971,-1.74,29.88,-9.6
1554118462599,-6.425439,-5.33488,4.2957964,0.0053263223,0.096939065,-0.20240025,-1.74,30.0,-9.54
1554118462618,-6.619369,-5.4025164000000006,4.353257,-0.012783173500000002,0.13315806,-0.20985709,-1.74,30.06,-9.54
1554118462638,-6.8575919999999995,-5.4126916,4.4819455,0.018109497,0.14594123,-0.22370553,-1.74,30.18,-9.54
1554118462659,-6.627150500000001,-5.329493,4.4837413,0.098004326,0.12570119999999999,-0.23116238,-1.8,30.3,-9.54
1554118462678,-6.5110316,-5.2726307,4.4915223,0.17576863,0.1470065,-0.23435818,-1.8,30.36,-9.54
1554118462699,-6.6576759999999995,-5.249287000000001,4.4220904999999995,0.19387813,0.18642128,-0.2428803,-1.8,30.48,-9.6
1554118462719,-6.8384385,-5.195418,4.3514614,0.15233281,0.21624869,-0.24501082,-1.86,30.54,-9.6
1554118462738,-6.88333,-5.167286,4.338293599999999,0.10759171,0.2130529,-0.23542345,-1.98,30.54,-9.66
1554118462758,-6.904278999999999,-5.1319714,4.2981906,0.05219796,0.18429075,-0.23542345,-2.1,30.54,-9.66
1554118462779,-6.849212599999999,-5.209783,4.4059295999999994,0.017044231,0.17363810000000002,-0.22796659,-2.28,30.6,-9.72
1554118462798,-6.9862804,-5.1930237,4.4765587,0.046871635999999994,0.16192019,-0.23329292,-2.46,30.54,-9.78
1554118462818,-7.0024414,-5.088876,4.3568487000000005,0.06924219,0.14807177,-0.23009712,-2.58,30.54,-9.78
1554118462839,-7.086836999999999,-4.9895163,4.2580876,0.07350325,0.13315806,-0.23861924,-2.76,30.54,-9.9
1554118462859,-7.0970125,-5.0547585,4.1539397000000005,0.020240024,0.10865697,-0.22370553,-2.94,30.48,-10.02
1554118462879,-6.994062,-5.2756233,4.2676644,-0.034088463,0.09267801,-0.20879184,-3.12,30.42,-10.08
1554118462899,-7.053317999999999,-5.270835,4.301782,-0.040480047000000005,0.080960095,-0.18535602,-3.18,30.36,-10.14
1554118462918,-6.947375,-5.21517,4.1826706,-0.06285059999999999,0.05539375,-0.14807177,-3.24,30.36,-10.2
1554118462939,-6.946776400000001,-5.245097,4.11683,-0.080960095,0.041545313,-0.12783173,-3.3,30.3,-10.26
1554118462959,-6.9425864,-5.246893,4.1138372,-0.096939065,0.029827405,-0.10546118,-3.3,30.24,-10.32
1554118462979,-6.845621,-5.377377,4.276643,-0.083090626,0.025566347000000003,-0.08735169,-3.3,30.24,-10.38
1554118462999,-6.893505,-5.3701944,4.1491513,-0.020240024,0.011717908999999999,-0.07882957,-3.36,30.18,-10.38
1554118463019,-6.8186865,-5.2810106,4.0396166,-0.025566347000000003,-0.004261058,-0.07137272,-3.36,30.18,-10.38
1554118463039,-6.9102645,-5.2875943,4.0037036,-0.098004326,-0.0063915867,-0.056459017,-3.42,30.18,-10.38
1554118463059,-6.984484700000001,-5.4575830000000005,4.1270050000000005,-0.13102753,-0.02876214,-0.04580637,-3.48,30.18,-10.38
1554118463078,-6.8426285,-5.535993,4.1982327,-0.11611383,-0.04474111,-0.022370555,-3.54,30.18,-10.38
1554118463099,-6.832453299999999,-5.5258174,4.1934443,-0.09267801,-0.051132694000000006,-0.013848438000000001,-3.66,30.24,-10.44
1554118463118,-6.8121023,-5.5485625,4.092887999999999,-0.08522116,-0.06285059999999999,-0.014913702,-3.72,30.3,-10.44
1554118463138,-6.775591,-5.653308999999999,4.089895200000001,-0.07243799,-0.07243799,-0.010652645,-3.78,30.36,-10.44
1554118463158,-6.831854300000001,-5.595249,4.009091000000001,-0.05752428,-0.07456851,0.002130529,-3.84,30.36,-10.5
1554118463179,-6.7845693,-5.5826797,3.9522285000000004,-0.08628642,-0.082025364,0.015978966,-3.96,30.36,-10.5
1554118463200,-6.661866000000001,-5.619191000000001,4.0222587999999995,-0.096939065,-0.07776430000000001,0.01917476,-4.02,30.36,-10.5
1554118463218,-6.534375,-5.723339,4.090493700000001,-0.07989483,-0.07350325,0.020240024,-4.08,30.3,-10.44
1554118463240,-6.5206084,-5.707777,4.2221746,-0.06285059999999999,-0.053263225,0.014913702,-4.2,30.24,-10.44
1554118463259,-6.6229606,-5.5401826,4.107253,-0.053263225,-0.05539375,0.002130529,-4.26,30.18,-10.32
1554118463278,-6.545148999999999,-5.529408999999999,3.8815994,-0.10226539,-0.05219796,0.0031957934000000003,-4.38,30.12,-10.2
1554118463299,-6.601413000000001,-5.7377043,3.904943,-0.12676647,-0.039414786,-0.014913702,-4.44,30.06,-9.9
1554118463318,-6.5481415,-5.7442884,4.0695443,-0.094808534,-0.034088463,-0.008522116,-4.5,30.06,-9.84
1554118463338,-6.5241995,-5.707178,4.164714,-0.043675844000000005,-0.029827405,-0.018109497,-4.5,30.12,-9.72
1554118463359,-6.447585,-5.5778913,4.123414,-0.029827405,-0.007456851,-0.022370555,-4.5,30.18,-9.48
1554118463380,-6.4948707,-5.5647235,4.0737343,-0.051132694000000006,0.012783173500000002,-0.036218993,-4.38,30.24,-9.36
1554118463399,-6.587646,-5.5886655,4.189853,-0.034088463,0.033023197000000004,-0.051132694000000006,-4.26,30.3,-9.24
1554118463419,-6.501455,-5.4917,4.237737,0.0053263223,0.03834952,-0.07030745599999999,-4.14,30.36,-9.18
1554118463439,-6.3033347,-5.4845176,4.220978,-0.0031957934000000003,0.06285059999999999,-0.080960095,-3.96,30.48,-9.18
1554118463458,-6.2225304,-5.4168816,4.250905,-0.015978966,0.10865697,-0.12037488,-3.84,30.54,-9.18
1554118463479,-6.0866594,-5.323507299999999,4.3197384,0.0053263223,0.1587244,-0.15446335,-3.72,30.54,-9.18
1554118463499,-5.950189599999999,-5.115810400000001,4.4382515,0.043675844000000005,0.23116238,-0.21518342,-3.72,30.6,-9.24
1554118463519,-5.749077,-4.919486,4.3448777000000005,0.09587380000000001,0.30466563,-0.30253512,-3.66,30.6,-9.24
1554118463541,-5.171476,-4.405330999999999,4.223970400000001,0.11504856,0.45380265,-0.47830373,-3.72,30.6,-9.24
1554118463560,-4.933253,-4.2413282,4.1413703,0.07989483,0.5550028,-0.6061354999999999,-3.78,30.54,-9.24
1554118463579,-4.718373000000001,-4.51726,3.8953662000000002,0.033023197000000004,0.7052050999999999,-0.7286409,-3.9,30.48,-9.24
1554118463600,-4.735132,-4.6591167,3.5434184,-0.02876214,0.85327685,-0.87564737,-4.02,30.42,-9.3
1554118463619,-4.801571400000001,-4.8374844,3.317765,-0.09374327,0.9853696,-1.0247844000000002,-4.32,30.36,-9.3
1554118463639,-4.609437000000001,-4.741118,3.1387985,-0.12144015,1.091896,-1.1536813999999997,-4.68,30.24,-9.3
1554118463659,-4.2700586,-4.7494974,2.707842,-0.18961707,1.1813782,-1.2825783000000002,-5.04,30.12,-9.3
1554118463679,-3.9719806,-5.002684599999999,2.1027076,-0.36751625,1.3379722,-1.454086,-5.4,30.0,-9.3
1554118463699,-3.970185,-5.161899,1.5741876000000001,-0.55606806,1.4615428,-1.5638082,-5.76,29.88,-9.3
1554118463718,-3.9851487,-5.221155,1.2725182,-0.6849651,1.5350461000000002,-1.6532904,-6.18,29.76,-9.36
1554118463739,-3.8444892999999998,-5.4061074,0.7026982,-0.89588743,1.6394419999999998,-1.7832526999999998,-6.6,29.64,-9.36
1554118463758,-3.6409822,-5.85502,0.90979666,-1.0460896000000002,1.7193368999999998,-1.865278,-7.14,29.46,-9.36
1554118463780,-3.1753099999999996,-6.3021374,0.9684546,-1.071656,1.8727348999999998,-1.9590213,-7.92,29.28,-9.36
1554118463798,-2.7000610000000003,-6.4858923,-0.04189853,-1.0258497,1.9973708,-2.014415,-8.7,29.1,-9.3
1554118463819,-2.4678235,-6.4817023,-1.6723499,-1.1270498,2.1443772,-2.1092236,-9.48,28.8,-9.3
1554118463838,-2.5594015,-6.460753400000001,-2.4774002999999998,-1.6266588,2.2487733,-2.2285333,-10.32,28.38,-9.24
1554118463859,-2.4396915,-6.9449806,-1.7609352999999999,-2.2008363999999996,2.3254723999999998,-2.292449,-11.28,27.84,-9.12
1554118463878,-1.7788918999999999,-7.811681699999999,-0.84694886,-2.3446472000000003,2.4096282,-2.2903185,-12.36,27.24,-9.0
1554118463899,-0.76554596,-9.040505,-1.1575965,-2.0985709999999997,2.4969799999999998,-2.2594258999999997,-13.68,26.64,-8.82
1554118463918,-0.14963761,-9.506178,-1.620276,-1.530785,2.6727486000000003,-2.2860575,-15.06,25.86,-8.58
1554118463939,-0.090381116,-9.595961,-3.904943,-0.9981528000000001,2.8346686,-2.3829966000000002,-16.26,24.96,-8.28
1554118463959,0.7505821999999999,-8.962694,-4.284424,-1.1387677,2.8953888,-2.4511735,-17.64,24.0,-7.98
1554118463979,1.2539631000000002,-8.815451,-4.0629599999999995,-1.4029533,3.0061762,-2.5033715,-19.08,23.1,-7.74
1554118463998,1.6286557,-9.129091,-3.1483752999999997,-1.5531555000000001,3.097789,-2.5236115000000003,-20.58,22.02,-7.56
1554118464018,2.2230163,-9.537901,-2.9322984,-1.3869743,3.158509,-2.538525,-22.02,20.76,-7.38
1554118464038,3.1322143,-10.029311,-3.803788,-1.1195928999999998,3.1851406000000004,-2.6056367999999996,-23.34,19.32,-7.32
1554118464059,4.0306387,-10.245986,-5.2917843,-0.86392945,3.230947,-2.722816,-24.42,17.82,-7.5
1554118464078,4.953005,-10.093954,-5.265448,-0.78296936,3.238404,-2.8421257,-25.44,16.38,-8.1
1554118464098,5.6551046,-10.077195,-4.321534,-0.5837649,3.2139029999999997,-2.8538435,-26.34,14.88,-9.06
1554118464119,5.9968767,-9.695319999999999,-3.8959646,-0.29507825,3.1723576,-2.8229507999999996,-27.18,13.2,-10.2
1554118464139,6.600215400000001,-9.688736,-4.83509,-0.18642128,3.0626354,-2.9145637000000004,-27.96,11.28,-11.58
1554118464159,7.606977499999999,-9.145252000000001,-5.981913,-0.49747851,2.9273467,-3.0136333,-28.62,9.18,-13.14
1554118464178,8.313866,-8.024167,-5.9047,-1.031176,2.8943236,-3.0157637999999998,-29.22,7.14,-14.94
1554118464199,8.82802,-7.7386584,-4.619014,-1.3177321000000002,2.8410604,-2.9678267999999997,-29.76,5.16,-16.8
1554118464219,9.100361,-7.803900200000001,-3.9348705,-1.2144015,2.7579696,-2.952913,-30.24,3.12,-18.6
1554118464238,10.099341,-7.426214999999999,-4.2718544000000005,-0.9598033000000001,2.6088326,-3.069027,-30.6,1.02,-20.22
1554118464258,10.779295,-6.9246297000000006,-4.5340195,-0.9534117,2.5747442000000005,-3.1808796000000004,-30.78,-1.14,-21.6
1554118464279,11.877036,-6.3182983,-4.630985,-1.063134,2.602441,-3.2895366999999998,-30.6,-4.32,-23.76
1554118464299,12.447453999999999,-5.680842,-4.709395,-1.1366372,2.6312032000000003,-3.2959282,-30.36,-6.18,-25.2
1554118464319,12.707226,-5.430648000000001,-4.851251,-1.2644688999999998,2.5630262000000004,-3.1862060000000003,-30.06,-7.92,-26.64
1554118464339,12.722189,-5.302558400000001,-4.4879313,-1.4487596999999999,2.4074976,-2.908172,-29.58,-9.48,-27.9
1554118464359,11.844714,-4.9943047,-4.192846,-1.6181368,2.1827269,-2.4064324,-29.1,-10.98,-29.22
1554118464378,10.556633999999999,-4.407127,-4.073136,-1.7971011000000001,1.8098843,-1.7363810000000002,-28.56,-12.36,-30.6
1554118464399,9.349956500000001,-4.101866200000001,-3.6379894999999998,-2.001632,1.2985574,-1.1025486999999998,-27.96,-13.56,-31.92
1554118464418,8.913613,-4.019266,-2.866458,-2.2381206000000002,0.74675035,-0.49108690000000005,-27.36,-14.4,-33.12
1554118464440,9.033323,-4.3520603,-2.285864,-2.3382554,0.32490566,0.002130529,-26.7,-14.94,-33.96
1554118464458,9.087193,-4.7656584,-2.1428106,-2.223207,0.054328485999999995,0.27803403,-25.92,-14.76,-34.62
1554118464478,9.11293,-4.8099513,-2.0805612,-1.9419771000000001,-0.08735169,0.39840892,-25.26,-14.1,-34.92
1554118464498,8.914211,-4.71119,-2.2583307999999995,-1.587244,-0.12357068,0.43462790000000007,-24.66,-12.96,-35.04
1554118464519,8.593987,-4.5340195,-2.475006,-1.2495551999999999,-0.094808534,0.39840892,-24.12,-11.52,-34.92
1554118464539,8.651448,-4.4143095,-2.4468741,-1.1270498,-0.058589544,0.33129725,-23.64,-10.02,-34.62
1554118464559,8.707711,-4.1623197,-2.4013843999999995,-1.1089402,0.007456851,0.27803403,-23.16,-8.46,-34.26
1554118464579,8.693945,-4.0330330000000005,-2.4660277,-1.1622036,0.04580637,0.24181503,-22.8,-6.84,-33.78
1554118464599,8.948329,-4.209605000000001,-2.2307975,-1.2410331000000001,0.011717908999999999,0.21837921,-22.62,-5.28,-33.24
1554118464619,9.112331,-4.5040917,-2.0219033,-1.1483551,-0.035153727999999995,0.23116238,-22.56,-4.02,-32.64
1554118464639,9.0476885,-4.563947,-1.7842789000000001,-0.8543421,-0.12037488,0.27696875,-22.5,-2.88,-31.98
1554118464659,8.995016,-4.365228,-1.6795325,-0.5336975,-0.26418558,0.30999196,-22.5,-1.86,-31.5
1554118464679,9.132083999999999,-4.0785227,-1.6968904999999999,-0.26844665,-0.40906155,0.40053943,-22.5,-1.08,-31.08
1554118464699,9.128492,-3.9234982000000005,-1.7770962,-0.056459017,-0.5454154,0.4889564,-22.5,-0.24,-30.66
1554118464718,9.152434,-3.8361096,-1.7980455000000002,0.080960095,-0.680704,0.54435015,-22.44,0.54,-30.24
1554118464738,9.128492,-3.7654807999999997,-1.7854759999999998,0.19068234,-0.7850999,0.5954828000000001,-22.44,1.26,-29.76
1554118464759,9.321824000000001,-3.4111388,-1.8303672,0.18642128,-0.8586031999999999,0.6711166000000001,-22.44,1.92,-29.34
1554118464779,9.430161,-3.2920272000000006,-2.1027076,0.11717909,-0.85753787,0.7275756,-22.38,2.52,-29.04
1554118464799,9.305663000000001,-3.2794578000000003,-1.8986019,0.05752428,-0.8309063,0.7392935,-22.26,2.94,-28.86
1554118464819,9.3978405,-3.4739866000000004,-1.6645688000000003,0.07137272,-0.80533993,0.7030744999999999,-22.2,3.36,-28.68
1554118464838,9.297284,-3.6098576,-1.441908,0.2130529,-0.75101143,0.6125271,-22.14,3.9,-28.44
1554118464859,9.041702,-3.5811272000000005,-1.2515688999999999,0.39627838,-0.69348717,0.50173956,-22.08,4.38,-28.26
1554118464880,8.974665,-3.3381157,-1.2551602,0.49215218,-0.6444850000000001,0.42930159999999995,-22.02,4.86,-28.08
1554118464899,8.998607000000002,-3.0705638,-1.5568296999999998,0.49854377,-0.5400891,0.37390783,-22.02,5.34,-27.96
1554118464918,8.772953999999999,-2.9556419999999997,-1.8076223000000002,0.4165184,-0.42930159999999995,0.29614353,-21.96,5.76,-27.84
1554118464938,8.732252,-3.0831332000000002,-1.8088194,0.29614353,-0.3334278,0.20453078,-21.96,6.18,-27.72
1554118464960,8.719683,-3.2202013,-1.5298948,0.20559604,-0.22583607,0.09267801,-22.08,6.54,-27.54
1554118464980,8.724471000000001,-3.2471360000000002,-1.4460978999999998,0.19387813,-0.10972224,-0.013848438000000001,-22.08,6.54,-27.48
1554118464998,8.81605,-3.3123782,-1.4628572,0.22477080000000002,-0.02130529,-0.13528858,-22.14,6.48,-27.42
1554118465019,8.854955,-3.4033577000000004,-1.5233108,0.26844665,0.060720075,-0.25566345,-22.26,6.48,-27.3
1554118465039,8.968679,-3.4560301,-1.5245079,0.34621096,0.14061491,-0.38562572,-22.38,6.36,-27.18
1554118465059,9.0429,-3.413533,-1.5616181,0.40906155,0.20453078,-0.45912898,-22.56,6.24,-27.12
1554118465078,9.074024,-3.3662476999999997,-1.714847,0.42184472,0.257794,-0.50387007,-22.74,6.12,-27.06
1554118465099,9.037513,-3.3740287,-1.8034325,0.3898868,0.3057309,-0.5251754,-22.92,5.94,-27.12
1554118465119,8.96449,-3.3854012000000004,-1.7872716,0.34834146,0.31638354,-0.5336975,-23.1,5.7,-27.12
1554118465139,9.028535,-3.4901476000000002,-1.7160441000000002,0.3153183,0.30679616,-0.52624065,-23.28,5.46,-27.24
1554118465159,8.98484,-3.6679169999999996,-1.4778209999999998,0.35260254,0.28229508,-0.51665324,-23.4,4.98,-27.3
1554118465179,9.240421000000001,-3.74513,-1.3736732,0.43249738,0.23435818,-0.49321744,-23.52,4.38,-27.42
1554118465199,9.486425,-3.6882677000000004,-1.532289,0.5550028,0.23116238,-0.4857606,-23.58,3.72,-27.54
1554118465219,9.300277000000001,-3.6481647000000006,-1.6095021,0.608266,0.23222765,-0.46765109999999993,-23.58,3.06,-27.78
1554118465239,9.148843,-3.6870705999999998,-1.6567876,0.6061354999999999,0.21518342,-0.45486793,-23.58,2.4,-28.14
1554118465258,9.057265,-3.7612907999999994,-1.6220716,0.6103965,0.20240025,-0.44847634,-23.58,1.74,-28.56
1554118465280,9.012972,-3.6768951000000003,-1.4431051000000001,0.6103965,0.165116,-0.4314321,-23.64,1.02,-28.92
1554118465299,9.120711,-3.726575,-1.283292,0.60293967,0.12783173,-0.39947417,-23.64,0.12,-29.28
1554118465319,9.253589999999999,-3.7181952000000003,-1.2731166999999999,0.6018744,0.10652645,-0.36005938,-23.64,-0.72,-29.58
1554118465338,9.263166,-3.6864722000000003,-1.3958195,0.5997439,0.098004326,-0.31638354,-23.64,-1.32,-29.88
1554118465358,9.204509,-3.6164417,-1.5430629999999999,0.5752428,0.09267801,-0.29188246,-23.7,-1.98,-30.24
1554118465379,9.161413,-3.6044707000000002,-1.5364790000000002,0.47404268,0.07669904,-0.25566345,-23.7,-2.64,-30.6
1554118465398,9.165602999999999,-3.6248214,-1.3976152,0.40053943,0.068176925,-0.22264028,-23.7,-3.3,-30.84
1554118465419,9.251195,-3.578733,-1.3174095,0.31851408,0.049002163,-0.18002969,-23.7,-3.96,-31.08
1554118465438,9.098564999999999,-3.4314894999999996,-1.2557588,0.221575,0.039414786,-0.12570119999999999,-23.76,-4.56,-31.32
1554118465459,9.110536,-3.3399115,-1.3174095,0.02130529,0.022370555,-0.026631612000000002,-23.76,-4.98,-31.56
1554118465479,9.085397,-3.4195184999999997,-1.417966,-0.13102753,0.017044231,0.033023197000000004,-23.82,-5.34,-31.86
1554118465498,9.105149,-3.4674027,-1.2952632,-0.24820662,0.0063915867,0.06391586,-23.88,-5.7,-32.1
1554118465520,9.214684,-3.6577415,-1.0552443999999999,-0.25566345,-0.0063915867,0.083090626,-23.94,-5.94,-32.28
1554118465539,9.2547865,-3.7134068,-0.91578215,-0.1438107,-0.011717908999999999,0.09374327,-24.0,-6.18,-32.4
1554118465558,9.287707000000001,-3.5128925000000004,-1.0139444,-0.04261058,-0.022370555,0.101200126,-24.0,-6.36,-32.46
1554118465578,9.304466,-3.2992098,-1.2126632,-0.033023197000000004,-0.029827405,0.111852765,-24.06,-6.42,-32.52
1554118465598,9.223063,-3.2860417,-1.2431892,-0.06178534,-0.034088463,0.11504856,-24.06,-6.42,-32.52
1554118465620,9.215881,-3.3764230000000004,-1.127669,-0.06178534,-0.043675844000000005,0.10013486,-24.06,-6.3,-32.52
1554118465639,9.212888000000001,-3.4278982000000005,-1.0779893,0.015978966,-0.04580637,0.07882957,-24.06,-6.12,-32.52
1554118465659,9.154829,-3.4111388,-1.0600328,0.13954964,-0.05006743,0.037284255,-24.0,-5.94,-32.52
1554118465679,8.987235,-3.2830489999999997,-1.0378863999999999,0.23968449999999997,-0.05965481,0.012783173500000002,-24.0,-5.82,-32.52
1554118465699,9.077017,-3.1381997999999998,-1.1294646000000002,0.2609898,-0.07243799,0.00958738,-23.94,-5.64,-32.52
1554118465719,9.145252000000001,-3.0849290000000003,-1.3772645000000001,0.24607609,-0.046871635999999994,-0.007456851,-23.94,-5.52,-32.52
1554118465739,9.151836,-3.0897174,-1.4772223999999998,0.16618125,-0.022370555,-0.033023197000000004,-23.88,-5.46,-32.52
1554118465760,9.1272955,-3.2142158,-1.2791021999999999,0.08841695,0.002130529,-0.06391586,-23.88,-5.4,-32.52
1554118465778,9.081207000000001,-3.2890346,-1.0923545000000001,0.08841695,0.010652645,-0.08628642,-23.88,-5.4,-32.52
1554118465799,8.995016,-3.4003648999999996,-0.96546185,0.1470065,0.0053263223,-0.10546118,-23.88,-5.46,-32.52
1554118465818,9.044097,-3.4392707000000002,-0.99538934,0.23009712,-0.0063915867,-0.12996227,-23.94,-5.52,-32.52
1554118465838,9.064447,-3.3937809999999997,-1.0289081,0.30040458,-0.027696876000000002,-0.15552860000000002,-24.0,-5.52,-32.52
1554118465860,9.147048,-3.354875,-1.0187328000000002,0.3270362,-0.049002163,-0.16937704,-24.0,-5.58,-32.52
1554118465878,9.190742,-3.3704373999999997,-0.9576806999999999,0.34194988,-0.06711166,-0.18109496,-24.0,-5.64,-32.52
1554118465898,9.297284,-3.3812113,-1.0073603000000002,0.34088463,-0.07776430000000001,-0.165116,-24.06,-5.7,-32.52
1554118465919,9.237428999999999,-3.3518825,-1.027711,0.32810146,-0.068176925,-0.15446335,-24.06,-5.76,-32.52
1554118465938,9.221267999999998,-3.371036,-1.0330979999999998,0.29933932,-0.06498113,-0.1438107,-24.06,-6.06,-32.52
1554118465958,9.214086,-3.3363202000000003,-0.94690675,0.257794,-0.07137272,-0.12783173,-24.06,-6.48,-32.58
1554118465979,9.214684,-3.3782187000000006,-0.8451531999999999,0.21092236,-0.08841695,-0.10333065,-24.12,-7.08,-32.58
1554118465999,9.194333,-3.3716345000000003,-0.7846996,0.19174760000000002,-0.09587380000000001,-0.08522116,-24.12,-7.5,-32.58
1554118466019,9.212888000000001,-3.4171242999999993,-0.88166475,0.17257284,-0.096939065,-0.068176925,-24.18,-7.92,-32.58
1554118466038,9.208698,-3.4165258,-0.87927055,0.14913702,-0.099069595,-0.05752428,-24.18,-8.34,-32.64
1554118466059,9.291897,-3.4051532999999994,-0.8242039000000001,0.14061491,-0.09587380000000001,-0.05006743,-24.18,-8.76,-32.64
1554118466079,9.287108,-3.383007,-0.7697359,0.1587244,-0.08735169,-0.03834952,-24.12,-9.06,-32.64
1554118466099,9.294291000000001,-3.3518825,-0.7410054,0.1587244,-0.09587380000000001,-0.015978966,-24.12,-9.18,-32.64
1554118466119,9.315839,-3.3045970000000002,-0.7787141,0.15126756,-0.099069595,-0.0031957934000000003,-24.12,-9.3,-32.64
1554118466138,9.346364999999999,-3.2609026,-0.8355764000000001,0.128897,-0.10013486,0.008522116,-24.12,-9.42,-32.64
1554118466159,9.361927,-3.265691,-0.8810662,0.09374327,-0.10333065,0.01917476,-24.18,-9.48,-32.64
1554118466179,9.369708000000001,-3.293823,-0.7661445,0.08522116,-0.09374327,0.020240024,-24.24,-9.6,-32.64
1554118466199,9.370906,-3.256713,-0.7152678000000001,0.09374327,-0.08948222,0.02876214,-24.36,-9.72,-32.76
1554118466219,9.353547,-3.232771,-0.7517793,0.083090626,-0.082025364,0.03834952,-24.48,-9.78,-32.82
1554118466239,9.321226,-3.228581,-0.7553706,0.06391586,-0.07882957,0.043675844000000005,-24.6,-9.9,-32.94
1554118466259,9.321226,-3.2615013,-0.7086836999999999,0.041545313,-0.06178534,0.05219796,-24.72,-10.02,-33.0
1554118466279,9.330803,-3.204639,-0.7098808000000001,0.026631612000000002,-0.04580637,0.04580637,-24.78,-10.14,-33.12
1554118466299,9.364322,-3.2716765,-0.7745243,0.023435817999999997,-0.025566347000000003,0.04474111,-24.84,-10.2,-33.24
1554118466320,9.36492,-3.2680852000000002,-0.7332243,0.03089267,-0.008522116,0.027696876000000002,-24.9,-10.26,-33.3
1554118466340,9.36492,-3.265691,-0.7080852,0.05006743,0.008522116,0.018109497,-24.9,-10.32,-33.36
1554118466359,9.308656,-3.1639376,-0.7194576,0.047936900000000005,0.022370555,0.010652645,-24.9,-10.32,-33.36
1554118466379,9.2494,-3.1010897,-0.86370826,0.0053263223,0.033023197000000004,0.018109497,-24.9,-10.38,-33.3
1554118466399,9.232041,-3.1507695,-0.90500826,-0.051132694000000006,0.05006743,0.00958738,-24.9,-10.38,-33.3
1554118466418,9.261371,-3.232771,-0.8511386999999999,-0.08841695,0.06498113,-0.0010652645,-24.9,-10.38,-33.3
1554118466440,9.254189,-3.2698810000000003,-0.8475474000000001,-0.07669904,0.08522116,-0.007456851,-24.9,-10.32,-33.24
1554118466459,9.200318,-3.192668,-0.8714894,-0.060720075,0.09161274,-0.025566347000000003,-24.9,-10.32,-33.24
1554118466478,9.24521,-3.264494,-0.93732995,-0.06285059999999999,0.080960095,-0.015978966,-24.96,-10.32,-33.18
1554118466498,9.267356,-3.2243912,-0.89303726,-0.06604639400000001,0.07456851,-0.023435817999999997,-24.96,-10.26,-33.12
1554118466518,9.248801,-3.1477766,-1.0265139,-0.08948222,0.07137272,-0.015978966,-24.9,-10.2,-33.06
1554118466539,9.138069,-3.2261868,-1.0510546,-0.11504856,0.07030745599999999,-0.004261058,-24.96,-10.08,-32.94
1554118466560,9.126697,-3.2746694,-0.99658644,-0.111852765,0.06711166,-0.004261058,-24.96,-10.02,-32.94
1554118466579,9.138668,-3.2393548,-0.92057055,-0.07776430000000001,0.06391586,-0.0063915867,-24.96,-9.96,-32.88
1554118466598,9.108141999999999,-3.196858,-0.9911995000000001,-0.06604639400000001,0.058589544,-0.012783173500000002,-24.9,-9.9,-32.88
1554118466618,9.138668,-3.1495724,-1.0905589,-0.098004326,0.053263225,-0.015978966,-24.9,-9.78,-32.82
1554118466639,9.160214999999999,-3.176507,-1.0618285,-0.14487597,0.053263225,-0.017044231,-24.84,-9.78,-32.82
1554118466658,9.173983,-3.2620997000000003,-1.0378863999999999,-0.16085494,0.053263225,-0.029827405,-24.78,-9.72,-32.82
1554118466679,9.112331,-3.3147724000000003,-1.0067618,-0.14061491,0.05752428,-0.043675844000000005,-24.72,-9.66,-32.88
1554118466699,9.101558,-3.3345244,-0.9876082,-0.11930962,0.05539375,-0.05539375,-24.66,-9.66,-32.88
1554118466718,9.133281,-3.288436,-1.0115502,-0.10226539,0.043675844000000005,-0.07350325,-24.6,-9.6,-32.88
1554118466739,9.154829,-3.3075894999999997,-1.0486604,-0.10439592,0.04261058,-0.08841695,-24.48,-9.54,-32.88
1554118466758,9.190742,-3.3441012000000003,-1.073201,-0.10652645,0.04261058,-0.10333065,-24.42,-9.48,-32.88
1554118466779,9.156025999999999,-3.3788169999999997,-1.067814,-0.096939065,0.05006743,-0.12037488,-24.36,-9.42,-32.88
1554118466799,9.105149,-3.3494883,-1.0648212,-0.098004326,0.05006743,-0.13209279,-24.36,-9.36,-32.88
1554118466820,9.07582,-3.3554738,-1.1055226,-0.10652645,0.046871635999999994,-0.13209279,-24.36,-9.3,-32.88
1554118466839,9.070433,-3.4261025999999997,-1.0546459,-0.111852765,0.043675844000000005,-0.13209279,-24.3,-9.24,-32.88
1554118466858,9.116522,-3.466804,-0.9576806999999999,-0.099069595,0.027696876000000002,-0.128897,-24.3,-9.18,-32.88
1554118466879,9.214086,-3.465607,-0.9427169,-0.06711166,0.010652645,-0.12463594,-24.3,-9.18,-32.88
1554118466899,9.239224,-3.4524388,-1.0408791,-0.043675844000000005,0.0010652645,-0.11504856,-24.3,-9.12,-32.88
1554118466919,9.232041,-3.4626143,-1.0923545000000001,-0.04474111,-0.004261058,-0.10439592,-24.3,-9.0,-32.88
1554118466939,9.276335000000001,-3.518878,-0.9888053,-0.04261058,-0.0063915867,-0.094808534,-24.3,-8.88,-32.88
1554118466958,9.227852,-3.4542346,-0.9600749,-0.043675844000000005,-0.007456851,-0.09054748,-24.3,-8.82,-32.88
1554118466978,9.238028,-3.4811692,-0.9660603999999999,-0.05752428,-0.008522116,-0.07350325,-24.3,-8.76,-32.88
1554118466998,9.198523,-3.539827,-0.91697925,-0.058589544,-0.013848438000000001,-0.068176925,-24.36,-8.7,-32.88
1554118467018,9.225458,-3.5344403,-0.9331401,-0.049002163,-0.017044231,-0.054328485999999995,-24.36,-8.64,-32.82
1554118467039,9.18715,-3.5194763999999994,-0.93732995,-0.024501082,-0.017044231,-0.03834952,-24.36,-8.58,-32.82
1554118467059,9.196728,-3.4500446000000005,-0.94810385,-0.023435817999999997,-0.022370555,-0.02130529,-24.36,-8.52,-32.82
1554118467078,9.190144,-3.3327288999999998,-0.9864110999999999,-0.060720075,-0.025566347000000003,0.007456851,-24.36,-8.46,-32.76
1554118467098,9.176975,-3.3446998999999997,-1.0414777,-0.11611383,-0.024501082,0.024501082,-24.36,-8.52,-32.76
1554118467119,9.282919,-3.406949,-0.96426475,-0.13528858,-0.027696876000000002,0.029827405,-24.36,-8.58,-32.76
1554118467138,9.31105,-3.4548330000000003,-0.93732995,-0.112918034,-0.029827405,0.024501082,-24.36,-8.52,-32.76
1554118467159,9.269751,-3.4548330000000003,-0.8882488000000002,-0.008522116,-0.025566347000000003,0.013848438000000001,-24.36,-8.46,-32.7
1554118467178,9.23683,-3.3734303,-0.99299514,0.07989483,-0.023435817999999997,0.0053263223,-24.3,-8.4,-32.7
1554118467199,9.215282,-3.2597055,-1.0468647,0.111852765,-0.029827405,-0.0031957934000000003,-24.3,-8.4,-32.7
1554118467218,9.20391,-3.2040405,-1.0145429,0.08735169,-0.04474111,0.0053263223,-24.3,-8.34,-32.7
1554118467239,9.228451,-3.1950622,-1.0259154000000001,0.05752428,-0.05219796,0.023435817999999997,-24.24,-8.28,-32.64
1554118467259,9.242217,-3.2148144,-1.0516531,0.037284255,-0.06285059999999999,0.023435817999999997,-24.24,-8.22,-32.64
1554118467278,9.296086,-3.2561142000000003,-1.0085574000000002,0.035153727999999995,-0.058589544,0.025566347000000003,-24.18,-8.1,-32.64
1554118467299,9.254189,-3.2872388,-0.92775315,0.07137272,-0.046871635999999994,0.012783173500000002,-24.12,-8.04,-32.58
1554118467318,9.208099,-3.1956607999999997,-0.9355343,0.09054748,-0.046871635999999994,0.0031957934000000003,-24.12,-7.98,-32.58
1554118467338,9.1668,-3.1842883,-0.9283517,0.07989483,-0.049002163,0.0,-24.06,-7.92,-32.52
1554118467358,9.139266000000001,-3.1621417999999997,-0.9163806999999999,0.056459017,-0.053263225,-0.00958738,-24.12,-7.8,-32.52
1554118467379,9.144653,-3.1908724,-0.9600749,0.03089267,-0.053263225,-0.014913702,-24.12,-7.74,-32.52
1554118467398,9.088988,-3.1741127999999996,-0.97384155,0.012783173500000002,-0.039414786,-0.026631612000000002,-24.18,-7.68,-32.46
1554118467420,9.006986999999999,-3.163339,-0.9672575000000001,0.0031957934000000003,-0.02876214,-0.034088463,-24.18,-7.68,-32.46
1554118467439,8.995614,-3.1244332999999997,-0.95349085,-0.00958738,-0.03195793,-0.039414786,-24.24,-7.62,-32.46
1554118467459,9.008183500000001,-3.115455,-0.88286185,-0.027696876000000002,-0.041545313,-0.043675844000000005,-24.3,-7.68,-32.4
1554118467478,8.946533,-3.0891187,-0.91937345,-0.029827405,-0.054328485999999995,-0.04580637,-24.36,-7.68,-32.4
1554118467500,9.004593,-3.1304187999999997,-0.94211835,-0.020240024,-0.07243799,-0.053263225,-24.42,-7.74,-32.34
1554118467519,9.085397,-3.0627825,-1.009156,-0.004261058,-0.082025364,-0.07456851,-24.36,-7.8,-32.28
1554118467539,9.19553,-3.1064768,-1.0175357,0.029827405,-0.08735169,-0.10546118,-24.36,-7.8,-32.28
1554118467558,9.405023,-3.1381997999999998,-1.0007763,0.054328485999999995,-0.09587380000000001,-0.15446335,-24.36,-7.86,-32.22
1554118467578,9.512762,-3.2034418999999996,-1.0157399999999999,0.101200126,-0.08948222,-0.20559604,-24.42,-7.86,-32.16
1554118467599,9.405023,-3.1789012000000003,-1.0929531000000001,0.12996227,-0.07669904,-0.2545982,-24.42,-7.86,-32.16
1554118467619,9.291298,-3.1663318,-1.0869676000000001,0.12996227,-0.06711166,-0.28122982,-24.42,-7.92,-32.16
1554118467638,9.326014500000001,-3.2878375,-1.0390834999999998,0.13102753,-0.06178534,-0.294013,-24.48,-7.92,-32.16
1554118467659,9.374496,-3.4446578000000003,-0.91458505,0.18322548,-0.049002163,-0.3057309,-24.42,-8.04,-32.16
1554118467679,9.402629,-3.3967736000000004,-0.91338795,0.24501082,-0.046871635999999994,-0.3057309,-24.48,-8.1,-32.22
1554118467699,9.335591,-3.3291376000000006,-1.1079168,0.2695119,-0.029827405,-0.2972088,-24.48,-8.22,-32.22
1554118467719,9.268554,-3.357868,-1.0564415,0.25140239999999997,-0.022370555,-0.28016454,-24.48,-8.4,-32.28
1554118467739,9.342773,-3.3369186,-1.0977415000000001,0.21837921,-0.020240024,-0.24501082,-24.54,-8.7,-32.34
1554118467758,9.399037,-3.3512837999999996,-1.1390414,0.18429075,-0.00958738,-0.20879184,-24.6,-9.18,-32.34
1554118467778,9.345766000000001,-3.3782187000000006,-1.1671733999999998,0.16405073,-0.002130529,-0.16405073,-24.66,-9.66,-32.4
1554118467799,9.303867,-3.3650506,-1.2258313,0.17257284,-0.0053263223,-0.1107875,-24.78,-10.08,-32.4
1554118467819,9.272743,-3.2902317,-1.276708,0.1768339,-0.017044231,-0.068176925,-24.9,-10.56,-32.46
1554118467839,9.303269,-3.2489316,-1.264737,0.17150758,-0.04261058,-0.013848438000000001,-25.02,-10.98,-32.46
1554118467859,9.388862,-3.1753099999999996,-1.3497312,0.14594123,-0.06391586,0.026631612000000002,-25.14,-11.4,-32.52
1554118467878,9.312846,-3.032855,-1.4748282,0.09267801,-0.07776430000000001,0.058589544,-25.2,-11.7,-32.58
1554118467898,9.31943,-2.9891607999999996,-1.4772223999999998,0.007456851,-0.098004326,0.08841695,-25.26,-11.88,-32.64
1554118467919,9.367911999999999,-3.0340521000000003,-1.4143747,-0.051132694000000006,-0.1107875,0.111852765,-25.32,-11.88,-32.7
1554118467939,9.287108,-3.1064768,-1.2964603000000001,-0.04261058,-0.11504856,0.113983296,-25.32,-11.82,-32.7
1554118467958,9.188348,-3.0974984,-1.2599486,-0.0053263223,-0.12144015,0.099069595,-25.32,-11.82,-32.76
1554118467978,9.197925,-3.091513,-1.2252326999999998,0.056459017,-0.1438107,0.098004326,-25.32,-11.76,-32.82
1554118467999,9.247603999999999,-3.09271,-1.2485761999999998,0.14594123,-0.15552860000000002,0.07350325,-25.32,-11.76,-32.82
1554118468019,9.363723,-3.0478187,-1.3102268999999998,0.21411815,-0.16298546,0.05752428,-25.32,-11.64,-32.82
1554118468038,9.463681,-2.9981391,-1.3623008,0.25246766,-0.15552860000000002,0.036218993,-25.32,-11.58,-32.82
1554118468059,9.415198,-2.9053638,-1.3329718000000002,0.26205507,-0.14913702,0.023435817999999997,-25.32,-11.58,-32.82
1554118468080,9.357139,-2.873042,-1.3162124,0.23755397,-0.15339808,0.020240024,-25.32,-11.52,-32.82
1554118468098,9.300875,-2.9209259999999997,-1.2413936,0.20026971,-0.16618125,0.033023197000000004,-25.38,-11.52,-32.82
1554118468118,9.309854,-2.9406781000000004,-1.1953052,0.17789917,-0.17150758,0.047936900000000005,-25.44,-11.52,-32.76
1554118468139,9.267356,-2.9616275,-1.1953052,0.18535602,-0.17150758,0.058589544,-25.56,-11.52,-32.76
1554118468158,9.299678,-2.9843724,-1.1390414,0.21198763,-0.17044231,0.05965481,-25.74,-11.52,-32.76
1554118468179,9.339781,-2.9574377999999997,-1.1312603,0.23648871,-0.16724652,0.06178534,-25.92,-11.64,-32.76
1554118468199,9.300277000000001,-2.8496985,-1.1079168,0.24714136,-0.16085494,0.05965481,-26.16,-11.7,-32.76
1554118468219,9.294291000000001,-2.8042088,-1.1827357,0.20453078,-0.16298546,0.05752428,-26.28,-11.82,-32.76
1554118468239,9.35235,-2.867655,-1.1899183,0.15765914,-0.15020229,0.053263225,-26.46,-11.88,-32.7
1554118468258,9.313444,-2.9364884,-1.1480197,0.15446335,-0.12783173,0.02876214,-26.58,-12.0,-32.7
1554118468278,9.254189,-2.9735985,-1.0630256,0.19813919,-0.10546118,-0.004261058,-26.7,-12.12,-32.7
1554118468299,9.278131,-2.9640217,-1.0109516,0.2609898,-0.098004326,-0.033023197000000004,-26.76,-12.24,-32.7
1554118468319,9.250597,-2.8987796,-1.0319009,0.32170987,-0.09374327,-0.06178534,-26.76,-12.48,-32.52
1554118468338,9.233239,-2.8245595000000003,-1.1905168,0.34514567,-0.084155895,-0.09374327,-26.76,-12.48,-32.52
1554118468360,9.300277000000001,-2.7000610000000003,-1.3617021999999999,0.26738137,-0.07350325,-0.10546118,-26.76,-12.72,-32.4
1554118468380,9.348161,-2.7922377999999997,-1.3036428999999998,0.1470065,-0.05006743,-0.11717909,-26.76,-12.96,-32.28
1554118468398,9.343372,-2.9113493,-1.2246342,0.101200126,-0.036218993,-0.13102753,-26.82,-13.08,-32.28
1554118468418,9.327211,-3.040636,-1.1432313,0.12676647,-0.013848438000000001,-0.1438107,-26.82,-13.44,-32.16
1554118468439,9.260174000000001,-2.9059622000000003,-1.1713632,0.15446335,-0.0010652645,-0.16298546,-26.82,-13.68,-32.1
1554118468461,9.24521,-2.8317419999999998,-1.2862848,0.12570119999999999,-0.004261058,-0.16298546,-26.88,-13.86,-32.1
1554118468481,9.304466,-2.8963853999999998,-1.2802993,0.05006743,-0.0063915867,-0.15339808,-26.94,-14.1,-32.1
1554118468500,9.296086,-2.9694088,-1.2228385,-0.017044231,0.0010652645,-0.13954964,-27.06,-14.22,-32.16
1554118468519,9.357139,-3.0879216,-1.1168951,-0.04474111,0.008522116,-0.13209279,-27.18,-14.4,-32.22
1554118468539,9.357738000000001,-3.1806970000000003,-1.1312603,-0.023435817999999997,0.011717908999999999,-0.13315806,-27.3,-14.46,-32.22
1554118468559,9.355343,-3.1016884,-1.079785,0.015978966,0.01917476,-0.12783173,-27.48,-14.58,-32.22
1554118468579,9.271546,-3.027468,-1.1593921,0.025566347000000003,0.013848438000000001,-0.12996227,-27.6,-14.7,-32.28
1554118468600,9.299678,-2.9652187999999997,-1.2006921999999998,-0.008522116,0.012783173500000002,-0.11611383,-27.72,-14.82,-32.28
1554118468619,9.284714,-3.0759506,-1.2384008,-0.049002163,0.010652645,-0.111852765,-27.84,-14.88,-32.28
1554118468639,9.355343,-3.1477766,-1.2360066,-0.05006743,0.022370555,-0.10972224,-27.9,-15.0,-32.34
1554118468658,9.314642,-3.1800982999999996,-1.22224,-0.00958738,0.037284255,-0.12037488,-27.9,-15.12,-32.34
1554118468678,9.2308445,-3.1070752,-1.2348095,0.04261058,0.04580637,-0.13741912,-27.78,-15.24,-32.4
1554118468699,9.193136,-3.0011318,-1.2964603000000001,0.049002163,0.03089267,-0.13741912,-27.72,-15.36,-32.4
1554118468720,9.285912,-2.9550436,-1.4185646,-0.025566347000000003,0.02130529,-0.12037488,-27.54,-15.48,-32.4
1554118468739,9.312846,-3.0550013,-1.407192,-0.083090626,0.023435817999999997,-0.11611383,-27.42,-15.66,-32.46
1554118468759,9.357139,-3.1794999,-1.3611037,-0.06498113,0.026631612000000002,-0.112918034,-27.3,-15.78,-32.46
1554118468778,9.342773,-3.2148144,-1.3581108999999998,0.0031957934000000003,0.033023197000000004,-0.11824436,-27.18,-15.9,-32.46
1554118468798,9.291897,-3.1322143,-1.3186066,0.07030745599999999,0.023435817999999997,-0.12463594,-27.06,-15.96,-32.52
1554118468819,9.320028,-3.0520085999999997,-1.359308,0.09267801,0.0031957934000000003,-0.112918034,-27.0,-16.08,-32.52
1554118468839,9.294889,-3.0005333,-1.4251486,0.068176925,-0.023435817999999997,-0.09267801,-26.88,-16.14,-32.52
1554118468859,9.296685,-3.0747535,-1.3724761,0.046871635999999994,-0.04580637,-0.068176925,-26.88,-16.14,-32.52
1554118468878,9.315839,-3.0166939999999998,-1.4047978,0.04474111,-0.054328485999999995,-0.03834952,-26.88,-16.08,-32.52
1554118468898,9.296086,-3.0244752999999998,-1.4514848,0.036218993,-0.05219796,-0.012783173500000002,-26.94,-16.08,-32.52
1554118468918,9.269751,-3.0142999,-1.3389573000000001,0.018109497,-0.05219796,0.002130529,-27.06,-16.08,-32.52
1554118468941,9.270947,-3.0334535,-1.2030864,0.043675844000000005,-0.05752428,0.002130529,-27.12,-16.08,-32.58
1554118468959,9.311649000000001,-3.0609868,-1.2252326999999998,0.096939065,-0.07137272,-0.008522116,-27.18,-16.08,-32.58
1554118468979,9.328408,-3.0573955,-1.2270284,0.1587244,-0.07456851,-0.026631612000000002,-27.3,-16.08,-32.58
1554118468999,9.341577000000001,-2.9694088,-1.2940661,0.20026971,-0.082025364,-0.043675844000000005,-27.36,-16.08,-32.64
1554118469018,9.383475,-2.9771897999999997,-1.4281414,0.22264028,-0.07882957,-0.05006743,-27.48,-16.2,-32.64
1554118469039,9.388862,-3.1364042999999997,-1.5652093999999999,0.2428803,-0.08841695,-0.047936900000000005,-27.54,-16.26,-32.64
1554118469059,9.337387,-3.2208,-1.5059528,0.29294774,-0.11504856,-0.022370555,-27.54,-16.32,-32.64
1554118469079,9.414599,-3.5715504,-1.8459294999999998,0.32170987,-0.1587244,0.037284255,-27.54,-16.44,-32.64
1554118469099,9.409213000000001,-3.6966474000000002,-2.2307975,0.29294774,-0.25353295,0.128897,-27.6,-16.5,-32.7
1554118469118,9.409811,-3.7217865,-2.4492682999999995,0.24074976,-0.330232,0.221575,-27.6,-16.62,-32.64
1554118469139,9.399037,-4.4879313,-2.0913353,0.28122982,-0.5305017,0.43249738,-27.66,-16.74,-32.64
1554118469159,9.405622,-4.823119,-2.1709423,0.61678815,-0.7052050999999999,0.6221144000000001,-27.66,-16.86,-32.64
1554118469178,9.390657000000001,-4.7812209999999995,-2.932897,0.8681905000000001,-0.90014845,0.8341021000000001,-27.66,-16.98,-32.64
1554118469198,9.482236,-4.823119,-3.7445314,0.76272935,-1.0812434,1.0684601999999999,-27.72,-17.1,-32.58
1554118469219,9.464279,-5.1726727,-3.8253357000000006,0.39201729999999996,-1.2612731000000001,1.2825783000000002,-27.78,-17.16,-32.46
1554118469239,9.387066,-6.002263500000001,-3.493739,0.1587244,-1.4125406999999999,1.4966966,-28.02,-17.28,-32.22
1554118469259,9.327211,-6.701370699999999,-3.6984432000000003,0.18535602,-1.4988271,1.675661,-28.44,-17.34,-31.8
1554118469279,9.120711,-7.156269,-4.279037000000001,0.26844665,-1.5478293,1.808819,-28.8,-17.4,-31.14
1554118469299,8.814852,-7.465719,-4.2521024,0.33449304,-1.5904398000000002,1.9473034,-29.16,-17.28,-30.54
1554118469319,8.531139,-7.923012,-4.2078094,0.53476274,-1.6426378000000001,2.0719395,-29.58,-16.98,-29.88
1554118469338,8.319252,-8.067862,-4.550779,0.7392935,-1.6937705,2.1763353,-30.0,-16.32,-29.16
1554118469358,8.013991,-7.9331875,-4.938639599999999,0.7286409,-1.7299895,2.2903185,-30.54,-15.42,-28.38
1554118469379,7.5590934999999995,-8.19236,-5.2504845,0.49641323,-1.8056233,2.4074976,-31.26,-13.62,-27.18
1554118469398,7.293336999999999,-8.468291,-4.9781437,0.36325517,-1.8684738999999997,2.4522388,-31.5,-12.24,-26.46
1554118469419,6.7606273,-8.589797,-4.6603136,0.45060685,-1.9526298,2.4820662000000002,-31.74,-10.62,-25.86
1554118469439,6.2045736,-8.632893,-4.895544,0.6593986999999999,-2.038916,2.4873924,-31.92,-8.64,-25.26
1554118469459,5.920861,-8.593987,-4.8081555,0.8309063,-2.1081583,2.4905882000000004,-32.1,-6.6,-24.42
1554118469479,5.288193,-8.408437,-4.807557,0.94808537,-2.1060277999999997,2.444782,-32.22,-4.74,-23.46
1554118469500,4.8392800000000005,-8.317456,-4.4717703,0.98750013,-2.1230721000000004,2.3947146,-32.28,-2.94,-22.38
1554118469519,4.298789,-8.129512,-4.417301999999999,1.0460896000000002,-2.0943098,2.3254723999999998,-32.16,-1.2,-21.3
1554118469539,3.858256,-8.3072815,-4.4741645,1.0365024,-2.0836573,2.2647521,-31.98,0.48,-20.28
1554118469559,3.5679589999999997,-8.403648,-4.1102457,1.0567423,-2.062352,2.2019017000000005,-31.5,2.16,-19.2
1554118469579,3.0370448,-8.816647999999999,-3.8660371,1.2442288000000001,-2.0154803,2.1209416,-30.96,3.66,-18.18
1554118469599,2.473809,-8.783728,-3.4231097999999998,1.401888,-1.9750003,2.0485036,-30.42,5.04,-17.16
1554118469619,1.8644845,-8.877101,-3.1860838,1.5712651000000002,-1.9206718,1.9952403000000003,-29.88,6.48,-16.32
1554118469639,1.1168951,-9.1668,-3.1896752999999998,1.6437031000000002,-1.8855181,1.9228023,-29.28,7.86,-15.66
1554118469658,0.712275,-9.259575,-2.4983494,1.6106798999999998,-1.8940401999999998,1.8674085999999999,-28.68,9.12,-15.18
1554118469678,0.11552023,-9.291897,-2.1164744,1.6468988999999998,-1.8599516999999999,1.824798,-28.02,10.26,-14.76
1554118469699,-0.7032967,-9.697714,-1.8764555,1.5478293,-1.8130800999999999,1.8503643,-27.18,11.4,-14.4
1554118469719,-1.0151415000000001,-9.828198,-1.0941502,1.506284,-1.7896442,1.8706043999999997,-26.58,12.36,-14.16
1554118469739,-1.5658079,-9.849147,-1.0271125,1.6607473000000001,-1.6884441000000003,1.8663433999999997,-25.98,13.26,-13.92
1554118469759,-2.0452468,-9.449316,-0.84455466,1.7534252000000001,-1.6053536,1.8706043999999997,-25.2,13.92,-13.8
1554118469778,-2.4714148,-9.17099,-0.6955156,1.8141453,-1.5297197,1.8983012,-24.48,14.4,-13.74
1554118469799,-3.019687,-8.790312,-0.21607670000000004,1.7715348000000002,-1.4210628,1.9046929,-23.7,15.0,-13.68
1554118469819,-3.2806550000000003,-8.415619,0.26156655,1.7033578,-1.3720607,1.9078886999999998,-22.92,15.6,-13.68
1554118469842,-3.6577415,-8.093599000000001,0.48961425,1.5744608999999998,-1.3124058,1.9100191999999998,-22.2,16.26,-13.74
1554118469859,-3.8588544999999996,-8.001422,0.6003460999999999,1.3635385,-1.2580773,1.9100191999999998,-21.42,16.86,-13.98
1554118469879,-4.2299557,-7.6668324000000005,0.9720459000000001,1.1249193000000002,-1.220793,1.8791265,-20.58,17.46,-14.22
1554118469898,-4.4879313,-7.837419000000001,1.6035166,1.091896,-1.2016183,1.8311896,-19.74,18.0,-14.58
1554118469918,-4.6782703,-7.915230800000001,2.0123265,1.3507552999999999,-1.160073,1.7662083999999998,-18.96,18.6,-15.0
1554118469938,-4.853047,-7.2460512999999995,2.2152352000000004,1.6202673,-1.1174624,1.6841831000000003,-18.12,19.08,-15.42
1554118469958,-4.8763905,-6.6522894,2.3726540000000003,1.6437031000000002,-1.0546118,1.635181,-17.04,19.44,-15.9
1554118469978,-5.0547585,-6.5026517,2.5767596,1.4977618000000001,-0.9779128,1.5925703000000002,-16.02,19.62,-16.44
1554118469998,-5.145738,-6.0501475,2.9376855,1.2697952,-0.902279,1.567004,-14.88,19.74,-17.04
1554118470018,-5.370793,-5.762843599999999,3.1914709,1.0588728,-0.82557994,1.5318503,-14.04,19.8,-17.7
1554118470038,-5.5545480000000005,-5.5982423,3.5535938999999996,0.90654004,-0.7755125,1.5073493,-13.26,19.86,-18.36
1554118470059,-5.8083334,-5.4509989999999995,3.8420951,0.9193232,-0.6892261,1.4594122999999999,-12.0,20.04,-19.32
1554118470079,-5.9262476,-5.242703,3.8989575,0.9683254000000001,-0.63915867,1.4285196000000002,-11.64,20.04,-19.62
1554118470098,-5.9956794,-4.8069587,4.0384197,0.96406436,-0.56245965,1.3773868999999999,-10.8,20.16,-20.22
1554118470119,-6.013636,-4.4448357000000005,4.079121,0.8564726,-0.4878911,1.3060142,-10.2,20.22,-20.76
1554118470138,-5.9400144,-4.4963107,4.3329067000000006,0.6988135,-0.41545314,1.220793,-9.3,20.28,-21.42
1554118470159,-5.9867015,-4.3634324,4.6124296,0.6679208000000001,-0.35579833,1.1451592,-8.88,20.1,-21.84
1554118470179,-6.100425700000001,-4.0845080000000005,4.785411,0.75633776,-0.294013,1.0833739,-8.4,19.98,-22.32
1554118470198,-6.280589599999999,-3.6655227999999997,4.791396,0.8628642,-0.23968449999999997,1.019458,-7.86,19.86,-22.74
1554118470219,-6.284180999999999,-3.1956607999999997,4.613028,0.87564737,-0.20985709,0.93849796,-7.38,19.68,-23.22
1554118470239,-6.272808599999999,-3.0065188,4.4861355000000005,0.7616641,-0.2066613,0.850081,-6.9,19.56,-23.76
1554118470259,-6.3548098,-2.9616275,4.51726,0.5336975,-0.19281286,0.78083885,-6.36,19.32,-24.36
1554118470279,-6.4577602999999995,-3.0627825,4.836886,0.32490566,-0.18109496,0.73609775,-5.88,19.14,-25.02
1554118470299,-6.508039,-3.019687,5.1247888,0.22903186,-0.17470337,0.6945524000000001,-5.4,18.9,-25.62
1554118470319,-6.443994,-2.9287071,5.277419,0.221575,-0.18216023,0.63383234,-4.86,18.78,-26.04
1554118470338,-6.413468,-2.8868085999999997,5.324106,0.24927188,-0.18002969,0.56459016,-4.38,18.66,-26.28
1554118470358,-6.5762734,-2.861071,5.3935379999999995,0.34621096,-0.18002969,0.49002165,-3.9,18.48,-26.52
1554118470379,-6.5026517,-2.8191724,5.5725045,0.4644553,-0.1949434,0.4016047,-3.48,18.3,-26.76
1554118470398,-6.5056449999999995,-2.7000610000000003,5.5976434,0.49428272,-0.19707392,0.36645097,-3.12,18.0,-26.88
1554118470418,-6.616376400000001,-2.5025394,5.597045,0.5134575,-0.18642128,0.33555830000000003,-2.88,17.76,-27.06
1554118470439,-6.6947865,-2.2313959999999997,5.570708799999999,0.48149952,-0.16831179,0.30466563,-2.58,17.46,-27.18
1554118470458,-6.6522894,-1.894412,5.4126916,0.35899413,-0.16618125,0.28868666,-2.34,17.16,-27.3
1554118470478,-6.6504936,-1.8962077000000002,5.408501599999999,0.14807177,-0.15446335,0.26205507,-2.1,16.86,-27.48
1554118470498,-6.766014,-2.11827,5.653308999999999,-0.06924219,-0.14061491,0.23542345,-1.8,16.62,-27.66
1554118470518,-6.980295,-2.2266076,5.644929,-0.14487597,-0.12250541,0.21944448,-1.68,16.38,-27.9
1554118470540,-6.9515649999999996,-2.0727801,5.9412117,-0.07776430000000001,-0.09374327,0.17896444,-1.5,16.2,-28.2
1554118470558,-6.879739,-2.0219033,6.1632739999999995,0.026631612000000002,-0.068176925,0.14168017,-1.38,16.08,-28.44
1554118470578,-6.8839283,-1.9973627,6.113594,0.09587380000000001,-0.040480047000000005,0.112918034,-1.26,15.96,-28.62
1554118470598,-7.1047934999999995,-1.8830396,5.9980736,0.08628642,-0.0010652645,0.09587380000000001,-1.08,15.96,-28.74
1554118470618,-7.2340803,-1.8028339,5.7706246,-0.01917476,0.012783173500000002,0.09374327,-0.96,15.96,-28.86
1554118470638,-7.165846000000001,-1.8740613000000002,5.842450599999999,-0.1438107,0.011717908999999999,0.10226539,-0.84,16.02,-28.86
1554118470658,-7.101800999999999,-2.0225020000000002,5.8849480000000005,-0.20879184,0.0,0.11611383,-0.78,16.08,-28.92
1554118470678,-7.014412400000001,-2.1134815,5.931635,-0.19707392,-0.002130529,0.099069595,-0.66,16.14,-28.92
1554118470699,-7.049727000000001,-2.0548236,5.9011087,-0.14274544,-0.0010652645,0.06924219,-0.6,16.26,-28.86
1554118470719,-7.249044400000001,-1.8734628,5.861604,-0.10972224,-0.0053263223,0.043675844000000005,-0.48,16.32,-28.8
1554118470738,-7.1808095000000005,-1.8872293999999998,5.9238534000000005,-0.09054748,-0.043675844000000005,0.014913702,-0.36,16.44,-28.8
1554118470760,-6.9503675000000005,-1.9303252,5.8741736,-0.07776430000000001,-0.07243799,-0.0053263223,-0.24,16.44,-28.74
1554118470779,-6.9671270000000005,-1.9955671000000001,5.919065,-0.082025364,-0.07243799,-0.03089267,-0.12,16.5,-28.74
1554118470800,-6.8863225,-2.2218192,5.8328739999999994,-0.08735169,-0.10013486,-0.040480047000000005,-0.06,16.56,-28.68
1554118470819,-6.6792240000000005,-2.284667,5.7999535,-0.082025364,-0.10333065,-0.041545313,0.0,16.56,-28.68
1554118470839,-6.746262,-2.4875755,5.7544637000000005,-0.033023197000000004,-0.094808534,-0.040480047000000005,0.06,16.62,-28.62
1554118470858,-6.6576759999999995,-2.3678656000000005,5.677251,-0.010652645,-0.09267801,-0.04474111,0.0,16.68,-28.62
1554118470878,-6.681617999999999,-2.1481974,5.570708799999999,-0.03195793,-0.05539375,-0.049002163,-0.06,16.74,-28.62
1554118470899,-6.8528037,-2.098518,5.2181625,-0.07137272,-0.023435817999999997,-0.05219796,-0.12,16.8,-28.62
1554118470919,-6.9503675000000005,-1.9841946,4.8704047,-0.16831179,0.004261058,-0.06285059999999999,-0.24,16.8,-28.56
1554118470938,-6.903082,-2.0105310000000003,4.76087,-0.28442562,0.01917476,-0.07669904,-0.36,16.86,-28.56
1554118470958,-6.828263300000001,-2.0386627,4.833295,-0.37923414,0.039414786,-0.101200126,-0.48,16.92,-28.44
1554118470979,-6.8049197,-2.2876596,4.9733553,-0.40373522,0.06285059999999999,-0.12144015,-0.6,16.98,-28.32
1554118470999,-6.725312700000001,-2.5181017000000003,5.1062335999999995,-0.39840892,0.07669904,-0.1587244,-0.66,16.98,-28.14
1554118471018,-6.7636199999999995,-2.5486276,5.2241483,-0.40586576,0.101200126,-0.18322548,-0.6,17.04,-27.96
1554118471039,-7.091625,-2.7042507999999996,5.5300074,-0.4133226,0.12037488,-0.20879184,-0.6,17.16,-27.72
1554118471058,-7.136516599999999,-2.9029696,6.0411696,-0.37284255,0.12570119999999999,-0.21944448,-0.6,17.34,-27.54
1554118471080,-7.126939999999999,-2.870648,6.354211299999999,-0.29614353,0.14913702,-0.24820662,-0.6,17.58,-27.36
1554118471100,-7.4591354999999995,-2.6551697,6.423643,-0.27590349999999997,0.18961707,-0.2727077,-0.6,17.88,-27.18
1554118471119,-7.6949644,-2.4384943999999997,6.4481835,-0.33449304,0.18322548,-0.28122982,-0.6,18.12,-27.06
1554118471139,-7.6626425000000005,-2.5061307,6.6480994,-0.39627838,0.14594123,-0.29614353,-0.6,18.42,-26.94
1554118471158,-7.5429325,-2.9173348,7.047931,-0.36432046,0.12037488,-0.31851408,-0.6,18.72,-26.82
1554118471179,-7.390900599999999,-3.0765493,7.022193400000001,-0.28229508,0.112918034,-0.33129725,-0.6,18.96,-26.7
1554118471199,-7.457938,-3.2303767000000003,6.4380083,-0.13315806,0.12250541,-0.33981937,-0.6,19.62,-26.28
1554118471219,-7.634510499999999,-3.1800982999999996,6.087856299999999,-0.08841695,0.12676647,-0.34514567,-0.6,19.92,-25.92
1554118471239,-7.5309615,-3.2423477000000003,6.1129956,-0.060720075,0.08948222,-0.35579833,-0.6,20.1,-25.62
1554118471258,-7.2322845000000004,-3.5075053999999994,6.455965,0.0053263223,0.049002163,-0.35260254,-0.6,20.4,-25.32
1554118471278,-7.204153,-3.2746694,6.361394000000001,0.13209279,0.047936900000000005,-0.3653857,-0.54,20.58,-25.02
1554118471299,-7.1706343,-3.0585926,5.9861026,0.20026971,0.02876214,-0.37284255,-0.6,20.76,-24.78
1554118471318,-7.047333,-3.2561142000000003,5.955577,0.19068234,0.01917476,-0.37603834,-0.6,20.94,-24.6
1554118471338,-6.9988503,-3.4159272000000005,6.0040593,0.20985709,0.03195793,-0.38349520000000004,-0.6,20.94,-24.54
1554118471359,-7.055712,-3.3237504999999996,5.9388175,0.2428803,0.06285059999999999,-0.38242993,-0.66,20.94,-24.54
1554118471379,-7.04015,-3.3045970000000002,5.885546,0.28549087,0.08948222,-0.36751625,-0.78,20.88,-24.6
1554118471400,-7.0024414,-3.425504,5.788581400000001,0.32597092,0.111852765,-0.3685815,-0.96,20.82,-24.6
1554118471419,-6.931812299999999,-3.3955764999999998,6.0250087,0.3749731,0.14807177,-0.36432046,-1.2,20.7,-24.66
1554118471438,-7.0180039999999995,-3.2752678,5.7909755999999994,0.44847634,0.18109496,-0.35473305,-1.44,20.52,-24.72
1554118471458,-6.9587474,-3.1585505,5.5581393,0.46978164,0.20772657,-0.330232,-1.62,20.22,-24.84
1554118471479,-6.8970966,-3.1429882,5.305551,0.45593318,0.22264028,-0.31851408,-1.86,19.86,-25.02
1554118471498,-6.9527617,-3.1663318,5.342661,0.39308259999999995,0.23755397,-0.28442562,-2.1,19.5,-25.32
1554118471519,-7.062895,-3.1130607000000006,5.327099,0.33768883,0.23968449999999997,-0.25353295,-2.28,19.14,-25.68
1554118471538,-7.1514807000000005,-2.9514522999999997,5.282207499999999,0.314253,0.23116238,-0.23116238,-2.4,18.78,-26.04
1554118471560,-7.074866,-2.8072014,5.312135,0.294013,0.221575,-0.21731395,-2.46,18.48,-26.4
1554118471578,-7.065888,-2.6042929,5.425261,0.2545982,0.2130529,-0.24820662,-2.46,18.18,-26.82
1554118471598,-7.0874357,-2.7192147,5.3803697,0.20559604,0.18961707,-0.26525086,-2.52,18.0,-27.18
1554118471620,-7.121553,-2.9993362,5.395932,0.16724652,0.17363810000000002,-0.26205507,-2.64,17.88,-27.54
1554118471639,-7.2352777,-3.0729580000000003,5.3743844,0.14061491,0.16724652,-0.25033715,-2.7,17.76,-27.84
1554118471659,-7.316082000000001,-3.1040826,5.291186,0.083090626,0.15978967,-0.22796659,-2.76,17.7,-28.02
1554118471678,-7.304111,-3.3291376000000006,5.3618144999999995,0.035153727999999995,0.15552860000000002,-0.19707392,-2.88,17.52,-28.14
1554118471698,-7.324461500000001,-3.3405099999999996,5.4432178,0.060720075,0.16085494,-0.16085494,-2.94,17.4,-28.2
1554118471719,-7.4268136,-3.1783028,5.234922,0.060720075,0.17150758,-0.13209279,-3.0,17.22,-28.32
1554118471739,-7.4591354999999995,-3.2136172999999997,5.263054,0.05539375,0.16192019,-0.07989483,-3.06,16.98,-28.38
1554118471759,-7.347805,-3.0903158,5.201403,0.07989483,0.16298546,-0.058589544,-3.06,16.8,-28.38
1554118471778,-7.3178773,-3.1735144,5.2115784000000005,0.07456851,0.17150758,-0.04580637,-3.06,16.74,-28.38
1554118471799,-7.4399820000000005,-3.1675289,5.2277393,0.02876214,0.17470337,-0.027696876000000002,-3.0,16.56,-28.38
1554118471819,-7.4495587,-3.1777040000000003,5.290587400000001,0.0010652645,0.15978967,-0.013848438000000001,-2.94,16.44,-28.38
1554118471839,-7.353790299999999,-3.093907,5.4001220000000005,0.00958738,0.15339808,-0.0031957934000000003,-2.88,16.38,-28.44
1554118471858,-7.2927384,-3.1196449,5.382764,0.011717908999999999,0.13209279,-0.0063915867,-2.88,16.38,-28.44
1554118471879,-7.2753806,-3.1208419999999997,5.3522377,0.013848438000000001,0.12250541,-0.022370555,-2.82,16.38,-28.56
1554118471898,-7.3418193,-3.0663737999999996,5.4144874000000005,0.008522116,0.11824436,-0.025566347000000003,-2.76,16.32,-28.62
1554118471919,-7.3807254,-2.991555,5.347449299999999,0.0031957934000000003,0.10439592,-0.03089267,-2.76,16.32,-28.68
1554118471938,-7.428011,-3.0986955000000003,5.303157,-0.011717908999999999,0.10013486,-0.035153727999999995,-2.7,16.38,-28.74
1554118471959,-7.5028296,-3.2351650000000003,5.3648076,-0.0063915867,0.098004326,-0.041545313,-2.7,16.38,-28.8
1554118471978,-7.5668745,-3.3806129,5.2983685,-0.029827405,0.098004326,-0.02876214,-2.64,16.32,-28.86
1554118471998,-7.575253999999999,-3.5152867,5.151125,-0.046871635999999994,0.08735169,-0.018109497,-2.58,16.32,-28.86
1554118472018,-7.5698669999999995,-3.4272997000000003,5.005079,-0.051132694000000006,0.07456851,0.020240024,-2.58,16.32,-28.92
1554118472039,-7.5046253,-3.2549171,4.8781857,-0.054328485999999995,0.05539375,0.047936900000000005,-2.52,16.32,-28.86
1554118472059,-7.4124484,-3.0579941,4.744708999999999,-0.099069595,0.03834952,0.05219796,-2.4,16.32,-28.8
1554118472079,-7.513005000000001,-3.0412347,4.789002,-0.165116,0.037284255,0.049002163,-2.34,16.32,-28.68
1554118472099,-7.548918,-3.2507273999999997,4.900332499999999,-0.17576863,0.03195793,0.03089267,-2.22,16.32,-28.62
1554118472119,-7.4950485,-3.2758665000000002,5.0930657,-0.12783173,0.037284255,0.013848438000000001,-2.1,16.26,-28.56
1554118472139,-7.4705076,-3.2208,4.9135003,-0.07882957,0.03089267,0.0063915867,-2.04,16.26,-28.5
1554118472158,-7.3843164,-3.2160115,4.9278655,-0.10226539,0.03834952,0.0010652645,-1.92,16.32,-28.44
1554118472179,-7.301717,-3.2261868,5.0002904,-0.14168017,0.040480047000000005,-0.0063915867,-1.8,16.38,-28.44
1554118472198,-7.1023993,-3.3566709,5.163694400000001,-0.17257284,0.05965481,-0.024501082,-1.68,16.44,-28.38
1554118472219,-6.9210386,-3.5344403,5.513846400000001,-0.11824436,0.09587380000000001,-0.07243799,-1.62,16.62,-28.38
1554118472239,-6.523601,-3.6655227999999997,5.691616000000001,0.025566347000000003,0.13102753,-0.13954964,-1.56,16.8,-28.38
1554118472259,-5.923255,-3.6954502999999996,5.513248,0.17363810000000002,0.18642128,-0.24501082,-1.5,16.98,-28.38
1554118472278,-5.3408656,-3.4650084999999997,5.0080714,0.23435818,0.26631612,-0.39095205,-1.44,17.16,-28.32
1554118472299,-4.8189297,-3.3063924,4.717774400000001,0.17257284,0.36964676,-0.58056915,-1.38,17.28,-28.32
1554118472319,-5.068525,-3.4554317,4.594473000000001,0.02130529,0.5273059,-0.79894835,-1.38,17.4,-28.32
1554118472339,-5.4857144,-3.5547910000000003,4.602853,-0.13209279,0.6402239000000001,-0.9800433000000001,-1.38,17.52,-28.32
1554118472359,-5.2235494000000005,-3.74094,4.174889,-0.19387813,0.7286409,-1.1611383,-1.38,17.58,-28.26
1554118472379,-4.9518075,-3.9097313999999996,3.8444892999999998,-0.18535602,0.85327685,-1.3592775,-1.44,17.58,-28.26
1554118472399,-4.7788267,-4.2503066,3.7116113,-0.027696876000000002,0.9864349,-1.5691346000000002,-1.56,17.52,-28.32
1554118472419,-4.847061,-4.43466,3.2172085999999998,0.165116,1.1302456,-1.8109495999999998,-1.68,17.46,-28.32
1554118472439,-5.228338,-4.646547,3.0418332,0.1470065,1.2815131000000002,-2.0325246,-1.92,17.4,-28.32
1554118472459,-5.498883,-5.111022,3.1256304,0.10013486,1.3763216999999999,-2.2146847000000003,-2.16,17.4,-28.32
1554118472479,-5.242703,-5.7257333,2.9029696,0.17044231,1.4444987,-2.3659522999999996,-2.52,17.34,-28.32
1554118472499,-5.088876,-6.307524,2.7335799,0.34514567,1.5584818999999999,-2.521481,-2.82,17.22,-28.32
1554118472519,-5.160103299999999,-6.7719994,2.267309,0.62317973,1.6575514999999998,-2.6993802000000002,-3.18,17.04,-28.32
1554118472539,-5.275025,-6.867767999999999,1.6609775000000002,0.6689861,1.7204021,-2.8826056,-3.48,16.8,-28.32
1554118472560,-5.313332,-6.823475,1.7166426,0.47830373,1.7576863999999999,-3.0242857999999995,-3.84,16.56,-28.38
1554118472578,-5.1002483,-7.223306699999999,1.6807296000000003,0.294013,1.7576863999999999,-3.145726,-4.32,16.14,-28.62
1554118472598,-4.715380000000001,-8.553286,1.3359646,0.23222765,1.7235979,-3.2394693,-4.74,15.66,-28.86
1554118472619,-4.4262805,-9.408614,1.0827777,0.294013,1.716141,-3.307646,-5.16,15.06,-29.16
1554118472638,-4.4663835,-8.955511,1.1145009,0.44847634,1.6628778000000002,-3.4024546,-5.64,14.28,-29.52
1554118472658,-4.308964700000001,-9.454104,0.60573304,0.48043427,1.4572818,-3.4333472,-6.06,13.44,-29.88
1554118472679,-3.5763388,-9.664794,0.9624690999999999,0.19387813,1.2037488,-3.3609095,-6.78,11.88,-30.66
1554118472699,-3.6631286,-8.911817999999998,1.797447,0.04580637,1.0855045,-3.3417345999999997,-7.44,10.74,-31.26
1554118472718,-3.4183214,-8.431181,2.2918496,-0.083090626,0.8788431999999999,-3.2597091000000002,-8.16,9.54,-31.8
1554118472739,-2.8245595000000003,-8.767567,2.2984335,-0.17150758,0.67537767,-3.1712922999999997,-8.82,8.28,-32.22
1554118472759,-2.3116016,-9.198523,2.2709002000000003,-0.31105720000000003,0.52411014,-3.1222901000000003,-9.48,7.08,-32.7
1554118472778,-1.7160441000000002,-8.84478,2.2092497000000004,-0.44847634,0.42397526,-3.0658312000000003,-10.26,5.94,-33.12
1554118472799,-1.2749124,-8.508992999999998,2.3888147,-0.48043427,0.39947417,-3.0434606,-11.1,4.98,-33.54
1554118472819,-0.47524905,-8.593389,2.5905263,-0.43995422,0.40053943,-3.0306773,-12.12,4.02,-33.9
1554118472839,0.4189853,-8.896853,2.5773582000000004,-0.35153726,0.46765109999999993,-3.0434606,-13.14,3.3,-34.08
1554118472858,1.3299791,-9.323022,2.005144,-0.3749731,0.52624065,-3.0700922000000004,-14.1,2.52,-34.2
1554118472878,2.0350714,-8.622119,1.5945383,-0.44421527,0.6402239000000001,-3.086071,-14.82,1.56,-34.32
1554118472899,2.4612392999999995,-8.392275999999999,1.3928268,-0.5187838,0.7222493000000001,-3.134008,-15.54,0.72,-34.44
1554118472918,3.354875,-8.737040499999999,1.1468226000000001,-0.59867865,0.7574029999999999,-3.1095068,-16.2,-0.18,-34.5
1554118472938,4.471172,-9.11293,0.7541734999999999,-0.74675035,0.7776430000000001,-3.0828752999999995,-16.8,-1.08,-34.56
1554118472958,5.2816089999999996,-8.510789,0.036511577999999996,-1.026915,0.8223841999999999,-3.0743532000000005,-17.46,-1.98,-34.68
1554118472979,5.5802855000000005,-7.729081599999999,-0.21607670000000004,-1.4253238000000001,0.8948221,-3.005111,-17.88,-2.94,-34.74
1554118472998,6.2925606,-8.337808,-0.060453594000000006,-1.7385116000000003,0.8852348,-2.9134984,-18.18,-3.84,-34.86
1554118473019,7.0832458,-8.32045,0.08798691,-1.8130800999999999,0.95128113,-2.8783445,-18.54,-4.62,-34.98
1554118473038,7.3627687,-8.6813755,-0.09756372,-1.7694043000000002,0.98430437,-2.8751488,-18.72,-4.86,-35.04
1554118473059,8.6574335,-9.035717,-0.45010993,-1.5957662000000001,1.0471549,-2.7835360000000002,-19.2,-5.52,-35.16
1554118473078,9.048885,-8.908225999999999,-1.0708067,-1.510545,1.0887003,-2.6695528,-19.62,-5.82,-35.22
1554118473099,9.030928999999999,-8.224682000000001,-1.1198878,-1.5116103,1.0844392,-2.4543692999999998,-19.92,-6.12,-35.28
1554118473118,9.085397,-7.493850999999999,-0.88166475,-1.5233282,1.0322412,-2.2466428,-20.16,-6.3,-35.28
1554118473138,9.029732000000001,-7.0742674,-0.6194997,-1.4796523000000001,0.96086854,-2.1038973,-20.34,-6.48,-35.28
1554118473159,9.434352,-7.316082000000001,-0.6386533000000001,-1.397627,0.85966843,-2.0026971999999996,-20.52,-6.54,-35.28
1554118473179,9.78989,-7.863157000000001,-1.0163386,-1.2804478000000001,0.813862,-1.8791265,-20.58,-6.66,-35.28
1554118473199,9.737217999999999,-7.305308,-0.9792285,-1.1483551,0.7755125,-1.7235979,-20.58,-6.72,-35.28
1554118473218,9.293693,-6.5325794,-0.79008657,-1.0120013,0.73290193,-1.5701998,-20.52,-6.78,-35.34
1554118473240,9.003994,-5.981314,-0.45609543,-0.8362325999999999,0.628506,-1.4199976,-20.4,-6.78,-35.34
1554118473258,9.06744,-5.9142766,-0.38367084,-0.660464,0.535828,-1.3156016000000001,-20.28,-6.78,-35.28
1554118473278,8.81964,-5.6551046,-0.21188685,-0.49854377,0.45699844,-1.2293152,-20.16,-6.72,-35.28
1554118473298,8.945934,-5.657499,-0.31364042,-0.3291667,0.37603834,-1.1132014,-20.04,-6.72,-35.34
1554118473319,9.071032,-5.403713,-0.3800795,-0.24607609,0.33662358,-1.0492854999999999,-19.92,-6.66,-35.34
1554118473339,9.060258000000001,-5.0763063,-0.24420857,-0.22796659,0.31318775,-0.95128113,-19.86,-6.6,-35.34
1554118473359,9.121908,-4.830900700000001,-0.095768064,-0.20985709,0.29294774,-0.8543421,-19.86,-6.54,-35.28
1554118473379,9.041103999999999,-4.473566,-0.14903906,-0.19174760000000002,0.2790993,-0.7552725,-19.86,-6.48,-35.28
1554118473399,8.974067,-4.302380599999999,-0.15741876,-0.21731395,0.257794,-0.6988135,-19.86,-6.48,-35.28
1554118473418,9.07582,-4.2515035,-0.008379705999999999,-0.25566345,0.21411815,-0.62531024,-19.86,-6.42,-35.34
1554118473438,9.1255,-4.143166000000001,0.15442601,-0.27164245,0.19281286,-0.5571333,-19.86,-6.54,-35.34
1554118473459,9.110536,-4.0479965,0.26815059999999996,-0.2545982,0.1587244,-0.49534798,-19.92,-6.72,-35.34
1554118473479,9.174581,-3.982156,0.350152,-0.18535602,0.10972224,-0.43888897,-19.92,-6.9,-35.34
1554118473499,9.287707000000001,-3.8690300000000004,0.39504328,-0.049002163,0.056459017,-0.39201729999999996,-19.98,-7.14,-35.34
1554118473518,9.307459,-3.9109285000000003,0.374094,0.07882957,0.022370555,-0.3685815,-20.04,-7.32,-35.4
1554118473539,9.338583999999999,-3.8983587999999996,0.42018240000000007,0.20985709,-0.004261058,-0.35579833,-20.1,-7.5,-35.4
1554118473559,9.297284,-3.8331169999999997,0.37529109999999993,0.33768883,-0.007456851,-0.32170987,-20.1,-7.68,-35.4
1554118473579,9.121310000000001,-3.6637269999999997,0.22625206,0.43888897,-0.004261058,-0.28442562,-20.16,-7.8,-35.4
1554118473599,8.879496000000001,-3.4308910000000004,0.13826515,0.47830373,-0.0031957934000000003,-0.2428803,-20.16,-7.8,-35.46
1554118473619,8.7053175,-3.2597055,0.11312603,0.46339005,-0.018109497,-0.18642128,-20.22,-7.92,-35.46
1554118473638,8.763975,-3.2333694,0.04309563,0.41758367,-0.049002163,-0.11717909,-20.22,-8.1,-35.52
1554118473661,8.933964,-3.1016884,-0.007182605,0.35792887,-0.07776430000000001,-0.06498113,-20.22,-8.46,-35.64
1554118473680,9.186552,-3.0340521000000003,-0.062249242999999996,0.30146983,-0.10759171,-0.014913702,-20.28,-8.82,-35.76
1554118473699,9.226655000000001,-3.1370027,-0.0664391,0.26418558,-0.13209279,0.034088463,-20.28,-9.18,-35.94
1554118473719,9.178771000000001,-3.116652,-0.13467385,0.25885928,-0.1438107,0.056459017,-20.28,-9.6,-36.12
1554118473739,8.878897,-3.0885203,-0.1364695,0.27803403,-0.16298546,0.07243799,-20.28,-9.96,-36.24
1554118473758,8.690353,-3.0376434,0.07003039999999999,0.29294774,-0.20879184,0.09054748,-20.28,-10.38,-36.36
1554118473779,8.720282000000001,-2.9939492000000003,0.12210429,0.3174488,-0.27590349999999997,0.11824436,-20.28,-10.74,-36.48
1554118473798,9.102755,-2.9682117000000003,0.04369418,0.33875409999999995,-0.34727620000000003,0.13848437,-20.34,-11.04,-36.6
1554118473818,9.455300999999999,-2.959832,-0.08499416,0.34621096,-0.4016047,0.13315806,-20.4,-11.28,-36.66
1554118473839,9.747394,-3.1016884,-0.018555064,0.38456047,-0.45806372,0.098004326,-20.46,-11.52,-36.6
1554118473859,9.897031,-3.1872811000000003,0.17417817,0.44101948,-0.5006742999999999,0.051132694000000006,-20.58,-11.76,-36.54
1554118473878,9.842564,-3.2507273999999997,0.24660277,0.49534798,-0.5134575,0.022370555,-20.82,-12.0,-36.48
1554118473899,9.431359,-3.2345665,0.33698390000000006,0.572047,-0.5273059,-0.014913702,-21.06,-12.24,-36.42
1554118473920,9.136872,-3.2112230999999998,0.42257659999999997,0.6114618,-0.54648066,-0.036218993,-21.42,-12.6,-36.36
1554118473938,9.095572,-3.2818519999999998,0.45310268,0.6498113,-0.56672066,-0.04474111,-21.78,-12.9,-36.36
1554118473958,9.112331,-3.3895910000000002,0.56563014,0.7254451,-0.567786,-0.041545313,-22.14,-13.32,-36.24
1554118473979,8.987833,-3.3716345000000003,0.64942724,0.8245146999999999,-0.5592638000000001,-0.049002163,-22.44,-13.68,-36.18
1554118474000,8.9998045,-3.2758665000000002,0.6356605,0.8926915999999999,-0.5518069999999999,-0.035153727999999995,-22.8,-14.1,-36.12
1554118474018,9.137471000000001,-3.2070332,0.41180268,0.96406436,-0.5336975,-0.034088463,-23.1,-14.76,-36.0
1554118474041,9.531317,-3.1902738,0.34895490000000007,0.9715212,-0.5432849000000001,-0.049002163,-23.4,-15.42,-35.88
1554118474059,9.834184,-3.1621417999999997,0.20051439,0.96086854,-0.51452273,-0.06498113,-23.7,-16.14,-35.82
1554118474078,9.671378,-3.1292217,0.11911154,0.94488955,-0.48363006,-0.06498113,-24.12,-16.92,-35.76
1554118474098,9.519346,-3.0376434,-0.012569559,0.9225190000000001,-0.46978164,-0.05539375,-24.48,-17.7,-35.7
1554118474120,9.383475,-2.8868085999999997,-0.17836803,0.9012136999999999,-0.47297743,-0.04261058,-24.84,-18.6,-35.58
1554118474138,9.275736,-2.9113493,-0.31364042,0.9139969000000001,-0.4644553,-0.0063915867,-25.2,-19.56,-35.46
1554118474162,9.003395,-2.9376855,-0.46926352,1.015197,-0.48043427,0.00958738,-25.8,-20.94,-35.28
1554118474180,9.041103999999999,-2.8969840000000002,-0.59376204,1.1036139999999999,-0.5134575,-0.0010652645,-25.98,-21.36,-35.22
1554118474199,9.28232,-2.8975825,-0.82599956,1.2325108999999999,-0.5539375,-0.035153727999999995,-26.4,-22.2,-35.16
1554118474219,9.569026,-2.882619,-1.1348516000000002,1.3358417,-0.58483016,-0.09267801,-26.7,-23.1,-34.98
1554118474239,9.879075,-2.8951882999999996,-1.3150153,1.4295848999999998,-0.61891866,-0.16085494,-26.88,-24.0,-34.86
1554118474259,10.14124,-3.1310172,-1.5999253,1.5574166999999999,-0.6487460999999999,-0.27696875,-27.18,-25.08,-34.68
1554118474279,10.181343,-4.3167458,-1.7160441000000002,1.6554209999999998,-0.67005134,-0.3334278,-27.48,-26.1,-34.5
1554118474298,10.17416,-5.771223,-2.0811598,2.0463731,-0.66579026,-0.26312032,-27.78,-27.36,-34.26
1554118474320,9.673772,-5.2726307,-2.4193408,2.6514432,-0.6306366,-0.12676647,-28.14,-28.68,-33.84
1554118474339,9.108741,-4.1132383,-2.8760347,2.9859362000000003,-0.6423545,0.15552860000000002,-28.56,-30.06,-33.36
1554118474359,9.021951,-3.7499184999999997,-3.3063924,2.9039109,-0.737163,0.5613944000000001,-28.98,-31.62,-32.82
1554118474378,9.24521,-4.3879733,-3.2381577,2.610963,-0.8926915999999999,0.95447695,-29.52,-33.36,-32.34
1554118474398,9.803658,-5.621585400000001,-3.080739,2.5001757000000002,-1.0428939,1.361408,-30.06,-35.04,-31.86
1554118474419,10.356119,-6.5744777,-3.169923,2.4362597000000004,-1.1781825000000001,1.7672738000000001,-30.72,-36.6,-31.38
1554118474439,10.327988000000001,-7.041946,-3.1214404,2.3595607000000003,-1.2985574,2.1774006,-31.86,-38.76,-30.54
1554118474460,10.06283,-7.387908,-2.9741971,2.2743397,-1.3624732,2.396845,-32.7,-39.84,-29.82
1554118474478,9.822212,-7.5644803,-2.8413188,2.1923141,-1.381648,2.4991105,-33.06,-40.38,-29.4
1554118474498,9.324219,-7.690175999999999,-2.7772740000000002,2.026133,-1.3795174,2.582201,-33.78,-41.16,-28.32
1554118474519,8.846575999999999,-7.808089999999999,-2.9113493,1.5947008999999999,-1.3837786,2.6812706000000004,-34.8,-41.58,-26.64
1554118474539,8.533533,-8.165425,-2.498948,1.284709,-1.3933659,2.7867317000000003,-35.58,-41.1,-25.32
1554118474560,8.237250999999999,-8.735844,-2.2523452999999996,1.1536813999999997,-1.4253238000000001,2.8794098,-36.36,-40.14,-23.94
1554118474579,8.127716,-9.357139,-2.3259668,1.1590078000000001,-1.470065,2.9891322,-37.02,-38.7,-22.38
1554118474598,7.885902000000001,-9.520543,-2.7838580000000004,1.1856394,-1.4945661,3.0924628,-37.62,-36.96,-20.76
1554118474618,7.4896617,-9.54209,-3.176507,1.0748518999999999,-1.5180018,3.197924,-38.28,-34.92,-19.2
1554118474639,6.9371996,-9.174581,-3.0879216,0.8085357,-1.5446335,3.3353431000000002,-38.88,-32.52,-17.94
1554118474659,6.5846534,-8.958505,-2.7257986,0.6487460999999999,-1.5733956,3.3790187999999994,-39.48,-29.82,-16.8
1554118474679,6.0944405,-8.866327,-2.654571,0.515588,-1.5904398000000002,3.3758230000000005,-39.72,-28.38,-16.14
1554118474698,5.711368,-9.142858,-2.0482395,0.20240025,-1.6543556000000001,3.3502567,-40.14,-24.0,-14.22
1554118474718,5.309142,-9.200917,-1.584363,0.10333065,-1.5968314,3.3108419999999996,-40.2,-20.94,-12.9
1554118474739,4.704606500000001,-9.573814,-1.9710265,0.14913702,-1.5339808000000001,3.2085764,-40.08,-17.82,-11.58
1554118474759,4.3161473,-9.412804,-2.0644004000000002,0.21837921,-1.4583471000000001,3.0711575,-39.66,-14.7,-10.44
1554118474779,3.8379053999999995,-8.718486,-1.6675615000000001,0.3291667,-1.365669,2.9103024,-39.06,-11.46,-9.48
1554118474799,3.0298622,-7.608772999999999,-1.174356,0.46765109999999993,-1.2144015,2.6844664000000003,-38.28,-8.22,-8.4
1554118474819,2.5701754,-6.8402343,-0.8343792999999999,0.45167214,-1.1110708999999999,2.4778051,-37.38,-4.92,-7.32
1554118474838,2.2882583,-6.5457472999999995,-0.57760113,0.36218992,-0.9981528000000001,2.2295985000000003,-36.36,-1.86,-6.24
1554118474858,1.9776106,-6.217741999999999,-0.52732295,0.28975195,-0.84688526,1.9366508000000002,-35.22,1.14,-5.28
1554118474878,1.5939398,-5.90889,-0.7410054,0.05752428,-0.69348717,1.603223,-33.96,3.78,-4.5
1554118474898,1.4155718000000002,-6.100425700000001,-0.2908955,-0.08948222,-0.5475459,1.2761868,-32.7,6.24,-3.78
1554118474919,1.0989386,-6.3907228,0.035913024,0.08948222,-0.40906155,0.91825795,-31.44,8.4,-3.0
1554118474939,0.7188591,-5.9807158,0.12868834,0.32170987,-0.29827404,0.56885123,-30.36,10.26,-2.28
1554118474958,0.49739540000000004,-5.575497,0.36870706,0.47510794,-0.17470337,0.25992453,-29.28,11.76,-1.68
1554118474978,0.30406362,-5.514444999999999,-0.41479546,0.46339005,-0.06924219,-0.056459017,-28.32,13.02,-1.26
1554118475001,0.57161564,-5.3935379999999995,-0.88944596,0.03195793,0.015978966,-0.34194988,-27.48,14.1,-0.96
1554118475020,0.7374141,-6.1243677000000005,-0.54767364,-0.20133498,0.14487597,-0.60080916,-26.82,14.88,-0.72
1554118475038,0.41359833,-6.593631299999999,-0.31483752,-0.06924219,0.24607609,-0.8969527,-26.28,15.42,-0.54
1554118475058,0.42736499999999994,-6.8599863,-0.40521863,0.05752428,0.25353295,-1.1472898999999999,-25.98,15.84,-0.48
1554118475078,0.74998367,-7.204153,-0.59974754,0.12144015,0.29933932,-1.3102753,-25.86,16.14,-0.48
1554118475099,0.6823475,-7.1730285,-0.7589619000000001,-0.08841695,0.4101268,-1.4583471000000001,-25.86,16.32,-0.54
1554118475119,0.47524905,-7.4351935,-0.13467385,-0.32384038,0.49960902,-1.5723303999999998,-26.1,16.2,-0.66
1554118475139,0.46447513,-7.738060000000001,0.09935937,-0.2428803,0.5518069999999999,-1.7140104999999999,-26.46,15.66,-0.78
1554118475158,0.79846627,-7.9391727,-0.89543146,-0.18109496,0.55606806,-1.8951055,-26.88,14.88,-0.84
1554118475178,1.7142484,-8.51857,-1.7393875,-0.43782368,0.572047,-2.005893,-27.36,13.8,-0.96
1554118475199,2.273893,-9.230247,-1.555034,-0.73609775,0.6530071,-2.0857878,-28.02,12.6,-1.08
1554118475219,2.4169466,-9.660604,-0.521936,-0.6530071,0.7339671999999999,-2.1901836,-29.34,10.38,-1.2
1554118475241,2.8491,-9.720459,-0.7649474,-0.4016047,0.7414241,-2.2423816000000003,-30.36,8.52,-1.26
1554118475258,3.5972881,-9.816227,-1.6561891,-0.41971418,0.76272935,-2.2445123,-31.44,6.6,-1.44
1554118475279,4.274847,-10.196905000000001,-2.7790697,-0.8873653,0.8127968000000001,-2.1795310000000003,-32.46,4.62,-1.62
1554118475300,4.770447,-10.453683,-2.932897,-1.6000272,0.88949585,-2.0463731,-33.48,2.82,-1.86
1554118475318,5.3540335,-11.561002,-1.8836381000000002,-1.6223978000000001,0.95447695,-1.8546255,-34.62,0.84,-2.22
1554118475338,5.2325277,-10.777499,-1.2755108999999998,-0.7574029999999999,1.0024139,-1.7608821,-35.64,-1.2,-2.64
1554118475359,4.9398365,-8.84478,-1.733402,-0.025566347000000003,0.9416938,-1.7385116000000003,-36.54,-3.36,-3.06
1554118475379,4.939238,-8.002619000000001,-2.2242134,0.21837921,0.8586031999999999,-1.6820526000000002,-37.32,-5.34,-3.54
1554118475400,5.019444,-7.8308353,-2.0608091,0.17044231,0.7882956999999999,-1.7427727,-37.86,-7.14,-4.02
1554118475419,5.1816510000000005,-7.9074497,-1.8513165,0.015978966,0.7233145999999999,-1.8706043999999997,-38.34,-9.06,-4.62
1554118475439,5.677251,-8.151658,-1.6831238000000002,-0.21624869,0.69774824,-1.9877833999999999,-38.7,-10.92,-5.22
1554118475460,6.3685765,-8.251018,-1.8405426,-0.5763081,0.74461985,-2.1156151000000003,-39.0,-12.9,-5.88
1554118475478,6.593033,-8.076839,-1.9812019,-0.82344943,0.8159926,-2.171009,-39.24,-14.88,-6.54
1554118475498,6.6600703999999995,-7.630919500000001,-1.9183542000000002,-1.0290455,0.9289106,-2.2413163,-39.42,-16.68,-7.32
1554118475519,6.6941880000000005,-7.263409599999999,-2.1829132999999996,-1.1462245,1.0056095999999999,-2.3393207,-39.66,-18.66,-8.04
1554118475539,7.056311,-7.0227923,-2.5061307,-1.3379722,1.0535465,-2.3883228,-39.84,-20.58,-8.76
1554118475558,7.4046674,-6.826467500000001,-2.3732523999999997,-1.4998924,1.1185277,-2.385127,-40.02,-22.56,-9.48
1554118475578,7.687782,-6.599616999999999,-2.2840683,-1.5574166999999999,1.171791,-2.3947146,-40.14,-24.42,-10.38
1554118475599,8.163031,-6.3009405,-2.1170728,-1.5478293,1.2101405,-2.444782,-40.26,-26.34,-11.34
1554118475619,8.785523,-6.2243257000000005,-2.15538,-1.4966966,1.2420983,-2.4692830000000003,-40.38,-28.38,-12.3
1554118475639,9.563639,-6.187814,-2.3852234,-1.454086,1.2889700000000002,-2.4788704,-40.38,-30.48,-13.2
1554118475659,10.198701,-5.824494400000001,-2.5552118,-1.4263891000000002,1.361408,-2.461826,-40.26,-32.52,-14.16
