TimeStamp,Ax,Ay,Az,Gx,Gy,Gz,Mx,My,Mz
1554106674214,-1.0726023999999998,-8.69155,4.4382515,0.36112466,0.023435817999999997,-0.17470337,-17.64,7.92,-43.74
1554106674234,-1.1731589,-8.667608,4.5962687,0.41758367,0.04580637,-0.16192019,-17.64,7.92,-43.74
1554106674256,-1.1156979999999999,-8.523956,4.6202106,0.40586576,0.053263225,-0.16831179,-17.64,7.92,-43.74
1554106674275,-1.1109096,-8.428188,4.4765587,0.4133226,0.046871635999999994,-0.19281286,-17.7,7.74,-43.74
1554106674296,-1.2114661,-8.4664955,4.5435963,0.35473305,0.04474111,-0.15446335,-17.76,7.62,-43.74
1554106674315,-1.2018893,-8.308478,4.3760023,0.22690132,0.037284255,-0.10652645,-17.82,7.44,-43.8
1554106674335,-1.1731589,-8.4234,4.500500700000001,0.112918034,0.015978966,-0.08948222,-17.88,7.26,-43.8
1554106674354,-1.1204863999999999,-8.389880999999999,4.5675383,0.033023197000000004,0.0,-0.07030745599999999,-17.94,7.14,-43.86
1554106674374,-1.1444284,-8.447341999999999,4.270657,-0.037284255,0.004261058,-0.03834952,-18.0,6.96,-43.92
1554106674396,-1.1875241,-8.610147,4.4238862999999995,-0.08628642,0.0053263223,-0.027696876000000002,-18.0,6.78,-44.04
1554106674415,-1.0007763,-8.447341999999999,4.5675383,-0.03834952,0.011717908999999999,-0.04580637,-18.0,6.66,-44.16
1554106674434,-1.0007763,-8.279748,4.5435963,0.02876214,0.03834952,-0.05219796,-17.94,6.66,-44.28
1554106674456,-0.94810385,-8.27496,4.337695,0.041545313,0.07137272,-0.054328485999999995,-17.88,6.66,-44.34
1554106674475,-0.90021986,-8.471283999999999,4.8021703,0.08522116,0.09374327,-0.07882957,-17.82,6.66,-44.4
1554106674495,-0.8619126,-8.380303999999999,4.5675383,0.15552860000000002,0.13315806,-0.12676647,-17.76,6.6,-44.46
1554106674514,-0.92416185,-8.370728,4.466982,0.08522116,0.14807177,-0.12463594,-17.7,6.54,-44.52
1554106674535,-0.90021986,-8.15525,4.4382515,0.07882957,0.1470065,-0.17044231,-17.64,6.48,-44.52
1554106674555,-1.0247183000000002,-8.169615,4.6393642,0.10333065,0.17150758,-0.1949434,-17.64,6.36,-44.52
1554106674575,-0.866701,-8.002021000000001,4.8500543,0.14594123,0.165116,-0.21198763,-17.58,6.24,-44.46
1554106674595,-0.9864110999999999,-7.796119,4.4957123,0.14913702,0.15978967,-0.25246766,-17.46,6.18,-44.46
1554106674615,-1.1875241,-8.380303999999999,4.500500700000001,0.13954964,0.101200126,-0.28868666,-17.34,6.06,-44.46
1554106674635,-1.0103531,-8.820838,5.3049526,0.35260254,0.07137272,-0.27483824,-17.22,5.94,-44.46
1554106674655,-0.5650316,-8.078635,5.1038394,0.8181231,0.09374327,-0.27483824,-17.1,5.82,-44.46
1554106674675,-0.8571242,-7.5136037,5.036802,1.0279802,0.14274544,-0.29188246,-16.98,5.64,-44.46
1554106674694,-1.2737153,-7.958925,5.606621700000001,1.0982877,0.16192019,-0.2609898,-16.8,5.34,-44.52
1554106674715,-0.7661445,-8.222287,4.2993879999999995,0.87777793,0.024501082,-0.2695119,-16.68,4.92,-44.58
1554106674735,-0.6703765,-7.882310400000001,4.016872,0.33449304,-0.1438107,-0.38242993,-16.62,4.32,-44.64
1554106674754,-0.04309563,-7.958925,5.285799,0.26312032,-0.1768339,-0.44208476,-16.56,3.6,-44.64
1554106674775,-0.39743748,-7.283760000000001,5.2618566,0.47404268,-0.06391586,-0.36112466,-16.56,2.88,-44.7
1554106674795,-0.12449849,-7.6045833,5.0846860000000005,0.41119209999999995,-0.07030745599999999,-0.31318775,-16.56,2.16,-44.76
1554106674815,-0.34476504,-8.203134,5.2810106,0.09161274,-0.09374327,-0.2908172,-16.56,1.44,-44.82
1554106674836,-0.38307226,-8.380303999999999,5.218761,-0.00958738,-0.06924219,-0.22903186,-16.62,0.66,-44.88
1554106674854,-0.47405192,-7.839214999999999,5.3815669999999995,-0.07137272,-0.06391586,-0.22796659,-16.68,-0.12,-45.06
1554106674874,-0.4261679,-8.145673,5.4007206,-0.06178534,-0.05539375,-0.2066613,-16.68,-0.66,-45.18
1554106674895,-0.39264908,-8.5383215,5.869984,0.1107875,-0.049002163,-0.18002969,-16.74,-0.96,-45.36
1554106674915,-0.34476504,-8.351574000000001,6.013636,0.4165184,0.011717908999999999,-0.18322548,-16.8,-1.2,-45.42
1554106674934,-0.40701428,-7.9301944,6.84203,0.5571333,0.07989483,-0.21518342,-16.86,-1.44,-45.48
1554106674954,0.20590134,-7.848791599999999,7.5985975,0.69135666,0.07989483,-0.30040458,-16.92,-1.62,-45.54
1554106674975,0.24899697,-7.925406,7.617750999999999,0.89162636,0.21092236,-0.19920446,-16.92,-1.8,-45.66
1554106674994,0.12928689,-7.5471225,6.7223196,0.94595486,0.30786142,-0.07989483,-16.98,-1.98,-45.78
1554106675014,-0.38307226,-6.3643866,5.6018333,0.6562029,0.31638354,-0.17896444,-16.98,-2.1,-45.78
1554106675035,-0.866701,-6.330868,5.482123400000001,0.022370555,0.23542345,-0.10439592,-16.98,-2.46,-45.84
1554106675054,-0.29688102,-6.7666125,5.462969999999999,-0.37071204,0.07776430000000001,-0.06711166,-17.04,-3.3,-45.96
1554106675074,-0.05746084,-6.8528037,5.903503,-0.32810146,0.07456851,-0.051132694000000006,-17.04,-3.78,-46.08
1554106675096,-0.16759412,-7.1113777,6.291363700000001,-0.21944448,0.11504856,-0.015978966,-17.04,-4.32,-46.14
1554106675115,-0.49799395,-7.4465656000000005,6.39192,-0.11611383,0.12463594,-0.083090626,-16.98,-4.56,-46.2
1554106675134,-0.6991069000000001,-7.1688385,6.1094040000000005,-0.2727077,0.02130529,-0.19281286,-16.92,-5.04,-46.2
1554106675154,-0.45489833,-7.116166000000001,5.266645,-0.50387007,-0.11611383,-0.2609898,-16.8,-5.4,-46.2
1554106675176,-0.38307226,-7.1448965,4.9984946,-0.7574029999999999,-0.16192019,-0.18429075,-16.68,-5.58,-46.14
1554106675194,-0.49799395,-7.2885485,4.706402,-0.97045594,-0.20559604,-0.112918034,-16.56,-5.28,-46.08
1554106675214,-0.4261679,-7.475296000000001,4.869208,-1.0823087,-0.24501082,-0.1107875,-16.44,-4.74,-46.02
1554106675235,0.07182605,-8.404246,5.175665400000001,-1.1419635000000001,-0.22583607,-0.04261058,-16.32,-4.2,-45.9
1554106675256,0.05746084,-8.921394,5.137358,-1.0759171,-0.080960095,-0.012783173500000002,-16.26,-3.6,-45.84
1554106675274,-0.17717093,-8.739435,4.8021703,-0.8863,0.011717908999999999,-0.054328485999999995,-16.14,-2.88,-45.78
1554106675294,-0.1436521,-8.643666,4.3185415,-0.86606,0.01917476,-0.039414786,-16.14,-2.04,-45.66
1554106675315,0.10534488,-8.049905,4.2658687,-0.8926915999999999,0.112918034,-0.047936900000000005,-16.14,-1.02,-45.54
1554106675335,-0.31124622,-8.069058,4.6154222,-1.0407634,0.17044231,-0.09587380000000001,-16.14,0.12,-45.42
1554106675354,-0.31603462,-8.322844,4.4526167,-1.200553,0.17576863,-0.16937704,-16.14,1.14,-45.24
1554106675374,-0.18195933,-8.380303999999999,4.4143095,-1.2804478000000001,0.18748654,-0.19813919,-16.14,2.34,-45.12
1554106675395,-0.29688102,-8.710705,4.040814,-1.3432984,0.221575,-0.20133498,-16.14,3.6,-44.88
1554106675415,-0.6464345,-8.883087,3.4183214,-1.3337111000000001,0.20879184,-0.20879184,-16.14,4.98,-44.64
1554106675435,-0.5506664000000001,-9.428965,3.2363622000000003,-1.2367721,0.16192019,-0.2034655,-16.14,6.42,-44.4
1554106675454,-0.4213795,-9.917382,3.6433763999999997,-0.98856544,0.10333065,-0.21411815,-16.08,7.74,-44.16
1554106675475,-0.12449849,-9.874286999999999,3.5954924,-0.60507023,0.07669904,-0.23009712,-16.08,9.0,-43.8
1554106675496,-0.110133275,-10.037092,3.3273417999999997,-0.13635385,0.08948222,-0.24714136,-15.96,10.26,-43.44
1554106675515,-0.10534488,-9.563039999999999,3.0831332000000002,0.314253,0.112918034,-0.26525086,-15.84,11.4,-43.14
1554106675534,-0.10534488,-9.524733,2.9873652,0.5496765,0.10546118,-0.23542345,-15.72,12.3,-42.78
1554106675554,-0.019153614,-9.0794115,2.9586349,0.53795856,0.07137272,-0.18748654,-15.54,13.02,-42.6
1554106675575,-0.15801731,-8.729858,2.9921536,0.31638354,0.033023197000000004,-0.12144015,-15.42,13.62,-42.36
1554106675595,-0.20111294,-9.208698,3.4231097999999998,-0.05219796,-0.010652645,-0.020240024,-15.24,14.04,-42.12
1554106675615,0.12449849,-9.314043,3.3273417999999997,-0.30360037,-0.051132694000000006,-0.002130529,-15.12,14.34,-42.0
1554106675636,-0.12449849,-9.141661000000001,3.0879216,-0.44421527,-0.01917476,-0.00958738,-14.94,14.34,-41.94
1554106675654,0.038307227,-9.601347,3.1070752,-0.50813115,-0.04261058,0.049002163,-14.88,14.28,-41.94
1554106675675,0.33997664,-10.219051,3.54282,-0.30040458,-0.05006743,0.00958738,-14.76,14.16,-42.0
1554106675695,0.33997664,-9.409811,2.8868085999999997,0.2972088,0.049002163,-0.049002163,-14.76,14.1,-41.94
1554106675715,-0.320823,-8.4234,2.7287915000000003,0.47404268,0.10226539,-0.015978966,-14.76,14.16,-41.94
1554106675735,-0.320823,-7.872733599999999,2.570774,0.165116,-0.007456851,-0.029827405,-14.7,14.22,-41.94
1554106675755,-0.37349546,-7.997232400000001,2.202067,-0.37923414,-0.14807177,-0.036218993,-14.7,14.22,-41.94
1554106675775,-0.51714754,-8.983644,2.4079683,-0.8841694999999999,-0.25566345,0.00958738,-14.7,14.34,-41.94
1554106675794,0.24420857,-9.467272,3.5859156000000003,-0.8745821,-0.25885928,-0.083090626,-14.7,14.52,-41.88
1554106675815,0.4309563,-9.270947,4.0934862999999995,-0.50387007,-0.111852765,-0.21518342,-14.76,14.7,-41.88
1554106675834,0.4165911,-9.888652,4.0025067000000005,-0.10013486,-0.0010652645,-0.21624869,-14.82,14.88,-41.88
1554106675855,0.36870706,-9.701903999999999,2.6426,0.18216023,0.05539375,-0.20453078,-15.06,15.24,-41.82
1554106675875,0.0,-9.529521,2.331354,0.18855181,0.06604639400000001,-0.17896444,-15.12,15.3,-41.82
1554106675896,0.023942016,-9.050680999999999,1.7950528000000001,-0.14168017,-0.022370555,-0.03195793,-15.3,15.6,-41.76
1554106675916,0.038307227,-8.926183,2.0201077,-0.4889564,-0.047936900000000005,0.039414786,-15.36,15.84,-41.76
1554106675935,0.18195933,-9.285313,2.3409307,-0.7052050999999999,-0.060720075,0.09161274,-15.48,16.08,-41.7
1554106675954,0.33039984,-9.213486999999999,2.1829132999999996,-0.6785734,-0.029827405,0.094808534,-15.6,16.32,-41.64
1554106675974,0.39264908,-8.954913000000001,2.168548,-0.64555025,0.004261058,0.07243799,-15.66,16.62,-41.64
1554106675995,0.10055647,-9.036316000000001,1.7088615000000003,-0.69029135,0.02130529,0.09587380000000001,-15.66,17.04,-41.58
1554106676015,0.019153614,-9.218275,1.4885948999999998,-0.81066626,0.004261058,0.12463594,-15.66,17.52,-41.4
1554106676035,0.47884035,-9.44333,1.1629834,-0.92464954,-0.03834952,0.10333065,-15.66,18.0,-41.22
1554106676055,0.20111294,-10.137649,1.6083049999999999,-0.91186637,0.0,0.022370555,-15.66,18.66,-40.92
1554106676075,-0.26336220000000005,-10.506355000000001,1.857302,-0.6924219,0.034088463,-0.0031957934000000003,-15.66,19.08,-40.74
1554106676094,-0.07182605,-10.621277000000001,2.1924900000000003,-0.07563378,0.11611383,0.16085494,-15.72,20.28,-40.14
1554106676115,-0.34955344,-10.894217,2.690484,0.57417756,0.2034655,0.13848437,-15.72,21.12,-39.72
1554106676135,-0.60333884,-10.195109,2.7240029999999997,1.2687298999999999,0.28442562,0.08948222,-15.66,21.78,-39.36
1554106676155,-0.6607997,-9.548675,2.2930467,1.4998924,0.31212249999999997,0.15233281,-15.54,22.26,-39.0
1554106676175,-0.7661445,-9.639654,2.6330232999999996,1.3166668,0.26738137,0.13102753,-15.48,22.5,-38.76
1554106676195,-0.80924016,-9.563039999999999,2.6665419999999997,1.3273195,0.23968449999999997,0.09267801,-15.3,22.32,-38.58
1554106676215,-0.9672575000000001,-9.44333,2.5995044999999997,1.3869743,0.21411815,0.15339808,-15.12,21.84,-38.7
1554106676234,-1.0007763,-9.543886,3.0879216,1.1504856,0.14487597,0.21518342,-14.88,21.06,-39.0
1554106676254,-1.0103531,-8.523956,2.9538465,0.62317973,0.039414786,0.16085494,-14.64,20.04,-39.48
1554106676275,-1.1348516000000002,-8.667608,3.1884782000000005,0.13741912,-0.00958738,0.27803403,-14.46,19.02,-40.02
1554106676294,-1.0869676000000001,-9.270947,2.6809072,0.068176925,-0.09587380000000001,0.32170987,-14.28,17.94,-40.56
1554106676314,-0.5746084,-9.247005,3.1118636000000004,0.058589544,-0.020240024,0.45699844,-14.16,16.92,-41.1
1554106676334,-0.545878,-9.86471,2.6521769,-0.18855181,-0.020240024,0.65726817,-14.04,16.02,-41.58
1554106676354,-1.1109096,-9.050680999999999,3.1070752,-0.29294774,0.033023197000000004,0.57311225,-13.92,15.36,-42.06
1554106676374,-1.4221559,-8.581417,1.7758990000000001,-0.4261058,-0.060720075,0.5219796,-13.86,14.88,-42.42
1554106676395,-1.2737153,-8.705916,1.3545196000000002,-0.8277104999999999,-0.101200126,0.6892261,-13.8,14.52,-42.6
1554106676415,-1.5610195,-9.242217,2.0201077,-1.3390374,-0.16192019,0.68389976,-13.8,14.34,-42.66
1554106676434,-1.7573439999999998,-9.807249,2.5755625,-1.433846,-0.26525086,0.5390238,-13.68,14.22,-42.48
1554106676454,-1.0199299000000002,-9.280524,2.297835,-1.2431636000000001,-0.28336033,0.58483016,-13.62,14.34,-42.24
1554106676475,-0.79487497,-8.049905,1.2204443,-1.4029533,-0.25566345,0.6178534000000001,-13.5,14.82,-41.94
1554106676495,-1.0007763,-7.7578119999999995,1.6849195,-1.9536950000000002,-0.27590349999999997,0.52837116,-13.38,15.48,-41.52
1554106676515,-0.8810662,-8.768166,1.7854759999999998,-2.23599,-0.2908172,0.46019423,-13.2,16.26,-41.1
1554106676535,-0.8571242,-9.577405,1.6705543,-2.2498386000000004,-0.2695119,0.42930159999999995,-13.14,17.34,-40.62
1554106676555,-1.1683705,-9.850344999999999,0.09516951400000001,-1.8908445,-0.29294774,0.1587244,-12.96,19.38,-39.84
1554106676574,-1.3694833999999998,-10.266935,-0.0676362,-1.4093448999999998,-0.3057309,0.05965481,-12.96,20.22,-39.54
1554106676595,-1.4030021000000001,-10.903792999999999,0.15263036,-0.44421527,-0.28016454,0.02130529,-13.02,21.9,-38.94
1554106676614,-1.1540052,-10.25257,0.56443304,0.51026165,-0.23755397,-0.054328485999999995,-13.02,23.46,-38.16
1554106676634,-1.1348516000000002,-9.20391,1.1198878,1.3496901000000001,-0.15446335,-0.21624869,-13.14,25.26,-37.26
1554106676654,-1.2210428999999998,-9.036316000000001,0.8996213,1.4977618000000001,-0.128897,-0.28229508,-13.2,25.86,-36.96
1554106676675,-1.2497733,-7.590217999999999,0.48303019999999997,1.2037488,-0.10013486,-0.29188246,-13.32,27.12,-36.18
1554106676694,-1.5993267,-8.212710000000001,0.84216046,0.09161274,-0.10013486,-0.24501082,-13.5,27.36,-35.82
1554106676714,-1.4652513999999999,-9.189544999999999,1.2491747,-0.8873653,-0.17150758,-0.2545982,-13.74,26.94,-35.52
1554106676734,-1.316811,-10.247782,1.6178818000000001,-1.2751216,-0.15339808,-0.21518342,-13.92,26.16,-35.34
1554106676754,-1.2689268999999999,-10.075399,1.4981716999999999,-1.1515508999999997,-0.09161274,-0.22583607,-14.22,25.38,-35.4
1554106676774,-1.1348516000000002,-9.788095,0.65062433,-0.74461985,-0.04580637,-0.2609898,-14.7,24.6,-35.46
1554106676794,-1.3790601,-10.017939,0.44951138,-0.49747851,-0.013848438000000001,-0.17470337,-15.06,23.94,-35.52
1554106676814,-1.316811,-9.548675,0.15263036,-0.30360037,0.0,-0.15446335,-15.48,23.7,-35.64
1554106676835,-1.532289,-9.778519000000001,0.15263036,-0.26738137,-0.002130529,-0.16724652,-15.72,23.76,-35.7
1554106676854,-1.13964,-9.979631,-0.22086509999999998,-0.3057309,-0.060720075,-0.13422333,-15.78,24.24,-35.7
1554106676874,-0.90500826,-10.017939,-0.09636662,-0.4857606,-0.082025364,-0.12037488,-15.84,25.14,-35.7
1554106676895,-0.9864110999999999,-9.68275,-0.15861586,-0.6348976,-0.080960095,-0.19174760000000002,-15.78,26.28,-35.64
1554106676915,-1.1492168,-9.1272955,-0.7044938000000001,-0.51026165,-0.10226539,-0.22050974,-15.6,27.3,-35.58
1554106676935,-1.2449848999999997,-8.907029,-0.7763199000000001,-0.4165184,-0.12676647,-0.1107875,-15.3,28.44,-35.46
1554106676955,-1.1444284,-9.955689,-0.9295488000000001,-0.3653857,-0.19174760000000002,-0.07350325,-15.06,29.46,-35.22
1554106676974,-0.94810385,-9.797672,-1.0827777,-0.5049353,-0.24501082,-0.27803403,-14.82,30.18,-34.98
1554106676997,-1.2401965,-9.227852,-1.1019313,-0.56672066,-0.22583607,-0.49108690000000005,-14.7,30.66,-34.68
1554106677014,-1.6472107,-9.266159,-1.1737574,-0.6295713000000001,-0.21731395,-0.56885123,-14.82,31.2,-34.38
1554106677035,-1.3742718,-9.816825999999999,-0.7284359,-0.4314321,-0.23329292,-0.5954828000000001,-15.06,31.62,-34.08
1554106677054,-1.1587936,-10.10413,-0.21607670000000004,-0.14487597,-0.10439592,-0.5454154,-15.3,31.98,-33.78
1554106677074,-1.3120226000000001,-10.310031,-0.15382746,-0.07563378,0.07563378,-0.5209143,-15.54,32.4,-33.48
1554106677095,-1.6519991000000003,-10.793660000000001,-0.374094,-0.058589544,0.2034655,-0.4250405,-15.84,32.76,-33.24
1554106677114,-1.6089035,-10.870275,-0.12988544,0.05006743,0.26205507,-0.36218992,-16.02,33.06,-33.06
1554106677135,-1.4604629999999998,-9.424176,-0.26396075,0.35579833,0.31851408,-0.30786142,-16.2,33.42,-32.94
1554106677157,-1.5466543,-9.055469500000001,-1.0971429,0.13848437,0.3749731,-0.17896444,-16.38,33.66,-32.76
1554106677175,-1.5035586,-10.271724,-0.7667431,-0.3270362,0.34834146,-0.09267801,-16.5,33.9,-32.64
1554106677194,-1.4652513999999999,-10.740988,-0.6183026,-0.35153726,0.28549087,-0.039414786,-16.44,34.08,-32.52
1554106677216,-1.3934253,-11.526285000000001,-0.88645315,0.1438107,0.25033715,0.035153727999999995,-16.44,34.2,-32.4
1554106677234,-1.1300632,-10.669162,-0.8242039000000001,0.57098174,0.21624869,0.07776430000000001,-16.38,34.38,-32.34
1554106677255,-1.0007763,-10.128072,-0.5129577000000001,0.7041398,0.13528858,0.07243799,-16.38,34.56,-32.22
1554106677275,-0.6703765,-10.238205,-0.5033809,0.97258645,0.041545313,0.011717908999999999,-16.38,34.62,-32.16
1554106677295,-0.61770403,-9.869498,-0.6374562,1.0535465,-0.0053263223,0.026631612000000002,-16.38,34.62,-32.16
1554106677315,-0.31603462,-9.036316000000001,0.34895490000000007,0.77231675,-0.04261058,0.09587380000000001,-16.38,34.44,-32.16
1554106677335,-0.17717093,-10.58297,1.4885948999999998,0.6743124,-0.083090626,0.22264028,-16.32,34.08,-32.16
1554106677355,-0.10534488,-10.530297000000001,1.2970588,1.1781825000000001,-0.054328485999999995,0.16724652,-16.26,33.66,-32.22
1554106677375,-0.33997664,-9.68275,0.65541273,1.3166668,-0.02876214,0.23861924,-16.14,33.24,-32.28
1554106677395,-0.39743748,-10.161591,0.83737206,1.1824435,-0.049002163,0.23116238,-16.02,32.64,-32.52
1554106677415,-0.4405331,-10.357915,0.6745663000000001,1.2538162,-0.034088463,0.22477080000000002,-15.9,31.92,-32.94
1554106677436,-0.49799395,-9.879075,1.407192,1.3901701000000002,0.05965481,0.19174760000000002,-15.78,30.9,-33.54
1554106677455,-0.79966336,-9.0842,1.4502877,1.4359765,0.084155895,0.128897,-15.66,29.7,-34.08
1554106677475,-1.0821792,-9.548675,1.6561891,1.3805827,0.07030745599999999,0.2428803,-15.54,28.56,-34.74
1554106677495,-1.2306197,-9.223063,1.3162124,1.4125406999999999,0.08522116,0.221575,-15.42,27.54,-35.46
1554106677514,-1.3215994,-9.213486999999999,1.7280151000000001,1.1451592,0.12463594,0.25885928,-15.3,26.52,-36.36
1554106677534,-1.5275006000000002,-8.739435,2.6042929,0.9960223,0.1768339,0.16831179,-15.18,25.5,-37.26
1554106677555,-1.3838485,-8.782531,2.2691047,0.8969527,0.13848437,0.23116238,-15.0,24.54,-38.04
1554106677575,-1.316811,-9.0842,2.2403743,0.68816084,0.17363810000000002,0.29933932,-14.82,23.46,-38.64
1554106677595,-1.6711528000000002,-8.969278,2.4797945,0.5230448000000001,0.15765914,0.22796659,-14.7,22.44,-39.06
1554106677615,-1.5466543,-9.213486999999999,2.8628666000000003,0.5518069999999999,0.12676647,0.17789917,-14.4,21.12,-39.66
1554106677634,-1.412579,-8.940548,2.3840263,0.6625945,0.05006743,0.113983296,-14.22,20.22,-40.02
1554106677655,-1.5370774999999999,-8.567052,2.8341362,0.69774824,0.036218993,0.10013486,-14.1,19.26,-40.26
1554106677675,-1.6567876,-8.083424,3.2172085999999998,0.58269966,-0.012783173500000002,0.07563378,-14.04,18.3,-40.38
1554106677695,-1.5083469999999999,-7.5471225,3.3991678,0.33449304,-0.027696876000000002,0.04580637,-13.92,17.4,-40.5
1554106677715,-1.3934253,-7.484873299999999,3.317765,-0.29294774,-0.05965481,0.039414786,-13.92,16.56,-40.68
1554106677735,-1.4030021000000001,-8.270171000000001,3.7199910000000003,-0.80747044,-0.018109497,0.04580637,-13.86,15.96,-40.8
1554106677755,-1.4508862,-8.629301,3.7822402000000004,-0.84155893,-0.013848438000000001,-0.036218993,-13.86,15.54,-40.98
1554106677775,-1.2449848999999997,-8.873510000000001,3.6433763999999997,-0.67218184,-0.0010652645,0.013848438000000001,-13.8,15.18,-41.16
1554106677795,-1.4221559,-9.0794115,2.9538465,-0.4261058,0.014913702,-0.018109497,-13.74,15.0,-41.34
1554106677815,-1.6041151000000002,-9.874286999999999,3.2555158,-0.36005938,0.040480047000000005,-0.002130529,-13.68,15.0,-41.46
1554106677835,-1.2593501,-9.850344999999999,2.949058,-0.11611383,-0.04474111,-0.12676647,-13.62,15.24,-41.46
1554106677855,-1.4030021000000001,-9.041103999999999,2.4797945,0.13848437,-0.0031957934000000003,-0.15339808,-13.56,15.48,-41.4
1554106677874,-1.5801731,-9.156025999999999,2.8341362,0.22264028,-0.046871635999999994,-0.15765914,-13.5,15.84,-41.34
1554106677894,-1.1109096,-8.849568,2.4702177000000005,0.30999196,-0.10546118,-0.10226539,-13.5,16.2,-41.28
1554106677914,-1.2497733,-8.308478,2.0967221,-0.22370553,-0.07882957,-0.13528858,-13.44,16.56,-41.22
1554106677934,-1.2976573999999998,-7.681197599999999,2.1254525,-1.0226538,-0.101200126,-0.23009712,-13.38,16.86,-41.16
1554106677954,-0.94331545,-9.012374000000001,2.441487,-1.7065537,-0.13954964,-0.20559604,-13.44,17.16,-41.1
1554106677975,-1.043872,-9.797672,2.6090812999999997,-1.7150756999999999,-0.040480047000000005,-0.27590349999999997,-13.5,17.28,-41.04
1554106677995,-1.1923125,-10.166379,2.6473885,-1.4817829,0.018109497,-0.3174488,-13.56,17.4,-41.04
1554106678015,-1.292869,-10.391434,2.6665419999999997,-1.0599382,0.08735169,-0.38136467,-13.68,17.82,-40.98
1554106678035,-1.532289,-9.835979,2.570774,-0.50813115,0.18748654,-0.3685815,-13.8,18.48,-40.68
1554106678055,-1.7238252,-9.620500999999999,1.8381484000000001,0.033023197000000004,0.20559604,-0.3153183,-13.92,19.32,-40.38
1554106678075,-1.7286136000000003,-10.391434,0.5021838,0.50387007,0.20985709,-0.27696875,-13.98,20.22,-40.02
1554106678094,-1.8674773,-10.506355000000001,0.88046765,0.78723043,0.257794,-0.1438107,-14.04,21.12,-39.66
1554106678114,-1.7525556,-11.416152,2.5372553,0.95660746,0.17363810000000002,-0.13741912,-14.04,21.96,-39.24
1554106678135,-1.6136919,-11.15279,3.341707,1.7896442,0.26418558,-0.21731395,-14.1,22.68,-38.88
1554106678154,-1.6759412,-10.137649,3.2794578000000003,2.5459821,0.34834146,-0.15765914,-14.04,23.1,-38.52
1554106678175,-1.6663644,-9.759364999999999,3.4422636,2.824016,0.39521313,-0.04580637,-13.92,22.86,-38.28
1554106678196,-1.6759412,-9.208698,3.5811272000000005,2.9795446,0.36751625,-0.023435817999999997,-13.86,21.9,-38.4
1554106678214,-1.5849615,-8.854357,4.055179,3.1382692000000003,0.38456047,0.16192019,-13.74,20.52,-38.76
1554106678234,-2.0015526,-8.648455,4.160524,3.3182987999999995,0.36112466,0.26525086,-13.56,18.72,-39.36
1554106678254,-2.0973208,-8.016386,3.9594111000000005,3.3012544999999998,0.32277513,0.44528055,-13.44,16.5,-40.08
1554106678275,-2.2026656000000004,-6.642114,3.6721067,2.5608957,0.21092236,0.53476274,-13.14,12.48,-41.4
1554106678294,-2.5378537,-6.0531406,4.759074,2.0431771,0.07350325,0.5113269,-13.08,10.98,-41.88
1554106678316,-2.1643584,-6.7426705,6.4398040000000005,1.5350461000000002,-0.046871635999999994,0.7595335999999999,-12.84,6.48,-43.26
1554106678335,-1.436521,-7.1927805,5.9226565,1.4476944,-0.08948222,0.8149273,-12.72,5.04,-43.74
1554106678354,-1.5897499,-6.8719573,6.3823433,1.0578076,-0.06711166,0.73290193,-12.54,2.28,-44.4
1554106678374,-1.8962077000000002,-6.215946,6.1237693,0.97471696,-0.16724652,0.6146576,-12.48,-0.36,-45.0
1554106678395,-1.2258313,-4.291008000000001,6.4206505,0.7456851,-0.16831179,0.66365975,-12.36,-2.82,-45.3
1554106678415,-1.2976573999999998,-5.679645,6.3009405,-0.33555830000000003,-0.25885928,0.67218184,-12.42,-5.82,-45.54
1554106678434,-1.091756,-6.1249666,6.6600703999999995,-0.5028047999999999,-0.34408042,0.50813115,-12.48,-6.66,-45.54
1554106678454,-0.93373865,-6.187216,6.774992500000001,-0.23861924,-0.3323625,0.294013,-12.6,-7.98,-45.54
1554106678475,-0.78050977,-6.072294,7.225102000000001,0.033023197000000004,-0.26631612,0.10226539,-12.84,-9.0,-45.54
1554106678494,-0.50278234,-5.559935,7.378331,0.06391586,-0.17044231,-0.084155895,-13.08,-9.66,-45.54
1554106678514,-0.92416185,-5.6221843,6.535572,-0.30466563,-0.041545313,-0.21518342,-13.38,-10.32,-45.6
1554106678535,-1.1300632,-5.842450599999999,6.5403605,-0.79042625,0.011717908999999999,-0.3685815,-13.56,-10.56,-45.66
1554106678555,-1.6328455,-6.7043633,6.569091,-0.96619487,0.10013486,-0.4250405,-13.74,-10.62,-45.72
1554106678575,-1.7812861,-6.6612678,7.512406299999999,-0.7957525,0.29933932,-0.39734364,-13.86,-10.56,-45.78
1554106678595,-2.0350714,-7.101800999999999,7.967304700000001,-0.7488809000000001,0.39521313,-0.38136467,-13.98,-10.2,-45.84
1554106678615,-2.3127987,-8.112153999999999,7.699153999999999,-0.6263755,0.52837116,-0.31318775,-13.98,-9.72,-45.9
1554106678635,-3.122039,-8.06427,7.105392,-0.6711166000000001,0.69348717,-0.1768339,-13.98,-9.24,-45.9
1554106678655,-3.7301662,-7.968502,6.3727665,-1.0769824,0.80747044,0.049002163,-13.92,-8.7,-45.96
1554106678674,-4.185065,-8.145673,5.7119665,-1.8450380000000002,0.8266452,0.36645097,-13.92,-7.92,-45.96
1554106678695,-4.548983,-8.461707,4.735132,-2.731338,0.8543421,0.7456851,-13.8,-7.08,-45.9
1554106678715,-5.032612,-9.050680999999999,3.9546227,-3.6357477,0.84688526,1.1664646,-13.56,-5.7,-45.78
1554106678735,-5.272032299999999,-10.037092,2.9634232999999996,-4.326039,0.7520766999999999,1.5819178,-13.14,-3.9,-45.54
1554106678755,-5.272032299999999,-11.871051,2.5468319999999998,-4.555071,0.6135923000000001,1.9963056000000001,-12.78,-1.86,-45.12
1554106678774,-5.056554,-13.518260999999999,2.7766755,-4.023504,0.43782368,2.3020365000000003,-12.36,0.72,-44.46
1554106678796,-4.596867,-13.379397,2.7383683,-2.7153592,0.25992453,2.5076325,-11.88,3.84,-43.68
1554106678815,-4.596867,-11.473613,1.8477252,-0.99282646,0.14061491,2.7835360000000002,-11.34,6.96,-42.72
1554106678835,-4.5633483,-10.46326,1.8046296000000002,-0.18002969,0.08841695,2.8506477,-10.44,10.02,-41.7
1554106678855,-4.4580035,-9.337985,1.4215573000000001,0.58483016,-0.012783173500000002,2.8218856,-9.54,12.9,-40.74
1554106678875,-4.4149080000000005,-7.4896617,1.5508442,1.2037488,-0.09587380000000001,2.7409256,-8.76,15.24,-39.84
1554106678896,-4.7644614999999995,-6.091448000000001,1.6226702,1.5574166999999999,-0.12676647,2.5949842999999997,-8.04,17.04,-39.06
1554106678915,-5.0374002,-5.224746700000001,1.5364790000000002,1.6777915,-0.17789917,2.441586,-7.26,17.88,-38.46
1554106678935,-5.363012,-4.8799815,1.407192,1.6298546,-0.23116238,2.1731396000000003,-6.36,17.58,-38.22
1554106678954,-5.813122,-4.386776,1.7088615000000003,1.5478293,-0.26312032,1.8461033,-5.52,16.38,-38.16
1554106678974,-6.320692500000001,-3.4338839999999995,1.8716671000000003,1.4136058999999999,-0.330232,1.546764,-4.74,14.58,-38.46
1554106678994,-6.5026517,-2.710835,1.8333599999999999,1.2335763000000002,-0.40053943,1.3496901000000001,-4.38,12.54,-38.76
1554106679014,-6.8091097000000005,-2.4235306,2.5851393,0.88203895,-0.42077947,1.216532,-4.08,10.26,-39.18
1554106679035,-6.847417,-2.60549,2.9873652,0.5571333,-0.43036684,1.0237192,-3.84,7.86,-39.54
1554106679055,-6.8186865,-2.5576060000000003,3.1453824,0.28868666,-0.4048005,0.850081,-3.66,5.46,-39.96
1554106679075,-6.991069,-2.8449101000000003,2.9346926,0.0063915867,-0.35792887,0.71479243,-3.54,3.36,-40.26
1554106679096,-7.120356,-3.0891187,3.1549592,-0.20879184,-0.29507825,0.5305017,-3.54,1.62,-40.62
1554106679114,-6.919242999999999,-3.342904,3.4757824,-0.34194988,-0.23222765,0.39201729999999996,-3.6,0.18,-40.86
1554106679134,-6.9096660000000005,-3.5631707,3.8397010000000003,-0.43462790000000007,-0.113983296,0.33768883,-3.72,-0.84,-40.98
1554106679155,-7.2592196,-3.970185,3.566762,-0.5475459,0.0010652645,0.24820662,-3.9,-1.62,-41.04
1554106679175,-7.5082164,-4.31495,3.3704373999999997,-0.69029135,0.07882957,0.23009712,-4.14,-2.16,-41.22
1554106679194,-7.603985000000001,-4.3436804,3.3560722000000003,-0.6860303000000001,0.12783173,0.21837921,-4.44,-2.4,-41.34
1554106679214,-7.326257000000001,-4.415506400000001,3.1214404,-0.63383234,0.15020229,0.20133498,-4.68,-2.52,-41.46
1554106679236,-7.541735000000001,-4.587889,3.413533,-0.6242449999999999,0.16724652,0.15339808,-4.86,-2.58,-41.58
1554106679254,-7.943961,-4.741118,3.2698810000000003,-0.4825648,0.16831179,0.11717909,-5.04,-2.4,-41.7
1554106679275,-7.833828,-4.607043,3.1693244,-0.34301516,0.13848437,0.13422333,-5.22,-2.04,-41.82
1554106679294,-7.7572136,-4.5160627,3.0831332000000002,-0.24074976,0.09587380000000001,0.13741912,-5.34,-1.5,-41.94
1554106679314,-7.785944000000001,-4.1138372,3.3081882000000005,-0.16724652,0.07563378,0.10972224,-5.34,-1.02,-42.0
1554106679334,-7.9104424,-3.8361096,3.0639796,-0.16192019,0.07350325,0.098004326,-5.28,-0.42,-42.0
1554106679354,-8.293514,-3.7307648999999996,2.690484,-0.26844665,0.058589544,0.04474111,-5.22,0.06,-42.0
1554106679375,-8.020576,-3.6637269999999997,2.9011737999999996,-0.39308259999999995,0.018109497,-0.007456851,-5.1,0.84,-42.0
1554106679396,-7.6518690000000005,-3.8935703999999998,3.2267854,-0.48682585,0.02876214,-0.06924219,-5.04,1.32,-41.94
1554106679415,-7.656657000000001,-3.888782,3.0160956000000003,-0.56672066,0.06391586,-0.14913702,-4.98,1.8,-41.94
1554106679435,-7.675811,-4.0755300000000005,2.9394810000000002,-0.5954828000000001,0.10333065,-0.20026971,-4.92,2.1,-41.94
1554106679456,-7.441178999999999,-3.7163997,2.7383683,-0.6402239000000001,0.14487597,-0.26312032,-4.92,2.4,-41.88
1554106679474,-7.249642999999999,-3.4626143,2.8101943,-0.7254451,0.18429075,-0.35260254,-4.86,2.7,-41.82
1554106679495,-6.933608,-3.1992521000000003,2.6521769,-0.8223841999999999,0.24607609,-0.49215218,-4.86,3.18,-41.64
1554106679514,-6.5265937,-3.2615013,2.6521769,-0.8309063,0.31318775,-0.65194184,-4.86,3.78,-41.4
1554106679534,-5.674258,-3.4674027,2.4702177000000005,-0.76272935,0.37923414,-0.85966843,-4.86,4.5,-41.22
1554106679555,-4.8458643,-3.2231941,2.7335799,-0.737163,0.49215218,-1.164334,-4.8,5.22,-40.98
1554106679574,-4.2042184,-3.1130607000000006,2.5037365,-0.572047,0.660464,-1.6863136000000003,-4.74,6.12,-40.68
1554106679595,-3.6727053999999995,-3.4721910000000005,1.9147629000000002,-0.43462790000000007,0.8085357,-2.0080235,-4.62,7.14,-40.38
1554106679615,-3.2609026,-3.5248635000000004,1.6944963,-0.31212249999999997,0.9139969000000001,-2.320146,-4.5,8.28,-40.08
1554106679636,-2.7389667,-4.180875,0.789488,-0.11824436,1.0343717,-2.795254,-4.44,9.66,-39.72
1554106679655,-2.801216,-5.66528,0.3537433,-0.094808534,1.128115,-3.2724924,-4.32,10.98,-39.48
1554106679675,-3.4284968,-6.9437833,-0.21128829999999998,-0.165116,1.2112056999999998,-3.755057,-4.26,12.3,-39.18
1554106679694,-3.3997664,-7.053917,-0.12988544,-0.19600865,1.2197278,-4.1662493,-4.14,13.8,-38.76
1554106679714,-2.944868,-7.566275999999999,-0.3788824,0.10652645,1.2314457,-4.3569317000000005,-4.02,15.42,-38.22
1554106679735,-2.4372973,-8.193557,-0.7284359,0.05219796,1.1622036,-4.405933999999999,-4.02,16.98,-37.74
1554106679755,-1.9105729999999999,-9.194333,-0.23044191,-0.17044231,1.0301107,-4.405933999999999,-4.02,18.48,-37.2
1554106679775,-1.7717092,-10.017939,-1.1306617,-0.09054748,0.8852348,-4.402737999999999,-4.08,19.98,-36.72
1554106679795,-1.5275006000000002,-12.4073515,-1.9829974999999997,0.026631612000000002,0.6785734,-4.2195125,-4.5,21.3,-36.3
1554106679814,-1.0773908,-11.756129,-1.6047136999999998,-0.05965481,0.4101268,-4.0298953,-4.98,22.74,-35.94
1554106679834,-0.5506664000000001,-10.348338,-1.1306617,-0.2609898,0.1587244,-3.92763,-5.58,24.12,-35.58
1554106679855,0.6560113000000001,-10.286089,-0.36930559999999996,-0.5028047999999999,-0.049002163,-3.6836846,-6.3,25.44,-35.34
1554106679875,1.8148049,-12.167932,-1.6861166,-0.83729786,-0.165116,-3.3417345999999997,-7.14,26.7,-35.16
1554106679895,2.1883004,-12.689867999999999,-2.0644004000000002,-1.5648735,-0.294013,-2.9625003,-8.16,27.96,-35.04
1554106679915,1.9153613999999999,-13.015479,-2.2080526000000003,-2.07407,-0.34088463,-2.6397252,-9.42,29.22,-34.86
1554106679935,2.5617957000000002,-13.211803,-2.03567,-2.1422467,-0.41119209999999995,-2.320146,-10.92,30.36,-34.62
1554106679955,3.1986535,-13.293206,-2.2559366,-1.635181,-0.42184472,-2.0762005,-12.24,31.56,-34.26
1554106679976,3.4093432,-12.766482,-3.5296519,-1.1110708999999999,-0.4079963,-1.8844528000000003,-13.56,32.7,-33.72
1554106679995,3.6679169999999996,-12.412139999999999,-3.2758665000000002,-0.9757822,-0.4825648,-1.5808525,-14.94,33.9,-33.12
1554106680019,3.7876269999999996,-12.043433,-2.6581624,-0.77444726,-0.5400891,-1.3315805,-16.74,35.58,-31.8
1554106680035,4.189853,-11.722610000000001,-2.3277626000000002,-0.56459016,-0.5763081,-1.1749867,-17.28,36.0,-31.32
1554106680054,4.3813889999999995,-10.932524,-2.806603,-0.28016454,-0.62317973,-0.8564726,-18.96,37.14,-30.0
1554106680074,3.9408559999999997,-10.305242999999999,-2.8353333,-0.35579833,-0.6348976,-0.588026,-19.98,37.74,-29.22
1554106680095,4.0892963,-9.941324,-2.8018146,-0.5432849000000001,-0.6327670999999999,-0.36645097,-20.88,38.04,-28.5
1554106680114,4.237737,-9.812037,-2.7539306,-0.8266452,-0.5944176,-0.13102753,-21.72,38.04,-27.9
1554106680134,3.9791632000000003,-9.448118,-3.0747535,-1.2516857,-0.5422196,0.03834952,-22.56,37.8,-27.36
1554106680155,3.8833952000000003,-9.634866,-3.0125043,-1.6458336,-0.49641323,0.1587244,-23.4,37.5,-26.88
1554106680174,3.5482068,-9.496002,-2.9694088,-1.7417074000000001,-0.41225734,0.20453078,-24.24,37.26,-26.58
1554106680194,3.8690300000000004,-9.610924,-2.3995886000000004,-1.7097494999999998,-0.33555830000000003,0.25246766,-24.96,37.08,-26.1
1554106680214,4.012682,-9.6923275,-1.9303252,-1.2037488,-0.20133498,0.21092236,-25.44,37.14,-25.38
1554106680235,4.285621,-8.954913000000001,-2.2990322,-0.38242993,-0.10546118,0.17257284,-25.8,37.44,-24.48
1554106680254,4.8745947,-9.309255,-2.8161798,0.25140239999999997,-0.06604639400000001,0.08841695,-26.04,38.04,-23.58
1554106680274,4.0318356,-8.643666,-2.7778726000000002,0.8426242,-0.014913702,-0.06285059999999999,-26.1,38.94,-22.68
1554106680294,3.8690300000000004,-7.5519110000000005,-3.7499184999999997,1.2069446000000001,-0.026631612000000002,-0.10333065,-26.1,39.9,-21.84
1554106680314,3.7684733999999995,-7.365163000000001,-3.5104983,0.89162636,-0.10652645,-0.18535602,-26.1,40.74,-21.18
1554106680335,3.6056678,-7.3843164,-3.4913447,0.5432849000000001,-0.18642128,-0.2695119,-26.04,41.4,-20.58
1554106680354,3.8163576,-7.7003509999999995,-3.208829,0.20133498,-0.22796659,-0.26205507,-26.04,41.94,-20.4
1554106680375,3.7636849999999997,-7.7578119999999995,-2.6102784,-0.24820662,-0.19068234,-0.2908172,-25.98,42.18,-20.52
1554106680395,3.8115692,-8.069058,-3.0843303,-0.42397526,-0.15233281,-0.25246766,-25.98,42.24,-20.82
1554106680415,3.6727053999999995,-8.480861,-3.9893386,-0.70200926,-0.12996227,-0.21518342,-25.98,42.06,-21.18
1554106680436,3.8067808,-8.863934,-4.0420110000000005,-1.0460896000000002,-0.12250541,-0.14274544,-25.92,41.76,-21.48
1554106680454,4.209007,-9.309255,-3.6924577000000003,-1.1973573,-0.12250541,-0.06178534,-25.92,41.58,-21.78
1554106680475,4.333505000000001,-9.529521,-3.0029275,-0.8809737,-0.082025364,-0.053263225,-25.98,41.58,-21.96
1554106680494,4.333505000000001,-8.792108,-3.5679589999999997,-0.16405073,-0.05006743,0.060720075,-26.04,41.64,-21.96
1554106680514,4.4580035,-8.677185,-3.6445735,0.1768339,-0.08841695,0.19281286,-26.1,41.82,-21.78
1554106680535,4.1180267,-8.365939,-2.9119477000000002,0.16937704,-0.07350325,0.22690132,-26.16,42.18,-21.48
1554106680555,4.1802763999999994,-7.6093717000000005,-2.5959132,0.14913702,-0.017044231,0.21837921,-26.22,42.48,-21.12
1554106680574,4.0462008,-7.0730705,-3.6685154000000004,-0.13315806,0.024501082,0.18002969,-26.28,42.84,-20.82
1554106680594,3.9839516,-8.049905,-3.7978023999999997,-0.5187838,-0.013848438000000001,0.12676647,-26.28,43.2,-20.46
1554106680615,3.265691,-8.418612,-4.994903,-0.5006742999999999,0.007456851,0.10439592,-26.28,43.44,-20.22
1554106680634,4.036624,-8.241441,-4.362833999999999,-0.32490566,0.043675844000000005,0.06924219,-26.28,43.5,-20.04
1554106680655,4.213794999999999,-7.6764092,-4.5926776,-0.18002969,0.07350325,-0.0063915867,-26.16,43.56,-19.86
1554106680675,4.0078936,-7.504027000000001,-4.817732299999999,-0.17576863,0.10652645,-0.06391586,-26.1,43.68,-19.74
1554106680695,4.1515455,-8.121731,-4.7698483,-0.23755397,0.13102753,-0.056459017,-26.04,43.8,-19.68
1554106680715,4.1706996,-7.4896617,-4.334103599999999,0.033023197000000004,0.15765914,-0.05752428,-25.98,43.98,-19.56
1554106680735,3.6822822,-6.431424,-3.9989154,0.3323625,0.21411815,-0.09267801,-25.92,44.1,-19.44
1554106680755,3.3087866000000004,-6.1153900000000005,-3.793014,0.45806372,0.30360037,-0.113983296,-25.92,44.22,-19.32
1554106680775,4.453215,-6.7905545,-3.141791,0.3270362,0.3898868,-0.13102753,-25.86,44.34,-19.2
1554106680794,4.0701427,-6.455366000000001,-3.6445735,0.2545982,0.54435015,-0.25033715,-25.86,44.46,-19.14
1554106680815,4.3526587,-6.6516910000000005,-4.3580456,-0.03834952,0.5816344,-0.35792887,-25.8,44.52,-19.14
1554106680834,4.5633483,-6.83365,-3.9270894999999997,-0.2066613,0.59761333,-0.49747851,-25.68,44.52,-19.2
1554106680855,4.7644614999999995,-6.891111,-3.6062663,-0.12570119999999999,0.6146576,-0.5954828000000001,-25.56,44.46,-19.26
1554106680875,4.7979803,-7.1879919999999995,-3.4961330000000004,0.00958738,0.6530071,-0.6412892,-25.5,44.4,-19.38
1554106680895,4.9320555,-7.3603745,-3.4721910000000005,0.21944448,0.6743124,-0.64341974,-25.38,44.34,-19.5
1554106680915,5.3103394999999995,-7.2023573,-4.123414,0.24607609,0.6562029,-0.6348976,-25.32,44.28,-19.56
1554106680934,5.209783,-7.1879919999999995,-4.664503599999999,0.025566347000000003,0.63383234,-0.6583334,-25.2,44.22,-19.68
1554106680954,5.248090299999999,-7.5136037,-5.0427876,-0.22264028,0.588026,-0.6785734,-25.14,44.22,-19.86
1554106680974,5.774814599999999,-8.016386,-5.205593,-0.330232,0.531567,-0.69029135,-25.14,44.16,-20.1
1554106680995,5.8274870000000005,-8.227076,-5.6030307,-0.39840892,0.531567,-0.69348717,-25.14,44.1,-20.28
1554106681014,5.975927400000001,-8.437764999999999,-4.472967,-0.34514567,0.5475459,-0.680704,-25.14,44.1,-20.4
1554106681034,5.861006,-8.049905,-3.912724,-0.04580637,0.61678815,-0.6306366,-25.2,44.16,-20.58
1554106681055,6.0046577,-7.671621000000001,-4.3197384,0.22264028,0.67218184,-0.56459016,-25.26,44.16,-20.7
1554106681075,5.78918,-7.0634937,-4.908712,0.101200126,0.700944,-0.4825648,-25.26,44.16,-20.82
1554106681094,5.664681400000001,-7.101800999999999,-4.511274299999999,-0.1438107,0.6263755,-0.4644553,-25.32,44.16,-20.88
1554106681115,5.8801594,-7.508815299999999,-4.276643,-0.19174760000000002,0.53795856,-0.41758367,-25.56,44.22,-20.94
1554106681136,6.191406,-8.025963,-4.152144399999999,-0.11611383,0.47510794,-0.38882150000000004,-25.68,44.28,-20.94
1554106681156,6.196194,-7.934983,-3.8025907999999995,0.007456851,0.4314321,-0.38242993,-25.86,44.34,-20.94
1554106681174,5.932832,-7.422623599999999,-4.0467997,0.18002969,0.39308259999999995,-0.32384038,-25.98,44.4,-20.94
1554106681195,5.899312999999999,-7.2981253,-3.8983587999999996,0.16724652,0.32490566,-0.22477080000000002,-26.16,44.46,-20.94
1554106681214,5.8083334,-7.475296000000001,-3.8265328000000003,0.22583607,0.25566345,-0.17576863,-26.28,44.46,-21.0
1554106681236,5.659893,-7.724292999999999,-3.7020345,0.43249738,0.23329292,-0.10972224,-26.46,44.52,-21.06
1554106681255,5.774814599999999,-7.417835,-3.946243,0.61678815,0.20772657,-0.13635385,-26.46,44.58,-21.12
1554106681274,5.7987566,-6.5942300000000005,-4.137779,0.5251754,0.18109496,-0.20133498,-26.52,44.58,-21.24
1554106681295,5.750872599999999,-6.6612678,-3.9893386,-0.08948222,0.12676647,-0.18535602,-26.58,44.46,-21.42
1554106681315,6.009446,-7.0491285,-3.8983587999999996,-0.34727620000000003,0.10439592,-0.16618125,-26.64,44.4,-21.6
1554106681335,6.1866174,-7.355586,-3.7163997,-0.49854377,0.08522116,-0.13209279,-26.64,44.28,-21.78
1554106681355,6.2823853,-7.4896617,-3.9941269999999998,-0.5954828000000001,0.06498113,-0.08522116,-26.64,44.16,-22.02
1554106681374,6.2105594,-7.834426400000001,-3.8696284,-0.44741106,0.07243799,-0.002130529,-26.58,44.1,-22.2
1554106681395,6.066907,-7.5758529999999995,-3.7403417,-0.25672874,0.08841695,0.040480047000000005,-26.58,44.16,-22.38
1554106681415,6.0525417,-7.3603745,-3.481768,0.0063915867,0.1107875,0.08841695,-26.64,44.22,-22.5
1554106681434,6.1818290000000005,-7.1448965,-2.926313,0.18216023,0.128897,0.10759171,-26.58,44.28,-22.56
1554106681455,5.9807158,-6.7187285,-3.2184057,0.24501082,0.18855181,0.13741912,-26.58,44.4,-22.56
1554106681475,6.0285997,-6.4840965,-3.141791,0.017044231,0.19174760000000002,0.12783173,-26.52,44.52,-22.56
1554106681497,6.0381765,-6.5750766,-3.079542,-0.22264028,0.16724652,0.13528858,-26.58,44.7,-22.56
1554106681514,6.1483099999999995,-7.006033,-3.1657330000000004,-0.32384038,0.15020229,0.13741912,-26.52,44.76,-22.5
1554106681535,6.497863300000001,-7.374739599999999,-3.4003648999999996,-0.34301516,0.11717909,0.12357068,-26.52,44.88,-22.5
1554106681554,6.5840545,-7.504027000000001,-3.0412347,-0.28016454,0.084155895,0.08735169,-26.46,44.82,-22.5
1554106681575,6.6654577,-7.355586,-2.9741971,-0.08735169,0.068176925,0.07563378,-26.4,44.76,-22.44
1554106681595,6.6510925,-7.2454529999999995,-3.0412347,0.03195793,0.047936900000000005,0.06924219,-26.34,44.76,-22.44
1554106681615,6.631939,-7.1975690000000005,-2.9167361,0.06178534,0.013848438000000001,0.06498113,-26.22,44.76,-22.32
1554106681635,6.5122285,-7.140108000000001,-3.0843303,0.07776430000000001,-0.012783173500000002,0.060720075,-26.1,44.76,-22.26
1554106681655,6.497863300000001,-7.015609700000001,-3.0891187,0.015978966,-0.07030745599999999,0.043675844000000005,-25.98,44.76,-22.2
1554106681675,6.397307,-7.1879919999999995,-3.0699651,-0.04580637,-0.099069595,0.035153727999999995,-25.86,44.82,-22.14
1554106681695,6.493075,-7.1592617,-2.9933507,-0.026631612000000002,-0.098004326,0.03195793,-25.74,44.88,-22.14
1554106681715,6.4643445,-7.2885485,-3.141791,0.025566347000000003,-0.07456851,0.037284255,-25.62,44.94,-22.08
1554106681734,6.540959,-7.4561424,-3.1465794999999996,0.09587380000000001,-0.049002163,0.05965481,-25.5,45.0,-22.08
1554106681756,6.397307,-7.3938932,-3.0508115,0.16085494,-0.03195793,0.07137272,-25.5,45.06,-22.08
1554106681775,6.631939,-7.4465656000000005,-2.6821042999999998,0.21411815,-0.0031957934000000003,0.12676647,-25.44,45.12,-22.14
1554106681795,6.732495299999999,-7.398681599999999,-2.6964695,0.28655612,0.060720075,0.18429075,-25.44,45.12,-22.2
1554106681814,6.569689299999999,-7.2502413,-2.5432408,0.32597092,0.13528858,0.23435818,-25.38,45.12,-22.2
1554106681834,6.627150500000001,-7.4561424,-2.6964695,0.3898868,0.18855181,0.2908172,-25.38,45.06,-22.2
1554106681854,6.277597,-7.724292999999999,-3.1130607000000006,0.41438788,0.21944448,0.30999196,-25.32,44.94,-22.26
1554106681875,6.066907,-7.8152729999999995,-2.8736405,0.37603834,0.2130529,0.29188246,-25.32,44.82,-22.26
1554106681894,5.8945246,-7.839214999999999,-2.6629508,0.44315,0.2034655,0.28549087,-25.26,44.7,-22.44
1554106681914,5.9041014,-7.8104844,-2.7635074,0.61572284,0.17150758,0.29294774,-25.26,44.46,-22.74
1554106681934,5.932832,-7.791331,-2.7204118,0.7574029999999999,0.101200126,0.30146983,-25.2,44.16,-23.04
1554106681954,5.932832,-7.839214999999999,-2.6102784,0.87351686,0.03834952,0.30999196,-25.02,43.98,-23.46
1554106681974,5.8466406,-8.006809,-2.1505916000000003,1.1004181999999998,-0.010652645,0.30040458,-24.84,43.74,-23.94
1554106681995,5.6886234,-8.006809,-1.7962499,1.3848438,-0.03834952,0.25672874,-24.54,43.5,-24.48
1554106682015,5.760449400000001,-7.729081599999999,-1.5855601000000001,1.5936357,-0.08628642,0.20985709,-24.24,43.2,-25.26
1554106682035,5.966350599999999,-7.2981253,-1.3940238999999999,1.6873789000000001,-0.12676647,0.16298546,-23.88,42.84,-25.98
1554106682055,5.9567738,-7.029975,-1.3317747,1.6532904,-0.14061491,0.12783173,-23.52,42.3,-26.76
1554106682075,6.0285997,-6.9820905,-1.1785458,1.5435683,-0.14274544,0.111852765,-23.16,41.58,-27.48
1554106682095,6.0142345,-6.7905545,-1.2982559,1.3677995,-0.12996227,0.07776430000000001,-22.8,40.86,-28.26
1554106682115,6.0333879999999995,-6.7666125,-1.1115081,1.1174624,-0.10333065,0.053263225,-22.56,39.96,-29.16
1554106682135,6.0764837,-6.8049197,-1.192911,0.87351686,-0.07776430000000001,0.029827405,-22.38,39.0,-29.94
1554106682156,6.100425700000001,-6.8528037,-0.55605334,0.70200926,-0.020240024,0.024501082,-22.26,37.92,-30.78
1554106682175,5.9280434,-6.7570357,-0.56084174,0.5400891,0.07882957,0.01917476,-22.26,36.84,-31.44
1554106682195,5.899312999999999,-6.7330937,-0.4842273,0.31318775,0.18748654,-0.0010652645,-22.2,35.82,-32.1
1554106682215,5.8274870000000005,-6.7187285,-0.6853402,0.06604639400000001,0.2609898,-0.02130529,-22.14,34.98,-32.76
1554106682235,5.774814599999999,-6.9150529999999995,-0.31184477,-0.20453078,0.31318775,-0.046871635999999994,-22.14,34.32,-33.24
1554106682255,5.7987566,-7.149685000000001,-0.4794389,-0.48363006,0.35792887,-0.084155895,-22.14,33.78,-33.6
1554106682275,5.8226986,-7.2981253,-0.54168814,-0.63915867,0.386691,-0.10226539,-22.14,33.24,-33.9
1554106682294,5.9184665999999995,-7.3699512,-0.36930559999999996,-0.7318366999999999,0.38882150000000004,-0.12570119999999999,-22.08,32.88,-34.02
1554106682317,6.0333879999999995,-7.7578119999999995,-0.27353755,-0.79894835,0.38029942,-0.16085494,-22.08,32.64,-34.08
1554106682335,5.995081,-7.8104844,-0.38367084,-0.8042746999999999,0.3749731,-0.19068234,-22.02,32.52,-34.14
1554106682354,5.813122,-7.7626004,-0.21128829999999998,-0.84368944,0.34408042,-0.22903186,-22.02,32.7,-34.02
1554106682375,5.8801594,-7.839214999999999,-0.6757634,-0.8873653,0.31318775,-0.26525086,-21.96,33.06,-33.84
1554106682395,5.90889,-7.939771,-0.66139823,-0.97897804,0.29294774,-0.30466563,-21.84,33.6,-33.6
1554106682415,5.7843914000000005,-8.025963,-0.6135142,-1.0045444,0.28655612,-0.30999196,-21.66,34.26,-33.3
1554106682435,5.722142,-8.212710000000001,-0.6135142,-0.9683254000000001,0.28122982,-0.30466563,-21.48,34.98,-32.94
1554106682456,5.7700260000000005,-8.428188,-0.75716627,-0.9108011,0.28655612,-0.30360037,-21.3,35.82,-32.46
1554106682475,5.7843914000000005,-8.528744999999999,-0.8912416,-0.8032094,0.30146983,-0.30999196,-21.12,36.66,-31.86
1554106682496,5.5018754,-8.610147,-0.9199719999999999,-0.69774824,0.3206446,-0.30360037,-21.0,37.5,-31.14
1554106682515,5.588066599999999,-8.399458000000001,-0.9008184000000001,-0.6125271,0.31638354,-0.28442562,-20.88,38.28,-30.48
1554106682535,5.5401826,-8.351574000000001,-1.049259,-0.5518069999999999,0.29827404,-0.26525086,-20.76,38.88,-29.82
1554106682555,5.588066599999999,-8.595782,-1.216853,-0.5422196,0.2727077,-0.23329292,-20.7,39.36,-29.16
1554106682574,5.7365074,-8.428188,-1.1115081,-0.47510794,0.24607609,-0.2130529,-20.76,39.9,-28.62
1554106682595,5.60722,-8.4664955,-1.3461398999999998,-0.37923414,0.21411815,-0.18002969,-20.82,40.38,-28.02
1554106682615,5.717354,-8.428188,-1.3892354999999998,-0.257794,0.18429075,-0.15339808,-20.82,40.74,-27.48
1554106682636,5.8705826,-8.203134,-1.4802152,-0.1107875,0.15446335,-0.12783173,-20.88,41.16,-27.12
1554106682655,5.923255,-7.925406,-1.3461398999999998,0.010652645,0.13528858,-0.096939065,-20.94,41.7,-26.76
1554106682675,5.966350599999999,-7.8248496,-1.1976993999999999,0.034088463,0.12037488,-0.07989483,-20.94,41.88,-26.58
1554106682694,6.0333879999999995,-7.480085000000001,-1.1689690000000001,-0.017044231,0.10759171,-0.07350325,-21.0,42.18,-26.34
1554106682715,6.0333879999999995,-7.173627000000001,-1.3461398999999998,-0.14913702,0.099069595,-0.07350325,-21.06,42.36,-26.1
1554106682735,6.0860605,-7.4561424,-1.5280992,-0.4048005,0.07350325,-0.094808534,-21.06,42.6,-25.8
1554106682755,6.320692500000001,-7.7626004,-1.0540473,-0.5592638000000001,0.058589544,-0.12250541,-21.06,42.72,-25.68
1554106682774,6.38773,-7.848791599999999,-1.4323312,-0.49002165,0.07243799,-0.13422333,-21.06,42.78,-25.62
1554106682794,6.315904,-7.8104844,-1.3796587,-0.34408042,0.096939065,-0.11504856,-21.06,42.84,-25.56
1554106682815,6.2249246,-7.6524673,-1.6909049999999999,-0.18748654,0.09374327,-0.11504856,-21.06,43.26,-25.38
1554106682835,6.143522,-7.527969000000001,-1.8010383,-0.099069595,0.07989483,-0.11611383,-21.06,43.5,-25.26
1554106682855,6.0046577,-7.508815299999999,-1.6573862000000001,-0.12144015,0.047936900000000005,-0.099069595,-21.06,43.8,-24.96
1554106682875,6.114791,-7.934983,-1.3557166999999999,-0.15552860000000002,0.018109497,-0.06178534,-21.06,44.04,-24.72
1554106682895,6.2823853,-8.346786,-1.2791021999999999,-0.082025364,0.0031957934000000003,-0.041545313,-21.06,44.28,-24.48
1554106682914,6.315904,-8.356361999999999,-1.0779893,0.12570119999999999,0.011717908999999999,-0.07563378,-21.06,44.52,-24.24
1554106682936,6.493075,-8.097789,-1.1258733,0.46871635,0.051132694000000006,-0.06498113,-21.06,44.7,-24.0
1554106682955,6.1483099999999995,-7.3938932,-2.059612,0.52411014,0.05006743,-0.043675844000000005,-21.06,44.76,-23.76
1554106682975,5.932832,-7.2981253,-1.7962499,0.42184472,0.029827405,-0.018109497,-21.06,44.76,-23.64
1554106682994,6.244078,-8.193557,-1.3365631000000002,0.15446335,-0.013848438000000001,0.060720075,-21.06,44.7,-23.52
1554106683014,6.081272,-7.973290400000001,-1.738789,-0.068176925,-0.024501082,0.06711166,-21.06,44.52,-23.64
1554106683035,5.7939680000000005,-8.81605,-1.5855601000000001,-0.34514567,-0.04474111,0.15233281,-21.06,44.4,-23.7
1554106683055,5.746084,-9.448118,-2.0452468,-0.24714136,-0.113983296,0.32384038,-21.06,44.28,-23.88
1554106683075,6.2871737,-8.7538,-1.7675193999999999,0.035153727999999995,-0.12250541,0.34834146,-21.06,44.16,-23.94
1554106683094,5.985504,-8.409035000000001,-2.260725,0.17789917,-0.13422333,0.39840892,-21.06,44.1,-24.06
1554106683115,6.105214,-8.011598,-2.0931308,0.0031957934000000003,-0.18961707,0.44954160000000004,-21.0,43.98,-24.12
1554106683135,5.463568,-7.1305312999999995,-2.3038206000000003,-0.15446335,-0.23116238,0.5123922000000001,-20.94,43.92,-24.18
1554106683155,5.473145,-7.1209545,-1.9351135,-0.44528055,-0.27377295,0.60720074,-20.76,43.92,-24.24
1554106683175,5.3390699999999995,-7.422623599999999,-1.4514848,-0.80533993,-0.30466563,0.6562029,-20.64,43.98,-24.3
1554106683195,5.396530599999999,-7.542333999999999,-1.6286557,-0.9054747999999999,-0.25033715,0.66152924,-20.46,44.04,-24.3
1554106683215,5.0421886,-7.422623599999999,-1.7244238,-0.98750013,-0.18002969,0.63383234,-20.28,44.1,-24.18
1554106683235,5.1810527,-7.6764092,-1.8584990000000001,-0.8213189000000001,-0.08841695,0.6114618,-19.98,44.16,-24.06
1554106683254,5.2863975,-7.475296000000001,-1.9973627,-0.55074173,-0.03834952,0.52624065,-19.68,44.22,-23.82
1554106683275,5.0421886,-7.317278999999999,-2.3229742,-0.35899413,0.020240024,0.44101948,-19.32,44.46,-23.4
1554106683294,5.1762643,-7.16405,-2.1649568,-0.2727077,0.018109497,0.35153726,-19.02,44.82,-23.04
1554106683316,5.1666875,-7.154473299999999,-1.7579426,-0.12463594,0.07030745599999999,0.23968449999999997,-18.78,45.12,-22.56
1554106683335,5.377377,-7.0970125,-2.0548236,0.03834952,0.12996227,0.08841695,-18.54,45.48,-22.14
1554106683355,5.5641245999999995,-7.154473299999999,-2.1984756,0.022370555,0.15552860000000002,0.03089267,-18.3,45.78,-21.66
1554106683374,5.8179099999999995,-7.2981253,-2.1027076,0.0063915867,0.17363810000000002,-0.011717908999999999,-18.06,46.14,-21.3
1554106683394,5.803545,-7.2454529999999995,-2.1649568,-0.04474111,0.19600865,-0.056459017,-17.88,46.38,-20.94
1554106683415,6.0333879999999995,-7.2885485,-2.2942438,-0.21198763,0.17470337,-0.08522116,-17.7,46.68,-20.76
1554106683435,5.889736,-7.4561424,-2.5288756,-0.46125950000000004,0.13102753,-0.12783173,-17.58,46.74,-20.7
1554106683455,5.913678,-7.6907744000000005,-2.4762032000000005,-0.65194184,0.07989483,-0.15978967,-17.52,46.8,-20.58
1554106683476,5.779603,-7.705139599999999,-2.806603,-0.71479243,0.046871635999999994,-0.19174760000000002,-17.4,46.92,-20.58
1554106683495,5.535394,-7.614160000000001,-2.6485856,-0.66365975,0.02130529,-0.21518342,-17.28,46.98,-20.52
1554106683514,5.463568,-7.7865424,-2.7204118,-0.515588,0.008522116,-0.25566345,-17.22,47.1,-20.46
1554106683535,5.315128,-7.8152729999999995,-2.8975825,-0.3334278,0.010652645,-0.28655612,-17.16,47.16,-20.22
1554106683555,5.3007627,-7.7626004,-2.710835,-0.10759171,0.023435817999999997,-0.30999196,-17.1,47.28,-19.92
1554106683574,5.2528787,-7.6524673,-2.629432,0.13954964,0.05539375,-0.35792887,-17.16,47.46,-19.56
1554106683594,5.21936,-7.4322004,-2.782661,0.2545982,0.08948222,-0.39095205,-17.16,47.58,-19.14
1554106683615,5.171476,-7.3220673,-2.6342204,0.31212249999999997,0.12676647,-0.40906155,-17.22,47.7,-18.78
1554106683635,5.1666875,-7.2454529999999995,-2.7587189999999997,0.38882150000000004,0.20772657,-0.44101948,-17.34,47.82,-18.3
1554106683655,5.3678,-7.149685000000001,-2.5432408,0.35899413,0.25033715,-0.45806372,-17.46,47.94,-18.0
1554106683675,5.3821654,-7.0970125,-2.7060466,0.25992453,0.2908172,-0.46765109999999993,-17.64,48.0,-17.88
1554106683694,5.487509999999999,-7.1065892999999996,-2.3660697999999996,0.17257284,0.31638354,-0.4857606,-17.82,48.06,-17.88
1554106683716,5.506664,-6.996455999999999,-2.1218612,0.111852765,0.34301516,-0.5209143,-18.06,48.06,-18.0
1554106683735,5.5401826,-6.977302000000001,-1.9973627,0.14061491,0.38242993,-0.588026,-18.24,48.12,-18.18
1554106683755,5.707777,-6.905475999999999,-1.5951369,0.21944448,0.43782368,-0.68816084,-18.42,48.12,-18.42
1554106683775,5.8083334,-6.938994999999999,-1.8920178,0.37603834,0.5091964,-0.8117314999999999,-18.6,48.12,-18.6
1554106683794,6.0285997,-6.7283053,-2.131438,0.38136467,0.5390238,-0.9214538000000001,-18.72,48.12,-18.84
1554106683817,6.2871737,-6.5607114,-1.7100586,0.21837921,0.5273059,-1.0247844000000002,-18.84,48.12,-19.08
1554106683834,6.483498,-6.4362125,-1.3796587,0.19387813,0.52411014,-1.0865698000000001,-18.96,48.06,-19.32
1554106683854,6.8186865,-6.3643866,-0.95827925,0.30786142,0.531567,-1.1813782,-19.14,48.06,-19.5
1554106683875,7.091625,-6.369175,-0.97743285,0.5134575,0.5571333,-1.2942963,-19.44,48.0,-19.74
1554106683895,7.3071036,-6.2638300000000005,-0.9487024,0.77125144,0.58696073,-1.4125406999999999,-19.74,47.88,-19.98
1554106683915,7.584830800000001,-6.1345434,-1.1641805,1.0322412,0.62104917,-1.5094798,-20.16,47.64,-20.22
1554106683934,7.896077,-5.93343,-1.192911,1.091896,0.6327670999999999,-1.5797871,-20.64,47.34,-20.58
1554106683955,8.159439,-6.019622,-0.7284359,0.9938916999999999,0.58696073,-1.627724,-21.24,46.98,-20.94
1554106683975,9.097966,-6.1345434,-0.25438392,0.9672601000000001,0.56672066,-1.6309198999999999,-22.02,46.56,-21.42
1554106683995,9.404425,-6.0531406,0.061650693,1.0737866000000003,0.6178534000000001,-1.6202673,-22.86,46.08,-22.02
1554106684015,9.65821,-5.828085400000001,0.032920275,1.2868395000000001,0.6583334,-1.5808525,-23.46,45.42,-22.68
1554106684036,9.830592,-5.6365495,-0.24959552,1.5968314,0.67963874,-1.526524,-24.12,44.64,-23.4
1554106684055,9.720459,-5.4545900000000005,-0.15382746,1.8961706999999999,0.6711166000000001,-1.4615428,-24.72,43.62,-24.36
1554106684075,9.332599,-5.0332108,0.008978256,2.0985709999999997,0.60507023,-1.3805827,-25.2,42.48,-25.38
1554106684094,9.131485000000001,-4.520851,0.40162733,2.2391857999999996,0.47510794,-1.2729911,-25.68,41.16,-26.4
1554106684114,9.160214999999999,-4.1282024,0.8948328999999999,2.3254723999999998,0.3057309,-1.1462245,-26.16,39.72,-27.48
1554106684135,9.294291000000001,-3.9270894999999997,1.2348095,2.3276029,0.13209279,-1.0077401,-26.52,37.98,-28.62
1554106684155,9.452309,-3.7259765,1.4311341,2.292449,-0.013848438000000001,-0.8788431999999999,-26.82,36.18,-29.94
1554106684176,9.509769,-3.5392287000000002,1.6130934,2.2594258999999997,-0.13422333,-0.7595335999999999,-27.18,34.2,-31.38
1554106684195,9.323022,-3.3812113,1.8142063999999998,2.2327943,-0.22264028,-0.6317018,-27.6,32.04,-32.82
1554106684215,9.332599,-3.3045970000000002,1.9722236000000002,2.1891184,-0.28549087,-0.50387007,-28.08,29.82,-34.2
1554106684234,9.409213000000001,-2.9071592999999996,1.7280151000000001,2.0889835,-0.30360037,-0.4048005,-28.5,27.6,-35.58
1554106684255,9.3661175,-2.7299886000000004,1.6035166,1.9068234,-0.28868666,-0.34408042,-28.92,25.32,-36.78
1554106684274,9.083601,-2.5528176,1.4311341,1.5723303999999998,-0.25033715,-0.29294774,-29.28,22.98,-37.86
1554106684294,8.935161,-2.3373394,1.6083049999999999,1.139833,-0.24074976,-0.2428803,-29.64,20.64,-38.88
1554106684314,8.959103,-2.179322,1.5412674,0.7318366999999999,-0.24394555,-0.20453078,-29.88,18.36,-39.6
1554106684336,9.016563,-2.1218612,1.6083049999999999,0.35792887,-0.23009712,-0.14274544,-30.24,16.26,-40.2
1554106684356,9.169792,-2.3900118,1.5747862,-0.004261058,-0.19174760000000002,-0.05965481,-30.6,14.52,-40.74
1554106684375,9.188946000000001,-2.782661,1.8189948,-0.26312032,-0.13422333,0.0053263223,-30.84,13.02,-41.16
1554106684395,9.165004,-2.8975825,2.0727801,-0.38136467,-0.084155895,0.047936900000000005,-31.14,11.88,-41.52
1554106684415,9.246407000000001,-3.0172927000000005,2.3600842999999996,-0.4048005,-0.053263225,0.083090626,-31.38,10.98,-41.88
1554106684434,9.203311,-3.093907,2.40318,-0.35579833,-0.027696876000000002,0.112918034,-31.68,10.26,-42.36
1554106684454,9.241617999999999,-3.1609447,2.4510639,-0.28655612,-0.024501082,0.13422333,-31.8,10.2,-42.48
1554106684476,9.270349000000001,-3.2998084999999997,2.3265655,-0.11930962,-0.03089267,0.16192019,-32.04,10.2,-42.78
1554106684495,9.23683,-3.2758665000000002,2.379238,0.046871635999999994,-0.027696876000000002,0.16831179,-32.1,10.38,-42.84
1554106684516,9.222465,-3.1465794999999996,2.2451627,0.21518342,-0.02130529,0.18109496,-32.1,10.56,-42.84
1554106684535,9.303867,-3.2423477000000003,2.1972785,0.29933932,0.0053263223,0.23861924,-32.1,10.68,-42.78
1554106684555,9.370906,-3.117849,2.2164322999999997,0.34194988,0.027696876000000002,0.27696875,-32.16,10.86,-42.72
1554106684575,9.409213000000001,-2.9167361,2.3600842999999996,0.39095205,0.03834952,0.30040458,-32.16,11.04,-42.66
1554106684595,9.437942999999999,-2.8401217,2.2930467,0.39947417,0.06391586,0.3653857,-32.16,11.16,-42.6
1554106684616,9.56723,-3.1753099999999996,2.4271219,0.34621096,0.09161274,0.44634579999999996,-32.16,11.16,-42.54
1554106684634,9.576807,-3.1609447,2.4558525,0.3291667,0.12144015,0.4878911,-32.16,11.1,-42.48
1554106684655,9.390058999999999,-2.9454667999999997,2.4702177000000005,0.33875409999999995,0.15978967,0.52624065,-32.1,11.04,-42.54
1554106684674,9.390058999999999,-2.8927941,2.3888147,0.4133226,0.20985709,0.572047,-32.1,10.92,-42.54
1554106684695,9.212888000000001,-3.0029275,2.4893713,0.49108690000000005,0.24607609,0.6135923000000001,-32.04,10.8,-42.54
1554106684716,9.404425,-3.2806550000000003,2.1637597,0.386691,0.29827404,0.74461985,-31.92,10.62,-42.6
1554106684735,9.414000999999999,-3.2471360000000002,2.1254525,0.3153183,0.33768883,0.73609775,-31.74,10.5,-42.72
1554106684755,8.959103,-2.8640637000000004,2.144606,0.29507825,0.3536678,0.6711166000000001,-31.44,10.26,-42.78
1554106684775,8.949525999999999,-2.8496985,2.1829132999999996,0.28868666,0.35260254,0.69987875,-31.14,10.02,-42.84
1554106684795,8.925583999999999,-3.0460230999999998,2.0967221,0.23755397,0.33768883,0.721184,-30.78,9.78,-42.96
1554106684816,8.892064999999999,-2.878429,1.9626468000000001,0.18535602,0.31851408,0.628506,-30.42,9.54,-43.02
1554106684834,8.7771435,-2.8688521000000002,1.9913772,0.12037488,0.27483824,0.52837116,-30.0,9.24,-43.08
1554106684854,8.7053175,-2.7922377999999997,1.8381484000000001,0.06285059999999999,0.23009712,0.46339005,-29.64,8.94,-43.14
1554106684874,8.662222,-2.5959132,1.8668787,0.0031957934000000003,0.18748654,0.36112466,-29.28,8.76,-43.26
1554106684895,8.614338,-2.7204118,1.8860323,-0.018109497,0.14807177,0.21198763,-28.98,8.52,-43.32
1554106684915,8.451532,-2.8688521000000002,1.9578583999999999,-0.008522116,0.111852765,0.09587380000000001,-28.8,8.34,-43.38
1554106684935,8.604761,-2.8496985,2.1877017000000003,0.0053263223,0.05219796,-0.043675844000000005,-28.62,8.22,-43.5
1554106684955,8.470686,-2.7730842,2.202067,0.05752428,-0.0031957934000000003,-0.20559604,-28.44,8.22,-43.56
1554106684975,8.6334915,-2.6629508,2.1829132999999996,0.13528858,-0.06285059999999999,-0.32170987,-28.32,8.16,-43.68
1554106684995,8.6574335,-2.6007016,2.0009542000000002,0.2130529,-0.10972224,-0.40906155,-28.26,8.22,-43.74
1554106685015,8.844180999999999,-2.6007016,2.1015105,0.28336033,-0.14594123,-0.5049353,-28.14,8.22,-43.74
1554106685034,8.911219000000001,-2.3612813999999998,2.144606,0.32597092,-0.18855181,-0.59122175,-28.02,8.16,-43.8
1554106685054,9.011775,-2.2942438,2.235586,0.3568636,-0.23222765,-0.6625945,-27.9,8.1,-43.8
1554106685075,9.169792,-2.1984756,2.331354,0.41971418,-0.2790993,-0.70840085,-27.84,7.98,-43.8
1554106685095,9.414000999999999,-2.0979192,2.2164322999999997,0.5305017,-0.2908172,-0.7392935,-27.84,7.74,-43.8
1554106685115,9.466674000000001,-2.1936872000000003,2.0967221,0.6146576,-0.26738137,-0.76485986,-27.84,7.5,-43.8
1554106685135,9.289502,-2.0644004000000002,2.154183,0.62744075,-0.24501082,-0.78296936,-27.96,7.14,-43.86
1554106685155,9.255983,-1.9015948,2.3696610000000002,0.5795039000000001,-0.24607609,-0.793622,-28.08,6.78,-43.86
1554106685175,9.3421755,-1.7675193999999999,2.417545,0.50600064,-0.26312032,-0.7850999,-28.2,6.36,-43.86
1554106685194,9.437942999999999,-1.6430208999999998,2.5611973,0.41545314,-0.257794,-0.7637946,-28.44,5.7,-43.86
1554106685214,9.528922999999999,-1.7004818,2.5899277,0.2972088,-0.24501082,-0.7318366999999999,-28.74,4.98,-43.92
1554106685235,9.409213000000001,-1.7052702000000002,2.6617537000000002,0.16298546,-0.23542345,-0.70840085,-29.04,4.26,-43.98
1554106685255,9.346964,-1.5280992,2.5995044999999997,0.03834952,-0.21518342,-0.6775081999999999,-29.4,3.66,-44.04
1554106685274,9.208099,-1.6621746,2.6809072,-0.051132694000000006,-0.17470337,-0.6263755,-29.94,2.94,-44.16
1554106685294,9.054871,-1.5807717,2.7000610000000003,-0.14274544,-0.11611383,-0.5550028,-30.36,2.28,-44.28
1554106685314,8.834603999999999,-1.5376761,2.4366987,-0.26418558,-0.06391586,-0.48363006,-30.78,1.62,-44.4
1554106685335,8.623915,-1.5951369,2.6761188999999996,-0.5070659000000001,-0.04580637,-0.3685815,-31.2,1.02,-44.46
1554106685354,8.643068,-1.5711948999999998,2.6617537000000002,-0.8117314999999999,-0.040480047000000005,-0.19707392,-31.5,0.72,-44.58
1554106685374,9.059659,-1.9015948,3.1597476,-1.0386329,-0.07456851,-0.023435817999999997,-31.74,0.48,-44.64
1554106685396,10.156203,-2.6964695,3.8109705000000003,-1.2218584,-0.11611383,0.19920446,-32.04,0.66,-44.58
1554106685415,10.697293,-3.232771,3.8588544999999996,-1.2687298999999999,-0.096939065,0.3057309,-32.1,0.84,-44.58
1554106685436,10.563217999999999,-3.6062663,3.9115269999999995,-1.2133361999999999,0.043675844000000005,0.35899413,-32.1,1.92,-44.28
1554106685454,9.500193,-3.697246,4.0025067000000005,-1.128115,0.14594123,0.38349520000000004,-32.1,2.88,-44.04
1554106685475,8.643068,-3.7020345,4.0025067000000005,-1.0333065000000001,0.19707392,0.45380265,-32.1,3.9,-43.68
1554106685495,8.173803999999999,-3.7594953,3.7008373999999997,-0.93423694,0.2130529,0.5049353,-32.1,4.98,-43.38
1554106685514,7.9248075,-3.7355532999999994,3.7966053,-0.8330368,0.19600865,0.51452273,-32.1,6.24,-43.08
1554106685535,7.891288799999999,-3.74513,3.470994,-0.737163,0.18429075,0.48149952,-32.1,7.56,-42.72
1554106685555,7.690175999999999,-3.6685154000000004,3.4183214,-0.64555025,0.19068234,0.40266997,-32.04,8.76,-42.42
1554106685575,7.445967,-3.7499184999999997,3.1597476,-0.54648066,0.19387813,0.31212249999999997,-31.86,9.84,-42.06
1554106685595,7.3645644,-3.5823242999999994,2.9346926,-0.43782368,0.16937704,0.23755397,-31.68,10.86,-41.64
1554106685614,7.489063000000001,-3.481768,2.7623102999999998,-0.28868666,0.12463594,0.16937704,-31.44,11.76,-41.34
1554106685634,7.776367,-3.2950199999999996,2.5899277,-0.21092236,0.10546118,0.14061491,-31.2,12.78,-41.1
1554106685655,8.130709,-3.117849,2.4510639,-0.13422333,0.06711166,0.10439592,-30.96,13.68,-40.92
1554106685674,8.7053175,-3.1705215,2.6426,-0.05006743,-0.0053263223,0.05539375,-30.72,14.52,-40.74
1554106685695,9.174581,-3.127426,2.5516205000000003,0.07776430000000001,-0.068176925,-0.015978966,-30.54,15.18,-40.56
1554106685715,9.811439,-3.0986955000000003,2.6952724,0.26418558,-0.12570119999999999,-0.11930962,-30.36,15.72,-40.44
1554106685735,10.271125,-3.0603882999999996,2.532467,0.44847634,-0.14487597,-0.221575,-30.24,16.08,-40.38
1554106685755,10.0987425,-2.878429,2.4366987,0.65726817,-0.1107875,-0.3057309,-30.18,16.32,-40.44
1554106685775,9.303867,-2.5288756,2.1206641,0.8202536,-0.01917476,-0.32490566,-30.18,16.38,-40.44
1554106685795,8.465898,-2.03567,1.6705543,0.8767126000000001,0.040480047000000005,-0.27377295,-30.18,16.2,-40.44
1554106685815,7.7428484,-1.7100586,1.5891514,0.82557994,0.029827405,-0.17044231,-30.12,15.72,-40.5
1554106685835,7.551311999999999,-1.3461398999999998,1.5316905,0.7233145999999999,-0.034088463,-0.037284255,-30.06,15.06,-40.62
1554106685855,7.627927000000001,-1.192911,1.5269021,0.5699165,-0.098004326,0.10333065,-30.06,14.28,-40.74
1554106685875,7.824250999999999,-1.5041572,1.632247,0.3153183,-0.14487597,0.2034655,-30.0,13.56,-40.86
1554106685895,8.006210000000001,-1.7196354,1.5269021,0.08522116,-0.18855181,0.22690132,-29.94,12.78,-41.04
1554106685915,8.154651,-1.8441339,1.8046296000000002,-0.04261058,-0.23116238,0.20026971,-29.94,12.06,-41.22
1554106685935,8.441956,-2.03567,1.8046296000000002,-0.06924219,-0.29827404,0.15659387,-30.0,11.4,-41.4
1554106685955,9.150639,-2.356493,1.977012,0.012783173500000002,-0.36005938,0.07882957,-30.06,10.98,-41.58
1554106685975,10.093954,-2.7012582000000003,2.0775685,0.21411815,-0.42077947,-0.05965481,-30.12,10.68,-41.76
1554106685995,10.845734,-2.8880057,1.9626468000000001,0.531567,-0.4165184,-0.26631612,-30.18,10.62,-41.88
1554106686014,11.247959,-2.7874494,1.7423803,0.8607336999999999,-0.37390783,-0.48149952,-30.24,10.62,-42.0
1554106686034,11.343728,-2.6198552000000004,1.6130934,1.0407634,-0.33555830000000003,-0.6540724,-30.36,10.62,-42.12
1554106686055,11.358092999999998,-2.3038206000000003,1.4885948999999998,1.0801781000000001,-0.30253512,-0.7797736,-30.48,10.5,-42.24
1554106686074,11.051635000000001,-1.8441339,1.3018471999999999,0.96299905,-0.26525086,-0.8223841999999999,-30.6,10.08,-42.24
1554106686096,10.333375,-1.4802152,1.4167688999999999,0.5699165,-0.25672874,-0.7499462,-30.66,9.0,-42.36
1554106686114,10.0987425,-1.3988123,1.7232267,0.257794,-0.26844665,-0.6668556,-30.72,8.64,-42.42
1554106686137,9.56723,-1.4371196000000002,1.9674352,-0.10865697,-0.2908172,-0.51452273,-30.84,7.8,-42.48
1554106686155,9.23683,-1.5376761,2.3936029999999997,-0.39308259999999995,-0.32490566,-0.3270362,-31.08,7.02,-42.54
1554106686175,9.093178,-2.059612,2.40318,-0.5635249,-0.34514567,-0.15339808,-31.38,6.18,-42.66
1554106686194,9.059659,-2.4139538,2.5611973,-0.6061354999999999,-0.32597092,-0.035153727999999995,-31.86,5.04,-42.84
1554106686214,8.949525999999999,-2.629432,2.4223334999999997,-0.46019423,-0.28442562,0.0063915867,-32.16,4.62,-42.96
1554106686235,8.963891,-2.6150667999999997,2.460641,-0.22903186,-0.23009712,0.035153727999999995,-32.46,4.62,-43.02
1554106686254,8.992621,-2.6342204,2.3026235,-0.047936900000000005,-0.19600865,0.026631612000000002,-32.64,4.68,-43.08
1554106686274,9.188946000000001,-2.5863364,2.1493945,0.18322548,-0.14594123,-0.01917476,-32.94,4.92,-43.08
1554106686296,9.356541,-2.1458032000000005,2.1110873,0.36645097,-0.099069595,-0.08948222,-33.48,5.4,-43.08
1554106686314,9.203311,-2.083554,2.2260091,0.39095205,-0.07882957,-0.13528858,-33.6,5.7,-42.96
1554106686335,9.232041,-1.9159599999999999,2.0440497,0.33768883,-0.07776430000000001,-0.1587244,-33.78,6.0,-42.9
1554106686355,9.323022,-1.8680758000000002,1.8860323,0.20985709,-0.083090626,-0.15020229,-33.96,6.24,-42.78
1554106686375,9.409213000000001,-1.9686323000000001,2.0440497,0.07456851,-0.099069595,-0.12783173,-34.08,6.24,-42.72
1554106686394,9.552864999999999,-1.9734207,1.9387047999999998,-0.007456851,-0.09267801,-0.09267801,-34.26,6.0,-42.6
1554106686414,9.624691,-2.2176294,1.977012,0.007456851,-0.07243799,-0.05752428,-34.38,5.7,-42.54
1554106686435,9.710882000000002,-2.260725,1.9961656000000003,0.083090626,-0.04580637,-0.036218993,-34.38,5.4,-42.54
1554106686455,9.725247,-2.0404584,2.0296845,0.16937704,-0.004261058,-0.00958738,-34.44,5.1,-42.54
1554106686475,9.706094,-1.8106151000000001,2.1158757,0.21731395,0.022370555,0.014913702,-34.5,4.8,-42.54
1554106686495,9.629479,-1.762731,1.7902644,0.21518342,0.05006743,0.041545313,-34.56,4.5,-42.54
1554106686514,9.619903,-1.7579426,1.7423803,0.17576863,0.06924219,0.07137272,-34.56,4.26,-42.6
1554106686535,9.586383999999999,-1.6717514,1.7423803,0.113983296,0.09587380000000001,0.099069595,-34.56,4.14,-42.6
1554106686554,9.610325999999999,-1.7292121999999999,1.809418,0.06604639400000001,0.10333065,0.10972224,-34.62,4.2,-42.66
1554106686575,9.543288,-1.6095021,1.5795746000000002,-0.02876214,0.13954964,0.12144015,-34.62,4.2,-42.66
1554106686594,9.648633,-1.6621746,1.5412674,-0.08628642,0.14487597,0.12037488,-34.62,4.2,-42.72
1554106686615,9.552864999999999,-1.6334441000000002,1.6130934,-0.12783173,0.16085494,0.112918034,-34.62,4.2,-42.72
1554106686635,9.375694000000001,-1.8010383,1.6274586000000002,-0.15233281,0.14913702,0.10652645,-34.56,4.14,-42.78
1554106686655,9.414000999999999,-1.7866731,1.6035166,-0.16618125,0.13635385,0.099069595,-34.56,4.14,-42.84
1554106686675,9.375694000000001,-1.8393455,1.5556326,-0.16831179,0.11504856,0.082025364,-34.5,4.2,-42.84
1554106686694,9.485827,-1.9351135,1.5221136999999998,-0.1587244,0.09054748,0.060720075,-34.44,4.2,-42.9
1554106686716,9.476251,-1.9351135,1.6226702,-0.12463594,0.058589544,0.039414786,-34.32,4.26,-42.96
1554106686734,9.5385,-2.0452468,1.632247,-0.051132694000000006,0.023435817999999997,0.011717908999999999,-34.26,4.32,-43.02
1554106686754,9.572019000000001,-2.0979192,1.7711107,0.06178534,-0.008522116,-0.02130529,-34.14,4.38,-43.14
1554106686775,9.390058999999999,-2.0979192,1.7280151000000001,0.20026971,-0.024501082,-0.046871635999999994,-34.08,4.5,-43.26
1554106686795,9.275136999999999,-1.9829974999999997,1.7615339,0.30466563,-0.043675844000000005,-0.058589544,-33.96,4.62,-43.38
1554106686815,9.208099,-1.9063831999999998,1.6705543,0.3536678,-0.06178534,-0.05219796,-33.84,4.74,-43.5
1554106686834,9.562441999999999,-1.8968061999999999,1.6753427,0.35792887,-0.07137272,-0.040480047000000005,-33.72,4.86,-43.62
1554106686854,9.533711,-1.7244238,1.6178818000000001,0.29188246,-0.039414786,-0.027696876000000002,-33.6,4.86,-43.74
1554106686874,9.3182335,-1.5759833,1.4215573000000001,0.15339808,-0.010652645,0.004261058,-33.48,4.86,-43.74
1554106686894,9.260772,-1.6669630000000002,1.3210008,-0.034088463,-0.012783173500000002,0.04261058,-33.36,4.74,-43.68
1554106686915,9.23683,-1.8393455,1.5316905,-0.17896444,-0.023435817999999997,0.07669904,-33.3,4.62,-43.68
1554106686934,9.074024,-1.9829974999999997,1.6801311,-0.25672874,-0.023435817999999997,0.08522116,-33.24,4.44,-43.62
1554106686955,8.911219000000001,-2.1936872000000003,1.6801311,-0.22903186,-0.049002163,0.06711166,-33.18,4.14,-43.56
1554106686974,9.030928999999999,-2.2990322,1.335366,-0.14594123,-0.080960095,0.037284255,-33.18,4.02,-43.5
1554106686994,9.246407000000001,-2.3995886000000004,1.5604209999999998,-0.082025364,-0.10439592,0.0053263223,-33.24,3.84,-43.5
1554106687015,9.26556,-2.2894554,1.6849195,-0.03089267,-0.099069595,-0.0053263223,-33.3,3.78,-43.56
1554106687034,9.212888000000001,-2.3469162,1.5699978,-0.020240024,-0.10759171,0.011717908999999999,-33.36,3.78,-43.62
1554106687054,9.346964,-2.2990322,1.4981716999999999,-0.04474111,-0.12250541,0.04580637,-33.42,3.84,-43.68
1554106687074,9.509769,-2.3181857999999997,1.5364790000000002,-0.06498113,-0.13209279,0.08735169,-33.48,3.9,-43.74
1554106687094,9.586383999999999,-2.3660697999999996,1.5412674,-0.07030745599999999,-0.14168017,0.13315806,-33.54,3.96,-43.74
1554106687114,9.749189,-2.533664,1.6418238,-0.053263225,-0.13209279,0.16405073,-33.54,4.02,-43.74
1554106687135,9.672575,-2.5911248,1.6418238,0.004261058,-0.112918034,0.17470337,-33.54,4.08,-43.74
1554106687154,9.548077000000001,-2.5528176,1.8333599999999999,0.03195793,-0.10439592,0.18748654,-33.54,4.14,-43.68
1554106687175,9.481038999999999,-2.332551,2.0440497,-0.014913702,-0.08841695,0.24927188,-33.54,4.2,-43.68
1554106687195,9.763555,-2.6150667999999997,1.8285716,-0.20240025,-0.047936900000000005,0.3536678,-33.54,4.14,-43.62
1554106687214,9.969456,-3.2375592999999996,1.8956091,-0.6348976,0.06285059999999999,0.5496765,-33.54,4.14,-43.56
1554106687234,10.036493,-3.7020345,2.0919337,-0.9044095,0.12570119999999999,0.6892261,-33.6,4.2,-43.5
1554106687254,10.146626,-4.1425676,2.5420437000000002,-1.2879047,0.22583607,0.95447695,-33.6,4.32,-43.44
1554106687274,9.931149000000001,-4.621408,2.5851393,-1.3401027,0.31318775,1.1899004,-33.66,4.56,-43.38
1554106687294,9.974244,-5.2199583,2.4319102999999997,-1.2250541000000001,0.41545314,1.4274544,-33.66,5.04,-43.26
1554106687314,9.998186,-6.067506,2.6952724,-1.1558118999999998,0.49215218,1.6362462,-33.66,5.7,-43.08
1554106687334,10.156203,-7.0826473,2.6617537000000002,-1.1259845,0.5795039000000001,1.8290591,-33.66,6.78,-42.96
1554106687354,10.180145,-7.6668324000000005,2.475006,-1.0908308,0.69348717,2.0133498,-33.48,7.98,-42.66
1554106687374,9.921572,-7.729081599999999,2.5420437000000002,-0.96086854,0.7978831000000001,2.2040322,-33.12,9.48,-42.3
1554106687394,9.634267999999999,-7.882310400000001,2.6426,-0.7797736,0.85966843,2.404302,-32.52,11.16,-41.94
1554106687415,9.548077000000001,-7.949348,2.417545,-0.6040049,0.89375687,2.5672874,-31.68,13.02,-41.52
1554106687435,9.294291000000001,-8.413822999999999,2.2164322999999997,-0.45273739999999996,0.9214538000000001,2.663161,-30.6,14.88,-41.16
1554106687454,9.141062,-8.313267,2.154183,-0.31638354,0.9257148000000001,2.7675571,-29.52,16.8,-40.8
1554106687474,8.858546,-8.002021000000001,1.7902644,-0.13741912,0.94595486,2.8581044999999996,-28.32,18.54,-40.38
1554106687495,8.48984,-7.6764092,1.6657659,-0.053263225,0.93849796,2.9316077000000003,-27.12,20.04,-40.02
1554106687515,8.101977999999999,-7.7578119999999995,1.8285716,-0.05539375,0.92038846,2.9901974,-25.92,21.36,-39.72
1554106687535,7.6710224,-8.030750999999999,1.6561891,-0.06924219,0.8841694999999999,2.9912627,-24.6,22.44,-39.54
1554106687554,7.067683000000001,-7.5710645,1.2491747,-0.14913702,0.8426242,2.98061,-23.1,23.34,-39.24
1554106687575,6.191406,-7.374739599999999,1.1677719,-0.29933932,0.7797736,2.9933932,-21.72,23.94,-39.0
1554106687594,5.559336,-7.3938932,0.44472298,-0.6444850000000001,0.6668556,3.0328077999999996,-20.34,24.36,-38.76
1554106687614,4.6495394999999995,-7.053917,0.5021838,-1.1249193000000002,0.49321744,3.0328077999999996,-18.72,24.66,-38.58
1554106687634,3.7301662,-7.1879919999999995,0.6841431,-1.3443637,0.32170987,2.9635658,-17.04,24.84,-38.4
1554106687655,3.2561142000000003,-8.126519,0.87567925,-1.5329156000000002,0.17257284,2.9273467,-15.42,24.9,-38.22
1554106687674,3.0741549999999997,-8.356361999999999,1.2443863000000002,-1.7459685,0.00958738,2.9060414,-13.8,25.14,-37.92
1554106687694,2.1021092,-8.940548,0.6075286999999999,-1.619202,-0.05752428,2.8261466,-12.3,25.56,-37.5
1554106687716,1.0295067,-8.96449,0.09995792,-1.4519554,-0.111852765,2.8794098,-10.98,26.22,-36.9
1554106687734,-0.10055647,-9.419388,0.018555064,-1.3379722,-0.17257284,2.9710226000000004,-9.66,26.94,-36.18
1554106687754,-0.9959879,-9.907805,0.109534726,-1.3358417,-0.24820662,3.0019152,-8.4,27.6,-35.34
1554106687774,-2.1547816,-10.310031,-0.15382746,-1.3081448,-0.3206446,2.9997847,-7.44,28.26,-34.56
1554106687795,-3.3854012000000004,-11.042657,-0.8960299999999999,-1.293231,-0.39308259999999995,2.9720879,-6.48,28.98,-33.78
1554106687814,-4.003105000000001,-10.879850999999999,-0.7906850999999999,-1.3997575,-0.5603291,2.9582393,-5.34,29.64,-33.0
1554106687837,-3.7205894,-9.500791,-0.20171149,-1.3156016000000001,-0.7978831000000001,2.9997847,-3.72,30.36,-31.92
1554106687854,-3.4620156000000004,-8.677185,0.25318682,-1.0727214,-0.86606,3.0700922000000004,-3.24,30.42,-31.62
1554106687874,-3.6248214,-8.356361999999999,0.13826515,-0.76912093,-0.9012136999999999,3.10205,-2.52,30.48,-31.2
1554106687896,-3.9025488,-7.5136037,0.47824179999999994,-0.37284255,-0.9044095,3.0445259,-1.32,30.12,-30.72
1554106687915,-4.1419687000000005,-7.0730705,-0.57999533,-0.19813919,-0.8692558000000001,2.9550436,-0.96,29.88,-30.6
1554106687934,-4.807557,-6.3643866,-0.74758947,-0.22264028,-0.83516735,2.8336034,-0.12,29.22,-30.3
1554106687955,-5.363012,-5.5264163,-0.14425065,-0.14061491,-0.79894835,2.6557042999999996,1.02,27.9,-29.94
1554106687974,-5.482722,-5.0523643,-0.57041854,-0.04474111,-0.7339671999999999,2.5363946,1.68,26.82,-29.82
1554106687995,-5.947197,-5.3540335,-0.74758947,-0.15659387,-0.7137272,2.3616912,2.28,25.5,-29.76
1554106688014,-6.3685765,-5.2199583,-0.27832595,-0.05752428,-0.67324716,2.1134846,2.82,23.94,-29.82
1554106688034,-6.378153299999999,-4.6405616,0.18614918,0.28229508,-0.62317973,1.9398465,3.3,22.32,-29.94
1554106688054,-6.315904,-4.109049,0.30107087,0.66579026,-0.5368933000000001,1.7353158,3.66,20.76,-30.12
1554106688074,-6.497863300000001,-3.6780925000000004,0.25318682,1.0056095999999999,-0.46658584,1.4572818,3.9,19.32,-30.48
1554106688095,-6.780379300000001,-3.6733038000000002,-0.30226797,1.1419635000000001,-0.39947417,1.220793,4.08,17.94,-30.9
1554106688115,-7.2352777,-3.7403417,-0.44113165,1.0045444,-0.38562572,1.010936,4.14,16.56,-31.44
1554106688135,-7.738060000000001,-3.481768,0.08559271,0.84688526,-0.39201729999999996,0.84688526,4.2,15.12,-31.92
1554106688154,-8.154651,-3.4865562999999993,0.40641573,0.7861651999999999,-0.39308259999999995,0.7435546,4.2,13.44,-32.4
1554106688174,-8.010999,-3.2902317,1.1198878,0.793622,-0.40266997,0.6743124,4.26,12.0,-33.0
1554106688195,-8.006210000000001,-3.2231941,1.3497312,0.76485986,-0.37390783,0.59867865,4.26,10.56,-33.54
1554106688215,-8.317456,-3.3764230000000004,1.0767921999999999,0.65726817,-0.3291667,0.49854377,4.26,9.24,-34.08
1554106688234,-8.623915,-3.3955764999999998,1.2683283,0.56459016,-0.2790993,0.43036684,4.26,7.92,-34.44
1554106688255,-8.762777999999999,-3.6062663,1.4167688999999999,0.5368933000000001,-0.24394555,0.36218992,4.2,6.6,-34.68
1554106688275,-8.7532015,-3.8839936,1.4598645000000001,0.6178534000000001,-0.22264028,0.31638354,4.14,5.34,-34.92
1554106688295,-8.461109,-3.6349967000000003,1.407192,0.72651035,-0.18429075,0.2727077,4.02,4.2,-35.16
1554106688315,-8.628703,-3.0843303,1.5556326,0.5933523,-0.14487597,0.22903186,3.96,3.36,-35.28
1554106688334,-8.829816000000001,-2.9358897,1.4215573000000001,0.33662358,-0.1438107,0.22370553,3.9,2.52,-35.46
1554106688354,-8.556877,-3.1322143,1.8189948,0.07243799,-0.12783173,0.26205507,3.78,1.8,-35.64
1554106688375,-8.446744,-3.4195184999999997,1.9003976999999999,-0.0063915867,-0.09587380000000001,0.257794,3.72,1.08,-35.88
1554106688394,-8.710106,-3.4913447,1.8285716,0.068176925,-0.06285059999999999,0.22690132,3.66,0.36,-36.06
1554106688414,-8.599973,-3.2040405,1.7136499,0.16724652,-0.05965481,0.21411815,3.54,-0.3,-36.3
1554106688435,-8.48984,-2.959832,1.6226702,0.28336033,-0.056459017,0.13954964,3.42,-0.84,-36.54
1554106688455,-8.561666,-2.7156234,1.5412674,0.37284255,-0.034088463,0.05006743,3.3,-1.2,-36.72
1554106688475,-8.585608,-2.8401217,1.2970588,0.31638354,-0.018109497,-0.0053263223,3.18,-1.56,-36.84
1554106688495,-8.853758000000001,-3.031658,1.1294646000000002,0.14274544,0.012783173500000002,0.002130529,3.06,-1.8,-36.9
1554106688515,-9.141062,-3.3716345000000003,1.2252326999999998,-0.13315806,0.01917476,-0.0053263223,3.0,-2.1,-36.96
1554106688534,-9.3421755,-3.3764230000000004,1.2539631000000002,-0.34088463,0.020240024,0.011717908999999999,2.94,-2.52,-36.96
1554106688555,-9.370906,-3.6014779000000003,1.359308,-0.42717105,0.007456851,0.041545313,2.88,-2.7,-36.96
1554106688575,-9.356541,-3.7355532999999994,1.3545196000000002,-0.43249738,-0.013848438000000001,0.06285059999999999,2.88,-2.94,-36.9
1554106688595,-9.198523,-3.7738605000000005,1.4838065,-0.32170987,-0.034088463,0.07030745599999999,2.88,-3.12,-36.9
1554106688615,-8.978256,-3.4147300000000005,1.7615339,-0.19174760000000002,-0.026631612000000002,0.099069595,2.94,-3.36,-36.84
1554106688635,-8.7771435,-3.103484,1.6370354,-0.04474111,-0.013848438000000001,0.111852765,2.94,-3.54,-36.84
1554106688656,-8.288725999999999,-3.0364463,1.407192,0.007456851,-0.012783173500000002,0.09161274,2.94,-3.66,-36.84
1554106688675,-8.121132000000001,-3.1322143,1.38325,-0.07563378,0.0010652645,-0.0031957934000000003,2.88,-3.72,-36.84
1554106688695,-8.274361,-3.3045970000000002,1.1821371,-0.12144015,0.020240024,-0.084155895,2.88,-3.66,-36.84
1554106688715,-8.6574335,-2.9215245,1.3640964,-0.16192019,0.047936900000000005,-0.16618125,2.82,-3.66,-36.9
1554106688735,-8.528147,-3.1657330000000004,1.1917138999999999,-0.08841695,0.03834952,-0.19174760000000002,2.82,-3.6,-36.9
1554106688756,-8.537724,-3.6062663,1.335366,0.053263225,0.041545313,-0.19920446,2.7,-3.48,-36.9
1554106688775,-8.322245,-3.5248635000000004,1.6609775000000002,0.2066613,0.06924219,-0.2066613,2.64,-3.42,-36.9
1554106688795,-8.714894000000001,-3.2854433,1.6753427,0.35792887,0.14487597,-0.26844665,2.58,-3.36,-36.9
1554106688815,-9.289502,-3.4530375,1.3688848,0.35792887,0.18322548,-0.27483824,2.58,-3.36,-36.96
1554106688834,-9.294291000000001,-3.9270894999999997,1.2443863000000002,0.31212249999999997,0.17470337,-0.24607609,2.58,-3.3,-36.96
1554106688855,-9.495403999999999,-3.7163997,1.6274586000000002,0.30360037,0.17363810000000002,-0.21198763,2.52,-3.18,-36.96
1554106688875,-9.68694,-3.6541502,1.6083049999999999,0.3334278,0.16192019,-0.17576863,2.52,-3.18,-36.96
1554106688895,-9.744401,-3.7020345,1.6561891,0.36645097,0.12357068,-0.13209279,2.52,-3.12,-36.96
1554106688915,-9.461885,-3.7211879999999997,1.6514006,0.43036684,0.06924219,-0.098004326,2.52,-3.12,-36.9
1554106688934,-9.131485000000001,-3.6206315000000004,1.9434932,0.49215218,0.047936900000000005,-0.06498113,2.58,-3.12,-36.78
1554106688956,-8.825027,-3.3189620000000004,1.8860323,0.5294364,0.013848438000000001,-0.05965481,2.58,-3.12,-36.66
1554106688974,-8.647857,-3.3620577000000003,1.8046296000000002,0.50173956,0.002130529,-0.07030745599999999,2.64,-3.18,-36.6
1554106688995,-8.528147,-3.7211879999999997,1.5364790000000002,0.43782368,-0.015978966,-0.10226539,2.64,-3.36,-36.48
1554106689014,-8.408437,-3.6206315000000004,1.3784616000000003,0.43569317,-0.027696876000000002,-0.13848437,2.7,-3.66,-36.48
1554106689034,-8.418014,-3.2279825,1.3257892,0.50173956,-0.035153727999999995,-0.17150758,2.7,-3.96,-36.42
1554106689055,-8.331821000000001,-3.031658,1.1198878,0.46125950000000004,-0.037284255,-0.221575,2.82,-4.26,-36.36
1554106689075,-8.360553,-3.1561562999999997,1.3545196000000002,0.39201729999999996,-0.03089267,-0.27057716,2.88,-4.5,-36.36
1554106689094,-8.552089,-3.1465794999999996,1.1965023000000001,0.30892670000000005,-0.012783173500000002,-0.30892670000000005,2.94,-4.8,-36.42
1554106689115,-8.959103,-3.2902317,1.2731166999999999,0.24714136,0.027696876000000002,-0.33129725,3.0,-5.1,-36.48
1554106689134,-9.203311,-3.2950199999999996,1.3257892,0.19174760000000002,0.047936900000000005,-0.32490566,3.06,-5.4,-36.54
1554106689155,-9.595961,-3.6062663,1.3305776000000002,0.07243799,0.080960095,-0.29827404,3.12,-5.7,-36.54
1554106689174,-9.907207000000001,-3.6110547,1.5556326,-0.06604639400000001,0.09054748,-0.24607609,3.18,-5.82,-36.54
1554106689194,-9.940725,-3.6110547,1.6753427,-0.17044231,0.07030745599999999,-0.16192019,3.24,-5.94,-36.48
1554106689214,-9.883265,-4.1282024,1.7136499,-0.19707392,0.040480047000000005,-0.06924219,3.24,-6.06,-36.54
1554106689234,-9.715671,-4.200028400000001,1.881244,-0.20026971,-0.0010652645,0.024501082,3.3,-6.24,-36.48
1554106689254,-9.346964,-4.123414,1.8956091,-0.16937704,-0.054328485999999995,0.111852765,3.3,-6.36,-36.42
1554106689274,-8.939949,-4.0707417,1.8477252,-0.12676647,-0.099069595,0.18109496,3.3,-6.48,-36.36
1554106689295,-8.571242,-3.8504747999999998,1.9003976999999999,-0.07243799,-0.13102753,0.221575,3.3,-6.6,-36.24
1554106689314,-8.413225,-3.697246,1.9339164,-0.023435817999999997,-0.15659387,0.23542345,3.3,-6.66,-36.18
1554106689335,-8.240842,-3.4386723,1.8237831999999998,-0.0053263223,-0.16618125,0.22583607,3.3,-6.72,-36.18
1554106689356,-8.24563,-3.328539,1.7711107,-0.012783173500000002,-0.15552860000000002,0.19281286,3.3,-6.72,-36.12
1554106689375,-8.236053,-3.256713,1.6657659,-0.00958738,-0.14061491,0.13848437,3.3,-6.72,-36.06
1554106689394,-8.322245,-3.141791,1.4790181,-0.029827405,-0.11824436,0.098004326,3.3,-6.72,-36.06
1554106689415,-8.537724,-3.141791,1.4646529,-0.080960095,-0.08948222,0.054328485999999995,3.3,-6.66,-36.12
1554106689435,-8.810661999999999,-3.0412347,1.3210008,-0.09374327,-0.060720075,0.017044231,3.3,-6.66,-36.12
1554106689455,-9.165004,-3.1848867000000003,1.3688848,-0.15233281,-0.02876214,-0.0010652645,3.3,-6.54,-36.18
1554106689475,-9.141062,-3.3524809999999996,1.2731166999999999,-0.19920446,-0.014913702,-0.011717908999999999,3.3,-6.54,-36.18
1554106689495,-9.212888000000001,-3.5727474999999997,1.4024036,-0.22690132,-0.0010652645,-0.0010652645,3.3,-6.54,-36.18
1554106689516,-9.184157,-3.5679589999999997,1.5269021,-0.221575,0.02130529,0.010652645,3.3,-6.48,-36.24
1554106689534,-9.160214999999999,-3.6924577000000003,1.6944963,-0.25140239999999997,0.024501082,0.01917476,3.3,-6.48,-36.3
1554106689555,-8.853758000000001,-3.946243,1.8381484000000001,-0.2972088,0.011717908999999999,0.053263225,3.24,-6.48,-36.36
1554106689574,-8.743625,-4.0707417,1.8764555,-0.27696875,0.012783173500000002,0.07243799,3.24,-6.48,-36.36
1554106689594,-8.853758000000001,-3.9845502,1.9003976999999999,-0.18109496,0.00958738,0.099069595,3.24,-6.42,-36.42
1554106689616,-8.791509,-3.7403417,1.7040731,-0.068176925,0.012783173500000002,0.12570119999999999,3.18,-6.36,-36.54
1554106689635,-8.781932000000001,-3.4626143,1.8381484000000001,-0.051132694000000006,0.010652645,0.11930962,3.18,-6.3,-36.54
1554106689655,-8.599973,-3.5057099999999997,1.8668787,-0.06498113,0.013848438000000001,0.06711166,3.18,-6.18,-36.6
1554106689675,-8.628703,-3.4530375,1.6609775000000002,-0.07243799,0.014913702,0.023435817999999997,3.12,-6.06,-36.72
1554106689695,-8.6574335,-3.481768,1.6801311,-0.05219796,0.020240024,0.004261058,3.12,-5.88,-36.72
1554106689715,-8.714894000000001,-3.4386723,1.4885948999999998,-0.013848438000000001,0.020240024,-0.03195793,3.12,-5.82,-36.78
1554106689735,-8.8777,-3.3045970000000002,1.4981716999999999,0.002130529,0.02130529,-0.05752428,3.06,-5.76,-36.84
1554106689756,-9.045294,-3.3812113,1.5173253,-0.002130529,0.017044231,-0.07350325,3.06,-5.7,-36.84
1554106689774,-9.035717,-3.3716345000000003,1.4024036,-0.027696876000000002,0.013848438000000001,-0.09054748,3.0,-5.64,-36.84
1554106689795,-9.054871,-3.5488055,1.6035166,-0.05219796,0.018109497,-0.07776430000000001,3.0,-5.52,-36.9
1554106689814,-9.107543,-3.4578260000000003,1.5939398,-0.046871635999999994,0.029827405,-0.06391586,2.94,-5.46,-36.9
1554106689834,-9.227253,-3.4961330000000004,1.584363,-0.033023197000000004,0.015978966,-0.046871635999999994,2.94,-5.46,-36.96
1554106689855,-9.198523,-3.5296519,1.5316905,-0.008522116,0.015978966,-0.004261058,2.94,-5.4,-36.96
1554106689875,-9.035717,-3.3955764999999998,1.632247,0.020240024,0.02130529,0.022370555,3.0,-5.4,-36.96
1554106689894,-8.8777,-3.2950199999999996,1.5077485000000002,0.025566347000000003,0.027696876000000002,0.041545313,3.06,-5.4,-36.96
1554106689916,-8.896853,-3.1465794999999996,1.5316905,0.013848438000000001,0.027696876000000002,0.054328485999999995,3.06,-5.34,-36.96
1554106689938,-8.887277000000001,-3.1561562999999997,1.4119805,-0.027696876000000002,0.03089267,0.07776430000000001,3.12,-5.34,-36.96
1554106689955,-8.959103,-3.2184057,1.3018471999999999,-0.10759171,0.026631612000000002,0.07030745599999999,3.18,-5.34,-36.96
1554106689975,-8.99741,-3.1800982999999996,1.4167688999999999,-0.13209279,0.025566347000000003,0.06604639400000001,3.18,-5.34,-36.96
1554106689995,-8.805874000000001,-3.2806550000000003,1.3018471999999999,-0.112918034,0.017044231,0.06178534,3.24,-5.34,-36.96
1554106690015,-8.8777,-3.2950199999999996,1.1965023000000001,-0.082025364,0.027696876000000002,0.05006743,3.24,-5.34,-36.96
1554106690035,-8.911219000000001,-3.2615013,1.4550761,-0.03195793,0.027696876000000002,0.053263225,3.3,-5.34,-36.96
1554106690054,-8.844180999999999,-3.342904,1.2252326999999998,0.0,0.039414786,0.06178534,3.3,-5.28,-36.96
1554106690074,-8.954314,-3.2423477000000003,1.1246762,-0.00958738,0.036218993,0.034088463,3.3,-5.28,-36.96
1554106690095,-8.973467999999999,-3.2806550000000003,1.3210008,-0.022370555,0.023435817999999997,0.02130529,3.3,-5.28,-36.96
1554106690115,-8.872911,-3.103484,1.407192,-0.03195793,0.024501082,-0.0010652645,3.3,-5.28,-36.96
1554106690135,-8.959103,-3.0747535,1.5699978,-0.06711166,0.025566347000000003,-0.01917476,3.36,-5.28,-36.96
1554106690155,-8.920795,-3.0891187,1.4359225,-0.07137272,0.025566347000000003,-0.027696876000000002,3.36,-5.28,-36.96
1554106690175,-8.968679,-2.9167361,1.4215573000000001,-0.07989483,0.020240024,-0.05219796,3.36,-5.28,-36.84
1554106690194,-8.858546,-2.9694088,1.5699978,-0.080960095,0.015978966,-0.07137272,3.3,-5.34,-36.78
1554106690214,-9.006986999999999,-2.9167361,1.632247,-0.07563378,0.018109497,-0.101200126,3.3,-5.34,-36.72
1554106690234,-9.093178,-2.5863364,1.5125369,-0.13848437,0.025566347000000003,-0.113983296,3.3,-5.34,-36.6
1554106690255,-8.987833,-2.1458032000000005,1.3545196000000002,-0.34940675,0.027696876000000002,-0.14807177,3.3,-5.34,-36.48
1554106690275,-8.805874000000001,-1.6861166,1.1773487,-0.7286409,0.037284255,-0.20772657,3.3,-5.34,-36.42
1554106690294,-8.532935,-1.5041572,0.95708215,-1.2676646999999999,0.068176925,-0.28975195,3.24,-5.28,-36.3
1554106690315,-7.967903,-1.4514848,1.1438298,-1.8333201000000001,0.1107875,-0.41971418,3.24,-5.1,-36.24
1554106690335,-7.2831616,-1.4131776000000003,1.5269021,-2.118811,0.18322548,-0.6178534000000001,3.24,-4.74,-36.18
1554106690355,-6.3350577,-1.0253168,1.5508442,-2.0442424,0.30040458,-0.8841694999999999,3.24,-4.02,-36.12
1554106690375,-5.4396260000000005,-1.0157399999999999,1.3976152,-1.7875136999999999,0.45167214,-1.2634037,3.24,-3.0,-36.12
1554106690395,-4.7022123,-1.2216414,1.158195,-1.5574166999999999,0.6562029,-1.7246631000000001,3.3,-1.62,-36.12
1554106690415,-4.237737,-0.95349085,1.4359225,-1.365669,0.9225190000000001,-2.295645,3.3,0.0,-36.06
1554106690435,-3.5673605999999998,-1.0444705,0.86610246,-1.200553,1.2676646999999999,-2.9987195,3.36,3.18,-35.82
1554106690454,-2.930503,-1.5376761,0.40162733,-1.1739215,1.4668691,-3.3907367999999996,3.42,4.32,-35.64
1554106690475,-2.0685901999999996,-2.8209682000000003,-0.7044938000000001,-1.1696603,1.7097494999999998,-3.8764973,3.54,6.84,-35.1
1554106690495,-2.0015526,-4.6261964,-1.7531542000000002,-1.1408982,2.05383,-4.386759,3.66,10.8,-34.02
1554106690515,-2.0159178,-5.875969400000001,-3.2615013,-1.2154667,2.2668827,-4.660532,3.72,13.68,-33.06
1554106690535,-1.7956512999999998,-6.9150529999999995,-4.506486,-1.6394419999999998,2.3616912,-4.8117995,3.78,16.62,-31.86
1554106690555,-1.1731589,-9.223063,-6.091448000000001,-2.271144,2.3457124,-4.778776000000001,3.84,19.8,-30.42
1554106690575,-0.095768064,-9.366715,-7.1209545,-3.2128377,2.3041669999999996,-4.4698496,3.78,23.22,-28.8
1554106690594,0.4261679,-9.807249,-6.5511346,-3.8445394,2.3425164,-4.137487,3.6,24.9,-27.9
1554106690615,0.8810662,-11.483189999999999,-6.0244102,-3.5494611000000003,2.4245419999999998,-3.6229644,2.52,30.48,-24.78
1554106690636,1.5514427,-12.05301,-10.482413000000001,-2.606702,2.5704832000000004,-3.097789,1.56,34.2,-22.68
1554106690654,0.91458505,-11.708245,-11.890203999999999,-2.6514432,2.3947146,-2.7867317000000003,0.6,37.8,-20.22
1554106690674,0.51235914,-10.870275,-12.32116,-2.9827404,2.122007,-2.5310683,-0.54,41.1,-17.58
1554106690695,0.7182605,-10.367492,-10.530297000000001,-3.1265512,1.8919096999999998,-2.1241374,-1.8,44.22,-14.88
1554106690714,1.6807296000000003,-10.717046,-9.859921,-2.6088326,1.7694043000000002,-1.7587515999999999,-3.24,46.8,-12.06
1554106690734,2.6623523,-11.492766,-10.9899845,-1.8237327,1.5616777,-1.2495551999999999,-4.92,48.84,-9.24
1554106690755,2.7102362999999996,-11.090541,-10.779295,-0.87351686,1.2964269,-0.94808537,-6.24,50.46,-6.72
1554106690775,2.3558946,-10.099341,-10.621277000000001,0.029827405,1.0279802,-0.6562029,-7.44,51.48,-4.5
1554106690794,2.3223755,-9.20391,-9.601347,0.5113269,0.7520766999999999,-0.4261058,-8.52,52.14,-2.52
1554106690815,2.432509,-9.069835000000001,-9.620500999999999,0.6327670999999999,0.531567,-0.24607609,-9.6,52.62,-1.02
1554106690835,2.705448,-10.290877,-8.619724,1.0428939,0.18002969,0.002130529,-10.62,52.8,0.18
1554106690854,2.5809495,-10.784083,-8.078635,1.8024273999999998,0.01917476,0.16192019,-11.4,52.8,0.96
1554106690874,2.054225,-11.100118,-7.5136037,3.2458607999999995,-0.18216023,0.29507825,-11.94,52.74,1.38
1554106690895,1.958457,-11.660361,-6.8049197,4.332430400000001,-0.33449304,0.36218992,-12.12,52.74,1.5
1554106690915,2.0829554,-13.293206,-4.9661726999999996,5.752428,-0.5113269,0.386691,-12.24,52.74,1.14
1554106690935,2.4468741,-14.092870000000001,-4.401141,7.786017999999999,-0.5571333,0.3153183,-12.06,52.8,-0.06
1554106690955,2.6862943,-12.83352,-4.970961,9.580989,-0.330232,0.24607609,-11.82,52.68,-1.98
1554106690975,2.4420857000000002,-11.444882000000002,-3.8313212,10.257431,-0.083090626,0.28016454,-11.34,52.08,-4.8
1554106690995,2.1212628,-10.180744,-2.1936872000000003,10.102967999999999,0.04261058,0.28122982,-11.04,50.52,-8.52
1554106691015,2.0638018,-9.275736,-0.26874915,9.873937,0.13741912,0.24181503,-10.68,47.76,-13.02
1554106691035,2.1452047999999997,-8.428188,0.82779527,9.719472999999999,0.22903186,0.25353295,-10.32,43.98,-18.0
1554106691055,2.3127987,-7.5327573,2.3026235,9.349826,0.3291667,0.3057309,-10.02,39.0,-23.28
1554106691075,2.1260512,-6.0627174,2.9921536,8.742625,0.36005938,0.21731395,-9.9,32.1,-28.5
1554106691095,1.7286136000000003,-3.6780925000000004,3.470994,7.65499,0.26631612,-0.008522116,-9.84,24.24,-33.12
1554106691115,1.9440918000000003,-1.0779893,4.1892543,6.0443106,0.13954964,-0.14807177,-9.78,15.72,-36.9
1554106691134,2.3319526,1.2826935,5.295376,3.9755669,0.082025364,-0.040480047000000005,-9.84,6.72,-39.84
1554106691155,2.6144682999999995,1.2060791000000002,6.880337,1.9590213,0.08735169,0.21837921,-9.84,-1.74,-41.7
1554106691174,2.552219,-0.55605334,8.240244,0.5187838,0.10759171,0.39627838,-9.78,-9.36,-42.66
1554106691194,2.4995465,-2.107496,8.843582000000001,-0.037284255,0.12463594,0.34834146,-9.78,-16.14,-43.02
1554106691214,2.2218192,-2.5767596,9.035119,0.04261058,0.12037488,0.19068234,-9.84,-21.78,-43.02
1554106691235,2.087744,-2.3277626000000002,9.059061,0.37071204,0.13315806,0.068176925,-9.72,-25.5,-42.6
1554106691254,1.8100165000000001,-1.8872293999999998,8.604161999999999,0.5592638000000001,0.1438107,-0.03089267,-9.66,-28.38,-42.18
1554106691274,1.1875241,-0.87687635,7.7949224,0.43995422,0.09054748,-0.111852765,-9.66,-30.42,-41.76
1554106691294,1.0630256,-0.25438392,7.6847887,-0.03195793,-0.024501082,-0.09161274,-9.66,-31.5,-41.46
1554106691314,1.2018893,-0.44592008,7.498041000000001,-0.7286409,-0.19920446,-0.014913702,-9.72,-32.34,-41.16
1554106691334,1.4939818,-0.7811083000000001,7.5219830000000005,-1.8386464,-0.34621096,-0.0010652645,-9.78,-32.58,-41.1
1554106691355,1.8626889,-1.3509283,7.2203135,-2.7260117999999998,-0.46125950000000004,-0.002130529,-9.78,-32.64,-41.1
1554106691375,2.0111293999999997,-2.059612,6.5307837,-3.5302862999999998,-0.5209143,-0.0031957934000000003,-9.78,-32.58,-41.1
1554106691395,2.135628,-2.6102784,5.506065400000001,-4.2557316,-0.5251754,-0.07882957,-9.9,-31.8,-41.22
1554106691416,2.2026656000000004,-3.1800982999999996,4.4765587,-4.9129996,-0.51452273,-0.24181503,-10.02,-30.36,-41.58
1554106691435,2.1547816,-3.9749733999999997,3.5236663999999998,-5.586247,-0.51771855,-0.4250405,-10.2,-28.2,-42.12
1554106691455,2.2601264,-4.774636699999999,2.891597,-6.1732078,-0.55074173,-0.6125271,-10.38,-25.38,-42.66
1554106691475,2.4420857000000002,-5.507262,1.9722236000000002,-6.5993133,-0.5581986,-0.8245146999999999,-10.5,-21.6,-43.26
1554106691495,2.8874072999999996,-6.1967926,1.7184383,-6.908239999999999,-0.5454154,-1.0599382,-10.74,-16.98,-43.8
1554106691516,3.7780502,-7.3460092999999995,0.9235633,-7.0914655,-0.45273739999999996,-1.4072143999999998,-11.1,-11.4,-44.04
1554106691534,4.5298295,-7.8009076,0.5117606,-7.155380999999999,-0.3653857,-1.6160061000000001,-11.52,-5.1,-44.1
1554106691554,5.3103394999999995,-8.174403,0.27712885,-7.0424633000000005,-0.12357068,-1.8759307,-12.0,1.5,-43.62
1554106691575,5.8083334,-8.5383215,-0.12988544,-6.6078353000000005,0.26525086,-2.1007016,-12.48,8.28,-42.24
1554106691595,6.143522,-8.471283999999999,-0.19213470000000002,-5.853628,0.67963874,-2.3041669999999996,-12.96,15.0,-40.26
1554106691615,7.067683000000001,-8.629301,-0.6326678000000001,-4.4826326,1.1845741,-2.4959147,-13.5,21.66,-37.68
1554106691634,7.9248075,-8.983644,-2.4235306,-3.3598442000000004,1.6479641,-2.521481,-14.34,27.66,-34.68
1554106691654,8.738836000000001,-9.098564999999999,-3.0125043,-2.8250813,2.0186759999999997,-2.509763,-15.18,32.94,-31.5
1554106691675,9.610325999999999,-9.634866,-2.9694088,-2.2977755,2.396845,-2.5715485,-15.96,37.26,-28.2
1554106691695,10.017339999999999,-9.955689,-2.4091654,-1.7459685,2.5065672,-2.51722,-16.74,40.62,-24.84
1554106691715,10.390836,-10.875063,-2.1027076,-0.93849796,2.4117587000000005,-2.2764702000000003,-17.58,43.14,-21.72
1554106691735,10.409989,-11.535862,-2.9311013,0.128897,2.1869879,-1.9931098000000003,-18.42,44.76,-18.96
1554106691754,9.275136999999999,-10.870275,-3.6062663,1.051416,1.8216022,-1.73212,-19.38,45.54,-16.5
1554106691775,8.250419,-9.831191,-3.5440169999999998,1.6064188,1.2378373,-1.4402375,-20.22,45.72,-14.46
1554106691794,8.09719,-8.883087,-2.806603,1.8258631999999997,0.63915867,-1.0684601999999999,-20.88,45.54,-12.84
1554106691814,8.183380999999999,-8.102577,-2.3900118,1.6437031000000002,0.22264028,-0.6487460999999999,-21.48,45.3,-11.52
1554106691835,7.915230800000001,-7.662044,-1.9494787,1.2250541000000001,-0.047936900000000005,-0.25033715,-22.08,45.0,-10.56
1554106691854,7.5608889999999995,-7.848791599999999,-2.083554,0.87032104,-0.23116238,0.056459017,-22.74,44.7,-10.32
1554106691876,7.273585000000001,-8.638878,-2.1601684,0.6508765999999999,-0.36325517,0.30360037,-23.4,44.52,-10.68
1554106691895,7.015011,-9.649231,-1.5233108,0.77231675,-0.4889564,0.51665324,-23.94,44.34,-11.28
1554106691914,7.2975270000000005,-9.907805,-1.2982559,1.2271847,-0.6135923000000001,0.7520766999999999,-24.36,44.4,-12.18
1554106691935,7.6710224,-10.056246,-0.9008184000000001,1.8311896,-0.7137272,0.99495703,-24.78,44.58,-13.26
1554106691955,7.972691499999999,-10.731411,0.16220717,2.6674222999999997,-0.76485986,1.2154667,-25.08,44.76,-14.46
1554106691974,8.461109,-10.846333,0.39683893,3.4844801,-0.74035877,1.4935007,-25.14,44.94,-16.02
1554106691995,9.11712,-10.310031,-0.52253455,3.6218991000000003,-0.70627034,1.8663433999999997,-25.08,44.94,-17.88
1554106692014,8.99741,-10.477625,0.17178397,3.255448,-0.5933523,2.1869879,-24.84,44.46,-19.8
1554106692036,8.24563,-11.234193,0.75118077,2.8996499,-0.48043427,2.4714136000000004,-24.42,43.56,-21.66
1554106692055,8.5473,-11.890203999999999,0.85652566,2.449043,-0.43462790000000007,2.83893,-23.88,42.42,-23.7
1554106692076,8.767567,-12.177508,1.0815806000000001,1.9909793000000002,-0.34514567,3.1489217000000003,-23.22,40.92,-25.98
1554106692095,7.776367,-11.9333,0.98102415,1.7267936000000002,-0.16298546,3.4408042,-22.08,38.16,-29.4
1554106692115,7.522581599999999,-11.938088,1.1007341999999998,1.6511599,-0.113983296,3.6123117999999996,-21.66,37.14,-30.48
1554106692135,7.3166804,-11.148002,1.3162124,1.7757957999999998,-0.025566347000000003,3.7880805,-20.4,34.02,-33.3
1554106692156,6.794744500000001,-10.118495,1.4215573000000001,1.9259981,0.07563378,3.8434741000000003,-19.44,32.16,-34.74
1554106692174,6.1483099999999995,-9.199121,1.9195513,2.1081583,0.20453078,3.8903458,-18.3,30.54,-36.0
1554106692195,5.434838,-8.049905,1.8285716,2.4383903,0.3749731,3.8253646,-16.98,28.8,-37.2
1554106692214,4.7884035,-6.637326,1.5221136999999998,2.6152241000000003,0.5209143,3.657053,-15.72,26.94,-38.34
1554106692234,4.1706996,-5.239112,1.5125369,2.6205506,0.67218184,3.387541,-14.46,24.6,-39.06
1554106692255,3.2992098,-3.9606082000000002,1.584363,2.4778051,0.79042625,3.0072415,-13.26,22.08,-39.78
1554106692274,2.4756044999999998,-2.9406781000000004,1.1486181999999998,2.2210765,0.86499476,2.6162896,-12.06,19.14,-40.44
1554106692294,1.6950948000000001,-2.4235306,1.0049661,1.8951055,0.87777793,2.2381206000000002,-11.04,16.08,-40.98
1554106692315,0.91458505,-2.107496,0.97144735,1.5425029,0.7850999,1.824798,-10.14,12.84,-41.46
1554106692335,0.17238252,-1.7435773999999997,1.3018471999999999,1.1973573,0.5954828000000001,1.3560816,-9.42,9.48,-41.94
1554106692355,-0.30166942,-1.5951369,1.5795746000000002,0.90014845,0.33129725,0.87138635,-8.76,6.24,-42.24
1554106692375,-1.0007763,-1.4562732,1.9482816000000003,0.6412892,0.04474111,0.4165184,-8.22,3.54,-42.48
1554106692395,-1.2401965,-3.0172927000000005,2.3840263,0.28016454,-0.4250405,-0.043675844000000005,-7.86,1.38,-42.72
1554106692415,-1.4317327,-4.6405616,3.5571851999999997,-0.25566345,-0.79255676,-0.30679616,-7.5,-0.42,-43.02
1554106692435,-1.9201498,-6.239888,5.027225,-0.51771855,-1.1685951,-0.5581986,-7.26,-1.68,-43.26
1554106692455,-2.0829554,-7.283760000000001,6.2099605,-0.44528055,-1.4231933,-0.6849651,-7.08,-2.64,-43.5
1554106692474,-1.1540052,-8.93576,7.498041000000001,0.06285059999999999,-1.6767261999999998,-0.67218184,-7.08,-3.36,-43.74
1554106692495,0.07182605,-10.563816000000001,8.005612,0.5763081,-1.7118799999999998,-0.5251754,-7.32,-3.78,-43.86
1554106692514,0.8331822,-10.798449,8.110957,1.0833739,-1.5435683,-0.39201729999999996,-7.92,-4.02,-43.86
1554106692535,1.0582372,-10.444106,8.015189,1.4093448999999998,-1.2687298999999999,-0.20453078,-8.7,-4.26,-43.86
1554106692555,1.2258313,-9.534309,7.6847887,1.4615428,-0.9672601000000001,0.05539375,-9.6,-4.44,-43.98
1554106692575,1.4748282,-8.4425535,7.627327999999999,1.2676646999999999,-0.7052050999999999,0.30146983,-10.5,-4.86,-44.1
1554106692595,1.733402,-7.2885485,7.1963716,0.9651296,-0.42184472,0.45699844,-11.4,-5.52,-44.34
1554106692615,1.3886370000000001,-6.4362125,6.7941460000000005,0.66152924,-0.11717909,0.50813115,-12.3,-6.36,-44.58
1554106692635,0.9576806999999999,-5.6844335,6.2626333,0.36432046,0.113983296,0.50600064,-13.08,-7.44,-44.88
1554106692655,0.6991069000000001,-5.133767,5.869984,0.051132694000000006,0.24501082,0.44528055,-13.62,-8.58,-45.12
1554106692675,0.7613561,-4.717176,5.8604074,-0.22903186,0.3174488,0.30786142,-14.04,-9.72,-45.36
1554106692694,0.47884035,-4.257489,5.893926,-0.38562572,0.3898868,0.13209279,-14.28,-10.8,-45.6
1554106692715,0.24420857,-4.0420110000000005,6.0663085,-0.44208476,0.41971418,-0.05965481,-14.4,-11.82,-45.72
1554106692735,0.39743748,-4.0372224,6.3153057,-0.37710363,0.39947417,-0.2695119,-14.46,-12.48,-45.84
1554106692755,0.8475474000000001,-4.836886,6.612186400000001,-0.20559604,0.31957933,-0.47723848,-14.52,-12.84,-45.84
1554106692775,1.4221559,-5.7418942,7.153275999999999,0.10226539,0.22050974,-0.62531024,-14.52,-12.96,-45.84
1554106692795,1.5993267,-5.8185085999999995,7.838017999999999,0.628506,0.14274544,-0.7435546,-14.52,-12.78,-45.78
1554106692816,1.3503298000000001,-5.148132299999999,8.273763,1.2410331000000001,0.058589544,-0.82557994,-14.52,-12.54,-45.78
1554106692835,0.90021986,-4.6261964,7.8954787,1.7257284,-0.053263225,-0.85540736,-14.46,-12.3,-45.78
1554106692855,0.17717093,-4.415506400000001,7.555502000000001,1.8908445,-0.17896444,-0.8404937,-14.28,-12.18,-45.78
1554106692875,-1.283292,-4.549582,7.7997108,1.5723303999999998,-0.28016454,-0.8149273,-14.16,-12.3,-45.72
1554106692895,-3.371036,-4.851251,8.379107000000001,0.90654004,-0.45486793,-0.85753787,-14.04,-12.78,-45.66
1554106692915,-2.8682537,-5.593454,8.829217,-0.022370555,-0.7946873000000001,-0.7776430000000001,-13.74,-14.1,-45.66
1554106692935,-1.3455413999999999,-6.9725137,9.106945,-0.47830373,-0.9129315999999998,-0.50387007,-13.56,-15.06,-45.6
1554106692955,-0.272939,-7.9062524000000005,9.135675,-0.5592638000000001,-0.7797736,-0.29507825,-13.44,-16.14,-45.6
1554106692974,0.07182605,-8.049905,8.766967999999999,-0.37390783,-0.51665324,-0.19813919,-13.32,-17.1,-45.54
1554106692994,0.24899697,-7.5183919999999995,8.16363,-0.11717909,-0.2790993,-0.10759171,-13.26,-17.94,-45.54
1554106693015,1.0055646999999999,-6.737882000000001,7.641692999999999,0.0010652645,-0.101200126,0.02130529,-13.32,-18.48,-45.54
1554106693035,1.3455413999999999,-6.469731299999999,7.450157000000001,-0.029827405,0.013848438000000001,0.08628642,-13.38,-18.66,-45.54
1554106693055,1.9201498,-5.1624975,7.000047,-0.26844665,0.16405073,0.06178534,-13.62,-18.66,-45.6
1554106693075,2.0494366000000004,-4.573524,6.832453299999999,-0.5635249,0.23861924,0.0053263223,-13.86,-18.36,-45.6
1554106693095,2.0781669999999997,-4.147355999999999,6.545148999999999,-0.8223841999999999,0.29614353,-0.047936900000000005,-14.1,-18.12,-45.66
1554106693115,1.6472107,-4.0420110000000005,6.3105173,-0.9683254000000001,0.3270362,-0.13741912,-14.34,-17.82,-45.66
1554106693135,1.2785037000000001,-3.9845502,6.2530565000000005,-0.99495703,0.30146983,-0.2545982,-14.52,-17.52,-45.72
1554106693155,1.0630256,-3.8744167999999997,6.3344593,-0.92038846,0.19920446,-0.40373522,-14.7,-17.04,-45.72
1554106693175,1.13964,-3.6685154000000004,6.0040593,-0.813862,0.05965481,-0.59867865,-14.7,-16.38,-45.72
1554106693195,1.1875241,-4.152144399999999,6.214748999999999,-0.8863,-0.1107875,-0.8000136,-14.52,-15.54,-45.72
1554106693216,1.4413095,-5.4354362,6.693589,-1.1952267,-0.3270362,-0.9864349,-14.28,-14.52,-45.72
1554106693235,1.6519991000000003,-6.1153900000000005,6.846818400000001,-1.2985574,-0.45806372,-1.0301107,-14.04,-13.38,-45.72
1554106693255,1.8100165000000001,-6.962936999999999,7.0766615999999996,-1.2218584,-0.53795856,-0.98856544,-13.74,-12.06,-45.72
1554106693274,1.958457,-7.379528,6.8132997,-1.1142666,-0.55074173,-0.8863,-13.5,-10.68,-45.72
1554106693294,1.9488802,-7.585429700000001,6.6600703999999995,-1.0737866000000003,-0.5368933000000001,-0.82557994,-13.44,-9.12,-45.72
1554106693315,1.8626889,-7.5519110000000005,6.2626333,-1.0354371,-0.49747851,-0.8032094,-13.38,-7.62,-45.72
1554106693334,2.1452047999999997,-7.9301944,6.2099605,-1.0482203,-0.46232477,-0.7637946,-13.38,-6.42,-45.72
1554106693355,2.7772740000000002,-8.667608,6.2482677,-0.99069595,-0.4165184,-0.74035877,-13.5,-5.4,-45.72
1554106693375,3.2609026,-8.701127,5.855619,-0.7456851,-0.31851408,-0.75633776,-13.74,-4.44,-45.72
1554106693394,3.4189199999999995,-8.341997000000001,5.218761,-0.44954160000000004,-0.17789917,-0.7861651999999999,-13.98,-3.48,-45.72
1554106693415,3.4284968,-7.891887,5.0320134,-0.34408042,-0.09267801,-0.7669904000000001,-14.22,-2.46,-45.72
1554106693435,3.4428620000000003,-7.480085000000001,5.089474,-0.38562572,-0.07137272,-0.7073356,-14.52,-1.44,-45.66
1554106693455,3.5817258,-7.307702000000001,5.1900306,-0.50387007,-0.054328485999999995,-0.6498113,-14.7,-0.48,-45.66
1554106693475,3.4237084,-7.365163000000001,5.233126,-0.8021441,-0.026631612000000002,-0.5635249,-14.82,0.3,-45.6
1554106693495,3.3806129,-7.4465656000000005,5.4007206,-1.0056095999999999,-0.002130529,-0.5123922000000001,-15.0,1.26,-45.54
1554106693515,3.2752678,-7.834426400000001,5.209184,-1.0844392,-0.014913702,-0.4644553,-15.18,2.28,-45.42
1554106693536,3.1794999,-7.9876556,5.1660886,-1.0471549,-0.011717908999999999,-0.42290998,-15.3,3.42,-45.36
1554106693554,2.9592332999999997,-7.9828672,5.1660886,-0.93636745,0.00958738,-0.41864893,-15.42,4.5,-45.24
1554106693574,2.96881,-8.025963,5.142146599999999,-0.83516735,0.002130529,-0.42397526,-15.48,5.58,-45.12
1554106693594,3.0310593,-8.341997000000001,5.0080714,-0.753142,-0.029827405,-0.45167214,-15.54,6.6,-45.0
1554106693615,3.2034418999999996,-8.289325,5.003283000000001,-0.6306366,-0.02130529,-0.49641323,-15.54,7.62,-44.82
1554106693635,3.2321722999999998,-8.519167999999999,4.859630999999999,-0.49428272,-0.008522116,-0.5219796,-15.6,8.52,-44.58
1554106693658,3.4045547999999997,-8.4664955,4.634576,-0.38029942,0.033023197000000004,-0.51771855,-15.6,9.78,-44.1
1554106693675,3.3662476999999997,-8.284536,4.481347,-0.3717773,0.060720075,-0.5390238,-15.6,10.14,-43.98
1554106693694,3.1651347000000003,-8.040328,4.4238862999999995,-0.49534798,0.080960095,-0.5603291,-15.66,10.86,-43.74
1554106693715,3.1172507,-8.140884,4.3568487000000005,-0.69668293,0.054328485999999995,-0.53795856,-15.66,11.58,-43.5
1554106693735,3.2082303,-8.179192,4.0120835,-0.79681784,0.035153727999999995,-0.53263223,-15.72,12.3,-43.26
1554106693755,3.2513257999999996,-8.016386,4.079121,-0.86392945,0.03834952,-0.5400891,-15.84,12.9,-43.02
1554106693775,3.1794999,-7.939771,3.9546227,-0.90973586,0.053263225,-0.5368933000000001,-15.9,13.56,-42.84
1554106693795,3.3854012000000004,-8.418612,4.217984700000001,-0.8181231,0.03089267,-0.5422196,-15.96,14.7,-42.6
1554106693815,3.4763808,-8.356361999999999,3.696049,-0.5763081,0.015978966,-0.57417756,-16.02,15.42,-42.48
1554106693835,3.6056678,-8.227076,3.4039562000000005,-0.4825648,0.011717908999999999,-0.5784385999999999,-16.08,16.2,-42.18
1554106693855,3.4715924,-8.18398,3.7582982000000005,-0.39095205,-0.011717908999999999,-0.65194184,-16.14,16.98,-41.94
1554106693874,3.2561142000000003,-8.270171000000001,4.1413703,-0.11504856,-0.040480047000000005,-0.67005134,-16.2,17.7,-41.64
1554106693894,3.3135752999999997,-8.907029,4.0025067000000005,0.24927188,-0.080960095,-0.69987875,-16.26,18.36,-41.4
1554106693915,3.7828386,-9.759364999999999,4.577115,0.5486112,-0.15978967,-0.793622,-16.32,18.9,-41.1
1554106693935,4.486733999999999,-9.903017,4.648941000000001,1.128115,-0.19281286,-0.9012136999999999,-16.44,19.32,-40.92
1554106693955,5.142745,-9.20391,4.466982,1.7928401000000003,-0.16298546,-0.97897804,-16.68,19.56,-40.74
1554106693975,5.5018754,-8.298902,4.2945995,2.2700787,-0.094808534,-1.0258497,-16.92,19.62,-40.74
1554106693994,6.047753299999999,-7.140108000000001,3.7343562000000006,2.3798008,-0.02876214,-1.0258497,-17.22,19.2,-40.86
1554106694014,6.5840545,-6.2781954,3.0831332000000002,2.1273332000000003,0.015978966,-1.0162623,-17.46,18.18,-41.16
1554106694035,6.9623384,-5.6700683,3.3512837999999996,1.6170714,0.09587380000000001,-1.0098706,-17.76,16.74,-41.64
1554106694055,7.4028716,-5.2726307,3.3464954,1.0833739,0.17150758,-1.0343717,-18.0,15.12,-42.18
1554106694075,7.1969705,-4.779425,3.3464954,0.5539375,0.24820662,-1.0588728,-18.3,13.44,-42.78
1554106694094,7.1730285,-4.702811,3.3081882000000005,-0.060720075,0.294013,-1.0045444,-18.54,11.52,-43.44
1554106694115,7.240066000000001,-4.487332299999999,3.6433763999999997,-0.6327670999999999,0.30466563,-0.95234644,-18.72,9.66,-44.04
1554106694135,7.153875,-4.472967,4.040814,-1.1483551,0.31957933,-0.8671253000000001,-18.9,7.92,-44.52
1554106694154,6.8905125,-4.563947,4.2275615,-1.4050837999999999,0.350472,-0.74461985,-19.02,6.6,-44.94
1554106694174,6.555324000000001,-4.654927,3.8349125,-1.5701998,0.27057716,-0.608266,-19.2,5.76,-45.24
1554106694194,6.6941880000000005,-5.430648000000001,3.9067385000000003,-1.7683389999999999,0.20772657,-0.44528055,-19.32,5.4,-45.3
1554106694215,6.861782000000001,-6.067506,3.9833531000000004,-1.6703346999999997,0.2066613,-0.39308259999999995,-19.38,5.76,-45.3
1554106694234,6.6510925,-6.579865,4.2945995,-1.3369069,0.24074976,-0.3898868,-19.32,6.48,-45.18
1554106694255,6.6893997,-6.6516910000000005,4.3329067000000006,-0.94808537,0.28549087,-0.406931,-19.2,7.62,-45.0
1554106694275,6.6941880000000005,-6.4601545,4.079121,-0.6040049,0.3206446,-0.46232477,-19.08,9.0,-44.7
1554106694294,6.670246000000001,-6.287772,3.9498343,-0.39308259999999995,0.3323625,-0.46232477,-18.96,10.38,-44.4
1554106694314,6.895301,-6.4266357,3.8540661,-0.294013,0.3270362,-0.4250405,-18.84,11.76,-44.1
1554106694335,6.9048777,-6.359598,3.7870286,-0.2908172,0.34727620000000003,-0.4261058,-18.66,13.32,-43.74
1554106694355,6.933608,-6.517616,3.7199910000000003,-0.38562572,0.35473305,-0.42290998,-18.54,14.7,-43.44
1554106694375,6.8186865,-6.637326,3.2746694,-0.535828,0.3568636,-0.40053943,-18.42,15.6,-43.2
1554106694395,6.9527617,-6.5271926,3.020884,-0.6924219,0.38562572,-0.33555830000000003,-18.3,16.32,-42.9
1554106694415,6.732495299999999,-6.589442,3.4997244,-0.7765778,0.386691,-0.21092236,-18.06,16.86,-42.72
1554106694435,5.8226986,-6.7283053,2.7240029999999997,-0.92038846,0.24501082,-0.04580637,-17.82,17.28,-42.54
1554106694455,7.129933,-6.512827400000001,3.3273417999999997,-0.89162636,0.10226539,0.047936900000000005,-17.58,17.82,-42.42
1554106694475,6.3589997,-6.541558,2.2164322999999997,-0.89375687,-0.080960095,0.14168017,-17.34,18.42,-42.3
1554106694495,6.775591,-6.4840965,2.7527334999999997,-0.95660746,-0.2034655,0.29188246,-17.04,19.02,-42.12
1554106694515,6.6079965,-6.7666125,2.5995044999999997,-0.74675035,-0.29507825,0.5219796,-16.8,19.74,-41.88
1554106694535,6.703765,-6.9150529999999995,2.3983915000000002,-0.5273059,-0.37390783,0.70627034,-16.62,20.58,-41.52
1554106694555,6.6893997,-6.666056,2.1015105,-0.41545314,-0.43036684,0.78296936,-16.5,21.42,-41.1
1554106694575,6.493075,-6.9677253,1.3976152,-0.69774824,-0.49002165,0.9108011,-16.5,22.62,-40.56
1554106694595,6.445191,-6.9916677,1.0384849,-1.470065,-0.55074173,1.0088054,-16.5,23.4,-40.08
1554106694614,6.2105594,-7.101800999999999,1.062427,-2.1454427000000003,-0.59761333,1.0961571,-16.5,24.18,-39.6
1554106694636,6.066907,-7.5471225,1.0576386,-2.6823359,-0.6487460999999999,1.1888351000000001,-16.5,25.02,-39.06
1554106694655,5.765238,-8.160038,0.7368156,-2.9603697999999996,-0.71479243,1.2591426000000001,-16.5,26.28,-38.28
1554106694675,5.621585400000001,-8.806473,0.15263036,-2.973153,-0.7595335999999999,1.2697952,-16.44,27.66,-37.5
1554106694695,5.4683566,-9.20391,-0.29747957,-2.8133633,-0.76485986,1.2474246999999998,-16.38,29.1,-36.66
1554106694715,5.1475334,-9.242217,-0.670975,-2.534264,-0.75101143,1.2069446000000001,-16.38,30.78,-35.64
1554106694737,4.9512089999999995,-9.247005,-0.7667431,-2.2008363999999996,-0.7105314,1.1771171999999999,-16.32,32.76,-34.44
1554106694754,4.5298295,-9.017161999999999,-0.99658644,-1.9355855,-0.67324716,1.1323761,-16.32,34.8,-33.06
1554106694776,4.0462008,-9.309255,-1.0636241000000002,-1.8013622,-0.67963874,1.0887003,-16.26,37.02,-31.56
1554106694795,3.6583402,-9.610924,-1.7052702000000002,-1.6415724999999999,-0.7041398,1.0333065000000001,-16.14,39.12,-29.94
1554106694814,3.5146879999999996,-9.826402999999999,-2.356493,-1.5009576,-0.74675035,0.9917611999999999,-15.96,40.68,-28.5
1554106694835,3.4237084,-9.788095,-2.710835,-1.4274544,-0.8181231,0.9310411,-15.72,42.06,-27.12
1554106694855,3.5242648,-9.385869,-2.9885623,-1.320928,-0.8745821,0.9416938,-15.42,43.32,-25.8
1554106694876,3.1747115000000004,-9.247005,-3.6493617999999994,-1.1845741,-0.88949585,0.9779128,-15.06,44.34,-24.6
1554106694894,2.858677,-9.452907000000002,-4.0563765,-1.2154667,-0.9555421999999999,1.0705907,-14.7,45.18,-23.28
1554106694915,2.825158,-9.721058,-4.219182,-1.2793826000000001,-1.0322412,1.0727214,-14.34,45.9,-22.02
1554106694935,2.5570072999999995,-9.917382,-4.6932339999999995,-1.2250541000000001,-1.091896,1.0524813,-13.98,46.5,-20.94
1554106694955,2.432509,-9.922171,-4.9996915,-0.9491506,-1.099353,1.0780476,-13.68,47.04,-19.98
1554106694975,1.8770541,-9.850344999999999,-4.6261964,-0.59228706,-1.0759171,1.1004181999999998,-13.38,47.52,-19.02
1554106694995,1.4317327,-9.926959,-4.0467997,-0.14807177,-1.1004181999999998,1.0727214,-13.14,47.94,-18.18
1554106695015,1.13964,-9.946113,-4.065953299999999,0.39627838,-1.067395,1.0365024,-12.84,48.3,-17.4
1554106695034,1.0534488000000002,-9.424176,-4.2622776,0.83516735,-1.0077401,0.9960223,-12.54,48.66,-16.8
1554106695054,0.61770403,-9.017161999999999,-4.267066000000001,0.8767126000000001,-0.99921805,0.89801794,-11.94,48.9,-16.38
1554106695075,0.5746084,-8.528744999999999,-3.8983587999999996,0.75101143,-1.0045444,0.84581995,-11.4,49.02,-16.2
1554106695095,0.4309563,-8.040328,-3.9749733999999997,0.5518069999999999,-0.9416938,0.83516735,-10.92,49.08,-16.14
1554106695115,0.07182605,-7.3029137,-4.2622776,0.018109497,-0.8809737,0.8522116,-10.38,49.08,-16.2
1554106695135,-0.4261679,-7.4322004,-4.0084919999999995,-0.80533993,-0.91186637,0.8628642,-9.9,49.02,-16.44
1554106695155,-0.45010993,-7.877522,-4.013280399999999,-1.4487596999999999,-0.9416938,0.8788431999999999,-9.48,48.84,-16.74
1554106695174,-0.36391866,-8.260594000000001,-4.31495,-1.8791265,-0.87777793,0.91612744,-9.12,48.72,-17.04
1554106695194,-0.6991069000000001,-8.610147,-4.1138372,-2.102832,-0.8042746999999999,0.902279,-8.88,48.48,-17.34
1554106695215,-1.1300632,-8.921394,-3.8839936,-1.8599516999999999,-0.716923,0.9257148000000001,-8.82,48.3,-17.58
1554106695235,-1.4413095,-8.897452000000001,-4.611831,-1.3741912,-0.60720074,0.9502159,-8.76,48.18,-17.64
1554106695255,-1.6041151000000002,-8.782531,-5.105036699999999,-1.0024139,-0.54648066,0.89162636,-8.7,48.06,-17.52
1554106695275,-1.8339584999999998,-8.409035000000001,-5.1289787,-0.7126619000000001,-0.5028047999999999,0.81705785,-8.58,48.06,-17.16
1554106695295,-2.1068976000000004,-8.231864,-4.6932339999999995,-0.3685815,-0.45380265,0.7488809000000001,-8.4,48.12,-16.62
1554106695315,-2.0254946,-7.958925,-5.00448,-0.0031957934000000003,-0.37710363,0.69029135,-7.98,48.24,-15.96
1554106695335,-2.0350714,-7.647678999999999,-5.4354362,0.15552860000000002,-0.3270362,0.6498113,-7.5,48.36,-15.36
1554106695355,-2.2074540000000002,-7.480085000000001,-5.492897,0.16724652,-0.330232,0.608266,-6.96,48.54,-14.7
1554106695374,-2.4851813,-7.269394999999999,-5.6987987,0.06391586,-0.34727620000000003,0.5752428,-6.48,48.66,-14.04
1554106695395,-2.6048915,-7.4609309999999995,-5.828085400000001,-0.14807177,-0.36964676,0.53476274,-5.94,48.78,-13.56
1554106695414,-2.6048915,-7.6333137,-6.0866594,-0.3153183,-0.41225734,0.51665324,-5.46,48.84,-13.26
1554106695436,-2.5809495,-7.729081599999999,-6.306926,-0.36325517,-0.44741106,0.5251754,-5.04,48.78,-13.14
1554106695454,-2.5953147,-7.365163000000001,-6.747458999999999,-0.40586576,-0.45060685,0.5635249,-4.74,48.6,-13.08
1554106695474,-2.8778305,-6.819285000000001,-6.675633,-0.6711166000000001,-0.45380265,0.6242449999999999,-4.56,48.42,-13.08
1554106695494,-3.3327288999999998,-6.905475999999999,-6.7330937,-1.0727214,-0.49428272,0.69668293,-4.44,48.3,-13.02
1554106695514,-3.5003227999999997,-6.8719573,-6.8575919999999995,-1.3507552999999999,-0.54648066,0.76272935,-4.44,48.12,-12.96
1554106695535,-3.8929720000000003,-6.8097080000000005,-6.618172,-1.3923006000000002,-0.5752428,0.78723043,-4.2,47.82,-12.78
1554106695556,-4.0414124,-6.5990186,-6.8528037,-1.2708606000000002,-0.5752428,0.7861651999999999,-4.08,47.64,-12.48
1554106695575,-3.9839516,-6.282984,-6.9725137,-1.0908308,-0.5635249,0.7755125,-3.42,47.58,-12.18
1554106695595,-4.098873,-6.0770826,-6.369175,-0.9757822,-0.56885123,0.721184,-2.94,47.58,-11.82
1554106695615,-4.256891,-5.966949,-5.909488,-0.7861651999999999,-0.5656554,0.64555025,-2.46,47.58,-11.4
1554106695634,-4.4101195,-5.952584,-5.7227407,-0.5070659000000001,-0.5422196,0.5603291,-2.04,47.58,-10.92
1554106695656,-4.6208089999999995,-5.899911400000001,-5.593454,-0.22796659,-0.5123922000000001,0.46339005,-1.5,47.58,-10.32
1554106695675,-4.7548847,-5.655703,-5.3396683,0.025566347000000003,-0.4825648,0.36005938,-1.08,47.46,-9.78
1554106695695,-4.7022123,-5.3157263,-5.535993,0.20559604,-0.43995422,0.26844665,-0.66,47.4,-9.36
1554106695715,-4.721366000000001,-4.9518075,-5.143344,0.23329292,-0.39521313,0.19600865,-0.48,47.34,-9.18
1554106695735,-4.936844000000001,-5.0284224,-5.3396683,0.16618125,-0.3057309,0.07989483,-0.18,47.22,-8.76
1554106695755,-4.975151,-5.105036699999999,-5.4258595000000005,0.099069595,-0.21092236,-0.0063915867,0.0,47.1,-8.52
1554106695774,-4.9943047,-5.2678423,-5.406706,0.03834952,-0.12676647,-0.094808534,0.12,46.98,-8.4
1554106695795,-4.9559975,-5.478532,-5.406706,0.037284255,-0.037284255,-0.1587244,0.24,46.86,-8.4
1554106695815,-4.8602295,-5.6748567,-5.555146700000001,0.16724652,0.05965481,-0.19068234,0.36,46.8,-8.52
1554106695835,-4.5537715,-5.7754129999999995,-5.5407815000000005,0.40266997,0.18642128,-0.19920446,0.42,46.74,-8.7
1554106695854,-4.5298295,-5.9238534000000005,-5.990891,0.5209143,0.25246766,-0.21092236,0.48,46.68,-8.94
1554106695874,-4.4675803,-6.4266357,-6.441001,0.5965481,0.2972088,-0.22264028,0.48,46.68,-9.18
