TimeStamp,Ax,Ay,Az,Gx,Gy,Gz,Mx,My,Mz
1554104948773,-1.3120226000000001,2.6617537000000002,9.087791000000001,0.014913702,0.022370555,-0.034088463,4.74,-58.26,-14.16
1554104948794,-1.0726023999999998,2.5372553,9.317635000000001,0.05752428,0.01917476,-0.02130529,4.74,-58.2,-14.22
1554104948814,-1.13964,2.6665419999999997,9.164406,0.08522116,0.027696876000000002,-0.025566347000000003,4.68,-58.26,-14.28
1554104948834,-1.1875241,2.7766755,9.164406,0.046871635999999994,0.029827405,-0.025566347000000003,4.68,-58.32,-14.34
1554104948854,-1.1300632,2.7240029999999997,9.059061,-0.004261058,0.03089267,-0.015978966,4.68,-58.44,-14.34
1554104948874,-1.0486604,2.417545,9.365519,0.024501082,0.04261058,0.0,4.74,-58.56,-14.34
1554104948894,-1.0007763,2.4510639,9.293693,0.08628642,0.037284255,-0.004261058,4.8,-58.68,-14.34
1554104948914,-1.0965444,2.7096379,9.135675,0.094808534,0.05752428,-0.002130529,4.8,-58.8,-14.34
1554104948934,-0.9911995000000001,2.6426,9.312846,0.037284255,0.06178534,-0.007456851,4.86,-58.86,-14.28
1554104948955,-0.90021986,2.5181017000000003,9.173983,0.0,0.08628642,-0.041545313,4.86,-58.98,-14.28
1554104948974,-0.81402856,2.7192147,8.97287,0.004261058,0.10865697,-0.051132694000000006,4.92,-59.04,-14.28
1554104948994,-0.7613561,2.795829,8.877101,-0.046871635999999994,0.12037488,-0.046871635999999994,4.92,-59.1,-14.28
1554104949014,-0.79966336,2.8054059,8.321647,-0.12676647,0.15126756,-0.06924219,4.92,-59.1,-14.22
1554104949034,-0.5267244000000001,2.7575218999999995,9.298480999999999,-0.22903186,0.20026971,-0.07882957,4.92,-59.1,-14.22
1554104949054,-0.29209262,2.771887,10.050261,-0.36432046,0.22370553,-0.113983296,4.92,-59.1,-14.22
1554104949074,-0.038307227,2.7144263,10.596138,-0.47617322,0.26205507,-0.10972224,4.92,-59.1,-14.16
1554104949094,-0.04309563,2.8149827000000003,10.8595,-0.58909124,0.350472,-0.04580637,4.92,-59.1,-14.16
1554104949115,-0.5410896,2.7527334999999997,11.007941,-0.6625945,0.41758367,-0.0063915867,4.92,-59.1,-14.28
1554104949134,-1.0965444,2.5372553,11.031883,-0.69135666,0.45699844,0.04474111,4.92,-59.1,-14.4
1554104949155,-1.3934253,2.2068555,10.720636,-0.67324716,0.45380265,0.16192019,4.98,-59.04,-14.64
1554104949174,-1.5466543,2.1924900000000003,10.979211,-0.7595335999999999,0.48682585,0.23009712,5.1,-58.86,-14.94
1554104949194,-1.7429788,1.7423803,10.8595,-0.8724516,0.53476274,0.32277513,5.22,-58.68,-15.3
1554104949213,-2.3942018,1.3880384,10.821193,-0.9150621999999999,0.5816344,0.39201729999999996,5.4,-58.5,-15.66
1554104949234,-2.5570072999999995,0.8996213,10.878654,-0.8319715,0.59761333,0.48043427,5.58,-58.26,-16.26
1554104949253,-2.6910827,0.6027403,10.35193,-0.5901565,0.6061354999999999,0.5390238,5.76,-57.9,-16.8
1554104949274,-2.9400797,0.97144735,9.949703999999999,-0.41971418,0.6178534000000001,0.5581986,5.88,-57.54,-17.34
1554104949294,-3.2034418999999996,0.6027403,9.930551,-0.35153726,0.6263755,0.60933125,5.94,-57.0,-17.88
1554104949313,-3.169923,0.55006784,9.442133,-0.29294774,0.628506,0.6103965,6.0,-56.46,-18.3
1554104949333,-3.5242648,0.47345337,8.953716,-0.16937704,0.6743124,0.5795039000000001,5.94,-56.04,-18.72
1554104949354,-3.5194763999999994,0.83258367,8.561067,-0.040480047000000005,0.69774824,0.57098174,5.88,-55.62,-19.08
1554104949379,-3.2992098,0.99060094,8.245032,0.051132694000000006,0.7456851,0.572047,5.58,-55.14,-19.62
1554104949394,-3.4093432,1.0576386,7.972092999999999,0.11717909,0.76485986,0.5571333,5.4,-54.84,-19.92
1554104949413,-3.2465374,1.0863690000000001,7.5794440000000005,0.19920446,0.773382,0.53263223,5.34,-54.78,-20.04
1554104949434,-3.5721489999999996,1.6609775000000002,7.038354400000001,0.2695119,0.78936094,0.4825648,5.16,-54.66,-20.34
1554104949454,-3.490746,1.8525136000000002,7.1341224,0.21944448,0.7552725,0.41971418,5.04,-54.66,-20.58
1554104949474,-3.7732617999999993,2.178125,7.095814999999999,0.06604639400000001,0.7041398,0.32384038,4.86,-54.72,-20.88
1554104949494,-3.7301662,2.259528,6.9425864,-0.16085494,0.65726817,0.29188246,4.8,-54.72,-21.06
1554104949514,-3.8738184,1.9195513,6.985682000000001,-0.45273739999999996,0.6135923000000001,0.2908172,4.74,-54.78,-21.24
1554104949534,-4.390966000000001,1.4119805,7.253833,-0.6870956,0.5432849000000001,0.32384038,4.68,-54.78,-21.3
1554104949554,-4.280833,1.3257892,7.344812400000001,-0.8831041999999999,0.4250405,0.33555830000000003,4.68,-54.78,-21.36
1554104949574,-4.285621,1.4215573000000001,7.3065050000000005,-1.1590078000000001,0.37923414,0.33662358,4.68,-54.66,-21.36
1554104949594,-4.5058875,1.2204443,7.6464815,-1.4732608,0.35579833,0.3568636,4.62,-54.6,-21.48
1554104949614,-4.4484267,0.87567925,7.924208999999999,-1.6703346999999997,0.3174488,0.38029942,4.62,-54.36,-21.78
1554104949635,-4.434061499999999,0.31064767,8.240244,-1.6468988999999998,0.28229508,0.42184472,4.62,-53.94,-22.26
1554104949654,-4.309563,-0.23044191,8.412626,-1.442368,0.20026971,0.42290998,4.62,-53.34,-22.86
1554104949674,-4.343082,-0.41718966,8.585009,-1.2665993999999998,0.18322548,0.37603834,4.56,-52.44,-23.58
1554104949693,-4.3718123,-0.374094,8.862736,-0.87777793,0.16405073,0.34621096,4.56,-51.48,-24.36
1554104949714,-4.333505000000001,-0.3645172,8.814852,-0.24714136,0.1438107,0.30679616,4.5,-50.46,-25.2
1554104949734,-4.0797195,-0.3309984,8.661622999999999,0.17150758,0.12570119999999999,0.25672874,4.44,-49.32,-26.1
1554104949753,-4.1706996,0.023343466,8.278551,0.43888897,0.07989483,0.19281286,4.32,-48.18,-26.94
1554104949773,-4.237737,0.31064767,7.7949224,0.47723848,0.002130529,0.16405073,4.26,-47.22,-27.6
1554104949793,-4.232949,0.5117606,7.617750999999999,0.2972088,-0.03834952,0.1768339,4.14,-46.5,-28.08
1554104949814,-4.3813889999999995,0.41120413,8.316858,0.051132694000000006,-0.03834952,0.18002969,4.08,-46.02,-28.38
1554104949834,-4.237737,0.20051439,8.527548,-0.1438107,-0.056459017,0.165116,3.96,-45.84,-28.62
1554104949853,-4.156333999999999,-0.10594343,8.853159,-0.17896444,-0.07776430000000001,0.1438107,3.9,-45.9,-28.8
1554104949873,-4.036624,-0.19213470000000002,8.752603,-0.098004326,-0.10013486,0.12996227,3.78,-46.02,-28.86
1554104949893,-4.189853,-0.19213470000000002,8.508394000000001,-0.034088463,-0.11717909,0.12676647,3.72,-46.26,-28.92
1554104949913,-4.0557775000000005,-0.04369418,8.838794,-0.039414786,-0.08948222,0.15446335,3.66,-46.56,-28.92
1554104949934,-4.1946416,0.08559271,8.628103999999999,-0.05752428,-0.06498113,0.18322548,3.54,-46.74,-28.92
1554104949954,-4.223372,0.09516951400000001,8.465299,-0.16192019,-0.06391586,0.17257284,3.42,-46.86,-28.92
1554104949974,-4.175488,0.018555064,8.465299,-0.32490566,-0.07456851,0.20026971,3.24,-46.86,-28.92
1554104949994,-4.036624,0.08559271,8.316858,-0.44528055,-0.10013486,0.18748654,3.06,-46.8,-28.92
1554104950015,-3.9264907999999994,0.27712885,8.067862,-0.5070659000000001,-0.10759171,0.15020229,2.82,-46.68,-28.98
1554104950034,-3.8450879999999996,0.13347675,8.087015,-0.52624065,-0.080960095,0.12570119999999999,2.64,-46.56,-28.98
1554104950054,-3.9360676,-0.10115502,8.154053,-0.4857606,-0.06711166,0.098004326,2.46,-46.44,-29.04
1554104950073,-3.8642415999999997,-0.32621,8.096592,-0.47510794,-0.07030745599999999,0.07989483,2.22,-46.26,-29.1
1554104950094,-3.7062242,-0.43155485,8.197148,-0.5432849000000001,-0.051132694000000006,0.05965481,2.1,-46.02,-29.16
1554104950113,-3.9025488,-0.6278794,8.359954,-0.6242449999999999,-0.05006743,0.05752428,1.98,-45.84,-29.22
1554104950133,-3.8929720000000003,-0.8194155000000001,8.091804,-0.66579026,-0.046871635999999994,0.06924219,1.86,-45.54,-29.4
1554104950154,-3.7636849999999997,-0.7428011,8.010401,-0.70627034,-0.04580637,0.06924219,1.8,-45.12,-29.52
1554104950173,-3.5769374,-0.4985925,8.2593975,-0.7595335999999999,-0.03195793,0.04261058,1.74,-44.58,-29.7
1554104950194,-3.4141315999999997,-0.3788824,8.628103999999999,-0.82344943,0.007456851,-0.011717908999999999,1.68,-43.5,-30.06
1554104950213,-3.3423057000000003,-0.38367084,8.69993,-0.84155893,0.047936900000000005,-0.08948222,1.56,-42.66,-30.3
1554104950233,-3.4093432,-0.40761283,8.762179,-0.79894835,0.10546118,-0.18216023,1.5,-41.82,-30.72
1554104950254,-3.6487634,-0.52253455,8.800487,-0.6498113,0.14487597,-0.27483824,1.44,-40.98,-31.14
1554104950274,-3.6727053999999995,-0.84335756,8.872313,-0.4079963,0.18961707,-0.386691,1.38,-40.14,-31.5
1554104950294,-3.5146879999999996,-1.0684125,8.618527,-0.19387813,0.22050974,-0.5006742999999999,1.32,-39.36,-31.8
1554104950313,-3.6631286,-1.5472529,8.608951,0.004261058,0.2609898,-0.57417756,1.38,-38.64,-32.16
1554104950334,-3.6727053999999995,-1.7100586,8.522758999999999,0.23542345,0.24394555,-0.63702816,1.56,-38.04,-32.4
1554104950354,-3.3423057000000003,-2.3660697999999996,8.120534,0.5752428,0.21944448,-0.6860303000000001,1.74,-37.56,-32.64
1554104950373,-3.241749,-1.6956933999999997,8.297705,0.92997587,0.20240025,-0.74781567,2.04,-37.32,-32.82
1554104950394,-3.371036,-1.3940238999999999,8.225878999999999,1.2144015,0.17896444,-0.8831041999999999,2.4,-37.08,-32.82
1554104950414,-3.5146879999999996,-1.8584990000000001,8.398261,1.4434333000000001,0.19707392,-0.8628642,2.76,-36.9,-32.82
1554104950433,-3.9552212,-2.0979192,8.316858,1.7278589,0.17257284,-0.8202536,3.24,-36.84,-32.7
1554104950453,-4.122815,-2.0117279999999997,8.096592,2.0335898,0.098004326,-0.81705785,3.78,-37.08,-32.46
1554104950474,-4.0892963,-1.7052702000000002,7.852383000000001,2.2082932,0.0063915867,-0.78083885,4.02,-37.38,-32.22
1554104950494,-4.390966000000001,-0.97743285,7.5267715,2.3339944,-0.09267801,-0.74248934,4.5,-38.4,-31.62
1554104950514,-4.9464207,-0.08678981,7.474099000000001,2.3254723999999998,-0.2130529,-0.7030744999999999,5.16,-40.38,-30.48
1554104950533,-4.7644614999999995,0.48303019999999997,7.699153999999999,2.1933794,-0.3334278,-0.62317973,5.58,-41.94,-29.4
1554104950554,-4.6591167,0.5165489999999999,7.943362700000001,2.0197413,-0.39308259999999995,-0.51026165,6.0,-43.68,-28.26
1554104950574,-4.6686935,0.5931635000000001,7.804499000000001,1.7619474,-0.4825648,-0.39521313,6.36,-45.66,-27.12
1554104950593,-4.7405194999999996,0.8230068000000001,7.8188642999999995,1.6618125,-0.5613944000000001,-0.36964676,6.66,-47.58,-25.92
1554104950614,-4.1419687000000005,1.2683283,7.785345599999999,1.5520903,-0.64768076,-0.35473305,6.9,-49.44,-24.72
1554104950634,-4.285621,2.0919337,8.019978,1.5052186,-0.6711166000000001,-0.34408042,7.08,-50.94,-23.64
1554104950653,-3.8402996,2.508525,8.556278,1.2783173,-0.6828345,-0.24820662,7.2,-52.2,-22.44
1554104950673,-3.7541082,2.40318,9.188348,1.0727214,-0.6061354999999999,-0.2066613,7.26,-53.46,-21.3
1554104950694,-3.8019924,2.5516205000000003,9.173983,0.9491506,-0.56885123,-0.18855181,7.32,-54.66,-20.28
1554104950714,-3.5960910000000004,2.8724434,8.608951,0.86179894,-0.54435015,-0.23435818,7.32,-55.68,-19.32
1554104950734,-3.6200330000000003,3.2507273999999997,8.326435,0.8341021000000001,-0.5294364,-0.2695119,7.32,-56.46,-18.36
1554104950753,-3.3854012000000004,3.3800142,8.3551655,0.76912093,-0.5294364,-0.24501082,7.32,-57.18,-17.4
1554104950773,-3.4428620000000003,3.518878,8.532336,0.6040049,-0.49854377,-0.221575,7.26,-57.84,-16.44
1554104950794,-3.3470940000000002,3.5140896,8.728661,0.40373522,-0.46339005,-0.22477080000000002,7.26,-58.38,-15.6
1554104950814,-3.2609026,3.4278982000000005,9.015965,0.3057309,-0.44741106,-0.2130529,7.2,-58.8,-15.0
1554104950834,-3.122039,3.4039562000000005,8.647258,0.29294774,-0.4314321,-0.1768339,7.2,-58.98,-14.4
1554104950854,-2.9735985,3.1549592,8.81964,0.34301516,-0.40906155,-0.18322548,7.14,-59.16,-13.86
1554104950874,-3.1411927000000004,3.2603042,8.666411,0.47723848,-0.3898868,-0.20879184,7.14,-59.28,-13.5
1554104950893,-3.1316159,3.8397010000000003,8.647258,0.53263223,-0.39308259999999995,-0.18429075,7.08,-59.4,-13.14
1554104950913,-2.801216,3.7056258,8.719084,0.41225734,-0.37390783,-0.14913702,7.08,-59.46,-12.84
1554104950934,-2.9113493,3.6337996,8.738237,0.28975195,-0.34621096,-0.096939065,7.08,-59.64,-12.6
1554104950954,-2.6001031,3.4518404,8.934562,0.25672874,-0.3323625,-0.07243799,7.14,-59.82,-12.36
1554104950974,-2.7341783,3.6625300000000003,8.862736,0.31957933,-0.30360037,-0.10013486,7.14,-59.94,-12.18
1554104950993,-2.633622,3.590704,8.747814,0.3685815,-0.27164245,-0.083090626,7.14,-60.06,-12.06
1554104951013,-2.60968,3.7391446000000004,8.632893,0.35579833,-0.24074976,-0.06391586,7.08,-60.24,-11.88
1554104951033,-2.6192567,3.8397010000000003,8.522758999999999,0.31318775,-0.22583607,-0.06178534,7.08,-60.3,-11.76
1554104951053,-2.7437549999999997,3.887585,8.350377,0.27057716,-0.23542345,-0.04474111,7.08,-60.42,-11.46
1554104951074,-2.5330652999999996,3.7391446000000004,8.546700999999999,0.3174488,-0.25033715,-0.041545313,7.08,-60.54,-11.1
1554104951093,-2.5570072999999995,3.8061821000000005,8.316858,0.39414784,-0.26312032,-0.015978966,7.08,-60.54,-10.92
1554104951113,-2.336741,3.9115269999999995,8.216302,0.47297743,-0.29507825,-0.029827405,7.08,-60.6,-10.68
1554104951134,-2.336741,4.136582,7.8092875,0.4857606,-0.33129725,-0.06924219,7.08,-60.78,-10.02
1554104951153,-2.1643584,3.9737763,7.828441000000001,0.4825648,-0.36645097,-0.07882957,7.02,-60.84,-9.78
1554104951174,-2.4181437000000003,3.9402574999999995,8.173206,0.40266997,-0.39201729999999996,-0.16724652,7.02,-61.08,-8.88
1554104951194,-2.054225,4.1796775,8.067862,0.46552056,-0.47617322,-0.15446335,6.9,-61.26,-8.4
1554104951213,-1.8291701,4.361637,7.727885000000001,0.5422196,-0.49108690000000005,-0.18642128,6.84,-61.44,-7.92
1554104951233,-1.9488802,4.505289,7.7183075,0.55074173,-0.515588,-0.2130529,6.78,-61.62,-7.5
1554104951254,-1.541866,4.524442700000001,8.245032,0.5400891,-0.56459016,-0.24074976,6.72,-61.8,-7.08
1554104951274,-1.3934253,4.71119,8.316858,0.48149952,-0.60080916,-0.257794,6.72,-61.92,-6.72
1554104951293,-1.292869,4.811747,8.393473,0.37390783,-0.608266,-0.26312032,6.66,-62.04,-6.42
1554104951313,-1.2497733,4.988918,8.407838,0.27164245,-0.6135923000000001,-0.24927188,6.66,-62.1,-6.24
1554104951334,-1.0103531,5.0463786,8.369531,0.19387813,-0.61678815,-0.2428803,6.66,-62.22,-6.06
1554104951354,-0.78050977,4.706402,8.393473,0.111852765,-0.59761333,-0.23116238,6.72,-62.34,-5.94
1554104951373,-0.7086836999999999,4.7494974,8.527548,0.08628642,-0.5763081,-0.21731395,6.78,-62.4,-5.76
1554104951393,-0.6703765,4.706402,8.494029,0.06498113,-0.5390238,-0.20985709,6.84,-62.52,-5.58
1554104951415,-0.58897364,4.8787847,8.6712,0.049002163,-0.49321744,-0.17363810000000002,6.84,-62.58,-5.4
1554104951433,-0.5315128,5.01286,8.3551655,0.01917476,-0.46125950000000004,-0.16405073,6.9,-62.64,-5.16
1554104951453,-0.79008657,5.146935,8.187572,-0.033023197000000004,-0.4314321,-0.16724652,6.9,-62.7,-5.04
1554104951474,-0.6703765,4.859630999999999,8.245032,-0.08948222,-0.42077947,-0.17044231,6.9,-62.7,-4.98
1554104951494,-0.7182605,4.7925935,8.565855,-0.13528858,-0.41119209999999995,-0.15765914,6.96,-62.7,-4.86
1554104951513,-0.6751649000000001,4.7303440000000005,8.766967999999999,-0.14913702,-0.40373522,-0.14807177,6.96,-62.64,-4.74
1554104951534,-0.7613561,4.7016134,8.766967999999999,-0.09054748,-0.386691,-0.128897,7.02,-62.64,-4.62
1554104951554,-0.63206923,4.7925935,8.604161999999999,-0.02876214,-0.37923414,-0.10652645,7.08,-62.64,-4.5
1554104951573,-0.51714754,4.854842700000001,8.513183,0.002130529,-0.36005938,-0.09054748,7.2,-62.58,-4.5
1554104951593,-0.36870706,4.8261123,8.393473,0.058589544,-0.33875409999999995,-0.099069595,7.26,-62.52,-4.5
1554104951614,-0.41180268,4.9458222,8.383896,0.07456851,-0.31318775,-0.098004326,7.38,-62.52,-4.44
1554104951634,-0.4405331,4.964976,8.403049000000001,0.017044231,-0.2876214,-0.101200126,7.44,-62.46,-4.44
1554104951654,-0.33039984,4.8165355000000005,8.407838,-0.06498113,-0.28549087,-0.12676647,7.56,-62.4,-4.5
1554104951675,-0.076614454,4.610633999999999,8.637681,-0.06924219,-0.2727077,-0.16298546,7.62,-62.34,-4.5
1554104951694,0.090979666,4.5675383,8.834005,0.00958738,-0.21837921,-0.16724652,7.68,-62.34,-4.56
1554104951714,-0.17717093,4.7303440000000005,8.55149,0.09054748,-0.17044231,-0.1768339,7.74,-62.28,-4.56
1554104951734,0.023942016,4.8739963,8.608951,0.08522116,-0.14487597,-0.19387813,7.74,-62.28,-4.62
1554104951753,0.08140286,4.883573,8.585009,0.060720075,-0.101200126,-0.18642128,7.8,-62.28,-4.68
1554104951773,0.22505496,4.854842700000001,8.632893,0.06711166,-0.047936900000000005,-0.18109496,7.8,-62.28,-4.74
1554104951794,0.20111294,4.811747,8.623316,0.13635385,0.010652645,-0.19707392,7.86,-62.28,-4.74
1554104951814,0.1388637,5.089474,8.412626,0.18642128,0.058589544,-0.21731395,7.92,-62.28,-4.74
1554104951833,0.21068975,5.213972599999999,8.206725,0.15978967,0.099069595,-0.24501082,7.98,-62.34,-4.74
1554104951853,0.16759412,5.113416,8.288128,0.08735169,0.1438107,-0.26738137,8.1,-62.4,-4.68
1554104951874,0.21547815,4.988918,8.067862,0.025566347000000003,0.1768339,-0.30146983,8.22,-62.46,-4.62
1554104951894,0.009576807,4.811747,7.8715367,0.023435817999999997,0.20026971,-0.32810146,8.34,-62.46,-4.56
1554104951914,0.038307227,4.7734394,7.8715367,0.07456851,0.20133498,-0.35792887,8.52,-62.52,-4.5
1554104951934,-0.11492168,4.821324,7.967304700000001,0.09587380000000001,0.1949434,-0.39947417,8.64,-62.52,-4.44
1554104951953,-0.12449849,4.941033999999999,8.010401,0.026631612000000002,0.20133498,-0.47404268,8.94,-62.52,-4.38
1554104951973,-0.32561144,4.9841294000000005,7.804499000000001,-0.04474111,0.20985709,-0.49428272,9.06,-62.46,-4.38
1554104951993,-0.60333884,4.735132,7.5890207,-0.12463594,0.21198763,-0.51026165,9.3,-62.4,-4.32
1554104952013,-0.6943185000000001,4.481347,7.6560583,-0.16724652,0.19707392,-0.5454154,9.48,-62.34,-4.2
1554104952034,-0.80924016,4.395156,7.838017999999999,-0.16192019,0.18002969,-0.588026,9.84,-62.22,-4.08
1554104952054,-1.0486604,4.3760023,7.9337860000000004,-0.20026971,0.15765914,-0.628506,10.14,-62.1,-4.02
1554104952074,-1.1013328000000002,4.256292,7.9146323,-0.25672874,0.13528858,-0.65194184,10.56,-61.98,-3.9
1554104952094,-1.1875241,4.1653123,8.010401,-0.26738137,0.111852765,-0.66152924,10.92,-61.86,-3.84
1554104952114,-1.4077905000000002,4.2898107,8.019978,-0.27377295,0.08948222,-0.6562029,11.22,-61.68,-3.78
1554104952133,-1.5610195,4.0216603,8.000824,-0.2695119,0.07456851,-0.6306366,11.58,-61.38,-3.78
1554104952153,-1.5658079,4.040814,8.077438,-0.26418558,0.05752428,-0.6146576,11.76,-61.2,-3.78
1554104952174,-1.7238252,4.1413703,8.278551,-0.30146983,0.035153727999999995,-0.60507023,12.66,-60.54,-3.78
1554104952193,-1.8100165000000001,4.1461587,8.522758999999999,-0.37390783,0.025566347000000003,-0.5816344,13.32,-60.06,-3.78
1554104952213,-1.8243817,3.945046,8.460510000000001,-0.41971418,0.023435817999999997,-0.5422196,13.92,-59.64,-3.84
1554104952234,-1.9393034,3.8205473,8.403049000000001,-0.39414784,0.024501082,-0.4825648,14.46,-59.22,-3.9
1554104952254,-2.2361843999999995,3.8540661,8.503606,-0.32597092,0.020240024,-0.39414784,15.0,-58.74,-3.96
1554104952273,-2.432509,3.8349125,8.379107000000001,-0.31318775,0.00958738,-0.330232,15.48,-58.32,-4.08
1554104952294,-2.2888567,3.7152026,8.474875,-0.3323625,-0.0031957934000000003,-0.30466563,16.02,-57.96,-4.2
1554104952314,-2.1164744,3.54282,8.383896,-0.33981937,-0.007456851,-0.30999196,16.44,-57.66,-4.32
1554104952333,-2.1643584,3.4087446000000003,8.134899,-0.33875409999999995,0.008522116,-0.33662358,16.62,-57.48,-4.5
1554104952353,-2.4037786,3.2315737999999996,8.316858,-0.36432046,0.022370555,-0.36112466,16.86,-57.3,-4.74
1554104952374,-2.4660277,3.2028434,8.532336,-0.3685815,-0.0031957934000000003,-0.38562572,17.1,-57.12,-4.98
1554104952393,-2.3654714,3.116652,8.690353,-0.38136467,-0.020240024,-0.4101268,17.34,-56.94,-5.28
1554104952414,-2.4229321,2.9730000000000003,8.915408,-0.42930159999999995,-0.02876214,-0.44421527,17.58,-56.76,-5.52
1554104952434,-2.384625,2.8963853999999998,9.020754,-0.46658584,-0.020240024,-0.47404268,17.82,-56.64,-5.82
1554104952454,-2.528277,3.0591912,9.078215,-0.45699844,-0.013848438000000001,-0.45806372,18.06,-56.46,-6.06
1554104952474,-2.5187001,3.0496144,8.934562,-0.45273739999999996,-0.010652645,-0.43995422,18.42,-56.16,-6.3
1554104952493,-2.5474305,3.0065188,8.915408,-0.50173956,-0.007456851,-0.43356264,18.78,-55.92,-6.54
1554104952513,-2.6192567,2.6761188999999996,9.21229,-0.55606806,-0.010652645,-0.4250405,19.2,-55.62,-6.72
1554104952533,-2.6719291000000003,2.5133132999999996,9.442133,-0.5187838,-0.013848438000000001,-0.41971418,19.62,-55.26,-6.84
1554104952554,-2.7724855,2.4654293,9.48044,-0.41758367,-0.0010652645,-0.40053943,19.98,-54.84,-6.96
1554104952574,-2.954445,2.4319102999999997,9.351153,-0.32277513,-0.004261058,-0.4048005,20.34,-54.48,-7.14
1554104952594,-2.882619,2.5851393,9.470863,-0.29614353,-0.008522116,-0.41758367,20.64,-54.0,-7.38
1554104952613,-2.7629087,2.6282349,9.595362,-0.28975195,0.004261058,-0.3898868,21.0,-53.52,-7.68
1554104952633,-2.791639,2.6809072,9.48044,-0.25566345,0.03089267,-0.36112466,21.3,-53.16,-8.04
1554104952655,-2.7246015,2.7623102999999998,9.221867,-0.24394555,0.06285059999999999,-0.35579833,21.54,-52.32,-8.58
1554104952673,-2.8443117,2.771887,9.264961999999999,-0.23648871,0.08948222,-0.3653857,21.66,-52.08,-8.76
1554104952693,-2.7820622999999998,2.7240029999999997,8.877101,-0.24714136,0.113983296,-0.3749731,21.78,-51.6,-9.18
1554104952713,-2.801216,2.6473885,9.011177,-0.26312032,0.14807177,-0.36964676,22.02,-50.88,-9.66
1554104952734,-2.9400797,2.484583,8.929772999999999,-0.24927188,0.16937704,-0.37710363,22.32,-50.52,-9.84
1554104952753,-3.0023289,2.3026235,8.963293,-0.19813919,0.17789917,-0.39627838,22.62,-50.28,-9.96
1554104952773,-3.0885203,2.235586,8.762179,-0.12570119999999999,0.18748654,-0.4133226,23.04,-50.04,-10.02
1554104952796,-3.0597897,2.2307975,8.810063000000001,-0.06178534,0.18109496,-0.4079963,23.4,-49.8,-9.96
1554104952816,-3.0741549999999997,2.379238,8.55149,-0.05006743,0.1768339,-0.4079963,23.58,-49.74,-9.96
1554104952833,-3.1986535,2.144606,8.474875,-0.08522116,0.16618125,-0.4101268,23.94,-49.56,-10.02
1554104952854,-3.265691,2.0105310000000003,8.455722,-0.128897,0.15233281,-0.42184472,24.12,-49.5,-10.02
1554104952873,-3.2513257999999996,1.7854759999999998,8.398261,-0.22903186,0.10972224,-0.43675843,24.72,-49.26,-10.08
1554104952894,-3.2465374,1.6226702,8.585009,-0.23968449999999997,0.06391586,-0.4250405,25.02,-49.08,-10.14
1554104952913,-3.4715924,1.5221136999999998,8.685564999999999,-0.20026971,0.037284255,-0.38562572,25.2,-48.9,-10.26
1554104952933,-3.4715924,1.335366,8.723872,-0.12570119999999999,0.010652645,-0.34301516,25.32,-48.72,-10.38
1554104952953,-3.4332852,1.4119805,8.666411,-0.09054748,-0.024501082,-0.29614353,25.44,-48.54,-10.44
1554104952974,-3.490746,1.4359225,8.867524000000001,-0.10013486,-0.060720075,-0.25140239999999997,25.5,-48.24,-10.56
1554104952993,-3.3566709,1.3640964,9.015965,-0.10759171,-0.09054748,-0.2066613,25.68,-47.94,-10.56
1554104953013,-3.2752678,1.2539631000000002,9.21229,-0.047936900000000005,-0.101200126,-0.17470337,25.92,-47.64,-10.62
1554104953033,-2.9831752999999996,1.4119805,8.93935,0.0,-0.10865697,-0.16937704,26.28,-47.22,-10.62
1554104953053,-2.944868,1.4790181,8.781333,-0.00958738,-0.09374327,-0.1768339,26.58,-46.8,-10.68
1554104953073,-2.992752,1.7232267,8.834005,-0.09054748,-0.06924219,-0.20879184,26.88,-46.32,-10.62
1554104953094,-2.9400797,1.9482816000000003,8.666411,-0.21837921,-0.06604639400000001,-0.25992453,27.24,-45.84,-10.62
1554104953113,-2.825158,1.8956091,8.618527,-0.36432046,-0.06178534,-0.32277513,27.54,-45.36,-10.62
1554104953133,-2.8969840000000002,1.8716671000000003,8.97287,-0.50173956,-0.05219796,-0.4250405,27.84,-45.0,-10.68
1554104953153,-2.858677,1.9434932,9.039907000000001,-0.51771855,-0.046871635999999994,-0.53795856,28.02,-44.58,-10.74
1554104953174,-2.6719291000000003,1.8046296000000002,8.97287,-0.5496765,-0.015978966,-0.680704,28.08,-43.98,-10.86
1554104953193,-2.5905263,1.287482,9.130887,-0.6146576,0.037284255,-0.83729786,28.14,-43.38,-11.04
1554104953214,-2.8634652999999997,0.97623575,9.648033999999999,-0.5901565,0.08735169,-0.94808537,28.14,-42.78,-11.22
1554104953233,-2.9352913,0.49739540000000004,9.935339,-0.45380265,0.11611383,-0.99282646,28.2,-42.18,-11.4
1554104953254,-2.9640217,0.38726214,9.877877,-0.22264028,0.13954964,-0.9864349,28.44,-41.46,-11.58
1554104953273,-2.9017725,0.3824737,9.6767645,-0.082025364,0.1438107,-0.9534117,28.8,-40.62,-11.76
1554104953293,-3.040636,0.31064767,9.169194000000001,-0.07243799,0.14594123,-0.9225190000000001,29.28,-39.66,-11.94
1554104953313,-2.9975405,0.25797522,9.173983,-0.15339808,0.11504856,-0.89162636,29.76,-38.58,-12.06
1554104953334,-2.6144682999999995,-0.31663316,9.21229,-0.23968449999999997,0.098004326,-0.8543421,30.36,-37.56,-12.12
1554104953353,-2.552219,-0.6183026,9.164406,-0.2034655,0.09161274,-0.8181231,31.02,-36.42,-12.06
1554104953374,-2.633622,-1.0109516,9.332,-0.033023197000000004,0.07882957,-0.7882956999999999,31.68,-35.34,-12.06
1554104953394,-2.4372973,-1.0348936,9.312846,0.112918034,0.04580637,-0.7584683000000001,32.28,-34.2,-12.06
1554104953414,-2.6240451,-0.82899237,8.829217,0.12783173,0.03195793,-0.7137272,32.82,-33.06,-12.0
1554104953433,-2.6862943,-0.7906850999999999,8.656835000000001,0.037284255,0.0063915867,-0.628506,33.18,-32.04,-11.88
1554104953453,-2.7437549999999997,-1.0588357,8.934562,-0.007456851,-0.02130529,-0.535828,33.48,-31.02,-11.82
1554104953473,-2.6623523,-1.0157399999999999,9.035119,0.043675844000000005,-0.046871635999999994,-0.45273739999999996,33.78,-30.06,-11.76
1554104953494,-2.695871,-0.9008184000000001,8.963293,0.07989483,-0.07030745599999999,-0.37923414,33.96,-29.28,-11.64
1554104953513,-2.7102362999999996,-0.623091,8.781333,0.08948222,-0.08948222,-0.31638354,34.14,-28.56,-11.58
1554104953533,-2.8395232999999998,-0.4985925,8.575432000000001,0.06498113,-0.10865697,-0.25885928,34.38,-27.9,-11.46
1554104953554,-2.8682537,-0.5943606,8.69993,0.051132694000000006,-0.12996227,-0.19387813,34.56,-27.3,-11.4
1554104953574,-2.7868507,-0.7044938000000001,9.063849000000001,0.082025364,-0.16405073,-0.1438107,34.74,-26.76,-11.34
1554104953594,-2.791639,-0.7332243,9.159616999999999,0.15339808,-0.19068234,-0.113983296,34.92,-26.28,-11.22
1554104953613,-2.8203697,-0.43634325,8.728661,0.23009712,-0.21092236,-0.084155895,35.1,-25.92,-11.1
1554104953634,-2.7006595,-0.22086509999999998,8.752603,0.23755397,-0.22690132,-0.07137272,35.34,-25.62,-11.04
1554104953653,-2.8538885,-0.0724246,8.814852,0.21837921,-0.23009712,-0.07669904,35.4,-25.56,-10.98
1554104953674,-2.681506,-0.0005985504,8.944139,0.12144015,-0.23861924,-0.080960095,35.46,-25.32,-10.86
1554104953694,-2.6048915,-0.04369418,9.039907000000001,0.06391586,-0.23222765,-0.08841695,35.52,-25.26,-10.86
1554104953714,-2.5617957000000002,-0.10115502,9.035119,0.082025364,-0.2130529,-0.10013486,35.58,-25.2,-10.92
1554104953733,-2.5761611,0.18136078,9.044696,0.10972224,-0.20133498,-0.096939065,35.58,-25.26,-10.98
1554104953754,-2.6479871,0.24361002,8.853159,0.08628642,-0.18429075,-0.101200126,35.58,-25.32,-11.1
1554104953774,-2.7150247000000003,0.20051439,9.169194000000001,0.039414786,-0.18109496,-0.112918034,35.52,-25.44,-11.16
1554104953794,-2.6910827,0.14784196,9.217078,0.00958738,-0.18642128,-0.13102753,35.46,-25.5,-11.22
1554104953814,-2.6527755,-0.04369418,9.288903999999999,0.008522116,-0.18748654,-0.14274544,35.4,-25.62,-11.28
1554104953834,-2.4899697,-0.16819267,9.566631,0.06285059999999999,-0.18429075,-0.14487597,35.34,-25.68,-11.34
1554104953854,-2.384625,-0.24001873,9.537901,0.16618125,-0.17576863,-0.15339808,35.28,-25.74,-11.4
1554104953873,-2.3175871,0.13826515,9.308058,0.21624869,-0.15446335,-0.16405073,35.22,-25.8,-11.4
1554104953895,-2.4372973,0.30107087,9.197925,0.101200126,-0.12144015,-0.15765914,35.16,-25.8,-11.46
1554104953918,-2.1883004,0.090381116,9.250597,-0.0053263223,-0.10546118,-0.13635385,35.1,-25.74,-11.52
1554104953934,-2.3750482,-0.26874915,9.643246000000001,-0.013848438000000001,-0.06711166,-0.101200126,35.1,-25.74,-11.58
1554104953953,-2.3702598,-0.19213470000000002,9.446921000000001,0.056459017,-0.05965481,-0.09054748,35.04,-25.68,-11.64
1554104953973,-2.4229321,-0.02932897,9.365519,0.11930962,-0.047936900000000005,-0.083090626,35.04,-25.74,-11.64
1554104953993,-2.432509,0.12389994,9.36073,0.13954964,-0.04261058,-0.07030745599999999,35.04,-25.74,-11.7
1554104954013,-2.3558946,0.0712275,9.341577000000001,0.10759171,-0.03195793,-0.05539375,35.04,-25.8,-11.76
1554104954033,-2.255338,0.05686229,9.442133,0.07350325,-0.015978966,-0.049002163,35.04,-25.92,-11.88
1554104954053,-2.3558946,0.08080431,9.542689,0.096939065,-0.004261058,-0.036218993,35.04,-25.98,-11.88
1554104954073,-2.27928,0.02813187,9.57142,0.13848437,0.014913702,-0.00958738,35.04,-26.04,-11.94
1554104954093,-2.456451,0.21487960000000003,9.499594,0.20133498,0.033023197000000004,0.0053263223,35.1,-26.1,-12.0
1554104954113,-2.4660277,0.31064767,9.432556,0.21944448,0.036218993,0.012783173500000002,35.04,-26.22,-12.06
1554104954134,-2.2888567,0.31064767,9.542689,0.17789917,0.049002163,0.037284255,35.04,-26.28,-12.06
1554104954153,-2.3989902,0.17657238,9.418191,0.13741912,0.07882957,0.05006743,35.04,-26.28,-12.12
1554104954173,-2.4851813,0.21487960000000003,9.45171,0.10972224,0.094808534,0.07030745599999999,34.98,-26.34,-12.12
1554104954194,-2.5905263,0.14784196,9.427767999999999,0.13209279,0.111852765,0.10546118,34.98,-26.4,-12.06
1554104954213,-2.6623523,0.21487960000000003,9.442133,0.18642128,0.12676647,0.13741912,34.92,-26.46,-12.06
1554104954233,-2.72939,0.31064767,9.57142,0.21518342,0.13528858,0.16405073,34.92,-26.64,-12.0
1554104954254,-2.7964275,0.6314706999999999,9.126099,0.2727077,0.13635385,0.19707392,34.86,-27.0,-11.88
1554104954274,-2.825158,0.717662,9.231442999999999,0.25246766,0.13209279,0.21837921,34.86,-27.12,-11.82
1554104954294,-2.8634652999999997,0.56922144,9.111733000000001,0.20772657,0.13954964,0.24607609,34.86,-27.66,-11.64
1554104954313,-2.7485435000000003,0.6841431,9.197925,0.2034655,0.13635385,0.25992453,34.86,-28.2,-11.46
1554104954333,-2.8203697,0.6362591,9.078215,0.1949434,0.14061491,0.2609898,34.86,-28.98,-11.1
1554104954354,-2.8299465,0.95229375,9.068638,0.15552860000000002,0.13315806,0.25566345,34.74,-29.58,-10.86
1554104954373,-2.8969840000000002,1.0911574,8.996812,0.07350325,0.12250541,0.27164245,34.62,-30.12,-10.62
1554104954393,-2.882619,0.99538934,8.867524000000001,0.0053263223,0.12037488,0.28336033,34.32,-30.72,-10.38
1554104954413,-2.882619,0.88046765,8.968081,-0.056459017,0.11611383,0.26525086,34.08,-31.26,-10.14
1554104954433,-3.0119057000000002,0.7799111999999999,8.987235,-0.04474111,0.12676647,0.24394555,33.9,-31.68,-9.96
1554104954453,-2.96881,0.86610246,8.79091,-0.007456851,0.11930962,0.21837921,33.66,-31.92,-9.84
1554104954473,-3.0885203,1.0289081,8.781333,-0.015978966,0.10865697,0.21837921,33.48,-32.16,-9.78
1554104954493,-2.9831752999999996,1.0097545,8.781333,-0.06178534,0.09054748,0.22690132,33.3,-32.4,-9.78
1554104954513,-2.954445,0.83737206,8.901043,-0.07030745599999999,0.07776430000000001,0.22583607,33.12,-32.7,-9.84
1554104954533,-2.8538885,0.85652566,8.829217,-0.056459017,0.05539375,0.20453078,33.06,-33.06,-9.84
1554104954553,-2.7581203,0.8230068000000001,8.987235,-0.047936900000000005,0.036218993,0.18429075,33.06,-33.3,-9.84
1554104954573,-2.8538885,0.97144735,8.776545,-0.054328485999999995,0.027696876000000002,0.19174760000000002,33.06,-33.54,-9.84
1554104954593,-2.8107927000000004,0.87089086,8.843582000000001,-0.10333065,0.015978966,0.20026971,33.06,-33.78,-9.78
1554104954614,-2.8395232999999998,0.7320272,8.91062,-0.1438107,-0.0010652645,0.19920446,33.06,-34.02,-9.78
1554104954634,-2.8060042999999997,0.9283517,8.728661,-0.07669904,-0.018109497,0.18429075,33.0,-34.32,-9.78
1554104954653,-2.767697,1.0145429,8.872313,-0.09054748,-0.027696876000000002,0.16085494,33.0,-34.5,-9.78
1554104954674,-2.8395232999999998,1.158195,8.829217,-0.17789917,-0.015978966,0.1438107,32.94,-34.68,-9.78
1554104954693,-2.882619,1.1294646000000002,9.073426,-0.25566345,-0.004261058,0.13954964,32.88,-34.74,-9.84
1554104954713,-2.7868507,0.9235633,9.063849000000001,-0.36218992,0.012783173500000002,0.14061491,32.82,-34.74,-9.9
1554104954733,-2.834735,0.7224503999999999,9.264961999999999,-0.45806372,0.05219796,0.12783173,32.76,-34.74,-9.96
1554104954753,-2.9352913,0.45908818,9.695917999999999,-0.52624065,0.09161274,0.12037488,32.64,-34.74,-10.02
1554104954773,-2.9017725,0.14784196,9.944916000000001,-0.5496765,0.12996227,0.12570119999999999,32.34,-34.74,-10.08
1554104954793,-3.0119057000000002,0.13826515,9.810839999999999,-0.54648066,0.18109496,0.14594123,32.1,-34.74,-10.2
1554104954813,-2.8634652999999997,0.061650693,9.949703999999999,-0.55606806,0.23968449999999997,0.18748654,31.86,-34.74,-10.38
1554104954833,-3.0693667000000002,0.18136078,9.71986,-0.6327670999999999,0.30786142,0.24820662,31.62,-34.74,-10.68
1554104954853,-3.1651347000000003,0.10474633,9.585785000000001,-0.74781567,0.35792887,0.28975195,31.44,-34.74,-10.92
1554104954873,-3.0885203,-0.010175358,9.595362,-0.8681905000000001,0.406931,0.33129725,31.2,-34.74,-11.16
1554104954894,-3.0454244999999998,-0.31184477,9.475652,-0.99069595,0.45273739999999996,0.37390783,31.02,-34.74,-11.46
1554104954913,-3.098097,-0.53689975,9.533113,-1.1036139999999999,0.49215218,0.40586576,30.84,-34.74,-11.7
1554104954933,-3.0550013,-0.670975,9.57142,-1.1920309,0.5475459,0.42717105,30.84,-34.68,-11.94
1554104954953,-3.193865,-1.0588357,9.446921000000001,-1.2186625,0.6135923000000001,0.4708469,30.84,-34.62,-12.18
1554104954973,-3.466804,-1.1737574,9.346364999999999,-1.2144015,0.6625945,0.51984906,30.9,-34.44,-12.36
1554104954994,-3.6822822,-1.3988123,9.078215,-1.2144015,0.69348717,0.5592638000000001,30.96,-34.32,-12.48
1554104955013,-3.8546648,-1.5568296999999998,9.130887,-1.1909657,0.7094661,0.59761333,30.96,-34.14,-12.66
1554104955033,-3.9360676,-1.6717514,8.915408,-1.1451592,0.70200926,0.6412892,31.02,-33.96,-12.9
1554104955053,-4.098873,-1.7962499,8.719084,-1.0705907,0.69135666,0.6498113,31.08,-33.84,-13.14
1554104955073,-4.1419687000000005,-1.8249803,8.604161999999999,-0.9129315999999998,0.6689861,0.6668556,31.14,-33.6,-13.38
1554104955094,-4.2664676,-1.8393455,8.652046,-0.78936094,0.628506,0.6764429,31.14,-33.42,-13.68
1554104955113,-4.405330999999999,-1.9351135,8.3312235,-0.6679208000000001,0.588026,0.68176925,31.2,-33.24,-13.92
1554104955133,-4.582502,-1.9015948,8.264186,-0.5251754,0.5613944000000001,0.7073356,31.14,-33.12,-14.16
1554104955153,-4.582502,-1.8393455,8.144476,-0.44208476,0.53795856,0.72011876,31.02,-33.0,-14.34
1554104955173,-4.5920787,-1.6334441000000002,7.948150999999999,-0.33875409999999995,0.47830373,0.7052050999999999,30.84,-32.82,-14.58
1554104955193,-4.673482,-1.7196354,7.7614035999999995,-0.30999196,0.43036684,0.68389976,30.72,-32.76,-14.64
1554104955213,-4.6495394999999995,-1.6382325,7.5985975,-0.2908172,0.39414784,0.6711166000000001,30.66,-32.7,-14.7
1554104955234,-4.8602295,-1.6382325,7.4405804,-0.23755397,0.35899413,0.6498113,30.48,-32.7,-14.7
1554104955253,-4.8123455,-1.6717514,7.454945599999999,-0.19068234,0.31957933,0.63702816,30.36,-32.76,-14.7
1554104955273,-4.8745947,-1.5951369,7.41185,-0.096939065,0.28442562,0.62531024,29.94,-33.24,-14.76
1554104955293,-4.9512089999999995,-1.5280992,7.3831196,-0.05965481,0.26525086,0.60080916,29.7,-33.66,-14.76
1554104955313,-5.114014599999999,-1.3317747,7.435792,-0.05965481,0.24607609,0.567786,29.46,-34.02,-14.76
1554104955334,-5.257667,-1.3030443,7.531560000000001,-0.06178534,0.23116238,0.5411543000000001,29.28,-34.44,-14.76
1554104955353,-5.4922986,-1.264737,7.545925,-0.047936900000000005,0.21944448,0.5219796,29.04,-34.86,-14.76
1554104955373,-5.626374,-1.1737574,7.41185,-0.026631612000000002,0.20772657,0.51026165,28.98,-35.04,-14.76
1554104955393,-5.683835,-1.0157399999999999,7.225102000000001,-0.07243799,0.18322548,0.49428272,28.74,-35.94,-14.82
1554104955413,-5.7987566,-0.86729956,7.5219830000000005,-0.21731395,0.19707392,0.47191215,28.62,-36.42,-14.82
1554104955433,-5.913678,-1.1019313,7.603386,-0.36325517,0.23222765,0.47830373,28.56,-36.96,-14.82
1554104955453,-6.172251999999999,-1.1785458,7.790133999999999,-0.43356264,0.26525086,0.4878911,28.44,-37.44,-14.82
1554104955473,-6.3302693,-1.1306617,7.996035000000001,-0.44847634,0.28122982,0.49002165,28.38,-37.68,-14.82
1554104955493,-6.5218053,-0.9199719999999999,7.9098440000000005,-0.46658584,0.30040458,0.51026165,28.08,-38.46,-14.82
1554104955514,-6.6079965,-0.86729956,7.9098440000000005,-0.67005134,0.36645097,0.5432849000000001,27.72,-39.0,-14.82
1554104955533,-6.794744500000001,-1.0061632,7.9864583,-0.8266452,0.41758367,0.5784385999999999,27.42,-39.48,-14.88
1554104955553,-6.8522053,-1.2886791000000002,7.8092875,-1.0567423,0.46658584,0.6466155,27.06,-40.08,-14.94
1554104955573,-6.770802499999999,-1.3940238999999999,7.555502000000001,-1.2133361999999999,0.46658584,0.69029135,26.76,-40.5,-15.0
1554104955593,-6.943185000000001,-1.417966,7.603386,-1.3134711000000001,0.45806372,0.72970617,26.46,-40.8,-15.18
1554104955614,-7.0724716,-1.6047136999999998,7.41185,-1.4050837999999999,0.43462790000000007,0.76272935,26.16,-41.1,-15.54
1554104955633,-7.120356,-1.6621746,7.454945599999999,-1.4466291999999998,0.39201729999999996,0.8117314999999999,25.98,-41.4,-15.96
1554104955653,-6.7229185,-1.8106151000000001,7.047931,-1.4210628,0.32490566,0.8245146999999999,25.8,-41.7,-16.44
1554104955673,-6.7851677,-1.8441339,6.84203,-1.3880396000000002,0.294013,0.82344943,25.68,-41.88,-16.98
1554104955693,-6.627150500000001,-2.0644004000000002,6.353613,-1.3720607,0.23329292,0.7914915,25.44,-41.76,-17.52
1554104955713,-6.631939,-2.1984756,6.607398,-1.3145363,0.18109496,0.77125144,25.08,-41.46,-18.12
1554104955734,-6.4643445,-2.2750902,6.3727665,-1.2037488,0.12676647,0.77870834,24.72,-41.1,-18.84
1554104955753,-6.354211299999999,-2.4809916000000003,6.0998273,-1.1057445,0.10226539,0.7520766999999999,24.36,-40.68,-19.62
1554104955773,-6.493075,-2.3517046,5.7359085,-0.99921805,0.07989483,0.69348717,24.0,-40.2,-20.22
1554104955793,-6.1626754,-2.0404584,5.4055089999999995,-0.92997587,0.02130529,0.6359629,23.64,-39.66,-20.82
1554104955814,-6.0956373,-2.0069396,5.1996074,-0.9086706,0.0053263223,0.5901565,23.28,-39.12,-21.36
1554104955833,-6.191406,-2.2176294,5.4917,-0.9054747999999999,0.01917476,0.56245965,22.98,-38.52,-21.84
1554104955853,-6.349423000000001,-2.3708582000000002,5.4390279999999995,-0.8447546999999999,-0.002130529,0.51665324,22.68,-38.1,-22.32
1554104955873,-6.325481,-2.2176294,5.501277,-0.7137272,-0.03089267,0.44528055,22.44,-37.68,-22.74
1554104955893,-6.196194,-2.1841104,5.357625,-0.628506,-0.03834952,0.38882150000000004,22.2,-37.2,-23.04
1554104955914,-6.2009826,-2.0931308,5.443816,-0.60080916,-0.039414786,0.3153183,22.02,-36.78,-23.22
1554104955933,-6.272808599999999,-2.2559366,5.242703,-0.60720074,-0.051132694000000006,0.257794,21.78,-36.42,-23.46
1554104955953,-6.445191,-2.380435,5.4486045999999995,-0.59867865,-0.049002163,0.21518342,21.54,-36.06,-23.76
1554104955973,-6.8091097000000005,-2.5528176,5.429451,-0.588026,-0.040480047000000005,0.18535602,21.3,-35.76,-24.06
1554104955994,-7.0485296,-2.8018146,5.486912,-0.5496765,-0.056459017,0.1438107,21.0,-35.16,-24.6
1554104956014,-7.0006455999999995,-2.8880057,5.510854,-0.5273059,-0.07350325,0.1470065,20.88,-34.98,-24.78
1554104956033,-7.019799000000001,-2.9406781000000004,5.501277,-0.44208476,-0.07989483,0.14274544,20.7,-34.5,-25.2
1554104956053,-7.0245875999999985,-2.8592752999999997,5.276222,-0.29827404,-0.07882957,0.13315806,20.46,-33.84,-25.74
1554104956073,-7.0964136,-2.6964695,5.228338,-0.26631612,-0.06711166,0.13848437,20.4,-33.6,-25.92
1554104956093,-7.201759,-2.4474726,5.4007206,-0.28122982,-0.080960095,0.11504856,20.22,-33.06,-26.28
1554104956113,-6.871359,-2.5719712,5.7215432999999996,-0.28016454,-0.13741912,0.07882957,20.04,-32.22,-26.7
1554104956133,-6.564901,-2.6629508,5.8747725,-0.20772657,-0.13528858,0.07137272,19.92,-31.68,-26.88
1554104956153,-6.531382,-2.7587189999999997,6.0327897,-0.113983296,-0.08948222,0.043675844000000005,19.8,-31.2,-27.0
1554104956173,-6.9623384,-2.3852234,5.539584,-0.10865697,-0.01917476,0.012783173500000002,19.8,-30.66,-27.18
1554104956193,-7.0485296,-2.3469162,5.333683000000001,-0.25672874,-0.013848438000000001,-0.0031957934000000003,19.8,-30.18,-27.3
1554104956213,-6.9671270000000005,-2.4809916000000003,5.549161,-0.46019423,-0.04580637,-0.026631612000000002,19.8,-29.7,-27.42
1554104956234,-6.8091097000000005,-2.9741971,5.927445,-0.5496765,-0.053263225,-0.041545313,19.8,-29.22,-27.54
1554104956253,-6.9288197,-3.5966894999999997,6.0998273,-0.4857606,-0.035153727999999995,-0.03089267,19.8,-28.8,-27.6
1554104956273,-6.9527617,-3.5152867,5.788581400000001,-0.294013,0.0063915867,-0.010652645,19.8,-28.26,-27.72
1554104956294,-7.278373200000001,-3.0029275,5.587468,-0.18748654,0.05006743,-0.011717908999999999,19.8,-27.72,-27.84
1554104956313,-7.393294999999999,-2.9406781000000004,5.395932,-0.27696875,0.040480047000000005,0.020240024,19.8,-27.18,-27.96
1554104956334,-7.2065472999999995,-3.3476925000000004,5.472546599999999,-0.4133226,0.004261058,0.07456851,19.86,-26.52,-28.08
1554104956353,-7.0820484,-3.5535938999999996,5.716755,-0.4016047,0.011717908999999999,0.09267801,19.86,-25.86,-28.2
1554104956373,-7.0485296,-3.4721910000000005,5.8891377,-0.23222765,0.049002163,0.07456851,19.92,-25.26,-28.32
1554104956393,-7.0485296,-3.256713,5.999271,0.084155895,0.07030745599999999,0.054328485999999995,19.98,-24.6,-28.44
1554104956413,-7.029375999999999,-2.878429,5.3528366,0.41971418,0.07669904,0.014913702,20.1,-24.0,-28.5
1554104956434,-7.005433999999999,-2.3181857999999997,4.969764,0.46978164,0.07243799,0.0063915867,20.22,-23.52,-28.62
1554104956453,-7.125144500000001,-2.2319946,4.768651,0.20026971,0.060720075,-0.002130529,20.34,-23.1,-28.74
1554104956473,-7.216124000000001,-2.6150667999999997,5.175665400000001,-0.10865697,0.025566347000000003,-0.024501082,20.46,-22.8,-28.86
1554104956493,-7.015011,-3.127426,5.620987,-0.18002969,0.01917476,-0.029827405,20.52,-22.74,-28.92
1554104956514,-7.1490865,-3.0172927000000005,5.620987,-0.049002163,0.05752428,-0.033023197000000004,20.64,-22.74,-29.04
1554104956533,-7.0102224,-3.1082723,5.597045,0.035153727999999995,0.07669904,-0.051132694000000006,20.7,-22.86,-29.16
1554104956553,-7.0485296,-2.9406781000000004,5.319318,0.10759171,0.096939065,-0.080960095,20.7,-22.98,-29.28
1554104956573,-7.374141000000001,-2.7682957999999998,5.4390279999999995,0.16405073,0.112918034,-0.09267801,20.7,-23.1,-29.4
1554104956593,-7.589619,-2.6437972000000003,5.209184,0.18109496,0.10013486,-0.08628642,20.7,-23.22,-29.4
1554104956613,-7.4603324,-2.4331074,4.941033999999999,0.10865697,0.07669904,-0.094808534,20.7,-23.34,-29.4
1554104956633,-7.455544000000001,-2.3852234,4.7734394,0.007456851,0.04261058,-0.111852765,20.76,-23.34,-29.4
1554104956653,-7.61835,-2.2894554,4.6920366,-0.23329292,-0.047936900000000005,-0.17363810000000002,20.82,-23.28,-29.34
1554104956674,-7.5800424,-2.7778726000000002,4.7542860000000005,-0.41438788,-0.14168017,-0.20559604,20.88,-23.16,-29.22
1554104956694,-7.852981599999999,-3.0268695,4.6537294000000005,-0.45380265,-0.20879184,-0.20772657,21.0,-22.92,-29.1
1554104956714,-7.747636999999999,-3.1322143,4.7016134,-0.39627838,-0.25246766,-0.20026971,21.06,-22.68,-28.92
1554104956734,-7.603985000000001,-2.7491422,4.883573,-0.40266997,-0.2908172,-0.21411815,21.18,-22.44,-28.74
1554104956754,-7.848192999999999,-2.5911248,5.0463786,-0.47297743,-0.3174488,-0.21092236,21.24,-22.2,-28.62
1554104956773,-8.178593,-2.7587189999999997,5.1996074,-0.5273059,-0.314253,-0.15233281,21.3,-21.9,-28.5
1554104956793,-8.058883,-2.7635074,4.960187400000001,-0.5518069999999999,-0.3270362,-0.06924219,21.24,-21.66,-28.44
1554104956814,-7.7093296,-3.0268695,5.113416,-0.60507023,-0.34088463,0.040480047000000005,21.12,-21.36,-28.38
1554104956834,-7.311891999999999,-3.697246,5.3624134,-0.737163,-0.33662358,0.20026971,21.0,-20.94,-28.38
1554104956854,-7.091625,-4.1138372,5.3528366,-0.82344943,-0.30360037,0.3174488,20.82,-20.52,-28.5
1554104956874,-6.6750345,-4.511274299999999,5.716755,-0.81705785,-0.25353295,0.39201729999999996,20.58,-20.04,-28.68
1554104956894,-6.411672,-4.630985,6.0088477,-0.737163,-0.16937704,0.43569317,20.4,-19.44,-29.04
1554104956914,-6.679823,-4.377199,6.1668650000000005,-0.5837649,-0.07243799,0.4261058,20.16,-18.84,-29.34
1554104956934,-6.8330517,-4.0420110000000005,5.802946599999999,-0.44421527,0.00958738,0.4079963,19.92,-18.24,-29.64
1554104956953,-6.7468604999999995,-3.8696284,5.6401405,-0.37603834,0.051132694000000006,0.37071204,19.8,-17.52,-29.94
1554104956973,-6.363788,-4.0037036,5.6401405,-0.37284255,0.04474111,0.35792887,19.62,-16.92,-30.24
1554104956993,-6.191406,-4.185663,5.774216,-0.36645097,0.024501082,0.34727620000000003,19.5,-16.26,-30.6
1554104957013,-6.081272,-4.156933,5.869984,-0.33662358,0.024501082,0.27483824,19.38,-15.6,-30.96
1554104957034,-6.3685765,-4.19524,6.2243257000000005,-0.26631612,0.037284255,0.19174760000000002,19.32,-15.18,-31.26
1554104957053,-6.6989765,-4.1138372,6.2099605,-0.13102753,0.05006743,0.12570119999999999,19.2,-14.52,-31.5
1554104957073,-6.770802499999999,-3.9989154,5.975329,-0.06391586,0.05965481,0.084155895,19.14,-14.34,-31.56
1554104957094,-6.7468604999999995,-3.7978023999999997,5.587468,-0.07243799,0.06391586,0.008522116,18.96,-13.92,-31.8
1554104957114,-6.804321300000001,-3.8744167999999997,5.573103,-0.11504856,0.06498113,-0.033023197000000004,18.9,-13.68,-31.86
1554104957133,-7.015011,-3.9031472000000003,5.4486045999999995,-0.09267801,0.06178534,-0.06711166,18.84,-13.56,-31.92
1554104957153,-7.192182000000001,-4.013280399999999,5.4055089999999995,-0.05965481,0.06391586,-0.084155895,18.84,-13.62,-31.86
1554104957173,-7.1490865,-4.0755300000000005,5.2810106,0.0010652645,0.080960095,-0.10226539,18.78,-13.68,-31.74
1554104957193,-7.053317999999999,-3.9989154,5.2810106,0.07456851,0.10439592,-0.098004326,18.78,-13.68,-31.62
1554104957213,-6.947973299999999,-3.7882257000000004,5.266645,0.14061491,0.12357068,-0.08628642,18.78,-13.68,-31.5
1554104957234,-6.919242999999999,-3.520075,5.290587400000001,0.13954964,0.15020229,-0.07563378,18.84,-13.68,-31.44
1554104957255,-7.067683000000001,-3.4913447,5.132569999999999,0.083090626,0.17044231,-0.07243799,18.84,-13.68,-31.38
1554104957273,-7.1586633,-3.6589386,5.0846860000000005,0.051132694000000006,0.19068234,-0.094808534,18.84,-13.62,-31.38
1554104957293,-7.3406224,-3.7307648999999996,5.0080714,0.08735169,0.20559604,-0.12783173,18.84,-13.56,-31.38
1554104957316,-7.2065472999999995,-3.5871127,4.8021703,0.1438107,0.20453078,-0.1587244,18.9,-13.5,-31.38
1554104957333,-6.8426285,-3.615843,4.8452660000000005,0.15126756,0.18748654,-0.15978967,18.9,-13.38,-31.44
1554104957353,-7.015011,-3.6780925000000004,4.8452660000000005,0.11717909,0.2034655,-0.15978967,18.96,-13.32,-31.5
1554104957374,-7.101202000000001,-3.6780925000000004,4.830900700000001,0.04261058,0.21092236,-0.16831179,19.08,-13.26,-31.44
1554104957394,-7.240066000000001,-3.7978023999999997,4.854842700000001,0.013848438000000001,0.23542345,-0.18429075,19.2,-13.26,-31.44
1554104957414,-7.302314999999999,-3.7978023999999997,4.907515,0.026631612000000002,0.25672874,-0.18216023,19.32,-13.26,-31.38
1554104957433,-7.1873937,-3.793014,4.988918,0.08522116,0.26418558,-0.18642128,19.44,-13.26,-31.32
1554104957453,-7.3071036,-3.7738605000000005,4.835689,0.13528858,0.27696875,-0.18429075,19.56,-13.32,-31.26
1554104957474,-7.6231384,-3.520075,4.4382515,0.15339808,0.28868666,-0.19281286,19.68,-13.38,-31.2
1554104957494,-7.776367,-3.4195184999999997,4.385579,0.082025364,0.24927188,-0.19707392,19.86,-13.44,-31.14
1554104957514,-7.728483,-3.5679589999999997,4.4382515,-0.034088463,0.2034655,-0.19281286,20.1,-13.5,-31.08
1554104957533,-7.632714999999999,-3.6780925000000004,4.2945995,-0.083090626,0.16405073,-0.20559604,20.4,-13.56,-31.02
1554104957554,-7.833828,-3.7259765,4.5100775,-0.09267801,0.11504856,-0.21411815,20.64,-13.62,-30.96
1554104957573,-7.795521000000001,-3.8839936,4.5962687,-0.047936900000000005,0.082025364,-0.20453078,20.94,-13.62,-30.78
1554104957594,-7.809886,-3.9510313999999997,4.419098,-0.025566347000000003,0.06604639400000001,-0.17150758,21.3,-13.68,-30.66
1554104957614,-7.881711999999999,-3.793014,4.6058455,-0.03834952,0.046871635999999994,-0.15765914,21.6,-13.68,-30.54
1554104957634,-7.891288799999999,-3.7738605000000005,4.481347,-0.10333065,0.008522116,-0.1438107,21.96,-13.62,-30.36
1554104957653,-7.546523599999999,-4.0803185,4.68246,-0.19920446,-0.03195793,-0.11504856,22.2,-13.56,-30.24
1554104957673,-7.6135616,-4.223970400000001,5.065532,-0.19068234,-0.014913702,-0.1107875,22.38,-13.44,-30.12
1554104957694,-7.6231384,-4.0755300000000005,5.0463786,-0.06924219,0.004261058,-0.11824436,22.5,-13.26,-30.0
1554104957715,-7.6135616,-3.7307648999999996,4.577115,0.018109497,0.018109497,-0.12037488,22.5,-13.14,-29.88
1554104957734,-7.608772999999999,-3.5296519,4.706402,0.023435817999999997,0.0031957934000000003,-0.14168017,22.56,-12.9,-29.88
1554104957754,-7.489063000000001,-3.6637269999999997,4.7159786,-0.024501082,-0.013848438000000001,-0.16831179,22.5,-12.72,-29.88
1554104957773,-7.431602000000001,-3.6828809000000002,4.6202106,-0.07137272,-0.011717908999999999,-0.20772657,22.44,-12.42,-29.88
1554104957793,-7.311891999999999,-3.6541502,4.56275,-0.082025364,-0.012783173500000002,-0.25566345,22.44,-12.06,-29.94
1554104957814,-7.053317999999999,-3.6637269999999997,4.7255554,-0.082025364,-0.027696876000000002,-0.30253512,22.38,-11.7,-29.94
1554104957834,-6.828263300000001,-3.4865562999999993,4.768651,-0.11824436,-0.02130529,-0.3568636,22.32,-11.46,-29.94
1554104957853,-6.670246000000001,-3.5775358999999995,4.5962687,-0.20453078,0.011717908999999999,-0.42717105,22.32,-11.22,-29.88
1554104957873,-6.349423000000001,-3.8744167999999997,4.634576,-0.27377295,0.058589544,-0.50387007,22.32,-10.92,-29.88
1554104957897,-6.2488665999999995,-4.233547,4.7016134,-0.098004326,0.13635385,-0.67324716,22.32,-10.5,-29.88
1554104957913,-5.942408599999999,-4.2814309999999995,4.5723267,-0.012783173500000002,0.14168017,-0.7030744999999999,22.38,-10.2,-29.82
1554104957933,-5.722142,-4.908712,4.6058455,0.11504856,0.17896444,-0.7456851,22.44,-10.02,-29.82
1554104957953,-5.9567738,-5.09546,4.4143095,0.28549087,0.22796659,-0.7978831000000001,22.56,-9.96,-29.76
1554104957973,-6.26802,-5.2103815,4.2898107,0.50173956,0.26844665,-0.8362325999999999,22.8,-9.72,-29.7
1554104957993,-6.3302693,-5.0140567,3.8588544999999996,0.6785734,0.25246766,-0.850081,23.04,-9.42,-29.64
1554104958013,-6.0908489999999995,-5.0906715,3.7008373999999997,0.773382,0.1949434,-0.87564737,23.28,-9.18,-29.58
1554104958034,-5.837064,-5.0810947,3.9881415000000002,0.82557994,0.13315806,-0.9086706,23.52,-9.0,-29.46
1554104958054,-6.220136,-5.3396683,4.3185415,0.9054747999999999,0.1470065,-0.9321064,23.7,-8.82,-29.28
1554104958074,-6.3685765,-5.205593,4.3807906999999995,0.99921805,0.11824436,-0.9267801,23.88,-8.76,-29.04
1554104958093,-5.9998693,-4.9901147,3.9737763,1.0247844000000002,0.06498113,-0.92464954,24.12,-8.7,-28.74
1554104958113,-6.05733,-4.827309,4.1413703,0.96299905,0.03089267,-0.94808537,24.24,-8.7,-28.38
1554104958133,-6.114791,-5.1768627,4.3281183,0.9321064,-0.00958738,-0.9736517,24.42,-8.94,-28.02
1554104958153,-6.0716953,-5.2678423,4.8021703,1.0162623,-0.06178534,-0.9779128,24.54,-9.24,-27.72
1554104958174,-5.947197,-5.105036699999999,4.7207669999999995,1.091896,-0.13635385,-1.0130665,24.78,-9.66,-27.42
1554104958193,-6.047753299999999,-4.875193,4.926668599999999,0.9821738000000001,-0.15978967,-1.0428939,25.08,-10.14,-27.18
1554104958213,-6.019023000000001,-5.0236335,5.391144000000001,0.84581995,-0.18748654,-1.0524813,25.38,-10.62,-26.94
1554104958234,-5.746084,-5.382764,5.774216,0.77870834,-0.24501082,-1.0365024,25.68,-11.1,-26.76
1554104958253,-5.674258,-5.468955,5.6880245,0.92784536,-0.2972088,-1.0386329,25.98,-11.58,-26.52
1554104958274,-5.487509999999999,-5.2343235,5.472546599999999,1.0354371,-0.38029942,-1.071656,26.22,-12.0,-26.28
1554104958293,-5.1762643,-5.1002483,5.8268886,1.0322412,-0.44634579999999996,-1.0823087,26.4,-12.3,-26.1
1554104958314,-5.032612,-5.085883,5.807735,0.97258645,-0.5113269,-1.067395,26.52,-12.54,-25.86
1554104958334,-4.673482,-4.923076999999999,5.917868,0.86499476,-0.5795039000000001,-1.0641992,26.58,-12.66,-25.62
1554104958354,-4.525041000000001,-4.956596,6.238691,0.7275756,-0.6114618,-1.1036139999999999,26.64,-12.72,-25.38
1554104958373,-4.31914,-4.956596,6.3871317,0.56672066,-0.6348976,-1.1185277,26.76,-12.78,-25.14
1554104958393,-4.012682,-5.109825,6.4398040000000005,0.50173956,-0.64341974,-1.1313108,26.82,-12.84,-24.96
1554104958414,-3.4763808,-5.2008047,6.502053299999999,0.5070659000000001,-0.6412892,-1.1536813999999997,26.88,-12.9,-24.9
1554104958434,-3.2273839,-5.2343235,6.229114,0.4250405,-0.6263755,-1.1920309,26.94,-12.9,-24.84
1554104958453,-3.2800562000000006,-5.105036699999999,6.2817870000000005,0.22050974,-0.567786,-1.2367721,27.0,-12.96,-24.84
1554104958475,-3.3758245000000002,-5.2582655,6.746262,0.051132694000000006,-0.5230448000000001,-1.2761868,27.12,-12.9,-24.78
1554104958495,-3.0454244999999998,-5.7323174,6.63134,-0.029827405,-0.47723848,-1.2634037,27.12,-12.72,-24.84
1554104958513,-2.5378537,-6.019622,6.583456,-0.10759171,-0.43462790000000007,-1.2559468,27.12,-12.66,-24.9
1554104958534,-2.6001031,-6.129755,6.655282000000001,-0.17896444,-0.34408042,-1.2783173,27.06,-12.3,-24.96
1554104958554,-2.7629087,-6.187216,7.167641000000001,-0.22264028,-0.28336033,-1.2793826000000001,26.88,-11.88,-25.08
1554104958574,-2.7820622999999998,-6.4218473,7.459734,-0.18322548,-0.28016454,-1.2335763000000002,26.7,-11.28,-25.2
1554104958594,-2.2218192,-6.536769400000001,7.5890207,-0.1587244,-0.24927188,-1.1835088,26.52,-10.62,-25.32
1554104958614,-2.1643584,-6.536769400000001,7.4405804,-0.19174760000000002,-0.17363810000000002,-1.1579423999999998,26.4,-9.9,-25.44
1554104958633,-2.0685901999999996,-6.737882000000001,7.785345599999999,-0.23755397,-0.10226539,-1.1302456,26.28,-8.94,-25.56
1554104958654,-2.0302830000000003,-7.0491285,7.861960000000001,-0.20879184,-0.04261058,-1.0695255,26.22,-7.92,-25.68
1554104958674,-1.9680338,-7.2071457,8.187572,-0.12996227,-0.0031957934000000003,-1.0279802,26.16,-6.96,-25.74
1554104958694,-1.7525556,-7.0634937,7.814075999999999,-0.07776430000000001,0.039414786,-0.98856544,26.16,-6.06,-25.8
1554104958713,-1.4796166000000002,-7.092224000000001,7.6847887,-0.080960095,0.10759171,-0.9374326999999999,26.28,-5.1,-25.8
1554104958734,-1.7238252,-6.977302000000001,7.5650787,-0.10972224,0.1949434,-0.8681905000000001,26.58,-3.66,-25.86
1554104958753,-1.8004397,-6.795342999999999,7.713519,-0.07350325,0.21411815,-0.813862,26.82,-2.7,-25.86
1554104958774,-1.5993267,-6.761824000000001,7.531560000000001,-0.08628642,0.221575,-0.7499462,27.06,-1.8,-25.86
1554104958793,-1.4269443000000002,-6.737882000000001,7.268198,-0.14061491,0.24714136,-0.716923,27.18,-1.32,-25.8
1554104958813,-1.4030021000000001,-6.9150529999999995,7.143699000000001,-0.27483824,0.30786142,-0.6849651,27.48,-0.06,-25.74
1554104958834,-1.2689268999999999,-7.1209545,6.9425864,-0.37390783,0.37284255,-0.6625945,27.78,0.84,-25.68
1554104958855,-1.4317327,-7.4561424,7.1820064,-0.34408042,0.43995422,-0.628506,28.02,1.74,-25.56
1554104958873,-1.4508862,-7.614160000000001,6.985682000000001,-0.21944448,0.48469532,-0.58056915,28.26,2.52,-25.5
1554104958895,-1.364695,-7.681197599999999,6.717531,-0.12676647,0.52411014,-0.5518069999999999,28.5,3.3,-25.32
1554104958915,-1.3694833999999998,-7.5566993,6.8132997,-0.08628642,0.56245965,-0.5113269,28.62,4.2,-25.02
1554104958934,-1.3934253,-7.4896617,6.7989345000000005,-0.07989483,0.60293967,-0.46019423,28.74,5.04,-24.6
1554104958954,-1.4173675,-7.3843164,6.578667599999999,-0.07989483,0.6412892,-0.41864893,28.86,5.88,-24.18
1554104958974,-1.4748282,-7.355586,6.640917,-0.06285059999999999,0.67537767,-0.38775626,29.04,6.54,-23.7
1554104958994,-1.4556746,-7.480085000000001,6.6792240000000005,0.008522116,0.7030744999999999,-0.3568636,29.28,7.26,-23.28
1554104959014,-1.8674773,-7.417835,6.909067599999999,0.15339808,0.68816084,-0.30999196,29.64,7.86,-22.8
1554104959033,-1.8387468999999996,-7.2885485,6.865972,0.29294774,0.628506,-0.25992453,30.12,8.4,-22.32
1554104959053,-2.1021092,-7.2406645,6.870760400000001,0.43036684,0.59228706,-0.22050974,30.6,8.94,-21.78
1554104959073,-2.1883004,-6.9916677,7.0527196,0.55287224,0.47191215,-0.16831179,31.02,9.24,-21.24
1554104959094,-2.15957,-6.962936999999999,7.1963716,0.6178534000000001,0.39521313,-0.10652645,31.5,9.48,-20.76
1554104959113,-2.0973208,-6.6852098,7.1820064,0.6956177,0.30360037,-0.051132694000000006,31.98,9.6,-20.34
1554104959133,-2.087744,-6.5607114,7.0048356,0.737163,0.21944448,-0.0053263223,32.46,9.6,-19.92
1554104959153,-2.0829554,-6.273407,7.043143,0.72011876,0.15446335,0.0063915867,32.94,9.48,-19.5
1554104959173,-2.15957,-6.14412,7.378331,0.74781567,0.10226539,-0.004261058,33.24,9.12,-19.14
1554104959193,-2.2218192,-6.182427400000001,7.536348299999999,0.8330368,0.046871635999999994,0.026631612000000002,33.36,8.82,-18.96
1554104959214,-1.8674773,-6.2303114,7.8475947,1.026915,-0.060720075,0.080960095,33.66,8.04,-18.6
1554104959233,-1.8243817,-6.0244102,7.727885000000001,1.1813782,-0.12250541,0.07456851,33.9,7.32,-18.54
1554104959254,-1.9297266,-5.5407815000000005,7.617750999999999,1.3166668,-0.18535602,0.06924219,34.08,6.6,-18.48
1554104959273,-1.7764976000000003,-5.248688700000001,7.6321163,1.3646038,-0.25885928,0.07882957,34.2,5.82,-18.48
1554104959293,-1.5179238000000002,-5.172074299999999,7.8092875,1.3486248,-0.2876214,0.08735169,34.32,5.04,-18.48
1554104959314,-1.5753847,-4.9135003,8.010401,1.3592775,-0.30466563,0.10226539,34.32,4.2,-18.48
1554104959333,-1.3934253,-4.7219644,7.9002669999999995,1.3677995,-0.3174488,0.112918034,34.32,3.18,-18.48
1554104959354,-1.7286136000000003,-4.329315,7.747038400000001,1.3646038,-0.31105720000000003,0.128897,34.26,2.22,-18.48
1554104959373,-1.5227122,-3.8935703999999998,7.9146323,1.3528858,-0.33981937,0.16192019,34.26,1.2,-18.48
1554104959394,-1.5610195,-3.5440169999999998,7.8811135,1.3166668,-0.34940675,0.1768339,34.2,0.12,-18.48
1554104959414,-1.412579,-3.2136172999999997,7.8715367,1.2090752,-0.33449304,0.1768339,34.14,-1.02,-18.54
1554104959434,-1.5227122,-3.3045970000000002,8.096592,1.1291803,-0.3153183,0.15552860000000002,34.08,-2.46,-18.6
1554104959454,-1.4269443000000002,-3.2375592999999996,8.450933000000001,1.1334413,-0.32597092,0.12037488,33.9,-3.96,-18.6
1554104959474,-1.292869,-3.0125043,8.494029,1.1664646,-0.33662358,0.06924219,33.66,-5.34,-18.66
1554104959493,-1.3359646,-2.8353333,8.666411,1.1504856,-0.34621096,0.03195793,33.36,-6.48,-18.72
1554104959513,-1.2641385,-2.5623944,8.652046,1.0727214,-0.3653857,-0.008522116,33.06,-7.68,-18.78
1554104959534,-1.0630256,-2.0500352,8.805275,0.9054747999999999,-0.36645097,-0.02130529,32.82,-8.88,-18.84
1554104959554,-1.1971009,-2.0931308,8.771756,0.7776430000000001,-0.35153726,-0.02130529,32.58,-10.02,-18.84
1554104959574,-1.043872,-2.1362264,8.867524000000001,0.7126619000000001,-0.35792887,0.022370555,32.28,-11.16,-18.84
1554104959593,-0.9911995000000001,-2.1410147999999998,9.197925,0.6892261,-0.36751625,0.06604639400000001,32.1,-12.12,-18.84
1554104959614,-0.8714894,-1.9063831999999998,9.269751,0.66579026,-0.38242993,0.07563378,31.98,-13.02,-18.84
1554104959634,-0.79966336,-1.6909049999999999,9.284116000000001,0.63915867,-0.3717773,0.096939065,31.92,-13.86,-18.84
1554104959653,-0.7661445,-1.6047136999999998,9.370307,0.6221144000000001,-0.36325517,0.111852765,31.74,-15.06,-18.84
1554104959673,-0.5650316,-1.6430208999999998,9.6288805,0.5933523,-0.36112466,0.11611383,31.68,-15.48,-18.9
1554104959694,-0.4261679,-1.6525976999999998,9.964069,0.59761333,-0.34301516,0.112918034,31.5,-16.32,-18.96
1554104959713,-0.23942018,-1.3652935,10.045472,0.6498113,-0.3057309,0.12357068,31.26,-17.1,-19.02
1554104959733,-0.19153613,-1.073201,9.844358,0.6711166000000001,-0.2695119,0.12570119999999999,30.96,-17.82,-19.02
1554104959754,-0.26815059999999996,-0.66139823,9.006389,0.43782368,-0.24820662,0.10333065,30.54,-18.78,-19.08
1554104959773,-0.24420857,-0.52253455,9.518747,0.30679616,-0.1949434,0.11504856,30.3,-19.44,-19.14
1554104959793,-0.15322891,-0.7380127,9.801263,0.24607609,-0.16085494,0.12144015,30.06,-20.1,-19.14
1554104959813,-0.095768064,-0.9487024,9.882666,0.22796659,-0.12357068,0.098004326,29.88,-20.64,-19.14
1554104959834,-0.24899697,-0.75716627,9.906608,0.28549087,-0.07456851,0.05539375,29.64,-21.12,-19.14
1554104959853,-0.2825158,-0.44113165,9.533113,0.26631612,-0.041545313,0.029827405,29.46,-21.72,-19.14
1554104959873,-0.18195933,-0.41240123,9.461286999999999,0.18109496,-0.0031957934000000003,0.029827405,29.28,-22.38,-19.14
1554104959893,-0.36870706,-0.46986207,9.6288805,0.111852765,0.025566347000000003,0.043675844000000005,29.04,-23.1,-19.14
1554104959914,-0.22984336,-0.64703304,9.782109,0.113983296,0.04474111,0.051132694000000006,28.8,-23.7,-19.2
1554104959933,-0.25857377,-0.53211135,10.002377000000001,0.18535602,0.060720075,0.043675844000000005,28.56,-24.24,-19.26
1554104959953,-0.23463176,-0.45549688,9.829993,0.25353295,0.07350325,0.025566347000000003,28.38,-24.78,-19.32
1554104959973,-0.41180268,-0.29269117,9.729436999999999,0.29827404,0.08522116,0.039414786,28.14,-25.2,-19.32
1554104959993,-0.49320555,-0.29269117,9.595362,0.30360037,0.080960095,0.068176925,27.96,-25.62,-19.32
1554104960014,-0.47884035,-0.24001873,9.643246000000001,0.31212249999999997,0.07030745599999999,0.101200126,27.84,-26.04,-19.32
1554104960033,-0.51235914,-0.26396075,9.734225,0.330232,0.07030745599999999,0.13741912,27.9,-26.28,-19.26
1554104960054,-0.6751649000000001,-0.22086509999999998,9.772532,0.36112466,0.07243799,0.16405073,27.96,-26.52,-19.14
1554104960073,-0.6368576,-0.110731825,9.74859,0.39095205,0.06498113,0.19174760000000002,27.96,-26.76,-19.02
1554104960093,-0.59376204,0.04249708,9.671975999999999,0.42717105,0.05752428,0.21411815,27.96,-27.0,-18.84
1554104960113,-0.545878,-0.02932897,9.686341,0.45167214,0.05006743,0.23648871,27.96,-27.24,-18.66
1554104960134,-0.6512229,0.18614918,9.619304,0.48682585,0.041545313,0.24501082,27.96,-27.54,-18.48
1554104960153,-0.61770403,0.3824737,9.528324000000001,0.51026165,0.034088463,0.23542345,27.9,-27.78,-18.3
1554104960173,-0.7086836999999999,0.3393781,9.437345,0.5028047999999999,0.02876214,0.22690132,27.9,-28.08,-18.06
1554104960193,-0.6607997,0.5117606,9.504382000000001,0.46765109999999993,0.015978966,0.21411815,27.84,-28.44,-17.82
1554104960213,-0.59376204,0.7224503999999999,9.437345,0.4079963,0.023435817999999997,0.19707392,27.78,-28.86,-17.58
1554104960233,-0.770933,0.76075757,9.413403,0.37284255,0.02876214,0.17470337,27.72,-29.46,-17.22
1554104960253,-0.90021986,0.9475053,9.188348,0.32170987,0.020240024,0.12144015,27.6,-30.48,-16.8
1554104960274,-0.6751649000000001,0.9475053,9.188348,0.28549087,0.010652645,0.098004326,27.6,-30.84,-16.68
1554104960293,-0.79008657,0.83737206,9.312846,0.27483824,0.0053263223,0.08841695,27.48,-31.44,-16.5
1554104960314,-0.6512229,0.7799111999999999,9.403825999999999,0.294013,0.0031957934000000003,0.07456851,27.36,-32.1,-16.32
1554104960334,-0.44532153,0.74639237,9.652822500000001,0.3174488,-0.0031957934000000003,0.053263225,27.24,-32.7,-16.14
1554104960354,-0.4357447,0.87089086,9.595362,0.35579833,0.023435817999999997,0.04474111,27.06,-33.3,-15.96
1554104960373,-0.5554548,1.1486181999999998,9.293693,0.350472,0.03834952,0.049002163,26.94,-33.78,-15.9
1554104960393,-0.62249243,1.1773487,9.09258,0.29827404,0.053263225,0.047936900000000005,26.82,-34.02,-15.9
1554104960413,-0.5506664000000001,1.0241197,9.188348,0.21837921,0.053263225,0.040480047000000005,26.82,-34.32,-15.78
1554104960436,-0.5554548,0.9379284999999999,9.461286999999999,0.11611383,0.05965481,0.018109497,26.82,-34.62,-15.66
1554104960453,-0.47405192,0.8230068000000001,9.394249,0.07350325,0.06924219,-0.00958738,26.88,-34.86,-15.54
1554104960473,-0.56982,1.0097545,9.322422999999999,0.07350325,0.083090626,-0.051132694000000006,26.88,-35.16,-15.36
1554104960493,-0.62249243,1.0959458,9.09258,0.020240024,0.096939065,-0.08522116,26.88,-35.46,-15.24
1554104960514,-0.7134720999999999,0.9139864999999999,9.025542,-0.05539375,0.098004326,-0.098004326,26.82,-35.64,-15.06
1554104960533,-0.6512229,0.86131406,9.322422999999999,-0.11930962,0.10333065,-0.10439592,26.76,-35.76,-14.94
1554104960553,-0.6751649000000001,0.741604,9.470863,-0.13848437,0.11611383,-0.10759171,26.7,-35.82,-14.82
1554104960573,-0.6751649000000001,0.8900445,9.466075,-0.10546118,0.12463594,-0.10226539,26.64,-35.88,-14.7
1554104960593,-0.7517793,1.1055226,9.384672,-0.082025364,0.11930962,-0.09161274,26.58,-35.94,-14.64
1554104960613,-0.91458505,1.0959458,9.513959,-0.08522116,0.10865697,-0.07243799,26.52,-36.0,-14.64
1554104960633,-0.82360536,1.0528502,9.614514999999999,-0.09161274,0.07563378,-0.04261058,26.46,-36.06,-14.58
1554104960653,-0.7038953,0.85652566,9.523536,-0.10439592,0.06285059999999999,-0.010652645,26.46,-36.06,-14.58
1554104960673,-0.7086836999999999,0.85173726,9.829993,-0.060720075,0.06391586,0.0010652645,26.52,-36.06,-14.52
1554104960693,-0.79966336,0.99538934,9.74859,0.03834952,0.07669904,0.022370555,26.7,-36.0,-14.52
1554104960714,-1.0007763,1.1390414,9.48044,0.03834952,0.07350325,0.029827405,26.88,-35.94,-14.52
1554104960733,-0.93373865,1.0576386,9.5809965,0.0063915867,0.084155895,0.040480047000000005,27.0,-35.94,-14.58
1554104960753,-0.89543146,1.0097545,9.413403,-0.004261058,0.09374327,0.036218993,27.06,-36.0,-14.58
1554104960773,-1.1971009,1.0480618,9.470863,-0.01917476,0.09374327,0.034088463,27.12,-36.12,-14.58
1554104960793,-1.13964,0.98102415,9.533113,-0.03195793,0.08841695,0.02876214,27.12,-36.3,-14.52
1554104960814,-0.9864110999999999,1.0432734000000001,9.57142,-0.046871635999999994,0.09161274,0.015978966,27.12,-36.48,-14.52
1554104960833,-1.0295067,0.86610246,9.365519,-0.05219796,0.098004326,0.004261058,27.0,-36.66,-14.52
1554104960853,-1.1492168,0.9331401,9.513959,-0.0031957934000000003,0.098004326,0.0,26.88,-36.9,-14.52
1554104960873,-1.0773908,1.158195,9.298480999999999,0.012783173500000002,0.08948222,-0.0063915867,26.82,-37.14,-14.52
1554104960893,-1.1156979999999999,1.158195,9.269751,-0.017044231,0.09054748,0.0031957934000000003,26.7,-37.44,-14.46
1554104960914,-0.92895025,1.0480618,9.422979,-0.034088463,0.08522116,0.0,26.64,-37.68,-14.46
1554104960933,-0.9624690999999999,0.9187749,9.298480999999999,-0.039414786,0.08522116,-0.00958738,26.64,-37.92,-14.4
1554104960953,-1.043872,0.83258367,9.446921000000001,-0.026631612000000002,0.07669904,-0.024501082,26.64,-38.04,-14.46
1554104960973,-1.0486604,0.9475053,9.341577000000001,-0.0031957934000000003,0.068176925,-0.020240024,26.7,-38.16,-14.46
1554104960993,-0.9959879,0.99538934,9.403825999999999,0.0,0.058589544,0.0,26.7,-38.1,-14.46
1554104961013,-1.067814,0.8996213,9.370307,0.004261058,0.047936900000000005,0.010652645,26.7,-38.04,-14.46
1554104961034,-1.1061212,1.0863690000000001,9.384672,-0.007456851,0.034088463,0.010652645,26.76,-37.98,-14.46
1554104961053,-1.0151415000000001,1.0432734000000001,9.250597,-0.041545313,0.02876214,0.0031957934000000003,26.76,-37.86,-14.4
1554104961073,-1.0821792,0.98581254,9.375095,-0.06604639400000001,0.03089267,-0.00958738,26.82,-37.62,-14.34
1554104961093,-1.091756,0.85173726,9.45171,-0.040480047000000005,0.024501082,-0.023435817999999997,26.82,-37.44,-14.22
1554104961114,-1.0534488000000002,0.8086416000000001,9.48044,0.0031957934000000003,0.027696876000000002,-0.022370555,26.82,-37.26,-14.1
1554104961133,-1.0965444,1.0145429,9.365519,0.010652645,0.02130529,-0.024501082,26.88,-37.14,-13.98
1554104961153,-1.1109096,1.0576386,9.245809,-0.054328485999999995,0.024501082,-0.022370555,26.88,-37.14,-13.86
1554104961173,-1.1923125,0.9187749,9.475652,-0.08628642,0.025566347000000003,-0.02876214,26.88,-37.2,-13.68
1554104961194,-1.1540052,0.81343,9.375095,-0.060720075,0.02130529,-0.054328485999999995,26.88,-37.2,-13.62
1554104961213,-1.2641385,0.85652566,9.341577000000001,-0.026631612000000002,0.018109497,-0.06924219,26.88,-37.2,-13.56
1554104961233,-1.1731589,0.95229375,9.341577000000001,0.033023197000000004,0.0010652645,-0.05965481,26.88,-37.2,-13.56
1554104961256,-1.1348516000000002,0.98581254,9.6049385,0.015978966,-0.0063915867,-0.047936900000000005,26.88,-37.14,-13.56
1554104961273,-1.163582,0.95229375,9.624092,-0.013848438000000001,-0.0063915867,-0.037284255,26.88,-37.08,-13.62
1554104961293,-1.163582,0.87567925,9.437345,-0.018109497,-0.0053263223,-0.033023197000000004,26.88,-37.08,-13.62
1554104961313,-1.2162545,0.95229375,9.523536,-0.007456851,0.004261058,-0.034088463,26.88,-37.02,-13.68
1554104961333,-1.0726023999999998,0.9379284999999999,9.446921000000001,0.029827405,0.0063915867,-0.04261058,26.88,-37.02,-13.68
1554104961354,-1.1156979999999999,1.0815806000000001,9.389461,0.05539375,0.014913702,-0.047936900000000005,26.88,-37.02,-13.68
1554104961373,-1.1061212,1.062427,9.370307,0.03195793,0.02130529,-0.04261058,26.88,-37.02,-13.68
1554104961393,-1.1587936,1.0528502,9.403825999999999,-0.0010652645,0.015978966,-0.05006743,26.88,-37.02,-13.74
1554104961413,-1.1827357,0.789488,9.57142,-0.00958738,0.0031957934000000003,-0.053263225,26.88,-37.14,-13.74
1554104961433,-1.2401965,0.75596917,9.384672,0.004261058,0.0,-0.047936900000000005,26.88,-37.2,-13.74
1554104961454,-1.2066777,1.0049661,9.475652,0.015978966,-0.0053263223,-0.03089267,26.88,-37.32,-13.74
1554104961474,-1.2306197,0.88525605,9.413403,0.034088463,0.0,-0.020240024,26.82,-37.38,-13.74
1554104961494,-1.13964,0.86610246,9.322422999999999,0.036218993,0.0053263223,-0.024501082,26.82,-37.38,-13.74
1554104961513,-1.2066777,0.95708215,9.370307,0.033023197000000004,0.010652645,-0.035153727999999995,26.82,-37.38,-13.74
1554104961533,-1.2880806,0.88525605,9.45171,0.011717908999999999,0.010652645,-0.040480047000000005,26.76,-37.44,-13.74
1554104961553,-1.1923125,0.96665895,9.322422999999999,-0.020240024,0.002130529,-0.049002163,26.76,-37.44,-13.74
1554104961573,-1.3024458,1.0241197,9.336788,-0.036218993,-0.004261058,-0.05006743,26.76,-37.38,-13.68
1554104961593,-1.1731589,0.9331401,9.442133,-0.020240024,-0.007456851,-0.04580637,26.76,-37.38,-13.68
1554104961613,-1.1444284,0.7990648,9.619304,0.0053263223,-0.002130529,-0.04580637,26.76,-37.38,-13.68
1554104961633,-1.292869,0.9091981,9.576208,0.018109497,0.004261058,-0.047936900000000005,26.82,-37.44,-13.62
1554104961653,-1.3215994,0.9331401,9.442133,0.017044231,-0.007456851,-0.041545313,26.82,-37.5,-13.62
1554104961673,-1.3934253,0.97623575,9.274539,-0.008522116,-0.0063915867,-0.029827405,26.88,-37.68,-13.56
1554104961693,-1.2737153,0.87567925,9.389461,-0.017044231,-0.010652645,-0.022370555,26.88,-37.86,-13.5
1554104961713,-1.1971009,0.83258367,9.513959,0.007456851,-0.0053263223,-0.018109497,26.94,-38.04,-13.44
1554104961733,-1.2162545,0.97144735,9.437345,0.039414786,-0.0031957934000000003,-0.02130529,26.94,-38.22,-13.38
1554104961753,-1.2114661,0.95229375,9.336788,0.008522116,-0.0010652645,-0.020240024,26.94,-38.4,-13.32
1554104961773,-1.163582,1.0384849,9.173983,-0.051132694000000006,0.008522116,-0.01917476,26.94,-38.58,-13.32
1554104961794,-1.2545617,0.83258367,9.466075,-0.07989483,0.013848438000000001,-0.013848438000000001,26.94,-38.76,-13.32
1554104961813,-1.2593501,0.6985083000000001,9.418191,-0.036218993,0.023435817999999997,-0.024501082,26.94,-38.94,-13.38
1554104961833,-1.2066777,0.7224503999999999,9.6288805,0.02130529,0.015978966,-0.03195793,26.94,-39.0,-13.38
1554104961853,-1.4556746,1.0384849,9.188348,0.012783173500000002,0.008522116,-0.041545313,27.0,-38.94,-13.44
1554104961873,-1.3120226000000001,1.1055226,9.250597,-0.06924219,-0.004261058,-0.03089267,27.0,-38.88,-13.5
1554104961893,-1.316811,0.87567925,9.288903999999999,-0.099069595,-0.0053263223,-0.01917476,27.0,-38.76,-13.5
1554104961913,-1.3263878,0.717662,9.413403,-0.07030745599999999,-0.015978966,-0.022370555,27.06,-38.64,-13.5
1554104961933,-1.3263878,0.7990648,9.403825999999999,-0.03834952,-0.022370555,-0.023435817999999997,27.06,-38.52,-13.5
1554104961953,-1.2497733,0.7990648,9.379883999999999,0.0063915867,-0.026631612000000002,-0.014913702,27.06,-38.4,-13.5
1554104961973,-1.3455413999999999,0.95708215,9.399037,-0.008522116,-0.026631612000000002,-0.012783173500000002,27.0,-38.28,-13.5
1554104961994,-1.3599066,0.9427169,9.36073,-0.04580637,-0.029827405,-0.008522116,27.0,-38.16,-13.62
1554104962013,-1.1587936,0.88525605,9.427767999999999,-0.06178534,-0.03195793,-0.004261058,26.94,-38.16,-13.74
1554104962033,-1.2545617,0.7224503999999999,9.576208,-0.049002163,-0.033023197000000004,0.0,26.94,-38.16,-13.86
1554104962054,-1.2593501,0.7272388000000001,9.542689,-0.007456851,-0.035153727999999995,0.0,27.0,-38.1,-13.98
1554104962073,-1.1731589,0.86131406,9.6049385,0.0031957934000000003,-0.027696876000000002,0.0,27.0,-38.04,-14.04
1554104962093,-1.2641385,0.9091981,9.442133,-0.02130529,-0.020240024,0.014913702,27.12,-37.8,-14.16
1554104962113,-1.3790601,0.9091981,9.351153,-0.046871635999999994,-0.014913702,0.018109497,27.18,-37.62,-14.22
1554104962133,-1.3311761999999998,0.9283517,9.351153,-0.07243799,-0.018109497,0.02130529,27.18,-37.5,-14.22
1554104962154,-1.2066777,0.7751228,9.542689,-0.07350325,-0.018109497,0.01917476,27.24,-37.38,-14.22
1554104962173,-1.2449848999999997,0.7032967,9.470863,-0.043675844000000005,-0.012783173500000002,0.004261058,27.24,-37.26,-14.16
1554104962193,-1.2641385,0.717662,9.470863,0.029827405,-0.0063915867,-0.002130529,27.24,-37.2,-14.1
1554104962213,-1.1731589,0.85173726,9.466075,0.041545313,-0.0031957934000000003,-0.0053263223,27.18,-37.14,-14.04
1554104962233,-1.2306197,0.88046765,9.284116000000001,-0.027696876000000002,0.0,0.0053263223,27.12,-37.26,-13.98
1554104962253,-1.1109096,0.789488,9.446921000000001,-0.084155895,0.0,0.004261058,27.06,-37.32,-13.98
1554104962274,-1.1300632,0.6075286999999999,9.552266,-0.07350325,0.008522116,0.0053263223,27.0,-37.38,-13.92
1554104962293,-1.0630256,0.56922144,9.724648,-0.011717908999999999,0.018109497,-0.0010652645,27.0,-37.44,-13.98
1554104962313,-1.0773908,0.7224503999999999,9.5809965,0.036218993,0.024501082,-0.0031957934000000003,26.94,-37.5,-13.98
1554104962333,-1.2066777,0.99538934,9.312846,0.010652645,0.025566347000000003,-0.002130529,26.94,-37.56,-14.04
1554104962353,-1.1923125,1.0145429,9.173983,-0.07137272,0.022370555,0.011717908999999999,26.88,-37.62,-14.16
1554104962374,-1.2689268999999999,0.8182184,9.5570545,-0.11930962,0.013848438000000001,0.015978966,26.82,-37.68,-14.22
1554104962393,-1.2976573999999998,0.6314706999999999,9.504382000000001,-0.111852765,0.007456851,0.020240024,26.76,-37.68,-14.28
1554104962413,-1.2689268999999999,0.47824179999999994,9.57142,0.024501082,0.0053263223,0.017044231,26.7,-37.68,-14.4
1554104962433,-1.2258313,0.88525605,9.288903999999999,0.10972224,-0.0031957934000000003,-0.002130529,26.64,-37.68,-14.46
1554104962454,-1.2497733,1.158195,9.126099,0.05006743,-0.007456851,-0.0053263223,26.58,-37.68,-14.46
1554104962473,-1.2066777,0.8086416000000001,9.269751,-0.05006743,-0.0063915867,0.002130529,26.52,-37.8,-14.52
1554104962494,-1.2689268999999999,0.75596917,9.513959,-0.09054748,-0.0063915867,0.008522116,26.52,-37.86,-14.52
1554104962513,-1.1156979999999999,0.75596917,9.576208,-0.06924219,-0.010652645,0.010652645,26.46,-37.92,-14.52
1554104962533,-1.2162545,0.5883751,9.499594,-0.0063915867,-0.002130529,0.0063915867,26.46,-37.86,-14.52
1554104962554,-1.1204863999999999,0.65062433,9.657611,0.06178534,0.0031957934000000003,-0.004261058,26.52,-37.74,-14.52
1554104962573,-1.2066777,0.96665895,9.427767999999999,0.04261058,0.008522116,-0.013848438000000001,26.52,-37.5,-14.52
1554104962593,-1.2114661,0.9235633,9.279327,-0.023435817999999997,0.00958738,-0.011717908999999999,26.58,-37.2,-14.52
1554104962614,-1.2306197,0.5979519,9.365519,-0.07456851,0.018109497,-0.004261058,26.76,-36.9,-14.58
1554104962633,-1.1492168,0.54049104,9.437345,-0.083090626,0.025566347000000003,-0.004261058,26.88,-36.48,-14.58
1554104962654,-1.2210428999999998,0.52133745,9.461286999999999,-0.023435817999999997,0.040480047000000005,-0.00958738,27.06,-36.06,-14.58
1554104962673,-1.3455413999999999,0.741604,9.504382000000001,0.035153727999999995,0.043675844000000005,-0.015978966,27.18,-35.7,-14.64
1554104962693,-1.2689268999999999,0.9331401,9.379883999999999,0.014913702,0.04261058,-0.020240024,27.3,-35.4,-14.64
1554104962714,-1.2545617,0.8038531999999999,9.418191,-0.06604639400000001,0.041545313,-0.012783173500000002,27.36,-35.28,-14.64
1554104962733,-1.2210428999999998,0.5931635000000001,9.590573,-0.101200126,0.046871635999999994,-0.0031957934000000003,27.48,-35.22,-14.64
1554104962753,-1.1875241,0.57879823,9.504382000000001,-0.051132694000000006,0.05539375,-0.004261058,27.48,-35.22,-14.64
1554104962774,-1.1875241,0.66498953,9.566631,-0.0053263223,0.05965481,-0.01917476,27.48,-35.22,-14.64
1554104962793,-1.1683705,0.6362591,9.442133,-0.020240024,0.07350325,-0.03089267,27.42,-35.22,-14.64
1554104962814,-1.1731589,0.6985083000000001,9.45171,-0.05752428,0.07669904,-0.039414786,27.36,-35.22,-14.64
1554104962834,-1.1300632,0.5021838,9.528324000000001,-0.07776430000000001,0.08841695,-0.035153727999999995,27.36,-35.22,-14.7
1554104962854,-1.2880806,0.39683893,9.537901,-0.029827405,0.09374327,-0.02130529,27.3,-35.16,-14.7
1554104962874,-1.3838485,0.54527944,9.45171,0.0053263223,0.08948222,-0.027696876000000002,27.24,-35.1,-14.7
1554104962894,-1.5753847,0.75118077,9.461286999999999,0.0053263223,0.082025364,-0.02130529,27.24,-35.1,-14.76
1554104962913,-1.4460978999999998,0.64583594,9.734225,-0.014913702,0.07776430000000001,-0.015978966,27.24,-35.04,-14.76
1554104962934,-1.4891934,0.6314706999999999,9.523536,-0.035153727999999995,0.07350325,0.0010652645,27.24,-34.98,-14.76
1554104962953,-1.484405,0.65541273,9.461286999999999,-0.022370555,0.084155895,0.015978966,27.3,-34.92,-14.76
1554104962974,-1.5610195,0.47824179999999994,9.389461,-0.008522116,0.09161274,0.025566347000000003,27.36,-34.8,-14.76
1554104962993,-1.5035586,0.46866497,9.432556,-0.002130529,0.09374327,0.027696876000000002,27.42,-34.8,-14.76
1554104963013,-1.5514427,0.6937199000000001,9.552266,0.011717908999999999,0.099069595,0.02130529,27.42,-34.74,-14.76
1554104963034,-1.5658079,0.7272388000000001,9.317635000000001,-0.025566347000000003,0.10546118,0.034088463,27.48,-34.68,-14.7
1554104963054,-1.7190368000000003,0.64583594,9.260174000000001,-0.07030745599999999,0.10439592,0.040480047000000005,27.54,-34.62,-14.64
1554104963074,-1.6950948000000001,0.47824179999999994,9.624092,-0.07989483,0.10865697,0.046871635999999994,27.54,-34.56,-14.64
1554104963093,-1.5801731,0.3824737,9.45171,-0.034088463,0.10972224,0.03834952,27.54,-34.56,-14.52
1554104963114,-1.5658079,0.5117606,9.183558999999999,0.018109497,0.10865697,0.024501082,27.54,-34.56,-14.46
1554104963134,-1.6424223000000002,0.75118077,9.073426,-0.002130529,0.11611383,0.008522116,27.54,-34.56,-14.4
1554104963153,-1.6041151000000002,0.66498953,9.126099,-0.06498113,0.11504856,0.013848438000000001,27.54,-34.62,-14.34
1554104963173,-1.6759412,0.5931635000000001,9.164406,-0.13422333,0.12357068,0.011717908999999999,27.54,-34.68,-14.34
1554104963193,-1.6519991000000003,0.41120413,9.173983,-0.16298546,0.12783173,0.0063915867,27.48,-34.74,-14.34
1554104963213,-1.6041151000000002,0.26276365,9.399037,-0.14594123,0.12783173,0.008522116,27.48,-34.8,-14.28
1554104963234,-1.8004397,0.6027403,9.231442999999999,-0.10972224,0.11824436,-0.00958738,27.48,-34.86,-14.28
1554104963253,-1.8004397,0.5117606,9.264961999999999,-0.11611383,0.096939065,-0.014913702,27.48,-34.92,-14.28
1554104963274,-1.8148049,0.49739540000000004,9.140464,-0.15126756,0.09161274,0.014913702,27.48,-34.92,-14.22
1554104963294,-1.8626889,0.43514615,9.274539,-0.17576863,0.07882957,0.007456851,27.48,-34.92,-14.22
1554104963313,-1.7669207999999998,0.29628247,9.490017,-0.13528858,0.06711166,0.024501082,27.48,-34.92,-14.22
1554104963333,-1.7764976000000003,0.27712885,9.375095,-0.06924219,0.05965481,0.027696876000000002,27.48,-34.86,-14.16
1554104963354,-1.7621324,0.32022446,9.399037,-0.004261058,0.05006743,0.029827405,27.48,-34.74,-14.1
1554104963373,-1.8722657,0.55964464,9.308058,-0.00958738,0.040480047000000005,0.037284255,27.48,-34.62,-14.1
1554104963393,-1.7764976000000003,0.55964464,9.389461,-0.07243799,0.040480047000000005,0.058589544,27.48,-34.56,-14.04
1554104963413,-1.8243817,0.41120413,9.504382000000001,-0.113983296,0.040480047000000005,0.068176925,27.54,-34.44,-13.92
1554104963434,-1.9488802,0.26755205,9.523536,-0.094808534,0.051132694000000006,0.06711166,27.54,-34.32,-13.86
1554104963454,-1.7908629,0.21009120000000003,9.533113,-0.018109497,0.060720075,0.068176925,27.54,-34.26,-13.8
1554104963474,-1.9871874,0.43993455,9.504382000000001,0.047936900000000005,0.06604639400000001,0.05539375,27.54,-34.14,-13.74
1554104963493,-2.0302830000000003,0.6985083000000001,9.351153,0.047936900000000005,0.06498113,0.05006743,27.54,-34.08,-13.68
1554104963514,-1.9536686,0.5165489999999999,9.193136,-0.020240024,0.05965481,0.06285059999999999,27.54,-34.02,-13.68
1554104963534,-1.9967641999999999,0.3393781,9.241019999999999,-0.07243799,0.05219796,0.068176925,27.54,-34.02,-13.74
1554104963554,-2.0350714,0.24361002,9.45171,-0.007456851,0.039414786,0.068176925,27.54,-34.08,-13.74
1554104963574,-1.9776106,0.5165489999999999,9.130887,0.07137272,0.017044231,0.051132694000000006,27.54,-34.2,-13.8
1554104963593,-2.0015526,0.5931635000000001,9.087791000000001,0.058589544,0.002130529,0.051132694000000006,27.54,-34.32,-13.8
1554104963613,-1.9632453999999997,0.46387658,9.173983,0.0010652645,-0.012783173500000002,0.04580637,27.54,-34.44,-13.86
1554104963634,-2.0111293999999997,0.3681085,9.140464,-0.022370555,-0.025566347000000003,0.041545313,27.54,-34.62,-13.86
1554104963654,-1.9776106,0.41120413,9.365519,-0.011717908999999999,-0.039414786,0.033023197000000004,27.54,-34.74,-13.86
1554104963675,-1.9919758,0.41120413,9.260174000000001,0.04261058,-0.04261058,0.034088463,27.48,-34.86,-13.86
1554104963693,-1.7764976000000003,0.6123171,9.370307,0.098004326,-0.040480047000000005,0.04261058,27.42,-34.98,-13.8
1554104963713,-1.7956512999999998,0.6841431,9.178771000000001,0.09054748,-0.033023197000000004,0.033023197000000004,27.3,-35.04,-13.8
1554104963734,-1.7908629,0.65541273,9.135675,0.013848438000000001,-0.035153727999999995,0.012783173500000002,27.18,-35.1,-13.8
1554104963754,-1.8818424999999999,0.39683893,9.245809,-0.08948222,-0.03195793,-0.00958738,27.0,-35.16,-13.8
1554104963773,-1.8866308999999997,0.43514615,9.308058,-0.1107875,-0.03834952,-0.02130529,26.94,-35.16,-13.8
1554104963793,-1.8004397,0.20530279,9.384672,-0.056459017,-0.03195793,-0.01917476,26.82,-35.34,-13.8
1554104963813,-1.8579005000000002,0.24361002,9.341577000000001,0.024501082,-0.033023197000000004,-0.014913702,26.7,-35.52,-13.8
1554104963834,-1.958457,0.41599256,9.332,0.05219796,-0.034088463,-0.029827405,26.64,-35.7,-13.8
1554104963853,-1.9297266,0.5165489999999999,9.327211,0.013848438000000001,-0.033023197000000004,-0.033023197000000004,26.64,-36.0,-13.8
1554104963873,-1.9153613999999999,0.44472298,9.322422999999999,-0.023435817999999997,-0.023435817999999997,-0.03089267,26.64,-36.42,-13.8
1554104963894,-1.7764976000000003,0.40162733,9.346364999999999,-0.023435817999999997,-0.013848438000000001,-0.034088463,26.64,-36.84,-13.8
1554104963913,-1.7381904,0.3393781,9.494805,-0.023435817999999997,0.012783173500000002,-0.03089267,26.58,-37.26,-13.86
1554104963934,-1.7860744999999998,0.31064767,9.437345,0.008522116,0.025566347000000003,-0.035153727999999995,26.58,-37.56,-13.86
1554104963953,-1.7812861,0.39683893,9.365519,0.018109497,0.034088463,-0.056459017,26.58,-37.86,-13.92
1554104963973,-1.8148049,0.47824179999999994,9.21229,-0.02876214,0.04474111,-0.049002163,26.52,-38.1,-13.98
1554104963993,-1.9105729999999999,0.47345337,9.274539,-0.082025364,0.039414786,-0.04261058,26.52,-38.28,-14.04
1554104964014,-1.7429788,0.45429978,9.442133,-0.12144015,0.025566347000000003,-0.026631612000000002,26.52,-38.4,-14.04
1554104964033,-1.6950948000000001,0.26276365,9.504382000000001,-0.10546118,0.00958738,-0.002130529,26.52,-38.34,-14.1
1554104964053,-1.6807296000000003,0.28670564,9.504382000000001,-0.056459017,-0.00958738,0.014913702,26.52,-38.28,-14.1
1554104964073,-1.733402,0.32022446,9.499594,-0.01917476,-0.017044231,0.012783173500000002,26.52,-38.28,-14.16
1554104964093,-1.7669207999999998,0.45429978,9.264961999999999,-0.015978966,-0.03089267,0.018109497,26.52,-38.22,-14.16
1554104964114,-1.9488802,0.55964464,9.399037,-0.07563378,-0.04261058,0.034088463,26.58,-38.16,-14.1
1554104964133,-1.9153613999999999,0.5117606,9.322422999999999,-0.16192019,-0.056459017,0.068176925,26.58,-38.04,-14.16
1554104964153,-1.8674773,0.12389994,9.504382000000001,-0.2034655,-0.04474111,0.09267801,26.58,-37.86,-14.16
1554104964174,-1.9057846,-0.0005985504,9.513959,-0.17044231,-0.025566347000000003,0.09267801,26.58,-37.68,-14.22
1554104964193,-1.7094599999999998,0.25797522,9.542689,-0.12996227,0.018109497,0.07137272,26.52,-37.44,-14.22
1554104964214,-1.9009962,0.53570265,9.528324000000001,-0.13102753,0.098004326,0.022370555,26.52,-37.26,-14.28
1554104964233,-1.8339584999999998,0.75118077,9.633669,-0.26312032,0.17150758,0.0063915867,26.46,-37.02,-14.34
1554104964253,-1.8004397,0.57400984,9.829993,-0.43356264,0.257794,-0.023435817999999997,26.46,-36.78,-14.4
1554104964273,-1.9488802,0.25797522,10.031107,-0.56885123,0.34088463,-0.034088463,26.4,-36.66,-14.46
1554104964296,-2.336741,0.037708677,10.586561,-0.7701861999999999,0.46552056,-0.022370555,26.4,-36.54,-14.52
1554104964318,-2.753332,-0.41718966,10.883442,-0.76059884,0.57311225,0.049002163,26.4,-36.36,-14.7
1554104964334,-2.8491,-0.6374562,11.065402,-0.65194184,0.61572284,0.12463594,26.4,-36.24,-14.76
1554104964359,-3.1364042999999997,-0.82899237,11.180324,-0.42077947,0.6785734,0.24927188,26.46,-35.64,-15.0
1554104964373,-3.2896330000000003,-0.7140707,11.132439999999999,-0.28442562,0.6988135,0.3206446,26.52,-35.46,-15.06
1554104964393,-3.5817258,-0.4794389,11.074978999999999,-0.16831179,0.6988135,0.4165184,26.58,-35.1,-15.24
1554104964414,-3.6008794,-0.14425065,10.725425,-0.22477080000000002,0.6860303000000001,0.5592638000000001,26.64,-34.74,-15.42
1554104964433,-3.5529952000000007,-0.08200141,10.505158,-0.45380265,0.70840085,0.7094661,26.76,-34.44,-15.54
1554104964454,-3.7541082,0.013766658999999999,10.050261,-0.7595335999999999,0.7520766999999999,0.8362325999999999,26.82,-34.08,-15.66
1554104964474,-3.8115692,-0.38367084,9.705494999999999,-1.0769824,0.7595335999999999,0.9598033000000001,26.94,-33.84,-15.66
1554104964493,-4.0270470000000005,-0.6135142,9.284116000000001,-1.401888,0.7595335999999999,1.0375676,27.0,-33.66,-15.66
1554104964513,-4.213794999999999,-1.1210848999999998,9.288903999999999,-1.6990968000000002,0.76592517,1.1036139999999999,27.0,-33.72,-15.6
1554104964534,-4.525041000000001,-1.3940238999999999,9.312846,-1.8993665000000002,0.74248934,1.1792477,27.06,-33.78,-15.6
1554104964554,-4.6208089999999995,-1.7196354,9.183558999999999,-2.0431771,0.7041398,1.2197278,27.12,-33.78,-15.66
1554104964573,-4.7500963,-2.1218612,8.565855,-2.1795310000000003,0.664725,1.2634037,27.12,-33.84,-15.9
1554104964594,-4.6399627,-2.4809916000000003,8.22109,-2.2860575,0.6444850000000001,1.2857742,27.06,-33.78,-16.32
1554104964614,-4.9799394999999995,-2.5767596,7.6560583,-2.3062975,0.5965481,1.2857742,27.0,-33.66,-16.86
1554104964634,-5.0086699999999995,-2.8353333,7.6081743,-2.279666,0.5219796,1.2548815,26.88,-33.42,-17.52
1554104964654,-5.2002063,-2.9741971,7.3591776,-2.2008363999999996,0.46658584,1.2431636000000001,26.58,-32.94,-18.36
1554104964674,-5.272032299999999,-3.103484,7.167641000000001,-2.1667478,0.35579833,1.2335763000000002,26.22,-32.28,-19.38
1554104964694,-4.817133999999999,-3.3045970000000002,6.51163,-2.2050973999999997,0.26738137,1.180313,25.86,-31.56,-20.4
1554104964713,-4.927267,-3.3141737,6.305729,-2.1443772,0.23542345,1.1227888000000001,25.5,-30.6,-21.48
1554104964733,-4.984728,-3.3045970000000002,6.0806737,-1.9632823,0.15765914,1.0247844000000002,25.14,-29.34,-22.44
1554104964754,-4.7357309999999995,-2.9741971,5.7119665,-1.7353158,0.07243799,0.8905610999999999,24.6,-27.42,-23.7
1554104964773,-4.663905000000001,-2.8640637000000004,5.515642,-1.6223978000000001,0.03834952,0.79894835,24.42,-26.76,-24.18
1554104964793,-4.7740383,-3.342904,5.367202,-1.5169365,0.0031957934000000003,0.6988135,24.06,-24.9,-25.32
1554104964813,-4.525041000000001,-3.9797617999999995,5.209184,-1.3709954,-0.033023197000000004,0.6135923000000001,23.88,-23.64,-25.98
1554104964833,-4.3957543,-4.257489,5.0559554,-1.2538162,-0.014913702,0.5795039000000001,23.76,-22.38,-26.46
1554104964853,-4.525041000000001,-4.425083,4.8979383,-1.0695255,0.025566347000000003,0.515588,23.7,-21.78,-26.76
1554104964874,-4.6495394999999995,-3.9606082000000002,4.270657,-0.8990832000000001,0.07669904,0.43569317,23.4,-20.16,-27.48
1554104964893,-5.114014599999999,-3.6876693,4.246715,-0.8841694999999999,0.096939065,0.37603834,23.16,-19.26,-28.02
1554104964913,-5.396530599999999,-3.946243,4.4717703,-0.9768475000000001,0.096939065,0.33129725,22.8,-18.36,-28.44
1554104964933,-5.410896,-4.587889,4.56275,-1.0098706,0.098004326,0.31638354,22.38,-17.46,-28.74
1554104964953,-5.5018754,-4.678869000000001,4.5435963,-0.87032104,0.111852765,0.30786142,22.02,-16.5,-29.04
1554104964973,-5.932832,-4.630985,4.490924,-0.7882956999999999,0.1470065,0.29933932,21.66,-15.42,-29.34
1554104964993,-6.291962,-4.6501384,4.7925935,-0.75633776,0.14274544,0.30360037,21.36,-14.58,-29.64
1554104965013,-5.990292500000001,-5.00448,5.1660886,-0.6892261,0.06604639400000001,0.29827404,21.06,-13.68,-29.88
1554104965033,-5.741296,-5.191228,5.1900306,-0.4261058,0.046871635999999994,0.23648871,20.76,-12.9,-30.06
1554104965054,-6.0142345,-4.899135,4.8739963,-0.1587244,0.06285059999999999,0.18642128,20.52,-12.24,-30.18
1554104965073,-6.277597,-4.578312400000001,4.5435963,-0.10226539,0.043675844000000005,0.13635385,20.46,-11.58,-30.3
1554104965094,-6.2632318,-4.6022544000000005,4.4765587,-0.314253,-0.011717908999999999,0.13528858,20.46,-10.92,-30.36
1554104965113,-6.1100025,-4.755483,4.931457,-0.66152924,-0.07030745599999999,0.15978967,20.46,-10.32,-30.36
1554104965134,-5.7939680000000005,-5.555146700000001,5.34326,-0.95128113,-0.10972224,0.17257284,20.52,-9.78,-30.36
1554104965154,-5.765238,-6.187216,5.659294,-0.91825795,-0.07989483,0.14913702,20.58,-9.18,-30.42
1554104965174,-5.8849480000000005,-6.206369400000001,5.6257753,-0.64341974,-0.033023197000000004,0.14487597,20.64,-8.4,-30.48
1554104965193,-5.8562174,-5.880758,5.194819,-0.37603834,-0.012783173500000002,0.12996227,20.7,-7.68,-30.48
1554104965213,-5.9041014,-5.909488,5.089474,-0.21731395,0.004261058,0.1438107,20.82,-6.9,-30.54
1554104965234,-5.961562000000001,-5.9142766,5.156512,-0.13102753,0.039414786,0.13528858,20.88,-6.24,-30.6
1554104965254,-6.191406,-5.7466826,5.175665400000001,-0.033023197000000004,0.07456851,0.12570119999999999,20.94,-5.64,-30.66
1554104965273,-6.2632318,-5.6030307,5.185242,0.10972224,0.080960095,0.113983296,21.0,-5.16,-30.72
1554104965293,-6.0285997,-5.54557,4.835689,0.2695119,0.10759171,0.112918034,21.0,-4.8,-30.78
1554104965313,-6.0142345,-5.0140567,4.6393642,0.33129725,0.165116,0.10759171,21.0,-4.68,-30.78
1554104965334,-6.2009826,-4.7985787,4.6058455,0.23755397,0.20453078,0.111852765,21.0,-4.68,-30.78
1554104965354,-6.315904,-4.875193,4.7255554,0.068176925,0.18322548,0.101200126,21.0,-4.62,-30.78
1554104965374,-6.2823853,-5.229535,4.931457,-0.037284255,0.16405073,0.11717909,21.0,-4.62,-30.78
1554104965394,-6.2823853,-5.617396,5.0559554,-0.012783173500000002,0.21092236,0.13209279,21.0,-4.62,-30.78
1554104965413,-6.445191,-5.579088700000001,4.955399,0.1107875,0.2695119,0.11824436,21.0,-4.68,-30.78
1554104965433,-6.7277070000000005,-5.349245,4.797382,0.19600865,0.30253512,0.13528858,21.0,-4.8,-30.78
1554104965454,-6.7372837,-5.3205147,4.9458222,0.25566345,0.294013,0.12996227,21.0,-4.86,-30.78
1554104965474,-6.6415157,-5.2343235,4.706402,0.28975195,0.27803403,0.12144015,21.06,-4.98,-30.78
1554104965493,-6.684611299999999,-5.0906715,4.6202106,0.29294774,0.2790993,0.11504856,21.24,-5.1,-30.78
1554104965513,-6.828263300000001,-5.109825,4.648941000000001,0.294013,0.27803403,0.094808534,21.36,-5.28,-30.72
1554104965534,-6.9719152,-5.119402,4.6633059999999995,0.3323625,0.27377295,0.06604639400000001,21.66,-5.7,-30.6
1554104965554,-7.0485296,-4.803367,4.7016134,0.39521313,0.25246766,0.039414786,21.9,-5.94,-30.48
1554104965573,-7.077260000000001,-4.6022544000000005,4.68246,0.39734364,0.22903186,0.014913702,22.02,-6.12,-30.42
1554104965594,-7.077260000000001,-4.420294999999999,4.672883000000001,0.31105720000000003,0.18429075,-0.03195793,22.44,-6.6,-30.24
1554104965613,-7.216124000000001,-4.587889,4.854842700000001,0.26631612,0.165116,-0.05752428,22.56,-6.78,-30.18
1554104965634,-7.101202000000001,-4.8560395,4.9745526,0.3206446,0.15233281,-0.05539375,22.92,-7.26,-29.94
1554104965653,-6.9623384,-4.6405616,4.7016134,0.4282363,0.16831179,-0.06924219,23.1,-7.62,-29.82
1554104965673,-7.125144500000001,-4.3436804,4.490924,0.4250405,0.16618125,-0.10439592,23.22,-8.04,-29.64
1554104965694,-7.015011,-4.305373,4.6058455,0.30679616,0.14594123,-0.13102753,23.34,-8.52,-29.46
1554104965714,-7.0581064,-4.659715,4.7734394,0.21092236,0.13528858,-0.12037488,23.46,-8.88,-29.16
1554104965734,-7.005433999999999,-4.7506948,4.759074,0.23648871,0.14487597,-0.09054748,23.64,-9.18,-28.92
1554104965753,-7.1730285,-4.573524,4.6297874000000006,0.30892670000000005,0.15126756,-0.07989483,23.88,-9.42,-28.62
1554104965774,-7.134721300000001,-4.4059295999999994,4.3329067000000006,0.30786142,0.13635385,-0.08735169,24.06,-9.66,-28.38
1554104965794,-7.0102224,-4.214393599999999,4.56275,0.28868666,0.12037488,-0.09267801,24.24,-9.84,-28.08
1554104965814,-7.077260000000001,-4.3101616,4.3807906999999995,0.3153183,0.113983296,-0.09587380000000001,24.42,-10.02,-27.9
1554104965833,-7.019799000000001,-4.214393599999999,4.538808,0.30892670000000005,0.10546118,-0.09267801,24.6,-10.08,-27.72
1554104965853,-7.1395097000000005,-3.9510313999999997,4.5148660000000005,0.22264028,0.10226539,-0.08522116,24.72,-10.14,-27.66
1554104965874,-7.2592196,-3.9175123999999997,4.4382515,0.14061491,0.09054748,-0.084155895,24.9,-10.32,-27.66
1554104965893,-7.1730285,-4.0420110000000005,4.8165355000000005,0.082025364,0.080960095,-0.094808534,24.96,-10.68,-27.66
1554104965915,-7.0724716,-4.147355999999999,4.7782279999999995,0.10652645,0.07669904,-0.10865697,25.02,-10.98,-27.66
1554104965933,-7.0820484,-4.0994720000000004,4.624999,0.14807177,0.082025364,-0.11504856,25.08,-11.28,-27.66
1554104965953,-7.2065472999999995,-4.223970400000001,4.6441526,0.098004326,0.080960095,-0.094808534,25.14,-11.64,-27.6
1554104965974,-7.1586633,-4.348469000000001,4.768651,0.03195793,0.084155895,-0.068176925,25.2,-11.94,-27.6
1554104965994,-7.201759,-4.3388919999999995,4.6920366,0.029827405,0.07456851,-0.05539375,25.32,-12.18,-27.48
1554104966014,-7.1730285,-4.386776,4.5914803,0.056459017,0.07137272,-0.043675844000000005,25.38,-12.42,-27.42
1554104966033,-7.091625,-4.300585,4.4621935,0.05539375,0.07350325,-0.040480047000000005,25.44,-12.54,-27.36
1554104966053,-7.005433999999999,-4.228758999999999,4.634576,0.029827405,0.07030745599999999,-0.041545313,25.44,-12.54,-27.3
1554104966074,-6.8569937,-4.3819875999999995,4.5196543,0.0,0.06711166,-0.036218993,25.5,-12.54,-27.24
1554104966093,-6.8761472999999995,-4.530428,4.735132,0.0010652645,0.07776430000000001,-0.026631612000000002,25.5,-12.48,-27.18
1554104966113,-6.9767036,-4.4538136,4.888361499999999,0.08735169,0.099069595,-0.039414786,25.56,-12.48,-27.12
1554104966133,-6.9383965,-4.147355999999999,4.6537294000000005,0.13528858,0.11504856,-0.039414786,25.56,-12.48,-27.12
1554104966153,-6.9862804,-4.0707417,4.490924,0.09054748,0.13209279,-0.027696876000000002,25.56,-12.54,-27.06
1554104966174,-7.1586633,-3.9558197999999996,4.371214,-0.0053263223,0.13954964,-0.033023197000000004,25.56,-12.6,-27.06
1554104966194,-7.144297999999999,-4.185663,4.529230999999999,-0.06924219,0.13741912,-0.03834952,25.62,-12.72,-27.06
1554104966214,-7.2065472999999995,-4.3197384,4.672883000000001,-0.08735169,0.13315806,-0.04261058,25.62,-12.84,-27.06
1554104966233,-7.2113357,-4.425083,4.735132,-0.036218993,0.14061491,-0.06391586,25.68,-12.9,-27.0
1554104966253,-7.517792999999999,-4.3724110000000005,4.687248,0.007456851,0.15765914,-0.06498113,25.74,-13.02,-27.0
1554104966274,-7.489063000000001,-4.2383356,4.4957123,-0.00958738,0.14594123,-0.05006743,25.8,-13.08,-26.94
1554104966294,-7.407660000000001,-4.180875,4.5483847,-0.07137272,0.11930962,-0.051132694000000006,25.86,-13.14,-26.88
1554104966313,-7.2927384,-4.429871599999999,4.586692,-0.12250541,0.094808534,-0.053263225,25.86,-13.14,-26.82
1554104966333,-7.134721300000001,-4.6405616,4.8021703,-0.10546118,0.099069595,-0.058589544,25.92,-13.08,-26.7
1554104966354,-7.0820484,-4.6405616,4.706402,-0.013848438000000001,0.13209279,-0.060720075,25.98,-13.02,-26.64
1554104966375,-7.3406224,-4.386776,4.577115,0.046871635999999994,0.17257284,-0.05752428,26.04,-12.9,-26.52
1554104966393,-7.3214690000000004,-4.0994720000000004,4.1844660000000005,0.0031957934000000003,0.17789917,-0.05539375,26.1,-12.78,-26.46
1554104966414,-7.2592196,-4.0994720000000004,4.3568487000000005,-0.07350325,0.17257284,-0.07030745599999999,26.1,-12.6,-26.34
1554104966434,-7.2927384,-3.970185,4.32333,-0.12037488,0.16405073,-0.098004326,26.22,-12.48,-26.28
1554104966454,-7.168239999999999,-3.8456864,4.4238862999999995,-0.16298546,0.16724652,-0.12463594,26.34,-12.24,-26.22
1554104966474,-7.1155677,-3.8600516000000002,4.553173,-0.18002969,0.18535602,-0.17789917,26.52,-12.12,-26.1
1554104966493,-6.9719152,-3.86484,4.270657,-0.2130529,0.20879184,-0.22690132,26.7,-12.0,-25.86
1554104966513,-6.9383965,-3.912724,4.1317935,-0.28549087,0.24820662,-0.26205507,26.88,-11.88,-25.62
1554104966534,-6.9719152,-3.7163997,3.767875,-0.40053943,0.28122982,-0.32810146,27.06,-11.82,-25.44
1554104966553,-7.0341644,-3.840898,3.6768951000000003,-0.5635249,0.29614353,-0.37816888,27.24,-11.58,-25.26
1554104966574,-6.943185000000001,-4.362833999999999,3.6816837999999996,-0.6860303000000001,0.29294774,-0.42290998,27.42,-11.22,-25.08
1554104966594,-6.50744,-5.105036699999999,4.270657,-0.66365975,0.30892670000000005,-0.46658584,27.54,-10.68,-24.9
1554104966614,-6.4212489999999995,-5.373187000000001,4.371214,-0.41438788,0.386691,-0.5230448000000001,27.6,-9.96,-24.72
1554104966633,-6.612785000000001,-5.4210709999999995,3.7726634,-0.07669904,0.46339005,-0.5539375,27.78,-9.18,-24.6
1554104966653,-6.679823,-5.2678423,3.3752258,0.11824436,0.50600064,-0.5901565,27.96,-8.4,-24.6
1554104966674,-6.6893997,-5.143344,3.1597476,0.18642128,0.5028047999999999,-0.628506,28.2,-7.62,-24.6
1554104966694,-6.7851677,-5.1385555,2.8389246,0.11504856,0.4644553,-0.66365975,28.5,-6.9,-24.6
1554104966713,-6.7612257,-5.48332,2.8389246,0.002130529,0.41545314,-0.7041398,28.92,-6.24,-24.48
1554104966733,-6.8905125,-5.823297,2.7910407000000004,-0.039414786,0.38775626,-0.7254451,29.34,-5.64,-24.3
1554104966754,-6.924031299999999,-6.206369400000001,2.891597,0.06924219,0.36325517,-0.71585774,29.76,-5.1,-24.18
1554104966774,-6.900089299999999,-6.192004,2.5803509,0.23755397,0.34301516,-0.71798825,30.18,-4.62,-23.88
1554104966793,-6.95755,-5.952584,2.7383683,0.35579833,0.32277513,-0.71479243,30.6,-4.14,-23.58
1554104966814,-6.847417,-6.1345434,2.6282349,0.48682585,0.28336033,-0.69348717,30.9,-3.6,-23.22
1554104966833,-6.5744777,-6.3021374,2.5899277,0.535828,0.26631612,-0.6764429,31.2,-2.94,-22.8
1554104966853,-6.631939,-6.407482,2.6426,0.63702816,0.27696875,-0.6625945,31.38,-2.28,-22.32
1554104966874,-6.780379300000001,-6.393117,2.7670987,0.79681784,0.28655612,-0.6498113,31.56,-1.62,-21.9
1554104966894,-6.933608,-6.4505777,2.819771,0.9225190000000001,0.24181503,-0.6317018,31.74,-1.08,-21.54
1554104966914,-6.823475,-6.488885,3.0879216,0.9896306999999999,0.20772657,-0.5752428,31.98,-0.72,-21.12
1554104966933,-6.670246000000001,-6.5655,3.1836896,1.067395,0.20772657,-0.50813115,32.28,-0.48,-20.76
1554104966953,-6.8761472999999995,-6.1489085999999995,3.2363622000000003,1.0876350000000001,0.20985709,-0.46232477,32.58,-0.3,-20.4
1554104966974,-6.981492,-6.000468,3.3129766000000003,0.97471696,0.18109496,-0.4314321,32.88,-0.3,-20.04
1554104966993,-7.019799000000001,-5.612607499999999,3.0113072,0.7275756,0.13102753,-0.40266997,33.12,-0.54,-19.8
1554104967013,-6.991069,-5.751471,3.5763388,0.45806372,0.09587380000000001,-0.38882150000000004,33.42,-0.84,-19.5
1554104967034,-6.895301,-6.172850599999999,3.8349125,0.24074976,0.07882957,-0.36432046,33.66,-1.14,-19.2
1554104967057,-6.919242999999999,-6.345233,4.4238862999999995,0.14168017,0.07563378,-0.32384038,33.9,-1.62,-18.84
1554104967075,-7.005433999999999,-6.2446766,4.170100700000001,0.12463594,0.043675844000000005,-0.30786142,33.96,-1.98,-18.66
1554104967093,-6.794744500000001,-6.1106014,3.9833531000000004,0.07137272,0.024501082,-0.28229508,34.02,-2.1,-18.6
1554104967113,-6.708553299999999,-6.330868,4.0503907,-0.04580637,0.017044231,-0.25566345,34.08,-2.4,-18.48
1554104967133,-6.6989765,-6.618172,4.308964700000001,-0.111852765,0.0031957934000000003,-0.23648871,34.26,-2.58,-18.36
1554104967153,-6.9144545,-6.5750766,4.624999,-0.056459017,-0.03834952,-0.21837921,34.44,-2.7,-18.24
1554104967174,-6.895301,-6.431424,4.2993879999999995,0.04474111,-0.10013486,-0.20240025,34.62,-2.7,-18.18
1554104967193,-6.679823,-6.359598,4.055179,0.034088463,-0.14594123,-0.18109496,34.74,-2.7,-18.0
1554104967213,-6.540959,-6.4122705,4.0934862999999995,-0.034088463,-0.16618125,-0.15233281,34.92,-2.7,-17.82
1554104967233,-6.411672,-6.5990186,4.2993879999999995,-0.03195793,-0.17576863,-0.13528858,35.04,-2.64,-17.7
1554104967254,-6.363788,-6.517616,4.1653123,0.06604639400000001,-0.16618125,-0.10546118,35.22,-2.52,-17.58
1554104967274,-6.1530986,-6.3404446,4.0216603,0.18429075,-0.14168017,-0.05752428,35.28,-2.4,-17.46
1554104967293,-6.129156,-6.215946,3.9689879999999995,0.21731395,-0.112918034,-0.020240024,35.34,-2.28,-17.46
1554104967313,-5.8945246,-6.1106014,3.8013937000000007,0.15233281,-0.07776430000000001,-0.0010652645,35.34,-2.16,-17.4
1554104967334,-5.7700260000000005,-6.168062,4.0264487,0.05752428,-0.034088463,0.01917476,35.34,-2.1,-17.4
1554104967353,-5.8226986,-6.2207346,3.9115269999999995,0.0053263223,0.0053263223,0.035153727999999995,35.34,-1.98,-17.58
1554104967374,-5.837064,-6.239888,3.8157589999999995,0.0,0.02876214,0.024501082,35.28,-1.92,-17.64
1554104967393,-5.90889,-6.1345434,3.9306807999999998,-0.029827405,0.043675844000000005,0.0063915867,35.28,-1.92,-17.7
1554104967414,-5.865794,-6.2207346,4.208408,-0.12676647,0.049002163,-0.023435817999999997,35.16,-2.04,-17.82
1554104967435,-5.8705826,-6.2446766,4.1844660000000005,-0.16405073,0.043675844000000005,-0.04261058,35.16,-2.1,-17.88
1554104967454,-5.923255,-6.287772,4.466982,-0.15233281,0.05539375,-0.05752428,35.04,-2.22,-17.94
1554104967473,-6.0908489999999995,-6.225523,4.2754455,-0.10333065,0.07350325,-0.06924219,35.04,-2.34,-18.0
1554104967493,-6.081272,-6.019622,4.44304,-0.026631612000000002,0.08522116,-0.09267801,34.98,-2.34,-18.0
1554104967514,-6.167464,-6.072294,4.3281183,0.007456851,0.098004326,-0.12357068,34.98,-2.4,-18.0
1554104967534,-6.2632318,-6.0627174,4.3281183,0.018109497,0.10759171,-0.14487597,35.04,-2.4,-18.0
1554104967553,-6.114791,-6.168062,4.4861355000000005,0.018109497,0.10333065,-0.15126756,35.04,-2.34,-18.0
1554104967573,-6.196194,-6.239888,4.4621935,0.039414786,0.09587380000000001,-0.16405073,35.1,-2.28,-18.0
1554104967594,-6.143522,-6.2542534000000005,4.2371383,0.07030745599999999,0.08948222,-0.18535602,35.1,-2.16,-17.94
1554104967613,-6.1578870000000006,-6.2925606,4.2371383,0.101200126,0.07989483,-0.21624869,35.16,-2.1,-17.82
1554104967634,-6.0525417,-6.259042,4.055179,0.15446335,0.051132694000000006,-0.24714136,35.16,-2.04,-17.76
1554104967653,-5.995081,-6.330868,4.1892543,0.20453078,0.026631612000000002,-0.27483824,35.16,-1.98,-17.64
1554104967673,-5.951985400000001,-6.2207346,4.0216603,0.2428803,0.010652645,-0.30146983,35.16,-1.92,-17.52
1554104967695,-5.861006,-6.172850599999999,4.007295,0.2908172,-0.014913702,-0.3206446,35.22,-1.8,-17.46
1554104967713,-5.813122,-6.177639,3.9354692000000004,0.32170987,-0.027696876000000002,-0.32384038,35.22,-1.74,-17.28
1554104967733,-5.659893,-6.192004,4.0839095,0.36112466,-0.051132694000000006,-0.3334278,35.22,-1.68,-17.22
1554104967754,-5.674258,-6.0291986,3.9929300000000003,0.37923414,-0.058589544,-0.3334278,35.22,-1.56,-17.16
1554104967773,-5.813122,-6.072294,4.040814,0.3749731,-0.068176925,-0.35260254,35.28,-1.5,-17.16
1554104967793,-5.765238,-5.9238534000000005,4.064756,0.31638354,-0.08948222,-0.38882150000000004,35.28,-1.44,-17.1
1554104967814,-5.693412,-6.000468,4.11264,0.18855181,-0.10972224,-0.42717105,35.28,-1.32,-17.04
1554104967833,-5.5737014,-6.3548098,4.3568487000000005,0.098004326,-0.12570119999999999,-0.43995422,35.34,-1.2,-17.04
1554104967853,-5.449203,-6.6085954,4.7734394,0.10013486,-0.13102753,-0.45699844,35.34,-1.08,-16.98
1554104967874,-5.410896,-6.5655,4.6680946,0.16298546,-0.13848437,-0.46658584,35.4,-0.96,-16.98
1554104967894,-5.272032299999999,-6.2351,4.529230999999999,0.2066613,-0.13954964,-0.4878911,35.4,-0.84,-16.98
1554104967914,-5.410896,-5.957372,4.5148660000000005,0.14274544,-0.12996227,-0.5006742999999999,35.46,-0.72,-16.92
1554104967934,-5.4779334,-6.168062,4.5962687,0.0063915867,-0.11504856,-0.51984906,35.52,-0.54,-16.92
1554104967953,-5.4539914000000005,-6.431424,4.883573,-0.07989483,-0.113983296,-0.5454154,35.58,-0.36,-16.92
1554104967973,-5.5641245999999995,-6.771400999999999,5.0942625999999995,-0.054328485999999995,-0.113983296,-0.5581986,35.7,-0.12,-16.86
1554104967994,-5.5162406,-7.0634937,4.955399,0.023435817999999997,-0.10972224,-0.5390238,35.76,0.24,-16.86
1554104968014,-5.386954,-7.0826473,4.835689,0.13209279,-0.10013486,-0.51665324,35.82,0.6,-16.86
1554104968034,-5.291186,-7.1209545,4.869208,0.3174488,-0.09267801,-0.47936899999999993,35.82,0.96,-16.86
1554104968053,-5.2145715,-6.929417999999999,4.759074,0.5187838,-0.07776430000000001,-0.43036684,35.88,1.38,-16.86
1554104968073,-5.12838,-6.986878999999999,4.500500700000001,0.64341974,-0.06924219,-0.39095205,35.94,1.74,-16.86
1554104968094,-4.975151,-6.9485717000000005,4.8021703,0.69668293,-0.060720075,-0.36964676,35.94,2.1,-16.86
1554104968114,-4.7979803,-6.9677253,4.8261123,0.7073356,-0.07456851,-0.34301516,35.94,2.4,-16.8
1554104968134,-4.6686935,-6.83365,5.3288946,0.7339671999999999,-0.07137272,-0.31851408,35.88,2.64,-16.8
1554104968153,-4.6686935,-6.83365,5.127781400000001,0.8266452,-0.07243799,-0.30892670000000005,35.88,2.76,-16.74
1554104968174,-4.5777135,-6.737882000000001,5.151723400000001,0.9416938,-0.07776430000000001,-0.28442562,35.88,2.76,-16.68
1554104968194,-4.630386,-6.297349,5.37199,1.0460896000000002,-0.094808534,-0.28016454,35.88,2.64,-16.68
1554104968213,-4.644751,-5.966949,5.233126,1.0482203,-0.12250541,-0.27803403,35.88,2.58,-16.62
1554104968234,-4.4819455,-5.8328739999999994,5.319318,0.96619487,-0.19707392,-0.28229508,35.88,2.28,-16.56
1554104968253,-4.362235500000001,-5.6030307,5.587468,0.81705785,-0.26631612,-0.28868666,35.88,1.92,-16.56
1554104968274,-4.5058875,-5.512050599999999,5.774216,0.6593986999999999,-0.33555830000000003,-0.330232,35.94,1.38,-16.5
1554104968293,-4.2425256,-5.4545900000000005,5.7119665,0.48469532,-0.4250405,-0.3653857,35.94,0.9,-16.5
1554104968314,-4.0462008,-5.521628,5.9322333,0.30146983,-0.49641323,-0.39308259999999995,35.94,0.42,-16.44
1554104968334,-3.8450879999999996,-5.8041434,6.205172,0.18322548,-0.5390238,-0.41545314,35.88,-0.06,-16.44
1554104968354,-3.7588966,-5.9142766,6.765415700000001,0.19813919,-0.5571333,-0.41864893,35.88,-0.48,-16.44
1554104968373,-3.8115692,-5.9142766,6.8516070000000004,0.2695119,-0.5858955,-0.4079963,35.82,-0.9,-16.44
1554104968394,-3.7110126000000005,-5.990891,7.038354400000001,0.31318775,-0.5933523,-0.39734364,35.7,-1.14,-16.56
1554104968414,-3.5434184,-6.120178,7.201160000000001,0.3568636,-0.588026,-0.37710363,35.52,-1.32,-16.62
1554104968433,-3.3470940000000002,-6.1058129999999995,7.014412400000001,0.43036684,-0.5773733,-0.36112466,35.28,-1.26,-16.8
1554104968454,-3.2992098,-6.067506,6.9521630000000005,0.5134575,-0.5539375,-0.33129725,35.04,-1.2,-17.04
1554104968474,-3.1651347000000003,-5.990891,6.937798,0.5773733,-0.53263223,-0.3206446,34.8,-1.2,-17.28
1554104968493,-3.122039,-6.120178,7.5411367,0.6508765999999999,-0.49321744,-0.28868666,34.56,-1.14,-17.58
1554104968514,-2.9879637000000003,-6.033987000000001,7.531560000000001,0.7318366999999999,-0.47830373,-0.26205507,34.32,-1.08,-18.0
1554104968533,-2.8060042999999997,-5.727529,7.804499000000001,0.84688526,-0.45273739999999996,-0.25246766,34.08,-1.08,-18.36
1554104968553,-2.6623523,-5.7945666,7.651269999999999,0.9150621999999999,-0.44421527,-0.24394555,33.9,-1.14,-18.66
1554104968574,-2.566584,-5.6940102999999995,7.7374616,1.0162623,-0.43888897,-0.23755397,33.78,-1.38,-18.96
1554104968593,-2.4420857000000002,-5.401917500000001,8.024766,1.1472898999999999,-0.45273739999999996,-0.22690132,33.72,-1.74,-19.2
1554104968614,-2.4277205000000004,-5.0332108,8.077438,1.2229236,-0.44954160000000004,-0.23648871,33.6,-2.28,-19.44
1554104968633,-2.3894134,-4.8560395,8.187572,1.3496901000000001,-0.45486793,-0.25140239999999997,33.42,-2.82,-19.68
1554104968653,-2.1691467999999996,-4.678869000000001,8.206725,1.3646038,-0.45167214,-0.24394555,33.24,-3.6,-19.8
1554104968674,-2.1068976000000004,-4.4681787,8.139688,1.3720607,-0.41864893,-0.25246766,33.06,-4.5,-19.8
1554104968694,-2.0398598000000003,-4.3436804,8.374319,1.4189322,-0.4048005,-0.2428803,32.94,-5.52,-19.86
1554104968713,-2.0350714,-4.1760864,8.838794,1.4775218,-0.37710363,-0.22477080000000002,32.76,-6.54,-19.92
1554104968733,-2.0494366000000004,-3.816956,8.723872,1.5755261,-0.36432046,-0.21518342,32.52,-7.62,-19.98
1554104968754,-2.0015526,-3.4099417,8.6712,1.6223978000000001,-0.37390783,-0.21198763,32.22,-8.58,-20.1
1554104968773,-1.7046716,-3.1130607000000006,8.556278,1.5584818999999999,-0.35579833,-0.20133498,31.92,-9.72,-20.16
1554104968794,-1.4939818,-2.6916811000000003,8.628103999999999,1.4476944,-0.32384038,-0.18216023,31.74,-10.98,-20.22
1554104968814,-1.6519991000000003,-2.332551,8.599374000000001,1.3230585,-0.27696875,-0.14168017,31.5,-12.24,-20.16
1554104968834,-1.7046716,-2.2559366,8.723872,1.180313,-0.25566345,-0.10333065,31.26,-13.5,-20.1
1554104968853,-2.111686,-2.0644004000000002,9.011177,1.0833739,-0.25246766,-0.07776430000000001,31.08,-14.76,-20.04
1554104968873,-1.5179238000000002,-2.1027076,9.044696,1.0833739,-0.29507825,-0.06604639400000001,30.9,-15.96,-19.86
1554104968894,-1.3503298000000001,-1.6909049999999999,9.293693,1.0460896000000002,-0.2609898,-0.06498113,30.78,-17.04,-19.74
1554104968914,-1.5370774999999999,-1.4562732,8.814852,0.98750013,-0.23116238,-0.04580637,30.66,-18.12,-19.56
1554104968933,-1.532289,-1.2264298,8.977658,0.88949585,-0.22264028,-0.027696876000000002,30.6,-19.14,-19.32
1554104968953,-1.4269443000000002,-1.240795,9.121310000000001,0.78083885,-0.23116238,0.0031957934000000003,30.42,-19.98,-19.14
1554104968974,-1.3503298000000001,-1.2886791000000002,9.312846,0.71798825,-0.23435818,0.03195793,30.24,-20.7,-18.96
1554104968993,-1.2785037000000001,-1.2312181999999998,9.336788,0.74035877,-0.23755397,0.04580637,30.06,-21.36,-18.72
1554104969013,-1.1683705,-0.85293436,9.221867,0.8298409999999999,-0.25246766,0.07350325,29.82,-22.38,-18.48
1554104969034,-1.2210428999999998,-0.5991489999999999,9.370307,0.8479504999999999,-0.26525086,0.094808534,29.64,-23.04,-18.24
1554104969054,-1.067814,-0.3788824,9.269751,0.86499476,-0.2695119,0.112918034,29.46,-23.76,-18.0
1554104969073,-1.0582372,-0.019752163,9.413403,0.85327685,-0.25566345,0.12783173,29.28,-24.48,-17.82
1554104969094,-1.0821792,0.05686229,9.475652,0.8149273,-0.24714136,0.16618125,29.16,-25.14,-17.64
1554104969113,-1.0103531,0.22924481,9.533113,0.7616641,-0.2428803,0.18961707,29.16,-25.8,-17.46
1554104969133,-0.89543146,0.30585927,9.729436999999999,0.7435546,-0.21944448,0.19174760000000002,29.1,-26.46,-17.28
1554104969153,-0.7517793,0.6362591,9.533113,0.7222493000000001,-0.20879184,0.18216023,28.98,-27.24,-17.04
1554104969175,-0.6751649000000001,0.76554596,9.499594,0.6530071,-0.18109496,0.16937704,28.74,-27.96,-16.86
1554104969194,-0.49320555,1.5699978,10.1939125,0.43356264,-0.16192019,0.20879184,28.5,-28.74,-16.62
1554104969214,-0.7661445,1.1821371,9.624092,0.49002165,-0.14594123,0.14168017,28.14,-29.52,-16.44
1554104969234,-0.58897364,1.0815806000000001,9.796474,0.4644553,-0.15339808,0.18961707,27.78,-30.36,-16.2
1554104969254,-0.5506664000000001,1.2012907,9.849147,0.47404268,-0.14913702,0.20879184,27.42,-31.2,-16.02
1554104969274,-0.40701428,1.3257892,9.786897999999999,0.46765109999999993,-0.14913702,0.19600865,27.06,-31.98,-15.84
1554104969293,-0.50757074,1.6178818000000001,9.57142,0.4314321,-0.14487597,0.17470337,26.76,-32.58,-15.66
1554104969314,-0.5793968,1.6226702,9.384672,0.34408042,-0.12996227,0.16937704,26.46,-33.06,-15.54
1554104969333,-0.60333884,1.5269021,9.523536,0.30040458,-0.12570119999999999,0.17470337,26.34,-33.48,-15.36
1554104969353,-0.41180268,1.4838065,9.743802,0.28975195,-0.12250541,0.16192019,26.16,-33.9,-15.06
1554104969374,-0.45010993,1.5221136999999998,9.681553,0.3270362,-0.11717909,0.14594123,26.1,-34.32,-14.76
1554104969393,-0.46926352,1.4838065,9.681553,0.36964676,-0.10759171,0.13209279,26.04,-34.74,-14.52
1554104969413,-0.41180268,1.5939398,9.523536,0.4048005,-0.10013486,0.128897,25.98,-35.1,-14.28
1554104969434,-0.3878607,1.7184383,9.490017,0.41971418,-0.10013486,0.128897,25.86,-35.46,-13.98
1554104969453,-0.4309563,1.9099745,9.413403,0.4250405,-0.08735169,0.13528858,25.68,-35.88,-13.74
1554104969473,-0.30645782,2.082357,9.485228999999999,0.3898868,-0.07669904,0.14487597,25.56,-36.36,-13.5
1554104969493,-0.37828386,2.0201077,9.365519,0.33662358,-0.05965481,0.13209279,25.32,-36.96,-13.38
1554104969513,-0.35434186,2.0105310000000003,9.470863,0.30040458,-0.04580637,0.12357068,25.14,-37.56,-13.38
1554104969533,-0.35913026,1.977012,9.413403,0.31851408,-0.02876214,0.12996227,24.96,-38.04,-13.38
1554104969553,-0.32561144,2.0727801,9.312846,0.38562572,-0.0053263223,0.12783173,24.72,-38.4,-13.38
1554104969573,-0.25857377,2.235586,9.188348,0.4133226,0.00958738,0.10546118,24.54,-38.76,-13.32
1554104969594,-0.2873042,2.4223334999999997,9.298480999999999,0.37603834,0.02876214,0.07989483,24.3,-39.18,-13.2
1554104969613,-0.30166942,2.4079683,9.327211,0.29188246,0.05219796,0.060720075,24.24,-39.66,-13.14
1554104969633,-0.2777274,2.2930467,9.461286999999999,0.25140239999999997,0.084155895,0.053263225,24.12,-40.14,-13.08
1554104969654,-0.2825158,2.3026235,9.207500999999999,0.25885928,0.11611383,0.04580637,24.06,-40.5,-12.96
1554104969674,-0.1436521,2.307412,9.293693,0.27057716,0.15020229,0.039414786,24.06,-40.68,-12.84
1554104969694,-0.19632454,2.4127567,9.121310000000001,0.26205507,0.19707392,0.029827405,24.0,-40.92,-12.66
1554104969714,-0.21068975,2.5037365,9.063849000000001,0.22903186,0.23755397,0.027696876000000002,24.0,-41.16,-12.42
1554104969734,-0.26815059999999996,2.5133132999999996,8.93935,0.15659387,0.27590349999999997,0.015978966,24.0,-41.4,-12.12
1554104969753,-0.33039984,2.5133132999999996,8.838794,0.068176925,0.30253512,-0.010652645,23.94,-41.58,-11.88
1554104969773,-0.38307226,2.4223334999999997,8.992023,-0.029827405,0.31851408,-0.033023197000000004,23.88,-41.64,-11.58
1554104969794,-0.521936,2.28347,8.944139,-0.08841695,0.3334278,-0.04261058,23.82,-41.7,-11.28
1554104969814,-0.46447513,2.202067,8.968081,-0.10759171,0.33875409999999995,-0.043675844000000005,23.76,-41.7,-10.98
1554104969834,-0.6895300999999999,2.1972785,8.982447,-0.09054748,0.3536678,-0.024501082,23.7,-41.76,-10.68
1554104969854,-0.9720459000000001,2.355296,9.035119,-0.07882957,0.35792887,0.004261058,23.7,-41.82,-10.44
1554104969874,-1.13964,2.570774,9.063849000000001,-0.08735169,0.3323625,0.029827405,23.7,-41.82,-10.32
1554104969894,-1.1731589,2.6665419999999997,9.078215,-0.111852765,0.29507825,0.049002163,23.76,-41.88,-10.2
1554104969913,-1.1779473,2.6809072,9.226655000000001,-0.16298546,0.27590349999999997,0.058589544,23.82,-41.94,-10.14
1554104969934,-1.2210428999999998,2.532467,9.226655000000001,-0.18216023,0.26418558,0.08522116,23.94,-41.94,-10.08
1554104969954,-1.340753,2.532467,9.173983,-0.16298546,0.23968449999999997,0.1107875,24.12,-41.88,-9.96
1554104969974,-1.2162545,2.5468319999999998,9.083003,-0.12463594,0.21944448,0.12676647,24.24,-41.82,-9.96
1554104969994,-1.1348516000000002,2.5276785,9.111733000000001,-0.06711166,0.20453078,0.13315806,24.36,-41.76,-9.9
1554104970014,-1.3215994,2.508525,9.173983,-0.06285059999999999,0.18429075,0.12463594,24.48,-41.7,-9.84
1554104970033,-1.163582,2.5803509,9.159616999999999,-0.10972224,0.16618125,0.14594123,24.54,-41.64,-9.84
1554104970053,-1.1683705,2.5611973,9.083003,-0.08735169,0.15446335,0.16085494,24.66,-41.58,-9.78
1554104970073,-1.0534488000000002,2.594716,9.159616999999999,-0.06604639400000001,0.14487597,0.16937704,24.66,-41.58,-9.78
1554104970093,-1.0630256,2.5755625,9.035119,-0.06178534,0.13635385,0.1438107,24.66,-41.58,-9.72
1554104970114,-1.1875241,2.4941597,8.968081,-0.06498113,0.12676647,0.11930962,24.66,-41.64,-9.72
1554104970133,-1.2497733,2.5851393,8.857947,-0.07243799,0.111852765,0.1107875,24.54,-41.76,-9.66
1554104970153,-1.2210428999999998,2.570774,8.877101,-0.07776430000000001,0.09267801,0.101200126,24.42,-41.94,-9.6
1554104970173,-1.2545617,2.6042929,9.130887,-0.09374327,0.07882957,0.07669904,24.3,-42.06,-9.6
1554104970193,-1.3742718,2.4462755,9.121310000000001,-0.12570119999999999,0.07030745599999999,0.051132694000000006,24.18,-42.24,-9.54
1554104970214,-1.4173675,2.2116439999999997,8.843582000000001,-0.11930962,0.046871635999999994,0.041545313,24.06,-42.36,-9.54
1554104970234,-1.4077905000000002,2.3265655,9.087791000000001,-0.080960095,0.03089267,0.03834952,23.94,-42.54,-9.54
1554104970253,-1.5179238000000002,2.297835,8.915408,-0.026631612000000002,0.002130529,0.06711166,23.88,-42.66,-9.48
1554104970274,-1.5131354,2.379238,9.097368,0.018109497,-0.022370555,0.07882957,23.82,-42.78,-9.48
1554104970293,-1.5658079,2.3169887000000005,9.039907000000001,0.05219796,-0.049002163,0.096939065,23.82,-42.84,-9.48
1554104970313,-1.5083469999999999,2.4079683,9.126099,0.06285059999999999,-0.09374327,0.10226539,23.82,-42.9,-9.42
1554104970334,-1.4221559,2.3600842999999996,8.996812,0.06711166,-0.12676647,0.11930962,23.82,-42.9,-9.42
1554104970354,-1.2114661,2.594716,9.188348,0.08522116,-0.15978967,0.12144015,23.76,-42.96,-9.42
1554104970374,-1.1204863999999999,2.570774,8.91062,0.06604639400000001,-0.17470337,0.12357068,23.7,-42.96,-9.36
1554104970393,-1.1587936,2.4797945,9.106945,0.05006743,-0.18216023,0.12783173,23.64,-43.08,-9.36
1554104970414,-1.13964,2.3936029999999997,9.226655000000001,0.08841695,-0.2034655,0.13102753,23.52,-43.2,-9.36
1554104970434,-0.9816226999999998,2.6042929,9.183558999999999,0.13315806,-0.22583607,0.13422333,23.4,-43.38,-9.36
1554104970454,-1.0055646999999999,2.6569653,9.173983,0.1587244,-0.23755397,0.14913702,23.28,-43.56,-9.36
1554104970473,-1.0486604,2.6952724,9.169194000000001,0.16085494,-0.26205507,0.15020229,23.16,-43.8,-9.36
1554104970495,-0.9959879,2.6952724,9.126099,0.15233281,-0.28868666,0.15126756,23.04,-43.98,-9.36
1554104970513,-0.89543146,2.5420437000000002,9.183558999999999,0.14487597,-0.30679616,0.16405073,22.98,-44.22,-9.36
1554104970533,-0.79008657,2.5181017000000003,9.193136,0.17257284,-0.32597092,0.18002969,22.86,-44.46,-9.36
1554104970553,-0.842759,2.5468319999999998,9.264961999999999,0.23755397,-0.34727620000000003,0.20133498,22.68,-44.7,-9.42
1554104970573,-0.82360536,2.8149827000000003,9.322422999999999,0.2908172,-0.37603834,0.21624869,22.44,-44.94,-9.48
1554104970593,-0.7565677,2.915539,9.260174000000001,0.28975195,-0.39840892,0.221575,22.14,-45.12,-9.48
1554104970613,-0.56982,2.7383683,9.269751,0.3334278,-0.41545314,0.23222765,21.9,-45.36,-9.54
1554104970634,-0.30166942,3.0304607999999997,9.45171,0.4261058,-0.4250405,0.25140239999999997,21.66,-45.54,-9.54
1554104970654,-0.15801731,3.2890346,9.030331,0.49534798,-0.41971418,0.25885928,21.36,-45.84,-9.6
