TimeStamp,Ax,Ay,Az,Gx,Gy,Gz,Mx,My,Mz
1554106394805,-0.6943185000000001,-10.295666,-0.8912416,0.128897,-0.6444850000000001,-0.17470337,-10.62,30.12,21.72
1554106394825,-0.6464345,-10.247782,-0.8960299999999999,0.20559604,-0.6988135,-0.1949434,-10.5,30.06,21.72
1554106394845,-0.59376204,-10.415376,-0.9391255999999999,0.23542345,-0.7616641,-0.18002969,-10.32,30.0,21.66
1554106394864,-0.35434186,-10.405799,-0.9103952,0.25885928,-0.81705785,-0.16831179,-10.14,30.0,21.54
1554106394884,0.019153614,-10.717046,-0.6805518,0.2876214,-0.8724516,-0.12463594,-9.96,30.0,21.48
1554106394905,0.2873042,-10.678739,-0.7667431,0.32597092,-0.87138635,-0.056459017,-9.66,30.06,21.36
1554106394925,0.38307226,-10.5207205,-0.670975,0.35260254,-0.850081,0.017044231,-9.36,30.12,21.18
1554106394946,0.39743748,-10.678739,-0.55605334,0.3536678,-0.8277104999999999,0.08841695,-8.94,30.24,21.06
1554106394965,0.4165911,-10.5207205,-0.36930559999999996,0.37071204,-0.7946873000000001,0.18429075,-8.52,30.3,20.88
1554106394985,0.4405331,-10.669162,-0.25917232,0.43675843,-0.7552725,0.22903186,-8.16,30.42,20.76
1554106395005,0.40701428,-10.506355000000001,-0.12030864,0.51026165,-0.716923,0.24820662,-7.74,30.54,20.58
1554106395025,0.32561144,-10.242992999999998,0.21487960000000003,0.6125271,-0.67005134,0.26418558,-7.32,30.72,20.28
1554106395044,0.39264908,-9.98442,0.16220717,0.628506,-0.6412892,0.2727077,-6.84,30.96,19.92
1554106395064,0.4165911,-9.979631,0.54527944,0.6359629,-0.62531024,0.29614353,-6.3,31.14,19.5
1554106395085,0.30166942,-9.768942,0.54049104,0.664725,-0.5997439,0.32810146,-5.76,31.44,18.96
1554106395104,0.17238252,-9.649231,0.6123171,0.6775081999999999,-0.56459016,0.33662358,-5.4,31.74,18.42
1554106395124,0.076614454,-9.496002,0.27712885,0.65194184,-0.55287224,0.3270362,-5.04,32.04,17.82
1554106395145,0.19632454,-9.615712,0.66020113,0.58269966,-0.5656554,0.3323625,-4.62,32.4,17.22
1554106395165,0.23942018,-10.070611,0.83737206,0.5997439,-0.57311225,0.33449304,-4.26,32.76,16.68
1554106395185,0.21547815,-10.13286,1.0959458,0.73290193,-0.5454154,0.32277513,-3.84,33.06,16.26
1554106395205,0.19632454,-9.955689,1.3018471999999999,0.9129315999999998,-0.49108690000000005,0.29294774,-3.48,33.3,15.9
1554106395225,0.076614454,-9.548675,1.1007341999999998,0.98750013,-0.45273739999999996,0.2695119,-3.12,33.54,15.54
1554106395245,-0.24420857,-9.1512375,1.2156559,0.9129315999999998,-0.39201729999999996,0.2695119,-2.82,33.72,15.18
1554106395265,-0.44532153,-8.993219999999999,1.4311341,0.7456851,-0.34088463,0.25566345,-2.46,33.84,14.7
1554106395285,-0.46447513,-8.930971000000001,1.5316905,0.51984906,-0.31212249999999997,0.2545982,-2.1,34.02,14.28
1554106395305,-0.4261679,-8.926183,2.0344729999999998,0.25992453,-0.2790993,0.27057716,-1.74,34.14,13.74
1554106395325,-0.37828386,-8.854357,1.9818004,0.043675844000000005,-0.24607609,0.24501082,-1.44,34.32,13.14
1554106395345,-0.39743748,-9.1033535,2.144606,-0.06498113,-0.18642128,0.24607609,-1.14,34.5,12.54
1554106395364,-0.31124622,-9.563039999999999,1.9674352,0.03195793,-0.14594123,0.26525086,-0.96,34.68,12.0
1554106395384,-0.30166942,-9.749788,1.2108675,0.1470065,-0.11824436,0.24927188,-0.78,34.86,11.52
1554106395405,-0.12449849,-9.227852,1.1534066,0.13954964,-0.113983296,0.26418558,-0.54,35.04,11.22
1554106395424,-0.22026655,-8.959702,1.1055226,0.12570119999999999,-0.1107875,0.26844665,-0.24,35.16,10.98
1554106395444,-0.58897364,-8.595782,1.3736732,0.15552860000000002,-0.10972224,0.24181503,0.0,35.28,10.74
1554106395464,-0.61770403,-9.007586,1.3210008,0.09374327,-0.14807177,0.23009712,0.3,35.4,10.68
1554106395485,-0.47405192,-9.405023,1.977012,-0.025566347000000003,-0.1470065,0.2727077,0.6,35.34,10.68
1554106395505,-0.7230489,-9.208698,2.0153193,0.025566347000000003,-0.099069595,0.2545982,0.84,35.28,10.62
1554106395525,-0.8858546,-9.1512375,1.6370354,0.07776430000000001,-0.13848437,0.1438107,1.08,35.22,10.62
1554106395545,-1.2114661,-9.840767999999999,1.5125369,0.07350325,-0.17470337,0.2609898,1.32,35.1,10.56
1554106395564,-1.2641385,-9.797672,2.4319102999999997,0.15233281,-0.21624869,0.31957933,1.56,34.86,10.44
1554106395585,-1.4700398000000001,-10.295666,2.498948,0.42930159999999995,-0.2695119,0.28655612,1.62,34.8,10.38
1554106395605,-0.56982,-10.865486,3.1693244,1.0226538,-0.27590349999999997,0.3153183,1.74,34.62,10.14
1554106395625,-0.44532153,-10.4010105,3.2746694,1.5616777,-0.23329292,0.22583607,1.86,34.5,9.96
1554106395645,-0.7038953,-9.227852,2.915539,1.8130800999999999,-0.16831179,0.21837921,1.92,34.38,9.84
1554106395665,-1.1109096,-8.705916,3.1118636000000004,1.892975,-0.101200126,0.22477080000000002,2.1,34.32,9.66
1554106395685,-1.1827357,-8.385093,2.9442697,1.8109495999999998,-0.068176925,0.22050974,2.28,34.32,9.42
1554106395704,-1.2593501,-8.447341999999999,4.2754455,1.4839133999999998,-0.004261058,0.12144015,2.52,34.38,8.94
1554106395725,-1.6950948000000001,-7.6093717000000005,5.4342394,1.1856394,0.08522116,0.02130529,2.76,34.62,8.34
1554106395745,-2.3415293999999998,-7.877522,4.4143095,0.99282646,0.10013486,0.03834952,2.94,34.98,7.74
1554106395765,-1.8148049,-7.949348,4.337695,1.1856394,0.099069595,-0.011717908999999999,3.18,35.34,7.14
1554106395785,-1.8626889,-7.5758529999999995,4.2036195,1.3954965,0.13635385,-0.08628642,3.36,35.76,6.54
1554106395806,-2.1978772,-6.282984,4.648941000000001,0.9150621999999999,0.165116,-0.13209279,3.54,36.12,5.82
1554106395825,-1.958457,-6.6469026,4.941033999999999,0.23542345,0.17150758,-0.06285059999999999,3.6,36.48,5.04
1554106395845,-1.9249381999999997,-6.9485717000000005,5.357625,-0.17150758,0.1768339,-0.05219796,3.66,36.84,4.26
1554106395864,-1.8387468999999996,-8.260594000000001,5.122993,-0.44101948,0.18642128,-0.00958738,3.66,37.14,3.72
1554106395885,-1.8962077000000002,-8.619724,4.869208,-0.37071204,0.18109496,0.007456851,3.6,37.26,3.42
1554106395905,-1.9536686,-8.054692999999999,4.3664255,-0.19068234,0.128897,-0.06711166,3.6,37.32,3.18
1554106395924,-1.9345150000000002,-7.73387,3.6864722000000003,-0.2066613,0.05965481,-0.03089267,3.6,37.38,3.06
1554106395944,-1.9057846,-7.997232400000001,3.5811272000000005,-0.3057309,0.0010652645,-0.018109497,3.54,37.44,3.0
1554106395965,-1.9345150000000002,-8.078635,4.136582,-0.37390783,-0.07563378,-0.07669904,3.54,37.44,3.0
1554106395985,-1.7956512999999998,-8.188768,4.447828299999999,-0.28549087,-0.09054748,-0.080960095,3.54,37.5,3.12
1554106396006,-1.9201498,-8.107366,4.2658687,-0.27164245,-0.07030745599999999,-0.08735169,3.48,37.5,3.3
1554106396024,-1.1156979999999999,-8.686762,4.2419267,-0.43995422,-0.07989483,-0.054328485999999995,3.48,37.56,3.48
1554106396045,-1.4317327,-7.6668324000000005,5.075108999999999,-0.35260254,0.03834952,-0.28229508,3.48,37.56,3.66
1554106396065,-1.8100165000000001,-7.566275999999999,4.624999,-0.21731395,0.098004326,-0.30466563,3.48,37.56,3.84
1554106396085,-1.7238252,-8.30369,4.2754455,-0.28336033,0.13954964,-0.22796659,3.42,37.56,3.9
1554106396105,-1.8626889,-8.567052,3.8780080999999997,-0.4644553,0.12676647,-0.24714136,3.42,37.56,4.02
1554106396125,-1.8770541,-8.81605,4.1317935,-0.6743124,0.112918034,-0.23222765,3.42,37.56,4.14
1554106396146,-1.6663644,-8.897452000000001,4.6154222,-0.7094661,0.11824436,-0.20772657,3.42,37.56,4.38
1554106396165,-1.8339584999999998,-8.930971000000001,4.2945995,-0.4857606,0.12037488,-0.23435818,3.42,37.56,4.44
1554106396184,-1.8722657,-8.500014,3.6816837999999996,-0.27377295,0.1107875,-0.20133498,3.42,37.56,4.68
1554106396205,-1.8914193,-8.839992,3.09271,-0.34727620000000003,0.039414786,-0.18109496,3.42,37.62,4.98
1554106396225,-1.5753847,-9.184756,3.6721067,-0.51026165,0.00958738,-0.17044231,3.36,37.62,5.22
1554106396245,-1.6089035,-9.519944,4.1413703,-0.41225734,0.039414786,-0.21837921,3.24,37.62,5.58
1554106396264,-1.4891934,-9.558251,3.9019501000000005,-0.1768339,0.07030745599999999,-0.18535602,3.18,37.62,5.7
1554106396286,-1.3742718,-9.333197,4.1222167,0.08948222,0.10546118,-0.20026971,2.94,37.62,5.88
1554106396305,-1.6950948000000001,-8.600571,3.7199910000000003,0.39308259999999995,0.128897,-0.23435818,2.76,37.62,6.06
1554106396325,-1.7860744999999998,-8.39467,3.3129766000000003,0.42077947,0.101200126,-0.15659387,2.52,37.62,6.24
1554106396345,-1.8579005000000002,-8.399458000000001,3.341707,0.22690132,0.01917476,-0.12357068,2.22,37.62,6.36
1554106396364,-1.5753847,-8.705916,3.4805707999999997,0.022370555,-0.035153727999999995,-0.11504856,2.1,37.62,6.42
1554106396385,-1.5993267,-9.333197,3.9546227,-0.07882957,-0.08628642,-0.09587380000000001,1.92,37.62,6.48
1554106396405,-1.0630256,-8.749011999999999,3.4997244,0.11611383,-0.12463594,-0.07669904,1.68,37.68,6.54
1554106396426,-1.316811,-8.30369,3.7247794,0.28229508,-0.11611383,-0.14594123,1.62,37.68,6.6
1554106396445,-1.1444284,-8.428188,3.8588544999999996,0.350472,-0.14061491,-0.2066613,1.56,37.74,6.6
1554106396465,-0.9624690999999999,-8.528744999999999,4.447828299999999,0.46339005,-0.112918034,-0.24927188,1.56,37.74,6.66
1554106396485,-0.842759,-8.619724,4.308964700000001,0.4644553,-0.12144015,-0.19387813,1.56,37.86,6.6
1554106396505,-0.7422025,-8.476072,3.696049,0.08948222,-0.12144015,-0.12570119999999999,1.5,37.98,6.54
1554106396525,-1.3503298000000001,-9.065046,3.6433763999999997,-0.30892670000000005,-0.13741912,-0.041545313,1.5,38.22,6.48
1554106396545,-1.3838485,-9.788095,4.064756,-0.30679616,-0.17789917,-0.0053263223,1.5,38.4,6.42
1554106396565,-1.4556746,-9.433753,4.2131963,-0.023435817999999997,-0.19707392,-0.026631612000000002,1.56,38.58,6.42
1554106396584,-1.043872,-8.811261,4.7399206,0.28655612,-0.20559604,-0.03089267,1.56,38.76,6.36
1554106396605,-1.1156979999999999,-8.078635,4.2658687,0.4079963,-0.17576863,-0.03834952,1.62,38.94,6.36
1554106396625,-1.3359646,-7.6907744000000005,3.8205473,0.2545982,-0.19707392,-0.012783173500000002,1.62,39.06,6.3
1554106396644,-1.316811,-7.566275999999999,3.1453824,0.013848438000000001,-0.28229508,0.0010652645,1.62,39.18,6.24
1554106396664,-1.1348516000000002,-7.341221000000001,4.1461587,0.07456851,-0.36325517,-0.12676647,1.68,39.18,6.12
1554106396684,-0.78050977,-6.7330937,3.767875,-0.058589544,-0.4282363,-0.22264028,1.68,39.12,6.06
1554106396705,0.038307227,-8.284536,4.835689,-0.53263223,-0.35579833,-0.113983296,1.68,39.12,5.94
1554106396725,0.019153614,-9.017161999999999,5.37199,-0.73609775,-0.18535602,-0.18855181,1.68,39.12,5.76
1554106396744,0.40701428,-8.749011999999999,5.0463786,-0.5187838,-0.0063915867,-0.26738137,1.62,39.06,5.58
1554106396764,-0.49799395,-8.011598,4.3424835,-0.18642128,0.11930962,-0.45912898,1.62,39.06,5.46
1554106396785,0.16280572,-7.9828672,4.208408,-0.056459017,0.13954964,-0.47936899999999993,1.62,39.06,5.34
1554106396805,0.41180268,-7.724292999999999,3.7199910000000003,0.12037488,0.19813919,-0.6359629,1.68,39.06,5.22
1554106396825,0.3878607,-7.2646065,3.4662056000000003,0.16192019,0.26631612,-0.7680557,1.62,39.12,5.22
1554106396845,0.45968673,-6.579865,2.9873652,-0.14807177,0.32490566,-0.89375687,1.62,39.18,5.22
1554106396865,0.56982,-6.225523,2.9921536,-0.850081,0.37923414,-1.0013485999999998,1.62,39.42,5.22
1554106396886,1.2641385,-7.9062524000000005,3.1932666000000003,-1.3411678999999999,0.45273739999999996,-1.0844392,1.56,39.78,5.28
1554106396905,1.6136919,-8.787319,3.0735563999999997,-1.3219931999999999,0.60293967,-1.1377025,1.38,40.08,5.4
1554106396925,1.7908629,-9.156025999999999,1.9865887999999998,-1.1739215,0.721184,-1.2431636000000001,1.08,40.44,5.7
1554106396945,2.1308396000000003,-9.141661000000001,1.311424,-1.3081448,0.8064051999999999,-1.2857742,0.6,40.74,6.12
1554106396965,2.5234885,-10.209475,1.2683283,-1.6596819999999999,0.8841694999999999,-1.2655341999999998,0.06,41.1,6.72
1554106396986,3.193865,-11.689092,1.158195,-1.6021577,0.9619338,-1.1888351000000001,-0.6,41.4,7.38
1554106397005,3.2130187,-11.54065,0.85173726,-1.0950918,1.1004181999999998,-1.1323761,-1.38,41.58,8.1
1554106397025,2.7198130000000003,-10.5207205,-0.09636662,-0.7222493000000001,1.1685951,-1.0652645,-2.28,41.7,8.88
1554106397044,2.657564,-9.304466,-0.7044938000000001,-0.87351686,1.1408982,-0.98110855,-3.24,41.7,9.72
1554106397065,2.8778305,-9.519944,0.076015905,-1.3709954,1.0844392,-0.902279,-4.26,41.7,10.62
1554106397084,3.1124623,-10.750565,0.46387658,-1.4689997,1.0524813,-0.8127968000000001,-5.16,41.64,11.4
1554106397104,2.9496564999999997,-11.210251,-0.02932897,-1.1430287000000001,1.067395,-0.716923,-6.0,41.52,12.24
1554106397124,2.4851813,-10.645219,-0.8146270999999999,-0.92784536,1.0258497,-0.63915867,-6.78,41.28,13.14
1554106397144,2.2888567,-10.061034,-1.1833341999999998,-1.0098706,0.9044095,-0.55606806,-7.62,40.98,13.98
1554106397165,2.1691467999999996,-10.061034,-0.6805518,-1.0972224,0.7765778,-0.48682585,-8.34,40.56,14.82
1554106397185,2.1164744,-10.511144,-0.39803603,-0.8277104999999999,0.69348717,-0.43888897,-9.12,39.9,15.72
1554106397204,2.135628,-10.511144,-0.5177461,-0.40373522,0.6530071,-0.37603834,-9.84,39.3,16.56
1554106397226,1.9776106,-10.099341,-1.0205284,-0.18642128,0.5944176,-0.33768883,-10.86,38.4,17.76
1554106397245,1.958457,-10.118495,-0.7667431,-0.257794,0.5187838,-0.3174488,-11.46,37.86,18.42
1554106397266,2.0638018,-10.34355,-0.84814596,-0.3057309,0.45380265,-0.2695119,-12.12,37.38,18.9
1554106397286,2.0494366000000004,-10.094553,-0.83378077,-0.32490566,0.43462790000000007,-0.221575,-12.66,37.08,19.2
1554106397304,1.8387468999999996,-9.792883999999999,-0.7858967,-0.49747851,0.39734364,-0.111852765,-13.08,36.84,19.5
1554106397324,1.7621324,-9.673173,-0.4890157,-0.6828345,0.3568636,-0.02876214,-13.5,36.66,19.74
1554106397345,1.6041151000000002,-9.357139,-0.18255788,-0.7552725,0.30999196,0.05219796,-13.8,36.6,19.86
1554106397364,1.6663644,-9.021951,-0.27832595,-0.75420725,0.29294774,0.07882957,-14.04,36.3,20.04
1554106397384,1.7621324,-9.314043,-1.0444705,-0.9193232,0.24074976,0.036218993,-14.34,35.82,20.28
1554106397404,1.8818424999999999,-10.13286,-1.1833341999999998,-1.0226538,0.20133498,-0.023435817999999997,-14.64,35.22,20.52
1554106397424,1.8579005000000002,-10.5207205,-1.3365631000000002,-0.9108011,0.14168017,-0.16192019,-14.94,34.5,20.7
1554106397444,1.532289,-10.271724,-0.6805518,-0.7094661,0.06604639400000001,-0.2034655,-15.24,33.6,20.94
1554106397465,1.3503298000000001,-9.941324,0.12868834,-0.4165184,-0.037284255,-0.16724652,-15.54,32.64,21.24
1554106397484,1.1875241,-9.855133,0.22924481,-0.10226539,-0.12250541,-0.13635385,-15.78,31.74,21.54
1554106397504,1.0390834999999998,-9.850344999999999,-0.091578215,0.098004326,-0.19174760000000002,-0.112918034,-16.02,30.84,21.84
1554106397524,1.2162545,-9.835979,-0.3597288,0.10546118,-0.24501082,-0.12463594,-16.26,30.18,22.14
1554106397545,1.2258313,-9.835979,-0.694917,0.002130529,-0.27696875,-0.16085494,-16.38,29.7,22.38
1554106397564,1.1540052,-10.161591,-0.3788824,-0.07456851,-0.30360037,-0.17363810000000002,-16.5,29.28,22.62
1554106397584,1.2401965,-10.458471000000001,-0.04369418,0.06498113,-0.28229508,-0.19174760000000002,-16.56,29.04,22.8
1554106397604,0.9624690999999999,-10.266935,-0.06284779,0.27696875,-0.21731395,-0.21092236,-16.62,28.86,22.98
1554106397624,0.7278373,-10.008362,-0.13467385,0.3291667,-0.19281286,-0.18961707,-16.62,28.8,23.16
1554106397644,0.63206923,-9.740211500000001,-0.16340427,0.24394555,-0.1949434,-0.1438107,-16.68,28.8,23.22
1554106397664,0.5554548,-9.428965,-0.038905777,0.09054748,-0.20240025,-0.083090626,-16.68,28.86,23.34
1554106397684,0.58897364,-9.500791,-0.05805939,-0.04474111,-0.20985709,-0.025566347000000003,-16.68,28.92,23.34
1554106397704,0.7086836999999999,-9.414599,0.22445641,-0.11611383,-0.19707392,0.023435817999999997,-16.68,28.98,23.28
1554106397724,0.7565677,-9.299678,-0.17298107,-0.16298546,-0.16192019,0.04261058,-16.62,29.1,23.22
1554106397744,0.80924016,-8.892664,-0.45549688,-0.28229508,-0.12570119999999999,0.046871635999999994,-16.56,29.22,23.22
1554106397764,1.0342950999999998,-8.849568,-0.7284359,-0.5134575,-0.10972224,0.02130529,-16.44,29.4,23.16
1554106397785,1.2306197,-8.806473,-1.1737574,-0.8404937,-0.10013486,-0.043675844000000005,-16.38,29.58,23.1
1554106397805,1.316811,-8.260594000000001,-1.5376761,-1.3315805,-0.08522116,-0.09161274,-16.26,29.7,23.1
1554106397825,1.3982137,-7.9301944,-1.5328877,-1.8514296000000001,-0.07989483,-0.17363810000000002,-16.14,29.76,23.1
1554106397844,1.5466543,-7.844003,-1.3748703000000002,-2.288188,-0.05539375,-0.2609898,-16.02,29.64,23.1
1554106397865,1.6041151000000002,-7.585429700000001,-1.8537107,-2.6578348,0.01917476,-0.35153726,-15.9,28.8,23.22
1554106397884,1.6184803,-7.4705076,-2.3229742,-2.8687572,0.08628642,-0.44208476,-15.84,27.72,23.46
1554106397905,2.0590134,-7.259817999999999,-3.079542,-3.0423953999999997,0.21092236,-0.54648066,-15.78,26.34,23.88
1554106397924,2.4277205000000004,-7.73387,-4.563947,-3.2000544,0.28229508,-0.67005134,-15.78,24.72,24.42
1554106397944,2.9975405,-10.065823,-5.1146135,-3.0423953999999997,0.17576863,-0.7073356,-15.78,22.68,24.96
1554106397964,3.6104562000000007,-10.851121000000001,-4.875193,-2.1965754,0.15339808,-0.608266,-15.84,20.16,25.56
1554106397985,3.7636849999999997,-10.266935,-4.779425,-1.0897655000000002,0.21411815,-0.53263223,-15.9,17.58,26.1
1554106398004,3.7828386,-9.017161999999999,-5.1624975,-0.45699844,0.22264028,-0.5006742999999999,-16.02,15.12,26.64
1554106398025,3.6152446000000005,-8.567052,-5.6987987,-0.36645097,0.1438107,-0.43356264,-16.14,12.96,27.18
1554106398045,3.5721489999999996,-8.116942,-6.096236,-0.5123922000000001,0.02130529,-0.4079963,-16.26,11.16,27.48
1554106398064,3.2992098,-8.021174,-6.1153900000000005,-0.78083885,-0.13635385,-0.4079963,-16.44,9.6,27.72
1554106398086,3.1890767,-7.944559599999999,-5.93343,-0.99708754,-0.2908172,-0.42290998,-16.56,8.22,27.78
1554106398105,3.2130187,-8.160038,-5.7945666,-1.0290455,-0.36645097,-0.46232477,-16.74,7.26,27.78
1554106398125,3.2704793999999997,-8.327632000000001,-6.4936733,-0.84688526,-0.3291667,-0.5422196,-16.86,6.6,27.84
1554106398145,2.930503,-8.4425535,-7.2262993,-0.6348976,-0.3174488,-0.60507023,-16.98,5.94,27.84
1554106398165,2.6719291000000003,-8.504802999999999,-6.7809777,-0.39308259999999995,-0.38349520000000004,-0.58056915,-17.04,5.4,27.84
1554106398185,2.695871,-8.461707,-6.0627174,0.01917476,-0.46978164,-0.46125950000000004,-17.04,4.62,27.9
1554106398207,2.7581203,-7.4465656000000005,-5.981314,0.5187838,-0.48043427,-0.28229508,-17.1,3.96,28.02
1554106398225,2.7198130000000003,-6.8623804999999996,-6.7666125,0.55287224,-0.4878911,-0.19813919,-17.1,3.3,28.08
1554106398250,2.7772740000000002,-6.4840965,-7.5136037,0.15233281,-0.5603291,-0.06604639400000001,-17.04,2.76,28.14
1554106398265,2.7485435000000003,-6.7905545,-7.3938932,-0.12250541,-0.6263755,-0.03089267,-16.86,2.34,28.2
1554106398286,3.0454244999999998,-7.85358,-7.0874357,-0.16831179,-0.72651035,-0.010652645,-16.68,2.04,28.26
1554106398305,3.0214825000000003,-8.107366,-6.9677253,0.12250541,-0.7456851,0.0,-16.38,2.04,28.2
1554106398325,2.6479871,-7.9301944,-6.618172,0.58696073,-0.7797736,0.010652645,-15.96,2.1,28.14
1554106398345,2.432509,-7.7626004,-6.7570357,0.98430437,-0.84581995,0.018109497,-15.48,2.4,27.96
1554106398365,2.3080103,-7.6045833,-7.006033,1.252751,-0.90973586,0.015978966,-15.0,2.76,27.78
1554106398385,2.1499932,-7.379528,-7.0587053,1.3933659,-0.9353021999999999,0.025566347000000003,-14.46,3.06,27.54
1554106398404,2.1308396000000003,-7.1065892999999996,-7.2262993,1.3049488999999999,-0.9534117,0.01917476,-13.98,3.48,27.36
1554106398424,2.1499932,-7.504027000000001,-7.1592617,1.1632688,-0.9672601000000001,0.01917476,-13.5,4.02,27.18
1554106398445,2.135628,-8.241441,-6.962936999999999,1.220793,-0.9683254000000001,0.022370555,-12.96,4.74,27.0
1554106398465,1.8818424999999999,-8.45213,-6.7905545,1.3592775,-0.92997587,0.07030745599999999,-12.36,5.64,26.88
1554106398485,1.685518,-8.332419999999999,-6.613384,1.3401027,-0.902279,0.14274544,-11.82,6.9,26.76
1554106398505,1.5466543,-8.255806,-6.8144965,1.1835088,-0.87777793,0.20453078,-11.22,8.22,26.58
1554106398525,1.2162545,-8.073847,-6.5846534,0.9267801,-0.8426242,0.23329292,-10.56,9.66,26.4
1554106398544,0.7757214,-8.059482000000001,-6.5655,0.5134575,-0.87990844,0.27377295,-9.9,11.16,26.1
1554106398565,0.6895300999999999,-8.614936,-6.1345434,0.1107875,-0.9779128,0.36005938,-9.12,12.6,25.8
1554106398587,0.6847416999999999,-8.619724,-5.507262,-0.06178534,-1.063134,0.4133226,-8.34,13.92,25.5
1554106398606,0.521936,-8.629301,-6.201581,-0.112918034,-1.1142666,0.46658584,-7.62,14.94,25.14
1554106398625,0.22505496,-8.480861,-6.666056,-0.32277513,-1.180313,0.5294364,-7.02,15.78,24.72
1554106398645,-0.19153613,-8.69155,-6.522404,-0.51771855,-1.2783173,0.56672066,-6.36,16.26,24.3
1554106398665,-0.34955344,-8.677185,-6.9150529999999995,-0.57098174,-1.3486248,0.59228706,-5.64,16.5,24.06
1554106398685,-0.5602431999999999,-8.5862055,-6.5271926,-0.5592638000000001,-1.4274544,0.60507023,-4.92,16.56,23.7
1554106398705,-0.6607997,-8.854357,-6.579865,-0.3206446,-1.4828482,0.6221144000000001,-4.14,16.26,23.46
1554106398725,-1.0342950999999998,-8.595782,-6.642114,-0.06391586,-1.5148059999999999,0.64768076,-3.54,15.9,23.1
1554106398744,-1.1587936,-8.658031,-6.431424,0.08841695,-1.5563513999999998,0.7073356,-2.88,15.48,22.62
1554106398765,-1.3455413999999999,-8.658031,-6.067506,0.25992453,-1.5691346000000002,0.753142,-2.16,14.94,22.14
1554106398785,-1.1779473,-8.782531,-6.0291986,0.49215218,-1.5819178,0.813862,-1.38,14.4,21.66
1554106398804,-1.1061212,-8.811261,-5.5886655,0.7765778,-1.5542208,0.88203895,-0.48,13.92,21.12
1554106398825,-1.4556746,-8.595782,-5.6748567,1.0088054,-1.4647386,0.92464954,0.36,13.44,20.4
1554106398845,-1.5705963,-8.849568,-5.4498014,1.0386329,-1.3965617000000001,0.9683254000000001,1.62,12.96,19.2
1554106398864,-1.6376339,-9.1272955,-5.21517,1.0610034,-1.3731258999999998,0.95660746,2.1,12.84,18.78
1554106398885,-1.9153613999999999,-9.505579,-4.994903,1.2389026,-1.3326459,0.96299905,3.84,12.48,17.58
1554106398906,-2.006341,-9.170391,-4.439448400000001,1.4104101999999998,-1.2879047,1.0120013,4.86,12.3,16.74
1554106398925,-2.327164,-8.926183,-4.482544,1.3933659,-1.2250541000000001,1.0663296999999998,5.76,12.06,15.9
1554106398944,-2.7820622999999998,-9.0315275,-3.8983587999999996,1.1867046,-1.196292,1.1110708999999999,6.48,11.94,15.0
1554106398964,-2.9496564999999997,-9.20391,-3.9845502,1.0365024,-1.1845741,1.1302456,7.02,11.7,14.04
1554106398985,-3.1842883,-9.074622999999999,-3.5344403,0.9214538000000001,-1.1899004,1.1899004,7.5,11.34,13.14
1554106399004,-3.3614593,-8.839992,-2.5767596,0.85327685,-1.1781825000000001,1.2420983,7.92,10.98,12.24
1554106399025,-3.4093432,-8.825626,-2.0739772000000003,0.85327685,-1.1174624,1.2836437,8.16,10.68,11.34
1554106399045,-3.7349546,-9.055469500000001,-2.1601684,0.9353021999999999,-0.97045594,1.2761868,8.28,10.32,10.44
1554106399065,-4.43885,-8.959702,-2.5959132,1.0024139,-0.7840345999999999,1.2186625,8.58,9.9,9.54
1554106399084,-4.8506527,-8.576628999999999,-2.4091654,0.87351686,-0.68389976,1.1728562,8.94,9.24,8.7
1554106399104,-4.3718123,-8.399458000000001,-1.2455834,0.79681784,-0.6402239000000001,1.1408982,9.36,8.46,7.98
1554106399125,-3.8450879999999996,-8.533533,-0.46028528,0.8969527,-0.5571333,1.1004181999999998,9.78,7.68,7.32
1554106399145,-4.0701427,-8.672397,-0.048482585999999994,1.1345067,-0.4261058,1.0418286,10.2,6.84,6.78
1554106399165,-4.261679,-8.557475,-0.26396075,1.3720607,-0.33555830000000003,0.98430437,10.62,6.0,6.36
1554106399185,-4.611232299999999,-8.217499,-0.30705637,1.4221281000000001,-0.25566345,0.9171927,11.04,5.22,5.88
1554106399204,-4.802768700000001,-8.054692999999999,-0.3788824,1.4061489999999999,-0.18642128,0.8117314999999999,11.34,4.44,5.52
1554106399225,-4.8123455,-8.179192,0.05686229,1.4721955,-0.058589544,0.6860303000000001,11.52,3.78,5.28
1554106399245,-4.927267,-8.198345,0.14784196,1.6607473000000001,0.084155895,0.5422196,11.64,3.3,5.1
1554106399264,-5.1475334,-8.088212,-0.019752163,1.7853831999999998,0.22903186,0.43249738,11.76,2.88,4.92
1554106399285,-5.3007627,-7.820061,0.13347675,1.7587515999999999,0.30253512,0.34301516,11.82,2.52,4.68
1554106399304,-5.243302,-7.6668324000000005,0.45908818,1.7193368999999998,0.34088463,0.2695119,11.82,2.34,4.44
1554106399326,-5.2624555,-7.4322004,1.0049661,1.7267936000000002,0.37284255,0.20026971,11.82,2.22,4.38
1554106399344,-5.2816089999999996,-7.2406645,1.7088615000000003,1.8386464,0.4250405,0.12996227,11.76,2.1,4.32
1554106399365,-5.1475334,-6.8144965,1.9482816000000003,1.8972360000000001,0.49854377,0.043675844000000005,11.7,1.98,4.26
1554106399384,-5.4539914000000005,-6.9150529999999995,1.584363,1.8397116999999998,0.5699165,-0.049002163,11.64,1.98,4.44
1554106399404,-6.1578870000000006,-6.977302000000001,1.3976152,1.7459685,0.6040049,-0.10972224,11.46,2.1,4.62
1554106399424,-6.5505357,-7.1113777,1.4215573000000001,1.6341157,0.56245965,-0.1107875,11.34,2.28,4.92
1554106399444,-6.26802,-6.8097080000000005,2.2164322999999997,1.7331853,0.5209143,-0.09267801,11.22,2.58,5.28
1554106399464,-6.1195793,-5.919065,2.594716,1.9813918999999998,0.5400891,-0.07882957,11.04,2.88,5.7
1554106399486,-6.26802,-5.2726307,2.7096379,2.1049626,0.5571333,-0.09587380000000001,10.92,3.24,6.06
1554106399505,-6.38773,-4.9757495,2.949058,2.0793962,0.5550028,-0.11930962,10.8,3.78,6.48
1554106399525,-6.129156,-5.047576,2.843713,1.9281287,0.5432849000000001,-0.1438107,10.68,4.56,6.84
1554106399545,-5.9567738,-5.2103815,2.6665419999999997,1.7076189999999998,0.5123922000000001,-0.15339808,10.56,5.46,7.08
1554106399564,-6.172251999999999,-4.9374423,3.09271,1.4935007,0.4889564,-0.12996227,10.44,6.42,7.38
1554106399586,-5.942408599999999,-4.635773,3.365649,1.4061489999999999,0.46232477,-0.12676647,10.32,7.38,7.62
1554106399605,-5.942408599999999,-4.2814309999999995,3.6625300000000003,1.4125406999999999,0.43462790000000007,-0.1470065,10.14,8.4,7.8
1554106399624,-5.837064,-4.257489,3.614646,1.3571468999999998,0.45060685,-0.18002969,9.96,9.42,7.98
1554106399645,-6.1243677000000005,-4.4538136,3.470994,1.1749867,0.4708469,-0.23222765,9.78,10.38,8.16
1554106399665,-6.1770406,-4.520851,3.7487214,0.9502159,0.47404268,-0.26738137,9.66,11.46,8.34
1554106399686,-6.3685765,-4.64535,4.040814,0.74675035,0.47297743,-0.26738137,9.48,12.42,8.52
1554106399704,-7.029375999999999,-5.1768627,4.3281183,0.68389976,0.47936899999999993,-0.25992453,9.3,13.68,8.7
1554106399725,-7.062895,-5.191228,4.136582,0.81918836,0.50813115,-0.22583607,9.24,14.1,8.76
1554106399745,-7.4363904000000005,-5.3971290000000005,3.8157589999999995,0.8202536,0.5273059,-0.18216023,9.12,14.76,8.94
1554106399765,-7.8865004,-5.172074299999999,2.9107506,0.6040049,0.50600064,-0.12463594,9.06,15.42,9.18
1554106399785,-7.9583262999999995,-5.4641665999999995,2.9921536,0.14274544,0.42397526,-0.0053263223,8.94,16.08,9.36
1554106399806,-7.714117999999999,-5.5695120000000005,3.6050692000000004,-0.035153727999999995,0.38882150000000004,0.033023197000000004,8.7,16.86,9.72
1554106399825,-7.5800424,-5.406706,3.4518404,0.18748654,0.41864893,0.040480047000000005,8.46,17.1,9.9
1554106399845,-7.5369470000000005,-5.0236335,3.5284547999999996,0.46658584,0.43356264,-0.007456851,8.22,17.22,10.14
1554106399864,-7.4842744,-4.659715,3.2363622000000003,0.6125271,0.41438788,-0.111852765,7.98,17.4,10.44
1554106399886,-7.4124484,-4.664503599999999,3.2555158,0.5113269,0.35579833,-0.23009712,7.74,17.64,10.62
1554106399905,-7.383717999999999,-4.9422307,2.9346926,0.39201729999999996,0.29188246,-0.3291667,7.56,17.88,10.74
1554106399925,-7.383717999999999,-5.1385555,3.1214404,0.36964676,0.24501082,-0.38136467,7.38,18.18,10.92
1554106399945,-7.541735000000001,-5.061941,2.8485014,0.45486793,0.25246766,-0.38882150000000004,7.26,18.48,11.04
1554106399965,-7.6135616,-5.1146135,2.7335799,0.4644553,0.2876214,-0.3653857,7.08,18.72,11.16
1554106399985,-7.7093296,-5.0140567,2.7000610000000003,0.40373522,0.3057309,-0.3334278,7.02,19.08,11.22
1554106400005,-7.795521000000001,-4.980538,3.068768,0.39947417,0.3057309,-0.29507825,6.96,19.5,11.28
1554106400025,-7.920019,-4.7937902999999995,3.317765,0.47510794,0.32490566,-0.27483824,6.84,19.8,11.34
1554106400045,-7.6518690000000005,-4.7937902999999995,3.2124202,0.5965481,0.35579833,-0.2545982,6.72,20.16,11.4
1554106400065,-7.8673470000000005,-4.970961,2.9730000000000003,0.7052050999999999,0.37284255,-0.23861924,6.6,20.58,11.46
1554106400085,-7.690175999999999,-4.683657,2.9634232999999996,0.753142,0.350472,-0.22477080000000002,6.42,21.12,11.58
1554106400105,-7.6518690000000005,-4.2383356,3.0113072,0.7073356,0.36325517,-0.21624869,6.3,21.72,11.64
1554106400124,-7.6710224,-4.204817,3.0113072,0.60720074,0.37923414,-0.23755397,6.06,22.32,11.7
1554106400144,-7.5704656,-4.4777555,3.1932666000000003,0.43569317,0.38349520000000004,-0.26525086,5.88,22.8,11.76
1554106400164,-7.704541000000001,-4.812944,3.09271,0.41438788,0.40586576,-0.31638354,5.7,23.22,11.88
1554106400184,-8.020576,-4.8560395,2.6330232999999996,0.5123922000000001,0.42077947,-0.39627838,5.52,23.7,11.94
1554106400205,-7.991845,-4.717176,2.867655,0.49534798,0.39521313,-0.44101948,5.22,24.06,12.0
1554106400224,-8.025364,-4.970961,3.0065188,0.44847634,0.36325517,-0.49534798,4.86,24.42,12.06
1554106400244,-7.8146744,-4.9661726999999996,3.245939,0.47510794,0.34088463,-0.5251754,4.62,24.9,12.18
1554106400265,-7.728483,-4.947019,3.1022868,0.5400891,0.3057309,-0.53795856,4.38,25.32,12.3
1554106400285,-7.8050976,-4.947019,3.3033997999999998,0.5475459,0.2908172,-0.5816344,4.14,25.8,12.36
1554106400305,-8.030152000000001,-4.817732299999999,3.2028434,0.5795039000000001,0.26631612,-0.62317973,3.9,26.34,12.48
1554106400324,-7.996633500000001,-4.6405616,3.3225534,0.58696073,0.23648871,-0.6263755,3.72,26.88,12.6
1554106400345,-7.575253999999999,-4.7363295999999995,3.8301241000000004,0.53795856,0.18322548,-0.628506,3.54,27.48,12.66
1554106400364,-7.3166804,-4.8081555,3.9929300000000003,0.55606806,0.16298546,-0.64768076,3.54,28.02,12.72
1554106400386,-7.589619,-4.7506948,3.7152026,0.6562029,0.18322548,-0.6583334,3.42,28.62,12.72
1554106400404,-7.489063000000001,-4.611831,3.4566288,0.6540724,0.14594123,-0.660464,3.24,29.22,12.72
1554106400425,-7.0724716,-4.549582,3.7056258,0.5699165,0.03089267,-0.62744075,3.0,29.94,12.72
1554106400444,-7.254431200000001,-4.635773,3.7343562000000006,0.49960902,0.05965481,-0.5752428,2.76,30.6,12.6
1554106400466,-7.513005000000001,-4.496909,3.5236663999999998,0.3717773,0.1949434,-0.55074173,2.46,31.26,12.48
1554106400486,-7.1634517,-4.654927,3.4039562000000005,0.025566347000000003,0.27590349999999997,-0.5209143,2.1,31.98,12.3
1554106400504,-6.8330517,-5.54557,3.7822402000000004,-0.29188246,0.26844665,-0.49215218,1.74,32.64,12.18
1554106400525,-6.5122285,-6.139332,4.1270050000000005,-0.38242993,0.23968449999999997,-0.43356264,1.38,33.36,12.06
1554106400545,-6.3350577,-6.4601545,4.1270050000000005,-0.314253,0.2130529,-0.40266997,0.9,33.96,11.94
1554106400565,-5.865794,-6.627749000000001,3.9019501000000005,-0.26738137,0.13741912,-0.39947417,0.54,34.32,11.82
1554106400584,-5.449203,-6.8097080000000005,4.0839095,-0.21731395,0.07882957,-0.4048005,0.12,34.62,11.82
1554106400604,-5.583278,-6.8097080000000005,3.5236663999999998,-0.049002163,0.082025364,-0.41864893,-0.24,34.86,11.88
1554106400624,-5.9184665999999995,-6.517616,2.7623102999999998,0.09374327,0.12250541,-0.39201729999999996,-0.48,35.1,11.94
1554106400645,-5.731719,-6.4936733,2.475006,0.06391586,0.14594123,-0.35579833,-0.72,35.28,12.06
1554106400664,-5.420472599999999,-6.570288000000001,2.4702177000000005,-0.012783173500000002,0.18961707,-0.32810146,-0.9,35.46,12.24
1554106400685,-5.650316,-6.536769400000001,2.5133132999999996,-0.12250541,0.26738137,-0.27377295,-1.08,35.58,12.48
1554106400704,-6.023811299999999,-6.589442,2.6138697,-0.16937704,0.30040458,-0.25246766,-1.08,35.58,12.6
1554106400724,-6.3063273,-6.6612678,2.498948,-0.23435818,0.31105720000000003,-0.24394555,-1.14,35.7,12.78
1554106400745,-6.459556,-6.9437833,2.5516205000000003,-0.28549087,0.26312032,-0.25353295,-1.38,35.82,13.02
1554106400764,-6.3685765,-7.0970125,2.7287915000000003,-0.28655612,0.18748654,-0.25672874,-1.5,35.88,13.14
1554106400784,-6.38773,-7.3364325,3.0113072,-0.2790993,0.1470065,-0.25566345,-1.62,35.88,13.26
1554106400804,-6.1195793,-7.49445,3.0113072,-0.20133498,0.10972224,-0.23968449999999997,-1.8,35.94,13.38
1554106400825,-6.114791,-7.451353999999999,2.795829,-0.10333065,0.09587380000000001,-0.20879184,-2.04,35.94,13.44
1554106400844,-6.0908489999999995,-7.4465656000000005,2.532467,-0.060720075,0.10439592,-0.20240025,-2.34,35.94,13.56
1554106400865,-5.8466406,-7.5183919999999995,2.1972785,-0.06391586,0.09161274,-0.19600865,-2.64,35.94,13.68
1554106400884,-5.932832,-7.5566993,2.6330232999999996,-0.098004326,0.084155895,-0.18748654,-2.88,35.94,13.74
1554106400904,-5.932832,-7.480085000000001,2.7575218999999995,-0.111852765,0.06178534,-0.18322548,-3.06,35.88,13.86
1554106400925,-5.4922986,-7.585429700000001,3.0735563999999997,-0.06391586,0.023435817999999997,-0.17044231,-3.24,35.82,13.98
1554106400945,-5.7700260000000005,-7.49445,3.2076318,0.010652645,0.008522116,-0.18855181,-3.42,35.82,14.1
1554106400964,-5.923255,-7.2885485,3.1214404,0.05219796,0.007456851,-0.19707392,-3.66,35.82,14.16
1554106400984,-6.009446,-7.092224000000001,3.2172085999999998,0.054328485999999995,-0.012783173500000002,-0.20772657,-3.84,35.82,14.28
1554106401005,-5.995081,-7.3603745,3.0113072,0.022370555,0.0010652645,-0.21624869,-4.02,35.82,14.34
1554106401025,-6.0956373,-7.331644,2.8963853999999998,0.040480047000000005,0.04474111,-0.21731395,-4.14,35.82,14.34
1554106401046,-6.143522,-7.1975690000000005,2.6042929,0.027696876000000002,0.096939065,-0.1949434,-4.26,35.88,14.4
1554106401064,-6.253655,-7.178415299999999,2.6809072,-0.034088463,0.10226539,-0.17470337,-4.44,35.88,14.46
1554106401084,-6.1387334000000005,-7.140108000000001,2.8341362,-0.04474111,0.06711166,-0.15978967,-4.56,35.94,14.46
1554106401105,-5.947197,-7.1113777,2.9873652,0.02130529,0.024501082,-0.13741912,-4.68,36.0,14.46
1554106401125,-5.975927400000001,-6.986878999999999,2.7335799,0.12996227,0.018109497,-0.12144015,-4.8,36.18,14.46
1554106401145,-6.0381765,-6.7426705,2.6330232999999996,0.16298546,0.023435817999999997,-0.10013486,-4.8,36.36,14.46
1554106401164,-5.837064,-6.7091517000000005,2.5803509,0.098004326,0.049002163,-0.06498113,-4.8,36.48,14.46
1554106401184,-5.9807158,-6.795342999999999,2.5851393,-0.008522116,0.07563378,-0.049002163,-4.74,36.66,14.4
1554106401206,-6.129156,-6.800131299999999,2.7910407000000004,-0.07456851,0.09267801,-0.049002163,-4.68,36.78,14.4
1554106401225,-6.0621184999999995,-7.020397999999999,2.5611973,-0.07563378,0.07563378,-0.06285059999999999,-4.68,36.9,14.34
1554106401245,-6.009446,-7.2646065,2.7862522999999997,-0.03089267,0.03834952,-0.09054748,-4.62,37.02,14.34
1554106401264,-5.8322754,-7.341221000000001,2.7862522999999997,0.056459017,0.011717908999999999,-0.112918034,-4.62,37.08,14.34
1554106401285,-5.9184665999999995,-7.1209545,2.690484,0.09374327,0.008522116,-0.12357068,-4.62,37.02,14.4
1554106401305,-5.942408599999999,-7.006033,2.6282349,0.06604639400000001,0.011717908999999999,-0.12783173,-4.62,37.02,14.46
1554106401325,-5.913678,-7.029975,2.8293478,0.037284255,0.010652645,-0.13209279,-4.68,37.02,14.58
1554106401345,-5.9041014,-7.16405,2.8868085999999997,0.022370555,0.008522116,-0.13635385,-4.74,36.96,14.64
1554106401365,-5.7365074,-7.0491285,2.8389246,0.041545313,0.018109497,-0.1470065,-4.8,36.96,14.7
1554106401385,-5.8849480000000005,-6.881533999999999,3.1405939999999997,0.07030745599999999,0.040480047000000005,-0.15233281,-4.92,37.02,14.88
1554106401405,-5.8945246,-6.675633,3.0496144,0.08735169,0.056459017,-0.15765914,-5.04,37.02,14.94
1554106401425,-5.741296,-6.531981,2.7575218999999995,0.07350325,0.07137272,-0.15765914,-5.1,37.02,15.0
1554106401445,-5.7939680000000005,-6.517616,2.915539,0.023435817999999997,0.080960095,-0.15978967,-5.28,37.08,15.0
1554106401465,-5.861006,-6.6852098,2.6473885,-0.008522116,0.07989483,-0.16192019,-5.4,37.14,15.0
1554106401485,-5.961562000000001,-6.7043633,2.9011737999999996,-0.023435817999999997,0.084155895,-0.16724652,-5.58,37.2,15.0
1554106401505,-5.5545480000000005,-6.4936733,2.9873652,0.0,0.08948222,-0.18322548,-5.7,37.26,15.06
1554106401525,-4.9799394999999995,-5.9142766,3.1358056,0.0063915867,0.10865697,-0.23435818,-5.82,37.26,15.06
1554106401544,-4.630386,-5.607819,3.3800142,-0.017044231,0.15765914,-0.33129725,-5.88,37.32,15.06
1554106401564,-4.88896,-5.6269727,3.2794578000000003,0.008522116,0.21518342,-0.44847634,-6.0,37.38,15.06
1554106401585,-4.697424,-5.981314,2.7623102999999998,0.12144015,0.23222765,-0.5592638000000001,-6.06,37.44,15.06
1554106401605,-4.3478703,-6.350021400000001,2.4271219,0.28336033,0.23435818,-0.67537767,-6.12,37.44,15.06
1554106401624,-4.462791999999999,-6.5511346,2.6282349,0.40053943,0.24927188,-0.80533993,-6.36,37.44,15.06
1554106401645,-5.080496,-6.962936999999999,2.5516205000000003,0.535828,0.26631612,-0.91186637,-6.66,37.5,15.06
1554106401665,-5.521029,-7.5327573,2.7383683,0.6775081999999999,0.21624869,-0.9353021999999999,-6.96,37.68,15.06
1554106401685,-5.3007627,-8.054692999999999,3.0544027999999996,0.97471696,0.11611383,-0.92038846,-7.26,37.86,15.06
1554106401704,-4.8602295,-7.877522,2.9682117000000003,1.3464943,0.039414786,-0.87777793,-7.62,38.28,15.06
1554106401724,-4.572925,-7.5183919999999995,3.2555158,1.5435683,-0.008522116,-0.813862,-7.98,38.82,15.0
1554106401746,-4.606444000000001,-6.8528037,3.365649,1.4157364,-0.024501082,-0.7574029999999999,-8.34,39.6,14.82
1554106401764,-4.6782703,-6.4218473,3.5523968,1.1813782,-0.04474111,-0.737163,-8.7,40.38,14.4
1554106401784,-4.343082,-6.273407,3.6625300000000003,0.92038846,-0.1107875,-0.7190535,-8.94,41.22,13.8
1554106401806,-3.7014358,-5.8041434,3.6577415,0.6061354999999999,-0.17150758,-0.7222493000000001,-9.24,42.12,13.14
1554106401825,-3.5290532,-5.579088700000001,3.9929300000000003,0.33981937,-0.16618125,-0.77231675,-9.6,42.96,12.6
1554106401844,-3.6727053999999995,-5.3971290000000005,3.4997244,0.13315806,-0.14274544,-0.8522116,-9.96,43.68,12.0
1554106401866,-3.8546648,-5.502473999999999,2.9059622000000003,-0.42184472,-0.18109496,-0.99069595,-10.26,44.4,11.4
1554106401885,-3.4859576,-5.6365495,2.5803509,-0.8479504999999999,-0.28336033,-1.0769824,-10.68,45.0,10.86
1554106401905,-2.791639,-5.9477954,2.7240029999999997,-1.0567423,-0.386691,-1.1781825000000001,-11.16,45.36,10.44
1554106401925,-2.2409727999999998,-6.187216,2.1398177000000005,-1.0897655000000002,-0.42930159999999995,-1.3028183999999998,-11.64,45.66,10.26
1554106401945,-2.1643584,-6.771400999999999,1.8716671000000003,-1.3805827,-0.43462790000000007,-1.3933659,-12.12,45.96,10.26
1554106401964,-2.0781669999999997,-7.527969000000001,2.3696610000000002,-1.6895093999999997,-0.45486793,-1.4849787,-12.6,46.14,10.32
1554106401985,-1.7621324,-8.251018,2.5468319999999998,-1.6213325,-0.49321744,-1.6373115,-13.02,46.26,10.5
1554106402005,-1.1827357,-8.921394,1.4550761,-1.164334,-0.5187838,-1.7907095000000002,-13.56,46.02,10.92
1554106402025,-0.866701,-8.849568,0.19093758,-1.071656,-0.5294364,-1.824798,-14.16,45.66,11.46
1554106402044,-0.7757214,-9.314043,0.8086416000000001,-1.3496901000000001,-0.5795039000000001,-1.8322549,-14.76,45.24,12.12
1554106402066,-0.6607997,-9.677961,1.8237831999999998,-1.2783173,-0.6359629,-1.9281287,-15.36,44.7,12.72
1554106402086,0.11971009,-10.061034,1.2252326999999998,-0.7978831000000001,-0.6870956,-2.0186759999999997,-16.08,44.1,13.38
1554106402105,1.0007763,-9.965266,0.40641573,-0.65194184,-0.7254451,-2.0474384,-16.8,43.32,14.04
1554106402124,1.3455413999999999,-10.333973,0.018555064,-0.8628642,-0.7254451,-2.0964406,-17.46,42.48,14.7
1554106402145,1.4987701999999998,-10.606912,1.158195,-1.0610034,-0.7456851,-2.167813,-18.24,41.64,15.36
1554106402164,1.9249381999999997,-10.678739,1.7232267,-0.7595335999999999,-0.7776430000000001,-2.2572954,-18.96,41.04,15.9
1554106402186,2.2266076,-10.458471000000001,1.5412674,-0.31957933,-0.78936094,-2.352104,-19.68,40.32,16.44
1554106402205,2.6288335,-10.175956,0.97144735,-0.22050974,-0.8831041999999999,-2.4074976,-20.4,39.6,16.98
1554106402224,3.3854012000000004,-10.362703,0.789488,-0.33768883,-0.99921805,-2.360626,-21.06,38.88,17.4
1554106402246,3.916914,-10.736199000000001,1.8716671000000003,-0.3685815,-1.0769824,-2.2817965,-21.6,38.22,17.82
1554106402265,3.8977604,-10.549451,2.2260091,0.029827405,-1.0929613,-2.2615564,-22.26,37.68,18.24
1554106402285,4.1180267,-10.022727,1.0001777,0.47617322,-1.1185277,-2.2136195,-23.4,36.96,18.78
1554106402304,4.5394063,-9.644442999999999,0.7368156,0.33449304,-1.1675298,-2.1518342,-23.82,36.66,18.9
1554106402324,5.243302,-9.558251,0.6171055000000001,-0.039414786,-1.2186625,-2.0996363,-24.48,36.12,19.02
1554106402345,5.5401826,-10.061034,0.96187055,-0.1949434,-1.252751,-2.058091,-25.14,35.64,19.02
1554106402366,6.105214,-10.166379,1.8046296000000002,0.19707392,-1.1547466999999998,-2.021872,-26.1,35.1,19.02
1554106402385,6.2249246,-10.046669,1.2683283,0.660464,-1.0535465,-2.0250678,-26.76,34.68,19.02
1554106402405,6.3063273,-9.390657000000001,1.062427,0.8266452,-0.9736517,-2.001632,-27.3,34.26,19.08
1554106402425,6.2153480000000005,-9.11293,0.6985083000000001,0.79894835,-0.9321064,-1.9909793000000002,-27.72,33.84,19.08
1554106402445,6.5840545,-8.418612,0.7224503999999999,0.6306366,-0.9395633,-1.9217370999999999,-28.02,33.48,19.08
1554106402465,6.789956,-8.083424,0.97144735,0.5219796,-0.9214538000000001,-1.8492991,-28.32,33.24,19.02
1554106402485,6.9719152,-7.939771,1.2443863000000002,0.4644553,-0.8745821,-1.7832526999999998,-28.62,33.0,19.02
1554106402505,7.5082164,-7.6285253,1.0432734000000001,0.45486793,-0.8127968000000001,-1.7342505000000001,-29.04,32.76,19.02
1554106402525,7.714117999999999,-7.398681599999999,1.1246762,0.48682585,-0.73290193,-1.7544906000000002,-29.4,32.58,18.9
1554106402545,7.97748,-7.020397999999999,0.7080852,0.44208476,-0.64768076,-1.7651432,-29.76,32.4,18.78
1554106402565,8.350976,-6.6469026,0.56443304,0.32597092,-0.5603291,-1.7385116000000003,-30.12,32.34,18.66
1554106402585,8.7532015,-6.215946,0.32501290000000005,0.24501082,-0.47617322,-1.7235979,-30.42,32.22,18.54
1554106402605,8.911219000000001,-5.899911400000001,0.20051439,0.20559604,-0.4250405,-1.6969663000000001,-30.78,32.1,18.42
1554106402624,9.188946000000001,-5.6748567,0.22924481,0.17576863,-0.34514567,-1.6607473000000001,-31.2,31.8,18.3
1554106402645,9.361329,-5.445012999999999,0.45429978,0.19068234,-0.26205507,-1.635181,-31.68,31.44,18.12
1554106402665,9.634267999999999,-5.1146135,0.25318682,0.27377295,-0.19920446,-1.5744608999999998,-32.16,30.96,18.0
1554106402685,9.725247,-4.932654,0.21009120000000003,0.3685815,-0.18002969,-1.5446335,-32.58,30.3,17.94
1554106402705,9.950302,-4.6884456,0.13347675,0.5230448000000001,-0.16618125,-1.5020228999999998,-33.06,29.7,17.94
1554106402724,10.022128,-4.2718544000000005,0.09516951400000001,0.71159667,-0.1470065,-1.4008228,-33.66,29.04,17.82
1554106402744,10.031705,-4.171298,0.26276365,0.8149273,-0.14061491,-1.3049488999999999,-34.38,28.5,17.76
1554106402765,9.89763,-3.8552632000000004,0.20530279,0.96406436,-0.10759171,-1.0961571,-35.04,27.9,17.7
1554106402784,9.615114,-3.5775358999999995,-0.04369418,1.0407634,-0.07776430000000001,-0.90973586,-35.58,27.36,17.58
1554106402804,9.648633,-3.4099417,-0.25917232,1.0237192,-0.07030745599999999,-0.77125144,-36.0,27.0,17.34
1554106402825,9.739613,-3.2854433,-0.25917232,0.902279,-0.06391586,-0.56885123,-36.48,26.76,17.16
1554106402845,9.931149000000001,-3.2902317,-0.39803603,0.7840345999999999,-0.043675844000000005,-0.43036684,-36.96,26.7,16.74
1554106402865,9.888053,-3.0747535,-0.16340427,0.6668556,-0.0063915867,-0.3057309,-37.44,26.58,16.32
1554106402885,9.763555,-2.9071592999999996,-0.16340427,0.5400891,0.033023197000000004,-0.1949434,-37.92,26.52,15.9
1554106402905,9.615114,-2.9358897,-0.091578215,0.39414784,0.056459017,-0.08948222,-38.22,26.46,15.48
1554106402925,9.830592,-2.9789855,-0.010175358,0.26312032,0.049002163,0.0010652645,-38.46,26.4,15.06
1554106402946,10.204087,-2.8975825,0.018555064,0.16937704,0.049002163,0.06604639400000001,-38.64,26.46,14.7
1554106402965,10.160992,-2.9311013,0.22924481,0.10865697,0.07243799,0.12570119999999999,-38.82,26.64,14.34
1554106402985,9.964667,-2.7443538,0.30585927,0.05752428,0.099069595,0.20133498,-38.94,26.82,14.04
1554106403005,9.572019000000001,-2.4762032000000005,0.30585927,-0.022370555,0.12463594,0.2972088,-39.06,27.06,13.86
1554106403025,9.131485000000001,-2.4378957999999997,0.39205053,-0.17257284,0.13209279,0.4079963,-39.0,27.3,13.74
1554106403044,8.829816000000001,-2.4139538,0.7751228,-0.34194988,0.098004326,0.51452273,-38.94,27.66,13.62
1554106403065,8.676587,-2.6916811000000003,1.0432734000000001,-0.45593318,0.034088463,0.608266,-38.88,28.02,13.56
1554106403086,8.848969,-2.9406781000000004,1.5364790000000002,-0.41119209999999995,-0.03089267,0.65726817,-38.76,28.56,13.44
1554106403105,8.844180999999999,-2.830545,1.6944963,-0.3749731,-0.034088463,0.660464,-38.76,28.56,13.44
1554106403124,9.11712,-2.9406781000000004,1.5652093999999999,-0.060720075,-0.04580637,0.6125271,-38.64,28.8,13.38
1554106403145,9.255983,-2.8353333,1.5891514,0.083090626,-0.034088463,0.5390238,-38.52,29.04,13.5
1554106403164,9.26556,-2.8401217,1.7615339,0.19387813,-0.025566347000000003,0.46125950000000004,-38.28,29.22,13.56
1554106403184,9.332599,-2.8975825,1.6514006,0.26205507,-0.013848438000000001,0.41225734,-38.16,29.28,13.62
1554106403205,9.150639,-2.7012582000000003,1.8620903000000002,0.3334278,0.015978966,0.350472,-37.98,29.4,13.74
1554106403225,8.892064999999999,-2.4905684,1.7567455,0.37603834,0.06178534,0.32810146,-37.56,29.7,13.86
1554106403244,8.896853,-2.3517046,1.7375918999999997,0.36112466,0.08948222,0.34088463,-37.32,30.0,13.98
1554106403265,8.992621,-2.2655133999999997,1.8142063999999998,0.2727077,0.10013486,0.33129725,-37.02,30.36,14.1
1554106403284,9.174581,-2.2894554,1.6801311,0.1949434,0.10865697,0.31105720000000003,-36.84,30.54,14.1
1554106403305,9.227253,-2.404377,1.8285716,0.05752428,0.14061491,0.23435818,-36.48,31.14,14.1
1554106403325,9.040505,-2.48578,1.8189948,-0.014913702,0.165116,0.13315806,-36.3,31.62,14.04
1554106403345,9.083601,-2.5384523999999997,1.7280151000000001,-0.05006743,0.17257284,0.040480047000000005,-36.12,32.04,13.92
1554106403365,9.179369,-2.6150667999999997,1.8285716,-0.08522116,0.16937704,-0.05219796,-35.94,32.46,13.74
1554106403385,9.165004,-2.8401217,1.8620903000000002,-0.09587380000000001,0.165116,-0.15978967,-35.88,32.76,13.68
1554106403405,9.006986999999999,-2.902371,1.8046296000000002,-0.056459017,0.15126756,-0.25246766,-35.76,32.94,13.5
1554106403425,8.944737,-2.9358897,1.8668787,0.012783173500000002,0.13102753,-0.3334278,-35.7,33.18,13.38
1554106403445,9.121908,-3.0364463,1.7567455,0.09267801,0.08628642,-0.406931,-35.64,33.3,13.26
1554106403465,9.217675999999999,-3.1322143,1.7423803,0.18748654,0.05539375,-0.4889564,-35.58,33.24,13.2
1554106403484,9.160214999999999,-3.141791,1.9243397,0.23435818,0.053263225,-0.535828,-35.52,33.12,13.14
1554106403504,9.136273,-3.0412347,2.0153193,0.26312032,0.05219796,-0.58056915,-35.46,32.94,13.14
1554106403524,8.925583999999999,-3.103484,1.6849195,0.25140239999999997,0.04261058,-0.60933125,-35.46,32.82,13.08
1554106403544,8.963891,-3.1226375,1.7854759999999998,0.24607609,0.036218993,-0.60507023,-35.52,32.7,13.08
1554106403564,9.141062,-3.2040405,1.6897078999999997,0.24607609,0.02130529,-0.5635249,-35.76,32.4,13.02
1554106403584,9.246407000000001,-3.2950199999999996,1.7902644,0.2790993,0.022370555,-0.5123922000000001,-36.06,32.22,13.02
1554106403605,9.165004,-3.3955764999999998,1.6418238,0.33662358,0.018109497,-0.46125950000000004,-36.48,32.04,12.9
1554106403625,9.351752000000001,-3.5775358999999995,1.1486181999999998,0.27057716,-0.004261058,-0.3749731,-36.84,31.92,12.72
1554106403644,9.375694000000001,-3.639785,1.3880384,0.10652645,-0.029827405,-0.24927188,-37.26,31.86,12.54
1554106403665,9.370906,-3.4099417,1.4502877,0.034088463,-0.09161274,-0.11504856,-37.74,31.74,12.36
1554106403685,9.222465,-3.4338839999999995,1.5077485000000002,0.054328485999999995,-0.12996227,0.033023197000000004,-38.1,31.56,12.12
1554106403705,8.963891,-3.6589386,1.5604209999999998,0.12570119999999999,-0.13741912,0.16618125,-38.34,31.44,11.94
1554106403724,8.853758000000001,-3.9223008000000004,1.6609775000000002,0.221575,-0.17470337,0.22690132,-38.58,31.32,11.7
1554106403744,8.90643,-4.0563765,1.5221136999999998,0.35792887,-0.22583607,0.21411815,-38.7,31.14,11.52
1554106403765,9.160214999999999,-4.085107,1.4119805,0.5230448000000001,-0.24714136,0.165116,-38.76,31.02,11.4
1554106403785,9.107543,-4.1138372,1.3257892,0.6711166000000001,-0.23542345,0.10759171,-38.82,31.02,11.4
1554106403805,9.030928999999999,-4.061165,1.5029601000000001,0.75633776,-0.23329292,0.054328485999999995,-38.82,31.26,11.34
1554106403824,9.155427,-4.0563765,1.5412674,0.8447546999999999,-0.25992453,0.036218993,-38.7,31.56,11.34
1554106403845,9.332599,-4.329315,1.7280151000000001,0.91186637,-0.27164245,0.10333065,-38.58,31.92,11.34
1554106403865,9.323022,-4.1138372,1.8860323,1.0098706,-0.24074976,0.24074976,-38.4,32.34,11.28
1554106403884,9.313444,-3.8121676,1.5747862,1.099353,-0.18535602,0.41225734,-38.22,32.76,11.16
1554106403905,9.275136999999999,-3.5871127,1.2635399,1.1132014,-0.1470065,0.6018744,-37.98,33.24,10.92
1554106403925,9.370906,-3.5966894999999997,1.2635399,1.051416,-0.13209279,0.7275756,-37.74,33.78,10.68
1554106403945,9.662998,-3.4961330000000004,1.3449427999999999,0.94275904,-0.112918034,0.7861651999999999,-37.44,34.8,10.14
1554106403965,9.557653,-3.4003648999999996,1.407192,0.87351686,-0.07989483,0.8032094,-37.2,35.34,9.78
1554106403985,9.595961,-3.3572693,1.5173253,0.8330368,-0.05006743,0.8042746999999999,-36.96,36.06,9.24
1554106404005,9.323022,-3.0747535,1.3688848,0.80747044,0.002130529,0.8032094,-36.66,36.9,8.7
1554106404024,9.141062,-3.007716,1.2348095,0.7488809000000001,0.033023197000000004,0.7882956999999999,-36.06,37.8,8.22
1554106404044,9.074024,-2.926313,1.2300211,0.64555025,0.036218993,0.76592517,-35.52,38.76,7.8
1554106404065,9.155427,-3.5057099999999997,1.2683283,0.54435015,0.020240024,0.7339671999999999,-34.98,39.66,7.44
1554106404085,9.150639,-3.5488055,1.2587515,0.40266997,0.024501082,0.7680557,-34.44,40.44,7.08
1554106404105,9.126697,-3.5871127,1.2587515,0.35579833,0.024501082,0.79681784,-33.9,41.16,6.78
1554106404125,9.26556,-3.7882257000000004,1.2012907,0.28442562,-0.0010652645,0.8447546999999999,-33.24,41.76,6.54
1554106404145,9.251195,-4.094683600000001,1.3210008,0.2034655,-0.022370555,0.8745821,-32.64,42.24,6.24
1554106404165,9.02614,-4.3197384,1.6753427,0.14168017,-0.029827405,0.86392945,-32.04,42.6,5.94
1554106404185,8.63828,-4.305373,1.584363,0.1470065,-0.012783173500000002,0.81918836,-31.62,42.96,5.58
1554106404205,8.298303,-4.3436804,1.4981716999999999,0.11717909,-0.0010652645,0.79042625,-30.96,43.26,5.28
1554106404226,8.226477000000001,-4.4921207,1.5508442,0.015978966,-0.017044231,0.7978831000000001,-30.36,43.62,5.04
1554106404245,8.269572,-4.583101,1.2587515,-0.05752428,-0.04474111,0.78936094,-29.76,44.1,4.8
1554106404265,8.451532,-4.8895583,1.6178818000000001,-0.18109496,-0.083090626,0.79255676,-29.16,44.52,4.62
1554106404285,8.595184,-5.6365495,1.7040731,-0.33875409999999995,-0.11824436,0.7946873000000001,-28.68,44.94,4.5
1554106404305,8.274361,-6.0387754000000005,2.0440497,-0.43249738,-0.15126756,0.8213189000000001,-28.26,45.3,4.5
1554106404325,7.905653999999999,-6.225523,1.7232267,-0.38349520000000004,-0.17470337,0.87138635,-27.84,45.66,4.62
1554106404345,7.608772999999999,-6.5271926,1.6705543,-0.28122982,-0.24501082,1.0002834,-27.48,45.96,4.8
1554106404365,7.278373200000001,-6.8719573,1.7806876,-0.19813919,-0.2876214,1.1121361,-27.06,46.26,4.98
1554106404385,7.029375999999999,-7.1688385,1.9243397,-0.14807177,-0.32810146,1.1941614,-26.46,46.38,5.16
1554106404405,7.029375999999999,-7.9301944,1.8046296000000002,-0.13209279,-0.36751625,1.2602079,-25.74,46.5,5.34
1554106404425,7.3166804,-8.380303999999999,1.9626468000000001,-0.128897,-0.4079963,1.3997575,-24.96,46.62,5.52
1554106404446,6.770802499999999,-8.365939,1.6609775000000002,-0.047936900000000005,-0.3717773,1.5350461000000002,-24.18,46.8,5.7
1554106404464,6.3063273,-8.595782,1.2635399,0.010652645,-0.3653857,1.6266588,-23.34,46.98,5.88
1554106404485,6.019023000000001,-8.801684,1.4407108999999998,-0.10226539,-0.41758367,1.7235979,-22.44,47.1,6.06
1554106404504,5.430049400000001,-9.050680999999999,1.8333599999999999,-0.19068234,-0.45912898,1.7789917000000002,-21.48,47.22,6.18
1554106404524,5.3103394999999995,-9.438541,1.9913772,-0.17150758,-0.5006742999999999,1.8397116999999998,-20.52,47.34,6.3
1554106404545,5.2863975,-9.409811,2.3026235,-0.039414786,-0.5273059,1.9249328,-19.62,47.46,6.42
1554106404565,4.4436383,-9.208698,2.2307975,0.22903186,-0.47297743,1.9803267,-18.72,47.52,6.6
1554106404585,3.8163576,-8.974067,2.0201077,0.5006742999999999,-0.42930159999999995,2.0154803,-17.64,47.58,6.72
1554106404606,3.98874,-9.199121,2.144606,0.7233145999999999,-0.44741106,2.0442424,-16.38,47.58,6.78
1554106404625,4.189853,-9.610924,1.9722236000000002,0.96939063,-0.41971418,2.058091,-14.88,47.58,6.84
1554106404646,3.7588966,-9.041103999999999,2.2403743,1.2048141,-0.28655612,2.0527647,-13.26,47.58,6.78
1554106404665,3.2465374,-8.926183,2.5899277,1.3411678999999999,-0.14168017,2.0453076,-11.58,47.64,6.72
1554106404685,3.2465374,-9.074622999999999,2.9825767999999995,1.2793826000000001,-0.054328485999999995,2.058091,-9.96,47.58,6.6
1554106404705,2.9257145,-9.132083999999999,3.1741127999999996,1.2719258,0.040480047000000005,2.005893,-8.28,47.4,6.36
1554106404726,2.5761611,-8.744224,3.2076318,1.4008228,0.17789917,1.824798,-6.0,47.04,5.88
1554106404744,2.2218192,-8.892664,3.2603042,1.5211976999999999,0.257794,1.7651432,-5.28,46.86,5.7
1554106404764,1.9057846,-8.897452000000001,3.0496144,1.7076189999999998,0.34621096,1.6969663000000001,-3.84,46.56,5.34
1554106404785,1.8339584999999998,-8.145673,3.0974984,1.7971011000000001,0.42717105,1.6532904,-2.64,46.08,4.86
1554106404804,1.3790601,-8.112153999999999,3.2411506,1.7065537,0.51771855,1.5851135,-1.62,45.42,4.26
1554106404825,1.1061212,-8.112153999999999,3.4087446000000003,1.4231933,0.53795856,1.6383767,-0.3,44.52,3.06
1554106404845,0.79008657,-8.021174,3.5523968,1.3102753,0.52837116,1.6660736,0.12,44.16,2.64
1554106404867,-0.17717093,-7.709928,3.8397010000000003,1.2335763000000002,0.49854377,1.6586168000000001,1.32,43.26,1.44
1554106404884,-0.62728083,-8.212710000000001,4.194042700000001,1.1504856,0.41545314,1.6820526000000002,2.16,42.48,0.6
1554106404905,-0.9864110999999999,-8.950125,4.706402,1.1899004,0.36645097,1.6405072,2.52,41.94,0.18
1554106404925,-2.0685901999999996,-8.758589,5.319318,1.3997575,0.2790993,1.4391723,3.72,40.56,-0.9
1554106404945,-2.585738,-8.600571,5.482123400000001,1.4689997,0.15978967,1.3113406,4.5,39.66,-1.5
1554106404964,-2.5091232999999997,-8.341997000000001,5.692813,1.5084145,0.047936900000000005,1.3049488999999999,5.28,38.76,-1.92
1554106404985,-2.3463178,-7.820061,5.6497173,1.6692694,0.0,1.3507552999999999,6.0,37.62,-2.16
1554106405005,-2.8443117,-7.0634937,5.472546599999999,1.9750003,0.0053263223,1.3646038,6.72,36.42,-2.52
1554106405024,-3.0214825000000003,-6.508039,5.506065400000001,2.0964406,0.004261058,1.3773868999999999,7.44,35.28,-2.82
1554106405045,-2.873042,-6.6085954,5.7646394,1.9963056000000001,0.0053263223,1.3283848,8.16,34.14,-3.3
1554106405065,-2.585738,-7.441777,6.5068417,1.7630126,0.010652645,1.1952267,8.82,33.06,-3.84
1554106405085,-1.8339584999999998,-8.471283999999999,7.177217999999999,1.6437031000000002,0.09161274,1.0578076,9.3,31.68,-4.38
1554106405105,-1.7142484,-8.624513,7.981669999999999,1.9132148999999998,0.26844665,0.84155893,9.66,30.36,-5.04
1554106405125,-1.3503298000000001,-6.9581485,7.421427,2.4000409,0.4825648,0.664725,10.08,29.1,-5.7
1554106405145,-1.5370774999999999,-6.0244102,7.1341224,2.5374599,0.6498113,0.55606806,10.5,27.96,-6.3
1554106405164,-1.8818424999999999,-4.8704047,7.555502000000001,2.4650217999999997,0.74781567,0.43249738,10.98,26.94,-6.9
1554106405184,-1.9488802,-4.156933,7.727885000000001,2.2551648999999996,0.79894835,0.36751625,11.28,26.04,-7.38
1554106405205,-1.7573439999999998,-4.1138372,8.173206,2.0506341,0.87138635,0.26738137,11.46,25.2,-7.68
1554106405225,-2.7629087,-3.7834373,8.010401,2.0229373,0.95660746,0.14274544,11.64,24.36,-7.92
1554106405246,-3.3470940000000002,-3.3859997,7.6943655,2.0485036,0.9619338,0.07669904,11.82,23.76,-8.16
1554106405265,-3.4572272000000006,-2.806603,7.2873516,1.9323897,0.8841694999999999,0.047936900000000005,12.0,23.22,-8.28
1554106405284,-3.5577837999999997,-2.3229742,7.3208704,1.5840483,0.8127968000000001,0.05965481,12.18,22.74,-8.34
1554106405304,-3.5242648,-1.8393455,7.373543,1.0588728,0.7350325,0.08735169,12.24,22.26,-8.4
1554106405327,-3.4811692,-2.8832173,7.5507135,0.45060685,0.70627034,0.084155895,12.24,21.84,-8.46
1554106405344,-3.6343982000000006,-3.2471360000000002,7.7039423,0.30360037,0.71585774,0.096939065,12.3,21.42,-8.52
1554106405365,-3.9552212,-3.7211879999999997,7.5985975,0.37390783,0.737163,0.080960095,12.3,21.06,-8.4
1554106405384,-4.5298295,-3.520075,7.435792,0.59761333,0.73609775,0.027696876000000002,12.36,20.88,-8.28
1554106405404,-4.7357309999999995,-3.0172927000000005,6.9808936,0.664725,0.71159667,0.015978966,12.42,20.82,-7.92
1554106405425,-4.9799394999999995,-2.1936872000000003,6.214748999999999,0.48682585,0.664725,-0.004261058,12.48,20.7,-7.62
1554106405445,-5.1523223,-2.1027076,6.4541693,0.22050974,0.65726817,-0.02130529,12.54,20.58,-7.32
1554106405465,-5.267244,-2.1458032000000005,6.7941460000000005,-0.022370555,0.6359629,0.007456851,12.6,20.46,-7.02
1554106405485,-5.0613421999999995,-2.2463598,7.0048356,-0.24501082,0.6562029,0.026631612000000002,12.66,20.4,-6.66
1554106405505,-5.291186,-2.1410147999999998,7.459734,-0.39308259999999995,0.68816084,0.047936900000000005,12.72,20.28,-6.24
1554106405525,-5.521029,-2.2894554,7.071872999999999,-0.4825648,0.69135666,0.13315806,12.78,20.28,-5.7
1554106405546,-5.1810527,-2.2655133999999997,7.1915830000000005,-0.46019423,0.6775081999999999,0.21518342,12.84,20.22,-5.1
1554106405565,-5.2049947,-2.7922377999999997,7.474099000000001,-0.13848437,0.71585774,0.24820662,12.84,20.16,-4.5
1554106405585,-5.0517654,-2.4283189999999997,7.2969284,0.22690132,0.69348717,0.30892670000000005,12.9,20.1,-3.84
1554106405604,-4.936844000000001,-1.6334441000000002,7.019201,0.32810146,0.6583334,0.30466563,12.96,20.1,-3.12
1554106405625,-5.0421886,-0.7092823,6.9808936,0.16831179,0.6317018,0.2790993,12.96,20.1,-2.4
1554106405645,-5.272032299999999,-0.20171149,6.918644400000001,-0.12037488,0.59761333,0.30786142,13.02,20.04,-1.68
1554106405664,-5.444414599999999,-0.4842273,6.9904703999999995,-0.38242993,0.5795039000000001,0.3685815,13.02,19.98,-1.14
1554106405684,-5.9184665999999995,-0.85293436,7.0527196,-0.42290998,0.5219796,0.406931,13.02,19.86,-0.72
1554106405705,-6.1626754,-0.84814596,7.114969,-0.31638354,0.4314321,0.43675843,13.02,19.68,-0.42
1554106405724,-6.4020953,-0.46986207,7.2969284,-0.2130529,0.36432046,0.44528055,12.96,19.2,-0.12
1554106405745,-6.612785000000001,-0.024540568,7.043143,-0.22477080000000002,0.29294774,0.42184472,12.96,18.84,0.0
1554106405765,-6.847417,-0.3357868,6.870760400000001,-0.20559604,0.2695119,0.39095205,13.02,18.6,0.12
1554106405785,-7.043741000000001,-0.374094,6.51163,-0.13102753,0.19387813,0.3685815,13.02,18.18,0.3
1554106405804,-6.9623384,-0.5129577000000001,6.0758852999999995,-0.024501082,0.07350325,0.3568636,13.08,17.46,0.66
1554106405824,-6.780379300000001,-0.3357868,6.114192500000001,0.037284255,-0.00958738,0.34194988,13.08,16.86,0.9
1554106405844,-6.5744777,0.0712275,5.9322333,0.0031957934000000003,-0.07243799,0.33662358,13.08,16.56,0.96
1554106405865,-6.277597,0.42556936,6.2243257000000005,-0.257794,-0.13102753,0.33129725,13.14,15.78,1.26
1554106405885,-6.2105594,0.5165489999999999,5.9322333,-0.31851408,-0.13209279,0.32597092,13.14,15.54,1.38
1554106405904,-6.2632318,-0.20649989,5.855619,-0.6040049,-0.21518342,0.29933932,13.2,14.82,1.5
1554106405925,-6.172251999999999,-0.9247603999999999,5.8747725,-0.6242449999999999,-0.26205507,0.30892670000000005,13.26,14.4,1.56
1554106405944,-5.8274870000000005,-1.1833341999999998,6.39192,-0.60507023,-0.32170987,0.28122982,13.32,13.98,1.5
1554106405964,-5.7029886,-1.2312181999999998,6.995259,-0.49215218,-0.36218992,0.21624869,13.38,13.44,1.44
1554106405984,-5.741296,-1.0588357,7.244256,-0.32277513,-0.3653857,0.1587244,13.5,12.96,1.38
1554106406005,-5.93762,-1.0540473,7.138911,-0.19920446,-0.34301516,0.12996227,13.56,12.54,1.38
1554106406025,-6.0333879999999995,-1.0109516,6.535572,-0.22690132,-0.34940675,0.13315806,13.62,12.0,1.32
1554106406044,-6.1770406,-1.1210848999999998,6.257845,-0.34727620000000003,-0.35792887,0.14061491,13.74,11.52,1.2
1554106406064,-6.2105594,-1.1785458,6.63134,-0.4133226,-0.35899413,0.1438107,13.8,11.1,1.02
1554106406085,-6.2967505,-1.192911,6.9761050000000004,-0.3717773,-0.3536678,0.14807177,13.92,10.74,0.78
1554106406104,-6.26802,-1.1067197,7.225102000000001,-0.35473305,-0.32810146,0.12357068,13.98,10.38,0.54
1554106406125,-6.105214,-1.2551602,7.6369047000000005,-0.3174488,-0.29507825,0.07776430000000001,14.1,10.2,0.24
1554106406144,-6.0333879999999995,-1.3748703000000002,7.119757000000001,-0.30466563,-0.30253512,0.096939065,14.22,9.96,0.0
1554106406165,-6.339846,-1.6478093,6.985682000000001,-0.38136467,-0.31851408,0.12037488,14.34,9.78,-0.24
1554106406184,-6.4643445,-1.6525976999999998,7.4645224,-0.36325517,-0.34514567,0.112918034,14.46,9.54,-0.54
1554106406204,-5.975927400000001,-1.6861166,7.9625163,-0.14061491,-0.37071204,0.10546118,14.52,9.3,-0.78
1554106406225,-5.760449400000001,-1.2695253999999998,8.063073,-0.017044231,-0.34514567,0.10546118,14.64,9.0,-0.9
1554106406245,-5.741296,-1.1546037,8.149264,0.06924219,-0.29827404,0.07989483,14.7,8.76,-1.08
1554106406265,-5.7987566,-0.84814596,7.6464815,0.013848438000000001,-0.25246766,0.10759171,14.76,8.46,-1.38
1554106406285,-5.8562174,-1.1067197,7.29214,-0.15446335,-0.24074976,0.1438107,14.76,8.1,-1.62
1554106406305,-5.9567738,-1.5328877,7.3400240000000005,-0.28442562,-0.24394555,0.15233281,14.76,7.86,-1.92
1554106406324,-5.755661,-1.6334441000000002,7.943362700000001,-0.23861924,-0.257794,0.13741912,14.76,7.56,-2.16
1554106406345,-5.521029,-1.3221979,8.201937,-0.16724652,-0.23861924,0.083090626,14.76,7.38,-2.46
1554106406365,-5.434838,-1.3126211,8.43178,-0.12037488,-0.17044231,0.043675844000000005,14.82,7.14,-2.7
1554106406385,-5.612008599999999,-1.4083891000000002,7.9194207,-0.14487597,-0.11824436,0.07776430000000001,14.82,6.96,-3.0
1554106406405,-5.6886234,-1.6334441000000002,7.5842323,-0.19920446,-0.08735169,0.07776430000000001,14.82,6.78,-3.18
1554106406424,-5.6982,-1.6956933999999997,7.6800003,-0.18855181,-0.07669904,0.07137272,14.88,6.6,-3.3
1554106406444,-5.430049400000001,-1.441908,7.9002669999999995,-0.10865697,-0.07456851,0.07030745599999999,14.94,6.48,-3.42
1554106406465,-5.410896,-1.2838906,7.7949224,-0.09161274,-0.035153727999999995,0.06285059999999999,15.06,6.36,-3.6
1554106406485,-5.57849,-1.3317747,7.5842323,-0.13528858,-0.00958738,0.05965481,15.12,6.24,-3.78
1554106406504,-5.726930599999999,-1.3413515,7.225102000000001,-0.17896444,-0.0063915867,0.051132694000000006,15.18,6.18,-3.96
1554106406526,-5.78918,-1.4706384,7.258621000000001,-0.23116238,-0.03195793,0.0063915867,15.24,6.06,-4.2
1554106406544,-5.7365074,-1.5951369,7.5985975,-0.221575,-0.040480047000000005,-0.018109497,15.3,6.0,-4.32
1554106406565,-5.506664,-1.5233108,7.7374616,-0.221575,-0.036218993,-0.040480047000000005,15.3,5.82,-4.5
1554106406585,-5.544971,-1.3940238999999999,7.838017999999999,-0.2695119,-0.022370555,-0.05006743,15.3,5.76,-4.5
1554106406605,-5.755661,-1.4706384,7.368754400000001,-0.36325517,-0.01917476,-0.03195793,15.3,5.7,-4.62
1554106406625,-5.8226986,-1.7435773999999997,7.038354400000001,-0.34301516,-0.034088463,-0.01917476,15.3,5.64,-4.62
1554106406645,-5.8945246,-2.2080526000000003,7.493252799999999,-0.19068234,-0.043675844000000005,-0.017044231,15.3,5.58,-4.62
1554106406664,-5.6982,-1.9734207,7.3974850000000005,-0.0031957934000000003,-0.06924219,-0.04474111,15.3,5.58,-4.62
1554106406684,-5.645528,-1.513734,7.421427,0.0,-0.056459017,-0.08522116,15.24,5.52,-4.62
1554106406705,-5.693412,-1.4514848,7.3400240000000005,-0.19281286,-0.039414786,-0.10013486,15.24,5.52,-4.68
1554106406724,-5.674258,-1.6382325,7.124545599999999,-0.30360037,-0.04474111,-0.098004326,15.24,5.52,-4.68
1554106406745,-5.717354,-2.0787656,7.0670850000000005,-0.30360037,-0.058589544,-0.08841695,15.24,5.52,-4.74
1554106406765,-5.621585400000001,-2.15538,7.2969284,-0.19813919,-0.07137272,-0.07776430000000001,15.24,5.58,-4.74
1554106406785,-5.487509999999999,-1.7531542000000002,7.512406299999999,-0.17257284,-0.07669904,-0.09161274,15.24,5.58,-4.8
1554106406805,-5.5737014,-1.5376761,7.627327999999999,-0.25246766,-0.07350325,-0.10546118,15.24,5.64,-4.8
1554106406825,-5.899312999999999,-1.4562732,7.493252799999999,-0.4250405,-0.084155895,-0.10865697,15.3,5.64,-4.86
1554106406845,-6.143522,-1.3030443,7.665635000000001,-0.6040049,-0.101200126,-0.09587380000000001,15.3,5.7,-4.86
1554106406865,-6.0525417,-1.4562732,7.785345599999999,-0.74035877,-0.11504856,-0.04261058,15.24,5.7,-4.86
1554106406885,-6.105214,-1.5807717,8.091804,-0.8522116,-0.099069595,-0.013848438000000001,15.24,5.64,-4.8
1554106406905,-6.378153299999999,-1.7100586,8.297705,-0.9108011,-0.060720075,-0.03195793,15.24,5.58,-4.8
1554106406924,-6.4643445,-1.5951369,8.364742,-0.9757822,-0.036218993,-0.05539375,15.12,5.58,-4.8
1554106406945,-6.3589997,-1.7770962,8.019978,-1.0535465,-0.020240024,-0.09267801,15.06,5.52,-4.8
1554106406964,-6.320692500000001,-2.0691888,7.5507135,-1.0578076,-0.0010652645,-0.14913702,15.0,5.52,-4.86
1554106406984,-6.129156,-2.404377,7.3831196,-1.0130665,-0.0053263223,-0.19281286,14.94,5.52,-4.92
1554106407004,-5.7843914000000005,-2.6150667999999997,7.301717,-0.86179894,-0.012783173500000002,-0.25672874,14.94,5.52,-4.92
1554106407025,-5.674258,-3.1657330000000004,7.4884644,-0.6242449999999999,-0.015978966,-0.33662358,14.94,5.58,-4.98
1554106407045,-5.45878,-3.4961330000000004,7.325659,-0.33662358,-0.026631612000000002,-0.41545314,14.94,5.64,-5.04
1554106407065,-5.3678,-3.4913447,7.043143,-0.05965481,-0.05539375,-0.49002165,14.88,5.82,-5.04
1554106407085,-5.3247046,-3.2231941,6.4541693,0.09267801,-0.08948222,-0.54435015,14.94,6.06,-5.1
1554106407105,-5.114014599999999,-3.208829,6.2482677,0.10226539,-0.13528858,-0.5752428,15.0,6.3,-5.1
1554106407125,-5.0038815,-3.3764230000000004,6.1237693,0.07030745599999999,-0.16298546,-0.5933523,15.0,6.54,-5.1
1554106407146,-4.88896,-3.8839936,6.267421700000001,0.022370555,-0.18322548,-0.6018744,15.0,6.78,-5.04
1554106407165,-4.606444000000001,-4.3676224,6.27221,-0.023435817999999997,-0.19707392,-0.6199839,15.0,7.08,-5.04
1554106407184,-4.4244847,-4.6884456,6.186018499999999,-0.03834952,-0.20240025,-0.6263755,15.0,7.38,-5.04
1554106407206,-4.247314,-4.9278655,6.0663085,-0.09054748,-0.19281286,-0.5858955,15.0,7.8,-4.98
1554106407225,-4.0940847,-5.1768627,5.846042,-0.07669904,-0.17896444,-0.5336975,15.0,8.34,-4.98
1554106407245,-4.098873,-5.3157263,5.8412538,-0.04474111,-0.165116,-0.44847634,15.0,8.94,-4.98
1554106407265,-4.223372,-5.2582655,5.716755,-0.035153727999999995,-0.1587244,-0.34194988,14.94,9.54,-4.98
1554106407286,-4.2425256,-5.2103815,5.7790045999999995,-0.098004326,-0.15552860000000002,-0.26631612,14.94,10.08,-5.04
1554106407305,-4.6016555,-5.1624975,6.229114,-0.17044231,-0.14594123,-0.20772657,14.94,10.68,-5.1
1554106407325,-4.534618,-5.0571527000000005,6.329671,-0.19600865,-0.15233281,-0.18002969,14.94,11.28,-5.16
1554106407345,-4.55856,-4.9901147,6.27221,-0.21944448,-0.15552860000000002,-0.15446335,14.94,11.76,-5.22
1554106407365,-4.31914,-5.0427876,6.4637459999999995,-0.23968449999999997,-0.16618125,-0.113983296,14.94,12.18,-5.4
1554106407386,-4.3287168,-4.8799815,6.535572,-0.17257284,-0.19600865,-0.07669904,15.0,12.42,-5.58
1554106407405,-4.1276035,-4.707599,6.4398040000000005,-0.07137272,-0.22690132,-0.047936900000000005,15.0,12.54,-5.76
1554106407425,-4.003105000000001,-4.520851,6.5738792,0.0031957934000000003,-0.27164245,-0.05006743,15.06,12.66,-5.88
1554106407444,-3.7445314,-4.425083,6.3153057,0.04261058,-0.3206446,-0.06711166,15.12,12.78,-6.0
1554106407465,-3.5769374,-4.3388919999999995,5.692813,0.07243799,-0.38456047,-0.11611383,15.12,12.96,-6.24
1554106407485,-3.4380736000000005,-4.094683600000001,5.319318,-0.018109497,-0.45167214,-0.1438107,15.18,13.14,-6.42
1554106407506,-3.5577837999999997,-4.022857,5.300164,-0.15233281,-0.5219796,-0.20453078,15.12,13.26,-6.66
1554106407524,-3.5146879999999996,-4.2957964,5.831677,-0.18002969,-0.60933125,-0.25672874,15.12,13.44,-6.84
1554106407545,-3.4955344,-4.156933,5.879561,-0.10226539,-0.6689861,-0.28442562,15.12,13.44,-6.9
1554106407565,-3.5577837999999997,-3.8456864,6.2099605,-0.051132694000000006,-0.8127968000000001,-0.33129725,15.12,13.56,-7.14
1554106407586,-3.5482068,-3.769072,6.3105173,-0.15020229,-0.9715212,-0.32597092,15.06,13.62,-7.32
1554106407605,-3.2896330000000003,-4.147355999999999,6.0184245,-0.23222765,-1.0663296999999998,-0.30146983,15.06,13.68,-7.56
1554106407625,-3.6679169999999996,-4.2814309999999995,6.3727665,-0.34834146,-1.1313108,-0.2790993,15.0,13.74,-7.92
1554106407645,-3.5194763999999994,-4.300585,7.3400240000000005,-0.50813115,-1.2484899999999999,-0.2972088,15.0,13.74,-8.52
1554106407665,-3.4093432,-4.233547,7.866748299999999,-0.6487460999999999,-1.3422332000000001,-0.29827404,14.94,13.8,-9.18
1554106407685,-3.4284968,-3.840898,7.5746554999999995,-0.93636745,-1.4476944,-0.26844665,14.88,13.98,-9.9
1554106407704,-3.2896330000000003,-4.6692919999999996,8.053496,-1.107875,-1.5531555000000001,-0.2727077,14.7,14.22,-10.68
1554106407725,-3.1076740000000003,-5.579088700000001,8.91062,-0.7882956999999999,-1.6287893,-0.28868666,14.58,14.46,-11.58
1554106407746,-2.5378537,-5.7754129999999995,9.241019999999999,-0.15552860000000002,-1.7257284,-0.31318775,14.4,14.76,-12.54
1554106407765,-1.8579005000000002,-5.263054,9.116522,0.26844665,-1.7704695,-0.330232,14.22,15.06,-13.74
1554106407785,-0.9816226999999998,-4.597466000000001,9.552266,0.37390783,-1.7449032,-0.3749731,13.92,15.36,-14.94
1554106407804,-0.81402856,-4.7219644,9.241019999999999,0.43995422,-1.7012273,-0.39840892,13.62,15.66,-16.08
1554106407825,-0.37349546,-4.875193,8.024766,0.5006742999999999,-1.6884441000000003,-0.40373522,13.26,15.96,-17.1
1554106407844,-0.21068975,-5.277419,8.398261,0.5486112,-1.6287893,-0.39947417,12.78,16.2,-18.18
1554106407865,0.30166942,-5.559935,8.752603,0.6135923000000001,-1.6085493999999998,-0.44528055,12.3,16.32,-19.26
1554106407885,1.2210428999999998,-4.908712,8.55149,0.680704,-1.5520903,-0.5028047999999999,11.76,16.44,-20.46
1554106407905,1.9728221999999997,-4.6692919999999996,8.675988,0.6135923000000001,-1.4636733999999998,-0.5496765,11.22,16.5,-21.84
1554106407925,2.0685901999999996,-4.9518075,8.407838,0.813862,-1.3528858,-0.6114618,10.68,16.62,-23.04
1554106407944,1.4413095,-4.774636699999999,7.5746554999999995,1.0812434,-1.2772521000000001,-0.6242449999999999,10.08,16.68,-24.12
1554106407964,1.6280571000000001,-4.487332299999999,7.215525,1.1174624,-1.293231,-0.5656554,9.54,16.68,-25.02
1554106407984,2.2218192,-3.8313212,7.7374616,0.8181231,-1.3049488999999999,-0.515588,8.94,16.68,-25.92
1554106408004,2.9400797,-3.7882257000000004,8.479664,0.48149952,-1.2676646999999999,-0.49747851,8.16,16.56,-26.76
1554106408025,3.7493198,-4.3676224,8.656835000000001,0.3153183,-1.1696603,-0.43675843,7.38,16.32,-27.66
1554106408044,4.003105000000001,-4.76506,8.096592,0.22050974,-1.0024139,-0.34301516,6.66,16.02,-28.74
1554106408066,3.7110126000000005,-4.664503599999999,7.866748299999999,-0.025566347000000003,-0.88949585,-0.30146983,6.0,15.72,-29.46
1554106408085,4.175488,-4.583101,8.091804,-0.43995422,-0.84688526,-0.24820662,5.34,15.42,-30.12
1554106408105,4.5872903,-5.1624975,8.6712,-0.6508765999999999,-0.74675035,-0.15978967,4.8,15.18,-30.9
1554106408125,4.6255975,-6.091448000000001,9.264961999999999,-0.46658584,-0.5656554,-0.07456851,4.26,15.0,-31.62
1554106408145,4.280833,-6.0244102,9.389461,-0.113983296,-0.43462790000000007,-0.04580637,3.78,14.88,-32.34
1554106408165,4.4819455,-5.1146135,8.766967999999999,0.053263225,-0.36325517,0.014913702,3.48,14.88,-33.0
1554106408185,4.4196963,-4.7123876,8.546700999999999,-0.08841695,-0.27377295,0.05539375,3.18,15.0,-33.48
1554106408205,4.1371803,-4.7937902999999995,8.412626,-0.32170987,-0.18535602,0.094808534,2.82,15.12,-33.72
1554106408224,4.2042184,-5.263054,8.800487,-0.43356264,-0.11717909,0.11611383,2.52,15.3,-33.9
1554106408245,4.19943,-5.3300915,9.083003,-0.3898868,-0.034088463,0.113983296,2.16,15.48,-34.02
1554106408265,3.8594532,-5.224746700000001,8.93935,-0.32277513,0.035153727999999995,0.10013486,1.86,15.54,-34.08
1554106408284,3.6870705999999998,-4.918288700000001,9.09258,-0.34727620000000003,0.10546118,0.15339808,1.62,15.6,-34.2
1554106408305,3.4045547999999997,-4.7219644,9.097368,-0.39095205,0.16192019,0.21411815,1.38,15.6,-34.32
1554106408325,3.4237084,-4.956596,9.21229,-0.4708469,0.18322548,0.27377295,1.26,15.72,-34.5
1554106408348,3.7253778,-4.875193,9.236232000000001,-0.55287224,0.25353295,0.32170987,1.2,15.84,-34.62
1554106408364,3.7541082,-5.0236335,9.226655000000001,-0.6498113,0.34621096,0.33555830000000003,1.2,15.9,-34.68
1554106408385,3.7110126000000005,-5.2726307,8.479664,-0.9044095,0.53795856,0.3898868,1.2,16.08,-34.68
1554106408405,3.6104562000000007,-5.4593782,7.756614999999999,-1.1632688,0.7126619000000001,0.44741106,1.26,16.26,-34.5
1554106408425,3.5386300000000004,-5.6844335,7.3065050000000005,-1.4082796999999998,0.8362325999999999,0.47404268,1.26,16.32,-34.38
1554106408444,3.2034418999999996,-6.7905545,7.1915830000000005,-1.8823223000000002,0.99708754,0.5603291,1.5,16.74,-33.78
1554106408464,2.8443117,-7.3699512,7.1341224,-1.881257,1.1014834999999998,0.6508765999999999,1.68,17.28,-33.24
1554106408485,2.5905263,-7.417835,6.616975,-1.6266588,1.180313,0.72011876,1.98,18.12,-32.58
1554106408504,2.1691467999999996,-6.8719573,5.8651957999999995,-1.4210628,1.1994878,0.7488809000000001,2.34,19.02,-31.86
1554106408525,2.0685901999999996,-6.5655,5.486912,-1.3773868999999999,1.1835088,0.7850999,2.82,19.8,-30.84
1554106408545,1.9728221999999997,-6.3165026,5.453393,-1.3933659,1.1653993,0.8117314999999999,3.06,20.22,-30.24
1554106408565,1.7717092,-6.3883285999999995,4.68246,-1.4231933,1.1142666,0.8479504999999999,4.2,21.48,-28.8
1554106408585,1.292869,-6.6612678,4.0934862999999995,-1.3848438,1.1004181999999998,0.8341021000000001,4.98,22.32,-27.78
1554106408604,0.91937345,-6.699575,3.6433763999999997,-1.3763216999999999,1.0588728,0.7669904000000001,5.7,22.98,-26.82
1554106408626,0.91458505,-6.848015299999999,3.1836896,-1.417867,0.9534117,0.6508765999999999,6.36,23.46,-25.8
1554106408645,0.80924016,-6.8623804999999996,3.1884782000000005,-1.4274544,0.9108011,0.57098174,7.02,23.64,-24.6
1554106408664,0.33518824,-6.699575,3.3369186,-1.361408,0.8724516,0.45912898,7.56,23.76,-23.34
1554106408685,-0.90021986,-7.2981253,3.7726634,-1.2484899999999999,0.86179894,0.33555830000000003,8.04,23.88,-22.32
1554106408704,-1.4317327,-7.9828672,3.3560722000000003,-1.0844392,0.7882956999999999,0.22264028,8.46,23.94,-21.42
1554106408725,-1.4269443000000002,-8.30369,2.9442697,-1.0482203,0.71798825,0.08735169,8.76,24.06,-20.46
1554106408744,-1.6711528000000002,-8.4664955,2.4271219,-1.2282499,0.65513766,-0.056459017,9.06,24.12,-19.38
1554106408765,-2.2649147999999997,-8.883087,3.1836896,-1.5403723999999999,0.6146576,-0.128897,9.36,24.18,-18.24
1554106408785,-3.323152,-9.44333,4.577115,-1.5137408,0.58483016,-0.17896444,9.66,24.24,-17.16
1554106408805,-3.7110126000000005,-9.735422999999999,4.830900700000001,-1.1345067,0.5539375,-0.16085494,9.96,24.36,-16.26
1554106408824,-3.9073372,-9.601347,4.9458222,-0.8042746999999999,0.5773733,-0.07989483,10.26,24.54,-15.42
1554106408847,-3.98874,-9.337985,4.160524,-0.5858955,0.60507023,-0.07456851,10.5,24.9,-14.58
1554106408867,-3.8690300000000004,-9.261371,3.767875,-0.47297743,0.59761333,-0.054328485999999995,10.68,25.26,-13.8
1554106408885,-3.8402996,-9.1033535,3.3704373999999997,-0.3685815,0.57098174,-0.0010652645,10.8,25.62,-13.08
1554106408905,-3.5386300000000004,-8.897452000000001,3.6577415,-0.35473305,0.5091964,0.06711166,10.92,25.98,-12.36
1554106408925,-3.1890767,-9.328408,4.0264487,-0.36432046,0.44634579999999996,0.13741912,10.98,26.34,-11.7
1554106408945,-2.5953147,-9.831191,4.2754455,-0.34301516,0.39734364,0.21092236,11.04,26.7,-11.04
1554106408965,-2.3942018,-9.979631,4.2945995,-0.18748654,0.40906155,0.27803403,11.1,26.94,-10.38
1554106408984,-2.5330652999999996,-9.6923275,3.6242227999999996,0.01917476,0.45806372,0.33449304,11.1,27.18,-9.78
1554106409005,-2.4181437000000003,-9.256582,3.1836896,0.10013486,0.45806372,0.38882150000000004,11.16,27.18,-9.24
1554106409024,-2.3511062000000003,-9.337985,2.8149827000000003,0.09587380000000001,0.41758367,0.40906155,11.16,27.18,-8.7
1554106409045,-2.2122424,-9.237428999999999,3.2363622000000003,0.10759171,0.39414784,0.42290998,11.22,27.12,-8.22
1554106409065,-2.2505496,-9.069835000000001,3.2650926,0.12463594,0.38775626,0.44101948,11.28,26.94,-7.86
1554106409085,-2.1978772,-8.854357,2.867655,0.113983296,0.38456047,0.43356264,11.34,26.46,-7.62
1554106409105,-2.255338,-8.796896,2.4271219,0.011717908999999999,0.35153726,0.4101268,11.52,26.1,-7.5
1554106409125,-2.2649147999999997,-9.160814,2.4702177000000005,0.00958738,0.3206446,0.39308259999999995,11.7,25.74,-7.32
1554106409145,-2.3127987,-9.223063,2.3888147,0.13741912,0.28655612,0.37816888,11.94,25.38,-7.2
1554106409164,-2.480393,-9.026739,2.2930467,0.21518342,0.25246766,0.38775626,12.0,25.2,-7.14
1554106409185,-2.6623523,-8.96449,2.5372553,0.15765914,0.18642128,0.4250405,12.3,24.72,-6.9
1554106409205,-2.8874072999999996,-8.983644,2.8820202,0.008522116,0.13315806,0.46232477,12.42,24.3,-6.72
1554106409225,-3.0502129,-9.160814,2.5611973,-0.16618125,0.08841695,0.51665324,12.54,24.0,-6.6
1554106409244,-3.3901896000000002,-9.333197,2.4702177000000005,-0.35153726,0.053263225,0.5784385999999999,12.72,23.64,-6.42
1554106409265,-3.643975,-9.697116000000001,2.5899277,-0.4644553,-0.012783173500000002,0.65726817,12.72,23.28,-6.24
1554106409284,-3.8642415999999997,-9.955689,2.9107506,-0.40373522,-0.05752428,0.7552725,12.72,22.86,-6.18
1554106409305,-4.261679,-9.663596,3.1453824,-0.26418558,-0.10226539,0.8745821,12.72,22.32,-6.12
1554106409324,-4.4915223,-9.304466,2.9011737999999996,-0.20559604,-0.14913702,1.0173275,12.78,21.66,-6.0
1554106409345,-4.7788267,-9.366715,2.9107506,-0.2545982,-0.19813919,1.144094,12.84,20.88,-5.88
1554106409365,-5.243302,-9.017161999999999,2.508525,-0.30253512,-0.23222765,1.2367721,12.9,19.98,-5.82
1554106409385,-5.521029,-8.504802999999999,2.4223334999999997,-0.47936899999999993,-0.2972088,1.3358417,12.96,19.08,-5.76
1554106409405,-5.5545480000000005,-8.461707,2.4271219,-0.7669904000000001,-0.41225734,1.4274544,13.02,18.0,-5.7
1554106409425,-5.329493,-8.380303999999999,2.9107506,-0.93849796,-0.5113269,1.4945661,13.14,16.86,-5.7
1554106409445,-5.343858200000001,-8.519167999999999,2.8532897999999998,-0.9267801,-0.5763081,1.5755261,13.26,15.48,-5.7
1554106409465,-5.8226986,-8.246229,2.1254525,-0.8404937,-0.5944176,1.6692694,13.44,14.04,-5.82
1554106409485,-6.3350577,-7.958925,1.4742297,-0.9267801,-0.65194184,1.6863136000000003,13.56,12.48,-6.06
1554106409505,-6.603208,-7.997232400000001,1.1534066,-0.9768475000000001,-0.75633776,1.6863136000000003,13.74,10.8,-6.3
1554106409525,-6.493075,-7.623736999999999,1.311424,-0.87777793,-0.86606,1.7054884,13.86,9.12,-6.66
1554106409545,-6.38773,-7.341221000000001,1.584363,-0.7350325,-0.9044095,1.7310548,13.92,7.32,-7.2
1554106409565,-6.6079965,-7.015609700000001,1.977012,-0.71159667,-0.89801794,1.7097494999999998,13.98,5.34,-7.8
1554106409584,-6.7277070000000005,-6.977302000000001,1.8956091,-0.6828345,-0.91825795,1.6607473000000001,14.04,3.42,-8.58
1554106409604,-6.6750345,-6.824073299999999,1.9626468000000001,-0.53476274,-0.94488955,1.6415724999999999,14.1,1.56,-9.48
1554106409624,-6.655881,-6.3979053,1.5699978,-0.36432046,-0.9438243000000001,1.6373115,14.1,-0.36,-10.2
1554106409644,-6.895301,-5.899911400000001,1.3784616000000003,-0.2972088,-0.93636745,1.5851135,14.1,-2.28,-10.92
1554106409665,-7.1969705,-5.579088700000001,1.1629834,-0.33555830000000003,-0.93423694,1.4839133999999998,14.1,-4.14,-11.64
1554106409684,-7.192182000000001,-5.325303,2.1015105,-0.32597092,-0.9150621999999999,1.4040185,13.98,-5.94,-12.3
1554106409705,-7.101202000000001,-5.248688700000001,2.3026235,-0.18855181,-0.89162636,1.3369069,13.86,-7.5,-13.08
1554106409725,-7.1586633,-4.611831,1.9865887999999998,-0.098004326,-0.8852348,1.2772521000000001,13.68,-9.0,-13.86
1554106409744,-7.1730285,-4.420294999999999,1.809418,-0.15126756,-0.87032104,1.216532,13.38,-10.5,-14.64
1554106409765,-6.9527617,-4.5687356,1.809418,-0.3206446,-0.88949585,1.107875,13.02,-12.06,-15.3
1554106409785,-6.871359,-4.6932339999999995,2.297835,-0.37923414,-0.86179894,0.9960223,12.6,-13.56,-16.14
1554106409805,-6.7133417,-4.377199,2.6042929,-0.22690132,-0.8000136,0.91186637,12.12,-15.0,-17.1
1554106409825,-6.732495299999999,-4.252701,2.5851393,-0.13741912,-0.7552725,0.8404937,11.52,-16.38,-18.0
1554106409846,-6.679823,-4.3197384,2.4797945,-0.03834952,-0.70627034,0.7499462,10.98,-17.64,-18.96
1554106409865,-7.0581064,-4.348469000000001,2.6521769,0.054328485999999995,-0.63915867,0.6689861,10.5,-18.9,-19.68
1554106409885,-6.8330517,-4.156933,2.441487,0.040480047000000005,-0.59122175,0.6103965,10.02,-20.04,-20.4
1554106409905,-6.732495299999999,-4.2383356,2.7000610000000003,-0.094808534,-0.56245965,0.5475459,9.6,-21.12,-20.94
1554106409925,-6.9719152,-4.19524,3.164536,-0.13954964,-0.5006742999999999,0.5134575,9.18,-22.32,-21.66
1554106409945,-7.1586633,-4.0803185,2.9203273999999997,-0.0053263223,-0.42184472,0.49534798,8.94,-22.98,-22.02
1554106409965,-7.3166804,-3.888782,2.8389246,0.05219796,-0.39414784,0.47510794,8.7,-23.64,-22.38
1554106409984,-7.326257000000001,-3.520075,2.9203273999999997,0.05219796,-0.38242993,0.43036684,8.46,-24.24,-22.68
1554106410004,-7.134721300000001,-3.5775358999999995,2.690484,-0.09161274,-0.35899413,0.37710363,8.22,-24.54,-22.86
1554106410025,-7.383717999999999,-3.4578260000000003,3.2986114,-0.30146983,-0.30040458,0.28336033,7.68,-25.38,-23.34
1554106410045,-7.565677,-3.6541502,3.4087446000000003,-0.36325517,-0.26205507,0.24820662,7.26,-25.98,-23.76
1554106410065,-7.5800424,-3.5679589999999997,3.4614172,-0.29507825,-0.24927188,0.19600865,6.84,-26.58,-24.12
1554106410085,-7.4699089999999995,-3.6780925000000004,3.6098576,-0.15978967,-0.22264028,0.14168017,6.36,-27.06,-24.54
1554106410105,-7.5082164,-3.7355532999999994,3.4805707999999997,-0.08522116,-0.18535602,0.082025364,6.0,-27.48,-24.9
1554106410125,-7.7907324000000004,-3.8121676,3.3464954,-0.12570119999999999,-0.12570119999999999,0.05752428,5.58,-27.72,-25.26
1554106410144,-7.8673470000000005,-3.9270894999999997,3.447052,-0.27803403,-0.09267801,0.043675844000000005,5.34,-27.96,-25.5
1554106410165,-7.833828,-4.223970400000001,3.7199910000000003,-0.39414784,-0.07563378,0.024501082,5.22,-28.14,-25.74
1554106410185,-7.776367,-4.549582,3.6673183,-0.32170987,-0.06498113,0.024501082,5.1,-28.26,-25.92
1554106410206,-8.0684595,-4.7985787,3.7582982000000005,-0.06391586,-0.06391586,0.025566347000000003,5.04,-28.32,-26.04
1554106410225,-8.111555000000001,-4.329315,3.6864722000000003,0.22050974,-0.05965481,0.025566347000000003,5.04,-28.32,-26.1
1554106410245,-7.920019,-3.9318779000000004,3.6673183,0.33875409999999995,-0.056459017,0.004261058,5.04,-28.32,-26.22
1554106410265,-7.833828,-4.0276456,3.9354692000000004,0.3717773,-0.049002163,-0.027696876000000002,5.04,-28.32,-26.34
1554106410285,-7.97748,-4.1665095999999995,3.9689879999999995,0.42930159999999995,-0.026631612000000002,-0.024501082,4.98,-28.32,-26.46
1554106410305,-8.054094000000001,-3.9510313999999997,3.8827964999999995,0.47617322,-0.002130529,-0.010652645,4.92,-28.38,-26.58
1554106410325,-8.0684595,-4.171298,4.016872,0.5816344,-0.02130529,-0.04261058,4.92,-28.38,-26.7
1554106410345,-7.963114699999999,-3.9558197999999996,4.308964700000001,0.7978831000000001,-0.036218993,-0.04580637,4.8,-28.44,-26.82
1554106410365,-7.824250999999999,-3.5631707,4.4382515,1.026915,-0.008522116,-0.04474111,4.68,-28.5,-26.76
1554106410385,-7.9822683,-3.0556,4.2275615,1.0205233,0.040480047000000005,-0.082025364,4.56,-28.5,-26.64
1554106410405,-8.202535000000001,-2.9550436,4.064756,0.87990844,0.05965481,-0.12783173,4.44,-28.56,-26.52
1554106410425,-8.1402855,-3.2950199999999996,4.2754455,0.75420725,0.036218993,-0.13954964,4.32,-28.68,-26.28
1554106410444,-7.9248075,-3.3716345000000003,4.361637,0.82877576,0.025566347000000003,-0.13635385,4.26,-28.86,-25.92
1554106410465,-7.891288799999999,-2.9502552000000004,4.433463,0.95234644,0.03834952,-0.14061491,4.26,-29.16,-25.62
1554106410484,-8.145074000000001,-2.677316,4.1222167,0.94275904,0.046871635999999994,-0.15339808,4.26,-29.58,-25.2
1554106410504,-7.97748,-2.4570496,4.308964700000001,0.8383630999999999,0.04474111,-0.19068234,4.32,-30.0,-24.84
1554106410525,-8.0445175,-2.4714148,4.2850223,0.73290193,0.036218993,-0.20879184,4.38,-30.48,-24.54
1554106410545,-8.039729,-2.5145104,4.68246,0.62104917,0.033023197000000004,-0.22050974,4.44,-30.96,-24.3
1554106410565,-8.1163435,-2.5959132,4.347272,0.49108690000000005,0.02876214,-0.22583607,4.5,-31.38,-24.0
1554106410585,-8.159439,-2.6868927000000005,4.4861355000000005,0.3717773,0.03834952,-0.21837921,4.56,-31.8,-23.64
1554106410604,-8.197746,-2.7778726000000002,4.4526167,0.28975195,0.027696876000000002,-0.20559604,4.62,-32.16,-23.34
1554106410625,-8.212111,-2.9550436,4.5340195,0.25885928,0.029827405,-0.18855181,4.68,-32.34,-23.1
1554106410645,-8.101977999999999,-3.0556,4.735132,0.34088463,0.022370555,-0.16724652,4.74,-32.52,-22.8
1554106410665,-7.991845,-2.9311013,4.601057,0.47617322,0.023435817999999997,-0.1587244,4.8,-32.58,-22.5
1554106410685,-8.073248,-2.806603,4.6154222,0.5699165,0.025566347000000003,-0.14807177,4.86,-32.64,-22.26
1554106410705,-7.9822683,-2.8257565,4.481347,0.6508765999999999,0.0010652645,-0.13848437,4.98,-32.7,-22.08
1554106410725,-8.010999,-2.9071592999999996,4.4861355000000005,0.7254451,-0.011717908999999999,-0.11930962,5.1,-32.76,-21.78
1554106410745,-7.996633500000001,-2.9071592999999996,4.601057,0.81918836,-0.013848438000000001,-0.10972224,5.16,-32.82,-21.54
1554106410765,-7.97748,-2.6868927000000005,4.624999,0.8809737,-0.004261058,-0.10972224,5.28,-32.88,-21.3
1554106410784,-7.9583262999999995,-2.4809916000000003,4.624999,0.8522116,-0.0010652645,-0.10333065,5.34,-32.88,-21.12
1554106410805,-8.006210000000001,-2.4283189999999997,4.8500543,0.6945524000000001,-0.007456851,-0.10546118,5.46,-33.0,-20.76
1554106410825,-7.9104424,-2.4091654,4.7016134,0.5635249,-0.012783173500000002,-0.10226539,5.52,-33.12,-20.34
1554106410845,-7.953538000000001,-2.2415714,4.835689,0.44208476,-0.010652645,-0.09161274,5.52,-33.18,-19.92
1554106410865,-8.015787,-2.2703017999999995,4.907515,0.32490566,-0.0031957934000000003,-0.07669904,5.58,-33.24,-19.56
1554106410884,-7.852981599999999,-2.2655133999999997,4.9745526,0.18002969,-0.0031957934000000003,-0.06711166,5.64,-33.36,-19.2
1554106410905,-7.920019,-2.3277626000000002,5.0846860000000005,0.043675844000000005,-0.0063915867,-0.06924219,5.64,-33.48,-18.9
1554106410924,-7.8673470000000005,-2.5384523999999997,5.2474914,-0.010652645,-0.0053263223,-0.06285059999999999,5.7,-33.54,-18.54
1554106410945,-7.8290396,-2.4139538,5.257068,0.012783173500000002,0.002130529,-0.05006743,5.76,-33.6,-18.24
1554106410965,-7.8577699999999995,-2.5240872000000003,5.089474,0.034088463,0.018109497,-0.04580637,5.76,-33.66,-18.06
1554106410985,-7.9008656,-2.5384523999999997,5.027225,0.05965481,0.023435817999999997,-0.054328485999999995,5.76,-33.72,-18.06
1554106411006,-8.049306,-2.6102784,4.9984946,0.11930962,0.036218993,-0.049002163,5.82,-33.78,-18.06
1554106411025,-8.039729,-2.5576060000000003,4.955399,0.19813919,0.04580637,-0.04580637,5.76,-33.78,-18.12
1554106411044,-8.049306,-2.3469162,4.89315,0.24181503,0.047936900000000005,-0.06178534,5.76,-33.84,-18.12
1554106411065,-8.030152000000001,-2.308609,4.8165355000000005,0.1949434,0.046871635999999994,-0.07030745599999999,5.76,-33.84,-18.18
1554106411085,-8.010999,-2.2942438,4.7925935,0.10226539,0.03834952,-0.07137272,5.7,-33.84,-18.18
1554106411104,-8.039729,-2.4378957999999997,4.586692,0.058589544,0.02130529,-0.07030745599999999,5.7,-33.9,-18.12
1554106411125,-8.106767,-2.4426842,4.7878050000000005,0.046871635999999994,0.0053263223,-0.04580637,5.7,-33.96,-18.0
1554106411144,-8.006210000000001,-2.2798786,4.9745526,0.084155895,-0.00958738,-0.022370555,5.64,-33.96,-17.88
1554106411165,-7.987056699999999,-2.3660697999999996,4.9218802,0.14061491,-0.023435817999999997,-0.026631612000000002,5.64,-34.02,-17.76
1554106411184,-7.905653999999999,-2.2655133999999997,4.9218802,0.15552860000000002,-0.023435817999999997,-0.033023197000000004,5.58,-34.08,-17.64
1554106411205,-7.991845,-2.4283189999999997,5.003283000000001,0.17044231,-0.022370555,-0.034088463,5.52,-34.2,-17.52
1554106411225,-7.953538000000001,-2.2798786,4.931457,0.21092236,-0.023435817999999997,-0.037284255,5.52,-34.26,-17.4
1554106411245,-7.943961,-2.1984756,4.7925935,0.17470337,-0.029827405,-0.03834952,5.46,-34.38,-17.34
1554106411265,-7.929596000000001,-2.2319946,4.869208,0.13954964,-0.03195793,-0.034088463,5.46,-34.38,-17.28
1554106411285,-7.929596000000001,-2.236783,4.907515,0.14913702,-0.036218993,-0.03089267,5.4,-34.44,-17.28
1554106411305,-7.967903,-1.9925743000000002,5.060744000000001,0.14274544,-0.039414786,-0.036218993,5.46,-34.44,-17.22
1554106411324,-7.8865004,-1.9686323000000001,5.0559554,0.10865697,-0.041545313,-0.05965481,5.52,-34.44,-17.16
1554106411345,-7.9104424,-2.0739772000000003,5.0559554,0.06285059999999999,-0.035153727999999995,-0.06178534,5.58,-34.38,-17.1
1554106411365,-7.9391727,-2.179322,5.003283000000001,0.06285059999999999,-0.037284255,-0.037284255,5.64,-34.32,-17.04
1554106411385,-8.054094000000001,-2.0883423999999997,4.7542860000000005,0.08522116,-0.03195793,-0.024501082,5.7,-34.32,-16.98
1554106411406,-8.015787,-1.9303252,5.0080714,0.082025364,-0.027696876000000002,-0.017044231,5.76,-34.26,-16.92
1554106411424,-7.8577699999999995,-1.9925743000000002,4.869208,0.07563378,-0.024501082,-0.012783173500000002,5.88,-34.26,-16.92
1554106411444,-8.006210000000001,-2.0260932,5.075108999999999,0.04261058,-0.0031957934000000003,-0.010652645,5.94,-34.2,-16.92
1554106411465,-8.173803999999999,-2.0260932,4.89315,0.010652645,0.012783173500000002,-0.0063915867,5.94,-34.2,-16.92
1554106411485,-8.149861999999999,-1.9829974999999997,4.859630999999999,-0.00958738,0.00958738,0.0053263223,5.94,-34.26,-16.86
1554106411505,-7.9008656,-2.0787656,4.859630999999999,-0.025566347000000003,-0.013848438000000001,0.013848438000000001,5.94,-34.26,-16.86
1554106411525,-7.843405000000001,-1.9446903000000002,4.955399,-0.03834952,-0.017044231,0.013848438000000001,5.88,-34.38,-16.86
1554106411544,-7.824250999999999,-1.9829974999999997,4.9506106,-0.029827405,-0.020240024,0.011717908999999999,5.82,-34.38,-16.8
1554106411564,-7.9008656,-1.7866731,4.926668599999999,-0.024501082,-0.015978966,0.008522116,5.7,-34.44,-16.8
1554106411584,-8.030152000000001,-1.6909049999999999,4.8979383,-0.056459017,-0.02130529,0.002130529,5.64,-34.5,-16.8
1554106411605,-7.881711999999999,-1.5855601000000001,4.969764,-0.10546118,-0.037284255,-0.008522116,5.58,-34.56,-16.74
1554106411625,-7.632714999999999,-1.5376761,5.0080714,-0.1768339,-0.026631612000000002,-0.018109497,5.46,-34.56,-16.68
1554106411645,-7.699753,-1.5472529,5.0463786,-0.31638354,0.010652645,-0.037284255,5.4,-34.62,-16.68
1554106411665,-7.747636999999999,-1.6334441000000002,5.099051,-0.42077947,0.047936900000000005,-0.07456851,5.4,-34.62,-16.62
1554106411685,-7.642291999999999,-1.6334441000000002,4.821324,-0.49854377,0.07989483,-0.10226539,5.34,-34.56,-16.62
1554106411705,-7.8146744,-1.738789,4.6154222,-0.5251754,0.096939065,-0.13315806,5.34,-34.56,-16.56
1554106411724,-7.5704656,-1.6717514,4.624999,-0.4825648,0.10865697,-0.17896444,5.34,-34.5,-16.56
1554106411744,-7.302314999999999,-1.6334441000000002,4.6633059999999995,-0.39095205,0.12676647,-0.24820662,5.34,-34.5,-16.62
1554106411765,-7.029375999999999,-1.192911,4.5723267,-0.41438788,0.17470337,-0.36645097,5.34,-34.38,-16.68
1554106411786,-6.924031299999999,-0.7284359,4.3424835,-0.48469532,0.22477080000000002,-0.5933523,5.4,-34.2,-16.92
1554106411805,-6.50744,-1.0444705,3.8349125,-0.5816344,0.23861924,-0.7105314,5.4,-34.2,-16.98
1554106411824,-6.3829417,-1.2791021999999999,3.566762,-0.6988135,0.24820662,-0.92997587,5.52,-34.02,-17.16
1554106411845,-6.2105594,-1.3605051000000001,3.3752258,-0.74248934,0.25353295,-1.1590078000000001,5.64,-33.78,-17.28
1554106411866,-5.841851999999999,-1.4036007,3.2267854,-0.84155893,0.25353295,-1.4050837999999999,5.7,-33.24,-17.4
1554106411885,-5.142745,-1.7914615000000003,3.0974984,-0.9331716999999998,0.26205507,-1.6767261999999998,5.88,-32.52,-17.52
1554106411905,-5.133168,-2.5528176,3.365649,-0.97258645,0.29294774,-1.8865832999999999,6.0,-32.16,-17.58
1554106411924,-5.386954,-2.8736405,3.566762,-0.8990832000000001,0.38775626,-2.2242723,6.84,-30.54,-17.58
1554106411945,-5.434838,-3.0460230999999998,3.1884782000000005,-0.8213189000000001,0.42930159999999995,-2.4437168,7.44,-28.92,-17.64
1554106411965,-4.9943047,-3.3045970000000002,2.7575218999999995,-0.809601,0.44528055,-2.6269422000000002,7.98,-27.0,-17.64
1554106411984,-4.3718123,-3.8839936,2.3505075,-0.8266452,0.43356264,-2.8336034,8.58,-24.9,-17.64
1554106412006,-3.6104562000000007,-4.7219644,1.5795746000000002,-0.9321064,0.43356264,-3.093528,9.18,-22.5,-17.64
1554106412025,-3.7732617999999993,-5.172074299999999,1.8668787,-1.1856394,0.49321744,-3.2394693,9.9,-19.92,-17.64
1554106412045,-3.8833952000000003,-5.880758,2.0679917000000003,-1.5148059999999999,0.52624065,-3.4120421000000003,10.56,-17.04,-17.58
1554106412065,-2.72939,-7.1448965,2.1924900000000003,-1.5712651000000002,0.49428272,-3.491937,11.16,-13.8,-17.46
1554106412084,-1.292869,-8.519167999999999,1.857302,-1.2261194,0.5230448000000001,-3.46424,11.58,-10.26,-17.16
1554106412106,-0.9959879,-8.921394,1.2635399,-0.608266,0.65194184,-3.4706316,12.0,-6.72,-16.8
1554106412124,-1.5466543,-8.002021000000001,0.45908818,-0.6562029,0.716923,-3.5878108,12.42,-3.06,-16.32
1554106412144,-1.1013328000000002,-8.236652000000001,0.29149407,-1.0897655000000002,0.62531024,-3.6666402999999996,12.78,0.84,-15.78
1554106412164,0.58897364,-9.606135,1.6178818000000001,-1.5020228999999998,0.53476274,-3.7039244,13.14,4.74,-15.06
1554106412184,1.2641385,-10.6117,1.4311341,-1.0663296999999998,0.53263223,-3.7667751000000003,13.38,8.76,-14.28
1554106412205,2.0685901999999996,-10.630854,0.3776853,-0.20453078,0.5763081,-3.8029940000000004,13.38,12.66,-13.38
1554106412226,2.8634652999999997,-10.391434,-0.53689975,-0.21092236,0.4708469,-3.8392131000000003,12.96,16.44,-12.42
1554106412245,3.7014358,-10.242992999999998,-0.41240123,-0.6402239000000001,0.33662358,-3.8562574,12.18,19.98,-11.58
1554106412265,4.31914,-10.061034,0.05686229,-0.79255676,0.25246766,-3.8477352,11.28,23.52,-10.86
1554106412285,4.855441000000001,-9.792883999999999,0.52133745,-0.68816084,0.21624869,-3.781689,10.2,26.94,-10.14
1554106412304,5.7843914000000005,-9.840767999999999,-0.57999533,-0.72437984,0.21198763,-3.7657099,9.0,30.12,-9.54
1554106412324,6.6989765,-9.405023,-0.56084174,-1.139833,0.24607609,-3.7934067000000002,7.56,33.3,-9.06
1554106412345,7.029375999999999,-9.419388,-1.1785458,-1.3859091000000001,0.2609898,-3.875432,5.88,36.12,-8.58
1554106412364,7.656657000000001,-9.567828,-0.86729956,-1.3741912,0.30679616,-3.8903458,3.96,38.94,-8.22
1554106412385,8.461109,-9.606135,-1.0348936,-1.2314457,0.3536678,-3.8637142,2.04,41.46,-7.74
1554106412404,9.165004,-8.998009,-0.9487024,-1.1217233999999998,0.43995422,-3.8125815000000003,0.18,43.74,-7.14
1554106412425,9.490616000000001,-8.4425535,-1.5233108,-1.0929613,0.49215218,-3.7710361000000003,-1.98,45.6,-6.48
1554106412445,9.801862,-8.078635,-1.6095021,-1.2879047,0.46339005,-3.7337519999999995,-4.38,47.1,-5.7
1554106412467,10.299856,-7.887099,-1.6669630000000002,-1.4168017,0.41545314,-3.7167077000000006,-7.02,48.48,-4.8
1554106412484,10.850522,-7.820061,-1.3700819,-1.2964269,0.37816888,-3.6730318,-9.72,49.62,-3.9
1554106412505,11.401189,-7.8104844,-0.7715314999999999,-0.68176925,0.38882150000000004,-3.6144422999999994,-13.62,50.7,-2.34
1554106412525,11.573571000000001,-7.116166000000001,-0.6901286,-0.10013486,0.41545314,-3.5228295,-16.2,50.94,-1.38
1554106412546,11.473015,-6.713939999999999,-0.8146270999999999,0.34834146,0.38882150000000004,-3.3726273,-18.84,51.06,-0.66
1554106412564,11.420342,-6.311714,-0.7954735,0.58909124,0.34940675,-3.1968586,-20.04,51.06,-0.36
1554106412585,11.128249,-5.7418942,-1.3461398999999998,0.7190535,0.26418558,-2.8932583,-22.44,50.64,0.18
1554106412605,10.577583,-4.8225207,-0.96785605,0.5571333,0.09587380000000001,-2.4341292,-25.8,49.5,0.66
1554106412625,10.472239,-4.678869000000001,-0.6326678000000001,0.41864893,0.004261058,-2.0975057999999995,-26.82,49.02,0.72
1554106412645,10.0748005,-4.094683600000001,-0.0053869537,0.42077947,-0.10333065,-1.4647386,-29.52,47.28,0.54
1554106412664,10.026916499999999,-4.123414,-0.18255788,0.45273739999999996,-0.15020229,-1.0695255,-30.36,46.68,0.36
1554106412684,10.093954,-3.888782,-0.36930559999999996,0.3898868,-0.21731395,-0.63915867,-31.8,45.48,-0.06
1554106412705,9.9550905,-3.816956,-0.3453636,0.23009712,-0.23648871,-0.26205507,-33.72,43.68,-0.9
1554106412725,9.797073,-3.9079356,-0.27832595,0.15765914,-0.20026971,-0.033023197000000004,-34.8,42.72,-1.44
1554106412745,9.844957,-3.7738605000000005,-0.27832595,0.15233281,-0.13741912,0.113983296,-35.64,42.0,-1.98
1554106412765,9.950302,-3.7020345,-0.350152,0.19281286,-0.06391586,0.19174760000000002,-36.18,41.58,-2.52
1554106412785,9.921572,-3.3620577000000003,-0.31663316,0.21944448,0.020240024,0.23968449999999997,-36.66,41.34,-2.88
1554106412806,9.696517,-3.4051532999999994,-0.3597288,0.18642128,0.11930962,0.25140239999999997,-37.02,41.1,-3.12
1554106412824,9.232041,-3.2902317,-0.43634325,0.12783173,0.19813919,0.25672874,-37.32,40.98,-3.3
1554106412845,9.11712,-3.0460230999999998,-0.42676646,0.058589544,0.25140239999999997,0.25672874,-37.5,40.92,-3.42
1554106412865,9.069236,-3.0125043,-0.25917232,-0.033023197000000004,0.28016454,0.2727077,-37.56,40.92,-3.42
1554106412886,9.188946000000001,-3.031658,-0.3309984,-0.13315806,0.31638354,0.30786142,-37.56,40.98,-3.48
1554106412906,9.232041,-3.007716,-0.42197806,-0.19281286,0.33449304,0.32170987,-37.5,41.04,-3.54
1554106412925,9.313444,-2.9502552000000004,-0.32621,-0.23222765,0.34408042,0.3174488,-37.5,41.16,-3.54
1554106412944,9.442732000000001,-3.0172927000000005,-0.36930559999999996,-0.25992453,0.3568636,0.32384038,-37.32,41.22,-3.54
1554106412964,9.610325999999999,-2.9741971,-0.4890157,-0.26631612,0.3749731,0.32490566,-37.2,41.46,-3.54
1554106412984,9.739613,-2.8640637000000004,-0.57520694,-0.28016454,0.38242993,0.31318775,-37.02,41.64,-3.54
1554106413005,9.830592,-2.8832173,-0.46028528,-0.33449304,0.4133226,0.294013,-36.84,41.82,-3.54
1554106413025,9.595961,-2.8736405,-0.30226797,-0.3653857,0.45060685,0.27590349999999997,-36.66,42.0,-3.54
1554106413045,9.241617999999999,-2.7635074,-0.47465047,-0.386691,0.4825648,0.27696875,-36.48,42.18,-3.54
1554106413065,9.184157,-2.7587189999999997,-0.374094,-0.43356264,0.49002165,0.29933932,-36.3,42.36,-3.54
1554106413085,9.500193,-2.8832173,-0.26874915,-0.48682585,0.45912898,0.33129725,-36.06,42.54,-3.54
1554106413104,9.940725,-2.8496985,0.09516951400000001,-0.46339005,0.46019423,0.37390783,-35.88,42.72,-3.48
1554106413125,10.625467,-2.8113914,0.13826515,-0.39734364,0.45912898,0.406931,-35.76,42.84,-3.42
1554106413144,11.238382000000001,-2.6868927000000005,0.15263036,-0.3536678,0.5028047999999999,0.41225734,-35.52,42.96,-3.36
1554106413164,11.841722,-2.7539306,-0.41718966,-0.37816888,0.58056915,0.37710363,-35.34,43.14,-3.3
1554106413186,11.7268,-2.629432,-0.05805939,-0.5091964,0.63702816,0.27696875,-35.16,43.38,-3.24
1554106413204,10.486604,-2.5576060000000003,0.66020113,-0.660464,0.72011876,0.17150758,-35.04,43.56,-3.18
1554106413225,9.040505,-2.212841,1.0480618,-0.7595335999999999,0.83942837,0.17150758,-34.86,43.74,-3.06
1554106413245,7.5321584,-1.7196354,1.311424,-0.9193232,0.87564737,0.24501082,-34.74,43.92,-2.88
1554106413264,6.861782000000001,-1.6286557,1.7232267,-1.1867046,0.77870834,0.34940675,-34.68,44.1,-2.64
1554106413285,7.1490865,-1.6286557,2.7431567,-1.4199976,0.60933125,0.5049353,-34.5,44.22,-2.16
1554106413305,8.010999,-2.0739772000000003,2.7527334999999997,-1.4551512,0.47191215,0.6870956,-34.38,44.34,-1.86
1554106413324,9.131485000000001,-2.6485856,2.843713,-1.284709,0.40053943,0.809601,-34.2,44.4,-1.2
1554106413345,10.25676,-2.9311013,2.819771,-0.9555421999999999,0.3291667,0.8085357,-33.9,44.4,-0.54
1554106413366,11.104307,-2.7730842,2.1206641,-0.46765109999999993,0.34834146,0.6711166000000001,-33.42,44.46,0.42
1554106413385,10.754754,-2.5528176,2.3600842999999996,-0.257794,0.4250405,0.56459016,-33.24,44.46,0.78
1554106413405,10.007763,-2.0165164,2.475006,-0.0063915867,0.53795856,0.38136467,-32.7,44.76,1.56
1554106413425,9.428367,-1.6095021,2.4079683,-0.0031957934000000003,0.57098174,0.32490566,-32.52,44.82,1.86
1554106413445,8.815451,-1.4514848,2.4558525,-0.13102753,0.58483016,0.29827404,-32.28,45.0,2.34
1554106413465,8.37013,-1.3844471,2.5803509,-0.33449304,0.5422196,0.29933932,-31.86,45.18,2.7
1554106413485,8.374918,-1.489792,2.6665419999999997,-0.5336975,0.46125950000000004,0.30253512,-31.5,45.42,2.94
1554106413505,8.858546,-1.7531542000000002,2.3744495,-0.6359629,0.40586576,0.28975195,-31.08,45.72,3.18
1554106413525,8.973467999999999,-2.0883423999999997,2.3600842999999996,-0.58909124,0.40906155,0.20879184,-30.78,45.9,3.3
1554106413545,9.030928999999999,-1.9590555,2.0632033,-0.5134575,0.43249738,0.05965481,-30.54,45.96,3.42
1554106413565,8.7532015,-1.7196354,2.0153193,-0.5294364,0.4165184,-0.10333065,-30.36,46.02,3.6
1554106413585,8.686164,-1.738789,1.7232267,-0.6135923000000001,0.39521313,-0.257794,-30.12,46.02,3.72
1554106413605,8.815451,-1.8968061999999999,1.7950528000000001,-0.7073356,0.3685815,-0.4079963,-30.0,45.96,3.84
1554106413624,8.719683,-2.0069396,1.5556326,-0.78296936,0.35473305,-0.5752428,-29.94,45.9,3.96
1554106413645,8.738836000000001,-2.1266496,1.5364790000000002,-0.8511463,0.33662358,-0.73822826,-30.0,45.84,4.08
1554106413665,8.734048,-2.1649568,1.4024036,-0.9257148000000001,0.33555830000000003,-0.89162636,-30.18,45.72,4.32
1554106413686,8.805874000000001,-2.2511482000000003,1.2443863000000002,-1.0333065000000001,0.30360037,-1.0695255,-30.36,45.48,4.62
1554106413705,8.882488,-2.2990322,1.2970588,-1.0908308,0.2727077,-1.176052,-30.6,45.0,4.98
1554106413725,9.074024,-2.5767596,1.1055226,-1.1707256000000001,0.2130529,-1.3369069,-30.96,44.46,5.52
1554106413746,9.212888000000001,-2.8353333,1.2539631000000002,-1.1888351000000001,0.18322548,-1.4434333000000001,-31.38,43.74,6.06
1554106413764,9.284714,-2.7012582000000003,1.4263457,-1.1771171999999999,0.17470337,-1.4828482,-31.68,43.32,6.3
1554106413784,9.442732000000001,-2.6964695,0.97623575,-1.1462245,0.1587244,-1.5371766000000002,-32.76,41.76,7.14
1554106413805,9.495403999999999,-2.8018146,0.789488,-1.1835088,0.13528858,-1.5382419,-33.54,40.5,7.74
1554106413824,9.595961,-2.926313,0.86131406,-1.2303803999999998,0.09587380000000001,-1.5286545,-34.38,39.0,8.28
1554106413845,9.461885,-2.9741971,0.84694886,-1.2729911,0.058589544,-1.4924355,-35.28,37.32,8.82
1554106413865,9.548077000000001,-2.902371,0.85652566,-1.3262542,0.025566347000000003,-1.4136058999999999,-36.36,35.7,9.36
1554106413884,9.758766,-2.7730842,0.7942764,-1.4029533,-0.004261058,-1.3049488999999999,-37.5,34.14,9.72
1554106413905,9.753978,-2.9837740000000004,0.74639237,-1.4636733999999998,-0.029827405,-1.1867046,-38.52,32.58,10.08
1554106413924,9.854534,-3.2136172999999997,0.6314706999999999,-1.4732608,-0.06498113,-1.0801781000000001,-39.42,31.08,10.44
1554106413945,9.864111,-3.5535938999999996,0.98102415,-1.4136058999999999,-0.10013486,-0.98430437,-40.2,29.4,10.8
1554106413965,9.902417999999999,-3.6445735,1.1965023000000001,-1.2772521000000001,-0.12676647,-0.9054747999999999,-40.86,27.78,11.16
1554106413985,9.763555,-3.6302083,1.3305776000000002,-1.051416,-0.12996227,-0.8213189000000001,-41.58,26.22,11.58
1554106414005,9.591172,-3.7116113,1.2443863000000002,-0.8245146999999999,-0.13422333,-0.72651035,-42.24,24.72,12.06
1554106414025,9.3182335,-3.4865562999999993,1.2252326999999998,-0.6668556,-0.14487597,-0.6380934,-42.66,23.28,12.6
1554106414045,9.346964,-3.5009214999999996,1.4119805,-0.5571333,-0.16937704,-0.53795856,-42.9,21.84,13.08
1554106414065,9.605537,-3.4099417,1.3210008,-0.44528055,-0.16724652,-0.4261058,-43.26,20.4,13.5
1554106414084,9.595961,-3.1322143,1.3066356000000001,-0.36964676,-0.14594123,-0.31638354,-43.5,19.2,13.92
1554106414107,9.466674000000001,-3.1322143,1.2635399,-0.33662358,-0.10546118,-0.20133498,-43.74,18.24,14.28
1554106414126,9.404425,-3.0268695,1.287482,-0.35899413,-0.084155895,-0.10226539,-43.98,17.46,14.58
1554106414144,9.504980999999999,-3.0268695,1.2731166999999999,-0.41119209999999995,-0.05965481,0.004261058,-44.04,16.92,14.82
1554106414164,9.629479,-2.9885623,1.38325,-0.45273739999999996,-0.036218993,0.11611383,-44.04,16.5,14.88
1554106414184,9.749189,-2.9741971,1.1917138999999999,-0.43462790000000007,-0.008522116,0.23542345,-44.1,16.14,14.94
1554106414206,9.883265,-3.0364463,1.3210008,-0.35260254,0.023435817999999997,0.35792887,-44.1,15.96,15.0
1554106414225,9.979032499999999,-2.7539306,1.2348095,-0.22477080000000002,0.03834952,0.47936899999999993,-44.16,15.6,15.18
1554106414245,10.117896,-2.8113914,0.98102415,-0.1470065,0.053263225,0.56245965,-44.22,15.48,15.24
1554106414265,10.184934,-2.5049335999999998,1.1055226,-0.056459017,0.07882957,0.65726817,-44.22,15.18,15.36
1554106414284,10.204087,-2.4091654,0.9044097,0.008522116,0.10013486,0.76059884,-44.22,14.88,15.48
1554106414305,10.218452000000001,-2.3133974,0.9091981,0.012783173500000002,0.11824436,0.82877576,-44.22,14.82,15.54
1554106414325,10.127473,-2.1410147999999998,0.7990648,-0.020240024,0.13635385,0.8873653,-44.16,14.76,15.6
1554106414345,9.988609,-2.3133974,0.86131406,-0.034088463,0.15339808,0.92784536,-43.86,14.88,15.66
1554106414364,9.835381,-2.2319946,0.85652566,-0.00958738,0.17576863,0.9416938,-43.74,15.06,15.72
1554106414385,9.624691,-2.1170728,1.0815806000000001,0.05539375,0.18748654,0.91825795,-43.38,15.72,15.72
1554106414405,9.600749,-2.1266496,0.95229375,0.09587380000000001,0.18961707,0.9012136999999999,-43.14,16.38,15.72
1554106414424,9.457097000000001,-2.0500352,1.0815806000000001,0.099069595,0.19068234,0.86499476,-42.96,17.1,15.72
1554106414444,9.495403999999999,-1.9782091,0.99538934,0.10333065,0.17150758,0.8149273,-42.72,17.82,15.72
1554106414465,9.346964,-1.9925743000000002,0.8182184,0.10865697,0.17896444,0.7499462,-42.48,18.6,15.72
1554106414485,9.059659,-2.1984756,0.9139864999999999,0.09161274,0.18855181,0.67963874,-42.36,19.38,15.72
1554106414504,9.184157,-2.2080526000000003,0.7990648,0.033023197000000004,0.16937704,0.6263755,-42.12,19.92,15.72
1554106414524,9.327810000000001,-2.3277626000000002,1.0672153999999998,-0.014913702,0.14168017,0.56672066,-41.88,20.46,15.66
1554106414545,9.380483,-2.48578,1.1629834,-0.07776430000000001,0.11611383,0.5305017,-41.64,21.06,15.66
1554106414565,9.361329,-2.7491422,1.1150993999999999,-0.16192019,0.10439592,0.5091964,-41.34,21.54,15.66
1554106414585,9.193734,-3.3812113,1.4263457,-0.41545314,0.07989483,0.50387007,-41.04,21.96,15.6
1554106414605,9.222465,-3.8313212,1.8333599999999999,-0.5603291,0.05539375,0.5230448000000001,-40.8,22.38,15.6
1554106414625,9.126697,-4.2622776,2.1110873,-0.6327670999999999,0.082025364,0.58269966,-40.56,22.74,15.6
1554106414644,8.930372,-4.9853263,1.9147629000000002,-0.5773733,0.11717909,0.68389976,-40.38,23.04,15.54
1554106414665,8.887277000000001,-5.679645,2.0344729999999998,-0.36218992,0.15552860000000002,0.7882956999999999,-40.26,23.34,15.54
1554106414685,8.8777,-6.642114,2.6426,0.099069595,0.19600865,0.90973586,-40.08,23.52,15.6
1554106414705,8.63828,-6.6947865,3.1597476,0.406931,0.28229508,0.99495703,-39.84,23.64,15.66
1554106414724,8.341399000000001,-6.488885,3.3895910000000002,0.55606806,0.3717773,1.0237192,-39.6,23.76,15.66
1554106414745,8.106767,-7.020397999999999,3.1693244,0.5795039000000001,0.40373522,1.0396981,-39.36,24.12,15.72
1554106414764,8.09719,-7.5566993,3.5045127999999997,0.7073356,0.43782368,1.0982877,-39.12,24.48,15.78
1554106414784,8.063671000000001,-7.7769656000000005,3.8540661,0.9800433000000001,0.49960902,1.1270498,-38.88,24.84,15.84
1554106414804,8.159439,-7.9062524000000005,3.7870286,1.3060142,0.57311225,1.1014834999999998,-38.64,25.32,15.9
1554106414824,7.967903,-8.016386,3.6625300000000003,1.6650082999999998,0.63915867,1.0535465,-38.4,25.98,15.84
1554106414845,7.666233999999999,-7.7386584,3.6768951000000003,1.9750003,0.7233145999999999,0.99708754,-38.28,26.88,15.48
1554106414865,7.1395097000000005,-7.015609700000001,3.7104141999999998,2.0879183,0.7946873000000001,0.93636745,-38.16,28.08,15.0
1554106414885,6.895301,-6.83365,3.7774517999999997,2.0772657,0.850081,0.9108011,-38.04,29.52,14.34
1554106414904,6.517017,-6.5271926,3.6481647000000006,2.139051,0.8767126000000001,0.8990832000000001,-37.8,30.96,13.56
1554106414925,6.4164605,-6.000468,3.2650926,2.1763353,0.8788431999999999,0.87564737,-37.38,32.52,12.6
1554106414945,6.459556,-5.689222,2.6856956000000003,2.0857878,0.8863,0.85966843,-36.84,34.38,11.52
1554106414964,6.2823853,-5.6604915,3.2986114,1.9664781999999998,0.9076053,0.8404937,-36.3,36.24,10.32
1554106414985,6.172251999999999,-5.8089319999999995,3.614646,2.0602214,0.9225190000000001,0.8117314999999999,-35.76,37.98,9.06
1554106415004,6.277597,-5.406706,3.566762,2.2178805,0.88949585,0.73290193,-35.22,39.48,7.86
1554106415025,6.933608,-4.7123876,3.0400376000000002,2.0666130000000003,0.81705785,0.66365975,-34.68,40.8,6.42
1554106415045,7.302314999999999,-4.3388919999999995,2.9394810000000002,1.6202673,0.7307714,0.58056915,-34.26,41.88,4.92
1554106415065,7.2065472999999995,-4.6980224,3.3991678,1.1568771999999998,0.6306366,0.4708469,-33.84,42.78,3.54
1554106415085,7.1490865,-5.00448,4.2610803,0.8159926,0.46232477,0.35473305,-33.48,43.62,2.28
1554106415105,7.091625,-5.143344,4.5819035,0.62317973,0.29933932,0.22477080000000002,-33.24,44.16,1.08
1554106415125,6.799533,-5.037999,5.04159,0.5613944000000001,0.18855181,0.14594123,-32.94,44.52,0.0
1554106415145,6.569689299999999,-4.9422307,5.319318,0.5699165,0.094808534,0.12996227,-32.64,44.94,-1.08
1554106415165,6.244078,-4.228758999999999,5.276222,0.4825648,0.05539375,0.16192019,-32.34,45.36,-2.04
1554106415184,5.861006,-3.481768,4.9506106,0.17896444,0.06498113,0.23648871,-32.04,45.72,-2.7
1554106415206,6.0860605,-3.5440169999999998,4.371214,-0.40586576,0.03195793,0.3568636,-31.68,46.08,-3.48
1554106415225,6.564901,-4.353257,4.7494974,-0.7222493000000001,-0.004261058,0.36218992,-31.5,46.32,-3.9
1554106415245,6.0333879999999995,-5.679645,5.975329,-0.43995422,0.07243799,0.34621096,-31.32,46.56,-4.32
1554106415266,5.966350599999999,-5.430648000000001,5.8651957999999995,0.12676647,0.08948222,0.3291667,-31.2,46.74,-4.56
1554106415285,6.3350577,-4.6261964,5.4055089999999995,0.38242993,0.11930962,0.3717773,-31.08,47.04,-4.68
1554106415305,6.042965000000001,-3.7547068999999995,5.175665400000001,0.22690132,0.20026971,0.49854377,-31.02,47.22,-4.74
1554106415325,5.4970870000000005,-3.3716345000000003,5.333683000000001,-0.07137272,0.221575,0.58056915,-30.96,47.34,-4.74
1554106415344,5.430049400000001,-3.4626143,5.6736593,-0.6508765999999999,0.18002969,0.6487460999999999,-30.6,47.64,-4.62
1554106415364,5.5258174,-3.888782,5.8747725,-1.0258497,0.17044231,0.73822826,-30.24,47.82,-4.56
1554106415384,5.410896,-4.4442368,6.023213,-1.0801781000000001,0.20240025,0.7637946,-29.88,47.94,-4.44
1554106415405,4.9464207,-5.0571527000000005,6.425439,-0.92997587,0.24394555,0.7861651999999999,-29.52,48.12,-4.32
1554106415425,4.606444000000001,-4.923076999999999,6.449381,-0.61678815,0.24714136,0.7595335999999999,-29.04,48.24,-4.2
1554106415444,4.295198,-4.7602715,6.707954400000001,-0.29507825,0.21837921,0.69668293,-28.5,48.3,-4.02
1554106415465,4.247314,-5.0763063,6.894702400000001,0.20240025,0.19813919,0.6743124,-27.96,48.42,-3.54
1554106415485,4.1659107,-4.918288700000001,6.664859,0.3717773,0.18855181,0.62317973,-27.36,48.54,-3.06
1554106415505,3.7972038,-4.851251,6.4062852999999995,0.3291667,0.17257284,0.5496765,-26.82,48.66,-2.58
1554106415525,3.9217023999999996,-5.0906715,6.5738792,0.11717909,0.13741912,0.45593318,-26.46,48.84,-2.1
1554106415545,3.9264907999999994,-5.239112,6.305729,-0.13848437,0.12250541,0.3270362,-26.04,49.02,-1.68
1554106415565,3.5051112,-5.4402246,6.559514,-0.43888897,0.11717909,0.24927188,-25.68,49.2,-1.32
1554106415585,3.4045547999999997,-6.297349,6.8372416,-0.55074173,0.07350325,0.23435818,-25.32,49.38,-1.02
1554106415604,3.5529952000000007,-6.7330937,7.0287776,-0.24074976,0.058589544,0.24501082,-24.9,49.56,-0.78
1554106415624,3.5817258,-6.546346,6.602609599999999,0.19068234,0.068176925,0.24394555,-24.54,49.74,-0.78
1554106415645,3.7588966,-6.120178,6.353613,0.35260254,0.06498113,0.2790993,-24.24,49.92,-0.84
1554106415665,3.8786068,-5.7179523,5.8508306,0.26738137,0.07456851,0.31957933,-23.94,50.1,-0.84
1554106415685,3.6870705999999998,-5.6748567,5.903503,0.010652645,0.07456851,0.33981937,-23.58,50.28,-0.84
1554106415705,2.2888567,-2.581548,5.8987145,-0.330232,0.039414786,0.36005938,-23.28,50.46,-0.78
1554106415725,4.6878470000000005,-6.848015299999999,6.6265516,-1.3986923,-0.08841695,0.50600064,-22.98,50.7,-0.78
1554106415746,3.5817258,-5.8663926,5.788581400000001,-1.2783173,0.013848438000000001,0.46552056,-22.8,50.88,-0.72
1554106415765,3.8402996,-7.1879919999999995,6.157287999999999,-1.5148059999999999,0.09374327,0.51771855,-22.62,51.06,-0.6
1554106415785,3.7158010000000004,-8.629301,6.458957700000001,-1.180313,0.18429075,0.5006742999999999,-22.44,51.18,-0.18
1554106415805,2.8634652999999997,-7.4705076,5.6880245,-0.44208476,0.12357068,0.099069595,-22.26,51.3,0.36
1554106415825,3.1076740000000003,-6.5846534,5.1038394,-0.21411815,0.06178534,0.18109496,-22.02,51.3,0.9
1554106415845,3.4620156000000004,-6.5511346,5.204396,-0.41545314,0.04261058,0.28975195,-21.72,51.24,1.44
1554106415864,3.1124623,-6.3643866,4.988918,-0.7765778,0.017044231,0.20133498,-21.48,51.18,2.04
1554106415885,2.8634652999999997,-7.178415299999999,5.472546599999999,-1.0844392,-0.034088463,0.19281286,-21.18,51.06,2.76
1554106415905,2.9735985,-8.418612,5.774216,-0.8042746999999999,-0.049002163,0.23542345,-20.94,51.0,3.42
1554106415924,2.5617957000000002,-8.744224,5.4390279999999995,-0.17150758,-0.015978966,0.15978967,-20.64,50.88,4.2
1554106415944,2.4468741,-8.016386,5.2810106,0.32490566,-0.05219796,0.056459017,-20.4,50.7,4.74
1554106415965,2.633622,-7.389105000000001,5.218761,0.5944176,-0.112918034,-0.013848438000000001,-20.22,50.58,5.16
1554106415985,2.7485435000000003,-6.642114,5.4007206,0.608266,-0.17576863,-0.09161274,-20.04,50.34,5.76
1554106416005,2.8060042999999997,-6.7187285,5.6545057,0.45912898,-0.22903186,-0.111852765,-19.98,50.28,5.94
1554106416026,3.2273839,-7.3460092999999995,6.1524997,0.33662358,-0.28016454,-0.11717909,-19.86,50.16,6.24
1554106416044,3.2704793999999997,-7.49445,5.8987145,0.39095205,-0.26312032,-0.16405073,-19.74,50.1,6.42
1554106416065,3.2082303,-7.379528,5.788581400000001,0.44741106,-0.2545982,-0.20985709,-19.56,50.04,6.3
1554106416085,3.3087866000000004,-7.49445,5.927445,0.45912898,-0.26205507,-0.21837921,-19.44,50.04,5.94
1554106416104,3.3997664,-7.6428905,6.3871317,0.6508765999999999,-0.25992453,-0.25885928,-19.38,50.04,5.58
1554106416124,3.169923,-7.053917,6.502053299999999,0.9044095,-0.26738137,-0.28549087,-19.32,50.1,5.1
1554106416144,3.217807,-6.081871,4.7207669999999995,1.1025486999999998,-0.32384038,-0.26418558,-19.26,50.16,4.62
1554106416165,4.285621,-4.6261964,4.6537294000000005,1.1824435,-0.39947417,-0.32384038,-19.26,50.28,4.02
1554106416185,4.2042184,-6.699575,7.234678999999999,0.6114618,-0.32170987,-0.27696875,-19.26,50.4,3.3
1554106416204,3.9073372,-8.279748,8.034343,0.72970617,-0.26418558,-0.257794,-19.26,50.46,2.64
1554106416225,4.2760444,-8.131308,7.5985975,1.3773868999999999,-0.30679616,-0.34301516,-19.32,50.58,1.98
1554106416246,4.209007,-7.0251865,6.96174,1.8716697,-0.25885928,-0.4165184,-19.38,50.64,1.38
1554106416264,3.739743,-5.7179523,6.4637459999999995,2.0655476999999998,-0.22690132,-0.37284255,-19.44,50.76,0.72
1554106416284,4.3047748,-4.899135,6.329671,1.9174759999999997,-0.20879184,-0.29614353,-19.56,50.88,0.12
1554106416305,4.295198,-4.597466000000001,6.6600703999999995,1.5094798,-0.12144015,-0.25246766,-19.74,51.06,-0.66
1554106416325,4.0270470000000005,-4.463390400000001,6.688801,0.9938916999999999,-0.03089267,-0.17150758,-19.98,51.24,-1.56
1554106416346,1.2401965,-4.377199,6.2626333,0.8681905000000001,-0.051132694000000006,-0.43782368,-20.22,51.42,-2.52
1554106416364,5.635950599999999,-3.481768,4.955399,0.753142,-0.43462790000000007,-0.21198763,-20.4,51.54,-3.42
1554106416384,5.7843914000000005,-5.3540335,4.4765587,0.753142,-0.07350325,0.27696875,-20.58,51.6,-4.38
1554106416405,5.9041014,-4.607043,8.417415,0.76485986,0.15765914,-0.3334278,-20.76,51.72,-5.34
1554106416425,3.3806129,-3.2710779999999997,8.110957,0.6444850000000001,0.29294774,-0.4708469,-20.94,51.72,-6.36
1554106416444,4.1611223,-4.109049,7.5746554999999995,0.19281286,0.17150758,-0.040480047000000005,-21.06,51.78,-7.32
1554106416464,4.0318356,-4.520851,7.3974850000000005,-0.020240024,0.07882957,-0.13102753,-21.12,51.72,-8.22
1554106416485,3.9360676,-4.032433999999999,7.177217999999999,0.05965481,0.017044231,-0.111852765,-21.12,51.66,-8.82
1554106416505,4.0174704,-4.3436804,7.445369,0.22050974,-0.018109497,-0.060720075,-21.18,51.6,-9.3
1554106416524,4.19943,-4.3819875999999995,8.383896,0.40586576,-0.007456851,-0.058589544,-21.18,51.54,-9.72
1554106416545,4.1611223,-4.1138372,6.51163,0.59867865,0.046871635999999994,-0.05539375,-21.24,51.48,-10.08
1554106416565,3.5769374,-3.1082723,4.89315,0.6061354999999999,-0.008522116,-0.08628642,-21.36,51.42,-10.44
1554106416585,5.046977,-2.9167361,8.005612,0.5773733,-0.054328485999999995,-0.16298546,-21.42,51.36,-10.86
1554106416605,4.376600700000001,-2.9358897,8.254609,0.17896444,0.07669904,-0.14061491,-21.48,51.3,-11.16
1554106416625,4.2760444,-3.8983587999999996,8.608951,-0.23968449999999997,0.05219796,-0.07563378,-21.6,51.24,-11.46
1554106416645,4.2185836,-4.401141,8.288128,-0.25672874,0.054328485999999995,-0.053263225,-21.66,51.18,-11.7
1554106416665,3.643975,-4.0803185,7.2729864,-0.027696876000000002,0.047936900000000005,-0.07350325,-21.78,51.06,-12.0
1554106416684,3.6343982000000006,-3.6110547,7.0527196,0.12357068,-0.0031957934000000003,-0.10013486,-21.84,51.0,-12.24
1554106416704,3.8786068,-3.4386723,7.138911,0.14807177,-0.002130529,-0.012783173500000002,-21.9,50.88,-12.36
1554106416725,3.7876269999999996,-3.1896752999999998,6.909067599999999,-0.037284255,0.00958738,0.05752428,-21.9,50.82,-12.48
1554106416745,3.7110126000000005,-3.2471360000000002,7.105392,-0.26525086,-0.024501082,0.047936900000000005,-21.96,50.76,-12.48
1554106416765,4.1946416,-3.6349967000000003,7.129334,-0.33129725,-0.06924219,0.034088463,-22.02,50.7,-12.48
1554106416785,4.5058875,-3.7163997,7.3208704,-0.28442562,-0.06178534,0.008522116,-22.08,50.7,-12.48
1554106416805,4.4101195,-3.9270894999999997,7.5842323,-0.22477080000000002,-0.053263225,-0.046871635999999994,-22.14,50.64,-12.42
1554106416825,4.2760444,-4.013280399999999,7.641692999999999,-0.12144015,-0.07243799,-0.084155895,-22.14,50.64,-12.3
1554106416844,4.2185836,-3.7259765,7.4645224,-0.07882957,-0.14061491,-0.16192019,-22.14,50.64,-12.24
1554106416865,4.2760444,-4.137779,7.5746554999999995,-0.21944448,-0.20772657,-0.20772657,-22.14,50.7,-12.0
