TimeStamp,Ax,Ay,Az,Gx,Gy,Gz,Mx,My,Mz
1554105122903,-9.121908,-3.6302083,3.7008373999999997,-0.6359629,-0.14807177,0.8969527,38.04,-18.0,-32.16
1554105122922,-8.8777,-3.6349967000000003,3.8205473,-0.78296936,-0.21731395,0.95128113,37.98,-18.6,-31.86
1554105122942,-8.690952000000001,-3.5392287000000002,3.7966053,-0.8117314999999999,-0.24927188,0.9555421999999999,37.92,-19.38,-31.8
1554105122962,-8.413225,-3.2902317,3.5571851999999997,-0.78296936,-0.31105720000000003,0.8948221,37.8,-20.28,-31.8
1554105122983,-8.628703,-3.0986955000000003,3.5571851999999997,-0.8202536,-0.31318775,0.8213189000000001,37.56,-21.18,-32.04
1554105123003,-8.365341,-3.2710779999999997,3.4614172,-0.9108011,-0.33662358,0.77125144,37.26,-21.96,-32.4
1554105123023,-8.164227499999999,-3.3333273,3.4757824,-0.9672601000000001,-0.36645097,0.68176925,36.96,-22.74,-32.88
1554105123043,-8.020576,-3.1992521000000003,3.8253357000000006,-0.85327685,-0.38136467,0.5699165,36.66,-23.46,-33.42
1554105123063,-7.991845,-3.1609447,3.7247794,-0.58909124,-0.38136467,0.45699844,36.36,-24.18,-34.02
1554105123083,-7.8865004,-3.117849,3.8732197,-0.28655612,-0.34408042,0.34408042,36.06,-24.9,-34.74
1554105123103,-7.872135000000001,-3.0699651,3.7199910000000003,-0.013848438000000001,-0.33768883,0.23222765,35.7,-25.5,-35.52
1554105123123,-7.9583262999999995,-3.1657330000000004,3.3273417999999997,0.111852765,-0.30679616,0.15659387,35.4,-26.04,-36.24
1554105123143,-7.967903,-3.1753099999999996,3.1453824,0.07669904,-0.31957933,0.11611383,35.16,-26.52,-36.9
1554105123163,-8.0924015,-3.1082723,3.2411506,-0.0031957934000000003,-0.32384038,0.08948222,34.92,-26.94,-37.5
1554105123183,-8.039729,-2.959832,3.6673183,-0.06285059999999999,-0.2876214,0.10546118,34.68,-27.24,-37.92
1554105123203,-8.0684595,-2.878429,3.8540661,-0.11611383,-0.2545982,0.11824436,34.5,-27.66,-38.28
1554105123223,-7.991845,-3.141791,3.8301241000000004,-0.1587244,-0.19813919,0.094808534,34.26,-27.96,-38.58
1554105123242,-8.001422,-3.2615013,3.9881415000000002,-0.17896444,-0.15233281,0.082025364,34.08,-28.2,-38.82
1554105123264,-7.963114699999999,-3.4003648999999996,3.8253357000000006,-0.12463594,-0.12783173,0.094808534,33.9,-28.44,-38.94
1554105123283,-7.872135000000001,-3.4051532999999994,4.0934862999999995,-0.027696876000000002,-0.06498113,0.07030745599999999,33.78,-28.44,-39.06
1554105123302,-7.876923599999999,-3.520075,3.8971617,0.10226539,-0.017044231,0.040480047000000005,33.72,-28.44,-39.18
1554105123323,-7.943961,-3.3859997,4.0695443,0.19281286,0.02130529,0.03834952,33.66,-28.44,-39.24
1554105123343,-7.891288799999999,-3.2806550000000003,3.9306807999999998,0.19387813,0.053263225,0.058589544,33.6,-28.5,-39.36
1554105123363,-7.915230800000001,-3.1753099999999996,3.8205473,0.15978967,0.07350325,0.053263225,33.48,-28.5,-39.6
1554105123384,-7.967903,-3.1609447,3.9594111000000005,0.18748654,0.07137272,0.02876214,33.42,-28.56,-39.66
1554105123403,-7.891288799999999,-2.8688521000000002,3.9067385000000003,0.2428803,0.07989483,-0.008522116,33.36,-28.62,-39.78
1554105123422,-8.087613000000001,-2.8257565,3.7008373999999997,0.294013,0.080960095,-0.06604639400000001,33.3,-28.68,-39.84
1554105123443,-8.149861999999999,-2.7874494,3.6337996,0.24820662,0.07350325,-0.10759171,33.24,-28.8,-39.84
1554105123462,-8.226477000000001,-2.9741971,3.8349125,0.17896444,0.07456851,-0.13954964,33.18,-28.98,-39.84
1554105123482,-8.236053,-3.1561562999999997,3.7104141999999998,0.08841695,0.07776430000000001,-0.14061491,33.12,-29.28,-39.66
1554105123503,-8.303091,-3.2998084999999997,3.9354692000000004,0.047936900000000005,0.07243799,-0.11504856,33.12,-29.52,-39.48
1554105123523,-8.255207,-3.0891187,4.1317935,0.112918034,0.06711166,-0.096939065,33.12,-29.76,-39.3
1554105123542,-8.322245,-3.1082723,3.887585,0.23648871,0.080960095,-0.10865697,33.12,-30.0,-39.18
1554105123563,-8.293514,-3.1465794999999996,3.9546227,0.34514567,0.09374327,-0.10226539,33.06,-30.18,-39.0
1554105123583,-8.259995,-3.2040405,3.863643,0.38029942,0.10439592,-0.07882957,33.06,-30.36,-38.88
1554105123603,-8.322245,-3.1322143,3.7343562000000006,0.36112466,0.1107875,-0.051132694000000006,33.06,-30.42,-38.7
1554105123623,-8.336611,-2.9071592999999996,3.6768951000000003,0.29614353,0.10226539,-0.02876214,33.06,-30.42,-38.52
1554105123643,-8.288725999999999,-2.7778726000000002,3.9258924,0.21944448,0.08628642,-0.03195793,33.06,-30.36,-38.46
1554105123663,-8.346188,-2.8209682000000003,3.767875,0.19387813,0.07456851,-0.05965481,33.12,-30.3,-38.4
1554105123682,-8.255207,-2.8640637000000004,3.8301241000000004,0.18642128,0.07989483,-0.058589544,33.12,-30.3,-38.28
1554105123703,-8.202535000000001,-2.8161798,3.743933,0.13528858,0.07882957,-0.05219796,33.12,-30.3,-38.16
1554105123722,-8.24563,-2.782661,3.7343562000000006,0.08522116,0.07669904,-0.06604639400000001,33.18,-30.3,-38.1
1554105123742,-8.298303,-2.9358897,3.6816837999999996,0.033023197000000004,0.07137272,-0.07563378,33.24,-30.36,-37.98
1554105123763,-8.207322999999999,-2.9837740000000004,3.8588544999999996,0.040480047000000005,0.049002163,-0.080960095,33.24,-30.36,-37.86
1554105123783,-8.303091,-2.9502552000000004,3.9258924,0.054328485999999995,0.047936900000000005,-0.07882957,33.24,-30.36,-37.8
1554105123803,-8.274361,-2.9406781000000004,3.9306807999999998,0.07030745599999999,0.07137272,-0.06178534,33.3,-30.42,-37.74
1554105123822,-8.432379,-2.9502552000000004,3.8013937000000007,0.07882957,0.07243799,-0.06711166,33.3,-30.42,-37.62
1554105123842,-8.470686,-2.9406781000000004,3.8109705000000003,0.068176925,0.07456851,-0.06604639400000001,33.3,-30.36,-37.56
1554105123863,-8.346188,-2.9358897,3.7726634,0.056459017,0.068176925,-0.05539375,33.3,-30.36,-37.44
1554105123883,-8.379706,-2.8927941,3.8109705000000003,0.04261058,0.05965481,-0.047936900000000005,33.24,-30.36,-37.32
1554105123903,-8.39886,-2.902371,3.8732197,0.039414786,0.060720075,-0.03834952,33.24,-30.3,-37.2
1554105123923,-8.283937,-2.8209682000000003,3.6864722000000003,0.06178534,0.04580637,-0.039414786,33.24,-30.3,-37.08
1554105123943,-8.327033,-2.7491422,3.7152026,0.054328485999999995,0.04261058,-0.04474111,33.24,-30.3,-36.96
1554105123962,-8.336611,-2.8257565,3.7582982000000005,0.037284255,0.051132694000000006,-0.04580637,33.24,-30.3,-36.84
1554105123983,-8.283937,-2.830545,3.7582982000000005,0.023435817999999997,0.051132694000000006,-0.054328485999999995,33.24,-30.36,-36.72
1554105124003,-8.312667999999999,-2.7730842,3.7152026,0.0031957934000000003,0.05752428,-0.054328485999999995,33.24,-30.42,-36.66
1554105124022,-8.374918,-2.8018146,3.7343562000000006,-0.02876214,0.06924219,-0.053263225,33.24,-30.48,-36.54
1554105124042,-8.360553,-2.8449101000000003,3.6481647000000006,-0.037284255,0.068176925,-0.06391586,33.3,-30.54,-36.48
1554105124063,-8.255207,-2.8975825,3.6337996,-0.015978966,0.07137272,-0.07456851,33.3,-30.6,-36.48
1554105124082,-8.298303,-2.9071592999999996,3.696049,-0.0010652645,0.08522116,-0.07882957,33.3,-30.66,-36.42
1554105124103,-8.350976,-2.9167361,3.7726634,-0.008522116,0.08948222,-0.07137272,33.3,-30.72,-36.36
1554105124124,-8.293514,-2.8927941,3.6050692000000004,-0.014913702,0.098004326,-0.07137272,33.36,-30.72,-36.24
1554105124143,-8.226477000000001,-2.8113914,3.6673183,-0.01917476,0.10546118,-0.08522116,33.36,-30.72,-36.18
1554105124162,-8.298303,-2.8640637000000004,3.4757824,-0.010652645,0.12783173,-0.098004326,33.36,-30.72,-36.12
1554105124184,-8.384495,-2.9406781000000004,3.4805707999999997,-0.0031957934000000003,0.1438107,-0.112918034,33.42,-30.72,-36.06
1554105124202,-8.422802,-2.8688521000000002,3.470994,0.014913702,0.14487597,-0.12996227,33.42,-30.66,-36.0
1554105124223,-8.331821000000001,-2.9933507,3.4278982000000005,0.02876214,0.13741912,-0.13954964,33.48,-30.6,-35.94
1554105124242,-8.456321,-2.902371,3.518878,0.018109497,0.12144015,-0.15446335,33.48,-30.6,-35.88
1554105124263,-8.451532,-2.9933507,3.4039562000000005,-0.0053263223,0.101200126,-0.15978967,33.6,-30.48,-35.82
1554105124284,-8.51857,-3.151368,3.413533,-0.029827405,0.09267801,-0.15552860000000002,33.66,-30.36,-35.64
1554105124302,-8.331821000000001,-3.117849,3.4901476000000002,-0.041545313,0.09587380000000001,-0.15339808,33.78,-30.18,-35.34
1554105124323,-8.240842,-3.2710779999999997,3.341707,-0.02130529,0.11504856,-0.17044231,33.84,-30.0,-35.16
1554105124343,-8.418014,-3.151368,3.116652,-0.05965481,0.15020229,-0.17363810000000002,34.02,-29.88,-34.98
1554105124362,-8.221688,-2.9215245,3.8301241000000004,-0.12463594,0.20133498,-0.16937704,34.14,-29.7,-34.8
1554105124383,-8.1163435,-2.60549,3.3752258,-0.257794,0.24820662,-0.23009712,34.2,-29.52,-34.68
1554105124402,-8.226477000000001,-2.830545,3.0639796,-0.47830373,0.24074976,-0.2545982,34.32,-29.28,-34.56
1554105124423,-8.030152000000001,-3.2136172999999997,3.164536,-0.51984906,0.23861924,-0.27590349999999997,34.38,-29.1,-34.5
1554105124443,-7.795521000000001,-3.3381157,3.2076318,-0.35899413,0.26525086,-0.34834146,34.5,-28.8,-34.56
1554105124462,-7.819463000000001,-3.2471360000000002,3.068768,-0.1438107,0.30040458,-0.46019423,34.68,-28.5,-34.56
1554105124482,-7.589619,-3.3381157,2.8149827000000003,0.039414786,0.34301516,-0.5795039000000001,34.86,-28.2,-34.62
1554105124502,-7.4746976,-3.4578260000000003,3.0879216,0.111852765,0.35473305,-0.6924219,35.04,-27.84,-34.62
1554105124523,-7.565677,-3.6589386,2.9394810000000002,0.14168017,0.34301516,-0.7776430000000001,35.22,-27.42,-34.62
1554105124544,-7.690175999999999,-4.0707417,2.8772318,0.19174760000000002,0.33981937,-0.8926915999999999,35.34,-26.82,-34.5
1554105124562,-7.8003089999999995,-4.300585,2.6426,0.3153183,0.34727620000000003,-0.94488955,35.52,-26.34,-34.32
1554105124584,-7.920019,-4.511274299999999,2.795829,0.5028047999999999,0.36964676,-0.98856544,35.76,-25.68,-33.96
1554105124602,-7.8146744,-4.745906400000001,2.915539,0.8117314999999999,0.37710363,-1.0471549,35.94,-25.08,-33.66
1554105124622,-8.001422,-4.5016975,2.8868085999999997,0.94595486,0.33981937,-1.0535465,36.18,-24.3,-33.3
1554105124643,-7.896077,-4.583101,2.7910407000000004,0.8543421,0.2609898,-1.0301107,36.42,-23.4,-32.88
1554105124662,-7.881711999999999,-4.812944,3.3369186,0.7669904000000001,0.221575,-1.0290455,36.66,-22.38,-32.28
1554105124682,-7.6375036,-5.239112,3.3560722000000003,0.8809737,0.13848437,-1.0695255,36.9,-21.24,-31.74
1554105124703,-7.599196000000001,-5.48332,3.1070752,1.1568771999999998,0.09374327,-1.1132014,37.2,-20.22,-31.2
1554105124722,-7.5034279999999995,-5.2582655,3.0160956000000003,1.4263891000000002,0.04474111,-1.1121361,37.62,-19.08,-30.78
1554105124742,-7.642291999999999,-5.0571527000000005,3.3369186,1.5840483,0.01917476,-1.1025486999999998,37.98,-17.88,-30.42
1554105124763,-7.465121000000001,-4.9757495,3.365649,1.5329156000000002,-0.02130529,-1.0791129,38.34,-16.8,-30.0
1554105124783,-7.2975270000000005,-5.0667295,3.2411506,1.3081448,-0.07137272,-1.0354371,38.58,-15.72,-29.4
1554105124802,-6.95755,-5.133767,3.5715504,1.0791129,-0.11717909,-1.015197,38.76,-14.64,-28.8
1554105124822,-6.770802499999999,-5.0284224,3.2603042,0.9033443000000001,-0.15765914,-1.0333065000000001,39.0,-13.68,-28.26
1554105124843,-6.6654577,-4.9278655,3.4805707999999997,0.6412892,-0.18961707,-1.0354371,39.3,-12.54,-27.72
1554105124863,-6.4499793,-4.683657,3.7343562000000006,0.37284255,-0.21837921,-1.0780476,39.6,-11.4,-27.12
1554105124883,-6.167464,-4.836886,3.9498343,0.16405073,-0.21411815,-1.1345067,39.84,-10.2,-26.58
1554105124902,-5.9567738,-5.0523643,4.23235,0.05219796,-0.21411815,-1.1920309,40.08,-9.06,-25.98
1554105124922,-5.602432,-5.1529207,4.1222167,0.13848437,-0.2130529,-1.3038836999999999,40.32,-7.86,-25.56
1554105124942,-5.1523223,-5.1146135,4.055179,0.2908172,-0.20559604,-1.4391723,40.56,-6.54,-25.32
1554105124963,-4.783615,-4.607043,4.4526167,0.47404268,-0.19920446,-1.5925703000000002,40.8,-5.22,-25.2
1554105124982,-4.4723687000000005,-4.3676224,4.194042700000001,0.716923,-0.20133498,-1.8365159,40.98,-3.66,-25.14
1554105125002,-4.0509889999999995,-4.094683600000001,4.0360255,0.8149273,-0.221575,-2.0932446,41.16,-2.16,-25.02
1554105125022,-3.5194763999999994,-4.5160627,3.9785647000000006,0.8085357,-0.26312032,-2.3638217,41.22,-0.48,-24.96
1554105125043,-2.9592332999999997,-5.2199583,3.2650926,0.45380265,-0.34514567,-2.5853968,41.28,1.32,-24.96
1554105125062,-2.5905263,-4.76506,3.365649,-0.060720075,-0.36964676,-2.766492,41.34,3.48,-24.9
1554105125082,-2.2984335,-4.908712,3.9067385000000003,-0.48149952,-0.3206446,-2.9891322,41.34,5.82,-24.84
1554105125103,-1.7812861,-5.6030307,4.4238862999999995,-0.7488809000000001,-0.29188246,-3.1425302000000004,41.34,8.34,-24.78
1554105125123,-0.80445176,-7.5183919999999995,3.9498343,-0.91186637,-0.29827404,-3.3332123999999994,41.34,12.72,-24.66
1554105125143,-0.44532153,-7.259817999999999,3.4422636,-1.1536813999999997,-0.26205507,-3.4067156,41.28,14.22,-24.6
1554105125162,-0.22026655,-6.900687700000001,3.5236663999999998,-1.4647386,-0.16618125,-3.5452,40.98,17.52,-24.6
1554105125182,0.37828386,-7.2885485,4.5148660000000005,-1.4647386,0.0010652645,-3.7081857000000005,40.62,20.94,-24.48
1554105125203,1.3838485,-9.649231,5.295376,-0.86179894,0.101200126,-3.8530614,40.14,24.54,-24.36
1554105125222,2.2936451,-10.587758000000001,4.3329067000000006,0.06391586,0.017044231,-3.9212384,39.12,30.06,-24.06
1554105125243,2.6623523,-8.988432000000001,3.4518404,0.60720074,0.025566347000000003,-3.9883502,38.1,33.96,-23.76
1554105125263,3.1890767,-8.619724,3.7822402000000004,0.75633776,0.05219796,-3.9574575,37.44,35.82,-23.64
1554105125282,4.103661499999999,-9.759364999999999,4.055179,0.6466155,-0.017044231,-3.7912762000000004,35.88,39.66,-23.22
1554105125303,5.0517654,-10.061034,3.863643,0.20453078,-0.20559604,-3.6826193,33.36,44.94,-22.5
1554105125323,5.664681400000001,-9.452907000000002,3.5859156000000003,-0.14594123,-0.2790993,-3.6368129999999996,31.5,48.06,-22.08
1554105125342,6.2249246,-9.074622999999999,3.8157589999999995,-0.32810146,-0.23648871,-3.5089812000000005,29.4,50.88,-21.66
1554105125362,6.617573299999999,-9.314043,4.4621935,-0.24714136,-0.12783173,-3.3396041,27.06,53.46,-21.36
1554105125382,6.9719152,-9.280524,4.5962687,-0.07776430000000001,-0.12037488,-3.161705,24.6,55.68,-21.12
1554105125403,7.2831616,-8.839992,4.208408,0.12250541,-0.12250541,-3.064766,22.2,57.42,-20.94
1554105125423,7.4986396,-7.5710645,3.8684312999999997,0.20133498,-0.10546118,-2.9379995,20.04,58.8,-20.94
1554105125442,7.608772999999999,-7.49445,4.0839095,0.18748654,-0.101200126,-2.8463867,17.76,59.82,-21.0
1554105125462,8.145074000000001,-7.4034699999999996,4.0839095,0.12037488,-0.15126756,-2.7260117999999998,15.48,60.66,-21.18
1554105125482,8.145074000000001,-6.771400999999999,4.088698,0.014913702,-0.19174760000000002,-2.6045716,13.32,61.26,-21.36
1554105125502,8.145074000000001,-6.3021374,3.8732197,-0.06604639400000001,-0.19174760000000002,-2.4511735,11.22,61.74,-21.48
1554105125522,8.37013,-5.5647235,3.9546227,-0.1949434,-0.13848437,-2.2391857999999996,9.36,61.98,-21.66
1554105125543,8.422802,-5.4545900000000005,3.8780080999999997,-0.31105720000000003,-0.10439592,-2.0836573,7.68,62.16,-21.78
1554105125563,8.51857,-5.263054,3.8732197,-0.43569317,-0.08735169,-1.9611518000000001,5.94,62.22,-21.9
1554105125583,8.695741,-4.860828,3.6864722000000003,-0.5656554,-0.06711166,-1.8588865,4.26,62.04,-22.02
1554105125603,8.7292595,-4.6692919999999996,3.6337996,-0.6924219,-0.049002163,-1.7012273,2.76,61.68,-22.14
1554105125622,8.786719999999999,-4.7267528,3.767875,-0.76592517,-0.03195793,-1.5222628999999999,1.32,61.32,-22.14
1554105125642,8.963891,-4.439448400000001,3.4757824,-0.7584683000000001,0.0063915867,-1.3582121999999999,-0.24,60.9,-22.14
1554105125663,8.930372,-4.4538136,3.54282,-0.72970617,0.05006743,-1.1845741,-1.5,60.42,-22.02
1554105125682,8.8777,-4.362833999999999,3.518878,-0.7052050999999999,0.08628642,-1.019458,-2.88,59.76,-21.9
1554105125704,8.815451,-4.1760864,3.3081882000000005,-0.6956177,0.101200126,-0.86606,-4.14,59.04,-21.72
1554105125723,8.781932000000001,-4.1329910000000005,3.2267854,-0.7126619000000001,0.10333065,-0.72011876,-5.34,58.2,-21.48
1554105125743,8.762777999999999,-4.013280399999999,3.0017304,-0.72970617,0.10865697,-0.58909124,-6.36,57.54,-21.18
1554105125763,8.7053175,-3.912724,3.2363622000000003,-0.7126619000000001,0.11930962,-0.45912898,-7.26,56.94,-20.76
1554105125783,8.6574335,-3.9318779000000004,3.1741127999999996,-0.6849651,0.12250541,-0.34408042,-7.98,56.22,-20.34
1554105125803,8.643068,-3.816956,3.0496144,-0.66365975,0.10546118,-0.2545982,-8.46,55.5,-19.86
1554105125823,8.6334915,-3.7499184999999997,2.9538465,-0.6487460999999999,0.07563378,-0.17363810000000002,-8.88,54.9,-19.32
1554105125842,8.786719999999999,-3.8265328000000003,2.9825767999999995,-0.628506,0.043675844000000005,-0.10439592,-9.18,54.48,-18.84
1554105125862,8.700529,-3.6780925000000004,2.8532897999999998,-0.5954828000000001,0.020240024,-0.056459017,-9.42,54.18,-18.36
1554105125883,8.7532015,-3.6254199000000003,2.9011737999999996,-0.55287224,-0.0010652645,-0.011717908999999999,-9.6,53.88,-17.88
1554105125903,8.643068,-3.6828809000000002,2.949058,-0.49428272,-0.020240024,0.02876214,-9.78,53.7,-17.4
1554105125923,8.5473,-3.5631707,2.9682117000000003,-0.39414784,-0.041545313,0.07882957,-10.08,53.4,-16.74
1554105125943,8.451532,-3.5871127,3.2172085999999998,-0.32810146,-0.05539375,0.10759171,-10.14,53.4,-16.56
1554105125963,8.384495,-3.4482489999999997,3.0831332000000002,-0.23435818,-0.07456851,0.13741912,-10.32,53.28,-16.26
1554105125983,8.504205,-3.5104983,3.1022868,-0.13848437,-0.084155895,0.16724652,-10.44,53.16,-16.02
1554105126002,8.523358,-3.3333273,3.0017304,-0.05752428,-0.08948222,0.18429075,-10.62,53.04,-15.78
1554105126022,8.528147,-3.2471360000000002,2.9394810000000002,0.026631612000000002,-0.10333065,0.17257284,-10.74,52.86,-15.48
1554105126043,8.542512,-3.2662897,2.9442697,0.07563378,-0.12783173,0.15233281,-10.68,52.74,-15.24
1554105126063,8.585608,-3.2231941,2.8580782000000005,0.11930962,-0.15659387,0.12783173,-10.62,52.74,-15.06
1554105126083,8.724471000000001,-3.1322143,2.8101943,0.16831179,-0.17470337,0.098004326,-10.56,52.8,-14.88
1554105126103,8.643068,-3.2136172999999997,2.9107506,0.20772657,-0.17789917,0.084155895,-10.5,52.86,-14.82
1554105126123,8.868122999999999,-3.0747535,3.020884,0.25566345,-0.18216023,0.06178534,-10.32,53.1,-14.58
1554105126143,8.791509,-3.031658,3.1118636000000004,0.25672874,-0.18109496,0.04474111,-10.14,53.28,-14.4
1554105126163,8.987833,-3.0603882999999996,3.2746694,0.24394555,-0.16831179,0.03834952,-9.96,53.52,-14.28
1554105126183,8.959103,-3.093907,3.0065188,0.21837921,-0.1587244,0.029827405,-9.78,53.76,-14.22
1554105126203,8.825027,-3.0172927000000005,3.2603042,0.19387813,-0.14913702,0.015978966,-9.66,54.0,-14.28
1554105126222,8.762777999999999,-3.0508115,3.2411506,0.18535602,-0.1438107,0.00958738,-9.54,54.18,-14.34
1554105126242,8.786719999999999,-2.9406781000000004,3.2603042,0.19174760000000002,-0.11824436,-0.007456851,-9.36,54.36,-14.46
1554105126262,8.839393,-3.0747535,3.2890346,0.17896444,-0.08735169,-0.020240024,-9.24,54.42,-14.52
1554105126283,8.7292595,-3.0651767000000003,3.245939,0.13635385,-0.06178534,-0.043675844000000005,-9.12,54.48,-14.64
1554105126302,8.724471000000001,-3.0172927000000005,3.2794578000000003,0.07776430000000001,-0.05006743,-0.06924219,-9.06,54.54,-14.7
1554105126322,8.767567,-3.1082723,3.0974984,0.040480047000000005,-0.043675844000000005,-0.099069595,-9.0,54.54,-14.82
1554105126343,8.719683,-3.2040405,3.020884,0.025566347000000003,-0.03089267,-0.12783173,-8.94,54.54,-15.0
1554105126362,8.734048,-3.1322143,2.8868085999999997,0.012783173500000002,0.002130529,-0.1438107,-8.88,54.54,-15.18
1554105126383,8.7053175,-3.0603882999999996,2.8868085999999997,-0.025566347000000003,0.03089267,-0.14274544,-8.82,54.48,-15.36
1554105126403,8.6574335,-3.1322143,2.7383683,-0.07030745599999999,0.04261058,-0.13741912,-8.82,54.48,-15.48
1554105126422,8.576031,-3.0651767000000003,2.7431567,-0.16298546,0.034088463,-0.12357068,-8.82,54.48,-15.6
1554105126442,8.700529,-3.141791,2.6521769,-0.22796659,0.011717908999999999,-0.10972224,-8.82,54.42,-15.72
1554105126463,8.743625,-3.1753099999999996,2.7527334999999997,-0.2727077,-0.008522116,-0.101200126,-8.82,54.42,-15.78
1554105126483,8.748413000000001,-3.1657330000000004,2.747945,-0.28016454,-0.007456851,-0.082025364,-8.82,54.36,-15.9
1554105126503,8.75799,-3.2950199999999996,2.6617537000000002,-0.26312032,0.00958738,-0.05539375,-8.82,54.36,-15.84
1554105126523,8.7771435,-3.2375592999999996,2.891597,-0.23542345,0.007456851,-0.037284255,-8.88,54.3,-15.78
1554105126542,8.7532015,-3.2184057,2.9107506,-0.19600865,-0.022370555,-0.035153727999999995,-8.88,54.24,-15.78
1554105126562,8.844180999999999,-3.3333273,2.891597,-0.13528858,-0.046871635999999994,-0.036218993,-8.94,54.24,-15.72
1554105126583,8.762777999999999,-3.2998084999999997,3.1405939999999997,-0.05752428,-0.05219796,-0.037284255,-9.0,54.24,-15.66
1554105126603,8.719683,-3.2231941,2.891597,0.0063915867,-0.039414786,-0.03089267,-9.06,54.24,-15.54
1554105126622,8.676587,-3.2806550000000003,2.843713,0.020240024,-0.023435817999999997,-0.022370555,-9.06,54.18,-15.24
1554105126643,8.643068,-3.1322143,2.8485014,-0.007456851,-0.014913702,-0.010652645,-9.12,54.12,-15.06
1554105126663,8.801085,-3.1226375,2.9011737999999996,-0.05219796,-0.020240024,0.0031957934000000003,-9.18,54.06,-14.82
1554105126683,8.892064999999999,-3.2375592999999996,2.9682117000000003,-0.06604639400000001,-0.02130529,-0.0010652645,-9.18,54.0,-14.58
1554105126702,8.90643,-3.2710779999999997,2.9299042,-0.046871635999999994,-0.010652645,-0.0053263223,-9.18,53.94,-14.4
1554105126723,8.868122999999999,-3.1800982999999996,2.9346926,-0.017044231,0.004261058,-0.002130529,-9.18,53.82,-14.16
1554105126743,8.949525999999999,-3.1465794999999996,2.9299042,-0.012783173500000002,0.015978966,-0.004261058,-9.18,53.76,-13.98
1554105126763,8.805874000000001,-3.031658,3.0544027999999996,-0.035153727999999995,0.033023197000000004,-0.007456851,-9.24,53.7,-13.86
1554105126782,8.853758000000001,-3.1465794999999996,2.9682117000000003,-0.07243799,0.04261058,-0.00958738,-9.3,53.58,-13.92
1554105126802,8.7532015,-3.0747535,2.9682117000000003,-0.113983296,0.04580637,-0.020240024,-9.36,53.58,-13.86
1554105126823,8.7053175,-3.1082723,3.0974984,-0.12463594,0.054328485999999995,-0.033023197000000004,-9.42,53.52,-13.86
1554105126842,8.7053175,-3.2184057,2.9969419999999998,-0.113983296,0.05965481,-0.036218993,-9.48,53.52,-13.86
1554105126862,8.748413000000001,-3.2758665000000002,2.8820202,-0.10333065,0.06391586,-0.05219796,-9.54,53.52,-13.86
1554105126883,8.695741,-3.1753099999999996,2.8628666000000003,-0.1107875,0.06924219,-0.07030745599999999,-9.6,53.52,-13.86
1554105126903,8.791509,-3.1800982999999996,2.8293478,-0.13528858,0.07137272,-0.082025364,-9.66,53.46,-13.86
1554105126922,8.781932000000001,-3.1609447,2.795829,-0.15659387,0.06604639400000001,-0.09267801,-9.66,53.46,-13.8
1554105126942,8.772355000000001,-3.1657330000000004,2.8389246,-0.165116,0.06924219,-0.096939065,-9.66,53.46,-13.8
1554105126963,8.887277000000001,-3.232771,2.7287915000000003,-0.17363810000000002,0.06711166,-0.10652645,-9.6,53.4,-13.8
1554105126983,8.767567,-3.2471360000000002,2.6473885,-0.19387813,0.06924219,-0.11930962,-9.6,53.4,-13.74
1554105127002,8.748413000000001,-3.2471360000000002,2.6330232999999996,-0.23329292,0.07456851,-0.12144015,-9.6,53.34,-13.68
1554105127022,8.892064999999999,-3.208829,2.6234465,-0.28016454,0.082025364,-0.12996227,-9.6,53.28,-13.62
1554105127042,8.892064999999999,-3.3524809999999996,2.8149827000000003,-0.31638354,0.08522116,-0.13635385,-9.66,53.28,-13.56
1554105127062,8.983044999999999,-3.3333273,2.9538465,-0.33768883,0.08735169,-0.12783173,-9.66,53.22,-13.38
1554105127082,8.992621,-3.4674027,2.9059622000000003,-0.33129725,0.07989483,-0.11611383,-9.66,53.16,-13.26
1554105127102,9.11712,-3.4434607,2.8580782000000005,-0.30679616,0.07882957,-0.08522116,-9.66,53.1,-13.08
1554105127123,9.088389,-3.615843,2.747945,-0.27377295,0.09161274,-0.053263225,-9.72,53.04,-12.9
1554105127142,8.978256,-3.4721910000000005,2.747945,-0.24927188,0.11504856,-0.01917476,-9.72,52.98,-12.72
1554105127162,8.695741,-3.5296519,2.7335799,-0.23968449999999997,0.13209279,0.027696876000000002,-9.78,52.86,-12.54
1554105127183,8.556877,-3.6014779000000003,2.7048495,-0.25672874,0.13635385,0.07776430000000001,-9.78,52.74,-12.36
1554105127203,8.51857,-3.5248635000000004,2.5372553,-0.2908172,0.13848437,0.13102753,-9.78,52.56,-12.18
1554105127222,8.599973,-3.6780925000000004,2.40318,-0.36964676,0.128897,0.22264028,-9.78,52.44,-12.06
1554105127243,8.451532,-3.793014,2.2164322999999997,-0.39521313,0.12144015,0.2609898,-9.78,52.26,-11.94
1554105127262,8.461109,-3.74513,2.0679917000000003,-0.40373522,0.10865697,0.30892670000000005,-9.78,52.14,-11.76
1554105127283,8.532935,-3.9893386,2.0153193,-0.39308259999999995,0.09054748,0.33875409999999995,-9.78,52.02,-11.58
1554105127303,8.623915,-3.946243,1.9387047999999998,-0.386691,0.068176925,0.35260254,-9.72,51.9,-11.4
1554105127322,8.561666,-3.9749733999999997,1.9626468000000001,-0.39414784,0.047936900000000005,0.35473305,-9.66,51.9,-11.16
1554105127342,8.580819,-3.970185,1.9339164,-0.4101268,0.025566347000000003,0.34621096,-9.6,51.84,-10.98
1554105127363,8.590396,-4.032433999999999,1.8764555,-0.41971418,-0.014913702,0.3057309,-9.48,51.84,-10.74
1554105127382,8.441956,-4.018069000000001,2.0344729999999998,-0.41971418,-0.046871635999999994,0.25566345,-9.36,51.96,-10.5
1554105127402,8.480263,-3.9749733999999997,2.0775685,-0.41864893,-0.07243799,0.21092236,-9.18,52.02,-10.14
1554105127423,8.441956,-3.9270894999999997,2.0440497,-0.41438788,-0.06604639400000001,0.17363810000000002,-9.06,52.08,-9.78
1554105127442,8.355764,-3.8935703999999998,2.2307975,-0.4282363,-0.047936900000000005,0.13848437,-8.88,52.08,-9.42
1554105127463,8.336611,-3.7594953,2.2930467,-0.46019423,-0.034088463,0.101200126,-8.76,52.14,-9.18
1554105127483,8.379706,-3.74513,2.475006,-0.50813115,-0.015978966,0.05539375,-8.64,52.14,-8.88
1554105127504,8.542512,-3.769072,2.345719,-0.5571333,0.027696876000000002,0.004261058,-8.52,52.2,-8.58
1554105127522,8.63828,-3.769072,2.460641,-0.6103965,0.11504856,-0.046871635999999994,-8.34,52.2,-8.22
1554105127543,8.6574335,-3.9223008000000004,2.475006,-0.69774824,0.21837921,-0.11717909,-8.28,52.14,-7.86
1554105127562,8.667010000000001,-3.7834373,2.6521769,-0.82344943,0.30466563,-0.18109496,-8.22,52.08,-7.5
1554105127583,8.805874000000001,-3.8313212,2.460641,-0.9683254000000001,0.36218992,-0.23648871,-8.16,51.9,-7.26
1554105127603,9.035717,-3.9845502,2.5037365,-1.1132014,0.4261058,-0.27164245,-8.1,51.6,-7.02
1554105127623,8.892064999999999,-4.065953299999999,2.5276785,-1.2314457,0.5134575,-0.294013,-8.1,51.0,-6.48
1554105127643,8.805874000000001,-4.1665095999999995,2.3505075,-1.325189,0.60933125,-0.28229508,-8.1,50.82,-6.24
1554105127663,8.825027,-4.2622776,2.321777,-1.4253238000000001,0.6775081999999999,-0.26312032,-8.16,50.4,-5.7
1554105127682,8.767567,-4.2814309999999995,2.3505075,-1.5094798,0.7456851,-0.24074976,-8.22,49.92,-5.16
1554105127702,8.719683,-4.3963529999999995,2.417545,-1.5701998,0.8277104999999999,-0.2130529,-8.52,48.96,-4.26
1554105127723,8.6574335,-4.5687356,2.4941597,-1.587244,0.8809737,-0.19813919,-8.7,48.48,-4.02
1554105127743,8.796297000000001,-4.611831,2.3744495,-1.6096146,0.9491506,-0.18216023,-9.06,47.58,-3.36
1554105127762,8.829816000000001,-4.9135003,2.28347,-1.6405072,1.0120013,-0.16085494,-9.48,46.74,-2.7
1554105127782,8.6574335,-5.1624975,2.082357,-1.6660736,1.067395,-0.112918034,-10.08,45.36,-1.74
1554105127804,8.437167,-5.4402246,2.0536265,-1.6628778000000002,1.0801781000000001,-0.06498113,-10.5,44.22,-1.14
1554105127823,8.279149,-5.3971290000000005,2.144606,-1.6458336,1.0610034,-0.0031957934000000003,-10.86,42.84,-0.6
1554105127843,8.0924015,-5.617396,2.178125,-1.5755261,1.0237192,0.07243799,-11.16,41.46,0.06
1554105127863,8.0924015,-5.828085400000001,1.977012,-1.4636733999999998,0.9736517,0.14594123,-11.52,40.2,0.66
1554105127883,7.905653999999999,-5.976526,2.0440497,-1.2985574,0.9193232,0.17576863,-11.88,39.0,1.14
1554105127902,7.728483,-6.1632739999999995,2.1493945,-1.0961571,0.8543421,0.18002969,-12.24,37.74,1.56
1554105127923,7.465121000000001,-6.1489085999999995,2.168548,-0.8831041999999999,0.7946873000000001,0.17576863,-12.6,36.48,1.98
1554105127942,7.1730285,-6.177639,2.168548,-0.6945524000000001,0.7275756,0.16937704,-12.96,35.22,2.34
1554105127962,6.9862804,-6.393117,2.0919337,-0.5432849000000001,0.6540724,0.15446335,-13.38,34.02,2.64
1554105127982,6.943185000000001,-6.4601545,1.9722236000000002,-0.42717105,0.57098174,0.10439592,-13.8,33.06,2.82
1554105128002,6.756437299999999,-6.637326,2.0919337,-0.31318775,0.46871635,0.0031957934000000003,-14.28,32.22,2.88
1554105128023,6.531382,-6.8049197,2.0296845,-0.2609898,0.39947417,-0.068176925,-14.76,31.44,2.94
1554105128042,6.167464,-6.642114,2.235586,-0.23755397,0.34301516,-0.08841695,-15.18,30.72,3.0
1554105128062,6.0860605,-6.546346,2.2547395,-0.2609898,0.31957933,-0.046871635999999994,-15.54,30.18,3.06
1554105128082,5.961562000000001,-6.713939999999999,2.4366987,-0.31212249999999997,0.32490566,0.017044231,-15.9,29.52,3.12
1554105128103,5.7843914000000005,-6.632537400000001,2.4797945,-0.3898868,0.32384038,0.07137272,-16.2,28.98,3.18
1554105128122,5.631162000000001,-6.5511346,2.4702177000000005,-0.43888897,0.30253512,0.111852765,-16.5,28.5,3.18
1554105128143,5.5018754,-6.6469026,2.5468319999999998,-0.45486793,0.2609898,0.15978967,-16.74,28.08,3.06
1554105128162,5.473145,-6.656479400000001,2.144606,-0.42077947,0.21198763,0.18961707,-16.92,27.66,3.0
1554105128182,5.410896,-6.7283053,2.0105310000000003,-0.3536678,0.13954964,0.21624869,-16.98,27.3,2.94
1554105128202,5.588066599999999,-6.627749000000001,2.0679917000000003,-0.28655612,0.03195793,0.22370553,-16.98,27.0,2.82
1554105128222,5.722142,-6.7187285,2.0488381,-0.22477080000000002,-0.09374327,0.22370553,-17.04,26.7,2.76
1554105128243,5.990292500000001,-6.848015299999999,2.1254525,-0.15659387,-0.19281286,0.23968449999999997,-16.98,26.58,2.64
1554105128263,6.05733,-6.8671690000000005,1.9626468000000001,-0.10546118,-0.23435818,0.25992453,-17.04,26.52,2.58
1554105128282,6.2153480000000005,-6.800131299999999,1.9339164,-0.10759171,-0.257794,0.28016454,-17.04,26.52,2.52
1554105128303,6.363788,-6.7905545,1.9434932,-0.17576863,-0.31957933,0.294013,-17.04,26.52,2.52
1554105128322,6.4404025,-6.843227000000001,2.1398177000000005,-0.23009712,-0.39627838,0.30999196,-17.04,26.46,2.58
1554105128343,6.5026517,-6.843227000000001,2.0679917000000003,-0.24394555,-0.46339005,0.34408042,-16.98,26.52,2.7
1554105128363,6.8569937,-6.8719573,2.1924900000000003,-0.20879184,-0.49747851,0.38562572,-16.74,26.58,3.0
1554105128382,7.0724716,-6.9198413,2.1398177000000005,-0.15233281,-0.45380265,0.43036684,-16.38,26.58,3.24
1554105128402,7.584830800000001,-6.986878999999999,1.9147629000000002,-0.12463594,-0.3270362,0.4825648,-16.02,26.64,3.6
1554105128422,8.010999,-6.9820905,1.4167688999999999,-0.15020229,-0.16298546,0.51026165,-15.66,26.7,3.9
1554105128442,8.0924015,-6.929417999999999,1.1438298,-0.25140239999999997,-0.026631612000000002,0.5134575,-15.3,26.76,4.14
1554105128463,8.020576,-6.8719573,0.9044097,-0.40586576,0.051132694000000006,0.5209143,-14.94,26.82,4.44
1554105128482,7.6853875999999985,-6.929417999999999,0.81343,-0.5699165,0.06924219,0.5539375,-14.58,27.0,4.68
1554105128503,7.8050976,-7.154473299999999,0.8230068000000001,-0.6679208000000001,0.060720075,0.59122175,-14.28,27.06,4.8
1554105128523,7.776367,-7.365163000000001,0.74639237,-0.67537767,0.06604639400000001,0.57417756,-14.04,27.18,4.86
1554105128543,7.680599000000001,-7.5471225,0.47824179999999994,-0.62531024,0.09587380000000001,0.5273059,-13.86,27.3,4.92
1554105128562,7.2448545,-7.5710645,0.4878186,-0.55606806,0.13635385,0.47404268,-13.62,27.36,4.92
1554105128582,6.7372837,-7.484873299999999,0.45908818,-0.52411014,0.14487597,0.43356264,-13.38,27.42,4.98
1554105128602,6.2105594,-7.389105000000001,0.28191724,-0.5592638000000001,0.11824436,0.41864893,-12.96,27.42,5.16
1554105128624,5.8274870000000005,-7.49445,0.41120413,-0.60080916,0.08948222,0.4165184,-12.72,27.3,5.4
1554105128642,5.755661,-7.829638,0.46387658,-0.61678815,0.06604639400000001,0.41545314,-12.6,27.18,5.58
1554105128663,5.4396260000000005,-8.011598,0.26276365,-0.5581986,0.039414786,0.40266997,-12.3,26.88,6.06
1554105128683,5.2002063,-8.174403,0.11432313,-0.46871635,0.036218993,0.38349520000000004,-12.18,26.64,6.42
1554105128702,4.865018,-8.217499,0.037708677,-0.3685815,0.033023197000000004,0.34514567,-12.12,26.4,6.78
1554105128722,4.6160207,-8.365939,-0.077213004,-0.29188246,0.013848438000000001,0.3270362,-12.12,26.16,7.2
1554105128742,4.6399627,-8.57184,-0.31184477,-0.23861924,-0.01917476,0.29507825,-12.18,25.86,7.56
1554105128762,4.55856,-8.820838,-0.31663316,-0.19281286,-0.056459017,0.26205507,-12.18,25.56,7.86
1554105128783,4.572925,-9.194333,-0.42197806,-0.11930962,-0.13315806,0.25672874,-12.18,25.32,8.1
1554105128803,4.405330999999999,-9.165602999999999,-0.40761283,-0.049002163,-0.18429075,0.26844665,-12.18,25.08,8.28
1554105128823,4.434061499999999,-9.251794,-0.57520694,0.06498113,-0.25566345,0.29507825,-12.18,24.84,8.4
1554105128842,4.189853,-9.433753,-0.5847838000000001,0.15446335,-0.3536678,0.33449304,-12.18,24.66,8.52
1554105128863,3.9600096,-9.385869,-0.7284359,0.20240025,-0.5273059,0.38562572,-12.06,24.48,8.58
1554105128883,3.6391866000000004,-9.376292,-0.55126494,0.22690132,-0.700944,0.4314321,-11.88,24.42,8.64
1554105128903,3.6248214,-9.476849000000001,-0.41718966,0.27696875,-0.8426242,0.46765109999999993,-11.7,24.54,8.7
1554105128922,3.5625722,-9.59177,-0.5177461,0.4250405,-1.0322412,0.50387007,-11.4,24.72,8.76
1554105128942,3.4620156000000004,-9.534309,-0.43155485,0.64555025,-1.2303803999999998,0.5390238,-11.04,24.96,8.82
1554105128963,3.3758245000000002,-9.558251,-0.38367084,0.77125144,-1.3283848,0.55074173,-10.5,25.32,8.88
1554105128982,3.4093432,-9.59177,-0.30705637,0.93423694,-1.4402375,0.572047,-9.78,25.86,8.94
1554105129003,3.1986535,-9.543886,-0.54168814,0.9917611999999999,-1.4966966,0.58909124,-8.88,26.7,9.0
1554105129023,3.2752678,-9.428965,-0.3597288,1.0066749,-1.5297197,0.60080916,-7.86,27.78,9.12
1554105129043,3.265691,-9.242217,-0.350152,1.0013485999999998,-1.5574166999999999,0.60507023,-6.78,28.86,9.3
1554105129063,3.0789435000000003,-9.270947,-0.47465047,0.9736517,-1.5968314,0.59122175,-5.64,30.06,9.42
1554105129082,3.2992098,-9.333197,-0.65660983,0.9108011,-1.6596819999999999,0.5656554,-4.44,31.5,9.66
1554105129103,3.5146879999999996,-9.558251,-0.5847838000000001,0.8277104999999999,-1.7470337,0.5134575,-3.3,33.06,9.78
1554105129123,3.7301662,-9.59177,-0.57999533,0.7850999,-1.8397116999999998,0.44634579999999996,-2.1,34.56,9.9
1554105129142,3.8690300000000004,-9.677961,-0.6039374,0.7776430000000001,-1.9387813000000003,0.38349520000000004,-0.78,35.88,9.96
1554105129162,4.237737,-9.610924,-0.43634325,0.7914915,-2.0357203,0.32597092,0.48,37.14,9.96
1554105129182,4.343082,-9.558251,-0.374094,0.86179894,-2.1134846,0.3153183,1.86,38.22,9.9
1554105129202,4.4196963,-9.065046,-0.31663316,1.015197,-2.1486384999999997,0.37390783,3.24,39.36,9.78
1554105129222,4.5441947,-8.787319,-0.3645172,1.1994878,-2.1326593999999996,0.4644553,4.68,40.5,9.54
1554105129243,4.606444000000001,-8.476072,-0.36930559999999996,1.2911005,-2.0900488,0.5336975,6.06,41.64,9.12
1554105129263,4.5537715,-7.992444,-0.26874915,1.2783173,-2.0335898,0.58483016,7.5,42.78,8.58
1554105129282,4.6160207,-7.934983,-0.12030864,1.2239889,-1.9568908,0.6114618,8.94,43.86,8.04
1554105129302,4.6016555,-7.939771,-0.30226797,1.1132014,-1.8535602,0.60720074,10.44,45.06,7.32
1554105129323,4.7022123,-8.164826,-0.55605334,0.9289106,-1.7278589,0.5592638000000001,11.88,46.14,6.54
1554105129342,4.7644614999999995,-8.255806,-0.3597288,0.7041398,-1.5893745000000001,0.48363006,13.2,47.34,5.64
1554105129363,4.6782703,-8.72507,-0.3357868,0.5219796,-1.4668691,0.39308259999999995,14.4,48.54,4.68
1554105129383,4.6255975,-9.021951,-0.52253455,0.39840892,-1.3528858,0.26205507,16.14,49.92,3.06
1554105129402,4.644751,-9.146449,-0.4794389,0.35153726,-1.3092101,0.19600865,16.68,50.22,2.52
1554105129423,4.501099,-9.055469500000001,-0.54168814,0.28549087,-1.2804478000000001,0.14487597,17.76,50.88,1.44
1554105129443,4.333505000000001,-8.897452000000001,-0.31184477,0.20133498,-1.293231,0.13422333,18.72,51.48,0.48
1554105129463,4.189853,-8.81605,-0.29747957,0.08735169,-1.3432984,0.1587244,19.38,51.96,-0.36
1554105129482,3.9408559999999997,-8.672397,0.02813187,-0.015978966,-1.4029533,0.19813919,20.16,52.62,-1.32
1554105129503,3.6248214,-8.782531,0.28191724,0.00958738,-1.4402375,0.20133498,20.64,52.92,-1.8
1554105129523,3.3758245000000002,-8.768166,0.3585317,0.15659387,-1.4689997,0.18961707,21.3,53.28,-2.22
1554105129543,3.2369606,-8.729858,0.47824179999999994,0.35792887,-1.4945661,0.15552860000000002,21.9,53.52,-2.64
1554105129562,2.9783869,-8.705916,0.14305355,0.5230448000000001,-1.5361114,0.12037488,22.44,53.76,-3.06
1554105129583,2.882619,-8.509591,0.109534726,0.58056915,-1.5893745000000001,0.09054748,22.98,54.0,-3.66
1554105129603,2.8874072999999996,-8.624513,-0.091578215,0.55287224,-1.6405072,0.06924219,23.52,54.3,-4.32
1554105129622,3.0502129,-8.768166,-0.25438392,0.48149952,-1.6724651999999998,0.04474111,24.06,54.48,-5.1
1554105129643,2.96881,-9.017161999999999,-0.31184477,0.41971418,-1.6852484,0.035153727999999995,24.54,54.66,-6.0
1554105129662,2.9257145,-9.1512375,-0.16340427,0.406931,-1.6969663000000001,0.04261058,24.96,54.72,-6.96
1554105129683,2.9975405,-9.227852,-0.18255788,0.45273739999999996,-1.7257284,0.07030745599999999,25.26,54.72,-8.16
1554105129704,2.9592332999999997,-9.294889,-0.29747957,0.5049353,-1.75236,0.09161274,25.62,54.72,-9.3
1554105129723,2.9352913,-9.136872,-0.40282443,0.5773733,-1.7917749,0.13528858,26.1,54.72,-10.44
1554105129743,3.1411927000000004,-9.179967999999999,-0.56563014,0.5997439,-1.8194717,0.15126756,26.46,54.78,-11.64
1554105129762,3.169923,-9.050680999999999,-0.4842273,0.60720074,-1.8407769,0.15126756,26.82,54.84,-12.9
1554105129782,3.3087866000000004,-9.093777000000001,-0.7140707,0.5954828000000001,-1.8556907,0.12463594,27.06,54.9,-14.16
1554105129803,3.2992098,-9.021951,-0.7380127,0.5699165,-1.8556907,0.09374327,27.36,54.96,-15.36
1554105129823,3.4237084,-9.050680999999999,-0.8050503000000001,0.5390238,-1.8439728,0.07776430000000001,27.6,55.08,-16.56
1554105129842,3.4476504,-8.974067,-1.0301052,0.49747851,-1.8056233,0.08841695,27.84,55.2,-17.64
1554105129862,3.5098996,-8.998009,-0.87687635,0.47723848,-1.7757957999999998,0.10759171,27.96,55.32,-18.84
1554105129883,3.4237084,-8.825626,-0.98222125,0.49747851,-1.7022926,0.1438107,27.96,55.38,-20.04
1554105129903,3.371036,-8.677185,-0.8960299999999999,0.5209143,-1.6479641,0.17789917,27.96,55.44,-21.18
1554105129923,3.2944214,-8.4664955,-1.1210848999999998,0.5219796,-1.6096146,0.20453078,27.96,55.44,-22.38
1554105129942,3.2752678,-8.476072,-1.1976993999999999,0.4825648,-1.5787219,0.21092236,27.96,55.38,-23.58
1554105129962,3.3183637000000004,-8.523956,-1.216853,0.41864893,-1.5531555000000001,0.19174760000000002,27.9,55.26,-24.9
1554105129983,3.3327288999999998,-8.782531,-1.1881226,0.29933932,-1.5148059999999999,0.14487597,27.84,55.08,-26.28
1554105130002,3.2992098,-9.146449,-1.2024878,0.1949434,-1.4615428,0.082025364,27.72,54.84,-27.6
1554105130023,3.3566709,-9.577405,-1.2743138,0.11930962,-1.3965617000000001,0.039414786,27.48,54.54,-28.86
1554105130043,3.2992098,-9.807249,-1.192911,0.054328485999999995,-1.3273195,0.01917476,27.24,54.24,-29.94
1554105130063,3.2273839,-9.950901,-1.3700819,0.01917476,-1.2591426000000001,0.011717908999999999,26.88,53.94,-30.96
1554105130082,3.2321722999999998,-10.286089,-1.4083891000000002,-0.008522116,-1.1877699,0.011717908999999999,26.52,53.64,-31.86
1554105130102,3.1411927000000004,-10.34355,-1.4466964,-0.024501082,-1.128115,0.017044231,26.1,53.34,-32.64
1554105130122,2.9735985,-10.338761,-1.3700819,-0.008522116,-1.0759171,0.026631612000000002,25.74,53.16,-33.48
1554105130143,2.8969840000000002,-10.190321,-1.3796587,-0.0063915867,-1.0354371,0.060720075,25.38,52.98,-34.26
1554105130163,2.7629087,-10.070611,-1.073201,-0.014913702,-1.0183928,0.113983296,25.02,52.86,-34.92
1554105130182,2.4899697,-9.845556,-1.049259,-0.036218993,-1.019458,0.15552860000000002,24.72,52.68,-35.46
1554105130202,2.552219,-9.711481,-0.7380127,-0.051132694000000006,-1.0301107,0.17257284,24.48,52.56,-36.06
1554105130222,2.4372973,-9.496002,-0.6183026,-0.013848438000000001,-1.0343717,0.16937704,24.36,52.38,-36.54
1554105130242,2.3032220000000003,-9.563039999999999,-0.4842273,0.06498113,-1.0258497,0.14807177,24.24,52.08,-37.02
1554105130262,2.2266076,-9.462483,-0.6374562,0.14487597,-1.010936,0.10226539,24.06,51.66,-37.62
1554105130282,2.2074540000000002,-9.47206,-0.6135142,0.18748654,-0.9981528000000001,0.068176925,23.82,51.3,-37.92
1554105130302,2.1260512,-9.563039999999999,-0.83378077,0.19813919,-0.9715212,0.046871635999999994,23.52,51.0,-38.16
1554105130322,2.0925324,-9.558251,-0.9247603999999999,0.18855181,-0.9374326999999999,0.04261058,23.34,50.88,-38.34
1554105130343,2.0925324,-9.697116000000001,-0.8098387,0.16405073,-0.88843054,0.034088463,23.04,50.58,-38.7
1554105130362,2.1212628,-9.86471,-0.99658644,0.20133498,-0.83942837,0.024501082,22.74,50.34,-39.12
1554105130384,2.1978772,-9.711481,-1.0827777,0.30253512,-0.7861651999999999,0.033023197000000004,22.14,50.04,-39.84
1554105130403,2.3654714,-9.697116000000001,-1.1546037,0.3568636,-0.73822826,0.05539375,21.6,49.86,-40.44
1554105130423,2.4085669999999997,-9.601347,-1.073201,0.31212249999999997,-0.69029135,0.08522116,21.12,49.62,-41.1
1554105130443,2.432509,-9.596559,-1.0971429,0.24607609,-0.6498113,0.099069595,20.82,49.32,-41.7
1554105130463,2.4133554,-9.553463,-0.96785605,0.21837921,-0.61891866,0.10013486,20.7,49.14,-42.0
1554105130483,2.4085669999999997,-9.342773,-0.7284359,0.24181503,-0.567786,0.07030745599999999,20.34,48.72,-42.84
1554105130503,2.3798366,-9.366715,-0.95827925,0.25033715,-0.5305017,0.03834952,20.04,48.42,-43.26
1554105130522,2.27928,-9.160814,-0.7954735,0.20772657,-0.49321744,0.00958738,19.74,48.18,-43.62
1554105130542,2.3654714,-9.218275,-0.84335756,0.16192019,-0.45486793,-0.026631612000000002,19.38,47.88,-43.92
1554105130563,2.3032220000000003,-9.452907000000002,-0.6278794,0.15126756,-0.39947417,-0.06391586,19.2,47.64,-44.16
1554105130583,2.1739352000000003,-9.433753,-0.56563014,0.15978967,-0.35899413,-0.080960095,18.96,47.46,-44.4
1554105130602,2.0829554,-9.467272,-0.7044938000000001,0.16831179,-0.31638354,-0.094808534,18.72,47.28,-44.58
1554105130623,2.1021092,-9.524733,-0.7763199000000001,0.14274544,-0.27590349999999997,-0.10652645,18.54,47.04,-44.82
1554105130642,1.9057846,-9.582193,-0.66618663,0.12250541,-0.24820662,-0.10333065,18.36,46.74,-45.06
1554105130663,1.9440918000000003,-9.725846,-0.8050503000000001,0.096939065,-0.221575,-0.094808534,18.18,46.44,-45.3
1554105130682,1.8531121,-9.807249,-0.9295488000000001,0.06391586,-0.21837921,-0.06924219,18.06,46.08,-45.54
1554105130703,1.8962077000000002,-9.888652,-0.7380127,0.060720075,-0.23968449999999997,-0.00958738,17.88,45.78,-45.78
1554105130722,1.7669207999999998,-9.98442,-0.6326678000000001,0.10972224,-0.26525086,0.07137272,17.64,45.48,-46.08
1554105130742,1.7764976000000003,-10.046669,-0.6422445999999999,0.20559604,-0.28229508,0.16085494,17.4,45.3,-46.26
1554105130763,1.8770541,-9.979631,-0.6278794,0.29933932,-0.27164245,0.2545982,17.1,45.18,-46.5
1554105130783,2.0207062,-10.032304,-0.5081693,0.3717773,-0.2428803,0.33129725,16.86,45.06,-46.74
1554105130803,2.054225,-10.056246,-0.43634325,0.44421527,-0.19813919,0.386691,16.62,45.0,-46.92
1554105130822,2.2074540000000002,-10.161591,-0.41240123,0.5411543000000001,-0.14594123,0.42290998,16.44,44.94,-47.1
1554105130844,2.2505496,-10.046669,-0.31184477,0.5944176,-0.096939065,0.44634579999999996,16.26,44.82,-47.28
1554105130863,2.2601264,-10.017939,-0.3357868,0.5571333,-0.054328485999999995,0.47191215,16.2,44.64,-47.46
1554105130883,2.2888567,-9.783307,-0.25917232,0.46658584,-0.02876214,0.49108690000000005,16.32,44.22,-47.64
1554105130903,2.1883004,-9.77373,-0.038905777,0.37071204,-0.022370555,0.51026165,16.44,43.8,-47.88
1554105130923,2.0590134,-9.654019,0.18614918,0.32170987,-0.033023197000000004,0.52411014,16.5,43.32,-48.18
1554105130944,2.0159178,-9.519944,0.47824179999999994,0.33662358,-0.058589544,0.5336975,16.74,42.78,-48.48
1554105130963,1.8579005000000002,-9.333197,0.6697779,0.39627838,-0.09267801,0.5400891,16.92,42.18,-48.78
1554105130982,1.7860744999999998,-9.448118,0.7032967,0.47617322,-0.11930962,0.531567,17.1,41.46,-49.08
1554105131003,1.7046716,-9.318831,0.64583594,0.5592638000000001,-0.13954964,0.5049353,17.22,40.68,-49.32
1554105131023,1.5705963,-9.242217,0.9044097,0.6199839,-0.16192019,0.44847634,17.46,39.9,-49.62
1554105131042,1.3886370000000001,-9.199121,1.0911574,0.63383234,-0.17896444,0.38242993,17.64,39.24,-49.92
1554105131063,1.3024458,-9.247005,0.99060094,0.5997439,-0.18642128,0.2972088,17.88,38.22,-50.34
1554105131083,1.2641385,-9.227852,1.2012907,0.5496765,-0.17363810000000002,0.25566345,18.0,37.86,-50.46
1554105131103,1.2114661,-9.266159,1.062427,0.46658584,-0.13848437,0.21837921,18.12,37.14,-50.82
1554105131123,1.0965444,-9.136872,1.4024036,0.36645097,-0.096939065,0.19387813,18.24,36.6,-51.18
1554105131143,1.0007763,-9.108141999999999,1.5316905,0.2695119,-0.056459017,0.17576863,18.42,35.76,-51.72
1554105131162,0.93373865,-9.328408,1.6753427,0.17576863,-0.0053263223,0.15339808,18.48,35.4,-52.14
1554105131183,0.7182605,-9.170391,1.7232267,0.13422333,0.036218993,0.14168017,18.6,34.98,-52.5
1554105131202,0.59376204,-9.328408,1.7184383,0.13209279,0.068176925,0.12570119999999999,18.66,34.62,-52.74
1554105131222,0.56982,-9.366715,1.7711107,0.13954964,0.083090626,0.101200126,18.66,34.2,-52.98
1554105131243,0.45010993,-9.371504,1.8189948,0.15233281,0.09267801,0.07456851,18.72,33.84,-53.1
1554105131265,0.37349546,-9.409811,1.7567455,0.15446335,0.1107875,0.046871635999999994,18.72,33.54,-53.22
1554105131283,0.29209262,-9.491214,1.6274586000000002,0.14274544,0.12996227,0.029827405,18.78,33.12,-53.28
1554105131304,0.22984336,-9.625289,1.4550761,0.12144015,0.16085494,0.02130529,18.78,32.76,-53.34
1554105131323,0.19632454,-9.721058,1.4742297,0.09374327,0.19707392,0.015978966,18.9,32.46,-53.4
1554105131344,0.08140286,-9.821614,1.2491747,0.06391586,0.22370553,0.023435817999999997,19.08,32.22,-53.46
1554105131363,0.08140286,-9.826402999999999,1.3305776000000002,0.036218993,0.2428803,0.046871635999999994,19.26,31.98,-53.46
1554105131382,-0.14844051,-9.879075,1.1629834,0.007456851,0.25033715,0.07776430000000001,19.44,31.8,-53.52
1554105131402,-0.23463176,-9.788095,1.0576386,-0.034088463,0.23861924,0.12037488,19.62,31.68,-53.52
1554105131423,-0.2825158,-9.740211500000001,1.311424,-0.06711166,0.22690132,0.16831179,19.74,31.56,-53.52
1554105131443,-0.49320555,-9.922171,1.3688848,-0.084155895,0.20133498,0.20772657,19.92,31.5,-53.52
1554105131462,-0.58418524,-9.812037,1.3257892,-0.07989483,0.16937704,0.26418558,20.04,31.5,-53.58
1554105131482,-0.6991069000000001,-9.974843,1.38325,-0.05539375,0.16405073,0.29614353,20.1,31.44,-53.58
1554105131503,-0.60812724,-10.080188,1.287482,-0.04474111,0.14487597,0.33555830000000003,20.16,31.44,-53.58
1554105131522,-0.6703765,-10.214263,1.4167688999999999,-0.060720075,0.13209279,0.3653857,20.28,31.44,-53.52
1554105131543,-0.6464345,-10.247782,1.5316905,-0.05539375,0.11824436,0.45273739999999996,20.52,31.44,-53.46
1554105131562,-0.7230489,-10.262147,1.7711107,0.012783173500000002,0.11824436,0.5390238,20.7,31.44,-53.4
1554105131583,-0.7613561,-10.286089,1.5891514,0.10439592,0.11717909,0.61678815,21.0,31.5,-53.28
1554105131603,-0.81881696,-10.118495,1.6035166,0.15126756,0.113983296,0.68816084,21.24,31.44,-53.16
1554105131622,-0.9768343,-10.22384,1.7615339,0.16405073,0.10439592,0.7456851,21.54,31.32,-53.04
1554105131642,-1.0821792,-10.34355,1.6418238,0.15020229,0.09374327,0.78723043,21.96,31.14,-52.92
1554105131663,-1.1348516000000002,-10.559028,1.8956091,0.14168017,0.101200126,0.8319715,22.32,30.78,-52.8
1554105131683,-1.1587936,-10.506355000000001,1.9434932,0.17789917,0.128897,0.89375687,22.62,30.36,-52.74
1554105131703,-1.3934253,-10.563816000000001,2.0296845,0.23861924,0.1768339,0.9768475000000001,22.92,29.88,-52.62
1554105131722,-1.6424223000000002,-10.448894500000002,2.1206641,0.28549087,0.21092236,1.0578076,23.22,29.4,-52.62
1554105131742,-1.7908629,-10.353127,2.130241,0.350472,0.24607609,1.1313108,23.82,28.38,-52.56
1554105131763,-1.9871874,-10.276512,2.2212207000000004,0.38562572,0.25672874,1.1675298,24.06,28.02,-52.56
1554105131783,-2.1883004,-10.166379,2.2260091,0.43569317,0.24927188,1.2112056999999998,24.66,27.18,-52.56
1554105131803,-2.2122424,-9.816825999999999,2.2882583,0.5273059,0.24394555,1.2389026,25.2,26.34,-52.56
1554105131823,-2.705448,-9.524733,2.3983915000000002,0.64768076,0.23755397,1.2687298999999999,25.68,25.62,-52.62
1554105131843,-3.2848446000000004,-9.1512375,2.3505075,0.71585774,0.19813919,1.3102753,26.16,24.78,-52.68
1554105131863,-3.2130187,-9.0842,2.3409307,0.74035877,0.10759171,1.3315805,26.52,23.7,-52.74
1554105131883,-3.2561142000000003,-8.873510000000001,2.4079683,0.77444726,0.033023197000000004,1.3507552999999999,26.94,22.44,-52.8
1554105131904,-3.7924154000000003,-8.480861,2.2691047,0.84688526,-0.011717908999999999,1.3592775,27.3,21.0,-52.86
1554105131923,-4.4436383,-8.112153999999999,2.4319102999999997,0.88949585,-0.094808534,1.3401027,27.48,19.56,-52.92
1554105131942,-4.611232299999999,-7.887099,2.6761188999999996,0.9150621999999999,-0.2130529,1.2911005,27.6,18.12,-53.1
1554105131963,-4.453215,-7.7578119999999995,2.5899277,0.9033443000000001,-0.32170987,1.2122709999999999,27.72,16.62,-53.22
1554105131983,-4.5920787,-7.5375457,2.379238,0.8873653,-0.38456047,1.1334413,27.84,15.06,-53.46
1554105132002,-4.965574299999999,-7.2502413,2.6090812999999997,0.8948221,-0.40373522,1.055677,28.02,13.38,-53.82
1554105132023,-5.171476,-7.0874357,2.891597,0.8905610999999999,-0.44421527,0.9800433000000001,28.14,11.64,-54.24
1554105132043,-5.1475334,-6.8719573,3.1549592,0.87032104,-0.45593318,0.9353021999999999,28.32,9.84,-54.66
1554105132062,-5.257667,-6.5942300000000005,3.1262288,0.8426242,-0.4282363,0.9054747999999999,28.38,7.32,-55.32
1554105132082,-5.1475334,-6.4026937,3.0400376000000002,0.81066626,-0.38136467,0.89801794,28.32,6.42,-55.5
1554105132103,-5.12838,-6.1058129999999995,2.9299042,0.65194184,-0.29827404,0.9086706,28.14,3.84,-56.04
1554105132123,-5.209783,-6.0483522,3.0974984,0.48043427,-0.22264028,0.92464954,27.96,1.98,-56.4
1554105132142,-5.329493,-6.081871,3.3464954,0.34408042,-0.15020229,0.9171927,27.72,0.18,-56.7
1554105132162,-5.45878,-6.2446766,3.7199910000000003,0.25672874,-0.043675844000000005,0.8990832000000001,27.48,-1.56,-56.88
1554105132182,-5.602432,-6.1967926,3.5571851999999997,0.23329292,0.06498113,0.87990844,27.24,-3.12,-57.12
1554105132202,-5.5497594,-6.0531406,3.7152026,0.18748654,0.15339808,0.8841694999999999,27.0,-4.5,-57.3
1554105132222,-5.650316,-6.201581,3.8780080999999997,0.12357068,0.25885928,0.90654004,26.76,-5.7,-57.48
1554105132243,-5.7365074,-6.2351,4.136582,0.08522116,0.34408042,0.9225190000000001,26.58,-6.78,-57.6
1554105132262,-5.774814599999999,-6.1106014,4.194042700000001,0.080960095,0.39947417,0.9214538000000001,26.4,-7.86,-57.78
1554105132282,-5.966350599999999,-6.1058129999999995,4.256292,0.10865697,0.45380265,0.91612744,26.28,-8.94,-57.84
1554105132303,-6.191406,-6.067506,4.2945995,0.16618125,0.49854377,0.9076053,26.16,-9.84,-57.84
1554105132323,-6.1100025,-5.875969400000001,4.3903675,0.24074976,0.51452273,0.88949585,26.04,-10.56,-57.72
1554105132342,-5.8322754,-5.66528,4.44304,0.42290998,0.5049353,0.8607336999999999,25.92,-11.22,-57.66
1554105132363,-6.0764837,-5.48332,4.4238862999999995,0.60293967,0.52624065,0.84155893,25.92,-11.82,-57.6
1554105132383,-6.1195793,-5.09546,4.5962687,0.716923,0.53795856,0.8245146999999999,25.92,-12.6,-57.48
1554105132402,-5.923255,-4.6405616,4.1222167,0.8671253000000001,0.5475459,0.753142,26.04,-13.38,-57.3
1554105132422,-5.951985400000001,-4.329315,3.8301241000000004,0.9331716999999998,0.60720074,0.67324716,26.16,-14.46,-57.12
1554105132443,-6.2488665999999995,-4.085107,3.9785647000000006,0.92464954,0.6892261,0.628506,26.34,-15.54,-57.0
1554105132463,-5.975927400000001,-3.9079356,3.5619736000000004,0.8926915999999999,0.72970617,0.5933523,26.52,-16.68,-56.82
1554105132483,-6.1530986,-3.7163997,3.5763388,0.8117314999999999,0.7616641,0.49215218,26.64,-17.82,-56.64
1554105132503,-6.6079965,-3.6206315000000004,3.6625300000000003,0.6860303000000001,0.76485986,0.37710363,26.82,-18.96,-56.34
1554105132523,-6.8809357,-3.4721910000000005,3.6050692000000004,0.56885123,0.72011876,0.28229508,26.94,-20.16,-55.98
1554105132543,-7.129933,-3.3189620000000004,3.6002807999999997,0.4878911,0.6743124,0.20026971,27.0,-21.3,-55.5
1554105132563,-7.513005000000001,-3.1896752999999998,3.7104141999999998,0.41758367,0.628506,0.13635385,27.06,-22.44,-54.96
1554105132583,-7.589619,-3.3955764999999998,3.7199910000000003,0.34408042,0.56245965,0.07030745599999999,27.18,-23.46,-54.42
1554105132603,-7.809886,-3.4674027,3.7535098,0.31212249999999997,0.49108690000000005,-0.014913702,27.36,-24.18,-53.88
1554105132623,-7.943961,-3.4386723,3.7487214,0.31851408,0.41119209999999995,-0.07030745599999999,27.6,-24.84,-53.28
1554105132642,-8.130709,-3.3381157,3.5954924,0.30786142,0.31851408,-0.10013486,27.84,-25.38,-52.68
1554105132662,-8.317456,-3.2471360000000002,3.5715504,0.28868666,0.22796659,-0.12144015,28.14,-25.98,-52.14
1554105132683,-8.317456,-3.1848867000000003,3.6577415,0.25672874,0.18961707,-0.113983296,28.44,-26.46,-51.66
1554105132704,-8.671799,-3.3955764999999998,3.470994,0.25992453,0.18535602,-0.084155895,28.74,-26.82,-51.36
1554105132723,-8.5473,-3.3812113,3.4183214,0.22583607,0.21731395,-0.051132694000000006,28.98,-27.3,-51.06
1554105132743,-8.427589999999999,-3.2998084999999997,3.1693244,0.13848437,0.3153183,-0.04580637,29.28,-27.72,-50.7
1554105132763,-8.628703,-3.2471360000000002,3.1836896,0.034088463,0.37390783,-0.03195793,29.34,-27.84,-50.58
1554105132782,-8.51857,-3.6445735,3.3225534,-0.15765914,0.39840892,-0.0053263223,29.46,-28.14,-50.4
1554105132803,-8.465898,-3.9318779000000004,3.0591912,-0.33875409999999995,0.38456047,0.022370555,29.58,-28.38,-50.22
1554105132823,-8.6813755,-3.888782,3.1070752,-0.46552056,0.39201729999999996,0.07456851,29.7,-28.62,-50.1
1554105132842,-9.011775,-3.6876693,2.9442697,-0.6135923000000001,0.34621096,0.15552860000000002,29.94,-28.8,-49.8
1554105132862,-9.442732000000001,-3.7403417,2.40318,-0.83942837,0.28122982,0.23009712,30.18,-28.74,-49.68
1554105132882,-9.744401,-3.7163997,2.4223334999999997,-1.1057445,0.22583607,0.294013,30.24,-28.62,-49.62
1554105132902,-9.548077000000001,-3.7163997,2.4462755,-1.4988271,0.11824436,0.38136467,30.42,-28.44,-49.5
1554105132922,-9.327810000000001,-3.8600516000000002,2.6521769,-1.7726,0.033023197000000004,0.46232477,30.54,-28.14,-49.44
1554105132943,-9.351752000000001,-3.8121676,2.2786815,-1.9462381999999998,-0.043675844000000005,0.5486112,30.72,-27.48,-49.26
1554105132963,-9.351752000000001,-3.7834373,1.9387047999999998,-2.0133498,-0.10972224,0.62744075,30.78,-26.82,-49.26
1554105132983,-9.179369,-3.9079356,1.7950528000000001,-2.0026971999999996,-0.1470065,0.67963874,30.78,-26.52,-49.32
1554105133003,-8.930372,-4.0372224,1.7854759999999998,-1.7949706000000003,-0.21837921,0.7073356,30.72,-25.56,-49.86
1554105133023,-8.920795,-3.9414546,1.9003976999999999,-1.5052186,-0.24714136,0.70200926,30.66,-24.96,-50.34
1554105133042,-9.141062,-3.7978023999999997,1.9913772,-1.0780476,-0.25353295,0.6945524000000001,30.42,-24.3,-50.88
1554105133063,-9.212888000000001,-3.6589386,1.6418238,-0.60080916,-0.30892670000000005,0.66365975,30.18,-23.64,-51.48
1554105133082,-9.179369,-3.3572693,1.6514006,-0.17896444,-0.34194988,0.6199839,29.88,-22.98,-52.2
1554105133102,-9.409213000000001,-2.878429,1.8764555,0.20133498,-0.386691,0.5901565,29.58,-22.44,-53.04
1554105133123,-9.299078999999999,-2.3756466,2.2403743,0.37071204,-0.43995422,0.5656554,29.22,-22.14,-53.88
1554105133142,-9.299078999999999,-1.8872293999999998,2.0392613,0.31638354,-0.49960902,0.52624065,28.74,-21.96,-54.54
1554105133166,-9.452309,-1.7340006000000001,2.0296845,0.026631612000000002,-0.53795856,0.55074173,28.2,-21.96,-55.02
1554105133183,-9.495403999999999,-1.8010383,2.0296845,-0.3291667,-0.5613944000000001,0.60293967,27.72,-22.14,-55.38
1554105133202,-9.136273,-1.6190788999999999,2.8485014,-0.63915867,-0.5858955,0.58056915,27.3,-22.44,-55.74
1554105133222,-9.002198,-1.6765398,3.1549592,-0.6593986999999999,-0.5454154,0.5336975,26.88,-22.92,-56.1
1554105133243,-8.930372,-1.6956933999999997,2.9586349,-0.5773733,-0.49108690000000005,0.531567,26.46,-23.52,-56.46
1554105133262,-8.7771435,-1.6382325,2.8006175,-0.47404268,-0.44421527,0.531567,25.92,-24.06,-56.94
1554105133282,-8.628703,-1.4754268,2.8628666000000003,-0.38775626,-0.39627838,0.49747851,25.38,-24.6,-57.36
1554105133303,-8.523358,-1.3557166999999999,2.9969419999999998,-0.2908172,-0.33662358,0.45699844,24.72,-25.08,-57.78
1554105133323,-8.480263,-1.4514848,3.0160956000000003,-0.15126756,-0.26631612,0.42077947,24.06,-25.38,-58.26
1554105133342,-8.532935,-1.4323312,3.0017304,0.004261058,-0.20026971,0.38242993,23.46,-25.56,-58.68
1554105133362,-8.571242,-1.3844471,2.9586349,0.09587380000000001,-0.16085494,0.34834146,22.92,-25.62,-59.1
1554105133382,-8.561666,-1.3365631000000002,2.7910407000000004,0.14061491,-0.15233281,0.30679616,22.38,-25.62,-59.52
1554105133403,-8.566454,-1.2503718000000001,3.1549592,0.15765914,-0.14168017,0.2609898,21.9,-25.62,-59.76
1554105133423,-8.508992999999998,-1.1785458,3.3752258,0.14061491,-0.111852765,0.221575,21.54,-25.62,-59.82
1554105133443,-8.599973,-1.1498153,3.3560722000000003,0.096939065,-0.084155895,0.17257284,21.3,-25.74,-60.0
1554105133465,-8.8777,-1.2455834,3.2411506,0.047936900000000005,-0.049002163,0.13635385,21.3,-25.92,-60.12
1554105133483,-9.002198,-1.1785458,3.1741127999999996,0.02876214,-0.03834952,0.098004326,21.3,-26.1,-60.3
1554105133503,-8.90643,-1.3365631000000002,3.164536,0.08522116,-0.036218993,0.049002163,21.3,-26.34,-60.42
1554105133523,-8.935161,-1.3030443,3.2650926,0.13848437,-0.0010652645,0.040480047000000005,21.3,-26.64,-60.6
1554105133542,-9.002198,-1.3557166999999999,2.8341362,0.14913702,0.01917476,0.056459017,21.3,-26.88,-60.72
1554105133562,-9.002198,-1.4036007,2.8772318,0.099069595,0.024501082,0.06391586,21.3,-27.18,-60.84
1554105133583,-9.093178,-1.3605051000000001,2.8389246,0.05965481,0.020240024,0.07669904,21.24,-27.42,-60.9
1554105133603,-9.179369,-1.3509283,2.8963853999999998,0.049002163,0.0031957934000000003,0.08735169,21.24,-27.66,-60.9
1554105133624,-9.203311,-1.2886791000000002,3.0974984,0.10865697,-0.0063915867,0.07350325,21.12,-27.9,-60.9
1554105133643,-9.050082000000002,-1.2791021999999999,3.1501707999999997,0.2066613,-0.011717908999999999,0.04474111,21.06,-27.96,-60.9
1554105133662,-9.14585,-1.1210848999999998,3.0400376000000002,0.27377295,-0.007456851,0.027696876000000002,21.0,-28.14,-60.84
1554105133684,-9.126697,-0.88166475,2.8580782000000005,0.20772657,-0.015978966,0.024501082,20.88,-28.38,-60.84
1554105133702,-9.121908,-1.0013748,2.8868085999999997,0.113983296,-0.015978966,0.01917476,20.82,-28.5,-60.78
1554105133723,-9.121908,-1.0444705,2.9921536,0.002130529,-0.02876214,0.0063915867,20.7,-28.74,-60.78
1554105133743,-8.939949,-1.2886791000000002,3.1022868,-0.04474111,-0.03195793,0.012783173500000002,20.58,-29.1,-60.72
1554105133762,-8.959103,-1.2216414,3.1884782000000005,-0.01917476,-0.024501082,0.023435817999999997,20.52,-29.22,-60.72
1554105133782,-9.097966,-1.3030443,3.1453824,0.040480047000000005,-0.02876214,0.023435817999999997,20.46,-29.46,-60.72
1554105133802,-9.088389,-1.2120646000000002,2.9730000000000003,0.11504856,-0.03195793,0.022370555,20.4,-29.76,-60.72
1554105133823,-9.064447,-1.216853,3.1118636000000004,0.14168017,-0.029827405,0.024501082,20.34,-29.82,-60.72
1554105133843,-9.141062,-1.0684125,3.164536,0.12037488,-0.014913702,0.026631612000000002,20.34,-30.12,-60.66
1554105133862,-9.23683,-0.9391255999999999,3.1836896,0.053263225,0.0,0.018109497,20.28,-30.18,-60.66
1554105133882,-9.165004,-1.1019313,3.0639796,0.004261058,0.0010652645,0.0010652645,20.22,-30.24,-60.66
1554105133902,-9.174581,-1.1833341999999998,3.0974984,-0.00958738,-0.00958738,0.0,20.16,-30.3,-60.6
1554105133922,-9.112331,-1.2072762,3.1118636000000004,0.017044231,-0.02130529,0.020240024,20.16,-30.3,-60.6
1554105133944,-8.935161,-1.1019313,2.9921536,0.12676647,-0.043675844000000005,0.03089267,19.98,-30.36,-60.54
1554105133962,-9.011775,-1.0205284,3.1932666000000003,0.16405073,-0.05006743,0.03089267,19.86,-30.42,-60.54
1554105133982,-8.992621,-0.96785605,3.0879216,0.18322548,-0.046871635999999994,0.02876214,19.8,-30.48,-60.48
1554105134003,-8.882488,-0.9487024,3.1549592,0.2066613,-0.039414786,0.02876214,19.68,-30.48,-60.42
1554105134022,-8.930372,-0.7236475,3.198055,0.23009712,-0.027696876000000002,0.02876214,19.62,-30.54,-60.42
1554105134042,-8.911219000000001,-0.65660983,3.1693244,0.20026971,-0.014913702,0.023435817999999997,19.56,-30.6,-60.36
1554105134063,-8.978256,-0.6374562,3.1932666000000003,0.12676647,-0.004261058,0.0063915867,19.5,-30.78,-60.36
1554105134082,-8.935161,-0.7284359,3.2363622000000003,0.036218993,0.002130529,-0.020240024,19.5,-30.96,-60.3
1554105134103,-8.983044999999999,-0.83856916,3.3800142,0.04261058,0.0,-0.040480047000000005,19.5,-31.14,-60.24
1554105134123,-8.959103,-0.9439139999999999,3.1836896,0.08522116,-0.0010652645,-0.054328485999999995,19.5,-31.32,-60.24
1554105134142,-9.030928999999999,-0.7811083000000001,3.1932666000000003,0.12570119999999999,-0.0010652645,-0.05752428,19.56,-31.56,-60.18
1554105134162,-8.935161,-0.8242039000000001,3.1453824,0.165116,-0.002130529,-0.07243799,19.56,-31.74,-60.12
1554105134182,-9.050082000000002,-0.84814596,3.1405939999999997,0.19387813,0.0053263223,-0.084155895,19.56,-31.92,-60.06
1554105134203,-9.126697,-0.88645315,3.2076318,0.17576863,0.0063915867,-0.07563378,19.62,-32.1,-60.06
1554105134225,-9.097966,-0.84814596,3.2698810000000003,0.12570119999999999,0.004261058,-0.06285059999999999,19.62,-32.28,-60.0
1554105134242,-9.150639,-0.86251116,3.0113072,0.06604639400000001,-0.0010652645,-0.05006743,19.62,-32.52,-60.0
1554105134262,-9.030928999999999,-0.9008184000000001,3.2172085999999998,0.04261058,-0.0010652645,-0.039414786,19.62,-32.7,-59.94
1554105134283,-8.954314,-0.95349085,3.221997,0.047936900000000005,0.0010652645,-0.035153727999999995,19.62,-32.88,-59.94
1554105134303,-8.978256,-0.9439139999999999,3.1022868,0.07563378,0.013848438000000001,-0.033023197000000004,19.62,-33.06,-59.94
1554105134323,-9.035717,-0.85293436,3.3081882000000005,0.080960095,0.024501082,-0.040480047000000005,19.62,-33.24,-59.94
1554105134343,-9.126697,-0.7332243,3.044826,0.041545313,0.027696876000000002,-0.049002163,19.62,-33.42,-59.82
1554105134362,-9.035717,-0.8912416,3.164536,-0.00958738,0.024501082,-0.05006743,19.62,-33.48,-59.7
1554105134382,-9.179369,-0.9103952,3.0879216,-0.024501082,0.008522116,-0.05752428,19.62,-33.54,-59.64
1554105134403,-9.093178,-0.9008184000000001,3.0160956000000003,-0.014913702,-0.0063915867,-0.06711166,19.62,-33.48,-59.52
1554105134423,-9.054871,-0.87687635,3.1884782000000005,-0.0053263223,-0.014913702,-0.07030745599999999,19.74,-33.42,-59.4
1554105134442,-9.006986999999999,-0.95827925,3.1693244,-0.007456851,-0.015978966,-0.06498113,19.8,-33.42,-59.34
1554105134463,-9.174581,-0.9391255999999999,3.1836896,-0.007456851,-0.010652645,-0.05006743,19.92,-33.42,-59.28
1554105134482,-9.222465,-0.87687635,3.2028434,-0.022370555,-0.002130529,-0.02876214,20.04,-33.48,-59.22
1554105134503,-9.011775,-0.9391255999999999,3.0496144,-0.020240024,-0.0063915867,-0.020240024,20.1,-33.48,-59.22
1554105134523,-8.959103,-0.8960299999999999,3.0400376000000002,0.00958738,-0.008522116,-0.024501082,20.22,-33.54,-59.22
1554105134542,-8.858546,-0.98700964,3.1501707999999997,0.036218993,-0.00958738,-0.02876214,20.28,-33.54,-59.28
1554105134562,-8.968679,-0.9103952,3.0591912,0.043675844000000005,-0.010652645,-0.03195793,20.34,-33.54,-59.28
1554105134583,-9.002198,-0.82899237,3.0591912,0.025566347000000003,-0.008522116,-0.037284255,20.4,-33.6,-59.34
1554105134603,-8.973467999999999,-0.8050503000000001,3.09271,-0.0063915867,-0.013848438000000001,-0.05006743,20.34,-33.6,-59.34
1554105134622,-9.074024,-0.7858967,3.116652,-0.049002163,-0.0031957934000000003,-0.05219796,20.28,-33.6,-59.4
1554105134642,-9.083601,-0.87208796,3.0544027999999996,-0.06391586,0.002130529,-0.05219796,20.28,-33.6,-59.4
1554105134663,-9.131485000000001,-0.97743285,2.9299042,-0.06391586,-0.0031957934000000003,-0.051132694000000006,20.28,-33.54,-59.46
1554105134682,-9.184157,-1.0157399999999999,3.1022868,-0.06498113,-0.008522116,-0.043675844000000005,20.28,-33.54,-59.46
1554105134704,-9.102755,-0.88166475,3.1884782000000005,-0.039414786,-0.01917476,-0.05006743,20.22,-33.54,-59.52
1554105134723,-9.02614,-1.0109516,3.3369186,-0.007456851,-0.018109497,-0.056459017,20.22,-33.54,-59.46
1554105134743,-9.002198,-1.0588357,3.0400376000000002,-0.0053263223,-0.004261058,-0.060720075,20.16,-33.54,-59.46
1554105134763,-9.078813,-1.0205284,3.2507273999999997,-0.020240024,0.0010652645,-0.051132694000000006,20.16,-33.54,-59.4
1554105134783,-9.021352,-1.073201,3.1884782000000005,-0.027696876000000002,-0.0063915867,-0.043675844000000005,20.16,-33.54,-59.4
1554105134803,-8.978256,-1.0205284,3.116652,-0.004261058,0.0031957934000000003,-0.04261058,20.16,-33.54,-59.34
1554105134822,-9.050082000000002,-0.95349085,3.1453824,0.02876214,0.014913702,-0.03089267,20.1,-33.6,-59.28
1554105134842,-9.040505,-0.9391255999999999,3.0496144,0.049002163,0.017044231,-0.034088463,20.1,-33.6,-59.22
1554105134863,-8.992621,-0.88166475,2.9394810000000002,0.027696876000000002,0.018109497,-0.047936900000000005,20.1,-33.6,-59.16
1554105134883,-8.954314,-0.88645315,3.0639796,-0.020240024,0.012783173500000002,-0.053263225,20.1,-33.6,-59.1
1554105134902,-8.963891,-0.8960299999999999,2.9969419999999998,-0.056459017,0.0063915867,-0.056459017,20.1,-33.6,-59.04
1554105134923,-8.973467999999999,-1.0444705,3.1405939999999997,-0.06285059999999999,-0.0031957934000000003,-0.05539375,20.1,-33.6,-59.04
1554105134942,-9.064447,-1.1354501000000001,3.1262288,-0.051132694000000006,0.0031957934000000003,-0.05006743,20.1,-33.54,-59.04
1554105134963,-9.131485000000001,-0.98222125,3.2650926,-0.037284255,0.00958738,-0.043675844000000005,20.1,-33.54,-59.04
1554105134982,-9.050082000000002,-1.0444705,3.2124202,-0.027696876000000002,0.017044231,-0.035153727999999995,20.1,-33.48,-59.04
1554105135003,-9.011775,-0.99658644,3.2507273999999997,-0.0010652645,0.025566347000000003,-0.033023197000000004,20.1,-33.42,-59.04
1554105135023,-9.093178,-1.0061632,3.2650926,0.007456851,0.034088463,-0.03834952,20.16,-33.36,-59.04
1554105135043,-9.160214999999999,-1.049259,3.020884,-0.00958738,0.035153727999999995,-0.036218993,20.16,-33.3,-59.1
1554105135062,-9.112331,-1.0109516,3.0591912,-0.033023197000000004,0.029827405,-0.029827405,20.1,-33.24,-59.1
1554105135083,-8.959103,-1.0779893,3.2746694,-0.02130529,0.02876214,-0.033023197000000004,20.1,-33.18,-59.16
1554105135103,-8.978256,-1.1498153,3.164536,0.004261058,0.040480047000000005,-0.036218993,20.1,-33.12,-59.16
1554105135122,-9.002198,-0.99179804,3.0591912,0.023435817999999997,0.04580637,-0.039414786,20.1,-33.12,-59.22
1554105135143,-9.064447,-0.98700964,2.9682117000000003,0.023435817999999997,0.051132694000000006,-0.049002163,20.1,-33.06,-59.22
1554105135163,-9.02614,-1.0540473,2.9682117000000003,0.011717908999999999,0.04474111,-0.053263225,20.1,-33.06,-59.28
1554105135183,-8.963891,-1.0205284,3.1118636000000004,-0.008522116,0.041545313,-0.05219796,20.1,-33.06,-59.28
1554105135203,-9.074024,-1.0061632,3.0879216,-0.013848438000000001,0.03834952,-0.05965481,20.1,-33.06,-59.28
1554105135222,-8.973467999999999,-1.1258733,3.0400376000000002,-0.023435817999999997,0.03834952,-0.06498113,20.1,-33.06,-59.28
1554105135242,-8.892064999999999,-1.049259,3.2507273999999997,-0.034088463,0.036218993,-0.06604639400000001,20.16,-33.06,-59.28
1554105135263,-8.7532015,-1.1498153,3.0496144,-0.026631612000000002,0.040480047000000005,-0.06711166,20.16,-33.06,-59.28
1554105135285,-8.944737,-1.1258733,3.0160956000000003,-0.0031957934000000003,0.05219796,-0.07030745599999999,20.28,-33.0,-59.28
1554105135303,-9.016563,-1.0684125,3.1597476,0.012783173500000002,0.05006743,-0.07350325,20.28,-33.0,-59.22
1554105135322,-9.141062,-1.1258733,3.1118636000000004,0.013848438000000001,0.04261058,-0.08735169,20.34,-33.0,-59.22
1554105135342,-9.11712,-1.0253168,3.0352492,-0.008522116,0.036218993,-0.094808534,20.34,-33.0,-59.22
1554105135362,-9.078813,-1.0779893,3.1358056,-0.033023197000000004,0.03195793,-0.096939065,20.4,-32.94,-59.16
1554105135383,-9.11712,-1.1306617,3.0065188,-0.039414786,0.041545313,-0.10439592,20.4,-32.94,-59.16
1554105135402,-9.303867,-1.1115081,3.1501707999999997,-0.041545313,0.053263225,-0.10546118,20.46,-32.94,-59.16
1554105135422,-9.3421755,-1.0684125,3.0831332000000002,-0.06178534,0.05219796,-0.09374327,20.58,-32.94,-59.1
1554105135443,-9.188946000000001,-1.1641805,3.1070752,-0.06711166,0.039414786,-0.082025364,20.58,-32.88,-59.1
1554105135463,-8.954314,-1.0636241000000002,3.0113072,-0.058589544,0.033023197000000004,-0.07989483,20.82,-32.88,-59.1
1554105135483,-8.901641999999999,-0.9391255999999999,3.0639796,-0.037284255,0.03089267,-0.08628642,20.88,-32.88,-59.1
1554105135504,-8.863335000000001,-1.0779893,3.0591912,0.0,0.041545313,-0.099069595,21.12,-32.82,-59.04
1554105135523,-9.002198,-1.0253168,3.0065188,0.004261058,0.058589544,-0.12463594,21.24,-32.82,-59.04
1554105135543,-8.987833,-1.1067197,2.891597,-0.05219796,0.06924219,-0.13315806,21.36,-32.76,-59.04
1554105135563,-8.829816000000001,-1.0971429,2.891597,-0.10439592,0.06391586,-0.14487597,21.42,-32.64,-58.98
1554105135583,-8.786719999999999,-1.1976993999999999,2.9634232999999996,-0.15126756,0.06178534,-0.16618125,21.48,-32.58,-58.98
1554105135603,-8.801085,-1.3030443,2.9682117000000003,-0.16831179,0.06604639400000001,-0.18002969,21.48,-32.46,-58.92
1554105135622,-8.801085,-1.2982559,2.915539,-0.17470337,0.07030745599999999,-0.20559604,21.42,-32.22,-58.92
1554105135642,-8.983044999999999,-1.264737,2.9586349,-0.2034655,0.07669904,-0.21837921,21.42,-31.98,-58.92
1554105135662,-9.030928999999999,-1.3269863000000002,2.8532897999999998,-0.23968449999999997,0.082025364,-0.20453078,21.42,-31.68,-58.92
1554105135683,-9.006986999999999,-1.3269863000000002,2.891597,-0.23116238,0.09161274,-0.19920446,21.42,-31.38,-59.04
1554105135703,-9.002198,-1.2838906,3.1597476,-0.15659387,0.11824436,-0.22050974,21.42,-31.08,-59.1
1554105135722,-8.829816000000001,-1.1258733,2.9730000000000003,-0.07669904,0.13741912,-0.26205507,21.42,-30.78,-59.16
1554105135743,-8.820239,-0.86251116,3.0160956000000003,0.036218993,0.16618125,-0.3334278,21.42,-30.42,-59.28
1554105135763,-8.628703,-0.6278794,2.9682117000000003,0.13741912,0.18855181,-0.46978164,21.42,-30.12,-59.34
1554105135782,-8.580819,-0.84335756,2.5755625,0.128897,0.21198763,-0.56672066,21.48,-29.94,-59.46
1554105135803,-8.556877,-0.7667431,2.6378117000000003,-0.03834952,0.23542345,-0.6870956,21.6,-29.76,-59.52
1554105135823,-8.504205,-0.7954735,2.6569653,-0.19068234,0.26312032,-0.78083885,21.72,-29.58,-59.4
1554105135842,-8.250419,-0.86251116,2.8293478,-0.32810146,0.314253,-0.8926915999999999,21.96,-29.28,-59.16
1554105135862,-8.250419,-0.8912416,2.9011737999999996,-0.34301516,0.3898868,-1.0247844000000002,22.2,-28.92,-58.98
1554105135883,-8.207322999999999,-0.7763199000000001,3.0400376000000002,-0.19707392,0.50813115,-1.1994878,22.56,-28.44,-58.74
1554105135903,-8.015787,-1.0013748,2.5420437000000002,-0.09587380000000001,0.60293967,-1.3986923,22.98,-27.9,-58.5
1554105135923,-8.025364,-1.1976993999999999,2.4510639,-0.113983296,0.71159667,-1.598962,23.52,-27.18,-58.32
1554105135943,-7.881711999999999,-1.3461398999999998,2.331354,-0.1470065,0.81705785,-1.8290591,24.12,-26.34,-58.08
1554105135962,-7.5704656,-1.762731,1.7184383,-0.24074976,0.8841694999999999,-2.07407,24.84,-25.32,-57.9
1554105135982,-7.3166804,-2.0691888,1.4550761,-0.4101268,0.9470200999999999,-2.288188,25.62,-24.06,-57.72
1554105136003,-7.0006455999999995,-2.7060466,1.1150993999999999,-0.588026,1.0173275,-2.481001,26.4,-22.38,-57.42
1554105136023,-6.6079965,-3.3620577000000003,0.56443304,-0.80107886,1.1004181999999998,-2.654639,27.42,-20.46,-56.94
1554105136043,-6.1100025,-3.816956,0.42078096,-1.135572,1.1824435,-2.779275,28.32,-18.3,-56.4
1554105136062,-5.60722,-4.741118,0.023343466,-1.4732608,1.2634037,-2.8740835,29.34,-15.9,-55.8
1554105136082,-5.085284,-5.4641665999999995,-0.06284779,-1.7385116000000003,1.3283848,-2.9497173,30.36,-13.02,-55.08
1554105136103,-4.76925,-6.019622,-0.30705637,-1.7118799999999998,1.4263891000000002,-3.057309,31.26,-9.78,-54.24
1554105136123,-3.9073372,-6.7522473,-1.3078326999999998,-1.562743,1.5531555000000001,-3.1553133,32.04,-6.12,-53.04
1554105136142,-3.1028854999999997,-7.6093717000000005,-1.7531542000000002,-1.5393071000000003,1.6575514999999998,-3.18301,32.76,-2.16,-51.78
1554105136162,-2.873042,-7.949348,-1.5328877,-1.4828482,1.7012273,-3.1787490000000003,33.42,1.92,-50.4
1554105136183,-2.456451,-8.581417,-1.7914615000000003,-1.0620687,1.7193368999999998,-3.230947,33.96,6.06,-49.08
1554105136202,-1.4269443000000002,-9.050680999999999,-3.7834373,-0.53476274,1.7598169,-3.266101,34.44,10.44,-47.46
1554105136222,-0.6607997,-9.32362,-4.7219644,-0.51984906,1.8279938000000002,-3.1308122000000003,34.8,14.82,-45.66
1554105136243,-0.91458505,-9.328408,-4.597466000000001,-0.8277104999999999,1.804558,-2.9337382,34.98,19.08,-43.74
1554105136263,-0.59376204,-10.037092,-3.9510313999999997,-1.1313108,1.7353158,-2.8730182999999996,35.16,23.22,-41.76
1554105136282,-0.45489833,-10.951677,-4.094683600000001,-1.1132014,1.5904398000000002,-2.8346686,35.22,27.18,-39.78
1554105136303,-0.047884032,-11.114483,-4.353257,-0.6956177,1.4466291999999998,-2.7079022,35.16,32.7,-36.72
1554105136323,0.46447513,-10.793660000000001,-4.420294999999999,-0.2972088,1.3912354,-2.6599652999999996,34.86,36.12,-34.86
1554105136342,0.8810662,-10.568603999999999,-5.061941,-0.10652645,1.3784522,-2.6482474999999996,34.56,37.74,-33.96
1554105136363,1.6807296000000003,-10.669162,-5.205593,-0.31957933,1.2783173,-2.5086977000000004,33.42,41.94,-31.68
1554105136383,2.0685901999999996,-11.310807,-4.8656163,-0.5858955,1.1185277,-2.3350596,32.64,44.34,-30.3
1554105136404,2.2074540000000002,-11.976396000000001,-5.3636102999999995,-0.49641323,0.9917611999999999,-2.0804615,31.74,46.62,-29.1
1554105136423,2.2170308,-11.741764,-4.9518075,-0.17257284,0.9012136999999999,-1.7353158,30.84,48.66,-28.08
1554105136442,2.27928,-11.760917999999998,-4.6884456,0.33555830000000003,0.8564726,-1.4839133999999998,29.76,50.58,-27.3
1554105136463,2.5617957000000002,-11.81359,-4.1760864,0.8042746999999999,0.79255676,-1.3187973,28.62,52.32,-26.58
1554105136483,2.5378537,-11.760917999999998,-4.252701,1.2857742,0.72651035,-1.1994878,27.66,53.76,-26.04
1554105136502,2.7437549999999997,-11.531074,-3.9941269999999998,1.5563513999999998,0.64341974,-1.0354371,26.94,54.96,-25.56
1554105136523,2.7341783,-10.903792999999999,-3.4674027,1.7033578,0.5475459,-0.89801794,26.22,56.1,-25.14
1554105136543,3.0214825000000003,-10.5207205,-3.007716,1.808819,0.47723848,-0.7882956999999999,25.38,57.06,-25.02
1554105136563,3.2082303,-10.271724,-2.1984756,1.8983012,0.4165184,-0.6775081999999999,24.6,57.78,-25.2
1554105136582,3.3566709,-9.821614,-1.5089456,2.1081583,0.39627838,-0.65726817,23.76,58.08,-25.68
1554105136602,3.5625722,-9.405023,-1.240795,2.2743397,0.42184472,-0.69348717,22.92,58.14,-26.28
1554105136623,3.7924154000000003,-8.902241,-0.74758947,2.3339944,0.44208476,-0.7392935,22.26,57.96,-27.12
1554105136643,4.0414124,-8.251018,-0.36930559999999996,2.3542345,0.45912898,-0.79042625,21.66,57.66,-28.14
1554105136663,4.213794999999999,-7.9828672,-0.0676362,2.2817965,0.45273739999999996,-0.9289106,21.12,57.3,-29.34
1554105136683,4.4580035,-7.7626004,0.018555064,2.130529,0.4250405,-1.0077401,20.64,56.94,-30.78
1554105136703,5.0134583,-7.858368400000001,-0.091578215,1.7576863999999999,0.34834146,-1.1227888000000001,20.28,56.46,-32.28
1554105136723,5.1523223,-7.791331,0.047285482000000004,1.4125406999999999,0.30679616,-1.1536813999999997,19.98,55.8,-33.66
1554105136742,5.185841,-7.5375457,0.30107087,1.0120013,0.24607609,-1.1100056,19.74,55.26,-34.92
1554105136763,5.315128,-7.5519110000000005,0.84694886,0.6146576,0.18216023,-1.0130665,19.68,54.72,-36.12
1554105136783,5.3390699999999995,-7.85358,1.134253,0.25992453,0.113983296,-0.9225190000000001,19.38,54.06,-37.2
1554105136803,5.559336,-8.217499,1.4119805,0.010652645,0.068176925,-0.8852348,19.08,53.46,-38.16
1554105136823,5.588066599999999,-8.270171000000001,1.6561891,-0.06178534,0.06924219,-0.9076053,18.54,52.86,-39.06
1554105136843,5.803545,-8.370728,1.7232267,-0.011717908999999999,0.10226539,-0.9289106,18.06,52.38,-39.78
1554105136863,6.0333879999999995,-8.404246,1.881244,0.068176925,0.14807177,-0.9150621999999999,17.46,51.96,-40.2
1554105136883,6.0142345,-8.107366,1.9482816000000003,0.17576863,0.20026971,-0.89801794,16.8,51.78,-40.56
1554105136902,6.325481,-8.002021000000001,2.0009542000000002,0.2609898,0.21944448,-0.87351686,16.08,51.6,-40.86
1554105136923,6.517017,-7.925406,1.9865887999999998,0.32810146,0.221575,-0.850081,15.48,51.66,-41.1
1554105136942,6.531382,-7.671621000000001,2.0632033,0.386691,0.21411815,-0.8277104999999999,15.0,51.84,-41.34
1554105136962,6.430825700000001,-7.4705076,1.8237831999999998,0.43888897,0.21624869,-0.78936094,14.52,51.96,-41.52
1554105136983,6.2967505,-7.0970125,1.8668787,0.46552056,0.23116238,-0.7307714,14.22,52.08,-41.58
1554105137003,6.26802,-6.9916677,1.9387047999999998,0.44101948,0.22477080000000002,-0.6487460999999999,13.92,52.26,-41.58
1554105137023,6.354211299999999,-6.7330937,2.0392613,0.38456047,0.19387813,-0.58483016,13.68,52.32,-41.64
1554105137043,6.5457472999999995,-6.699575,2.0919337,0.2972088,0.14061491,-0.5475459,13.44,52.38,-41.64
1554105137063,6.6654577,-6.7091517000000005,2.0536265,0.20985709,0.112918034,-0.5134575,13.2,52.44,-41.7
1554105137082,6.885724000000001,-6.7043633,2.2260091,0.17150758,0.12676647,-0.4857606,12.9,52.44,-41.76
1554105137103,6.9958572,-6.689997999999999,2.4702177000000005,0.17150758,0.15552860000000002,-0.45486793,12.42,52.26,-42.06
1554105137122,7.015011,-6.5942300000000005,2.5420437000000002,0.19174760000000002,0.15978967,-0.44847634,12.24,52.2,-42.24
1554105137142,7.019799000000001,-6.536769400000001,2.6330232999999996,0.22264028,0.14168017,-0.43782368,11.94,52.08,-42.54
1554105137163,7.091625,-6.656479400000001,2.7240029999999997,0.22477080000000002,0.10759171,-0.41225734,11.64,52.02,-42.84
1554105137182,7.1395097000000005,-6.627749000000001,2.7335799,0.22796659,0.08948222,-0.39414784,11.34,51.9,-43.14
1554105137203,7.2113357,-6.531981,2.891597,0.24820662,0.10013486,-0.36964676,10.98,51.66,-43.62
1554105137223,7.053317999999999,-6.4026937,2.9442697,0.27483824,0.11717909,-0.35153726,10.8,51.54,-43.86
1554105137243,7.0485296,-6.4362125,3.0639796,0.30146983,0.12783173,-0.3206446,10.74,51.42,-44.1
1554105137263,7.0964136,-6.407482,3.0400376000000002,0.30679616,0.12463594,-0.28975195,10.68,51.36,-44.22
1554105137283,7.091625,-6.306926,3.1549592,0.29294774,0.1107875,-0.2695119,10.62,51.18,-44.22
1554105137303,7.086836999999999,-6.2781954,3.1214404,0.25140239999999997,0.096939065,-0.23542345,10.5,51.0,-44.34
1554105137323,7.1395097000000005,-6.1249666,2.949058,0.19281286,0.094808534,-0.18748654,10.5,50.82,-44.46
1554105137343,7.053317999999999,-6.1058129999999995,2.8628666000000003,0.098004326,0.10226539,-0.12463594,10.44,50.52,-44.58
1554105137362,7.0102224,-6.010045,2.7431567,-0.0010652645,0.10865697,-0.06285059999999999,10.38,50.28,-44.76
1554105137382,7.077260000000001,-6.187216,2.9825767999999995,-0.060720075,0.10013486,-0.012783173500000002,10.32,50.04,-44.88
1554105137402,7.091625,-6.1153900000000005,2.9682117000000003,-0.058589544,0.07882957,0.025566347000000003,10.26,49.8,-45.06
1554105137423,7.0964136,-5.9047,2.9969419999999998,-0.014913702,0.054328485999999995,0.047936900000000005,10.2,49.56,-45.18
1554105137442,7.1490865,-5.909488,2.7575218999999995,0.015978966,0.049002163,0.043675844000000005,10.14,49.44,-45.3
1554105137462,7.101202000000001,-5.856816,2.9107506,0.06285059999999999,0.054328485999999995,0.024501082,10.02,49.26,-45.36
1554105137483,7.038953,-5.6940102999999995,2.8628666000000003,0.10865697,0.06178534,-0.011717908999999999,9.96,49.2,-45.36
1554105137503,7.0006455999999995,-5.737106,2.570774,0.08841695,0.03834952,-0.036218993,9.9,49.2,-45.36
1554105137522,7.0006455999999995,-5.8089319999999995,2.7096379,0.03089267,0.0031957934000000003,-0.05965481,9.9,49.2,-45.36
1554105137542,7.0724716,-5.7466826,2.7096379,-0.0010652645,-0.020240024,-0.08948222,9.84,49.2,-45.42
1554105137563,6.9096660000000005,-5.852027400000001,2.8006175,0.008522116,-0.05006743,-0.11930962,9.78,49.14,-45.42
1554105137582,6.9862804,-6.033987000000001,2.8149827000000003,0.039414786,-0.06498113,-0.11930962,9.78,49.08,-45.42
1554105137603,6.9958572,-5.952584,3.0304607999999997,0.07563378,-0.08522116,-0.12250541,9.78,48.96,-45.42
1554105137623,6.9958572,-5.7945666,3.0639796,0.10865697,-0.09587380000000001,-0.098004326,9.78,48.9,-45.42
1554105137643,7.0245875999999985,-5.895123,3.1741127999999996,0.13102753,-0.094808534,-0.05965481,9.78,48.84,-45.42
1554105137663,7.0581064,-5.8903346,3.221997,0.14061491,-0.09161274,-0.03089267,9.78,48.72,-45.42
1554105137682,7.125144500000001,-5.842450599999999,3.0400376000000002,0.13954964,-0.094808534,0.0010652645,9.72,48.66,-45.48
1554105137703,7.129933,-5.6844335,3.1214404,0.12037488,-0.10333065,0.015978966,9.72,48.54,-45.54
1554105137723,7.2065472999999995,-5.607819,3.2076318,0.094808534,-0.11717909,0.02130529,9.72,48.54,-45.6
1554105137744,7.2927384,-5.6748567,3.1022868,0.07243799,-0.12144015,0.025566347000000003,9.72,48.42,-45.72
1554105137762,7.201759,-5.703587000000001,3.1022868,0.07137272,-0.10972224,0.014913702,9.72,48.36,-45.78
1554105137782,7.2113357,-5.6604915,3.1405939999999997,0.083090626,-0.101200126,-0.002130529,9.72,48.24,-45.9
1554105137803,7.129933,-5.612607499999999,3.2986114,0.10226539,-0.09374327,-0.029827405,9.72,48.12,-46.02
1554105137822,7.086836999999999,-5.6940102999999995,3.2507273999999997,0.12144015,-0.08735169,-0.05539375,9.66,48.06,-46.14
1554105137843,7.0964136,-5.713164,3.3752258,0.14168017,-0.07882957,-0.06498113,9.66,47.94,-46.2
1554105137863,7.2448545,-5.737106,3.3608606,0.15339808,-0.07350325,-0.06285059999999999,9.6,47.82,-46.26
1554105137883,7.2304892999999995,-5.7323174,3.2267854,0.15765914,-0.05965481,-0.07030745599999999,9.54,47.76,-46.26
1554105137903,7.3789296,-5.655703,3.1693244,0.13209279,-0.04474111,-0.06498113,9.54,47.64,-46.26
1554105137923,7.2304892999999995,-5.6940102999999995,3.1501707999999997,0.09161274,-0.033023197000000004,-0.051132694000000006,9.48,47.58,-46.32
1554105137942,7.335833999999999,-5.6365495,3.3800142,0.049002163,-0.033023197000000004,-0.03195793,9.48,47.52,-46.32
1554105137962,7.278373200000001,-5.5168395,3.4566288,0.02876214,-0.034088463,-0.01917476,9.48,47.46,-46.38
1554105137983,7.393294999999999,-5.6700683,3.2746694,0.035153727999999995,-0.027696876000000002,-0.014913702,9.48,47.46,-46.44
1554105138002,7.311891999999999,-5.66528,3.341707,0.047936900000000005,-0.018109497,-0.02130529,9.48,47.4,-46.5
1554105138024,7.3645644,-5.5982423,3.3752258,0.07030745599999999,-0.002130529,-0.036218993,9.48,47.28,-46.68
1554105138043,7.268796400000001,-5.6269727,3.2507273999999997,0.07669904,0.015978966,-0.04261058,9.48,47.22,-46.74
1554105138062,7.2304892999999995,-5.631761,3.09271,0.058589544,0.035153727999999995,-0.041545313,9.48,47.1,-46.92
1554105138083,7.2352777,-5.4498014,3.0065188,0.020240024,0.043675844000000005,-0.04261058,9.48,46.92,-47.16
1554105138103,7.177817,-5.535993,3.0639796,-0.04261058,0.039414786,-0.040480047000000005,9.48,46.74,-47.28
1554105138123,7.1490865,-5.430648000000001,2.8485014,-0.06711166,0.015978966,-0.040480047000000005,9.48,46.62,-47.4
1554105138143,7.110779300000001,-5.4498014,3.0879216,-0.060720075,-0.008522116,-0.05006743,9.48,46.5,-47.52
1554105138162,7.144297999999999,-5.5982423,3.0352492,-0.024501082,-0.026631612000000002,-0.06924219,9.48,46.44,-47.52
1554105138182,7.201759,-5.617396,3.198055,0.01917476,-0.03834952,-0.083090626,9.48,46.38,-47.52
1554105138203,7.225700999999999,-5.54557,3.09271,0.040480047000000005,-0.034088463,-0.09587380000000001,9.42,46.32,-47.4
1554105138223,7.2065472999999995,-5.492897,3.1214404,0.043675844000000005,-0.02876214,-0.10439592,9.42,46.38,-47.28
1554105138242,7.268796400000001,-5.555146700000001,3.1405939999999997,0.02876214,-0.02130529,-0.10226539,9.42,46.38,-47.22
1554105138262,7.2304892999999995,-5.655703,3.1932666000000003,0.012783173500000002,-0.014913702,-0.099069595,9.36,46.44,-47.16
1554105138283,7.2831616,-5.6940102999999995,3.3033997999999998,-0.0010652645,-0.0063915867,-0.09054748,9.36,46.44,-47.04
1554105138303,7.2927384,-5.6509147,3.1932666000000003,-0.0031957934000000003,0.0,-0.083090626,9.3,46.44,-46.98
1554105138323,7.311891999999999,-5.5743003,3.2746694,-0.004261058,0.004261058,-0.07882957,9.24,46.44,-46.98
1554105138343,7.2592196,-5.6221843,3.1597476,-0.0063915867,0.010652645,-0.07350325,9.18,46.44,-46.98
1554105138363,7.278373200000001,-5.6221843,3.2172085999999998,-0.007456851,0.011717908999999999,-0.07669904,9.12,46.38,-46.98
1554105138382,7.2831616,-5.5695120000000005,3.2411506,-0.0031957934000000003,0.02130529,-0.07669904,9.06,46.38,-46.98
1554105138402,7.1634517,-5.6221843,3.1070752,-0.00958738,0.022370555,-0.07030745599999999,9.0,46.26,-46.98
1554105138422,7.268796400000001,-5.5695120000000005,3.1741127999999996,-0.01917476,0.01917476,-0.06604639400000001,8.94,46.08,-46.98
1554105138442,7.1730285,-5.6269727,3.2363622000000003,-0.01917476,0.01917476,-0.05965481,8.82,45.84,-46.98
1554105138462,7.2592196,-5.555146700000001,3.2650926,-0.0063915867,0.012783173500000002,-0.05752428,8.76,45.6,-46.98
1554105138482,7.302314999999999,-5.478532,3.1836896,0.008522116,0.0031957934000000003,-0.05539375,8.7,45.42,-46.98
1554105138502,7.2640080000000005,-5.607819,3.1022868,0.013848438000000001,0.004261058,-0.056459017,8.7,45.24,-46.98
1554105138522,7.335833999999999,-5.5503583,3.2124202,0.007456851,-0.0053263223,-0.049002163,8.64,45.12,-46.98
1554105138542,7.302314999999999,-5.6604915,3.2267854,0.008522116,-0.008522116,-0.051132694000000006,8.64,45.06,-46.98
1554105138563,7.278373200000001,-5.7754129999999995,3.1597476,0.01917476,-0.008522116,-0.049002163,8.64,45.06,-46.98
1554105138582,7.254431200000001,-5.607819,3.245939,0.027696876000000002,-0.008522116,-0.04580637,8.64,45.12,-46.98
1554105138602,7.1586633,-5.6269727,3.3512837999999996,0.025566347000000003,-0.010652645,-0.05006743,8.64,45.24,-47.04
1554105138622,7.2304892999999995,-5.6604915,3.3512837999999996,0.023435817999999997,-0.007456851,-0.04474111,8.64,45.42,-47.1
1554105138642,7.2304892999999995,-5.6700683,3.2172085999999998,0.01917476,-0.00958738,-0.035153727999999995,8.64,45.54,-47.16
1554105138663,7.125144500000001,-5.6509147,3.2555158,0.025566347000000003,-0.014913702,-0.025566347000000003,8.64,45.6,-47.22
1554105138683,7.2209125,-5.6365495,3.221997,0.039414786,-0.014913702,-0.014913702,8.58,45.66,-47.22
1554105138703,7.3406224,-5.6700683,3.1214404,0.051132694000000006,-0.017044231,-0.004261058,8.58,45.66,-47.28
1554105138722,7.278373200000001,-5.5695120000000005,3.1836896,0.051132694000000006,-0.018109497,0.004261058,8.52,45.66,-47.28
1554105138742,7.2927384,-5.406706,3.2698810000000003,0.041545313,-0.018109497,0.007456851,8.52,45.66,-47.28
1554105138766,7.254431200000001,-5.497685400000001,3.2650926,0.024501082,-0.023435817999999997,0.020240024,8.46,45.66,-47.28
1554105138783,7.2640080000000005,-5.5264163,3.2698810000000003,0.022370555,-0.022370555,0.01917476,8.46,45.66,-47.28
1554105138802,7.273585000000001,-5.497685400000001,3.4183214,0.027696876000000002,-0.027696876000000002,0.020240024,8.52,45.66,-47.34
1554105138822,7.273585000000001,-5.492897,3.341707,0.040480047000000005,-0.03195793,0.018109497,8.52,45.66,-47.4
1554105138843,7.2831616,-5.48332,3.3033997999999998,0.06285059999999999,-0.033023197000000004,0.010652645,8.52,45.54,-47.46
1554105138864,7.278373200000001,-5.54557,3.4039562000000005,0.08628642,-0.02876214,0.0063915867,8.52,45.48,-47.52
1554105138883,7.302314999999999,-5.4641665999999995,3.3033997999999998,0.099069595,-0.014913702,0.0010652645,8.52,45.42,-47.58
1554105138903,7.2975270000000005,-5.512050599999999,3.54282,0.10013486,-0.007456851,-0.0063915867,8.52,45.3,-47.64
1554105138922,7.278373200000001,-5.54557,3.3800142,0.08948222,-0.0063915867,-0.011717908999999999,8.52,45.24,-47.7
1554105138943,7.273585000000001,-5.555146700000001,3.4326867999999995,0.07243799,-0.010652645,-0.013848438000000001,8.58,45.18,-47.7
1554105138963,7.302314999999999,-5.492897,3.2986114,0.060720075,-0.007456851,-0.017044231,8.64,45.12,-47.76
1554105138982,7.3406224,-5.5264163,3.4566288,0.054328485999999995,-0.0063915867,-0.015978966,8.64,45.06,-47.76
1554105139002,7.2448545,-5.5264163,3.365649,0.049002163,0.0,-0.017044231,8.7,45.12,-47.82
1554105139023,7.3549875999999985,-5.6269727,3.3273417999999997,0.04261058,0.002130529,-0.013848438000000001,8.76,45.12,-47.88
1554105139043,7.278373200000001,-5.6221843,3.4183214,0.041545313,0.0063915867,-0.007456851,8.82,45.18,-47.88
1554105139065,7.278373200000001,-5.5407815000000005,3.4278982000000005,0.05006743,0.013848438000000001,-0.0010652645,8.82,45.18,-47.88
1554105139082,7.2113357,-5.593454,3.5715504,0.06924219,0.024501082,0.008522116,8.88,45.24,-47.88
1554105139102,7.225700999999999,-5.593454,3.4997244,0.082025364,0.02876214,0.012783173500000002,8.94,45.24,-47.94
1554105139123,7.2304892999999995,-5.5647235,3.3081882000000005,0.083090626,0.029827405,0.018109497,8.94,45.24,-47.94
1554105139143,7.1490865,-5.5743003,3.3225534,0.08841695,0.03834952,0.018109497,9.0,45.24,-47.94
1554105139163,7.350199000000001,-5.507262,3.3369186,0.08841695,0.039414786,0.023435817999999997,9.0,45.24,-47.94
1554105139183,7.254431200000001,-5.5407815000000005,3.566762,0.08841695,0.043675844000000005,0.018109497,9.0,45.24,-47.94
1554105139203,7.1634517,-5.54557,3.2603042,0.09267801,0.047936900000000005,0.017044231,9.0,45.18,-48.0
1554105139223,7.177817,-5.445012999999999,3.2172085999999998,0.09267801,0.047936900000000005,0.020240024,9.0,45.18,-48.0
1554105139242,7.1634517,-5.5264163,3.4662056000000003,0.099069595,0.05539375,0.03089267,9.06,45.18,-48.06
1554105139262,7.086836999999999,-5.612607499999999,3.6768951000000003,0.12357068,0.06604639400000001,0.049002163,9.12,45.18,-48.06
1554105139283,7.1155677,-5.579088700000001,3.6098576,0.16405073,0.053263225,0.053263225,9.24,45.18,-48.12
1554105139303,7.1155677,-5.612607499999999,3.6768951000000003,0.21092236,0.033023197000000004,0.034088463,9.3,45.12,-48.18
1554105139323,7.0820484,-5.5695120000000005,3.7822402000000004,0.24501082,0.023435817999999997,0.02876214,9.36,45.12,-48.24
1554105139342,7.1873937,-5.6030307,3.6864722000000003,0.26418558,0.023435817999999997,0.027696876000000002,9.48,45.0,-48.36
1554105139362,7.1395097000000005,-5.555146700000001,3.8971617,0.3057309,0.05006743,0.018109497,9.54,44.88,-48.48
1554105139383,7.053317999999999,-5.583876999999999,3.7822402000000004,0.35579833,0.07137272,0.025566347000000003,9.6,44.7,-48.6
1554105139403,7.067683000000001,-5.492897,3.8732197,0.39414784,0.05965481,0.0063915867,9.6,44.46,-48.78
1554105139423,6.95755,-5.3779755,3.8349125,0.38349520000000004,0.053263225,-0.01917476,9.66,44.28,-48.9
1554105139443,7.029375999999999,-5.3540335,3.863643,0.32597092,0.051132694000000006,0.0031957934000000003,9.72,44.04,-49.08
1554105139463,7.019799000000001,-5.373187000000001,3.9067385000000003,0.22477080000000002,0.056459017,0.008522116,9.72,43.8,-49.26
1554105139483,7.029375999999999,-5.3444567,3.7870286,0.10759171,0.056459017,0.013848438000000001,9.78,43.56,-49.44
1554105139503,7.005433999999999,-5.373187000000001,3.9785647000000006,-0.010652645,0.058589544,0.035153727999999995,9.84,43.32,-49.56
1554105139523,7.0006455999999995,-5.617396,4.0599675,-0.07669904,0.05539375,0.040480047000000005,9.9,43.08,-49.68
1554105139543,6.981492,-5.512050599999999,3.9929300000000003,-0.06604639400000001,0.04580637,0.03834952,9.96,42.96,-49.86
1554105139563,6.943185000000001,-5.521628,3.9737763,-0.0010652645,0.053263225,0.03834952,10.02,42.78,-49.98
1554105139582,6.924031299999999,-5.535993,4.0025067000000005,0.060720075,0.06285059999999999,0.046871635999999994,10.02,42.66,-50.04
1554105139602,6.871359,-5.4354362,4.0216603,0.099069595,0.054328485999999995,0.034088463,10.02,42.54,-50.1
1554105139622,6.823475,-5.349245,3.8827964999999995,0.09054748,0.039414786,0.027696876000000002,10.08,42.48,-50.16
1554105139643,6.9096660000000005,-5.157709,3.887585,0.047936900000000005,0.034088463,0.015978966,10.14,42.36,-50.28
1554105139662,6.8905125,-5.2582655,3.9067385000000003,0.01917476,0.040480047000000005,0.018109497,10.14,42.36,-50.28
1554105139682,6.828263300000001,-5.373187000000001,4.007295,-0.014913702,0.039414786,0.013848438000000001,10.2,42.36,-50.34
1554105139702,6.766014,-5.3636102999999995,3.9785647000000006,-0.01917476,0.033023197000000004,0.0063915867,10.2,42.42,-50.4
1554105139723,6.770802499999999,-5.3061495,3.8827964999999995,-0.012783173500000002,0.022370555,0.0010652645,10.32,42.42,-50.46
1554105139742,6.871359,-5.4258595000000005,3.9019501000000005,0.0,0.025566347000000003,-0.010652645,10.38,42.36,-50.46
1554105139762,6.8426285,-5.4354362,3.9498343,0.0063915867,0.02130529,-0.023435817999999997,10.5,42.36,-50.52
1554105139782,6.7516490000000005,-5.401917500000001,3.7774517999999997,0.0010652645,0.012783173500000002,-0.02876214,10.68,42.36,-50.58
1554105139803,6.813898,-5.3923407,3.9115269999999995,0.002130529,0.00958738,-0.03089267,10.74,42.36,-50.58
1554105139823,6.895301,-5.4641665999999995,4.0743327,0.027696876000000002,0.022370555,-0.029827405,10.92,42.36,-50.58
1554105139843,6.924031299999999,-5.607819,4.0025067000000005,0.046871635999999994,0.018109497,-0.03834952,11.04,42.3,-50.52
1554105139863,6.804321300000001,-5.631761,3.9737763,0.07243799,0.020240024,-0.043675844000000005,11.16,42.24,-50.52
1554105139882,6.8426285,-5.583876999999999,4.1270050000000005,0.08628642,0.018109497,-0.036218993,11.22,42.18,-50.46
1554105139902,6.8761472999999995,-5.655703,4.2419267,0.12570119999999999,0.02876214,-0.03089267,11.34,42.12,-50.46
1554105139922,6.8091097000000005,-5.847239,4.5148660000000005,0.1949434,0.037284255,-0.018109497,11.4,42.0,-50.4
1554105139942,6.861782000000001,-5.6748567,4.347272,0.27696875,0.03089267,-0.011717908999999999,11.46,41.88,-50.4
1554105139963,6.684611299999999,-5.3875523,4.2419267,0.31851408,0.020240024,-0.017044231,11.46,41.82,-50.46
1554105139983,6.7516490000000005,-5.33488,4.32333,0.31851408,0.010652645,-0.010652645,11.52,41.7,-50.52
1554105140002,6.8569937,-5.277419,4.2850223,0.27057716,-0.004261058,-0.0053263223,11.52,41.64,-50.52
1554105140023,6.8522053,-5.2199583,4.1796775,0.17044231,-0.018109497,-0.008522116,11.58,41.52,-50.64
1554105140043,6.6510925,-5.157709,4.2993879999999995,0.094808534,-0.020240024,-0.004261058,11.64,41.4,-50.7
1554105140062,6.8330517,-5.2199583,4.3424835,-0.025566347000000003,-0.025566347000000003,-0.004261058,11.64,41.28,-50.76
1554105140083,6.7851677,-5.239112,4.337695,-0.07669904,-0.034088463,-0.00958738,11.64,41.16,-50.88
1554105140103,6.766014,-5.325303,4.347272,-0.07989483,-0.033023197000000004,-0.018109497,11.64,40.98,-50.94
1554105140123,6.871359,-5.33488,4.347272,-0.068176925,-0.023435817999999997,-0.033023197000000004,11.64,40.74,-51.0
1554105140142,6.7133417,-5.3683987,4.361637,-0.068176925,-0.017044231,-0.043675844000000005,11.64,40.56,-51.06
1554105140162,6.71813,-5.373187000000001,4.2754455,-0.07989483,-0.018109497,-0.051132694000000006,11.58,40.38,-51.12
1554105140183,6.8809357,-5.3636102999999995,4.4861355000000005,-0.09054748,-0.018109497,-0.06498113,11.52,40.2,-51.18
1554105140202,6.9671270000000005,-5.3971290000000005,4.2275615,-0.09587380000000001,-0.017044231,-0.07456851,11.46,40.14,-51.3
1554105140223,6.943185000000001,-5.349245,3.9785647000000006,-0.111852765,-0.002130529,-0.07563378,11.34,40.08,-51.42
1554105140243,6.804321300000001,-5.3971290000000005,4.055179,-0.13528858,0.00958738,-0.07776430000000001,11.28,40.08,-51.48
1554105140263,6.7468604999999995,-5.3923407,4.079121,-0.14487597,0.014913702,-0.068176925,11.28,40.14,-51.6
1554105140282,6.789956,-5.2582655,4.1653123,-0.14807177,0.0053263223,-0.05752428,11.22,40.26,-51.66
1554105140302,6.799533,-5.33488,4.0503907,-0.14594123,-0.00958738,-0.05539375,11.16,40.38,-51.78
1554105140323,6.895301,-5.3636102999999995,3.9881415000000002,-0.13209279,-0.01917476,-0.053263225,11.16,40.5,-51.84
1554105140343,6.823475,-5.401917500000001,4.016872,-0.10759171,-0.01917476,-0.054328485999999995,11.16,40.62,-51.9
1554105140363,6.9048777,-5.4258595000000005,4.055179,-0.08628642,-0.023435817999999997,-0.05965481,11.16,40.68,-51.9
1554105140383,6.8761472999999995,-5.4354362,4.1222167,-0.06498113,-0.02876214,-0.06711166,11.16,40.8,-51.84
1554105140402,6.95755,-5.4354362,4.1078515,-0.04580637,-0.026631612000000002,-0.07669904,11.22,40.98,-51.78
1554105140422,6.900089299999999,-5.492897,4.160524,-0.03089267,-0.023435817999999997,-0.080960095,11.28,41.1,-51.78
1554105140443,6.8569937,-5.583876999999999,4.11264,-0.02876214,-0.022370555,-0.07669904,11.28,41.22,-51.72
1554105140463,6.8665705,-5.507262,4.1413703,-0.037284255,-0.011717908999999999,-0.06604639400000001,11.34,41.34,-51.66
1554105140483,6.9144545,-5.6030307,4.256292,-0.049002163,-0.0063915867,-0.05965481,11.34,41.4,-51.66
1554105140503,6.8522053,-5.5743003,4.160524,-0.05539375,0.0063915867,-0.05006743,11.34,41.52,-51.6
1554105140522,6.95755,-5.5168395,4.079121,-0.060720075,0.012783173500000002,-0.03834952,11.34,41.64,-51.54
1554105140543,6.9048777,-5.617396,4.0599675,-0.05752428,0.020240024,-0.037284255,11.34,41.7,-51.42
1554105140563,6.95755,-5.4258595000000005,4.1222167,-0.05539375,0.024501082,-0.03834952,11.22,41.7,-51.12
1554105140583,6.943185000000001,-5.4881085999999994,3.8061821000000005,-0.058589544,0.022370555,-0.039414786,11.22,41.7,-51.06
1554105140603,6.871359,-5.5264163,3.8971617,-0.06178534,0.01917476,-0.04261058,11.16,41.7,-50.94
1554105140623,6.8091097000000005,-5.468955,3.7487214,-0.05752428,0.014913702,-0.039414786,11.1,41.76,-50.76
1554105140642,6.8091097000000005,-5.3971290000000005,3.8971617,-0.04474111,0.007456851,-0.04261058,11.04,41.82,-50.46
1554105140662,6.789956,-5.478532,4.0599675,-0.023435817999999997,-0.004261058,-0.043675844000000005,10.98,41.88,-50.34
1554105140683,6.8761472999999995,-5.406706,4.031237,-0.0010652645,-0.010652645,-0.05219796,10.98,41.94,-50.22
1554105140703,6.885724000000001,-5.4114943,4.040814,0.014913702,-0.020240024,-0.068176925,10.92,42.06,-50.22
1554105140723,6.924031299999999,-5.4354362,3.767875,0.03089267,-0.01917476,-0.07776430000000001,10.92,42.18,-50.22
1554105140742,6.9383965,-5.401917500000001,3.9929300000000003,0.035153727999999995,-0.0063915867,-0.07989483,10.92,42.3,-50.22
1554105140762,6.919242999999999,-5.3683987,4.1557355000000005,0.024501082,-0.0010652645,-0.08628642,10.98,42.36,-50.22
1554105140784,6.794744500000001,-5.3636102999999995,4.160524,0.010652645,-0.013848438000000001,-0.08841695,10.98,42.48,-50.22
1554105140803,6.919242999999999,-5.401917500000001,3.9402574999999995,0.011717908999999999,-0.01917476,-0.09267801,11.04,42.54,-50.28
1554105140823,6.9096660000000005,-5.4210709999999995,4.0503907,0.002130529,-0.02130529,-0.09374327,11.1,42.6,-50.28
1554105140843,6.9862804,-5.3300915,4.016872,-0.0031957934000000003,-0.002130529,-0.10333065,11.16,42.66,-50.34
1554105140863,6.871359,-5.4210709999999995,4.1078515,-0.00958738,0.00958738,-0.10439592,11.16,42.6,-50.34
1554105140882,6.981492,-5.4402246,4.0216603,-0.033023197000000004,0.007456851,-0.10226539,11.16,42.54,-50.34
1554105140902,6.9767036,-5.5407815000000005,4.1413703,-0.060720075,0.004261058,-0.1107875,11.22,42.54,-50.34
1554105140923,6.933608,-5.445012999999999,4.3760023,-0.06285059999999999,0.0063915867,-0.11611383,11.16,42.48,-50.34
1554105140943,6.924031299999999,-5.555146700000001,4.040814,-0.06604639400000001,-0.012783173500000002,-0.10333065,11.1,42.36,-50.34
1554105140963,6.9288197,-5.555146700000001,4.016872,-0.07989483,-0.008522116,-0.09374327,11.1,42.3,-50.34
1554105140983,7.0341644,-5.535993,4.0503907,-0.07563378,0.014913702,-0.083090626,10.98,42.24,-50.34
1554105141003,7.005433999999999,-5.607819,4.0360255,-0.07563378,0.02130529,-0.07030745599999999,10.92,42.18,-50.28
1554105141022,6.9958572,-5.6269727,4.1078515,-0.068176925,0.011717908999999999,-0.06391586,10.86,42.18,-50.28
1554105141042,6.943185000000001,-5.512050599999999,4.0120835,-0.025566347000000003,0.0063915867,-0.07989483,10.86,42.18,-50.28
1554105141063,7.029375999999999,-5.445012999999999,3.8732197,-0.015978966,-0.0031957934000000003,-0.06924219,10.8,42.18,-50.28
1554105141083,6.991069,-5.406706,3.863643,-0.020240024,-0.002130529,-0.06178534,10.74,42.24,-50.28
1554105141103,6.9144545,-5.4498014,3.9881415000000002,-0.02876214,0.007456851,-0.053263225,10.68,42.24,-50.28
1554105141122,6.924031299999999,-5.349245,4.0599675,-0.033023197000000004,0.0,-0.043675844000000005,10.62,42.3,-50.22
1554105141142,6.8905125,-5.4641665999999995,3.8205473,-0.049002163,-0.0053263223,-0.04261058,10.62,42.3,-50.22
1554105141163,7.005433999999999,-5.4114943,3.9306807999999998,-0.06924219,0.004261058,-0.051132694000000006,10.62,42.36,-50.22
1554105141183,6.9719152,-5.3396683,4.0360255,-0.07563378,0.013848438000000001,-0.06391586,10.62,42.42,-50.16
1554105141203,6.8809357,-5.3396683,4.016872,-0.06178534,0.02130529,-0.068176925,10.62,42.48,-50.1
1554105141223,6.8905125,-5.3300915,3.9546227,-0.05219796,0.024501082,-0.06604639400000001,10.62,42.54,-49.98
1554105141242,6.95755,-5.239112,4.0025067000000005,-0.06178534,0.025566347000000003,-0.06285059999999999,10.62,42.6,-49.92
1554105141262,7.005433999999999,-5.3875523,4.0216603,-0.07350325,0.010652645,-0.060720075,10.62,42.66,-49.86
1554105141282,6.9527617,-5.3923407,3.9594111000000005,-0.07563378,0.007456851,-0.06711166,10.62,42.72,-49.8
1554105141302,6.9767036,-5.253476999999999,3.9258924,-0.08735169,0.010652645,-0.07456851,10.62,42.78,-49.8
1554105141322,6.9288197,-5.4114943,3.8301241000000004,-0.10333065,0.013848438000000001,-0.06711166,10.62,42.84,-49.74
1554105141343,6.9671270000000005,-5.4402246,3.9211037,-0.12463594,0.010652645,-0.05539375,10.68,42.9,-49.74
1554105141362,6.947973299999999,-5.3779755,3.8827964999999995,-0.13102753,0.002130529,-0.04261058,10.68,42.9,-49.8
1554105141382,6.943185000000001,-5.4641665999999995,4.0120835,-0.12570119999999999,-0.0010652645,-0.040480047000000005,10.74,43.08,-49.8
1554105141403,6.9719152,-5.579088700000001,3.9689879999999995,-0.11930962,-0.011717908999999999,-0.039414786,10.74,43.26,-49.8
1554105141422,7.0581064,-5.5647235,3.8253357000000006,-0.10013486,-0.018109497,-0.04261058,10.8,43.38,-49.8
1554105141443,7.038953,-5.4641665999999995,3.7008373999999997,-0.06924219,-0.014913702,-0.043675844000000005,10.8,43.56,-49.74
1554105141462,7.005433999999999,-5.507262,3.9689879999999995,-0.051132694000000006,-0.013848438000000001,-0.037284255,10.8,43.62,-49.68
1554105141483,7.0102224,-5.4641665999999995,3.9785647000000006,-0.037284255,-0.0063915867,-0.02876214,10.74,43.86,-49.56
1554105141502,6.9288197,-5.5264163,3.8540661,-0.036218993,-0.012783173500000002,-0.034088463,10.68,44.04,-49.44
1554105141522,6.991069,-5.5647235,3.8061821000000005,-0.027696876000000002,-0.023435817999999997,-0.04474111,10.68,44.16,-49.26
1554105141543,7.0102224,-5.4210709999999995,3.7008373999999997,-0.02876214,-0.018109497,-0.049002163,10.62,44.16,-49.14
1554105141562,7.029375999999999,-5.5168395,3.767875,-0.036218993,-0.010652645,-0.046871635999999994,10.62,44.16,-49.02
1554105141583,6.885724000000001,-5.507262,3.7343562000000006,-0.049002163,-0.008522116,-0.036218993,10.56,44.16,-48.96
1554105141602,6.95755,-5.492897,3.6864722000000003,-0.068176925,-0.0063915867,-0.026631612000000002,10.56,44.16,-48.9
1554105141622,6.9383965,-5.5264163,3.8253357000000006,-0.07456851,-0.013848438000000001,-0.026631612000000002,10.56,44.1,-48.9
1554105141643,6.981492,-5.54557,3.696049,-0.07776430000000001,-0.02130529,-0.025566347000000003,10.56,44.1,-48.96
1554105141663,7.005433999999999,-5.4881085999999994,3.7870286,-0.084155895,-0.023435817999999997,-0.018109497,10.56,44.1,-48.96
1554105141682,6.9862804,-5.478532,3.7199910000000003,-0.07882957,-0.022370555,-0.010652645,10.56,44.16,-48.96
1554105141704,6.9623384,-5.555146700000001,3.743933,-0.06604639400000001,-0.036218993,0.0,10.62,44.16,-48.96
1554105141724,7.0341644,-5.5982423,3.8301241000000004,-0.060720075,-0.04580637,0.0,10.62,44.22,-48.96
1554105141742,6.603208,-5.4881085999999994,3.566762,0.0,-0.06285059999999999,-0.02876214,10.62,44.28,-48.96
1554105141762,7.278373200000001,-5.478532,3.696049,-0.06285059999999999,-0.043675844000000005,0.008522116,10.56,44.34,-48.96
1554105141783,6.9048777,-5.7083755,3.8013937000000007,-0.11824436,-0.06285059999999999,0.02130529,10.56,44.4,-48.96
1554105141803,6.9958572,-5.837662,3.8540661,-0.082025364,-0.058589544,0.03195793,10.5,44.52,-48.9
1554105141822,6.9623384,-5.7323174,3.743933,-0.06391586,-0.068176925,0.056459017,10.5,44.58,-48.9
1554105141842,7.043741000000001,-5.885546,3.6577415,-0.08628642,-0.08735169,0.09267801,10.5,44.64,-48.84
1554105141863,6.9623384,-5.885546,3.6625300000000003,-0.06711166,-0.09161274,0.13422333,10.5,44.7,-48.78
1554105141882,6.8761472999999995,-5.895123,3.5236663999999998,-0.112918034,-0.09054748,0.19174760000000002,10.44,44.7,-48.72
1554105141902,6.95755,-5.899911400000001,3.5332432000000003,-0.2066613,-0.07776430000000001,0.26525086,10.5,44.76,-48.6
1554105141923,7.019799000000001,-6.139332,3.614646,-0.294013,-0.07882957,0.32277513,10.5,44.76,-48.48
1554105141943,6.9623384,-6.215946,3.4183214,-0.3334278,-0.09161274,0.36645097,10.5,44.76,-48.36
1554105141963,6.794744500000001,-6.570288000000001,3.3369186,-0.35579833,-0.10439592,0.41864893,10.56,44.82,-48.24
1554105141983,6.8665705,-6.7570357,3.221997,-0.4016047,-0.11611383,0.49321744,10.56,44.82,-48.12
1554105142002,6.622362,-6.8288617,3.1501707999999997,-0.47297743,-0.12144015,0.59761333,10.68,44.88,-48.0
1554105142022,6.5601125,-7.2071457,2.7575218999999995,-0.5581986,-0.15233281,0.7254451,10.8,44.94,-47.94
1554105142043,6.497863300000001,-7.5136037,2.8532897999999998,-0.6412892,-0.18322548,0.8681905000000001,10.98,45.12,-47.82
1554105142063,6.373365,-7.8104844,2.6473885,-0.753142,-0.21944448,1.0173275,11.16,45.36,-47.76
1554105142083,6.315904,-8.06427,2.475006,-0.8511463,-0.23861924,1.164334,11.4,45.66,-47.7
1554105142103,6.1578870000000006,-8.581417,2.6138697,-0.87138635,-0.2727077,1.2857742,11.64,45.96,-47.52
1554105142122,5.9807158,-8.926183,2.4366987,-0.8447546999999999,-0.314253,1.4242586000000002,12.0,46.26,-47.22
1554105142144,5.975927400000001,-9.021951,2.1733365,-0.77870834,-0.33662358,1.5606124,12.36,46.56,-46.86
1554105142162,5.7843914000000005,-9.237428999999999,2.0919337,-0.721184,-0.34621096,1.6841831000000003,12.78,46.86,-46.32
1554105142183,5.45878,-9.500791,2.1158757,-0.660464,-0.38456047,1.7896442,13.32,47.16,-45.78
1554105142202,5.233725,-9.725846,1.9099745,-0.5752428,-0.4282363,1.8769958999999998,13.8,47.4,-45.18
1554105142223,4.9799394999999995,-9.922171,1.7854759999999998,-0.43036684,-0.49534798,1.9515644,14.58,47.76,-44.64
1554105142242,4.841076,-9.946113,1.809418,-0.29827404,-0.53795856,2.0570256999999996,15.42,48.0,-44.1
1554105142262,4.5872903,-10.061034,1.7375918999999997,-0.16192019,-0.57098174,2.1454427000000003,16.26,48.18,-43.68
1554105142283,4.295198,-10.22384,1.5412674,-0.02130529,-0.62744075,2.2594258999999997,17.58,48.42,-43.2
1554105142302,4.003105000000001,-10.171167,1.6897078999999997,0.04474111,-0.6508765999999999,2.3041669999999996,18.06,48.42,-43.08
1554105142323,3.7541082,-10.286089,1.6514006,0.14807177,-0.6583334,2.3627564999999997,18.96,48.24,-42.96
1554105142342,3.3039982000000006,-10.166379,1.4694413,0.25033715,-0.6135923000000001,2.4351945,20.46,47.58,-42.9
1554105142363,2.8491,-9.86471,1.6226702,0.2727077,-0.5539375,2.4479778,21.42,46.74,-42.84
1554105142383,2.3511062000000003,-9.768942,1.8285716,0.24927188,-0.5049353,2.4458472999999996,22.2,45.6,-42.84
1554105142403,1.8722657,-9.606135,1.8381484000000001,0.22796659,-0.48469532,2.4543692999999998,22.98,44.34,-42.96
1554105142422,1.3024458,-9.716269500000001,1.8764555,0.2876214,-0.4825648,2.4671526000000004,23.82,42.96,-43.2
1554105142443,1.0151415000000001,-9.596559,1.8956091,0.32810146,-0.47936899999999993,2.4831314,24.78,41.4,-43.62
1554105142463,0.7086836999999999,-9.448118,1.9147629000000002,0.25353295,-0.4857606,2.4714136000000004,25.68,39.9,-44.1
1554105142482,0.110133275,-9.266159,1.8620903000000002,0.15446335,-0.4857606,2.4298682,26.4,38.46,-44.64
1554105142502,-0.34476504,-9.132083999999999,2.0488381,0.09267801,-0.49641323,2.401106,27.0,36.78,-45.24
1554105142523,-0.7613561,-9.11293,2.2068555,0.12676647,-0.49428272,2.3776702999999997,27.6,35.04,-45.9
1554105142542,-1.1444284,-8.959702,2.1924900000000003,0.2066613,-0.47936899999999993,2.3318639,28.2,33.24,-46.56
1554105142563,-1.6280571000000001,-8.701127,2.0009542000000002,0.257794,-0.41545314,2.2626216,28.8,31.26,-47.22
1554105142583,-2.0925324,-8.356361999999999,2.0871453,0.14807177,-0.37923414,2.211489,29.34,29.28,-47.82
1554105142603,-2.4851813,-8.112153999999999,2.0440497,-0.010652645,-0.35579833,2.163552,29.7,27.12,-48.36
1554105142623,-3.0550013,-7.9876556,2.1829132999999996,-0.11717909,-0.32597092,2.1177456,30.06,24.84,-48.72
1554105142642,-3.3470940000000002,-7.934983,2.3361422999999997,-0.1587244,-0.30679616,2.078331,30.36,22.5,-49.08
1554105142663,-3.7636849999999997,-7.925406,2.2691047,-0.18216023,-0.2876214,2.0208068,30.66,20.4,-49.38
1554105142683,-4.012682,-7.5758529999999995,2.379238,-0.18748654,-0.2695119,1.9366508000000002,30.96,18.36,-49.68
1554105142703,-4.4436383,-7.561487700000001,2.0392613,-0.21624869,-0.25992453,1.8556907,31.14,16.32,-49.98
1554105142723,-4.663905000000001,-7.2215110000000005,2.0296845,-0.34088463,-0.25353295,1.8269285,31.38,14.58,-50.28
1554105142743,-5.195418,-7.2023573,1.8142063999999998,-0.4857606,-0.26738137,1.7928401000000003,31.5,12.9,-50.64
1554105142763,-5.544971,-6.9437833,1.7567455,-0.6242449999999999,-0.2876214,1.7619474,31.62,11.46,-51.0
1554105142782,-5.8083334,-6.8719573,1.9722236000000002,-0.69774824,-0.30253512,1.7214673999999999,31.74,10.08,-51.36
1554105142802,-6.1387334000000005,-6.7905545,1.6944963,-0.75633776,-0.34408042,1.6852484,31.86,8.76,-51.72
1554105142824,-6.2345014,-6.747458999999999,1.6897078999999997,-0.7307714,-0.36218992,1.6660736,31.98,7.5,-52.08
1554105142844,-6.564901,-6.4026937,1.857302,-0.6562029,-0.39308259999999995,1.6330504,32.04,6.48,-52.38
1554105142864,-6.8665705,-6.3021374,1.4359225,-0.5858955,-0.43356264,1.6010925,32.04,5.58,-52.62
1554105142884,-6.9767036,-5.7802014,1.8956091,-0.56459016,-0.43675843,1.5893745000000001,31.8,4.56,-52.86
1554105142903,-7.0820484,-5.607819,2.0392613,-0.50173956,-0.44315,1.5478293,31.56,3.54,-52.98
1554105142923,-7.125144500000001,-5.3157263,1.8860323,-0.37284255,-0.45593318,1.4732608,31.38,2.64,-53.16
1554105142943,-7.2831616,-5.2678423,1.7423803,-0.26418558,-0.47191215,1.4093448999999998,31.14,1.68,-53.46
1554105142963,-7.3645644,-4.836886,2.1733365,-0.16298546,-0.42717105,1.3731258999999998,30.9,0.84,-53.82
1554105142982,-7.3645644,-4.6405616,2.417545,-0.017044231,-0.38456047,1.3102753,30.6,0.0,-54.18
1554105143002,-7.699753,-4.362833999999999,2.0248961,0.047936900000000005,-0.34834146,1.2634037,30.3,-0.9,-54.6
1554105143023,-7.852981599999999,-4.085107,1.9003976999999999,0.083090626,-0.30253512,1.2282499,29.94,-1.98,-55.02
1554105143042,-8.049306,-3.9653966,1.8620903000000002,0.10439592,-0.28655612,1.1547466999999998,29.58,-3.06,-55.38
1554105143062,-8.039729,-3.7259765,1.9961656000000003,0.056459017,-0.28655612,1.0737866000000003,29.16,-4.14,-55.8
1554105143083,-8.1881695,-3.4338839999999995,2.168548,0.03195793,-0.2876214,0.9864349,28.5,-5.7,-56.34
1554105143102,-8.164227499999999,-3.4626143,2.1350293,-0.014913702,-0.29188246,0.9374326999999999,28.08,-6.78,-56.64
1554105143123,-8.312667999999999,-3.3189620000000004,2.202067,-0.07030745599999999,-0.294013,0.89588743,27.6,-7.8,-56.94
1554105143143,-8.470686,-3.1992521000000003,2.0344729999999998,-0.10439592,-0.30892670000000005,0.8426242,27.18,-8.82,-57.3
1554105143163,-8.51857,-2.959832,2.235586,-0.10013486,-0.31957933,0.78723043,26.7,-9.72,-57.72
1554105143183,-8.667010000000001,-2.8592752999999997,2.3265655,-0.080960095,-0.3291667,0.737163,26.28,-10.5,-58.14
1554105143204,-8.628703,-2.7922377999999997,2.6665419999999997,-0.08841695,-0.35260254,0.69348717,25.8,-11.16,-58.5
1554105143224,-8.643068,-2.7682957999999998,2.460641,-0.043675844000000005,-0.34940675,0.63702816,25.38,-11.94,-58.86
1554105143242,-8.6813755,-2.533664,2.819771,-0.0031957934000000003,-0.34408042,0.5858955,24.96,-12.78,-59.22
1554105143262,-8.523358,-2.4139538,2.7287915000000003,0.07456851,-0.33981937,0.5305017,24.54,-13.5,-59.46
1554105143283,-8.494628,-2.236783,2.8628666000000003,0.13741912,-0.294013,0.47191215,24.18,-14.22,-59.64
1554105143303,-8.508992999999998,-2.1170728,2.9921536,0.17257284,-0.24927188,0.40906155,23.76,-14.82,-59.76
1554105143323,-8.461109,-2.1745335999999997,2.9634232999999996,0.18855181,-0.20453078,0.33981937,23.46,-15.3,-59.94
1554105143343,-8.480263,-2.1170728,3.0735563999999997,0.1768339,-0.16405073,0.2876214,23.16,-15.78,-60.06
1554105143362,-8.595184,-2.0308816000000003,3.1453824,0.18322548,-0.12144015,0.25246766,22.98,-16.32,-60.24
1554105143383,-8.580819,-1.9590555,3.1022868,0.15552860000000002,-0.082025364,0.20133498,22.8,-16.74,-60.36
1554105143403,-8.652645,-1.8968061999999999,3.044826,0.06924219,-0.05006743,0.15765914,22.56,-17.04,-60.48
1554105143423,-8.690952000000001,-1.9782091,2.8772318,0.029827405,-0.02876214,0.113983296,22.32,-17.4,-60.6
1554105143442,-8.7292595,-2.3373394,2.795829,0.029827405,-0.034088463,0.07137272,22.08,-17.76,-60.72
1554105143462,-8.710106,-2.3517046,2.9921536,0.05539375,-0.039414786,0.04580637,21.84,-18.12,-60.9
1554105143483,-8.834603999999999,-2.2559366,3.0065188,0.09161274,-0.040480047000000005,0.036218993,21.66,-18.48,-60.96
1554105143505,-8.7771435,-2.1458032000000005,2.9203273999999997,0.080960095,-0.05006743,0.029827405,21.48,-18.84,-61.02
1554105143522,-8.815451,-2.1458032000000005,3.0735563999999997,0.04474111,-0.049002163,0.022370555,21.36,-19.08,-61.08
1554105143542,-8.954314,-2.236783,3.1453824,0.03089267,-0.039414786,0.014913702,21.3,-19.56,-61.08
1554105143563,-8.892064999999999,-2.1410147999999998,3.116652,0.020240024,-0.010652645,0.018109497,21.24,-19.8,-61.14
1554105143582,-8.90643,-2.0883423999999997,3.2076318,0.047936900000000005,0.007456851,0.015978966,21.18,-20.04,-61.14
1554105143602,-8.939949,-2.2080526000000003,2.9730000000000003,0.080960095,0.011717908999999999,0.0010652645,21.18,-20.28,-61.2
1554105143622,-8.944737,-2.0213048,2.9346926,0.08948222,0.014913702,0.0,21.12,-20.52,-61.26
1554105143642,-8.930372,-2.1266496,2.9203273999999997,0.05539375,0.014913702,-0.0053263223,21.06,-20.76,-61.26
1554105143663,-9.011775,-2.4139538,2.7862522999999997,0.0031957934000000003,-0.0031957934000000003,-0.01917476,21.06,-20.94,-61.26
1554105143682,-8.892064999999999,-2.2511482000000003,2.8006175,-0.004261058,-0.022370555,-0.004261058,21.06,-21.12,-61.32
1554105143702,-8.983044999999999,-2.1458032000000005,2.9299042,0.034088463,-0.027696876000000002,0.024501082,21.0,-21.12,-61.32
1554105143723,-8.925583999999999,-2.1841104,2.9682117000000003,0.09161274,-0.035153727999999995,0.02130529,21.0,-21.12,-61.32
1554105143743,-8.8777,-2.0883423999999997,2.9921536,0.1438107,-0.036218993,0.0053263223,21.0,-21.12,-61.32
1554105143762,-8.887277000000001,-2.0165164,2.9825767999999995,0.18429075,-0.027696876000000002,0.007456851,21.0,-21.06,-61.32
1554105143782,-8.738836000000001,-2.0165164,2.915539,0.21092236,-0.029827405,0.0,20.94,-21.06,-61.32
1554105143802,-8.853758000000001,-2.0739772000000003,2.9634232999999996,0.20559604,-0.033023197000000004,-0.011717908999999999,20.94,-21.06,-61.32
1554105143823,-8.868122999999999,-1.9925743000000002,2.949058,0.17150758,-0.025566347000000003,-0.012783173500000002,20.94,-21.0,-61.26
1554105143843,-8.801085,-2.0213048,2.9682117000000003,0.11824436,-0.014913702,-0.01917476,20.94,-21.06,-61.26
1554105143862,-8.805874000000001,-2.0979192,3.0544027999999996,0.06924219,-0.018109497,-0.022370555,20.94,-21.12,-61.2
1554105143882,-8.930372,-2.0883423999999997,3.0639796,0.040480047000000005,-0.025566347000000003,-0.017044231,20.94,-21.18,-61.2
1554105143903,-8.825027,-2.0165164,3.1022868,0.04580637,-0.03089267,-0.008522116,20.88,-21.3,-61.14
1554105143923,-8.920795,-2.0260932,3.317765,0.06178534,-0.033023197000000004,-0.014913702,20.88,-21.42,-61.2
1554105143942,-8.8777,-1.9351135,3.2698810000000003,0.084155895,-0.017044231,-0.02130529,20.88,-21.42,-61.2
1554105143964,-8.853758000000001,-1.9111716,3.3225534,0.112918034,0.0010652645,-0.029827405,20.82,-21.6,-61.2
1554105143983,-8.911219000000001,-2.0021513,3.198055,0.12570119999999999,0.0031957934000000003,-0.037284255,20.76,-21.72,-61.26
1554105144002,-8.963891,-1.9782091,3.0065188,0.12570119999999999,0.011717908999999999,-0.04580637,20.64,-22.02,-61.32
1554105144023,-8.853758000000001,-1.963844,3.0065188,0.10333065,0.010652645,-0.04580637,20.58,-22.2,-61.38
1554105144043,-8.916007,-1.8441339,3.1405939999999997,0.046871635999999994,0.0053263223,-0.03834952,20.52,-22.44,-61.44
1554105144062,-8.911219000000001,-1.834557,3.09271,0.011717908999999999,0.008522116,-0.039414786,20.4,-22.68,-61.5
1554105144082,-8.916007,-1.8776526000000002,3.2794578000000003,0.00958738,0.0031957934000000003,-0.039414786,20.34,-22.86,-61.5
1554105144102,-8.925583999999999,-1.9303252,3.0304607999999997,0.03195793,0.002130529,-0.04261058,20.34,-23.1,-61.56
1554105144123,-8.949525999999999,-2.0260932,3.116652,0.04474111,0.002130529,-0.039414786,20.34,-23.28,-61.62
1554105144142,-8.858546,-1.9446903000000002,3.0352492,0.041545313,-0.0031957934000000003,-0.02876214,20.34,-23.34,-61.62
1554105144162,-8.959103,-1.8537107,3.0879216,0.039414786,-0.0031957934000000003,-0.025566347000000003,20.28,-23.46,-61.62
1554105144183,-8.992621,-1.8441339,3.1501707999999997,0.04580637,0.0010652645,-0.02876214,20.28,-23.52,-61.62
1554105144203,-8.920795,-1.8584990000000001,3.0879216,0.07030745599999999,0.0053263223,-0.035153727999999995,20.28,-23.58,-61.5
1554105144223,-8.99741,-1.9159599999999999,3.0639796,0.09054748,0.010652645,-0.035153727999999995,20.28,-23.64,-61.44
1554105144243,-8.968679,-1.8584990000000001,3.198055,0.082025364,0.008522116,-0.037284255,20.34,-23.7,-61.38
1554105144262,-8.911219000000001,-1.9446903000000002,2.9586349,0.05006743,0.0031957934000000003,-0.046871635999999994,20.34,-23.7,-61.32
1554105144283,-8.949525999999999,-1.8920178,2.8293478,-0.002130529,-0.0010652645,-0.035153727999999995,20.46,-23.7,-61.26
1554105144302,-8.916007,-1.8393455,3.0400376000000002,-0.008522116,-0.004261058,-0.027696876000000002,20.58,-23.76,-61.14
1554105144324,-8.925583999999999,-1.9063831999999998,3.0639796,0.00958738,-0.0063915867,-0.03089267,20.7,-23.76,-60.96
1554105144342,-8.916007,-1.7914615000000003,3.0639796,0.040480047000000005,0.0010652645,-0.035153727999999995,20.82,-23.76,-60.9
1554105144362,-8.901641999999999,-1.8680758000000002,2.915539,0.035153727999999995,-0.0031957934000000003,-0.036218993,20.88,-23.76,-60.84
1554105144383,-8.8777,-1.8537107,3.1022868,0.013848438000000001,-0.0031957934000000003,-0.04474111,20.94,-23.76,-60.78
1554105144402,-8.8777,-1.9255368000000002,2.9634232999999996,0.010652645,-0.004261058,-0.04261058,20.88,-23.82,-60.72
