TimeStamp,Ax,Ay,Az,Gx,Gy,Gz,Mx,My,Mz
1554118264440,-0.9379284999999999,-7.4968443,5.9292407,-0.19600865,0.06711166,-0.15233281,-7.62,33.72,7.86
1554118264460,-0.5494693,-7.641692999999999,6.6792240000000005,-0.15552860000000002,0.20026971,-0.07243799,-7.62,33.72,7.98
1554118264479,-0.93852705,-7.575253999999999,7.721300599999999,-0.054328485999999995,0.23648871,-0.035153727999999995,-7.68,33.66,8.16
1554118264499,-1.0217254999999998,-7.925406,7.429208,0.13848437,0.18535602,-0.0031957934000000003,-7.68,33.6,8.28
1554118264520,-0.91578215,-7.7877398,6.3925184999999995,0.28336033,0.24181503,0.022370555,-7.62,33.54,8.46
1554118264539,-1.2563573000000001,-7.577648,6.1501055000000004,0.31957933,0.35579833,0.051132694000000006,-7.68,33.48,8.58
1554118264560,-1.2006921999999998,-8.125919999999999,6.2823853,0.07350325,0.41758367,0.17896444,-7.68,33.36,8.7
1554118264579,-1.5454572,-8.553286,6.642114,-0.14061491,0.46019423,0.28868666,-7.68,33.36,8.76
1554118264599,-2.0685901999999996,-9.114127,6.256647599999999,-0.33875409999999995,0.4133226,0.45486793,-7.74,33.36,8.76
1554118264620,-2.144606,-10.056845,5.916671,-0.37390783,0.3685815,0.67005134,-7.8,33.3,8.76
1554118264640,-2.456451,-10.302849,6.1806316,-0.17470337,0.38775626,0.86499476,-7.8,33.3,8.7
1554118264660,-2.6180596,-10.12448,6.161478,0.054328485999999995,0.37603834,1.1195928999999998,-7.86,33.3,8.58
1554118264680,-2.9017725,-9.563639,6.3344593,0.23648871,0.39521313,1.3646038,-7.86,33.3,8.52
1554118264699,-3.1950622,-8.833407000000001,6.055535,0.42184472,0.36112466,1.506284,-7.74,33.36,8.4
1554118264720,-3.1783028,-8.498219,5.3642087,0.49428272,0.31318775,1.6117451,-7.32,33.36,8.34
1554118264740,-3.0909145000000002,-7.762002000000001,5.192425,0.43249738,0.32597092,1.7331853,-6.66,33.42,8.28
1554118264760,-3.6421792999999996,-6.9892735,5.6156,0.5475459,0.39734364,1.7928401000000003,-5.76,33.48,8.22
1554118264780,-3.867833,-6.2632318,5.521029,0.6785734,0.37923414,1.7971011000000001,-4.8,33.66,8.16
1554118264799,-3.5805287000000003,-5.977723,5.5802855000000005,0.6775081999999999,0.37923414,1.8109495999999998,-3.72,33.9,8.1
1554118264819,-3.9456443999999995,-5.6497173,5.3833623,0.70627034,0.37923414,1.7257284,-2.52,34.08,7.98
1554118264841,-4.3903675,-4.8662148,4.734534,0.66365975,0.35260254,1.7097494999999998,-1.2,34.26,7.8
1554118264859,-5.17387,-4.348469000000001,4.494515,0.45167214,0.34727620000000003,1.6522251000000001,0.36,34.5,7.56
1554118264879,-5.695806,-4.283227,4.936245400000001,0.17257284,0.27164245,1.6181368,1.86,34.68,7.08
1554118264900,-5.8041434,-3.9773676,5.3396683,0.056459017,0.13954964,1.5393071000000003,3.18,34.86,6.6
1554118264919,-5.8574142,-3.6804867,5.0966569999999995,-0.01917476,-0.037284255,1.4476944,4.32,34.98,6.18
1554118264940,-5.8634,-3.9288849999999997,4.5316253,-0.12250541,-0.12037488,1.3741912,5.46,34.98,5.7
1554118264959,-6.169258999999999,-3.9516299,5.331887200000001,-0.19707392,-0.08735169,1.2761868,6.6,34.92,5.34
1554118264979,-5.978321599999999,-3.8367082999999997,6.217143,-0.14487597,-0.18322548,1.1813782,7.74,34.8,4.98
1554118265000,-5.5377884,-3.6613328000000003,6.4864907,0.05219796,-0.29614353,1.0812434,8.88,34.5,4.68
1554118265019,-5.5090580000000005,-3.3494883,6.035183999999999,0.21198763,-0.33449304,0.9289106,9.9,34.2,4.56
1554118265040,-5.5246205,-2.8652607999999997,5.852027400000001,0.2727077,-0.2790993,0.7819041,10.8,33.9,4.62
1554118265060,-5.380968,-2.594716,5.792771,0.19813919,-0.21518342,0.62317973,11.76,33.54,4.74
1554118265080,-5.133767,-2.4319102999999997,5.8179099999999995,-0.026631612000000002,-0.23755397,0.5091964,12.6,33.18,4.86
1554118265099,-5.608417500000001,-3.0376434,6.217741999999999,-0.05965481,-0.25140239999999997,0.3749731,13.44,32.88,4.98
1554118265119,-5.37199,-3.1190462,6.7624226,0.10546118,-0.257794,0.30999196,14.22,32.52,5.04
1554118265139,-5.1810527,-3.3842041,6.6241574000000005,0.26418558,-0.17896444,0.18748654,14.82,32.22,5.1
1554118265160,-5.5204306,-3.4129345,6.561310000000001,0.31638354,-0.068176925,0.12570119999999999,15.36,32.1,5.1
1554118265179,-5.567117700000001,-3.2716765,6.2638300000000005,0.29827404,-0.035153727999999995,0.06391586,15.78,31.98,5.1
1554118265200,-5.4647654999999995,-3.3405099999999996,6.1453169999999995,0.17470337,-0.07350325,0.025566347000000003,16.08,31.8,5.1
1554118265220,-5.321712000000001,-3.626617,6.2530565000000005,0.112918034,-0.10972224,-0.0063915867,16.2,31.74,4.98
1554118265239,-5.100847,-3.958214,6.342839,0.18322548,-0.05965481,-0.068176925,16.32,31.62,4.8
1554118265259,-5.161899,-3.7630866000000003,6.457162,0.17896444,0.04261058,-0.12463594,16.5,31.44,4.68
1554118265280,-5.2852,-3.4691982000000006,6.063316,0.008522116,0.04474111,-0.16085494,16.62,31.38,4.5
1554118265300,-5.6060233,-3.6900635000000004,5.872378299999999,-0.22264028,-0.008522116,-0.15233281,16.74,31.32,4.32
1554118265320,-5.7005944,-3.8534677000000004,6.005855,-0.30253512,-0.037284255,-0.15126756,16.86,31.26,4.14
1554118265340,-5.7969610000000005,-3.6457705000000002,6.2632318,-0.22264028,-0.015978966,-0.12570119999999999,16.86,31.2,3.96
1554118265360,-5.5485625,-3.152565,6.6947865,-0.3057309,0.036218993,-0.15659387,16.86,31.14,3.78
1554118265379,-5.3642087,-2.7862522999999997,6.823475,-0.42717105,0.058589544,-0.22690132,16.86,31.08,3.66
1554118265400,-5.307347,-2.9658175,6.158485400000001,-0.40906155,0.041545313,-0.35899413,16.92,31.08,3.6
1554118265419,-4.672284599999999,-2.8880057,6.562506699999999,-0.32810146,0.083090626,-0.53263223,16.92,31.08,3.54
1554118265439,-4.425682,-2.6689363,6.983886200000001,-0.25566345,0.15765914,-0.7499462,16.86,31.08,3.6
1554118265460,-4.446032499999999,-2.2703017999999995,6.5469446,-0.27803403,0.19174760000000002,-0.91612744,16.74,31.08,3.66
1554118265481,-4.549582,-1.9099745,5.8885393,-0.37071204,0.19813919,-1.0663296999999998,16.56,31.08,3.9
1554118265501,-4.2658687,-2.6952724,5.515642,-0.42184472,0.18748654,-1.2953615,16.32,31.14,4.26
1554118265520,-3.7211879999999997,-3.5691562000000006,5.5527525,-0.20559604,0.21837921,-1.6682042000000001,15.72,31.26,4.74
1554118265540,-3.5422212999999996,-3.7445314,5.191228,0.13848437,0.2130529,-1.9899141,15.12,31.5,5.1
1554118265560,-3.3123782,-3.1591492000000003,4.7800236,0.3536678,0.17896444,-2.2530343999999998,14.34,31.86,5.4
1554118265579,-4.096479,-2.7437549999999997,4.7279496,0.50813115,0.18535602,-2.4586303,13.32,32.4,5.76
1554118265599,-3.654749,-3.840898,4.321534,0.50813115,0.08522116,-2.6056367999999996,12.18,32.94,6.06
1554118265620,-2.6671407000000005,-5.4665610000000004,5.035605,0.3685815,0.07030745599999999,-2.7025759999999996,10.74,33.54,6.24
1554118265640,-2.3540987999999996,-6.0399723,5.2899885,0.42930159999999995,0.05219796,-2.8591697,9.18,34.08,6.24
1554118265661,-2.8149827000000003,-5.0134583,5.3247046,0.5752428,-0.014913702,-2.8730182999999996,7.56,34.62,6.24
1554118265680,-2.4133554,-4.853047,4.6471453,0.35899413,-0.23861924,-2.8911278,5.76,35.04,6.06
1554118265699,-1.5897499,-6.5056449999999995,4.9218802,-0.01917476,-0.3568636,-2.9134984,3.78,35.52,5.88
1554118265720,-0.89184016,-7.9038580000000005,5.802946599999999,-0.08735169,-0.40586576,-2.8953888,1.86,35.76,5.64
1554118265740,-0.83976626,-8.066664,6.1243677000000005,0.15233281,-0.45273739999999996,-2.8985846,-0.18,35.88,5.34
1554118265760,-0.9163806999999999,-7.141903999999999,6.2901664,0.6562029,-0.5294364,-2.8879318,-2.28,35.88,5.04
1554118265780,-0.22625206,-6.749853,6.2925606,0.8745821,-0.59761333,-2.8698224999999997,-4.2,35.7,4.68
1554118265799,1.0103531,-7.627327999999999,5.7825956,0.81918836,-0.7339671999999999,-2.900715,-6.24,35.4,4.32
1554118265819,1.0672153999999998,-6.9820905,5.4007206,0.73822826,-0.8788431999999999,-2.9678267999999997,-8.4,34.74,3.96
1554118265840,1.2066777,-5.2061915,4.961983,0.59122175,-1.0056095999999999,-2.8921930000000002,-10.62,34.02,3.54
1554118265859,2.5893292000000003,-6.1106014,4.7782279999999995,0.14807177,-1.0365024,-2.7057717,-12.66,33.18,3.18
1554118265880,3.2363622000000003,-7.035361999999999,5.573103,-0.386691,-0.9896306999999999,-2.5726137000000002,-14.76,32.22,2.88
1554118265900,4.0420110000000005,-7.874529400000001,5.680842,-1.1462245,-0.9267801,-2.6013758,-16.74,31.2,2.64
1554118265919,4.0318356,-7.8158712,5.6982,-1.3454291,-0.88203895,-2.7249465,-18.84,29.7,2.4
1554118265939,4.459799299999999,-8.281544,6.3129115,-1.0737866000000003,-0.8202536,-2.7409256,-20.88,28.02,2.34
1554118265960,5.142146599999999,-8.840589999999999,7.235875999999999,-0.6199839,-0.7680557,-2.6620958,-22.92,26.22,2.4
1554118265981,5.0697220000000005,-8.124723,7.476493400000001,-0.09587380000000001,-0.7414241,-2.5577,-24.72,24.48,2.76
1554118266000,5.522825,-7.475296000000001,6.5708866,0.10865697,-0.77444726,-2.4426514999999998,-26.34,22.56,3.3
1554118266020,6.2901664,-7.5345526,5.683236,-0.094808534,-0.79255676,-2.3947146,-27.84,20.34,3.84
1554118266040,6.831256,-6.9144545,5.341464,-0.46765109999999993,-0.7190535,-2.3371902,-29.28,17.88,4.38
1554118266060,5.8945246,-6.8085113,6.272808599999999,-0.6508765999999999,-0.6828345,-2.2540996,-30.6,15.3,4.98
1554118266080,6.3033347,-6.681019999999999,7.453747999999999,-0.70627034,-0.67324716,-2.0985709999999997,-31.92,12.96,5.64
1554118266110,6.587646,-7.001842999999999,7.6249337,-0.6711166000000001,-0.7030744999999999,-2.0676782,-33.12,10.68,6.42
1554118266120,6.587646,-7.001842999999999,7.6249337,-0.6711166000000001,-0.7030744999999999,-2.0676782,-33.12,10.68,6.42
1554118266142,7.314286,-7.005433999999999,6.9012866,-0.49534798,-0.60507023,-2.0197413,-34.26,8.4,7.08
1554118266160,7.1448965,-6.128557700000001,6.3787518,-0.34727620000000003,-0.34514567,-1.8450380000000002,-36.54,2.64,8.34
1554118266180,7.369353,-6.100425700000001,6.319495,-0.46765109999999993,-0.34514567,-1.6767261999999998,-37.26,0.54,8.82
1554118266199,7.325060000000001,-5.744887,6.112396700000001,-0.5997439,-0.34194988,-1.5638082,-38.04,-1.68,9.36
1554118266220,7.6943655,-5.6485205,5.9477954,-0.68176925,-0.32597092,-1.4359765,-38.64,-3.78,9.9
1554118266239,8.118738,-5.638344999999999,5.461174,-0.73822826,-0.2876214,-1.3518206,-39.0,-5.82,10.38
1554118266259,8.525752,-5.6042275,5.2852,-0.6860303000000001,-0.13635385,-1.2815131000000002,-39.36,-7.74,10.74
1554118266279,8.586803999999999,-5.4647654999999995,4.8859673,-0.67324716,0.007456851,-1.1824435,-39.66,-9.54,11.28
1554118266300,8.4664955,-5.044583,4.359243,-0.7957525,0.112918034,-1.0769824,-40.02,-11.4,11.7
1554118266319,8.477269999999999,-5.0212392999999995,4.156333999999999,-0.93849796,0.15978967,-0.99069595,-40.38,-13.08,12.06
1554118266339,8.608951,-4.933253,3.98874,-1.0173275,0.15978967,-0.92997587,-40.8,-14.64,12.42
1554118266359,8.469488,-5.029619,4.0138793,-1.0056095999999999,0.1438107,-0.8671253000000001,-41.16,-15.96,12.72
1554118266380,8.094197,-5.103241000000001,4.2963949999999995,-0.8426242,0.14061491,-0.78936094,-41.4,-17.28,12.96
1554118266399,7.945757,-4.97156,4.362235500000001,-0.5837649,0.1587244,-0.67005134,-41.58,-18.54,13.14
1554118266419,7.711724,-4.755483,4.012682,-0.2727077,0.19174760000000002,-0.5432849000000001,-41.76,-19.92,13.2
1554118266441,7.474099000000001,-4.1305966,3.738546,-0.10652645,0.18429075,-0.42077947,-41.88,-21.18,13.02
1554118266460,7.413645699999999,-3.9091327000000007,3.5051112,-0.10226539,0.15233281,-0.31638354,-41.94,-22.08,12.9
1554118266480,7.6351094,-3.934272,3.4841620000000004,-0.21624869,0.112918034,-0.2695119,-42.06,-22.98,12.72
1554118266500,7.8128785999999995,-4.086901999999999,3.7978023999999997,-0.28122982,0.098004326,-0.2727077,-42.12,-23.82,12.48
1554118266519,7.943362700000001,-4.0270470000000005,4.0186677,-0.27377295,0.10972224,-0.29507825,-42.18,-24.18,12.36
1554118266540,7.948150999999999,-3.9588125,4.0414124,-0.26418558,0.15339808,-0.31851408,-42.24,-25.08,12.12
1554118266559,8.169615,-3.9534256,3.8708254999999996,-0.3334278,0.2066613,-0.31638354,-42.3,-25.5,11.94
1554118266580,8.407838,-3.9486372000000003,3.7056258,-0.531567,0.26418558,-0.29294774,-42.36,-25.8,11.76
1554118266599,8.674192,-4.24073,3.9959226,-0.65194184,0.25885928,-0.26738137,-42.48,-26.04,11.58
1554118266619,8.568848,-4.2341456,4.370615,-0.660464,0.23009712,-0.26312032,-42.54,-26.34,11.4
1554118266640,8.346786,-4.247912400000001,4.701015,-0.5454154,0.18429075,-0.22690132,-42.54,-26.82,11.22
1554118266659,8.143877,-4.134786,4.7500963,-0.33662358,0.18855181,-0.16937704,-42.54,-27.42,11.04
1554118266679,8.08462,-3.834314,4.459799299999999,-0.18642128,0.21624869,-0.12144015,-42.6,-27.96,10.92
1554118266700,7.872135000000001,-3.6002807999999997,4.5274353,-0.09054748,0.23542345,-0.05539375,-42.6,-28.56,10.74
1554118266720,7.7560163,-3.513491,4.5178585,-0.099069595,0.20453078,-0.020240024,-42.66,-29.04,10.56
1554118266743,7.5626845000000005,-3.3758245000000002,4.370615,-0.14487597,0.16192019,-0.022370555,-42.84,-29.7,10.32
1554118266760,7.384915400000001,-3.3339260000000004,4.3963529999999995,-0.19920446,0.10759171,-0.029827405,-42.96,-29.88,10.26
1554118266780,7.2951326000000005,-3.4398693999999996,4.518457,-0.23435818,0.046871635999999994,-0.040480047000000005,-43.08,-30.18,10.2
1554118266802,7.2245035,-3.5116954,4.7393220000000005,-0.21518342,-0.03089267,-0.058589544,-43.2,-30.36,10.08
1554118266820,7.0395517000000005,-3.6619315,5.102043599999999,-0.13315806,-0.10865697,-0.07137272,-43.32,-30.3,9.9
1554118266840,7.0664864000000005,-3.852869,5.449203,0.0053263223,-0.15765914,-0.05752428,-43.44,-30.3,9.72
1554118266860,7.116166000000001,-4.006098000000001,5.6347537,0.18961707,-0.16831179,-0.06391586,-43.44,-30.3,9.54
1554118266880,6.9455789999999995,-3.8618474000000003,5.695806,0.33555830000000003,-0.16724652,-0.07776430000000001,-43.44,-30.36,9.36
1554118266900,6.7109475000000005,-3.614646,5.555146700000001,0.40906155,-0.15659387,-0.083090626,-43.38,-30.36,9.18
1554118266920,6.442796700000001,-3.4111388,5.312135,0.45486793,-0.12996227,-0.07350325,-43.26,-30.42,9.0
1554118266939,6.327875,-3.3608606,5.068525,0.39095205,-0.111852765,-0.06178534,-43.2,-30.42,8.94
1554118266960,6.3045316,-3.3333273,4.997896,0.26312032,-0.094808534,-0.058589544,-43.14,-30.48,9.06
1554118266980,6.431424,-3.4207156000000003,4.9984946,0.12037488,-0.08841695,-0.07456851,-43.08,-30.54,9.18
1554118267000,6.6247563,-3.5212722000000003,4.9583917,0.008522116,-0.07030745599999999,-0.09374327,-43.08,-30.6,9.36
1554118267020,6.743269000000001,-3.6242227999999996,4.8662148,-0.034088463,-0.03195793,-0.09587380000000001,-43.08,-30.6,9.54
1554118267040,6.773196700000001,-3.5751417,4.667496,-0.09374327,-0.010652645,-0.07137272,-43.14,-30.66,9.66
1554118267060,6.996455999999999,-3.5829230000000005,4.172495,-0.2545982,-0.026631612000000002,-0.004261058,-43.08,-30.66,9.96
1554118267079,7.189189,-3.78643,4.11683,-0.3749731,-0.049002163,0.04261058,-43.02,-30.72,10.08
1554118267100,7.351995,-3.9905357000000006,4.2730513,-0.49854377,-0.11717909,0.10972224,-42.84,-30.66,10.14
1554118267120,7.562086,-4.1760864,4.630386,-0.49534798,-0.19600865,0.15233281,-42.66,-30.66,10.2
1554118267140,7.713519,-4.367024,4.789002,-0.34408042,-0.27377295,0.17363810000000002,-42.54,-30.66,10.26
1554118267161,7.7332716,-4.3436804,4.7848120000000005,-0.08628642,-0.32810146,0.18216023,-42.42,-30.66,10.26
1554118267180,7.645284700000001,-4.26527,4.817133999999999,0.18642128,-0.35579833,0.19920446,-42.24,-30.66,10.32
1554118267200,7.7727756999999995,-4.337096,4.712986,0.39521313,-0.38242993,0.23116238,-42.18,-30.66,10.38
1554118267220,7.9272017,-4.383185,4.638766,0.52837116,-0.38562572,0.25885928,-42.12,-30.6,10.5
1554118267240,7.9846625,-4.3460746,4.6267949999999995,0.5954828000000001,-0.3749731,0.2790993,-42.12,-30.54,10.68
1554118267260,8.0367365,-4.185663,4.583101,0.6061354999999999,-0.36325517,0.30786142,-42.18,-30.42,10.86
1554118267279,8.06427,-4.0162735000000005,4.383185,0.5496765,-0.35473305,0.33875409999999995,-42.18,-30.3,11.1
1554118267299,8.104372999999999,-3.7960067000000004,4.1102457,0.42717105,-0.3291667,0.3749731,-42.18,-30.06,11.4
1554118267320,7.9912467000000005,-3.7181952000000003,4.0150760000000005,0.2695119,-0.2876214,0.41864893,-42.24,-29.76,11.7
1554118267340,8.058285,-3.6792896,4.1545385999999995,0.128897,-0.25992453,0.45699844,-42.24,-29.28,12.12
1554118267360,8.004415,-3.8325183,4.320337,0.09161274,-0.24714136,0.4708469,-42.24,-28.86,12.6
1554118267380,8.082825,-3.9217023999999996,4.413711,0.1470065,-0.2545982,0.47404268,-42.18,-28.38,12.96
1554118267399,8.206725,-3.8857894,4.473566,0.26418558,-0.25992453,0.45593318,-42.18,-27.84,13.32
1554118267419,8.248025,-3.7858315,4.3813889999999995,0.3898868,-0.25992453,0.44421527,-42.18,-27.36,13.62
1554118267439,8.198944000000001,-3.7092169999999998,4.183269,0.46232477,-0.24820662,0.42717105,-42.18,-26.82,13.86
1554118267460,8.211513499999999,-3.6685154000000004,3.9683892999999997,0.48363006,-0.20240025,0.41225734,-42.18,-26.28,14.1
1554118267480,8.174403,-3.5619736000000004,3.8061821000000005,0.4282363,-0.1587244,0.38349520000000004,-42.12,-25.68,14.28
1554118267500,8.211513499999999,-3.5529952000000007,3.7984009,0.33981937,-0.12996227,0.34408042,-42.06,-25.08,14.34
1554118267520,8.264783999999999,-3.5835214,3.8001966,0.26738137,-0.11717909,0.30466563,-42.0,-24.48,14.34
1554118267540,8.237849,-3.627814,3.615843,0.19281286,-0.10865697,0.257794,-41.94,-23.82,14.4
1554118267560,8.336012,-3.6715082999999997,3.5176809999999996,0.13422333,-0.112918034,0.21624869,-41.82,-23.16,14.46
1554118267580,8.488044,-3.8283286,3.5284547999999996,0.11717909,-0.11611383,0.17257284,-41.76,-22.5,14.52
1554118267600,8.307879,-4.0575733,3.6804867,0.16085494,-0.09267801,0.10865697,-41.7,-21.96,14.64
1554118267619,8.104372999999999,-4.1437645,3.6104562000000007,0.24394555,-0.080960095,0.08841695,-41.64,-21.42,14.76
1554118267639,8.036138000000001,-4.1120415,3.4703953000000003,0.2695119,-0.07669904,0.080960095,-41.58,-21.0,14.88
1554118267659,8.031948,-4.088698,3.426701,0.257794,-0.080960095,0.07456851,-41.52,-20.7,15.06
1554118267680,8.128314999999999,-4.0875010000000005,3.3865983,0.24074976,-0.08735169,0.07563378,-41.52,-20.46,15.18
1554118267700,8.22109,-4.298789,3.4201171,0.19600865,-0.08841695,0.06391586,-41.4,-20.22,15.36
1554118267720,8.017583,-4.433463,3.5823242999999994,0.19068234,-0.09267801,0.04580637,-41.34,-20.04,15.48
1554118267740,7.690175999999999,-4.4879313,3.7936125,0.221575,-0.10759171,0.049002163,-41.22,-19.92,15.6
1554118267760,7.5171947,-4.459201,4.0533834,0.2727077,-0.13315806,0.084155895,-41.1,-19.68,15.72
1554118267780,7.567473,-4.437653,4.0940847,0.33662358,-0.12250541,0.11824436,-40.98,-19.38,15.72
1554118267801,7.6794020000000005,-4.2874165,3.7906199000000003,0.35899413,-0.047936900000000005,0.13954964,-40.86,-18.9,15.78
1554118267820,7.695563000000001,-4.373608,3.6936547999999996,0.2908172,0.00958738,0.14168017,-40.8,-18.78,15.84
1554118267839,7.313089,-4.4005427,3.642778,0.12570119999999999,0.07776430000000001,0.12570119999999999,-40.74,-18.48,15.84
1554118267859,7.444770299999999,-4.4406457,3.6056678,-0.096939065,0.08735169,0.111852765,-40.68,-18.18,15.9
1554118267880,7.553706,-4.7207669999999995,3.9025488,-0.27696875,0.07456851,0.080960095,-40.68,-17.76,15.96
1554118267899,7.7464395,-4.8967410000000005,4.0138793,-0.2876214,0.058589544,0.07563378,-40.68,-17.58,15.96
1554118267919,7.738060000000001,-5.0906715,4.115034,-0.15126756,0.07243799,0.07776430000000001,-40.68,-17.4,15.96
1554118267939,7.790133999999999,-5.179257,4.0982747,0.023435817999999997,0.09267801,0.112918034,-40.68,-17.28,16.02
1554118267959,7.960122,-5.060145400000001,4.0120835,0.10333065,0.07030745599999999,0.11504856,-40.68,-17.16,16.08
1554118267979,7.8865004,-5.018246700000001,3.9869443999999996,0.13528858,0.027696876000000002,0.08948222,-40.68,-17.1,16.08
1554118268000,7.8308353,-4.888361499999999,3.934272,0.16937704,0.0,0.06604639400000001,-40.68,-17.1,16.08
1554118268020,7.771578999999999,-4.9164934,3.9917328000000003,0.20879184,-0.014913702,0.041545313,-40.68,-17.04,16.08
1554118268040,7.754819400000001,-4.973954,4.1665095999999995,0.294013,-0.011717908999999999,0.02876214,-40.68,-16.98,16.08
1554118268060,7.8170686,-4.863222,4.1198225,0.37071204,-0.0031957934000000003,0.004261058,-40.62,-16.86,16.08
1554118268080,7.829638,-4.8536453,4.0258503,0.41119209999999995,0.0053263223,-0.02876214,-40.56,-16.74,16.08
1554118268100,7.6931686,-4.6782703,3.8247373,0.4079963,0.02876214,-0.06711166,-40.5,-16.56,16.02
1554118268120,7.526173,-4.4621935,3.5440169999999998,0.34408042,0.05752428,-0.08522116,-40.38,-16.38,16.02
1554118268139,7.4322004,-4.417900599999999,3.4237084,0.24394555,0.08628642,-0.096939065,-40.32,-16.2,16.02
1554118268159,7.57286,-4.473566,3.4596214,0.18109496,0.10972224,-0.10226539,-40.2,-16.02,15.96
1554118268180,7.5800424,-4.4568067000000005,3.5218705999999997,0.15126756,0.112918034,-0.10226539,-40.14,-15.84,15.9
1554118268200,7.620744,-4.433463,3.3542766999999998,0.12570119999999999,0.09374327,-0.094808534,-40.08,-15.72,15.84
1554118268220,7.5944076,-4.3939585999999995,3.3345244,0.080960095,0.07776430000000001,-0.07243799,-40.02,-15.66,15.84
1554118268240,7.9391727,-4.4699745,3.5458126000000005,0.03089267,0.051132694000000006,-0.046871635999999994,-40.02,-15.66,15.78
1554118268260,8.0606785,-4.5274353,3.7331589999999997,0.024501082,0.05006743,-0.046871635999999994,-40.08,-15.6,15.72
1554118268280,7.915829,-4.4927197,3.8456864,0.05006743,0.07030745599999999,-0.029827405,-40.14,-15.6,15.66
1554118268299,7.709928,-4.206013700000001,3.5625722,0.004261058,0.10333065,0.017044231,-40.2,-15.66,15.6
1554118268319,7.5950065,-4.003105000000001,3.5434184,-0.07669904,0.113983296,0.046871635999999994,-40.26,-15.66,15.42
1554118268340,7.562086,-4.035426999999999,3.7612907999999994,-0.19600865,0.09374327,0.06178534,-40.32,-15.72,15.3
1554118268359,7.644087299999999,-4.1814733,3.9402574999999995,-0.21092236,0.07137272,0.058589544,-40.44,-15.78,15.12
1554118268380,7.610568499999999,-4.1635165,3.9145198,-0.14594123,0.07350325,0.015978966,-40.5,-15.78,15.0
1554118268400,7.5722613,-4.0138793,3.642778,-0.096939065,0.07030745599999999,-0.036218993,-40.62,-15.84,14.82
1554118268420,7.634510499999999,-3.9085343,3.4674027,-0.14061491,0.05539375,-0.08841695,-40.68,-15.84,14.7
1554118268440,7.7787614000000005,-3.9468415,3.5835214,-0.20133498,0.027696876000000002,-0.13102753,-40.68,-15.84,14.58
1554118268459,7.81228,-4.1102457,3.9977183,-0.23542345,-0.039414786,-0.19281286,-40.74,-15.78,14.46
1554118268479,7.8027034,-4.282628,4.0258503,-0.16085494,-0.08948222,-0.22477080000000002,-40.68,-15.78,14.4
1554118268501,7.697957000000001,-4.174889,3.858256,-0.053263225,-0.10333065,-0.24394555,-40.74,-15.9,14.4
1554118268520,7.7733746,-4.1120415,3.9055413999999997,-0.02876214,-0.12570119999999999,-0.25353295,-40.74,-15.96,14.46
1554118268541,8.039131,-4.134786,4.0599675,-0.023435817999999997,-0.15552860000000002,-0.28868666,-40.74,-16.08,14.46
1554118268561,7.949947,-4.167108,4.2521024,0.026631612000000002,-0.16831179,-0.3206446,-40.68,-16.26,14.46
1554118268580,7.89907,-4.0258503,4.208408,0.083090626,-0.16937704,-0.3291667,-40.68,-16.5,14.52
1554118268600,7.8050976,-3.9845502,4.155137,0.09267801,-0.16937704,-0.34514567,-40.68,-16.74,14.58
1554118268619,7.824250999999999,-4.0958805,4.3161473,0.060720075,-0.17363810000000002,-0.3717773,-40.68,-16.98,14.76
1554118268639,7.7248917,-4.0438066,4.300585,0.053263225,-0.17257284,-0.4261058,-40.68,-17.28,14.88
1554118268659,7.5369470000000005,-3.9851487,4.1329910000000005,0.05006743,-0.14487597,-0.45699844,-40.68,-17.58,15.06
1554118268680,7.376535400000001,-3.870227,3.9875429,-0.002130529,-0.10759171,-0.46552056,-40.62,-17.88,15.24
1554118268700,7.3442134999999995,-3.9001546,3.9438487999999996,-0.11717909,-0.08841695,-0.46125950000000004,-40.62,-18.3,15.42
1554118268720,7.7410526,-4.1305966,4.2054152,-0.22690132,-0.10652645,-0.46232477,-40.62,-18.72,15.54
1554118268740,7.767987299999999,-4.320337,4.505289,-0.20026971,-0.11504856,-0.48043427,-40.62,-19.08,15.66
1554118268760,7.768586,-4.435258999999999,4.4029370000000005,-0.07350325,-0.10652645,-0.45699844,-40.62,-19.44,15.72
1554118268780,8.081029,-4.3520603,4.2754455,0.015978966,-0.09587380000000001,-0.4048005,-40.62,-20.1,15.78
1554118268800,8.284536,-4.26946,4.309563,-0.002130529,-0.10546118,-0.3749731,-40.56,-20.64,15.78
1554118268819,8.147469000000001,-4.156933,4.3544545,-0.002130529,-0.08735169,-0.30360037,-40.5,-21.24,15.78
1554118268839,7.885902000000001,-4.1359835,4.3478703,0.0063915867,-0.07137272,-0.22583607,-40.44,-21.78,15.78
1554118268859,7.753622,-4.090493700000001,4.2640734,-0.014913702,-0.058589544,-0.12570119999999999,-40.32,-22.32,15.78
1554118268880,7.780557000000001,-3.9767690000000004,4.245518,-0.036218993,-0.05006743,-0.083090626,-40.26,-22.8,15.84
1554118268900,7.730877400000001,-3.945046,4.284424,-0.026631612000000002,-0.035153727999999995,-0.06391586,-40.14,-23.28,15.84
1554118268920,7.6219410000000005,-3.8953662000000002,4.128801,0.015978966,-0.011717908999999999,-0.05752428,-40.02,-23.76,15.84
1554118268940,7.4507556,-3.7337575,3.891775,-0.002130529,0.012783173500000002,-0.04261058,-39.9,-24.06,15.84
1554118268961,7.4950485,-3.669114,3.8295257000000005,-0.10759171,0.015978966,-0.023435817999999997,-39.84,-24.24,15.84
1554118268979,7.774571400000001,-3.7738605000000005,3.9228995,-0.20453078,0.0053263223,-0.00958738,-39.84,-24.36,15.9
1554118268999,7.992444,-3.8420951,4.0438066,-0.20985709,0.0053263223,-0.020240024,-39.78,-24.36,15.9
1554118269020,7.9146323,-3.8025907999999995,4.003105000000001,-0.13741912,0.017044231,-0.020240024,-39.72,-24.42,15.96
1554118269040,8.054692999999999,-3.6864722000000003,3.982156,-0.12570119999999999,0.004261058,0.0,-39.72,-24.48,15.96
1554118269059,8.130709,-3.7247794,4.0743327,-0.15020229,-0.013848438000000001,0.018109497,-39.72,-24.6,15.96
1554118269079,8.280347,-3.834314,4.162918,-0.13528858,-0.024501082,0.035153727999999995,-39.72,-24.72,15.96
1554118269100,8.162432,-3.7068229,4.105457299999999,-0.10013486,-0.00958738,0.06391586,-39.72,-24.84,15.96
1554118269120,8.150461,-3.5996822999999996,4.056975,-0.10439592,-0.0063915867,0.098004326,-39.72,-24.9,16.02
1554118269140,8.09719,-3.5823242999999994,4.19943,-0.10652645,-0.013848438000000001,0.12144015,-39.72,-25.02,16.02
1554118269160,7.978078999999999,-3.602675,4.4083239999999995,-0.06711166,-0.034088463,0.14061491,-39.72,-25.08,16.02
1554118269179,7.926005,-3.6242227999999996,4.325724,0.015978966,-0.06178534,0.1438107,-39.72,-25.14,16.02
1554118269200,7.832032000000001,-3.4925417999999997,4.1060557,0.08841695,-0.060720075,0.1438107,-39.78,-25.14,16.02
1554118269220,8.002021000000001,-3.357868,4.095282,0.11717909,-0.039414786,0.13528858,-39.78,-25.2,16.02
1554118269239,8.083424,-3.4171242999999993,4.331111,0.15020229,-0.0053263223,0.10972224,-39.78,-25.14,16.02
1554118269259,8.115147,-3.5272577000000003,4.3933599999999995,0.16405073,0.0063915867,0.07669904,-39.78,-25.08,16.02
1554118269279,8.045116,-3.4691982000000006,4.1341877,0.13422333,0.011717908999999999,0.027696876000000002,-39.78,-24.96,15.96
1554118269299,7.985860000000001,-3.359065,3.9151182,0.039414786,0.011717908999999999,-0.012783173500000002,-39.78,-24.9,15.84
1554118269320,7.9337860000000004,-3.3943794,3.8929720000000003,-0.06711166,0.018109497,-0.035153727999999995,-39.72,-24.78,15.72
1554118269340,7.9523410000000005,-3.5206735,4.091092,-0.08948222,0.05006743,-0.035153727999999995,-39.72,-24.72,15.66
1554118269360,7.8009076,-3.6014779000000003,4.247314,-0.049002163,0.08735169,-0.03089267,-39.72,-24.6,15.54
1554118269380,7.7649946,-3.6254199000000003,4.187459,-0.03195793,0.083090626,-0.029827405,-39.66,-24.48,15.48
1554118269400,8.009203,-3.7463272000000005,4.2275615,-0.03195793,0.040480047000000005,-0.03834952,-39.66,-24.42,15.36
1554118269420,8.067862,-3.8151605,4.1329910000000005,0.004261058,0.015978966,-0.049002163,-39.66,-24.42,15.3
1554118269440,8.008605000000001,-3.8073792,4.0300400000000005,0.068176925,0.02876214,-0.029827405,-39.66,-24.42,15.24
1554118269460,7.992444,-3.7331589999999997,3.9624038,0.080960095,0.043675844000000005,-0.014913702,-39.66,-24.36,15.24
1554118269480,8.147469000000001,-3.8301241000000004,3.9893386,0.06178534,0.047936900000000005,-0.020240024,-39.66,-24.36,15.24
1554118269501,8.103176,-3.7756559999999997,4.0270470000000005,0.040480047000000005,0.03834952,-0.036218993,-39.66,-24.36,15.24
1554118269520,8.049905,-3.6936547999999996,3.8361096,0.024501082,0.036218993,-0.04261058,-39.6,-24.36,15.18
1554118269540,7.855974000000001,-3.5871127,3.6697125,-0.011717908999999999,0.036218993,-0.037284255,-39.54,-24.3,15.18
1554118269559,7.645284700000001,-3.6337996,3.70802,-0.060720075,0.022370555,-0.01917476,-39.48,-24.3,15.06
1554118269579,7.780557000000001,-3.8750155,4.0276456,-0.047936900000000005,0.0010652645,-0.0063915867,-39.48,-24.24,14.94
1554118269599,7.966107400000001,-4.088698,4.1718965,0.03834952,-0.035153727999999995,-0.012783173500000002,-39.42,-24.18,14.88
1554118269619,8.010999,-3.9863458,3.9875429,0.14807177,-0.047936900000000005,-0.035153727999999995,-39.42,-24.06,14.76
1554118269639,8.05589,-3.8241386,3.7295678,0.16298546,-0.03834952,-0.03195793,-39.36,-24.0,14.7
1554118269660,8.094197,-3.8121676,3.7535098,0.07243799,-0.03089267,-0.026631612000000002,-39.42,-23.94,14.52
1554118269680,8.09719,-3.793014,4.019266,0.025566347000000003,-0.029827405,-0.018109497,-39.48,-23.88,14.4
1554118269700,8.009802,-3.8720226,4.049792299999999,0.039414786,-0.024501082,0.004261058,-39.54,-23.82,14.34
1554118269720,7.953538000000001,-3.8193502,3.8552632000000004,0.04261058,-0.014913702,0.015978966,-39.6,-23.82,14.28
1554118269739,8.063073,-3.7978023999999997,3.8187518,0.0053263223,-0.008522116,0.024501082,-39.6,-23.82,14.22
1554118269760,8.182184,-3.9097313999999996,4.022857,-0.034088463,-0.018109497,0.017044231,-39.6,-23.76,14.16
1554118269779,8.104372999999999,-3.8929720000000003,4.137779,0.0053263223,-0.0053263223,0.004261058,-39.6,-23.7,14.04
1554118269799,7.901464,-3.6529531000000004,3.8911762000000003,0.043675844000000005,-0.0031957934000000003,0.00958738,-39.6,-23.46,13.98
1554118269819,7.6650367,-3.3650506,3.6379894999999998,-0.011717908999999999,-0.014913702,0.034088463,-39.54,-23.28,13.92
1554118269839,7.6728176999999995,-3.4512417,3.4560301,-0.11930962,-0.029827405,0.07669904,-39.48,-23.1,13.86
1554118269860,7.8829093,-3.6421792999999996,3.8666358,-0.2066613,-0.037284255,0.09161274,-39.48,-22.92,13.86
1554118269882,8.171411,-4.122815,4.3478703,-0.15978967,-0.034088463,0.06498113,-39.42,-22.74,13.86
1554118269899,8.137293,-3.9695864000000003,4.0958805,-0.010652645,-0.03089267,0.002130529,-39.36,-22.56,13.86
1554118269919,7.8787193,-3.594894,3.6242227999999996,0.058589544,-0.017044231,-0.03834952,-39.3,-22.38,13.8
1554118269940,8.079832000000001,-3.6391866000000004,3.6768951000000003,-0.037284255,-0.06178534,-0.05219796,-39.18,-22.26,13.8
1554118269960,8.492233,-4.0875010000000005,4.204817,-0.10865697,-0.1438107,-0.11717909,-39.12,-22.26,13.8
1554118269980,8.248025,-4.355053,4.6238019999999995,0.039414786,-0.14274544,-0.16085494,-39.06,-22.26,13.8
1554118269999,7.9565306,-4.1329910000000005,4.380192,0.29507825,-0.10013486,-0.1587244,-39.0,-22.26,13.74
1554118270019,7.712322,-3.7433343,3.8851907,0.3174488,-0.049002163,-0.094808534,-38.94,-22.2,13.74
1554118270040,7.729081599999999,-3.4578260000000003,3.5182792999999997,0.098004326,-0.010652645,-0.011717908999999999,-38.94,-22.14,13.74
1554118270060,8.048708,-3.413533,3.7104141999999998,-0.12783173,-0.00958738,0.043675844000000005,-38.88,-22.08,13.74
1554118270080,8.108562,-3.6655227999999997,4.1946416,-0.18322548,-0.017044231,0.026631612000000002,-38.88,-22.08,13.68
1554118270100,8.157045,-3.900753,4.152144399999999,-0.06711166,-0.010652645,-0.012783173500000002,-38.94,-22.02,13.68
1554118270120,7.9475527,-3.8965633,4.024653,0.058589544,0.014913702,-0.05965481,-38.94,-21.96,13.56
1554118270140,8.049306,-3.8570589999999996,3.9516299,0.06285059999999999,0.026631612000000002,-0.09161274,-38.94,-21.96,13.5
1554118270160,8.025364,-3.7708676,3.9516299,0.025566347000000003,0.046871635999999994,-0.12357068,-38.88,-21.84,13.44
1554118270180,8.037933,-3.7852328,3.7199910000000003,-0.004261058,0.082025364,-0.1107875,-38.88,-21.78,13.38
1554118270200,7.945158500000001,-3.7660792,3.530849,-0.09267801,0.10759171,-0.099069595,-38.82,-21.72,13.26
1554118270220,7.891887,-3.7738605000000005,3.5087025,-0.21624869,0.098004326,-0.08522116,-38.82,-21.6,13.2
1554118270240,7.834426400000001,-3.870227,3.6182373,-0.28655612,0.07669904,-0.054328485999999995,-38.76,-21.54,13.14
1554118270260,7.747038400000001,-4.0426097,3.816956,-0.25140239999999997,0.058589544,-0.020240024,-38.76,-21.48,13.08
1554118270280,7.660248299999999,-4.0797195,3.8774097000000003,-0.14168017,0.04474111,0.008522116,-38.82,-21.48,13.08
1554118270300,7.61835,-3.930082,3.6978445,-0.047936900000000005,0.033023197000000004,0.033023197000000004,-38.82,-21.48,13.08
1554118270320,7.8104844,-3.9378633,3.5506010000000003,-0.04474111,0.013848438000000001,0.03834952,-38.88,-21.48,13.08
1554118270339,8.030152000000001,-3.9827545,3.5458126000000005,-0.07882957,-0.002130529,0.0031957934000000003,-38.94,-21.54,13.08
1554118270360,8.072051,-4.0575733,3.5871127,-0.07350325,0.010652645,-0.018109497,-39.0,-21.54,13.08
1554118270380,7.920019,-4.106654600000001,3.5613751000000002,-0.08628642,0.024501082,-0.022370555,-38.88,-21.54,13.02
1554118270400,7.9523410000000005,-4.073136,3.5517980000000002,-0.13102753,0.015978966,-0.018109497,-38.76,-21.42,13.02
1554118270419,7.9385743,-4.048595,3.5176809999999996,-0.18748654,-0.0053263223,0.0063915867,-38.7,-21.36,13.02
1554118270440,7.993641,-4.0545807,3.5619736000000004,-0.1949434,-0.02130529,0.03834952,-38.58,-21.24,12.96
1554118270460,7.898471400000001,-4.0114849999999995,3.6349967000000003,-0.16298546,-0.040480047000000005,0.056459017,-38.64,-21.06,12.96
1554118270480,7.834426400000001,-4.0958805,3.7056258,-0.12783173,-0.07350325,0.058589544,-38.7,-20.88,12.96
1554118270500,7.81228,-4.0839095,3.7259765,-0.040480047000000005,-0.11504856,0.02876214,-38.7,-20.82,12.9
1554118270519,7.8996687,-4.0821137,3.8241386,0.036218993,-0.1470065,-0.0010652645,-38.82,-20.76,12.9
1554118270539,7.9098440000000005,-4.098873,3.7756559999999997,0.09587380000000001,-0.16937704,-0.033023197000000004,-39.0,-20.7,12.9
1554118270562,7.8793178,-4.0653543,3.7948096,0.12357068,-0.17470337,-0.04580637,-39.12,-20.7,12.9
1554118270579,7.911639699999999,-4.179079,3.7301662,0.10226539,-0.18748654,-0.035153727999999995,-39.24,-20.64,12.9
1554118270599,7.9577279999999995,-4.2461166,3.7834373,0.07669904,-0.17789917,-0.017044231,-39.24,-20.64,12.96
1554118270621,8.030152000000001,-4.325724,3.9408559999999997,0.07030745599999999,-0.17257284,0.012783173500000002,-39.12,-20.64,12.96
1554118270641,8.100781,-4.3502645,3.9600096,0.080960095,-0.15446335,0.03834952,-39.06,-20.58,13.02
1554118270661,8.037335,-4.2760444,3.7834373,0.09161274,-0.12996227,0.054328485999999995,-38.94,-20.52,13.08
1554118270680,8.148665,-4.24492,3.8151605,0.07137272,-0.12463594,0.053263225,-38.88,-20.4,13.14
1554118270701,8.224682000000001,-4.373009,4.097078,0.080960095,-0.12570119999999999,0.035153727999999995,-38.82,-20.28,13.2
1554118270720,8.313267,-4.4693760000000005,4.086901999999999,0.16192019,-0.10972224,0.037284255,-38.7,-20.16,13.26
1554118270740,8.182184,-4.2515035,3.8654387000000003,0.21944448,-0.06285059999999999,0.051132694000000006,-38.64,-19.98,13.38
1554118270760,8.1402855,-4.171298,3.7696705,0.1438107,-0.037284255,0.07989483,-38.58,-19.8,13.44
1554118270779,8.239645,-4.315548400000001,3.9797617999999995,0.05006743,-0.02130529,0.09267801,-38.52,-19.62,13.5
1554118270800,8.161833999999999,-4.256891,4.101866200000001,0.08522116,0.013848438000000001,0.10759171,-38.46,-19.38,13.56
1554118270820,8.14687,-4.0827127,3.8043866000000004,0.12463594,0.049002163,0.12570119999999999,-38.46,-19.26,13.56
1554118270840,8.121132000000001,-3.9079356,3.539827,0.101200126,0.09054748,0.14594123,-38.4,-19.08,13.62
1554118270860,8.274361,-3.9199066,3.7253778,-0.017044231,0.10759171,0.14168017,-38.34,-18.9,13.68
1554118270879,8.161235000000001,-4.0276456,3.9408559999999997,-0.033023197000000004,0.08948222,0.10226539,-38.34,-18.66,13.74
1554118270899,8.060080000000001,-4.0078936,3.8714242,0.039414786,0.07456851,0.07137272,-38.28,-18.48,13.8
1554118270921,8.020576,-3.9767690000000004,3.6481647000000006,0.10226539,0.07776430000000001,0.033023197000000004,-38.22,-18.18,13.8
1554118270940,8.112753,-3.9641995000000003,3.7307648999999996,0.08841695,0.07563378,-0.002130529,-38.22,-18.0,13.86
1554118270960,8.213308999999999,-4.065953299999999,3.7954082000000002,0.07563378,0.06391586,-0.035153727999999995,-38.22,-17.76,13.86
1554118270980,8.010401,-4.0940847,3.7948096,0.12996227,0.08735169,-0.04474111,-38.22,-17.52,13.92
1554118271000,7.6847887,-4.024653,3.5482068,0.12676647,0.11611383,-0.02130529,-38.16,-17.34,13.92
1554118271020,7.513005000000001,-3.8696284,3.4518404,0.01917476,0.11824436,0.011717908999999999,-38.16,-17.16,13.92
1554118271040,7.6488757,-3.9911342000000003,3.530849,-0.08735169,0.10439592,0.03089267,-38.1,-17.04,13.92
1554118271060,7.7733746,-4.152743,3.7020345,-0.06391586,0.1107875,0.029827405,-38.1,-16.92,13.92
1554118271079,7.711125,-4.120421,3.6649241000000004,0.022370555,0.12250541,0.026631612000000002,-38.1,-16.86,13.92
1554118271101,7.699153999999999,-4.107253,3.489549,0.036218993,0.11824436,0.022370555,-38.1,-16.8,13.92
1554118271120,7.7847466,-4.0707417,3.2944214,-0.049002163,0.09161274,0.0063915867,-38.1,-16.74,13.92
1554118271140,7.773973,-4.1276035,3.3620577000000003,-0.12676647,0.07137272,-0.017044231,-38.1,-16.62,13.92
1554118271160,7.9876556,-4.295198,3.5230677000000004,-0.16618125,0.04474111,-0.027696876000000002,-38.16,-16.5,13.86
1554118271180,8.019378999999999,-4.504690599999999,3.6733038000000002,-0.10865697,0.026631612000000002,-0.07030745599999999,-38.22,-16.44,13.86
1554118271200,7.950545299999999,-4.4083239999999995,3.6206315000000004,-0.056459017,0.014913702,-0.07882957,-38.28,-16.32,13.8
1554118271220,7.72968,-4.420893700000001,3.7984009,-0.099069595,0.002130529,-0.047936900000000005,-38.4,-16.2,13.8
1554118271240,7.578247,-4.540005000000001,3.9079356,-0.19813919,-0.017044231,0.020240024,-38.46,-16.02,13.8
1554118271259,7.6949644,-4.659715,3.8905778,-0.30146983,-0.02130529,0.10972224,-38.52,-15.96,13.74
1554118271279,7.6375036,-5.048773000000001,4.204817,-0.314253,0.018109497,0.19068234,-38.58,-15.84,13.68
1554118271299,7.599794999999999,-5.4504004,4.4580035,-0.2545982,0.06604639400000001,0.27590349999999997,-38.58,-15.78,13.68
1554118271319,7.695563000000001,-5.786187,4.437054,-0.25353295,0.10759171,0.35899413,-38.58,-15.72,13.68
1554118271339,7.858368400000001,-6.479907,4.152144399999999,-0.39308259999999995,0.15233281,0.5230448000000001,-38.46,-15.66,13.62
1554118271360,8.022969999999999,-7.247847,3.8217443999999996,-0.60293967,0.16298546,0.74675035,-38.34,-15.66,13.62
1554118271381,7.929596000000001,-7.8888945999999995,4.673482,-0.8522116,0.13741912,1.0066749,-38.28,-15.6,13.62
1554118271399,7.9553337,-9.227253,6.175244999999999,-0.7137272,0.13848437,1.3006879,-38.22,-15.48,13.56
1554118271419,7.948150999999999,-9.904813,6.588244400000001,0.068176925,0.21198763,1.5893745000000001,-38.16,-15.12,13.56
1554118271439,7.891887,-9.656414,5.795764,0.79894835,0.32384038,1.8290591,-38.1,-14.58,13.62
1554118271460,7.6470804,-8.74123,4.4663835,0.88949585,0.44954160000000004,2.0229373,-38.04,-13.74,13.62
1554118271480,7.243657000000001,-8.381501,4.0803185,0.47510794,0.5305017,2.1805964,-38.04,-12.72,13.62
1554118271500,6.884527,-8.643666,4.619014,0.098004326,0.5613944000000001,2.320146,-37.98,-11.4,13.62
1554118271520,6.305729,-8.358158,5.1146135,0.03195793,0.58696073,2.4543692999999998,-37.92,-9.84,13.56
1554118271540,5.7095723,-8.427589999999999,5.389348,0.28336033,0.6018744,2.5704832000000004,-37.74,-8.16,13.44
1554118271560,5.403115000000001,-8.590396,5.01286,0.5965481,0.6061354999999999,2.6929886,-37.32,-6.18,13.32
1554118271580,5.3019595,-8.905233,4.2820295999999995,0.5795039000000001,0.5763081,2.7537086,-36.78,-4.02,13.08
1554118271600,4.955399,-8.678981,3.8397010000000003,0.18109496,0.531567,2.835734,-36.12,-1.68,12.66
1554118271620,4.302380599999999,-8.569447,3.762488,-0.21092236,0.48149952,2.94013,-35.34,0.66,12.18
1554118271639,3.5835214,-8.780735,4.4119152999999995,-0.28336033,0.44847634,3.0754185,-34.38,3.12,11.7
1554118271661,3.2728736,-9.463681,4.741118,-0.15020229,0.35473305,3.2043154,-33.3,5.52,11.28
1554118271680,2.8778305,-9.476849000000001,4.103063,-0.406931,0.2609898,3.2927324999999996,-31.98,8.04,10.92
1554118271699,2.259528,-9.600749,3.481768,-0.90973586,0.17257284,3.3704967000000003,-30.24,10.5,10.56
1554118271720,0.8343792999999999,-8.974067,3.7205894,-1.107875,0.12250541,3.4557178,-28.62,12.78,10.26
1554118271740,0.29328972,-9.240421000000001,4.0384197,-1.015197,0.013848438000000001,3.5473306000000004,-26.94,15.0,10.08
1554118271760,0.49679685,-9.463082,3.8522705999999998,-0.92997587,-0.08628642,3.5782232000000005,-25.14,17.04,10.2
1554118271779,0.15382746,-9.225458,4.333505000000001,-0.78296936,-0.16192019,3.4557178,-22.98,18.9,10.5
1554118271799,-0.5590460999999999,-8.565855,3.810372,-0.39521313,-0.257794,3.4088464,-20.76,20.52,10.86
1554118271819,-1.6035166,-7.015011,3.3147724000000003,-0.020240024,-0.2876214,3.3949977999999996,-18.36,22.14,11.34
1554118271840,-1.8950106,-6.06571,2.8341362,-0.05219796,-0.35473305,3.3023198,-16.02,23.4,11.82
1554118271859,-2.2457612,-6.183026,2.5623944,-0.34408042,-0.38136467,3.1606395,-13.8,24.66,12.3
1554118271879,-2.7222072999999996,-6.613384,2.1996727000000003,-0.7094661,-0.4314321,2.9965889999999997,-11.4,25.74,12.84
1554118271900,-3.0472202,-6.7109475000000005,1.9261352999999999,-1.0620687,-0.5049353,2.8367991000000004,-8.88,26.58,13.38
1554118271920,-3.6816837999999996,-6.0399723,3.0340521000000003,-0.9960223,-0.50387007,2.7025759999999996,-6.42,27.24,13.86
1554118271941,-3.7894227999999996,-5.4695540000000005,2.9293058,-0.85540736,-0.60507023,2.549178,-4.08,27.72,14.28
1554118271959,-3.0891187,-5.222951,2.510919,-1.0354371,-0.67537767,2.3787355,-1.8,28.14,14.7
1554118271981,-3.7223851999999997,-5.929839,2.6378117000000003,-0.8724516,-0.6423545,2.1230721000000004,0.42,28.26,15.12
1554118272001,-4.358644,-6.4487824,3.0681696,-0.20772657,-0.5539375,1.8801918000000002,2.58,28.26,15.6
1554118272021,-4.487332299999999,-5.4055089999999995,3.4428620000000003,0.29188246,-0.43462790000000007,1.6479641,4.68,28.08,16.08
1554118272040,-4.4603977,-4.4657845,2.4277205000000004,0.17896444,-0.41864893,1.4295848999999998,6.42,27.66,16.5
1554118272060,-4.9613843,-3.98874,2.1769277999999996,-0.4048005,-0.39947417,1.2783173,7.98,27.12,16.98
1554118272080,-5.66528,-4.5525746,1.8567034,-0.8341021000000001,-0.47510794,1.1195928999999998,9.36,26.58,17.34
1554118272101,-5.686229,-5.498883,2.8682537,-0.77231675,-0.46765109999999993,0.97258645,10.62,26.04,17.58
1554118272119,-5.4845176,-5.631761,4.2580876,-0.34194988,-0.40053943,0.8330368,11.7,25.5,17.82
1554118272139,-5.449203,-5.403115000000001,5.0577510000000006,-0.09267801,-0.386691,0.721184,12.6,25.02,17.94
1554118272160,-5.8963203,-5.415684,4.56275,0.11611383,-0.32170987,0.588026,13.38,24.6,18.0
1554118272180,-6.5984197,-5.461174,3.5721489999999996,0.50813115,-0.128897,0.46232477,13.98,24.18,18.06
1554118272200,-6.678625599999999,-4.8003745,3.6463692,0.8181231,0.12144015,0.38456047,14.94,23.64,18.18
1554118272219,-6.847417,-4.335899400000001,3.639785,0.5901565,0.17363810000000002,0.36218992,15.3,23.52,18.24
1554118272240,-7.006033,-4.4502225,3.3279405,0.035153727999999995,0.09587380000000001,0.3717773,16.14,23.16,18.42
1554118272260,-6.5331779999999995,-4.8919525,2.9891607999999996,-0.21518342,0.056459017,0.32277513,16.56,22.92,18.48
1554118272280,-6.508039,-5.683236,3.435081,0.0063915867,0.08735169,0.23648871,16.98,22.68,18.54
1554118272300,-6.564901,-5.895722,4.7734394,0.5699165,0.12463594,0.17896444,17.28,22.44,18.6
1554118272320,-6.31351,-5.267244,4.823718,0.98750013,0.09587380000000001,0.13635385,17.52,22.26,18.6
1554118272340,-6.4344171999999995,-4.219182,3.6996403,1.051416,0.09054748,0.033023197000000004,17.76,22.14,18.42
1554118272360,-6.941988,-3.7337575,3.651756,0.7755125,0.10972224,-0.043675844000000005,17.76,22.08,18.24
1554118272380,-6.991069,-3.7415388,3.5332432000000003,0.43356264,0.09267801,-0.1107875,17.76,22.08,17.94
1554118272400,-7.161656,-4.111443,3.6152446000000005,0.17470337,0.1107875,-0.13848437,17.82,22.08,17.64
1554118272420,-7.1909847000000005,-4.5280337,4.064157499999999,0.083090626,0.16192019,-0.12037488,17.82,22.26,17.4
1554118272439,-7.5764512999999996,-4.7165775000000005,4.1264067,0.26844665,0.22477080000000002,-0.13848437,17.82,22.38,17.1
1554118272459,-7.6219410000000005,-4.881179,4.049792299999999,0.4857606,0.25140239999999997,-0.2066613,17.82,22.5,16.86
1554118272480,-7.3843164,-4.997896,4.0892963,0.45486793,0.25885928,-0.24607609,17.82,22.74,16.62
1554118272500,-7.507019500000001,-4.663905000000001,4.0587707,0.1587244,0.19600865,-0.23968449999999997,17.82,22.92,16.5
1554118272520,-7.6794020000000005,-4.8985367,3.9252937000000006,-0.1470065,0.12037488,-0.21624869,17.82,23.1,16.38
1554118272539,-7.5525093,-5.3007627,4.019266,-0.17257284,0.07350325,-0.15765914,17.82,23.34,16.38
1554118272560,-7.4699089999999995,-5.518635,4.161721,0.13528858,0.043675844000000005,-0.13528858,17.7,23.52,16.38
1554118272579,-7.675811,-5.236717700000001,4.3969510000000005,0.34408042,0.06924219,-0.10013486,17.64,23.64,16.38
1554118272599,-7.755418,-5.185841,4.3394904,0.257794,0.043675844000000005,-0.07989483,17.52,23.76,16.32
1554118272620,-7.7428484,-5.160103299999999,4.2078094,0.058589544,-0.022370555,-0.05965481,17.4,23.82,16.32
1554118272640,-7.5189905,-5.060145400000001,3.9546227,0.039414786,-0.080960095,-0.05539375,17.28,23.94,16.32
1554118272660,-7.377134,-4.990713599999999,4.0575733,0.22370553,-0.058589544,-0.04474111,17.16,24.06,16.26
1554118272680,-7.124545599999999,-4.9057193,4.1958385,0.36218992,-0.014913702,-0.027696876000000002,17.04,24.18,16.26
1554118272700,-7.099406699999999,-4.9398365,4.268263,0.28868666,0.020240024,-0.029827405,16.92,24.24,16.2
1554118272720,-7.20954,-4.9440265,4.2066126,0.13635385,0.002130529,-0.02876214,16.86,24.36,16.14
1554118272740,-7.176021,-4.8057612999999995,4.009091000000001,0.10759171,-0.00958738,-0.03834952,16.8,24.48,16.14
1554118272760,-7.348403500000001,-4.455011,3.851672,0.18322548,0.03089267,-0.056459017,16.74,24.6,16.08
1554118272780,-7.322665700000001,-4.533421,4.089895200000001,0.18109496,0.07137272,-0.06498113,16.74,24.72,16.02
1554118272800,-7.289746000000001,-4.528632599999999,4.3065705,0.10226539,0.06711166,-0.06711166,16.74,24.84,15.96
1554118272819,-7.2981253,-4.6142254000000005,4.200627,0.013848438000000001,0.024501082,-0.06391586,16.74,25.02,15.96
1554118272839,-7.390900599999999,-4.617816400000001,4.122815,0.020240024,-0.0031957934000000003,-0.06498113,16.74,25.2,15.84
1554118272860,-7.366958599999999,-4.5675383,4.06715,0.12250541,-0.017044231,-0.07030745599999999,16.68,25.44,15.78
1554118272880,-7.335833999999999,-4.4029370000000005,4.314351599999999,0.18216023,0.002130529,-0.080960095,16.68,25.56,15.72
1554118272900,-7.040748599999999,-4.642357,4.1826706,0.111852765,-0.004261058,-0.09374327,16.62,25.74,15.66
1554118272921,-7.20954,-4.673482,4.1635165,-0.05539375,-0.017044231,-0.08948222,16.62,25.98,15.54
1554118272940,-7.289147,-4.696825,4.0114849999999995,-0.11930962,-0.039414786,-0.05752428,16.62,26.04,15.54
1554118272960,-7.3442134999999995,-4.835689,4.0384197,-0.083090626,-0.039414786,-0.020240024,16.62,26.22,15.48
1554118272979,-7.2071457,-4.7985787,4.386776,0.04474111,-0.02876214,-0.0010652645,16.62,26.34,15.42
1554118273000,-7.157466,-4.5525746,4.449624,0.08841695,-0.015978966,-0.0053263223,16.62,26.34,15.42
1554118273020,-7.180211,-4.4280763,4.144362999999999,0.027696876000000002,-0.023435817999999997,-0.022370555,16.62,26.34,15.42
1554118273040,-7.2640080000000005,-4.4328647000000005,3.9953241000000004,0.0,-0.01917476,-0.03089267,16.68,26.34,15.42
1554118273060,-7.162853,-4.4167037,4.124611,-0.029827405,-0.01917476,-0.03195793,16.74,26.22,15.36
1554118273080,-7.1873937,-4.390966000000001,4.1718965,-0.046871635999999994,-0.033023197000000004,-0.036218993,16.74,26.1,15.36
1554118273100,-7.2723875,-4.334702,4.1557355000000005,-0.080960095,-0.036218993,-0.04261058,16.74,26.04,15.36
1554118273120,-7.361572,-4.5040917,4.1533413,-0.099069595,-0.05965481,-0.04474111,16.68,25.98,15.36
1554118273140,-7.444770299999999,-4.635773,4.092887999999999,-0.06498113,-0.07989483,-0.049002163,16.68,25.92,15.36
1554118273163,-7.5519110000000005,-4.595072,3.9785647000000006,-0.033023197000000004,-0.10013486,-0.03195793,16.62,25.86,15.3
1554118273181,-7.510012,-4.5394063,3.9294837,-0.04261058,-0.10439592,-0.014913702,16.56,25.86,15.3
1554118273200,-7.477092,-4.712986,3.9396589,-0.08628642,-0.10759171,0.008522116,16.5,25.86,15.3
1554118273220,-7.5806413,-4.7004166,3.8588544999999996,-0.13741912,-0.08735169,0.041545313,16.44,25.92,15.24
1554118273240,-7.6494746,-4.703409,3.7774517999999997,-0.18748654,-0.07989483,0.07456851,16.44,25.98,15.24
1554118273260,-7.5985975,-4.710592,3.9223008000000004,-0.17470337,-0.08628642,0.098004326,16.44,25.98,15.24
1554118273280,-7.414244,-4.6698904,3.9324763,-0.10546118,-0.08841695,0.12037488,16.44,25.98,15.24
1554118273300,-7.3950906000000005,-4.3694180000000005,3.855862,-0.07563378,-0.06604639400000001,0.13954964,16.44,25.92,15.3
1554118273319,-7.4705076,-4.1796775,3.7187938999999997,-0.13635385,-0.054328485999999995,0.14807177,16.44,25.8,15.36
1554118273340,-7.553107700000001,-4.1222167,3.728969,-0.23648871,-0.06498113,0.128897,16.5,25.68,15.42
1554118273360,-7.639299,-4.162918,3.7822402000000004,-0.2545982,-0.07776430000000001,0.099069595,16.56,25.56,15.54
1554118273380,-7.615357,-4.1635165,3.638588,-0.20772657,-0.094808534,0.058589544,16.68,25.44,15.6
1554118273399,-7.740454,-4.1641154,3.7433343,-0.17257284,-0.07456851,0.02876214,16.8,25.32,15.66
1554118273419,-7.771578999999999,-4.325724,3.690662,-0.22050974,-0.082025364,0.004261058,16.92,25.26,15.78
1554118273440,-7.781753999999999,-4.347272,3.4338839999999995,-0.33449304,-0.111852765,-0.010652645,16.98,25.14,15.9
1554118273460,-7.852383000000001,-4.486733999999999,3.4344822999999995,-0.40373522,-0.12250541,0.013848438000000001,17.1,25.08,16.02
1554118273480,-7.8027034,-4.622605,3.7630866000000003,-0.4016047,-0.12250541,0.05539375,17.22,25.08,16.14
1554118273500,-7.602189,-4.624999,3.9193082,-0.34727620000000003,-0.11930962,0.06604639400000001,17.28,25.08,16.26
1554118273520,-7.515399,-4.4119152999999995,3.8456864,-0.2727077,-0.13102753,0.05006743,17.34,25.02,16.38
1554118273540,-7.530363,-4.3179426,3.5482068,-0.25566345,-0.12357068,0.041545313,17.28,24.96,16.5
1554118273560,-7.5800424,-4.283227,3.4087446000000003,-0.32170987,-0.11504856,0.036218993,17.22,24.84,16.62
1554118273582,-7.441178999999999,-4.31076,3.3381157,-0.43249738,-0.10759171,0.040480047000000005,17.28,24.72,16.8
1554118273600,-7.4256167,-4.4220904999999995,3.4811692,-0.45912898,-0.07563378,0.03834952,17.34,24.54,16.92
1554118273622,-7.373543,-4.512471700000001,3.6337996,-0.4314321,-0.049002163,0.035153727999999995,17.4,24.3,16.98
1554118273640,-7.374141000000001,-4.578911,3.4404678,-0.40586576,-0.03834952,0.004261058,17.52,24.06,17.1
1554118273661,-7.376535400000001,-4.689044,3.2806550000000003,-0.40906155,-0.034088463,-0.02876214,17.64,23.76,17.22
1554118273681,-7.429208,-4.704606500000001,3.1316159,-0.43995422,-0.01917476,-0.033023197000000004,17.76,23.52,17.34
1554118273701,-7.438784599999999,-4.8656163,3.2028434,-0.49215218,0.002130529,-0.013848438000000001,17.88,23.34,17.64
1554118273721,-7.284957400000001,-5.048174400000001,3.354875,-0.51771855,0.0053263223,-0.0010652645,18.0,23.1,17.94
1554118273741,-7.3190745999999995,-5.112818,3.4703953000000003,-0.48149952,0.0063915867,-0.0010652645,18.06,22.98,18.24
1554118273760,-7.5584945999999995,-5.09127,3.5272577000000003,-0.40053943,0.004261058,0.0,18.12,22.74,18.54
1554118273780,-7.581838,-5.1547165,3.441665,-0.32384038,0.0053263223,-0.002130529,18.12,22.62,18.84
1554118273800,-7.603985000000001,-5.2169657,3.3722332,-0.28549087,0.02876214,0.004261058,18.18,22.5,19.14
1554118273820,-7.6728176999999995,-5.2852,3.2788591,-0.28336033,0.053263225,0.008522116,18.18,22.32,19.44
1554118273839,-7.735666,-5.437232,3.2638955000000003,-0.30360037,0.068176925,0.0053263223,18.12,22.14,19.8
1554118273860,-7.760206,-5.710171,3.2118216,-0.30146983,0.06285059999999999,-0.010652645,18.06,21.9,20.1
1554118273879,-7.759608,-5.952584,3.1280246,-0.26738137,0.06285059999999999,-0.017044231,18.0,21.66,20.28
1554118273899,-7.645284700000001,-5.990891,3.141791,-0.19174760000000002,0.058589544,-0.026631612000000002,18.0,21.42,20.52
1554118273920,-7.5375457,-5.8143187,3.2626984,-0.098004326,0.043675844000000005,-0.024501082,17.94,21.12,20.88
1554118273939,-7.441178999999999,-5.8681884,3.265691,-0.10652645,0.018109497,-0.026631612000000002,17.88,20.94,21.12
1554118273959,-7.4758949999999995,-5.7903767,3.3105824,-0.12144015,0.008522116,-0.026631612000000002,17.82,20.76,21.36
1554118273982,-7.415441,-5.689222,3.365649,-0.07243799,-0.007456851,-0.024501082,17.76,20.7,21.54
1554118273999,-7.372944400000001,-5.5641245999999995,3.4027589999999996,0.02130529,-0.02130529,-0.035153727999999995,17.76,20.58,21.6
1554118274021,-7.4345946,-5.383961,3.3141737,0.10546118,-0.02130529,-0.051132694000000006,17.7,20.52,21.6
1554118274041,-7.640496300000001,-5.2744265,3.2441432,0.10865697,-0.012783173500000002,-0.084155895,17.7,20.46,21.72
1554118274061,-7.7590094,-5.403115000000001,3.0579941,0.05219796,-0.015978966,-0.10226539,17.64,20.46,21.84
1554118274080,-7.914034,-5.5725045,3.0693667000000002,-0.0053263223,-0.024501082,-0.09374327,17.58,20.46,21.9
1554118274100,-7.9301944,-5.7215432999999996,3.1729157000000003,-0.020240024,-0.05752428,-0.056459017,17.52,20.4,22.02
1554118274120,-7.9367785,-5.7586536,3.3494883,-0.012783173500000002,-0.10013486,-0.0010652645,17.46,20.4,22.08
1554118274140,-8.279149,-5.7065797,3.4308910000000004,0.033023197000000004,-0.10333065,0.07243799,17.46,20.4,22.2
1554118274160,-8.190564,-5.57849,3.4129345,0.082025364,-0.11504856,0.165116,17.46,20.4,22.32
1554118274179,-8.151658,-5.319916200000001,3.4614172,0.11930962,-0.111852765,0.23329292,17.46,20.4,22.38
1554118274199,-8.124723,-5.075108999999999,3.3854012000000004,0.10013486,-0.12037488,0.294013,17.52,20.4,22.38
1554118274220,-8.1881695,-4.6603136,3.2010477,0.060720075,-0.113983296,0.33981937,17.52,20.4,22.32
1554118274240,-8.112153999999999,-4.365826599999999,3.0172927000000005,-0.017044231,-0.09374327,0.38562572,17.58,20.4,22.32
1554118274259,-8.015787,-4.346673,3.0059202000000003,-0.082025364,-0.083090626,0.40266997,17.64,20.4,22.2
1554118274279,-7.7218990000000005,-4.5579615,3.1214404,-0.07776430000000001,-0.08841695,0.41438788,17.64,20.4,22.14
1554118274300,-7.7147164,-4.598663,3.342904,0.084155895,-0.09054748,0.40266997,17.76,20.34,21.96
1554118274320,-7.61835,-4.4687777,3.2154129,0.19281286,-0.09587380000000001,0.39627838,18.0,20.34,21.72
1554118274340,-7.758410499999999,-4.325125,3.0148985,0.20240025,-0.10546118,0.37603834,18.24,20.34,21.54
1554118274360,-8.054094000000001,-4.1371803,2.9011737999999996,0.13528858,-0.099069595,0.37284255,18.42,20.28,21.36
1554118274380,-8.213907,-3.9097313999999996,2.9167361,0.020240024,-0.12250541,0.37071204,18.72,20.22,21.24
1554118274400,-8.022969999999999,-3.9079356,3.1316159,-0.05752428,-0.17363810000000002,0.3717773,18.96,20.1,21.12
1554118274420,-7.845799,-4.0001125,3.1310172,-0.10439592,-0.2130529,0.36645097,19.26,19.98,20.94
1554118274440,-8.051102,-4.2491093,3.5290532,-0.10972224,-0.21518342,0.39947417,19.44,19.86,20.82
1554118274460,-8.058883,-4.185663,3.5033157,-0.06604639400000001,-0.22690132,0.41438788,19.68,19.68,20.76
1554118274480,-7.759608,-3.9558197999999996,3.4087446000000003,-0.058589544,-0.24607609,0.4079963,19.92,19.56,20.76
1554118274499,-7.793725,-3.5895068999999995,3.2118216,-0.06285059999999999,-0.25353295,0.38242993,20.1,19.32,20.7
1554118274519,-7.881711999999999,-3.3806129,3.0873232,-0.10333065,-0.26312032,0.37071204,20.28,18.96,20.64
1554118274539,-7.731476,-3.435081,3.1944637000000005,-0.2034655,-0.26525086,0.3685815,20.46,18.54,20.58
1554118274561,-7.641692999999999,-3.852869,3.3919851999999997,-0.31851408,-0.26312032,0.34194988,20.64,18.12,20.52
1554118274580,-7.807492,-4.0054994,3.6343982000000006,-0.35899413,-0.24714136,0.31638354,20.82,17.7,20.46
1554118274600,-7.8027034,-3.9815574000000002,3.6044707000000002,-0.28655612,-0.23648871,0.2908172,21.06,17.34,20.46
1554118274620,-7.5213847000000005,-3.8953662000000002,3.7433343,-0.20772657,-0.21092236,0.27164245,21.36,16.98,20.4
1554118274640,-7.5136037,-3.7948096,3.8666358,-0.23329292,-0.18002969,0.25140239999999997,21.78,16.56,20.4
1554118274660,-7.656657000000001,-3.930082,3.9444472999999998,-0.3291667,-0.17576863,0.24074976,22.08,16.26,20.4
1554118274680,-7.3974850000000005,-3.8391025,3.7606924,-0.37923414,-0.16298546,0.21518342,22.44,16.02,20.34
1554118274701,-7.281964299999999,-3.6733038000000002,3.6170402000000004,-0.3749731,-0.14594123,0.14061491,22.92,15.84,20.34
1554118274720,-7.4693108,-3.7972038,3.788824,-0.34408042,-0.112918034,0.06178534,23.16,15.72,20.34
1554118274740,-7.583634,-3.6176388,4.0456023000000005,-0.36645097,-0.111852765,0.00958738,23.34,15.66,20.34
1554118274759,-7.3418193,-3.6332011,3.9025488,-0.5390238,-0.10865697,-0.041545313,23.52,15.42,20.34
1554118274780,-7.2406645,-3.6828809000000002,3.6870705999999998,-0.7488809000000001,-0.07882957,-0.12250541,23.64,14.94,20.34
1554118274799,-6.9449806,-3.8301241000000004,3.6523547,-0.7094661,-0.004261058,-0.21411815,23.58,14.64,20.34
1554118274820,-6.922235499999999,-3.7582982000000005,4.024653,-0.5336975,0.10439592,-0.31638354,23.58,14.46,20.34
1554118274840,-6.2285156,-3.1741127999999996,4.172495,-0.31638354,0.24607609,-0.52624065,23.58,14.04,20.46
1554118274859,-5.592855,-3.2866404,3.9402574999999995,-0.33129725,0.3057309,-0.7190535,23.58,13.8,20.76
1554118274881,-4.960786,-3.2968156000000004,3.5434184,-0.42184472,0.32490566,-0.94595486,23.52,13.56,21.06
1554118274901,-4.2419267,-3.1507695,3.2555158,-0.32170987,0.34301516,-1.2271847,23.4,13.38,21.36
1554118274921,-3.4763808,-2.791639,3.2914288000000003,-0.002130529,0.4016047,-1.562743,23.16,13.38,21.6
1554118274940,-3.0442273999999996,-3.1872811000000003,2.5773582000000004,0.32597092,0.45167214,-1.9952403000000003,22.8,13.38,21.9
1554118274960,-2.9430726000000003,-3.3991678,2.2421699,0.47723848,0.5006742999999999,-2.4596956000000003,22.32,13.5,22.2
1554118274980,-2.64679,-3.3973722,1.7292121999999999,0.43782368,0.4250405,-2.9454563,21.66,13.92,22.44
1554118275000,-2.244564,-3.8774097000000003,1.5771803999999998,0.20026971,0.31105720000000003,-3.3843453,20.94,14.64,22.62
1554118275020,-2.2870612,-4.891354,1.0295067,0.037284255,0.20026971,-3.7731667,20.1,15.54,22.68
1554118275040,-2.5737667,-4.8261123,1.6304513,0.098004326,0.18322548,-4.1183124,18.78,16.68,22.74
1554118275060,-1.7322049,-5.0643353,1.8189948,0.17896444,0.07137272,-4.463458,17.28,18.06,22.8
1554118275080,-0.10594343,-7.4806833,1.6376339,0.046871635999999994,-0.08735169,-4.8331045999999995,15.54,19.56,22.86
1554118275100,0.18495208,-8.090606,1.9829974999999997,-0.13741912,-0.09587380000000001,-5.0536145999999995,13.68,21.12,22.98
1554118275119,-0.5674258000000001,-8.073248,1.8842366999999998,0.060720075,-0.16724652,-5.209143,11.4,22.74,23.1
1554118275139,0.2172738,-7.963114699999999,2.3852234,0.3653857,-0.29827404,-5.219795700000001,8.88,24.06,23.16
1554118275160,2.0254946,-9.892242,3.2489316,0.43888897,-0.350472,-5.149488400000001,6.0,25.14,23.22
1554118275180,2.8568811000000003,-11.405378,3.9893386,0.45912898,-0.39414784,-5.0621367,2.88,25.92,23.28
1554118275200,3.3967736000000004,-11.780071000000001,4.271256,0.6359629,-0.45912898,-5.03444,-0.18,26.22,23.28
1554118275220,3.7445314,-11.226412,3.9618053,0.95128113,-0.5496765,-4.979046,-3.3,26.22,23.34
1554118275240,5.0134583,-10.888829,4.201824,1.1515508999999997,-0.6530071,-4.7723846,-6.42,26.04,23.34
1554118275260,6.773196700000001,-11.063606,4.8757915,1.0396981,-0.6412892,-4.436826,-9.6,25.5,23.28
1554118275280,7.8248496,-11.727399,4.9135003,0.8543421,-0.6540724,-4.2322955,-12.48,24.6,23.22
1554118275300,8.128913,-10.617087,4.8638205999999995,0.60933125,-0.608266,-3.9787626000000005,-15.3,23.4,23.04
1554118275320,9.074024,-10.281301,4.882375700000001,0.44421527,-0.6061354999999999,-3.8338869,-18.12,21.78,22.8
1554118275340,9.840169,-9.800066000000001,5.0308166,0.41758367,-0.51771855,-3.6474655,-20.52,19.98,22.5
1554118275360,9.874885,-9.0429,4.7572790000000005,0.5954828000000001,-0.42397526,-3.4258904,-22.68,18.0,22.08
1554118275379,9.587581,-7.836820599999999,4.493318,0.48043427,-0.36432046,-2.9870014,-24.66,15.78,21.72
1554118275399,9.374496,-7.253833,4.27365,0.11930962,-0.40266997,-2.5949842999999997,-26.4,13.32,21.42
1554118275420,9.485228999999999,-6.7923503,4.132391999999999,-0.31105720000000003,-0.47404268,-2.2242723,-28.02,10.92,21.06
1554118275440,9.494805,-6.632537400000001,4.431667299999999,-0.49747851,-0.46339005,-1.9387813000000003,-29.58,8.46,20.76
1554118275460,9.2907,-6.503250599999999,5.0966569999999995,-0.27696875,-0.39095205,-1.7150756999999999,-30.84,6.12,20.52
1554118275480,8.90643,-5.803545,5.0571527000000005,0.07030745599999999,-0.37923414,-1.5382419,-31.8,4.08,20.46
1554118275500,8.594585,-5.0212392999999995,4.4783545,0.25992453,-0.4101268,-1.3624732,-32.7,2.1,20.46
1554118275520,8.37372,-4.3640313,3.669114,0.22264028,-0.43995422,-1.2058792999999999,-33.48,0.36,20.58
1554118275540,8.202535000000001,-3.855862,3.0867245,0.047936900000000005,-0.43356264,-1.0663296999999998,-34.14,-1.02,20.7
1554118275560,8.397662,-3.6511576,2.9825767999999995,-0.21624869,-0.39734364,-0.92464954,-34.68,-2.22,20.82
1554118275580,8.380303999999999,-3.7822402000000004,3.4153287000000003,-0.3568636,-0.34514567,-0.81066626,-34.98,-3.48,21.0
1554118275600,8.428787,-3.8935703999999998,3.7092169999999998,-0.350472,-0.32810146,-0.7126619000000001,-35.16,-5.1,21.36
1554118275620,8.450933000000001,-3.7547068999999995,3.5565867,-0.26525086,-0.33875409999999995,-0.64555025,-35.16,-6.06,21.66
1554118275640,8.647857,-3.5709519999999997,3.3291376000000006,-0.19068234,-0.3323625,-0.5795039000000001,-35.22,-7.02,21.96
1554118275659,8.896853,-3.2513257999999996,3.3889925,-0.18322548,-0.28016454,-0.53476274,-35.28,-7.86,22.26
1554118275679,8.907029,-3.6511576,3.7140055,-0.07776430000000001,-0.17363810000000002,-0.49747851,-35.34,-8.7,22.56
1554118275702,8.789114,-3.6248214,3.6978445,0.036218993,-0.11611383,-0.47617322,-35.34,-9.48,22.86
1554118275719,8.658031,-3.2932242999999994,3.4602199999999996,0.004261058,-0.098004326,-0.44954160000000004,-35.4,-10.14,23.16
1554118275741,8.593389,-3.0190883,3.1465794999999996,-0.15020229,-0.09267801,-0.40053943,-35.46,-10.62,23.4
1554118275761,8.56825,-2.9430726000000003,3.2453402999999996,-0.32810146,-0.082025364,-0.330232,-35.46,-11.1,23.58
1554118275781,8.483853,-3.1058779999999997,3.5110967000000004,-0.41119209999999995,-0.051132694000000006,-0.24501082,-35.52,-11.34,23.82
1554118275801,8.461109,-3.2609026,3.6421792999999996,-0.38242993,-0.020240024,-0.15233281,-35.52,-11.64,23.94
1554118275820,8.489241,-3.1962593,3.6206315000000004,-0.31318775,0.0053263223,-0.07776430000000001,-35.58,-11.94,24.06
1554118275839,8.60117,-3.0963013,3.4638114,-0.24394555,0.034088463,-0.0010652645,-35.58,-12.3,24.24
1554118275860,8.74961,-2.966416,3.240552,-0.18748654,0.058589544,0.06285059999999999,-35.7,-12.66,24.42
1554118275880,8.752005,-2.7808652,3.1022868,-0.17789917,0.082025364,0.111852765,-35.82,-12.96,24.54
1554118275900,8.846575999999999,-2.7329812,3.0711622000000003,-0.21518342,0.07776430000000001,0.15552860000000002,-35.94,-13.26,24.66
1554118275920,8.982447,-2.670732,3.0160956000000003,-0.30999196,0.047936900000000005,0.19600865,-36.06,-13.62,24.78
1554118275940,9.065046,-2.6390088,2.9029696,-0.37710363,0.01917476,0.20772657,-36.18,-13.92,24.84
1554118275959,9.135675,-2.529474,2.8975825,-0.40266997,0.018109497,0.21518342,-36.3,-14.16,24.9
1554118275980,9.165602999999999,-2.7419596,3.152565,-0.36432046,0.036218993,0.23648871,-36.3,-14.28,24.96
1554118276000,9.173983,-2.871845,3.2998084999999997,-0.28442562,0.041545313,0.23755397,-36.36,-14.28,24.84
1554118276020,9.106346,-2.8592752999999997,3.3482912000000002,-0.08948222,0.029827405,0.21518342,-36.3,-14.34,24.78
1554118276039,9.155427,-2.8221653,3.3303347000000003,0.07669904,0.012783173500000002,0.20240025,-36.18,-14.4,24.72
1554118276059,9.197326,-2.7144263,3.3081882000000005,0.22264028,0.0053263223,0.18109496,-36.0,-14.4,24.6
1554118276079,9.107543,-2.6180596,3.0370448,0.30466563,0.015978966,0.17257284,-35.88,-14.4,24.54
1554118276100,9.046491,-2.3523033,2.8072014,0.28016454,0.056459017,0.17896444,-35.76,-14.4,24.48
1554118276120,9.022549,-2.2343888,2.6048915,0.16618125,0.10333065,0.2034655,-35.64,-14.4,24.42
1554118276140,8.942344,-2.3026235,2.6210522999999997,-0.015978966,0.13102753,0.21518342,-35.58,-14.4,24.42
1554118276160,8.870517999999999,-2.4079683,2.7042507999999996,-0.17576863,0.14487597,0.2034655,-35.52,-14.34,24.42
1554118276180,8.9124155,-2.5013422999999997,2.5570072999999995,-0.25566345,0.15126756,0.17044231,-35.46,-14.28,24.36
1554118276200,8.883087,-2.574964,2.5893292000000003,-0.30466563,0.15339808,0.12463594,-35.52,-14.1,24.36
1554118276219,8.990826,-2.682703,2.6611552000000005,-0.29827404,0.1438107,0.08948222,-35.52,-13.92,24.36
1554118276239,8.977658,-2.7323828,2.7377696,-0.23968449999999997,0.1470065,0.060720075,-35.52,-13.74,24.36
1554118276260,8.88608,-2.8293478,2.7335799,-0.17044231,0.13315806,0.039414786,-35.58,-13.56,24.3
1554118276280,8.900445,-2.8682537,2.6839,-0.13954964,0.10226539,0.022370555,-35.58,-13.38,24.3
1554118276300,8.875306,-2.9029696,2.6390088,-0.13102753,0.056459017,-0.0031957934000000003,-35.58,-13.26,24.24
1554118276320,8.948329,-2.9424740000000003,2.7455509,-0.1107875,0.013848438000000001,-0.020240024,-35.64,-13.14,24.24
1554118276340,9.051878,-2.9616275,2.7766755,-0.053263225,-0.013848438000000001,-0.034088463,-35.64,-13.02,24.18
1554118276360,8.998607000000002,-2.9550436,2.7814639,0.020240024,-0.002130529,-0.026631612000000002,-35.64,-12.96,24.12
1554118276380,8.844180999999999,-2.8969840000000002,2.771887,0.06178534,0.011717908999999999,-0.0063915867,-35.7,-12.96,24.06
1554118276401,8.760384,-2.9029696,2.7072437000000003,0.05006743,0.0010652645,0.022370555,-35.7,-13.02,24.06
1554118276421,8.825027,-2.9406781000000004,2.8054059,0.05006743,-0.013848438000000001,0.036218993,-35.76,-13.08,24.0
1554118276440,8.874707,-2.96881,2.80361,0.06711166,-0.025566347000000003,0.033023197000000004,-35.82,-13.08,24.0
1554118276459,9.006986999999999,-3.0352492,2.7635074,0.10759171,-0.033023197000000004,0.0053263223,-35.88,-13.14,23.94
1554118276479,8.89446,-2.903568,2.621651,0.18216023,-0.0031957934000000003,-0.029827405,-35.94,-13.14,23.88
1554118276499,8.747814,-2.7000610000000003,2.5276785,0.15020229,0.037284255,-0.04261058,-36.06,-13.14,23.88
1554118276519,8.723274,-2.8048072,2.4492682999999995,0.00958738,0.06604639400000001,-0.054328485999999995,-36.12,-13.14,23.82
1554118276539,8.653842,-2.8778305,2.5187001,-0.15233281,0.07776430000000001,-0.08522116,-36.18,-13.08,23.76
1554118276559,8.642469,-2.9466639,2.6024973,-0.27164245,0.07563378,-0.11611383,-36.18,-13.08,23.76
1554118276581,8.614338,-3.0017304,2.6910827,-0.28868666,0.09054748,-0.14487597,-36.24,-13.02,23.7
1554118276601,8.544906,-3.1495724,2.7473464,-0.23009712,0.096939065,-0.14594123,-36.3,-13.08,23.64
1554118276621,8.5538845,-3.2393548,2.7557259999999997,-0.22690132,0.07989483,-0.15020229,-36.3,-13.08,23.58
1554118276641,8.6496525,-3.2543187000000002,2.8502972,-0.26525086,0.046871635999999994,-0.14913702,-36.3,-13.2,23.58
1554118276661,8.66282,-3.145981,2.9215245,-0.29614353,0.0010652645,-0.1768339,-36.3,-13.32,23.52
1554118276680,8.867524000000001,-2.9071592999999996,3.0777464,-0.31105720000000003,-0.08522116,-0.18322548,-36.3,-13.5,23.52
1554118276700,9.024942999999999,-3.4943372999999998,2.8341362,-0.04474111,-0.13315806,-0.14913702,-36.3,-13.74,23.46
1554118276719,9.036914,-3.3446998999999997,2.705448,0.20026971,-0.09054748,-0.12570119999999999,-36.3,-13.98,23.46
1554118276740,9.005191,-3.157952,2.7940332999999997,0.16085494,-0.07137272,-0.09161274,-36.36,-14.22,23.4
1554118276759,8.880094999999999,-3.0538042,2.966416,-0.022370555,-0.09374327,-0.07989483,-36.36,-14.46,23.4
1554118276780,8.820239,-3.1531637000000003,3.064578,-0.12250541,-0.15978967,-0.06391586,-36.42,-14.64,23.4
1554118276800,8.857947,-3.3075894999999997,3.056797,-0.07669904,-0.19174760000000002,-0.047936900000000005,-36.42,-14.88,23.4
1554118276820,8.820838,-3.5170822,3.1902738,0.080960095,-0.18429075,-0.05006743,-36.48,-15.0,23.4
1554118276839,8.835801,-3.4452562000000007,3.3506854,0.27590349999999997,-0.1470065,-0.049002163,-36.48,-15.12,23.46
1554118276859,8.942942,-3.0556,3.4500446000000005,0.39627838,-0.07776430000000001,-0.058589544,-36.48,-15.18,23.52
1554118276879,8.620922,-2.8772318,3.1735144,0.45806372,-0.10013486,-0.07989483,-36.48,-15.24,23.64
1554118276900,8.88608,-2.5983074,2.8616695,0.27164245,-0.11504856,-0.07350325,-36.48,-15.3,23.7
1554118276920,8.98484,-2.8275523,2.6114755,0.05219796,-0.10013486,-0.1107875,-36.48,-15.3,23.76
1554118276940,9.060856,-2.9281087,2.6551697,-0.10013486,-0.03089267,-0.14061491,-36.42,-15.3,23.88
1554118276960,8.951322,-2.9005754,2.617461,-0.165116,0.06285059999999999,-0.16405073,-36.42,-15.24,24.0
1554118276980,8.7532015,-2.7814639,2.7862522999999997,-0.28442562,0.1470065,-0.128897,-36.36,-15.18,24.12
1554118277000,8.707113,-2.8880057,2.7557259999999997,-0.45486793,0.14807177,-0.08948222,-36.3,-15.06,24.18
1554118277020,8.602965,-3.0131028,2.621651,-0.51452273,0.13954964,-0.08948222,-36.24,-15.0,24.24
1554118277040,8.582016000000001,-3.0502129,2.705448,-0.5550028,0.12357068,-0.07669904,-36.18,-15.0,24.24
1554118277060,8.746018,-3.2776620000000003,2.9059622000000003,-0.5581986,0.07669904,-0.06391586,-36.18,-15.06,24.3
1554118277083,9.029133,-3.365649,3.0801406000000005,-0.3898868,0.06711166,-0.04474111,-36.18,-15.42,24.24
1554118277103,8.979453,-3.4811692,3.1543607999999996,-0.19920446,0.09054748,-0.03089267,-36.18,-15.54,24.24
1554118277122,8.944139,-3.4434607,3.064578,0.040480047000000005,0.10972224,0.012783173500000002,-36.18,-15.78,24.12
1554118277141,8.93576,-3.2064347,2.8263552000000005,0.15233281,0.1107875,0.039414786,-36.24,-16.14,24.0
1554118277161,8.758589,-2.992752,2.6378117000000003,0.13422333,0.08948222,0.058589544,-36.24,-16.38,23.94
1554118277181,8.79091,-2.9352913,2.5821466,0.06178534,0.05965481,0.08628642,-36.3,-16.68,23.88
1554118277200,8.819042,-2.870648,2.5360582000000003,-0.024501082,0.051132694000000006,0.10759171,-36.36,-16.92,23.82
1554118277220,8.793304,-3.0065188,2.8101943,-0.051132694000000006,0.068176925,0.12570119999999999,-36.42,-17.04,23.76
1554118277240,8.729858,-2.9735985,2.834735,-0.039414786,0.08628642,0.13209279,-36.48,-17.1,23.7
1554118277260,8.74123,-2.9119477000000002,2.7287915000000003,-0.033023197000000004,0.09267801,0.12250541,-36.54,-17.1,23.7
1554118277279,8.736442,-3.0029275,2.7659016,-0.024501082,0.10865697,0.101200126,-36.6,-17.1,23.7
1554118277299,8.720282000000001,-2.9712042999999997,2.681506,-0.03834952,0.09587380000000001,0.06498113,-36.66,-17.1,23.7
1554118277319,8.746018,-3.0190883,2.6497827000000003,-0.07456851,0.080960095,0.03089267,-36.72,-17.1,23.64
1554118277339,8.772355000000001,-3.0831332000000002,2.7736826,-0.12676647,0.07563378,0.004261058,-36.78,-17.04,23.64
1554118277360,8.623316,-3.1878796,2.8892027999999996,-0.13741912,0.07243799,0.0031957934000000003,-36.78,-16.98,23.58
1554118277379,8.655638,-3.3255462999999996,2.9520507,-0.09161274,0.07137272,0.013848438000000001,-36.78,-16.98,23.52
1554118277399,8.619126,-3.406949,3.0879216,-0.027696876000000002,0.07456851,0.03089267,-36.84,-16.92,23.46
1554118277419,8.640674,-3.4165258,3.0424318,-0.0053263223,0.053263225,0.04474111,-36.84,-16.92,23.4
1554118277440,8.628103999999999,-3.3446998999999997,2.8760347,-0.025566347000000003,0.03834952,0.06178534,-36.84,-16.92,23.34
1554118277459,8.585009,-3.3339260000000004,2.9233203,-0.08628642,0.039414786,0.08841695,-36.9,-16.92,23.28
1554118277479,8.606557,-3.4608185,2.9861681,-0.13209279,0.051132694000000006,0.112918034,-36.9,-16.98,23.22
1554118277499,8.631696,-3.6511576,3.204639,-0.11611383,0.09054748,0.11504856,-36.9,-16.98,23.22
1554118277520,8.515577,-3.6074634,3.2423477000000003,-0.10865697,0.10013486,0.11824436,-36.9,-17.04,23.22
1554118277539,8.374918,-3.6086605000000005,3.3045970000000002,-0.15339808,0.08841695,0.128897,-36.96,-17.1,23.16
1554118277559,8.387487,-3.6134489000000003,3.2531216,-0.20879184,0.07350325,0.14594123,-36.96,-17.16,23.16
1554118277580,8.535928,-3.7217865,3.2393548,-0.22583607,0.10546118,0.15233281,-36.96,-17.16,23.1
1554118277600,8.486847000000001,-3.8845922999999996,3.4883518,-0.2428803,0.14913702,0.15765914,-36.96,-17.16,22.98
1554118277619,8.484452000000001,-3.9456443999999995,3.6762967000000004,-0.22264028,0.16192019,0.14061491,-36.96,-17.1,22.92
1554118277640,8.388684,-3.8349125,3.5583823,-0.13848437,0.17257284,0.12463594,-37.02,-17.04,22.8
1554118277660,8.43178,-3.816956,3.3441012000000003,-0.040480047000000005,0.18535602,0.112918034,-37.08,-17.04,22.74
1554118277679,8.298902,-3.8271315,3.3925837999999997,-0.011717908999999999,0.20985709,0.12037488,-37.2,-16.98,22.62
1554118277700,8.465898,-3.7499184999999997,3.2878375,-0.101200126,0.20559604,0.15020229,-37.26,-16.92,22.56
1554118277720,8.420407,-3.7738605000000005,3.2830489999999997,-0.19387813,0.22903186,0.1438107,-37.38,-16.86,22.5
1554118277740,8.435969,-3.7391446000000004,3.3764230000000004,-0.24394555,0.21837921,0.13635385,-37.44,-16.74,22.44
1554118277760,8.431181,-3.78643,3.2130187,-0.19920446,0.20026971,0.12250541,-37.56,-16.56,22.44
1554118277779,8.346786,-3.8193502,3.1836896,-0.09054748,0.23329292,0.12357068,-37.62,-16.5,22.38
1554118277799,8.221688,-3.7870286,3.0532057,-0.060720075,0.23755397,0.12037488,-37.68,-16.38,22.38
1554118277819,8.189366999999999,-3.638588,3.0735563999999997,-0.11717909,0.21198763,0.09161274,-37.68,-16.26,22.32
1554118277839,8.179192,-3.7696705,2.8790276,-0.1470065,0.128897,0.053263225,-37.68,-16.14,22.26
1554118277860,8.220491,-3.6912606,2.6755204,-0.128897,0.096939065,0.010652645,-37.68,-16.02,22.14
1554118277880,8.310872999999999,-3.728969,2.814384,-0.12996227,0.12250541,0.0053263223,-37.74,-15.96,22.02
1554118277899,8.245032,-4.0360255,3.0280666000000003,-0.07989483,0.1470065,0.00958738,-37.74,-15.9,21.9
1554118277919,8.239645,-4.016872,3.0753522,-0.024501082,0.1438107,0.011717908999999999,-37.74,-15.9,21.66
1554118277939,8.174403,-3.933075,3.0071173,-0.03089267,0.10333065,-0.0053263223,-37.74,-15.96,21.3
1554118277961,8.218098,-3.9085343,3.0083144,-0.09054748,0.05752428,-0.0053263223,-37.8,-15.96,21.0
1554118277981,8.161235000000001,-4.0414124,3.117849,-0.13528858,0.047936900000000005,0.0063915867,-37.86,-15.96,20.7
1554118278000,8.177396,-4.208408,3.2531216,-0.15446335,0.07243799,0.027696876000000002,-37.92,-15.96,20.46
1554118278020,8.162432,-4.223970400000001,3.3063924,-0.16618125,0.096939065,0.035153727999999995,-37.92,-15.96,20.34
1554118278040,8.14687,-4.3221326,3.4332852,-0.21518342,0.13635385,0.049002163,-38.04,-15.96,19.98
1554118278060,8.01878,-4.285621,3.3273417999999997,-0.2972088,0.13848437,0.046871635999999994,-38.1,-16.02,19.8
1554118278079,7.8954787,-4.2742486,3.2519245,-0.3898868,0.11930962,0.054328485999999995,-38.1,-16.02,19.68
1554118278100,7.9266033,-4.4304705,3.3327288999999998,-0.4101268,0.10652645,0.06391586,-38.16,-16.02,19.74
1554118278120,7.908048,-4.6399627,3.5284547999999996,-0.3270362,0.12144015,0.068176925,-38.16,-16.08,19.74
1554118278139,7.9822683,-4.722563,3.74094,-0.21624869,0.12037488,0.06178534,-38.1,-16.08,19.74
1554118278160,7.901464,-4.6034513,3.5763388,0.014913702,0.084155895,0.018109497,-38.1,-16.14,19.8
1554118278179,8.000824,-4.55856,3.3441012000000003,0.08735169,0.06178534,0.022370555,-38.04,-16.26,19.86
1554118278199,8.021174,-4.449025,3.1250317,0.09054748,0.041545313,0.012783173500000002,-38.04,-16.44,19.86
1554118278220,8.008605000000001,-4.495114,3.2190042,0.036218993,0.05219796,0.049002163,-38.04,-16.56,19.92
1554118278240,7.949947,-4.559757,3.2818519999999998,-0.011717908999999999,0.05006743,0.07350325,-38.1,-16.68,19.92
1554118278260,7.926005,-4.577115,3.228581,-0.020240024,0.034088463,0.094808534,-38.1,-16.8,19.92
1554118278280,7.868544,-4.5142674000000005,3.1663318,0.0063915867,0.013848438000000001,0.10226539,-38.22,-16.92,19.92
1554118278301,7.902063,-4.485537,3.1561562999999997,0.06924219,-0.008522116,0.10759171,-38.28,-17.04,19.98
1554118278321,7.801506,-4.392761699999999,3.1124623,0.14594123,-0.03834952,0.101200126,-38.34,-17.04,19.98
1554118278341,7.849989,-4.3981485000000005,3.0579941,0.19813919,-0.06924219,0.096939065,-38.4,-16.98,19.92
1554118278360,7.958925,-4.4220904999999995,2.9269116000000004,0.17896444,-0.08841695,0.07456851,-38.4,-16.92,19.92
1554118278380,7.916428,-4.3436804,2.9963433999999998,0.15339808,-0.09267801,0.054328485999999995,-38.46,-16.74,19.92
1554118278400,7.8942814,-4.278438599999999,2.9556419999999997,0.13102753,-0.10546118,0.05539375,-38.46,-16.62,19.92
1554118278420,7.863157000000001,-4.256292,2.8874072999999996,0.096939065,-0.11824436,0.049002163,-38.46,-16.5,19.92
1554118278440,7.8158712,-4.2299557,2.959832,0.07243799,-0.1438107,0.02876214,-38.46,-16.38,19.92
1554118278460,7.913435000000001,-4.120421,2.878429,0.10546118,-0.16085494,-0.0053263223,-38.4,-16.26,19.92
1554118278480,8.076839,-4.0054994,2.7682957999999998,0.17896444,-0.13315806,-0.043675844000000005,-38.4,-16.14,19.92
1554118278500,7.913435000000001,-3.9240966,3.1172507,0.15446335,-0.12783173,-0.101200126,-38.4,-15.9,19.92
1554118278519,7.9313917,-3.9217023999999996,3.3273417999999997,0.12570119999999999,-0.13422333,-0.13848437,-38.34,-15.66,19.92
1554118278539,8.261192999999999,-3.9372647000000005,3.2609026,0.12783173,-0.12250541,-0.1768339,-38.34,-15.42,19.92
1554118278560,8.628103999999999,-4.197634,3.4063504,0.3717773,0.099069595,-0.22690132,-38.28,-15.18,19.86
1554118278580,7.913435000000001,-3.9719806,3.357868,0.41864893,-0.024501082,-0.39095205,-38.22,-15.0,19.86
1554118278600,7.973290400000001,-3.5302502999999996,3.5045127999999997,0.19281286,0.068176925,-0.26312032,-38.22,-14.82,19.86
1554118278620,7.8326306,-4.1060557,4.1222167,-0.23329292,-0.10865697,-0.33981937,-38.22,-14.7,19.86
1554118278640,8.123527000000001,-4.243124,3.98874,-0.2545982,-0.20453078,-0.32490566,-38.28,-14.58,19.86
1554118278660,8.308478,-4.55856,3.8911762000000003,-0.10439592,-0.18002969,-0.29827404,-38.28,-14.64,19.86
1554118278680,8.491036,-4.8147397000000005,3.7804443999999995,0.15659387,-0.06711166,-0.23755397,-38.34,-14.82,19.86
1554118278700,8.277952,-4.431069,3.8827964999999995,0.21518342,0.035153727999999995,-0.1949434,-38.4,-14.94,19.86
1554118278720,8.077438,-4.1222167,3.8588544999999996,0.07137272,0.036218993,-0.14274544,-38.52,-15.12,19.92
1554118278740,8.185775999999999,-4.1814733,3.4871547,-0.09374327,0.03195793,-0.07243799,-38.52,-15.3,19.98
1554118278760,8.177995,-4.3939585999999995,3.4997244,-0.25672874,0.054328485999999995,-0.043675844000000005,-38.58,-15.42,20.04
1554118278779,8.067862,-4.500500700000001,3.6798879999999996,-0.31957933,0.06498113,-0.010652645,-38.64,-15.54,20.04
1554118278799,8.193557,-4.679467,3.7116113,-0.30040458,0.08628642,0.02876214,-38.64,-15.66,20.1
1554118278819,8.07265,-4.715380000000001,3.5631707,-0.34194988,0.08628642,0.09374327,-38.58,-15.78,20.16
1554118278839,8.1343,-4.997896,3.5350387000000003,-0.46552056,0.068176925,0.20772657,-38.58,-15.9,20.22
1554118278859,8.18398,-5.1744685,3.316568,-0.6103965,0.068176925,0.330232,-38.58,-15.96,20.22
1554118278879,8.14687,-5.433641000000001,3.1747115000000004,-0.7233145999999999,0.128897,0.5091964,-38.52,-16.08,20.22
1554118278899,8.14687,-6.0118403,3.3907879999999997,-0.9768475000000001,0.24714136,0.70840085,-38.52,-16.14,20.22
1554118278922,8.181585,-7.083844,3.5769374,-1.5840483,0.23009712,0.97258645,-38.58,-16.32,20.28
1554118278940,8.108562,-7.577648,3.345897,-1.8695391,0.21198763,1.1632688,-38.58,-16.38,20.28
1554118278960,8.003217999999999,-8.34499,3.2632967999999996,-2.1134846,0.221575,1.5041533999999999,-38.58,-16.56,20.28
1554118278979,8.039131,-9.481038999999999,3.5087025,-2.0932446,0.22264028,1.8674085999999999,-38.64,-16.68,20.22
1554118278999,7.844601600000001,-10.009559,3.6792896,-1.7491642,0.257794,2.1624868,-38.64,-16.74,20.22
1554118279020,7.3328414,-10.086172999999999,3.6302083,-1.3699301000000002,0.15339808,2.3595607000000003,-38.7,-16.8,20.22
1554118279040,7.507019500000001,-10.479421,3.0310593,-0.95447695,0.04580637,2.6205506,-38.7,-16.68,20.22
1554118279059,7.2759789999999995,-10.360908,2.6970682,-0.6562029,0.04261058,2.7324033,-38.64,-16.5,20.22
1554118279080,6.7229185,-9.986216,2.3588872000000003,-0.13741912,0.10652645,2.8815402999999997,-38.22,-15.42,20.28
1554118279100,6.556521400000001,-10.084976,2.5151088,0.13635385,0.10333065,2.9433257999999998,-37.86,-14.28,20.34
1554118279120,6.002862,-10.055647,2.6354175,0.5134575,0.14274544,2.9518478,-37.38,-12.72,20.4
1554118279140,5.298967,-9.396643,2.3924060000000003,0.8309063,0.17789917,2.9177593999999996,-36.66,-10.92,20.46
1554118279159,4.783615,-8.973467999999999,1.8896236000000002,0.8692558000000001,0.1949434,2.8826056,-35.94,-8.76,20.52
1554118279179,4.248511,-8.671799,1.8207904,0.7520766999999999,0.21731395,2.8463867,-35.22,-6.18,20.58
1554118279199,3.6260185,-8.839992,1.6430208999999998,0.66152924,0.24181503,2.799515,-34.44,-3.6,20.58
1554118279220,3.0771477000000003,-8.550293,1.9105729999999999,0.45486793,0.2695119,2.8154939999999997,-33.72,-0.9,20.46
1554118279240,2.5600002,-8.807071,2.0380642,0.2695119,0.22370553,2.779275,-32.82,1.74,20.28
1554118279260,2.291251,-8.824428999999999,1.5179238000000002,0.040480047000000005,0.10972224,2.727077,-31.62,4.32,20.04
1554118279280,2.0320787,-8.7951,1.8459294999999998,-0.24394555,0.080960095,2.6993802000000002,-30.42,6.72,19.8
1554118279300,0.88405895,-8.549096,2.1859062000000002,-0.09267801,0.113983296,2.6738138,-29.1,9.12,19.5
1554118279320,0.37708676,-8.35337,2.3265655,0.19813919,0.14168017,2.6844664000000003,-27.54,11.22,19.26
1554118279340,0.30047232,-8.559271,1.5263035,0.13422333,0.07350325,2.6120284,-25.86,13.08,18.96
1554118279359,-0.48003745,-7.939771,1.5825673,-0.1949434,0.020240024,2.5726137000000002,-23.94,14.94,18.72
1554118279380,-1.3670892,-7.791331,1.95307,-0.48149952,-0.10333065,2.5204158,-21.96,16.62,18.6
1554118279399,-1.9261352999999999,-7.603985000000001,2.2403743,-0.38882150000000004,-0.1768339,2.3787355,-20.1,18.06,18.54
1554118279420,-2.1745335999999997,-7.5345526,1.8142063999999998,-0.29827404,-0.20879184,2.2722092000000003,-18.36,19.38,18.48
1554118279440,-2.4181437000000003,-7.6626425000000005,1.5586253,-0.46978164,-0.2428803,2.1784658,-16.62,20.64,18.48
1554118279460,-3.371036,-7.698555499999999,1.8501193999999999,-0.77870834,-0.2727077,2.1209416,-15.0,21.66,18.54
1554118279480,-4.504690599999999,-7.711724,2.2463598,-0.8863,-0.35792887,2.038916,-13.38,22.56,18.66
1554118279500,-4.8704047,-8.024167,1.893215,-0.7850999,-0.4857606,2.0154803,-11.7,23.34,18.84
1554118279520,-4.383185,-7.767389,1.3964181,-0.85753787,-0.6146576,2.0026971999999996,-10.08,23.88,19.2
1554118279540,-4.821324,-7.6710224,1.6184803,-0.9150621999999999,-0.5997439,1.9728698,-8.46,24.3,19.56
1554118279560,-5.4881085999999994,-7.608772999999999,1.6699557,-0.8969527,-0.71479243,1.9600866000000001,-6.9,24.6,19.92
1554118279580,-5.5623293,-7.9038580000000005,1.9632453999999997,-0.902279,-0.809601,2.0367856,-5.4,24.66,20.34
1554118279600,-5.7825956,-7.8128785999999995,2.5103204,-0.74248934,-0.8245146999999999,1.9909793000000002,-3.9,24.6,20.88
1554118279620,-5.589264,-7.5800424,2.4929626,-0.40906155,-0.8362325999999999,1.8620822,-2.52,24.42,21.54
1554118279639,-5.455787,-7.4585365999999995,1.8028339,-0.07137272,-0.80747044,1.743838,-1.14,24.24,22.08
1554118279659,-6.1076083,-6.7911529999999996,1.917157,0.113983296,-0.7137272,1.7076189999999998,0.36,24.06,22.56
1554118279680,-6.8348475,-6.172850599999999,2.1865046,0.13315806,-0.69029135,1.7374463,1.8,23.88,22.92
1554118279700,-6.4098763,-6.0088477,2.2996306,-0.04261058,-0.7414241,1.7342505000000001,3.24,23.7,23.28
1554118279721,-6.0423665,-6.0956373,2.3062148,-0.19600865,-0.7233145999999999,1.6213325,4.74,23.46,23.58
1554118279739,-6.4948707,-5.9681463,2.7072437000000003,-0.06498113,-0.660464,1.490305,6.24,23.16,23.76
1554118279760,-6.5601125,-5.2642508,3.0843303,0.25246766,-0.6018744,1.4104101999999998,7.8,22.8,23.94
1554118279780,-6.229114,-4.536413700000001,3.1711202000000003,0.39734364,-0.57098174,1.3528858,9.36,22.5,23.88
1554118279800,-6.2315083,-4.384382,3.2010477,0.42077947,-0.53476274,1.1952267,10.68,22.14,23.88
1554118279820,-6.5086374000000005,-4.188656,2.8101943,0.40906155,-0.48469532,1.0024139,11.94,21.78,23.82
1554118279840,-6.6367273,-3.7936125,2.8072014,0.49641323,-0.39308259999999995,0.84688526,13.08,21.3,23.58
1554118279860,-6.55293,-3.2357635,3.0591912,0.49747851,-0.25033715,0.73290193,14.4,20.94,23.34
1554118279880,-6.6427125999999985,-3.4542346,2.7814639,0.25140239999999997,-0.128897,0.58483016,15.12,20.7,22.98
1554118279900,-6.916848700000001,-3.5326445,2.8209682000000003,-0.04474111,-0.06924219,0.46339005,15.72,20.58,22.56
1554118279920,-7.222707700000001,-3.5362358,2.7539306,-0.07030745599999999,-0.05539375,0.33555830000000003,16.32,20.46,22.14
1554118279939,-7.1927805,-3.5122937999999992,2.3618799999999998,0.029827405,-0.023435817999999997,0.26738137,16.8,20.34,21.72
1554118279959,-7.3897038,-3.8696284,2.802413,-0.04474111,0.040480047000000005,0.21731395,17.16,20.22,21.3
1554118279979,-7.606379,-4.4442368,3.1902738,-0.11930962,0.007456851,0.18748654,17.4,20.1,21.0
1554118279999,-7.817667,-4.445434,2.7563248,-0.14168017,-0.010652645,0.13209279,17.76,19.98,20.7
1554118280019,-8.257003,-4.062361699999999,2.509722,-0.10439592,-0.024501082,0.08628642,18.06,19.8,20.58
1554118280039,-8.348581,-4.143166000000001,2.7605145,0.053263225,-0.022370555,0.11717909,18.36,19.68,20.58
1554118280059,-7.911041,-4.322731,3.2495303,0.053263225,-0.04580637,0.15978967,18.66,19.56,20.64
1554118280079,-7.8050976,-4.5441947,3.4620156000000004,-0.10226539,-0.06604639400000001,0.16192019,18.84,19.44,20.7
1554118280099,-8.248025,-4.4364557,3.4847605,-0.15978967,-0.060720075,0.15765914,18.96,19.26,20.7
1554118280120,-8.300098,-4.167108,3.5290532,-0.037284255,-0.037284255,0.15446335,19.14,19.14,20.7
1554118280140,-7.916428,-3.9474400999999997,3.90614,0.23222765,0.0053263223,0.111852765,19.26,19.02,20.7
1554118280160,-7.5974007,-3.7187938999999997,4.0438066,0.42290998,0.05965481,0.06711166,19.26,18.9,20.64
1554118280180,-7.5112095000000005,-3.6882677000000004,3.494936,0.44101948,0.05539375,-0.0063915867,19.32,18.78,20.58
1554118280200,-7.700949700000001,-3.630807,2.7515364,0.2727077,0.05539375,-0.05539375,19.32,18.72,20.52
1554118280220,-7.7572136,-3.5452142,2.7419596,-0.03834952,0.053263225,-0.113983296,19.38,18.66,20.46
1554118280240,-7.811083,-3.9438487999999996,3.1052797,-0.084155895,0.051132694000000006,-0.16405073,19.38,18.6,20.4
1554118280260,-7.8290396,-4.248511,3.3129766000000003,0.06498113,0.05752428,-0.19707392,19.38,18.6,20.34
1554118280280,-8.081029,-4.3197384,3.2351650000000003,0.20559604,0.07456851,-0.20559604,19.44,18.6,20.28
1554118280300,-8.373122,-4.368221,2.9843724,0.221575,0.094808534,-0.18322548,19.44,18.6,20.28
1554118280320,-8.625112,-4.283227,3.1022868,0.16831179,0.10439592,-0.12570119999999999,19.44,18.66,20.28
1554118280340,-8.55987,-4.314351599999999,2.979584,0.10546118,0.08948222,-0.053263225,19.44,18.78,20.28
1554118280359,-8.434772500000001,-4.4358572999999994,3.3087866000000004,0.14061491,0.10546118,-0.007456851,19.38,18.84,20.28
1554118280379,-8.268974,-4.559158999999999,3.3967736000000004,0.26525086,0.112918034,0.012783173500000002,19.38,18.9,20.28
1554118280399,-8.270171000000001,-4.4484267,3.7104141999999998,0.35473305,0.12144015,0.012783173500000002,19.32,18.96,20.28
1554118280420,-8.102577,-4.18686,3.7056258,0.39414784,0.09161274,0.020240024,19.26,19.08,20.28
1554118280442,-8.213907,-3.9683892999999997,3.3554738,0.46871635,0.10439592,0.011717908999999999,19.2,19.26,20.28
1554118280460,-8.407239,-3.6098576,3.1435869,0.5251754,0.11930962,0.03089267,19.2,19.5,20.22
1554118280480,-8.258799,-3.4458550000000003,3.2501287,0.43675843,0.14168017,0.037284255,19.14,19.8,20.22
1554118280500,-8.167819,-3.5146879999999996,3.2950199999999996,0.36645097,0.12783173,-0.0063915867,19.08,20.04,20.22
1554118280519,-8.280945,-3.3871968,3.1477766,0.32810146,0.12250541,-0.05752428,19.02,20.34,20.16
1554118280541,-8.477867999999999,-3.1998506,2.7623102999999998,0.32170987,0.099069595,-0.10546118,18.96,20.58,20.1
1554118280561,-8.619724,-3.2429460999999997,2.4779987,0.36964676,0.08948222,-0.113983296,18.9,20.82,20.04
1554118280581,-8.571242,-3.2225955,2.7874494,0.3174488,0.099069595,-0.084155895,18.9,21.0,19.92
1554118280601,-8.568848,-3.3704373999999997,3.1507695,0.18429075,0.07882957,-0.080960095,18.9,21.12,19.8
1554118280621,-8.579621000000001,-3.4548330000000003,3.1866825,0.10865697,0.05539375,-0.10439592,18.84,21.18,19.68
1554118280640,-8.629301,-3.4781766000000003,3.007716,0.09587380000000001,0.039414786,-0.13102753,18.84,21.18,19.56
1554118280660,-8.54311,-3.4751837,2.9113493,0.15659387,0.033023197000000004,-0.13635385,18.78,21.18,19.44
1554118280680,-8.258799,-3.2034418999999996,3.192668,0.19813919,0.047936900000000005,-0.11611383,18.78,21.18,19.32
1554118280700,-8.0127945,-3.3195608,3.5015199999999997,0.13315806,0.036218993,-0.098004326,18.72,21.24,19.14
1554118280720,-8.103774000000001,-3.4769794999999997,3.3734303,0.09587380000000001,0.020240024,-0.10972224,18.72,21.3,19.02
1554118280739,-8.263587,-3.3836055,3.0771477000000003,0.056459017,0.036218993,-0.12144015,18.66,21.36,18.96
1554118280760,-8.346786,-3.394978,3.0382418999999996,0.043675844000000005,0.05752428,-0.113983296,18.66,21.42,18.9
1554118280780,-8.220491,-3.566762,3.2291796,0.06498113,0.099069595,-0.10652645,18.6,21.48,18.84
1554118280800,-8.235455499999999,-3.7702692000000004,3.3279405,0.041545313,0.12676647,-0.10013486,18.54,21.6,18.66
1554118280819,-8.512584,-3.7307648999999996,3.0220811000000003,0.014913702,0.128897,-0.112918034,18.48,21.66,18.6
1554118280839,-8.5778265,-3.481768,2.8060042999999997,-0.05006743,0.13422333,-0.13528858,18.42,21.78,18.6
1554118280859,-8.429385,-3.5978866000000003,2.8909986,-0.12144015,0.10972224,-0.16085494,18.36,21.9,18.54
1554118280880,-8.270769999999999,-3.9653966,3.127426,-0.18961707,0.058589544,-0.16937704,18.24,21.96,18.54
1554118280900,-8.288725999999999,-4.197036,3.3650506,-0.20133498,0.0010652645,-0.14274544,18.12,22.02,18.6
1554118280920,-8.019978,-4.073136,3.4524388,-0.15659387,-0.053263225,-0.08628642,18.0,22.08,18.6
1554118280940,-7.9810715,-3.970185,3.5218705999999997,-0.07030745599999999,-0.06178534,-0.07137272,17.88,22.08,18.66
1554118280959,-7.876325,-3.7995980000000005,3.2734723,0.05006743,-0.034088463,-0.082025364,17.76,22.14,18.72
1554118280979,-8.120534,-3.6643257000000005,2.847903,0.068176925,0.020240024,-0.101200126,17.64,22.26,18.72
1554118280999,-8.350976,-3.7235822999999995,2.5983074,-0.010652645,0.07776430000000001,-0.080960095,17.52,22.26,18.78
1554118281020,-8.401254,-3.8426937999999993,2.5773582000000004,-0.07137272,0.1107875,-0.054328485999999995,17.46,22.32,18.78
1554118281040,-8.484452000000001,-3.9246953,2.6940752999999997,-0.06391586,0.111852765,-0.035153727999999995,17.4,22.32,18.84
1554118281060,-8.55987,-4.0078936,2.5713725,-0.01917476,0.07243799,-0.013848438000000001,17.34,22.38,18.84
1554118281079,-8.817246,-3.9588125,2.5917234000000002,-0.02130529,0.046871635999999994,0.039414786,17.34,22.38,18.9
1554118281099,-8.960898,-3.8732197,2.5887306,-0.013848438000000001,0.027696876000000002,0.09054748,17.34,22.38,18.96
1554118281120,-8.905233,-3.6846763999999994,2.7168205000000003,-0.011717908999999999,0.013848438000000001,0.113983296,17.28,22.44,19.02
1554118281139,-8.878897,-3.6032736000000005,2.918532,-0.06391586,-0.00958738,0.07563378,17.28,22.38,19.02
1554118281160,-8.69993,-3.816956,2.8628666000000003,-0.14807177,-0.041545313,0.033023197000000004,17.22,22.38,19.08
1554118281179,-8.534132000000001,-4.1557355000000005,3.141791,-0.25566345,-0.054328485999999995,0.026631612000000002,17.22,22.38,19.14
1554118281199,-8.301894,-4.2503066,3.4476504,-0.27803403,-0.098004326,0.051132694000000006,17.16,22.38,19.2
1554118281220,-8.210316,-4.1539397000000005,3.7056258,-0.18642128,-0.12570119999999999,0.084155895,17.22,22.32,19.26
1554118281240,-8.185177000000001,-3.9737763,3.6984432000000003,-0.01917476,-0.1438107,0.08628642,17.22,22.32,19.26
1554118281260,-7.9948380000000006,-3.7433343,3.3566709,0.112918034,-0.13635385,0.047936900000000005,17.28,22.26,19.32
1554118281279,-7.8589673,-3.7128084,2.9119477000000002,0.06178534,-0.11611383,-0.012783173500000002,17.34,22.2,19.32
1554118281300,-8.179192,-3.9055413999999997,2.7862522999999997,-0.09374327,-0.083090626,-0.046871635999999994,17.34,22.14,19.38
1554118281319,-8.209717999999999,-4.1383777,2.779668,-0.15659387,-0.068176925,-0.047936900000000005,17.34,22.02,19.44
1554118281339,-8.03554,-4.1844660000000005,2.9921536,-0.08735169,-0.05219796,-0.05006743,17.34,21.84,19.44
1554118281359,-8.016386,-4.049792299999999,3.0172927000000005,0.023435817999999997,-0.04474111,-0.06498113,17.34,21.54,19.44
1554118281380,-8.106169,-3.8804023,2.7605145,0.034088463,-0.06285059999999999,-0.07350325,17.34,21.18,19.44
1554118281400,-8.100781,-3.774459,2.7754784,-0.080960095,-0.07350325,-0.07350325,17.28,20.82,19.44
1554118281420,-8.235455499999999,-3.8187518,3.1208419999999997,-0.17044231,-0.068176925,-0.053263225,17.22,20.46,19.44
1554118281439,-8.2593975,-3.900753,3.316568,-0.12996227,-0.05219796,-0.049002163,17.16,20.04,19.44
1554118281459,-8.336012,-3.982156,3.4338839999999995,0.02130529,-0.023435817999999997,-0.04261058,17.1,19.5,19.38
1554118281479,-8.165425,-3.9863458,3.0873232,0.06498113,-0.00958738,-0.039414786,16.98,19.2,19.38
1554118281500,-8.1959505,-3.9653966,2.7802667999999997,-0.022370555,-0.0031957934000000003,-0.024501082,16.92,19.02,19.38
1554118281519,-8.239645,-4.11264,2.8389246,-0.16405073,-0.0010652645,0.008522116,16.86,18.9,19.38
1554118281539,-8.358158,-4.1946416,3.0986955000000003,-0.1768339,0.0053263223,0.026631612000000002,16.74,18.9,19.38
1554118281559,-8.154651,-4.0737343,3.3518825,-0.08841695,0.008522116,0.041545313,16.68,18.84,19.38
1554118281580,-8.088212,-4.018069000000001,3.365649,0.041545313,0.0031957934000000003,0.014913702,16.68,18.84,19.38
1554118281599,-8.197148,-3.9324763,3.0651767000000003,0.10439592,0.0010652645,-0.0063915867,16.68,18.78,19.32
1554118281619,-8.146272,-3.8265328000000003,2.9376855,0.024501082,0.0031957934000000003,-0.015978966,16.68,18.78,19.32
1554118281639,-8.106767,-3.9618053,3.083732,-0.05219796,0.008522116,-0.017044231,16.74,18.78,19.32
1554118281660,-8.180388,-4.161721,3.1830912000000002,-0.027696876000000002,0.018109497,-0.02130529,16.8,18.78,19.38
1554118281679,-8.195352999999999,-4.1922474,3.1842883,0.034088463,0.004261058,-0.03089267,16.92,18.78,19.38
1554118281699,-8.307879,-4.0037036,3.0609868,0.07137272,-0.0053263223,-0.039414786,16.98,18.84,19.44
1554118281719,-8.243236999999999,-3.7792472999999998,3.0585926,0.07989483,-0.017044231,-0.034088463,17.1,18.84,19.44
1554118281740,-8.197746,-3.7882257000000004,3.1783028,0.05006743,0.002130529,-0.033023197000000004,17.16,18.84,19.5
1554118281760,-8.217499,-4.0402154999999995,3.115455,0.02876214,0.011717908999999999,-0.041545313,17.22,18.9,19.5
1554118281780,-8.294711999999999,-4.079121,3.0885203,0.05965481,0.01917476,-0.036218993,17.28,18.9,19.56
1554118281800,-8.032547000000001,-3.9504328,2.9634232999999996,0.096939065,0.025566347000000003,-0.025566347000000003,17.34,18.9,19.56
1554118281819,-8.027759,-3.7738605000000005,2.9855695,0.08628642,0.04580637,-0.035153727999999995,17.34,18.96,19.56
1554118281839,-8.104372999999999,-3.8450879999999996,2.9107506,0.06178534,0.054328485999999995,-0.054328485999999995,17.4,18.96,19.56
1554118281860,-8.284536,-3.9133226999999997,3.0017304,0.053263225,0.06711166,-0.06285059999999999,17.4,18.96,19.56
1554118281879,-8.198345,-3.930082,2.926313,0.07030745599999999,0.05965481,-0.07882957,17.4,19.02,19.56
1554118281899,-8.189964999999999,-3.8815994,3.0226796,0.096939065,0.06178534,-0.098004326,17.4,19.08,19.56
1554118281920,-8.288128,-3.9133226999999997,3.0220811000000003,0.09054748,0.07350325,-0.11504856,17.46,19.14,19.56
1554118281939,-8.31207,-4.0372224,3.0699651,0.02130529,0.09054748,-0.10226539,17.4,19.26,19.56
1554118281959,-8.51019,-4.043208,3.0909145000000002,0.020240024,0.082025364,-0.08841695,17.4,19.38,19.56
1554118281980,-8.49343,-4.001309399999999,3.0340521000000003,0.06391586,0.051132694000000006,-0.06924219,17.4,19.5,19.56
1554118281999,-8.525153999999999,-3.9426517,3.028665,0.12996227,0.034088463,-0.060720075,17.4,19.68,19.56
1554118282019,-8.544308000000001,-3.8385038000000002,3.008913,0.13954964,0.03834952,-0.041545313,17.4,19.8,19.56
1554118282040,-8.480263,-3.8708254999999996,3.040636,0.07882957,0.04580637,-0.004261058,17.34,19.98,19.56
1554118282059,-8.333019,-3.9875429,3.1848867000000003,0.035153727999999995,0.04474111,0.0010652645,17.34,20.1,19.56
1554118282080,-8.480861,-3.7738605000000005,3.0244752999999998,0.09267801,0.037284255,-0.0010652645,17.34,20.16,19.56
1554118282100,-8.341997000000001,-3.6882677000000004,2.7910407000000004,0.15339808,0.025566347000000003,-0.0053263223,17.28,20.22,19.56
1554118282119,-8.300697,-3.6218286,2.7144263,0.14913702,0.022370555,-0.002130529,17.22,20.28,19.56
1554118282140,-8.239645,-3.6044707000000002,2.7928362,0.040480047000000005,0.014913702,0.010652645,17.22,20.34,19.56
1554118282159,-8.379107000000001,-3.726575,3.0621839,-0.05752428,0.00958738,0.0063915867,17.16,20.34,19.56
1554118282179,-8.404845,-3.7786489000000003,2.9346926,0.022370555,-0.004261058,0.0010652645,17.16,20.34,19.56
1554118282199,-8.275558,-3.6601357000000005,2.967613,0.11504856,0.0031957934000000003,-0.00958738,17.16,20.34,19.56
1554118282219,-8.139089,-3.5212722000000003,3.007716,0.10439592,0.018109497,-0.011717908999999999,17.1,20.28,19.56
1554118282239,-8.364742,-3.5679589999999997,3.0472202,0.012783173500000002,0.043675844000000005,-0.029827405,17.1,20.22,19.56
1554118282259,-8.363545,-3.6864722000000003,2.906561,-0.041545313,0.035153727999999995,-0.037284255,17.1,20.16,19.56
1554118282279,-8.5299425,-3.6194344,2.6048915,-0.06285059999999999,0.022370555,-0.05219796,17.04,20.04,19.56
1554118282299,-8.480263,-3.7020345,2.7006595,-0.046871635999999994,-0.002130529,-0.05219796,17.04,19.92,19.56
1554118282319,-8.355764,-3.654749,3.127426,-0.034088463,0.0053263223,-0.02130529,17.04,19.8,19.5
1554118282340,-8.2169,-3.5871127,3.2237926,-0.04261058,0.015978966,-0.037284255,17.04,19.56,19.5
1554118282359,-8.293514,-3.3315318,2.9741971,-0.041545313,0.014913702,-0.07030745599999999,16.98,19.5,19.5
1554118282379,-8.170214,-3.2603042,2.8413188,-0.013848438000000001,0.02130529,-0.12250541,16.98,19.44,19.5
1554118282399,-7.9170264999999995,-3.2561142000000003,2.9837740000000004,0.0063915867,0.06391586,-0.165116,16.98,19.32,19.5
1554118282419,-7.8326306,-3.2716765,2.6844985,-0.07989483,0.09587380000000001,-0.21092236,16.92,19.32,19.5
1554118282440,-7.478289,-3.1723173,2.5893292000000003,-0.42397526,0.094808534,-0.24714136,16.86,19.26,19.56
1554118282459,-7.0766615999999996,-3.3734303,2.7407625,-0.83942837,0.10439592,-0.330232,16.68,19.26,19.56
1554118282479,-6.5906386,-3.5565867,2.8323407000000005,-0.9235843,0.14061491,-0.44101948,16.56,19.26,19.62
1554118282499,-6.417059,-3.3812113,3.1483752999999997,-0.6988135,0.25672874,-0.5901565,16.38,19.26,19.74
1554118282519,-6.2925606,-3.2507273999999997,3.301604,-0.39734364,0.38242993,-0.8000136,16.2,19.32,19.86
1554118282539,-5.7538652,-3.0214825000000003,3.2004492,-0.15978967,0.4708469,-1.051416,16.02,19.38,20.1
1554118282560,-5.1146135,-2.6809072,2.4959552000000005,-0.06178534,0.53476274,-1.3699301000000002,15.84,19.44,20.34
1554118282579,-4.7387238,-2.2691047,2.0991162999999995,0.0063915867,0.5954828000000001,-1.7502294999999999,15.6,19.5,20.7
1554118282599,-4.8542438,-2.4253263,1.9823990000000002,0.23435818,0.67218184,-2.1891184,15.18,19.56,21.0
1554118282619,-4.496909,-3.3854012000000004,1.5514427,0.5070659000000001,0.721184,-2.6045716,14.58,19.68,21.3
1554118282640,-4.1892543,-3.7828386,0.4285621,0.56459016,0.6945524000000001,-3.0083067000000003,13.8,19.74,21.6
1554118282659,-4.201824,-3.2309752,0.30466217,0.22370553,0.61678815,-3.338539,12.84,19.8,21.9
1554118282679,-3.6260185,-3.5835214,0.43754035,-0.26738137,0.43888897,-3.706055,11.64,19.98,22.08
1554118282699,-3.3584663999999997,-5.011064,0.705691,-0.43569317,0.39095205,-3.9137816,10.08,20.52,22.26
1554118282719,-3.0556,-7.0209966,1.1372458,-0.41225734,0.3685815,-4.1726410000000005,8.16,21.24,22.38
1554118282739,-2.7228060000000003,-7.1873937,1.5478513999999999,-0.11504856,0.35899413,-4.340953,5.88,21.84,22.44
1554118282760,-1.9381063000000003,-7.237672,1.7465701,0.15020229,0.27696875,-4.454936,3.42,22.44,22.5
1554118282779,-0.65062433,-9.509171,0.50757074,0.23435818,0.07350325,-4.5337653,0.84,22.98,22.62
1554118282799,-0.1448492,-9.396643,1.4466964,0.43888897,0.06498113,-4.527374,-1.98,23.28,22.74
1554118282819,0.037110128,-9.000402000000001,1.5921441,0.6764429,-0.023435817999999997,-4.5486794,-4.92,23.22,22.8
1554118282840,1.2665327,-9.56723,1.5334862,0.7637946,-0.1470065,-4.5497445999999995,-7.86,22.8,22.92
1554118282859,2.5025394,-10.540473,1.6843209,0.77231675,-0.25672874,-4.5785065000000005,-10.8,21.84,22.98
1554118282879,4.0462008,-11.286267,1.5897499,0.5816344,-0.41971418,-4.5145907,-13.68,20.34,22.98
1554118282900,4.255095,-10.59135,1.5867572,0.5113269,-0.49108690000000005,-4.458132,-16.38,18.66,22.92
1554118282919,5.2636523,-9.613917,1.5209166,0.22370553,-0.5187838,-4.2514706,-19.08,16.68,22.74
1554118282939,6.661866000000001,-10.707469,2.6461914,-0.14594123,-0.52624065,-4.081028,-21.6,14.34,22.62
1554118282960,8.372523,-12.795213,3.2399535,-0.17363810000000002,-0.53476274,-3.9265647000000006,-23.82,11.88,22.44
1554118282979,8.499416,-12.392388,3.5212722000000003,0.30999196,-0.42077947,-3.7891457,-25.92,9.36,22.26
1554118282999,8.5299425,-10.602722,3.3728316,0.753142,-0.3206446,-3.568636,-27.96,6.72,22.14
1554118283019,8.7951,-9.397242,3.2944214,1.063134,-0.25885928,-3.4067156,-29.82,4.08,21.96
1554118283039,9.400833,-9.19972,3.1962593,1.2389026,-0.26418558,-3.2362735000000002,-31.38,1.2,21.84
1554118283059,9.787497,-8.872911,2.8089972000000003,1.1590078000000001,-0.34301516,-3.0509174,-32.82,-1.62,21.78
1554118283080,9.787497,-7.8853035,2.753332,0.95128113,-0.40266997,-2.7941887000000003,-34.08,-4.32,21.78
1554118283099,9.615712,-6.924031299999999,3.1022868,0.8021441,-0.45486793,-2.4820662000000002,-35.16,-7.02,21.78
1554118283119,9.737817,-6.898293499999999,3.3824084,0.71479243,-0.5091964,-2.1156151000000003,-36.12,-9.48,21.78
1554118283139,9.64983,-6.7534447,3.6092591,0.7318366999999999,-0.5219796,-1.8141453,-36.96,-11.64,21.84
1554118283159,9.214684,-6.0968347000000005,3.7259765,0.8767126000000001,-0.51984906,-1.4817829,-37.86,-14.4,21.9
1554118283179,9.185355,-5.5383873,3.4249055,0.96939063,-0.5028047999999999,-1.2367721,-38.34,-15.9,21.9
1554118283199,9.082403999999999,-5.0427876,3.2902317,0.9938916999999999,-0.45273739999999996,-1.0226538,-38.64,-17.1,21.96
1554118283219,8.881889,-4.817133999999999,3.2603042,0.95660746,-0.39840892,-0.8383630999999999,-38.76,-18.06,22.08
1554118283239,8.65863,-4.507085,3.210026,0.83942837,-0.3653857,-0.6945524000000001,-38.7,-18.78,22.2
1554118283259,8.473678999999999,-4.2173862,3.052607,0.6562029,-0.34727620000000003,-0.5816344,-38.64,-19.38,22.26
1554118283279,8.392275999999999,-4.0587707,2.9783869,0.44741106,-0.34621096,-0.48363006,-38.46,-19.8,22.44
1554118283299,8.494628,-3.8971617,2.9640217,0.27164245,-0.314253,-0.39734364,-38.34,-20.16,22.62
1554118283319,8.550891,-3.8738184,3.0340521000000003,0.21837921,-0.24394555,-0.30786142,-38.04,-20.46,22.8
1554118283339,8.648455,-3.9025488,3.1196449,0.23968449999999997,-0.15339808,-0.21837921,-37.8,-20.7,22.98
1554118283359,8.611345,-3.7481226999999997,3.1010897,0.24394555,-0.12144015,-0.16298546,-37.56,-20.88,23.22
1554118283379,8.660426,-3.5422212999999996,2.9322984,0.19281286,-0.11504856,-0.128897,-37.38,-20.94,23.46
1554118283399,8.741829,-3.4099417,2.7790697,0.12676647,-0.10013486,-0.101200126,-37.2,-21.0,23.7
1554118283419,8.831612,-3.2632967999999996,2.7569232000000006,0.07030745599999999,-0.06711166,-0.05965481,-37.02,-21.0,24.0
1554118283439,8.851364,-3.2902317,2.8173769,0.015978966,-0.03089267,-0.014913702,-36.9,-21.0,24.3
1554118283459,8.845977,-3.3291376000000006,2.8161798,-0.053263225,-0.011717908999999999,0.023435817999999997,-36.78,-21.0,24.54
1554118283479,8.879496000000001,-3.2609026,2.823961,-0.10226539,0.0,0.05219796,-36.84,-21.0,24.78
1554118283499,8.866327,-3.1735144,2.7491422,-0.12783173,0.012783173500000002,0.07776430000000001,-36.84,-20.94,24.96
1554118283519,8.960898,-3.0550013,2.5887306,-0.13102753,0.027696876000000002,0.11611383,-36.9,-20.82,25.08
1554118283539,8.92319,-2.9173348,2.6749218,-0.08735169,0.082025364,0.18002969,-36.9,-20.76,25.2
1554118283559,8.948928,-3.0430303,2.7497406000000004,-0.08735169,0.08948222,0.22903186,-36.9,-20.64,25.26
1554118283580,9.066842,-3.0376434,2.7240029999999997,-0.099069595,0.07243799,0.23009712,-36.96,-20.58,25.26
1554118283599,8.974665,-2.9364884,2.6695349999999998,-0.080960095,0.06285059999999999,0.2130529,-36.96,-20.46,25.2
1554118283619,8.919,-2.9227216,2.6647465,-0.058589544,0.06391586,0.2066613,-36.96,-20.4,25.2
1554118283640,8.781932000000001,-2.861071,2.6090812999999997,-0.02876214,0.068176925,0.19068234,-36.96,-20.34,25.14
1554118283659,8.731055,-2.8335377999999998,2.6264392999999995,0.0031957934000000003,0.07563378,0.16831179,-37.02,-20.34,25.08
1554118283679,8.818442999999998,-2.8245595000000003,2.6581624,0.027696876000000002,0.07350325,0.13954964,-37.08,-20.34,25.08
1554118283699,8.847174,-2.8455088,2.6150667999999997,0.049002163,0.07456851,0.08628642,-37.14,-20.34,25.08
1554118283719,8.863934,-2.8455088,2.4875755,0.08522116,0.09054748,0.036218993,-37.14,-20.4,25.02
1554118283740,8.805275,-2.7880477999999997,2.3822308,0.08841695,0.10333065,-0.012783173500000002,-37.2,-20.34,25.02
1554118283759,8.814852,-2.7569232000000006,2.4169466,0.043675844000000005,0.10759171,-0.04580637,-37.2,-20.34,24.96
1554118283779,8.892664,-2.7838580000000004,2.3810337,-0.017044231,0.098004326,-0.06498113,-37.26,-20.34,24.9
1554118283799,8.914810000000001,-2.7760768,2.4588451,-0.06391586,0.083090626,-0.07137272,-37.26,-20.34,24.84
1554118283819,8.979453,-2.944868,2.6449943,-0.09267801,0.06711166,-0.07137272,-37.32,-20.4,24.78
1554118283839,9.044696,-2.9897593999999996,2.6599581000000003,-0.084155895,0.054328485999999995,-0.07137272,-37.32,-20.46,24.78
1554118283859,9.008183500000001,-2.9921536,2.7090392000000003,-0.056459017,0.04580637,-0.06924219,-37.38,-20.52,24.72
1554118283879,8.921992,-2.9951463,2.7347770000000002,-0.037284255,0.026631612000000002,-0.06391586,-37.44,-20.58,24.6
1554118283899,8.877101,-2.9975405,2.7730842,-0.004261058,0.010652645,-0.05219796,-37.44,-20.7,24.54
1554118283919,8.842385,-2.9442697,2.7228060000000003,0.035153727999999995,-0.0063915867,-0.04261058,-37.5,-20.76,24.42
1554118283939,8.807071,-2.9789855,2.6964695,0.07137272,-0.017044231,-0.035153727999999995,-37.56,-20.76,24.36
1554118283959,8.841188,-3.0250738,2.7389667,0.09267801,-0.022370555,-0.036218993,-37.56,-20.7,24.3
1554118283979,8.8777,-2.9526494,2.7389667,0.12144015,-0.026631612000000002,-0.049002163,-37.62,-20.64,24.18
1554118283999,8.901043,-2.9951463,2.7670987,0.14487597,-0.017044231,-0.06498113,-37.62,-20.58,24.12
1554118284019,8.881889,-2.9825767999999995,2.7670987,0.15126756,-0.0063915867,-0.07776430000000001,-37.62,-20.46,24.0
1554118284040,8.881291000000001,-2.915539,2.6312277,0.10759171,0.0063915867,-0.07989483,-37.56,-20.34,23.88
1554118284059,8.902241,-2.8802247000000003,2.5222914,0.034088463,0.022370555,-0.07243799,-37.56,-20.16,23.76
1554118284079,8.854357,-2.9867666,2.6910827,-0.013848438000000001,0.041545313,-0.06498113,-37.5,-19.86,23.7
1554118284100,8.780735,-2.9885623,2.7886465,-0.037284255,0.047936900000000005,-0.05006743,-37.44,-19.62,23.64
1554118284120,8.809465,-2.9125464,2.6593595000000003,-0.06178534,0.04261058,-0.03834952,-37.38,-19.38,23.64
1554118284139,8.892064999999999,-2.979584,2.6312277,-0.07030745599999999,0.040480047000000005,-0.029827405,-37.32,-19.14,23.58
1554118284159,8.907029,-2.9783869,2.6521769,-0.06391586,0.03089267,-0.025566347000000003,-37.26,-18.9,23.52
1554118284180,8.871715,-3.0119057000000002,2.7024553,-0.03834952,0.01917476,-0.027696876000000002,-37.2,-18.66,23.52
1554118284199,8.81964,-3.0442273999999996,2.7299886000000004,0.004261058,0.007456851,-0.027696876000000002,-37.2,-18.42,23.52
1554118284220,8.841188,-3.0113072,2.7060466,0.046871635999999994,-0.0010652645,-0.025566347000000003,-37.2,-18.18,23.52
1554118284239,8.84478,-2.9694088,2.5917234000000002,0.068176925,-0.011717908999999999,-0.018109497,-37.2,-18.06,23.52
1554118284259,8.86513,-2.8892027999999996,2.5677812,0.056459017,-0.007456851,-0.0063915867,-37.2,-18.0,23.52
1554118284280,8.885481,-2.915539,2.5983074,0.023435817999999997,-0.0031957934000000003,0.0053263223,-37.2,-17.88,23.52
1554118284300,8.831612,-2.8760347,2.6809072,-0.0010652645,-0.002130529,0.007456851,-37.26,-17.82,23.58
1554118284320,8.881291000000001,-2.847903,2.6264392999999995,-0.015978966,-0.010652645,0.008522116,-37.26,-17.76,23.7
1554118284340,8.807071,-2.8221653,2.6384103,-0.02876214,-0.0031957934000000003,0.004261058,-37.26,-17.64,23.7
1554118284360,8.90643,-2.9879637000000003,2.7060466,-0.04580637,-0.002130529,-0.0031957934000000003,-37.2,-17.58,23.76
1554118284380,8.897452000000001,-3.0184898,2.7102362999999996,-0.047936900000000005,0.007456851,-0.011717908999999999,-37.2,-17.52,23.88
1554118284400,8.887876,-2.9406781000000004,2.7329812,-0.02130529,0.020240024,-0.015978966,-37.14,-17.52,23.94
1554118284420,8.774151,-2.8904,2.654571,-0.0053263223,0.024501082,-0.010652645,-37.08,-17.52,24.0
1554118284440,8.809465,-2.9245174,2.6156653999999997,-0.022370555,0.012783173500000002,0.0,-36.96,-17.52,24.06
1554118284460,8.845378,-2.8520927000000005,2.5552118,-0.07350325,-0.0053263223,-0.013848438000000001,-36.9,-17.46,24.06
1554118284479,8.854955,-2.847903,2.6180596,-0.11611383,-0.017044231,-0.03089267,-36.78,-17.46,24.12
1554118284499,8.91062,-2.9370868,2.7437549999999997,-0.11611383,-0.04580637,-0.05219796,-36.72,-17.46,24.12
1554118284519,8.9363575,-2.9897593999999996,2.8736405,-0.06924219,-0.046871635999999994,-0.07243799,-36.66,-17.4,24.12
1554118284540,8.870517999999999,-3.0789435000000003,2.9466639,0.0063915867,-0.047936900000000005,-0.08735169,-36.6,-17.4,24.12
1554118284560,8.902241,-3.0759506,2.8640637000000004,0.041545313,-0.05965481,-0.09374327,-36.54,-17.4,24.12
1554118284580,8.929772999999999,-3.007716,2.7850552000000004,0.05006743,-0.06178534,-0.099069595,-36.54,-17.4,24.12
1554118284600,8.917803,-3.0160956000000003,2.861071,0.05219796,-0.04474111,-0.10439592,-36.54,-17.4,24.12
1554118284619,9.011177,-3.0909145000000002,2.9131447999999995,0.039414786,-0.022370555,-0.10759171,-36.54,-17.4,24.12
1554118284640,8.868122999999999,-3.0891187,2.9789855,0.05006743,0.011717908999999999,-0.113983296,-36.54,-17.4,24.18
1554118284660,8.833407000000001,-3.0256724,3.043629,0.051132694000000006,0.02130529,-0.11504856,-36.54,-17.46,24.18
1554118284680,8.942942,-3.0376434,2.8862102000000003,0.09374327,0.010652645,-0.10865697,-36.54,-17.46,24.24
1554118284700,8.895657,-2.9209259999999997,2.8119897999999997,0.10439592,0.029827405,-0.10865697,-36.54,-17.46,24.24
1554118284719,8.875904,-2.8095956,2.7724855,0.05219796,0.05965481,-0.09587380000000001,-36.6,-17.46,24.3
1554118284740,8.774749,-2.813187,2.8054059,-0.04474111,0.084155895,-0.07030745599999999,-36.6,-17.46,24.3
1554118284760,8.764574,-3.056797,3.1591492000000003,-0.10759171,0.07137272,-0.07243799,-36.6,-17.46,24.3
1554118284780,8.758589,-3.0699651,3.071761,0.017044231,0.040480047000000005,-0.10333065,-36.6,-17.46,24.3
1554118284800,8.692748,-2.7682957999999998,2.7084408,0.083090626,0.01917476,-0.11824436,-36.66,-17.46,24.3
1554118284820,8.738237,-2.7880477999999997,2.7724855,-0.0031957934000000003,0.026631612000000002,-0.10333065,-36.72,-17.46,24.24
1554118284839,8.635287,-2.9269116000000004,2.9700072,-0.058589544,-0.0010652645,-0.096939065,-36.84,-17.52,24.18
1554118284859,8.84478,-3.064578,2.9496564999999997,-0.05752428,-0.027696876000000002,-0.096939065,-36.9,-17.52,24.18
1554118284879,8.748413000000001,-2.9538465,2.6970682,-0.007456851,-0.051132694000000006,-0.13209279,-36.96,-17.58,24.12
1554118284900,8.812458,-2.822764,2.5731683,-0.025566347000000003,-0.05965481,-0.128897,-36.96,-17.64,24.12
1554118284920,8.844180999999999,-2.8538885,2.6426,-0.043675844000000005,-0.015978966,-0.12357068,-36.96,-17.7,24.12
1554118284939,8.768764,-2.9388826,2.7042507999999996,-0.082025364,0.002130529,-0.101200126,-36.96,-17.82,24.12
1554118284959,8.877101,-2.9933507,2.7120319999999998,-0.13954964,-0.008522116,-0.09587380000000001,-36.96,-17.94,24.12
1554118284979,8.872313,-2.8993783,2.5839422,-0.15552860000000002,-0.014913702,-0.096939065,-36.84,-18.0,24.12
1554118285000,8.990228,-2.8502972,2.4307132,-0.15020229,0.010652645,-0.082025364,-36.78,-18.18,24.06
1554118285020,8.893861,-2.9269116000000004,2.4881742,-0.128897,0.027696876000000002,-0.07137272,-36.72,-18.24,24.06
1554118285039,8.828619,-3.0298622,2.6593595000000003,-0.11824436,0.02876214,-0.04580637,-36.66,-18.42,24.0
1554118285060,8.82802,-3.0370448,2.8107927000000004,-0.16085494,0.013848438000000001,-0.023435817999999997,-36.6,-18.54,23.94
1554118285080,8.810063000000001,-2.9538465,2.6797101000000003,-0.15765914,-0.020240024,-0.023435817999999997,-36.6,-18.66,23.88
1554118285099,8.884284,-2.902371,2.5893292000000003,-0.113983296,-0.04474111,-0.008522116,-36.6,-18.78,23.82
1554118285119,8.931569,-3.028665,2.681506,-0.060720075,-0.027696876000000002,0.012783173500000002,-36.66,-18.84,23.82
1554118285139,8.770559,-3.1088709999999997,2.741361,0.02130529,-0.002130529,0.037284255,-36.66,-18.96,23.76
1554118285160,8.862736,-3.0573955,2.6886885,0.0031957934000000003,-0.010652645,0.05539375,-36.66,-19.08,23.76
1554118285180,8.74961,-2.954445,2.6509798,-0.012783173500000002,-0.026631612000000002,0.033023197000000004,-36.72,-19.2,23.76
1554118285200,8.843582000000001,-2.8203697,2.570774,0.010652645,-0.04580637,0.025566347000000003,-36.78,-19.32,23.76
1554118285219,8.899248,-2.8215668,2.6473885,0.05006743,-0.04261058,0.022370555,-36.84,-19.5,23.82
1554118285239,8.831612,-2.903568,2.7790697,0.033023197000000004,-0.04474111,0.03834952,-36.84,-19.62,23.82
1554118285260,9.03452,-3.0065188,2.7096379,-0.017044231,-0.099069595,0.035153727999999995,-36.9,-19.74,23.88
1554118285280,8.802881,-3.052607,2.582745,-0.025566347000000003,-0.09267801,0.024501082,-36.9,-19.8,23.88
1554118285299,9.027936,-2.8999767000000003,2.5043349999999998,0.047936900000000005,-0.06604639400000001,0.0010652645,-36.84,-19.86,23.94
1554118285319,8.924387,-2.9873652,2.6617537000000002,0.07456851,0.002130529,0.039414786,-36.78,-19.86,23.94
1554118285340,8.831013,-2.9418752,2.7521348,-0.023435817999999997,-0.02130529,0.03089267,-36.66,-19.92,24.0
1554118285360,8.750209,-2.9257145,2.7850552000000004,-0.07137272,-0.08522116,0.0,-36.6,-19.92,24.0
1554118285379,8.926781,-2.8766334,2.7593174,-0.033023197000000004,-0.112918034,-0.01917476,-36.48,-19.86,24.06
1554118285399,8.955511,-2.8868085999999997,2.7323828,0.08948222,-0.096939065,-0.014913702,-36.42,-19.8,24.06
1554118285420,9.028535,-2.918532,2.670732,0.25566345,0.022370555,0.01917476,-36.3,-19.8,24.12
1554118285440,8.880094999999999,-2.903568,2.6426,0.21198763,0.043675844000000005,0.013848438000000001,-36.24,-19.74,24.12
1554118285460,8.916606,-2.8700492000000004,2.6683377999999998,0.099069595,0.018109497,-0.017044231,-36.18,-19.68,24.12
1554118285480,8.874108,-2.7234043999999997,2.6330232999999996,0.018109497,-0.008522116,-0.06178534,-36.12,-19.62,24.18
1554118285500,8.868122999999999,-2.855684,2.6821042999999998,-0.004261058,-0.0063915867,-0.05965481,-36.06,-19.56,24.18
1554118285519,8.868722,-2.8688521000000002,2.6970682,-0.017044231,0.017044231,-0.04580637,-36.0,-19.44,24.24
1554118285539,8.808268,-2.9825767999999995,2.8149827000000003,-0.05752428,0.034088463,-0.023435817999999997,-36.0,-19.32,24.3
1554118285559,8.883685,-3.093907,2.8550856,-0.084155895,0.027696876000000002,-0.03089267,-36.06,-19.2,24.3
1554118285579,8.847773,-2.8562827,2.7419596,-0.10226539,0.0031957934000000003,-0.04474111,-36.18,-19.02,24.36
1554118285599,8.98484,-2.819771,2.6922797999999997,-0.15978967,0.017044231,-0.039414786,-36.3,-18.96,24.36
1554118285620,8.681973,-3.0819361,2.918532,-0.23435818,-0.017044231,-0.027696876000000002,-36.48,-18.84,24.42
1554118285640,8.74961,-3.2070332,2.855684,-0.21411815,-0.080960095,-0.024501082,-36.54,-18.78,24.42
1554118285660,8.849568,-3.1346085,2.7006595,-0.19707392,-0.08522116,-0.040480047000000005,-36.66,-18.72,24.42
1554118285680,8.916007,-3.2501287,2.5552118,-0.18216023,-0.07563378,-0.05752428,-36.72,-18.72,24.42
1554118285699,9.01776,-3.353678,2.6581624,-0.13102753,-0.043675844000000005,-0.083090626,-36.78,-18.66,24.42
1554118285719,8.871715,-3.3345244,2.6803088,-0.020240024,-0.040480047000000005,-0.15126756,-36.72,-18.66,24.42
1554118285740,8.813655,-3.2363622000000003,2.544438,0.051132694000000006,-0.047936900000000005,-0.19068234,-36.66,-18.72,24.42
1554118285759,8.969278,-2.6874914,2.2529437999999997,0.033023197000000004,-0.06178534,-0.22477080000000002,-36.6,-18.72,24.42
1554118285779,9.033323,-2.4001873,1.9698293999999998,0.18216023,0.035153727999999995,-0.16831179,-36.54,-18.78,24.36
1554118285799,9.0716305,-2.906561,2.2050598,0.25566345,0.17789917,-0.033023197000000004,-36.54,-18.9,24.36
1554118285821,9.35235,-2.6844985,2.493561,0.11824436,0.16405073,-0.09161274,-36.54,-19.08,24.36
1554118285840,8.595782,-2.861071,2.4331074,0.023435817999999997,0.12570119999999999,-0.049002163,-36.54,-19.14,24.36
1554118285860,8.958505,-2.6252422,2.5851393,-0.17044231,0.056459017,-0.05752428,-36.54,-19.32,24.36
1554118285880,8.930971000000001,-3.0214825000000003,2.3624785,-0.05752428,0.034088463,-0.027696876000000002,-36.54,-19.44,24.3
1554118285900,9.03871,-2.9502552000000004,2.60549,-0.07776430000000001,0.07563378,-0.026631612000000002,-36.48,-19.56,24.3
1554118285920,8.660426,-2.8060042999999997,2.8449101000000003,-0.128897,0.040480047000000005,-0.040480047000000005,-36.48,-19.74,24.3
1554118285940,8.786121000000001,-2.8933928,2.9311013,-0.15233281,-0.029827405,-0.022370555,-36.54,-19.92,24.3
1554118285960,8.923788,-3.0974984,2.6473885,-0.01917476,-0.08522116,-0.05006743,-36.54,-20.04,24.24
1554118285979,9.052477,-2.9771897999999997,2.4756044999999998,0.17576863,-0.020240024,-0.06178534,-36.6,-20.16,24.24
1554118285999,8.971074,-2.8419175,2.5647886000000004,0.18002969,0.023435817999999997,-0.05219796,-36.6,-20.28,24.24
1554118286021,8.840589999999999,-2.7168205000000003,2.747945,0.03834952,-0.020240024,-0.047936900000000005,-36.66,-20.34,24.24
1554118286041,8.876503,-2.759916,2.891597,-0.07669904,-0.084155895,-0.051132694000000006,-36.72,-20.46,24.24
1554118286061,9.0237465,-3.0454244999999998,2.7509377,-0.03834952,-0.099069595,-0.036218993,-36.72,-20.46,24.18
1554118286080,8.977058999999999,-2.9999347000000003,2.72939,0.07776430000000001,-0.03195793,-0.033023197000000004,-36.72,-20.46,24.18
1554118286101,8.953716,-2.966416,2.7874494,0.07882957,0.004261058,-0.0053263223,-36.72,-20.4,24.18
1554118286120,8.933964,-2.9442697,2.8634652999999997,-0.008522116,0.0010652645,-0.008522116,-36.78,-20.4,24.18
1554118286140,8.924387,-2.882619,2.8089972000000003,-0.10013486,-0.026631612000000002,-0.00958738,-36.78,-20.4,24.18
1554118286160,8.935161,-2.9346926,2.7180176,-0.16405073,-0.05219796,-0.008522116,-36.78,-20.34,24.18
