TimeStamp,Ax,Ay,Az,Gx,Gy,Gz,Mx,My,Mz
1554105356734,0.23463176,-10.707469,2.1110873,2.5853968,0.5603291,-0.45486793,11.88,39.54,4.74
1554105356754,0.22505496,-10.041881,2.130241,2.7899277000000002,0.60720074,-0.406931,11.46,40.44,4.26
1554105356775,0.37349546,-9.156025999999999,1.7711107,2.4586303,0.6242449999999999,-0.39414784,11.04,41.58,3.72
1554105356794,0.320823,-8.825626,2.2164322999999997,1.8631475,0.6711166000000001,-0.36645097,10.62,42.84,3.12
1554105356814,0.24899697,-8.868722,2.5995044999999997,1.2484899999999999,0.7073356,-0.28442562,10.2,44.22,2.4
1554105356835,0.047884032,-8.950125,2.891597,0.6775081999999999,0.7488809000000001,-0.15659387,9.84,45.66,1.5
1554105356854,-0.29209262,-8.988432000000001,3.0352492,0.13422333,0.7840345999999999,0.020240024,9.54,46.98,0.78
1554105356874,-0.6895300999999999,-9.141661000000001,2.9921536,-0.44741106,0.77444726,0.26844665,9.24,48.24,0.06
1554105356894,-1.0342950999999998,-9.227852,2.8149827000000003,-1.0791129,0.716923,0.55287224,8.94,49.38,-0.66
1554105356914,-1.3838485,-9.146449,2.5803509,-1.7235979,0.6402239000000001,0.8266452,8.7,50.28,-1.38
1554105356934,-1.7190368000000003,-9.424176,1.8285716,-2.3339944,0.51771855,1.0759171,8.46,50.94,-2.04
1554105356954,-2.087744,-9.644442999999999,1.0767921999999999,-3.02109,0.36325517,1.284709,8.34,51.24,-2.46
1554105356974,-2.2649147999999997,-9.98442,0.84216046,-3.6836846,0.165116,1.4668691,8.28,51.0,-2.52
1554105356994,-2.4181437000000003,-10.501567,0.20530279,-4.1097903,-0.07243799,1.6309198999999999,8.28,50.1,-1.86
1554105357015,-2.1787236,-11.234193,-0.56084174,-4.274906,-0.32490566,1.7470337,8.4,48.72,-0.78
1554105357034,-2.4229321,-11.329961,-0.8242039000000001,-4.2365565,-0.5230448000000001,1.7715348000000002,8.58,46.86,0.42
1554105357055,-2.552219,-11.066599,-1.3030443,-3.8988678,-0.7222493000000001,1.7619474,8.94,44.52,1.8
1554105357075,-2.2505496,-10.817602,-1.9782091,-3.5579834000000004,-0.95128113,1.7342505000000001,9.48,41.64,3.18
1554105357094,-2.1739352000000003,-10.626064999999999,-2.212841,-3.2245555,-1.1249193000000002,1.582983,10.02,38.22,4.74
1554105357114,-2.3080103,-10.228628,-2.5145104,-2.8549087,-1.2655341999999998,1.4146712,10.68,34.44,6.24
1554105357135,-2.4420857000000002,-9.577405,-2.5145104,-2.324407,-1.3741912,1.2665993999999998,11.46,30.72,7.5
1554105357154,-2.327164,-9.247005,-2.5049335999999998,-1.7534252000000001,-1.4711303,1.176052,12.3,27.3,8.28
1554105357174,-2.0925324,-8.907029,-2.6102784,-1.2357068000000002,-1.5425029,1.0705907,13.26,23.94,8.7
1554105357194,-2.4133554,-8.313267,-2.9311013,-0.7861651999999999,-1.5691346000000002,0.93636745,14.34,20.76,9.0
1554105357214,-3.6104562000000007,-8.169615,-3.3859997,-0.5187838,-1.4977618000000001,0.7765778,15.72,16.56,9.06
1554105357234,-3.9791632000000003,-8.126519,-3.2136172999999997,-0.45593318,-1.442368,0.65513766,16.2,15.42,8.94
1554105357255,-4.4244847,-7.4705076,-3.5775358999999995,-0.28868666,-1.4413028,0.51665324,17.64,12.54,8.34
1554105357274,-5.664681400000001,-7.796119,-4.458602,-0.24607609,-1.4253238000000001,0.51665324,18.72,11.1,7.8
1554105357295,-7.153875,-8.188768,-4.563947,-0.48043427,-1.3923006000000002,0.5273059,19.8,9.84,7.26
1554105357314,-7.225700999999999,-8.169615,-4.741118,-0.7946873000000001,-1.438107,0.5134575,20.82,8.88,6.54
1554105357335,-7.819463000000001,-7.7003509999999995,-5.4402246,-1.0460896000000002,-1.5638082,0.49108690000000005,21.72,8.04,5.76
1554105357354,-8.896853,-7.475296000000001,-5.09546,-1.2889700000000002,-1.7353158,0.49002165,22.74,7.38,4.8
1554105357375,-8.485051,-7.6333137,-4.6980224,-1.4306501,-2.0708742,0.53476274,23.7,6.54,3.96
1554105357394,-7.967903,-7.753023599999999,-4.812944,-1.3326459,-2.4096282,0.51026165,24.54,5.64,3.06
1554105357414,-8.145074000000001,-6.9725137,-5.2582655,-1.0407634,-2.6003106,0.45912898,25.44,4.86,2.22
1554105357435,-8.279149,-6.335656,-5.167286,-0.56672066,-2.6557042999999996,0.46552056,26.28,3.96,1.26
1554105357455,-7.752425,-5.4593782,-4.875193,-0.12996227,-2.766492,0.5858955,27.18,3.0,0.12
1554105357474,-6.8522053,-4.817732299999999,-5.167286,-0.3717773,-2.9720879,0.70200926,28.14,2.1,-1.14
1554105357495,-6.8761472999999995,-4.2718544000000005,-4.6022544000000005,-0.99921805,-3.1095068,0.64341974,29.04,1.14,-2.64
1554105357514,-6.517017,-4.1282024,-3.970185,-1.2665993999999998,-3.113768,0.60507023,29.88,0.18,-4.08
1554105357534,-5.7843914000000005,-3.8265328000000003,-3.3093852999999998,-1.2239889,-2.9646310000000002,0.62531024,30.84,-0.6,-5.82
1554105357554,-4.9895163,-3.7499184999999997,-1.8154035,-1.1707256000000001,-2.755839,0.57311225,31.86,-1.38,-7.74
1554105357575,-4.6878470000000005,-3.8361096,-0.623091,-1.0588728,-2.4959147,0.45167214,32.7,-2.16,-9.9
1554105357594,-4.8985367,-3.970185,-0.09636662,-0.8181231,-2.1646172999999997,0.36964676,33.42,-2.94,-12.18
1554105357614,-5.0517654,-4.156933,-0.048482585999999994,-0.27803403,-1.6990968000000002,0.20453078,33.96,-3.72,-14.4
1554105357635,-5.568912999999999,-4.018069000000001,0.10474633,0.08628642,-1.3390374,0.13528858,34.32,-4.56,-16.62
1554105357654,-6.622362,-3.2231941,0.55485624,0.406931,-0.8404937,0.16192019,34.62,-5.34,-18.6
1554105357675,-6.354211299999999,-3.0747535,0.65541273,0.1949434,-0.700944,0.18961707,34.8,-6.0,-20.34
1554105357694,-6.3446345,-3.093907,0.05207389,-0.03089267,-0.53263223,0.1587244,34.8,-6.72,-21.78
1554105357715,-7.278373200000001,-3.4961330000000004,-0.27353755,-0.26418558,-0.25033715,0.16085494,34.8,-7.32,-22.92
1554105357735,-7.905653999999999,-4.6261964,-0.46986207,-0.4825648,-0.023435817999999997,0.12463594,34.86,-7.86,-23.82
1554105357754,-8.700529,-5.6030307,-0.54168814,-0.49854377,0.12783173,0.06285059999999999,34.86,-8.34,-24.54
1554105357775,-9.514558000000001,-5.6604915,-0.56563014,-0.46658584,0.11824436,0.023435817999999997,34.86,-8.7,-25.08
1554105357794,-9.5385,-5.583876999999999,-1.0684125,-0.515588,0.0010652645,0.036218993,34.86,-8.94,-25.32
1554105357815,-9.380483,-5.703587000000001,-1.1115081,-0.66152924,-0.18216023,0.07350325,34.86,-9.06,-25.56
1554105357834,-9.188946000000001,-5.689222,-0.5081693,-0.6466155,-0.3206446,0.07669904,34.86,-9.24,-25.86
1554105357855,-8.499416,-5.655703,0.29628247,-0.36218992,-0.4261058,0.083090626,34.86,-9.24,-26.1
1554105357874,-8.030152000000001,-5.521628,0.76554596,0.09161274,-0.4644553,0.04261058,34.8,-9.36,-26.28
1554105357894,-7.9583262999999995,-5.0523643,0.3537433,0.49854377,-0.4314321,0.01917476,34.8,-9.54,-26.52
1554105357914,-7.9343843,-4.3580456,-0.091578215,0.60720074,-0.3717773,0.015978966,34.8,-9.66,-26.88
1554105357934,-8.039729,-3.8983587999999996,-0.18255788,0.4079963,-0.30892670000000005,-0.043675844000000005,34.74,-9.84,-27.12
1554105357955,-8.063671000000001,-4.214393599999999,-0.17298107,0.12676647,-0.22370553,-0.09054748,34.74,-10.02,-27.36
1554105357974,-8.394072,-4.243124,0.13826515,-0.02876214,-0.13422333,-0.083090626,34.68,-10.2,-27.6
1554105357994,-8.413225,-4.085107,0.037708677,-0.19813919,-0.07243799,-0.029827405,34.68,-10.38,-27.84
1554105358015,-8.542512,-4.348469000000001,-0.31663316,-0.51771855,-0.012783173500000002,0.020240024,34.68,-10.5,-28.08
1554105358034,-9.102755,-4.8081555,-0.27832595,-0.7126619000000001,0.05006743,0.047936900000000005,34.62,-10.62,-28.32
1554105358055,-8.676587,-5.2343235,0.032920275,-0.63915867,0.07243799,0.06178534,34.62,-10.62,-28.44
1554105358074,-8.542512,-5.2103815,0.56443304,-0.48043427,0.084155895,0.007456851,34.62,-10.62,-28.44
1554105358094,-8.384495,-5.205593,0.84216046,-0.3153183,0.06604639400000001,-0.04580637,34.56,-10.62,-28.44
1554105358115,-8.422802,-5.0523643,0.5069722,-0.12783173,0.06924219,-0.082025364,34.56,-10.62,-28.44
1554105358134,-8.628703,-4.918288700000001,0.032920275,-0.17896444,0.07137272,-0.098004326,34.56,-10.62,-28.5
1554105358154,-8.513782,-4.899135,-0.15382746,-0.314253,0.053263225,-0.12037488,34.56,-10.62,-28.5
1554105358174,-8.259995,-4.970961,-0.20649989,-0.36432046,0.03834952,-0.13528858,34.56,-10.62,-28.5
1554105358195,-8.331821000000001,-4.611831,-0.3357868,-0.36112466,0.01917476,-0.14487597,34.5,-10.56,-28.62
1554105358214,-8.346188,-4.654927,-0.3453636,-0.23009712,0.034088463,-0.10972224,34.5,-10.56,-28.68
1554105358235,-7.991845,-4.9757495,-0.3357868,-0.1107875,0.06285059999999999,-0.06498113,34.5,-10.5,-28.74
1554105358254,-7.627927000000001,-4.923076999999999,-0.53211135,-0.07137272,0.10333065,-0.051132694000000006,34.5,-10.44,-28.8
1554105358275,-7.441178999999999,-4.8895583,-0.27832595,-0.06391586,0.12250541,-0.05965481,34.5,-10.32,-28.86
1554105358294,-7.28795,-4.9661726999999996,-0.45549688,-0.023435817999999997,0.13528858,-0.029827405,34.5,-10.26,-28.92
1554105358314,-6.885724000000001,-5.143344,-0.46986207,-0.040480047000000005,0.10013486,-0.051132694000000006,34.44,-10.2,-28.92
1554105358335,-6.9671270000000005,-5.4881085999999994,-0.74758947,-0.035153727999999995,0.056459017,-0.10652645,34.44,-10.14,-28.98
1554105358354,-7.407660000000001,-5.1529207,-0.7044938000000001,0.026631612000000002,0.07776430000000001,-0.15233281,34.44,-10.14,-28.98
1554105358374,-8.485051,-4.9853263,0.27712885,0.37710363,0.07456851,-0.21944448,34.44,-10.14,-29.04
1554105358394,-8.418014,-5.617396,0.8900445,0.8202536,0.099069595,-0.08522116,34.44,-10.14,-29.04
1554105358414,-8.628703,-5.909488,0.95229375,1.2325108999999999,0.15126756,-0.07776430000000001,34.44,-10.14,-29.04
1554105358435,-9.11712,-5.703587000000001,0.53570265,1.4966966,0.18429075,-0.11930962,34.44,-10.2,-29.04
1554105358455,-9.184157,-5.655703,1.110311,1.5648735,0.17257284,-0.10865697,34.44,-10.2,-29.04
1554105358474,-9.193734,-5.828085400000001,1.6035166,1.4998924,0.13315806,-0.14594123,34.44,-10.26,-28.92
1554105358495,-9.3182335,-5.6940102999999995,1.8333599999999999,1.3028183999999998,0.03195793,-0.21837921,34.38,-10.32,-28.74
1554105358514,-9.447519999999999,-5.6461263,1.8237831999999998,0.9331716999999998,-0.043675844000000005,-0.24501082,34.38,-10.32,-28.5
1554105358534,-9.404425,-5.4498014,1.8285716,0.49215218,-0.10333065,-0.20879184,34.38,-10.32,-28.14
1554105358555,-8.8777,-5.2726307,1.6897078999999997,0.05006743,-0.16937704,-0.16192019,34.38,-10.32,-27.78
1554105358574,-8.714894000000001,-5.4641665999999995,1.8285716,-0.28975195,-0.19600865,-0.13528858,34.38,-10.32,-27.48
1554105358594,-8.360553,-5.535993,1.9339164,-0.45486793,-0.25885928,-0.12570119999999999,34.38,-10.32,-27.12
1554105358614,-7.833828,-5.4210709999999995,1.9243397,-0.38775626,-0.28975195,-0.10652645,34.38,-10.32,-26.82
1554105358634,-7.776367,-5.507262,1.9722236000000002,-0.30360037,-0.2695119,-0.07669904,34.38,-10.32,-26.52
1554105358654,-8.317456,-5.3157263,1.8142063999999998,-0.22796659,-0.25246766,-0.07776430000000001,34.44,-10.32,-26.34
1554105358674,-8.0684595,-5.157709,1.7902644,-0.20240025,-0.25672874,-0.033023197000000004,34.44,-10.38,-26.16
1554105358694,-7.9248075,-5.0906715,1.7375918999999997,-0.28122982,-0.26525086,0.017044231,34.5,-10.44,-26.16
1554105358715,-7.929596000000001,-5.229535,1.7375918999999997,-0.36751625,-0.28122982,0.080960095,34.5,-10.44,-26.28
1554105358734,-8.030152000000001,-5.248688700000001,1.8764555,-0.3334278,-0.29294774,0.13315806,34.5,-10.5,-26.52
1554105358754,-7.728483,-5.253476999999999,1.6561891,-0.31957933,-0.28229508,0.19387813,34.5,-10.56,-26.82
1554105358774,-7.656657000000001,-5.349245,1.6561891,-0.37816888,-0.23861924,0.18216023,34.44,-10.62,-27.12
1554105358795,-7.565677,-5.325303,2.1110873,-0.37284255,-0.21624869,0.15339808,34.44,-10.8,-27.42
1554105358814,-7.6135616,-5.263054,1.8237831999999998,-0.2790993,-0.18002969,0.1107875,34.44,-10.98,-27.72
1554105358835,-7.603985000000001,-5.0236335,1.6753427,-0.34408042,-0.035153727999999995,0.113983296,34.38,-11.34,-28.2
1554105358854,-7.4124484,-5.148132299999999,1.7136499,-0.50813115,0.0,0.12463594,34.32,-11.46,-28.38
1554105358874,-7.4124484,-5.09546,1.6418238,-0.6540724,0.004261058,0.08948222,34.2,-11.7,-28.56
1554105358894,-7.431602000000001,-4.745906400000001,1.4838065,-0.6785734,0.029827405,0.07669904,34.08,-12.12,-28.68
1554105358915,-7.407660000000001,-4.6692919999999996,1.3018471999999999,-0.5965481,0.10439592,0.096939065,33.96,-12.42,-28.68
1554105358934,-7.824250999999999,-4.6932339999999995,0.86610246,-0.5603291,0.221575,0.113983296,33.84,-12.72,-28.74
1554105358954,-7.3645644,-5.061941,0.7846996,-0.6380934,0.28975195,0.07776430000000001,33.78,-12.9,-28.74
1554105358974,-6.924031299999999,-5.4258595000000005,0.7703344,-0.6924219,0.37710363,-0.02130529,33.66,-13.08,-28.8
1554105358995,-6.7612257,-5.325303,0.86131406,-0.5901565,0.49215218,-0.14168017,33.6,-13.2,-28.86
1554105359014,-6.133945,-5.286996,1.0241197,-0.35153726,0.6380934,-0.22477080000000002,33.54,-13.32,-28.98
1554105359034,-5.3582234,-5.4545900000000005,1.1198878,-0.15339808,0.7275756,-0.2972088,33.54,-13.38,-29.04
1554105359054,-5.133168,-5.631761,0.5931635000000001,-0.034088463,0.7584683000000001,-0.44954160000000004,33.48,-13.44,-29.1
1554105359075,-4.9559975,-5.579088700000001,0.3537433,0.10759171,0.8149273,-0.5858955,33.48,-13.5,-29.1
1554105359094,-4.9799394999999995,-5.555146700000001,-0.08200141,0.42930159999999995,0.9502159,-0.7978831000000001,33.42,-13.44,-28.98
1554105359114,-4.453215,-5.4593782,-0.12988544,0.6924219,1.0301107,-0.9736517,33.42,-13.38,-28.68
1554105359135,-4.256891,-5.4881085999999994,-0.56563014,0.9598033000000001,1.067395,-1.2495551999999999,33.42,-13.02,-28.26
1554105359154,-4.697424,-5.5743003,-1.3509283,1.1739215,1.0684601999999999,-1.5723303999999998,33.36,-12.3,-27.66
1554105359174,-4.673482,-5.7706246,-2.0452468,1.2548815,1.1302456,-1.8461033,33.36,-11.4,-26.88
1554105359194,-5.066130599999999,-5.612607499999999,-2.404377,1.067395,1.2484899999999999,-2.1134846,33.48,-10.02,-25.92
1554105359214,-5.0374002,-6.091448000000001,-2.5001452,0.81066626,1.3156016000000001,-2.23599,33.6,-8.4,-24.78
1554105359234,-5.291186,-6.6947865,-2.8257565,0.60933125,1.3347764,-2.2977755,33.72,-6.48,-23.58
1554105359254,-5.1810527,-7.1975690000000005,-2.7539306,0.20772657,1.4040185,-2.4224113999999997,33.9,-4.32,-22.26
1554105359274,-5.1666875,-7.484873299999999,-2.533664,-0.11930962,1.417867,-2.5555694,34.02,-1.86,-20.94
1554105359294,-4.879383,-8.131308,-3.103484,-0.294013,1.4040185,-2.6684875,34.14,0.66,-19.68
1554105359317,-4.525041000000001,-8.696339,-4.0037036,-0.28229508,1.4583471000000001,-2.7292075000000002,34.26,3.06,-18.6
1554105359335,-4.0222587999999995,-9.146449,-3.769072,-0.1768339,1.5819178,-2.7121632,34.32,5.52,-17.52
1554105359354,-3.6679169999999996,-9.227852,-3.5440169999999998,-0.06711166,1.6000272,-2.7015107000000005,34.14,8.04,-16.38
1554105359374,-2.882619,-9.261371,-3.2184057,-0.10013486,1.5318503,-2.711098,33.9,10.56,-15.18
1554105359394,-2.5378537,-9.6923275,-3.793014,-0.10013486,1.4146712,-2.7686224,33.48,13.14,-13.98
1554105359414,-1.6328455,-10.003573,-3.8504747999999998,-0.128897,1.3262542,-2.7281423,32.94,15.78,-12.96
1554105359435,-1.4700398000000001,-10.49199,-3.6637269999999997,0.06285059999999999,1.2974921,-2.5853968,32.34,18.48,-12.06
1554105359454,-1.0534488000000002,-10.922947,-3.3812113,0.21198763,1.2357068000000002,-2.3659522999999996,31.62,21.18,-11.1
1554105359474,-0.79966336,-11.215038999999999,-3.5296519,0.19068234,1.1142666,-2.336125,30.84,23.82,-9.9
1554105359494,-0.23463176,-11.334749,-3.639785,0.07137272,0.96939063,-2.3190807999999996,30.0,26.52,-8.64
1554105359514,-0.23942018,-10.606912,-3.1370027,0.09374327,0.9171927,-2.2338595000000003,29.16,28.98,-7.56
1554105359535,0.13407529999999998,-10.25257,-1.939902,0.39627838,0.8745821,-1.8535602,28.26,31.14,-6.66
1554105359554,0.7757214,-9.946113,-1.441908,0.61678815,0.79255676,-1.6767261999999998,27.24,33.12,-5.88
1554105359574,1.7860744999999998,-10.305242999999999,-2.3229742,0.7190535,0.73822826,-1.6447683999999998,26.16,34.8,-5.1
1554105359594,1.9105729999999999,-9.610924,-2.1027076,0.6508765999999999,0.7840345999999999,-1.6745956999999998,25.02,36.24,-4.38
1554105359614,1.8674773,-9.376292,-1.6669630000000002,0.7222493000000001,0.79894835,-1.6266588,23.82,37.62,-3.78
1554105359634,2.0446482,-9.242217,-1.1881226,0.8426242,0.78296936,-1.4807175,22.56,39.0,-3.48
1554105359654,2.3080103,-9.294889,-0.8194155000000001,0.94595486,0.8042746999999999,-1.4508902,21.24,40.2,-3.3
1554105359677,3.0885203,-9.0794115,-0.8960299999999999,0.9395633,0.87032104,-1.4562165,19.26,41.7,-3.24
1554105359694,3.8163576,-9.879075,-1.2982559,0.86606,0.9150621999999999,-1.5190671999999998,17.94,42.78,-3.36
1554105359715,4.146757,-9.668385,-1.0348936,0.6466155,0.9438243000000001,-1.5947008999999999,16.86,43.86,-3.42
1554105359734,4.0462008,-9.170391,-0.7092823,0.5454154,0.9757822,-1.6383767,15.84,44.94,-3.54
1554105359754,4.711789,-9.491214,-0.4985925,0.4644553,0.9619338,-1.6852484,14.82,45.96,-3.6
1554105359774,5.2241483,-10.099341,-0.85772276,0.39840892,0.9171927,-1.7704695,14.34,46.38,-3.66
1554105359794,5.674258,-9.294889,-0.9439139999999999,0.32384038,0.85540736,-1.8759307,13.08,47.52,-3.9
1554105359814,6.0285997,-9.227852,-0.31184477,0.32170987,0.77870834,-1.7257284,12.18,48.18,-4.02
1554105359834,5.9998693,-8.907029,0.061650693,0.068176925,0.5134575,-1.6788566999999999,11.34,48.72,-4.14
1554105359854,6.861782000000001,-9.548675,0.032920275,-0.25033715,0.2034655,-1.6543556000000001,10.32,49.14,-4.26
1554105359874,7.0724716,-9.711481,0.3681085,-0.30466563,0.027696876000000002,-1.6522251000000001,9.06,49.56,-4.38
1554105359894,6.9862804,-9.582193,1.2970588,-0.05965481,-0.08735169,-1.546764,7.8,49.8,-4.56
1554105359914,6.775591,-9.366715,1.4646529,0.3270362,-0.22583607,-1.3912354,6.54,49.92,-4.8
1554105359934,6.7372837,-8.969278,1.3736732,0.59122175,-0.29933932,-1.2836437,5.88,49.92,-4.86
1554105359954,7.0006455999999995,-8.528744999999999,0.7272388000000001,0.86499476,-0.40053943,-1.0876350000000001,4.08,49.92,-5.16
1554105359974,7.2592196,-8.251018,0.43035775,0.88203895,-0.46978164,-0.9214538000000001,2.94,49.92,-5.4
1554105359994,7.273585000000001,-7.561487700000001,0.65062433,0.753142,-0.49960902,-0.773382,1.92,49.92,-5.58
1554105360014,7.603985000000001,-7.599794999999999,0.5165489999999999,0.6103965,-0.49534798,-0.6295713000000001,1.14,49.92,-5.88
1554105360034,7.632714999999999,-7.0970125,0.7846996,0.6402239000000001,-0.36432046,-0.42184472,0.54,49.86,-6.18
1554105360055,7.627927000000001,-6.761824000000001,0.5979519,0.5933523,-0.25672874,-0.27803403,0.0,49.86,-6.42
1554105360074,7.632714999999999,-6.7187285,0.7368156,0.5187838,-0.17363810000000002,-0.18109496,-0.6,49.8,-6.72
1554105360097,7.728483,-6.6852098,0.65062433,0.39095205,-0.06285059999999999,-0.03834952,-1.02,49.68,-7.08
1554105360117,7.656657000000001,-6.3548098,0.8948328999999999,0.26205507,0.012783173500000002,0.036218993,-1.44,49.5,-7.5
1554105360135,7.522581599999999,-6.215946,0.6123171,0.12676647,0.06285059999999999,0.08628642,-1.74,49.38,-8.04
1554105360154,7.465121000000001,-6.172850599999999,0.8230068000000001,-0.0063915867,0.07882957,0.12463594,-1.98,49.26,-8.46
1554105360174,7.4842744,-5.9956794,0.84216046,-0.14807177,0.06711166,0.13848437,-2.1,49.14,-8.82
1554105360194,7.311891999999999,-5.8089319999999995,1.0767921999999999,-0.24394555,0.02876214,0.16085494,-2.22,49.08,-9.12
1554105360214,7.417236999999999,-6.057929,1.2300211,-0.30040458,-0.029827405,0.15978967,-2.22,49.02,-9.42
1554105360234,7.5273699999999995,-6.2542534000000005,1.2826935,-0.13741912,-0.035153727999999995,0.13954964,-2.16,49.14,-9.72
1554105360254,7.575253999999999,-6.4266357,1.5316905,0.15552860000000002,-0.0010652645,0.15339808,-1.98,49.5,-9.9
1554105360274,7.311891999999999,-6.0291986,1.2012907,0.34514567,0.024501082,0.12144015,-1.86,49.92,-9.96
1554105360294,7.278373200000001,-5.899911400000001,0.9091981,0.36432046,0.008522116,0.096939065,-1.74,50.28,-9.96
1554105360314,7.398083,-5.7179523,0.7368156,0.27377295,-0.010652645,0.04580637,-1.62,50.7,-9.96
1554105360334,7.5369470000000005,-5.885546,0.7942764,0.112918034,-0.03089267,0.008522116,-1.56,51.06,-10.02
1554105360354,7.599196000000001,-5.861604,0.85652566,-0.05006743,-0.036218993,-0.05965481,-1.5,51.36,-10.02
1554105360375,7.4603324,-5.9238534000000005,1.0767921999999999,-0.17363810000000002,-0.023435817999999997,-0.09267801,-1.32,51.72,-10.02
1554105360394,7.522581599999999,-6.321291,1.4838065,-0.23222765,-0.041545313,-0.111852765,-1.2,51.9,-10.08
1554105360414,7.4268136,-6.5271926,1.359308,-0.12037488,-0.05539375,-0.12996227,-1.02,51.84,-10.08
1554105360434,7.3310455999999995,-6.5750766,1.3210008,0.068176925,-0.03834952,-0.13102753,-0.9,51.84,-10.08
1554105360455,7.3214690000000004,-6.541558,1.4311341,0.2428803,-0.022370555,-0.13528858,-0.78,51.78,-10.02
1554105360474,7.3645644,-6.5846534,1.0049661,0.30786142,-0.0063915867,-0.13315806,-0.66,51.66,-9.96
1554105360494,7.129933,-6.4505777,1.1821371,0.2908172,0.029827405,-0.09587380000000001,-0.6,51.54,-9.96
1554105360514,7.3406224,-6.464943,1.0097545,0.25353295,0.07456851,-0.017044231,-0.6,51.42,-9.9
1554105360535,7.5082164,-6.4266357,1.0049661,0.25672874,0.12463594,0.043675844000000005,-0.6,51.3,-9.9
1554105360554,7.5608889999999995,-6.335656,0.96187055,0.24394555,0.17789917,0.05965481,-0.66,51.36,-9.84
1554105360574,7.4124484,-6.321291,1.0720038,0.2034655,0.20559604,0.02876214,-0.78,51.78,-9.84
1554105360594,7.311891999999999,-6.4218473,1.1773487,0.12676647,0.21092236,0.0063915867,-0.78,52.32,-9.84
1554105360614,7.067683000000001,-6.929417999999999,1.4167688999999999,0.12144015,0.22796659,-0.0010652645,-0.84,52.86,-9.96
1554105360634,6.933608,-7.0491285,1.5795746000000002,0.37390783,0.314253,0.03089267,-0.9,53.46,-10.02
1554105360654,6.7612257,-7.0395517000000005,1.8860323,0.5954828000000001,0.37284255,0.06711166,-0.78,54.0,-10.14
1554105360674,7.0006455999999995,-7.140108000000001,2.2164322999999997,0.7307714,0.35153726,0.096939065,-0.6,54.78,-10.38
1554105360694,7.5034279999999995,-7.8152729999999995,2.441487,0.9768475000000001,0.36645097,0.16192019,-0.48,55.2,-10.74
1554105360715,7.565677,-7.7578119999999995,2.7287915000000003,1.5180018,0.50173956,0.22477080000000002,-0.36,55.32,-11.22
1554105360734,7.489063000000001,-7.173627000000001,2.4462755,1.9622171000000002,0.6135923000000001,0.27696875,-0.24,55.2,-11.7
1554105360754,7.2352777,-6.4026937,2.130241,2.0687435,0.6828345,0.3057309,-0.06,55.2,-12.3
1554105360775,7.144297999999999,-6.1106014,2.4702177000000005,1.8034927,0.69348717,0.3291667,0.12,55.32,-13.14
1554105360794,7.029375999999999,-5.9621606,2.7527334999999997,1.5393071000000003,0.69668293,0.33981937,0.36,55.56,-14.04
1554105360814,6.8186865,-5.7083755,2.795829,1.2921658,0.6956177,0.33449304,0.54,55.74,-15.24
1554105360834,6.6415157,-5.5264163,3.2986114,1.0162623,0.6540724,0.29827404,0.6,55.86,-15.84
1554105360854,6.4739213,-5.842450599999999,3.6098576,0.68816084,0.5613944000000001,0.22796659,0.9,56.28,-17.4
1554105360874,6.349423000000001,-6.1106014,4.217984700000001,0.7307714,0.53263223,0.18109496,1.08,56.7,-18.3
1554105360895,6.0860605,-5.952584,4.5962687,0.84581995,0.46232477,0.09054748,1.44,57.0,-19.26
1554105360914,5.971139,-5.990891,4.7734394,0.99069595,0.38029942,0.02876214,1.8,57.36,-20.1
1554105360934,5.8562174,-5.895123,4.735132,1.1163971000000001,0.2972088,-0.013848438000000001,2.1,57.54,-20.82
1554105360955,5.942408599999999,-6.2207346,5.04159,1.2175972,0.23222765,-0.043675844000000005,2.4,57.72,-21.48
1554105360974,5.8705826,-6.3404446,5.300164,1.4828482,0.23648871,-0.06178534,2.7,57.9,-22.02
1554105360995,5.6790465999999995,-5.938218599999999,5.319318,1.748099,0.26525086,-0.082025364,2.94,58.02,-22.68
1554105361014,5.683835,-5.507262,5.3863554,1.7363810000000002,0.221575,-0.10865697,3.18,58.08,-23.64
1554105361035,5.851429,-5.4641665999999995,5.6497173,1.5733956,0.17044231,-0.099069595,3.36,58.08,-24.54
1554105361055,5.8849480000000005,-5.607819,5.879561,1.5180018,0.18002969,-0.046871635999999994,3.42,58.08,-25.5
1554105361074,5.7365074,-4.918288700000001,5.855619,1.5638082,0.22690132,0.00958738,3.42,57.96,-26.46
1554105361095,5.511451999999999,-4.214393599999999,5.917868,1.4572818,0.26205507,0.13422333,3.42,57.78,-27.48
1554105361115,5.3582234,-4.247912400000001,6.1716533,1.2282499,0.22690132,0.20772657,3.42,57.6,-28.68
1554105361135,5.487509999999999,-4.5256395,6.401497,0.96619487,0.19707392,0.2545982,3.48,57.36,-29.88
1554105361154,5.5401826,-4.630985,6.473323000000001,0.8724516,0.19068234,0.25672874,3.6,57.12,-30.96
1554105361175,5.444414599999999,-4.0420110000000005,6.1716533,0.80747044,0.18748654,0.20879184,3.78,56.76,-31.86
1554105361195,5.305551,-3.5679589999999997,5.917868,0.5944176,0.14594123,0.16085494,3.96,56.22,-32.76
1554105361215,5.2289367,-3.3045970000000002,5.817312,0.17789917,0.098004326,0.14274544,4.14,55.62,-33.6
1554105361235,5.2385135,-3.2615013,5.7359085,-0.32384038,0.07776430000000001,0.1470065,4.32,55.02,-34.38
1554105361254,5.1762643,-3.4626143,5.6784476999999995,-0.74781567,0.06604639400000001,0.14594123,4.5,54.54,-35.04
1554105361274,4.8937483,-3.2231941,5.242703,-1.3017531999999998,0.022370555,0.10652645,4.68,54.12,-35.52
1554105361295,4.5537715,-2.9933507,4.2131963,-2.0889835,-0.07669904,0.12463594,4.8,53.7,-35.76
1554105361315,4.7453080000000005,-3.342904,3.3129766000000003,-3.3161682999999997,-0.21411815,0.2130529,4.86,53.4,-35.76
1554105361335,4.8745947,-4.0084919999999995,2.4558525,-4.639227,-0.29614353,0.26525086,4.98,53.4,-35.34
1554105361355,4.9320555,-4.611831,0.98102415,-5.975068599999999,-0.36432046,0.37390783,5.1,53.88,-34.5
1554105361374,5.018246700000001,-6.081871,-0.23523031,-7.416371300000001,-0.32277513,0.47936899999999993,5.22,54.6,-33.06
1554105361395,4.9799394999999995,-8.839992,-0.9199719999999999,-8.523181,-0.21518342,0.5070659000000001,5.28,55.32,-30.96
1554105361414,5.626374,-10.381857,-1.0540473,-9.031312,-0.017044231,0.46658584,5.4,55.98,-28.2
1554105361434,5.7365074,-11.531074,-1.3700819,-8.844891,0.2908172,0.40373522,5.58,56.52,-24.66
1554105361454,5.511451999999999,-12.699444999999999,-0.4890157,-7.821171799999999,0.5592638000000001,0.4261058,5.76,56.64,-20.46
1554105361474,5.410896,-12.943653,-0.27353755,-6.029397,0.8117314999999999,0.43675843,5.94,56.04,-15.72
1554105361496,5.2624555,-11.262922999999999,-0.6135142,-4.2589273,0.8767126000000001,0.26738137,6.18,54.18,-10.98
1554105361514,5.027823400000001,-9.86471,-1.3413515,-2.843191,0.79042625,0.18002969,6.36,51.54,-6.42
1554105361534,4.9559975,-8.839992,-1.7004818,-1.7544906000000002,0.62104917,0.10546118,6.48,48.36,-2.22
1554105361555,5.070919,-8.653243,-2.2511482000000003,-0.8511463,0.42930159999999995,0.05539375,6.66,44.82,1.32
1554105361575,5.612008599999999,-9.639654,-2.2511482000000003,0.386691,0.24820662,-0.058589544,6.66,39.6,5.4
1554105361595,5.5641245999999995,-10.319608,-1.4945803999999998,1.4679343999999999,0.23222765,-0.14807177,6.66,37.92,6.36
1554105361616,5.430049400000001,-11.535862,-0.7236475,3.8317563999999997,0.14274544,-0.34727620000000003,6.42,33.54,8.22
1554105361635,5.094861,-11.746552000000001,-0.84335756,5.787582,0.101200126,-0.44528055,6.24,32.16,8.7
1554105361655,5.2768207,-11.325172,-1.3748703000000002,6.794256699999999,0.023435817999999997,-0.572047,6.12,31.92,8.76
1554105361676,5.0421886,-9.649231,-1.5233108,7.4696345,-0.19068234,-0.7488809000000001,5.7,32.7,8.28
1554105361694,5.377377,-9.189544999999999,-0.74758947,7.4504595,-0.22903186,-0.6892261,5.4,34.86,7.02
1554105361715,5.645528,-8.567052,-0.0724246,7.352455,-0.2130529,-0.6679208000000001,5.04,37.68,5.04
1554105361735,5.93762,-8.940548,0.54049104,7.1031832999999995,-0.14913702,-0.6540724,4.74,40.86,2.46
1554105361755,5.080496,-7.0012445,1.3976152,6.686665,-0.16937704,-0.78083885,4.26,44.34,-0.72
1554105361774,5.2528787,-5.0427876,2.0248961,5.779059999999999,-0.25140239999999997,-0.70627034,3.84,47.94,-4.5
1554105361794,5.434838,-3.4674027,2.130241,4.5305696,-0.3536678,-0.62317973,3.42,51.24,-8.58
1554105361814,5.7987566,-2.6868927000000005,2.8101943,2.9071066,-0.42717105,-0.41438788,3.0,53.94,-13.08
1554105361834,6.2057709999999995,-2.9502552000000004,3.7822402000000004,1.3571468999999998,-0.46978164,-0.21731395,2.7,56.1,-17.52
1554105361854,6.4499793,-3.615843,4.4621935,0.19813919,-0.4857606,-0.08628642,2.4,57.12,-21.42
1554105361875,6.588842999999999,-4.1665095999999995,4.835689,-0.5518069999999999,-0.45912898,-0.029827405,2.1,57.54,-24.66
1554105361895,6.732495299999999,-4.204817,4.768651,-0.78296936,-0.44208476,-0.008522116,1.92,57.54,-27.24
1554105361914,6.655881,-3.970185,4.2419267,-1.128115,-0.42077947,0.02130529,1.92,57.24,-29.22
1554105361934,6.5122285,-3.6254199000000003,3.9737763,-1.4231933,-0.4282363,0.054328485999999995,1.8,56.76,-30.6
1554105361954,6.4404025,-3.4195184999999997,3.4183214,-2.0453076,-0.49854377,0.13209279,1.68,56.4,-31.5
1554105361974,6.5026517,-3.8839936,2.6521769,-3.0637007,-0.6317018,0.19600865,1.56,56.04,-31.5
1554105361994,6.947973299999999,-5.1146135,2.3505075,-3.7422739999999997,-0.67537767,0.18535602,1.44,55.74,-30.9
1554105362014,7.4986396,-6.8288617,3.2267854,-3.8615837,-0.572047,0.049002163,1.32,55.62,-29.76
1554105362035,7.393294999999999,-7.709928,4.2610803,-2.9699574,-0.33981937,-0.14807177,1.2,55.74,-28.2
1554105362055,7.192182000000001,-7.9301944,4.4765587,-1.7289241999999998,-0.18216023,-0.26844665,1.08,56.1,-26.4
1554105362074,6.847417,-6.962936999999999,4.136582,-0.67218184,-0.17896444,-0.47404268,1.02,56.4,-24.42
1554105362094,6.50744,-6.1489085999999995,3.5523968,-0.054328485999999995,-0.28016454,-0.5411543000000001,1.02,56.76,-22.38
1554105362115,6.7851677,-5.909488,3.0400376000000002,0.28868666,-0.3685815,-0.5571333,0.96,57.06,-20.4
1554105362135,7.053317999999999,-5.579088700000001,2.843713,0.45593318,-0.406931,-0.5773733,0.96,57.36,-18.72
1554105362154,7.4028716,-5.6844335,2.532467,0.4825648,-0.4314321,-0.62104917,0.9,57.54,-17.4
1554105362175,7.584830800000001,-5.401917500000001,2.594716,0.40586576,-0.43569317,-0.71159667,0.78,57.72,-16.38
1554105362195,7.584830800000001,-5.0284224,2.6569653,0.25033715,-0.4644553,-0.7946873000000001,0.72,57.72,-15.84
1554105362214,7.8050976,-4.894346700000001,2.8820202,0.12996227,-0.46978164,-0.83729786,0.42,57.6,-15.84
1554105362234,8.101977999999999,-4.827309,2.8532897999999998,0.07137272,-0.43249738,-0.87351686,0.06,57.48,-15.84
1554105362255,8.207322999999999,-4.6692919999999996,2.7670987,0.04580637,-0.36112466,-0.87777793,-0.36,57.3,-16.02
1554105362275,8.169016000000001,-4.410718,2.949058,-0.09161274,-0.34088463,-0.8809737,-0.78,57.12,-16.2
1554105362294,8.307879,-4.3197384,2.7000610000000003,-0.27590349999999997,-0.31318775,-0.9086706,-1.2,57.0,-16.38
1554105362314,8.504205,-4.410718,2.6473885,-0.46658584,-0.24501082,-0.9416938,-1.62,56.88,-16.56
1554105362334,8.614338,-4.291008000000001,2.4510639,-0.72437984,-0.13315806,-1.0002834,-2.22,56.7,-16.8
1554105362354,8.762777999999999,-4.109049,2.3409307,-0.9736517,-0.053263225,-1.0290455,-2.76,56.46,-16.8
1554105362375,8.90643,-4.094683600000001,2.1493945,-1.3081448,0.025566347000000003,-1.0301107,-3.18,56.04,-16.68
1554105362394,8.844180999999999,-4.2383356,2.273893,-1.6010925,0.080960095,-0.9981528000000001,-3.48,55.8,-16.62
1554105362414,9.045294,-4.549582,2.2643162999999995,-1.9409119,0.15765914,-0.9214538000000001,-4.14,55.26,-16.56
1554105362435,9.179369,-5.0810947,2.1829132999999996,-2.1337247,0.2609898,-0.83942837,-4.98,54.66,-16.26
1554105362454,9.141062,-5.085883,1.7806876,-2.1369205,0.4250405,-0.69029135,-6.18,53.58,-15.42
1554105362474,9.126697,-5.085883,1.7328035,-2.1081583,0.48149952,-0.5773733,-6.6,53.16,-15.06
1554105362495,8.911219000000001,-5.109825,1.5125369,-2.0112193,0.51984906,-0.40266997,-7.74,51.6,-13.62
1554105362515,8.829816000000001,-5.1146135,1.3497312,-1.9121496999999998,0.5070659000000001,-0.30679616,-8.4,50.58,-12.42
1554105362534,8.987833,-5.1624975,1.2491747,-1.7204021,0.45380265,-0.16298546,-9.0,49.62,-11.16
1554105362555,8.920795,-5.1529207,1.0145429,-1.5094798,0.38349520000000004,-0.083090626,-9.48,48.54,-9.9
1554105362575,9.006986999999999,-5.157709,1.0001777,-1.2495551999999999,0.32277513,-0.03089267,-9.84,47.46,-8.64
1554105362595,8.844180999999999,-5.085883,0.9187749,-0.96619487,0.26844665,0.0,-10.08,46.38,-7.68
1554105362615,8.762777999999999,-4.9518075,0.6075286999999999,-0.75420725,0.221575,0.011717908999999999,-10.38,45.42,-6.84
1554105362634,8.714894000000001,-4.894346700000001,0.6745663000000001,-0.4250405,0.12996227,0.012783173500000002,-10.62,44.52,-6.12
1554105362654,8.7053175,-4.5256395,0.39205053,-0.22477080000000002,0.05965481,0.002130529,-10.8,43.74,-5.4
1554105362675,8.695741,-4.5016975,0.3633201,-0.037284255,0.0053263223,-0.014913702,-10.98,43.08,-4.98
1554105362695,8.6334915,-4.429871599999999,0.23882163,0.111852765,-0.018109497,-0.0063915867,-11.04,42.6,-4.56
1554105362715,8.327033,-4.3436804,0.29149407,0.17896444,-0.023435817999999997,-0.018109497,-11.04,42.24,-4.26
1554105362734,8.212111,-4.0276456,0.05207389,0.20985709,-0.043675844000000005,-0.0010652645,-10.98,42.0,-3.96
1554105362754,8.149861999999999,-3.8744167999999997,-0.014963761,0.16405073,-0.02876214,0.07776430000000001,-10.92,41.88,-3.66
1554105362774,8.269572,-3.8121676,-0.06284779,0.06924219,-0.023435817999999997,0.13635385,-10.86,41.76,-3.54
1554105362795,8.839393,-3.7882257000000004,0.05207389,-0.111852765,-0.01917476,0.1768339,-10.86,41.76,-3.54
1554105362814,9.064447,-3.8696284,-0.18255788,-0.30253512,0.008522116,0.20026971,-10.92,41.82,-3.72
1554105362834,9.457097000000001,-3.8121676,-0.17298107,-0.46339005,0.10439592,0.21731395,-10.92,41.88,-3.84
1554105362855,9.624691,-3.6445735,-0.350152,-0.6540724,0.27057716,0.24607609,-10.98,41.94,-4.02
1554105362875,9.279925,-3.7211879999999997,-0.19692309,-0.9033443000000001,0.35792887,0.24714136,-10.98,42.0,-4.14
1554105362895,9.14585,-3.639785,-0.019752163,-1.1941614,0.36645097,0.21092236,-11.04,42.06,-4.2
1554105362914,9.504980999999999,-3.9270894999999997,0.23403321,-1.4317155000000001,0.34301516,0.18109496,-11.04,42.06,-4.26
1554105362934,9.639056,-3.816956,0.39205053,-1.526524,0.37816888,0.13954964,-11.04,41.94,-4.08
1554105362955,9.682152,-4.185663,0.45429978,-1.5201323999999998,0.45593318,0.09054748,-11.04,41.64,-3.84
1554105362975,9.672575,-4.702811,0.7272388000000001,-1.490305,0.52624065,-0.002130529,-11.04,41.16,-3.54
1554105362995,9.083601,-4.6932339999999995,0.64583594,-1.4253238000000001,0.59228706,-0.1470065,-11.04,40.62,-3.18
1554105363014,8.504205,-4.597466000000001,0.7368156,-1.3198626,0.660464,-0.23861924,-11.1,39.9,-2.7
1554105363034,8.5473,-4.4777555,0.8900445,-1.1494204,0.69774824,-0.24394555,-11.1,39.12,-2.22
1554105363055,8.834603999999999,-4.43466,0.83737206,-1.0098706,0.74675035,-0.20772657,-11.16,38.22,-1.68
1554105363075,9.572019000000001,-4.3963529999999995,0.6314706999999999,-0.9225190000000001,0.82557994,-0.18429075,-11.34,37.14,-1.08
1554105363095,9.916783,-4.3436804,0.44472298,-0.9129315999999998,0.9438243000000001,-0.21624869,-11.52,35.94,-0.6
1554105363115,9.940725,-4.051588,0.023343466,-0.97471696,1.1014834999999998,-0.24181503,-11.76,34.92,-0.24
1554105363135,9.710882000000002,-3.9414546,-0.75716627,-1.1707256000000001,1.3028183999999998,-0.20879184,-12.12,33.9,0.12
1554105363154,9.514558000000001,-3.6254199000000003,-1.240795,-1.5755261,1.4849787,-0.15233281,-12.48,32.76,0.42
1554105363174,8.892064999999999,-3.5152867,-1.2072762,-2.1742048,1.5755261,-0.07669904,-12.96,31.68,0.6
1554105363195,8.887277000000001,-4.123414,-1.0301052,-2.83893,1.5180018,0.053263225,-13.44,30.48,0.72
1554105363214,8.801085,-4.7937902999999995,-0.7380127,-3.4024546,1.4125406999999999,0.18535602,-14.04,29.04,0.84
1554105363235,8.772355000000001,-5.789778,-0.42676646,-3.6900760000000004,1.3124058,0.30786142,-14.76,27.48,0.84
1554105363254,8.006210000000001,-6.3979053,-0.048482585999999994,-3.6581182,1.2655341999999998,0.43249738,-15.9,24.78,0.84
1554105363274,7.6470804,-6.699575,-0.0724246,-3.5356127999999996,1.2420983,0.4825648,-16.26,23.7,0.84
1554105363295,7.350199000000001,-6.7761892999999995,0.24361002,-3.3587787000000002,1.2186625,0.50600064,-16.92,21.42,0.84
1554105363314,6.9527617,-6.8528037,0.42078096,-3.1308122000000003,1.1579423999999998,0.49854377,-17.64,18.96,0.84
1554105363334,6.828263300000001,-6.8288617,0.3633201,-2.8410604,1.1195928999999998,0.5219796,-18.24,16.32,0.84
1554105363355,7.1490865,-6.747458999999999,0.21009120000000003,-2.4245419999999998,1.0897655000000002,0.46658584,-19.02,12.36,0.84
1554105363374,7.153875,-6.7091517000000005,-0.010175358,-2.1198764,1.0887003,0.39308259999999995,-19.26,11.1,0.78
1554105363394,7.005433999999999,-6.8288617,-0.014963761,-1.7012273,1.1089402,0.27696875,-19.74,8.64,0.6
1554105363415,6.5744777,-6.455366000000001,-0.28311434,-1.2634037,1.1110708999999999,0.08841695,-20.34,5.34,0.3
1554105363435,6.493075,-6.096236,-0.5177461,-1.0695255,1.0940266,-0.049002163,-20.76,3.48,0.0
1554105363454,6.244078,-5.9956794,-0.56563014,-1.0162623,1.0354371,-0.15765914,-21.24,1.8,-0.3
1554105363474,6.1770406,-6.1489085999999995,-0.5847838000000001,-1.0130665,0.9672601000000001,-0.22583607,-21.72,0.3,-0.78
1554105363495,6.0908489999999995,-6.187216,-1.2216414,-0.95234644,0.9129315999999998,-0.22477080000000002,-22.2,-1.02,-1.44
1554105363514,6.1243677000000005,-6.4266357,-1.6669630000000002,-0.9715212,0.8223841999999999,-0.18109496,-22.86,-2.34,-2.16
1554105363535,5.7029886,-6.081871,-1.5424645000000001,-1.067395,0.6828345,-0.19281286,-23.4,-3.6,-2.88
1554105363554,5.5162406,-6.0627174,-1.3844471,-1.0950918,0.531567,-0.16405073,-23.94,-4.86,-3.6
1554105363575,5.659893,-6.3548098,-1.3700819,-1.0737866000000003,0.30892670000000005,-0.09374327,-24.42,-6.12,-4.38
1554105363594,6.105214,-6.522404,-1.5759833,-0.97897804,0.099069595,-0.080960095,-24.9,-7.26,-5.16
1554105363615,6.627150500000001,-6.8049197,-1.5328877,-0.83942837,-0.06498113,-0.08735169,-25.26,-8.28,-5.88
1554105363635,6.871359,-6.905475999999999,-1.3317747,-0.6892261,-0.165116,-0.10972224,-25.56,-9.24,-6.48
1554105363654,6.5457472999999995,-6.8767457,-1.2743138,-0.5368933000000001,-0.21198763,-0.16937704,-25.8,-10.14,-6.9
1554105363674,6.291962,-6.795342999999999,-1.1737574,-0.49215218,-0.20559604,-0.20453078,-25.98,-10.86,-7.14
1554105363695,6.253655,-7.092224000000001,-0.8194155000000001,-0.46978164,-0.15552860000000002,-0.29827404,-25.98,-11.4,-7.38
1554105363714,5.9184665999999995,-7.341221000000001,-0.6135142,-0.45380265,-0.07030745599999999,-0.4165184,-26.04,-11.82,-7.5
1554105363734,5.923255,-7.7003509999999995,-0.15382746,-0.38242993,-0.018109497,-0.5592638000000001,-26.04,-12.18,-7.62
1554105363755,6.2009826,-7.939771,0.047285482000000004,-0.2130529,0.013848438000000001,-0.74461985,-25.98,-12.66,-7.74
1554105363774,7.201759,-8.231864,0.21009120000000003,-0.013848438000000001,0.017044231,-0.88843054,-25.98,-13.38,-7.8
1554105363795,8.39886,-8.916606,0.3776853,0.37710363,0.0,-1.1163971000000001,-25.92,-14.16,-7.86
1554105363815,9.514558000000001,-9.132083999999999,0.14305355,0.8447546999999999,0.040480047000000005,-1.2218584,-25.92,-14.94,-7.92
1554105363834,10.184934,-8.839992,-0.17776948,1.4274544,0.13848437,-1.2101405,-25.86,-15.6,-7.92
1554105363854,9.883265,-8.097789,-0.84335756,1.9387813000000003,0.18002969,-1.0684601999999999,-25.8,-16.26,-7.92
1554105363875,9.476251,-7.2215110000000005,-1.192911,2.23599,0.13102753,-0.84368944,-25.74,-16.86,-7.8
1554105363895,9.054871,-6.3548098,-1.1737574,2.3254723999999998,0.008522116,-0.58056915,-25.68,-17.34,-7.68
1554105363914,9.078813,-5.9621606,-1.0444705,2.2722092000000003,-0.17789917,-0.31212249999999997,-25.68,-17.76,-7.5
1554105363935,9.193734,-5.6940102999999995,-1.3700819,2.15503,-0.3323625,-0.098004326,-25.62,-17.82,-7.38
1554105363954,8.805874000000001,-5.1768627,-1.4036007,1.9675435000000001,-0.4261058,0.080960095,-25.62,-17.64,-7.2
1554105363974,8.264783999999999,-4.894346700000001,-1.4945803999999998,1.6309198999999999,-0.46552056,0.27377295,-25.62,-17.22,-7.02
1554105363994,8.164227499999999,-4.6405616,-1.4754268,1.2058792999999999,-0.46871635,0.44954160000000004,-25.56,-16.68,-6.84
1554105364015,8.446744,-4.587889,-1.8680758000000002,0.60933125,-0.40586576,0.6689861,-25.56,-15.78,-6.6
1554105364034,8.7532015,-4.511274299999999,-1.9351135,0.22690132,-0.33981937,0.7861651999999999,-25.56,-15.42,-6.42
1554105364054,8.911219000000001,-4.4059295999999994,-2.03567,-0.30892670000000005,-0.2034655,0.94488955,-25.56,-14.22,-5.82
1554105364075,8.834603999999999,-4.2957964,-2.059612,-0.5550028,-0.13102753,1.0247844000000002,-25.56,-13.86,-5.64
1554105364094,8.51857,-4.4681787,-1.834557,-0.8681905000000001,-0.07030745599999999,1.0801781000000001,-25.56,-12.84,-5.28
1554105364115,8.149861999999999,-4.362833999999999,-1.9590555,-1.1526161,-0.053263225,1.0578076,-25.5,-11.34,-4.8
1554105364134,7.967903,-4.247912400000001,-1.9351135,-1.2857742,-0.05006743,1.026915,-25.38,-10.44,-4.44
1554105364154,8.09719,-4.171298,-1.8010383,-1.3358417,-0.040480047000000005,0.9395633,-25.14,-9.42,-4.2
1554105364175,8.073248,-4.1904516,-1.6286557,-1.3528858,-0.027696876000000002,0.84155893,-24.9,-8.52,-4.02
1554105364195,8.006210000000001,-4.300585,-1.7435773999999997,-1.3635385,-0.01917476,0.7286409,-24.6,-7.68,-3.96
1554105364214,7.7572136,-4.1425676,-1.6669630000000002,-1.361408,0.0053263223,0.5954828000000001,-24.3,-6.96,-3.96
1554105364235,7.465121000000001,-4.228758999999999,-1.4610616,-1.3262542,0.014913702,0.44101948,-24.06,-6.42,-3.96
1554105364254,7.455544000000001,-4.19524,-1.2695253999999998,-1.2186625,0.03195793,0.31638354,-23.76,-6.3,-3.96
1554105364275,7.771578999999999,-4.5160627,-0.86729956,-1.019458,0.07776430000000001,0.19813919,-23.52,-6.42,-3.96
1554105364295,7.8625584,-4.377199,-0.84814596,-0.69987875,0.17150758,0.04580637,-23.34,-6.78,-3.96
1554105364314,8.09719,-4.386776,-0.40761283,-0.32597092,0.257794,-0.094808534,-23.28,-7.26,-3.9
1554105364334,8.164227499999999,-4.5352163,-0.30705637,0.011717908999999999,0.3270362,-0.23116238,-23.28,-7.74,-3.9
1554105364355,8.288725999999999,-4.7123876,-0.20649989,0.2727077,0.36751625,-0.34621096,-23.22,-8.28,-3.84
1554105364375,8.973467999999999,-4.7267528,-0.4842273,0.4857606,0.45699844,-0.43356264,-23.22,-8.82,-3.84
1554105364396,9.706094,-4.5352163,-0.84335756,0.6412892,0.6018744,-0.5368933000000001,-23.28,-9.24,-3.9
1554105364414,10.82658,-4.4538136,-1.2791021999999999,0.6295713000000001,0.7456851,-0.6199839,-23.28,-9.54,-3.96
1554105364435,12.200851,-4.5687356,-1.6047136999999998,0.30786142,0.8926915999999999,-0.78296936,-23.34,-9.72,-4.08
1554105364455,12.751517999999999,-4.7842135,-1.5376761,-0.08841695,0.98856544,-0.97258645,-23.34,-9.84,-4.2
1554105364475,12.885593,-5.061941,-1.4802152,-0.40266997,1.0258497,-1.0492854999999999,-23.52,-9.96,-4.44
1554105364495,11.319786,-5.253476999999999,-1.1115081,-0.7776430000000001,1.0482203,-1.0588728,-23.88,-10.26,-4.98
1554105364515,9.289502,-5.7466826,-0.23044191,-1.0961571,1.0088054,-0.9406285,-24.24,-10.8,-5.64
1554105364534,7.422025,-5.952584,0.4878186,-1.4391723,0.8032094,-0.63702816,-24.6,-11.52,-6.3
1554105364555,6.804321300000001,-5.919065,1.2683283,-1.5797871,0.60507023,-0.314253,-24.96,-12.6,-6.96
1554105364575,7.4603324,-6.282984,1.4598645000000001,-1.5211976999999999,0.45806372,-0.012783173500000002,-25.44,-13.74,-7.74
1554105364595,7.987056699999999,-6.335656,1.3066356000000001,-1.2410331000000001,0.46019423,0.17150758,-25.86,-15.0,-8.52
1554105364615,8.255207,-5.617396,0.86131406,-0.8404937,0.58696073,0.26205507,-26.28,-16.26,-9.42
1554105364634,8.418014,-5.119402,-0.02932897,-0.5368933000000001,0.7222493000000001,0.31957933,-26.52,-17.52,-10.2
1554105364654,8.465898,-4.5926776,-0.76195467,-0.5134575,0.84368944,0.30999196,-26.64,-18.66,-10.74
1554105364675,7.991845,-3.9845502,-1.2503718000000001,-0.83516735,0.91612744,0.25885928,-26.76,-19.5,-11.22
1554105364695,7.513005000000001,-3.9558197999999996,-1.3796587,-1.3624732,0.9129315999999998,0.24927188,-26.88,-20.16,-11.64
1554105364715,7.2927384,-4.540005000000001,-1.0301052,-1.9249328,0.84688526,0.28442562,-27.06,-20.52,-12.36
1554105364735,7.038953,-5.1385555,-0.87208796,-2.2892532,0.7765778,0.3057309,-27.24,-20.88,-13.08
1554105364755,6.684611299999999,-5.6509147,-0.82899237,-2.4756746,0.71798825,0.30253512,-27.48,-21.12,-13.98
1554105364775,6.435614,-5.9956794,-0.82899237,-2.461826,0.68176925,0.26418558,-27.72,-21.48,-14.88
1554105364794,6.047753299999999,-6.431424,-1.0205284,-2.3126889999999998,0.67963874,0.22903186,-28.02,-21.9,-15.78
1554105364814,5.631162000000001,-6.699575,-0.95827925,-2.0666130000000003,0.66579026,0.16405073,-28.26,-22.32,-16.68
1554105364834,5.4922986,-7.1448965,-1.2503718000000001,-1.7235979,0.6306366,0.10652645,-28.5,-22.8,-17.58
1554105364855,5.3582234,-7.3699512,-1.3269863000000002,-1.3550163999999998,0.5422196,0.02130529,-28.68,-23.34,-18.54
1554105364875,5.4779334,-7.5471225,-1.3221979,-0.9757822,0.39308259999999995,-0.025566347000000003,-28.8,-23.88,-19.38
1554105364896,5.779603,-7.685986,-1.4850036,-0.6018744,0.19920446,-0.014913702,-28.92,-24.36,-20.28
1554105364915,6.4260373,-7.566275999999999,-1.7244238,-0.27803403,-0.0031957934000000003,0.039414786,-28.98,-24.84,-20.94
1554105364935,9.41879,-7.743447,-2.356493,0.00958738,-0.15126756,0.09587380000000001,-29.1,-25.2,-21.48
1554105364954,9.902417999999999,-8.677185,-2.509722,0.19813919,-0.19707392,-0.04580637,-29.22,-25.62,-22.08
1554105364974,10.43872,-8.523956,-2.4139538,0.4079963,-0.21837921,-0.1768339,-29.28,-25.92,-22.56
1554105364994,10.160992,-7.901464,-2.9741971,0.65726817,-0.20453078,-0.18961707,-29.4,-26.16,-23.1
1554105365014,8.082825,-6.6229606,-2.9215245,0.8032094,-0.20772657,-0.10439592,-29.52,-26.34,-23.46
1554105365035,6.0956373,-5.579088700000001,-2.2511482000000003,0.7254451,-0.41758367,0.15765914,-29.64,-26.58,-23.76
1554105365055,5.851429,-5.535993,-1.834557,0.55606806,-0.64555025,0.31318775,-29.64,-26.64,-23.76
1554105365075,6.8761472999999995,-5.8903346,-1.5711948999999998,0.41758367,-0.9139969000000001,0.46552056,-29.76,-26.7,-23.58
1554105365094,7.6375036,-6.393117,-1.6478093,0.5763081,-0.95128113,0.50600064,-29.76,-26.52,-23.28
1554105365114,8.226477000000001,-6.6947865,-1.7292121999999999,0.95128113,-0.8085357,0.45486793,-29.76,-26.4,-23.04
1554105365137,9.02614,-6.192004,-2.4762032000000005,1.3933659,-0.44315,0.36645097,-29.7,-25.68,-22.2
1554105365163,8.585608,-5.157709,-2.7587189999999997,1.5009576,-0.23755397,0.3270362,-29.64,-25.14,-21.54
1554105365175,8.2169,-4.6405616,-2.902371,1.3965617000000001,-0.17470337,0.34408042,-29.58,-24.48,-20.88
1554105365195,7.680599000000001,-4.085107,-2.8496985,1.0503508,-0.20240025,0.4133226,-29.52,-23.7,-20.22
1554105365215,7.4028716,-3.946243,-2.3229742,0.56459016,-0.3568636,0.44634579999999996,-29.46,-22.8,-19.62
1554105365235,7.513005000000001,-4.3580456,-2.059612,0.08522116,-0.535828,0.4261058,-29.4,-21.96,-19.08
1554105365255,7.5369470000000005,-4.8656163,-1.5568296999999998,-0.2066613,-0.6242449999999999,0.330232,-29.34,-21.24,-18.66
1554105365274,7.4268136,-5.382764,-0.97264445,-0.21092236,-0.5997439,0.19174760000000002,-29.34,-20.64,-18.3
1554105365294,7.086836999999999,-5.310938,-0.6087258000000001,0.017044231,-0.48149952,0.09267801,-29.34,-20.16,-18.0
1554105365315,6.483498,-4.851251,-0.6326678000000001,0.43888897,-0.27803403,0.060720075,-29.34,-19.56,-17.76
1554105365334,6.2823853,-4.7363295999999995,-0.694917,0.63702816,-0.15552860000000002,0.040480047000000005,-29.28,-19.08,-17.52
1554105365355,6.3829417,-4.3724110000000005,-0.6422445999999999,0.6892261,-0.10439592,-0.039414786,-29.16,-18.66,-17.22
1554105365375,6.5792660000000005,-4.635773,-0.42676646,0.6775081999999999,-0.05219796,-0.16085494,-29.04,-18.36,-16.98
1554105365395,6.794744500000001,-4.6692919999999996,-0.47465047,0.67324716,0.010652645,-0.26312032,-28.92,-18.0,-16.68
1554105365414,6.9719152,-4.7267528,-0.28311434,0.700944,0.2034655,-0.43462790000000007,-28.8,-17.7,-16.32
1554105365434,7.3789296,-4.8081555,-0.350152,0.6711166000000001,0.39627838,-0.5752428,-28.74,-17.46,-16.08
1554105365454,7.398083,-4.7842135,-0.20171149,0.5518069999999999,0.5858955,-0.7105314,-28.68,-17.22,-15.96
1554105365474,7.7428484,-4.8560395,-0.20171149,0.30892670000000005,0.7254451,-0.82557994,-28.62,-17.1,-15.84
1554105365495,7.943961,-5.1002483,0.11432313,0.054328485999999995,0.8309063,-0.9086706,-28.62,-16.98,-15.72
1554105365515,8.6813755,-5.521628,0.34895490000000007,-0.09161274,0.8948221,-0.94275904,-28.68,-16.98,-15.66
1554105365535,9.883265,-6.297349,0.45429978,-0.084155895,0.9715212,-1.0013485999999998,-28.74,-17.22,-15.66
1554105365554,10.692505,-6.503250599999999,0.45908818,0.010652645,1.0535465,-1.1014834999999998,-28.8,-17.7,-15.72
1554105365574,13.359646,-6.8767457,0.3681085,0.11930962,1.0737866000000003,-1.1494204,-28.86,-18.3,-15.96
1554105365595,14.504074,-6.8528037,-0.5847838000000001,0.16831179,1.1110708999999999,-1.2463594999999998,-28.92,-18.9,-16.38
1554105365615,12.799402,-5.6604915,-1.3078326999999998,0.03195793,1.1483551,-1.2634037,-29.04,-19.74,-16.86
1554105365635,10.965444,-5.0523643,-1.3700819,-0.3174488,1.0396981,-1.0887003,-29.1,-20.7,-17.46
1554105365655,8.719683,-4.923076999999999,-0.86251116,-0.8021441,0.82877576,-0.8831041999999999,-29.22,-21.9,-18.18
1554105365675,6.871359,-4.803367,0.037708677,-1.2271847,0.515588,-0.60080916,-29.28,-23.22,-19.02
1554105365694,7.2927384,-4.860828,0.3345897,-1.4476944,0.17150758,-0.25672874,-29.34,-24.42,-19.92
1554105365714,8.48984,-5.3683987,0.3393781,-1.4295848999999998,-0.06498113,0.0,-29.4,-25.32,-20.88
1554105365735,8.686164,-5.2965727,0.43993455,-1.284709,-0.1107875,0.11611383,-29.46,-26.22,-21.72
1554105365755,8.374918,-4.970961,-0.22565351,-1.1185277,-0.068176925,0.20240025,-29.46,-27.12,-22.44
1554105365774,8.51857,-4.4442368,-0.350152,-0.99708754,-0.007456851,0.26525086,-29.46,-27.9,-23.04
1554105365794,8.106767,-3.9797617999999995,-0.27832595,-0.9416938,0.04580637,0.24181503,-29.4,-28.5,-23.64
1554105365815,7.407660000000001,-3.7259765,-0.374094,-0.9576728000000001,0.04580637,0.19813919,-29.4,-28.86,-24.12
1554105365834,6.789956,-3.5775358999999995,-0.36930559999999996,-1.0343717,-0.0010652645,0.16405073,-29.46,-29.28,-24.84
1554105365854,6.569689299999999,-3.4290953,-0.40761283,-1.1781825000000001,-0.02876214,0.12783173,-29.46,-29.52,-25.2
1554105365874,6.4020953,-3.7116113,-0.4842273,-1.4104101999999998,-0.033023197000000004,0.10972224,-29.52,-29.7,-25.5
1554105365894,6.5361705,-4.1760864,-0.31663316,-1.5925703000000002,0.002130529,0.08841695,-29.52,-29.88,-25.8
1554105365914,6.7229185,-4.482544,0.13347675,-1.6490293999999999,0.051132694000000006,0.002130529,-29.58,-30.0,-26.1
1554105365934,6.6654577,-4.5926776,0.0041898529999999995,-1.6106798999999998,0.111852765,-0.10333065,-29.64,-30.18,-26.46
1554105365954,6.6893997,-4.841674299999999,-0.09636662,-1.5084145,0.15765914,-0.2428803,-29.64,-30.36,-26.88
1554105365974,6.789956,-4.947019,-0.3357868,-1.3933659,0.21198763,-0.35153726,-29.7,-30.6,-27.36
1554105365998,6.799533,-5.401917500000001,-0.66618663,-1.2399678,0.25992453,-0.42077947,-29.7,-30.84,-27.78
1554105366015,7.105990400000001,-5.6940102999999995,-1.1737574,-1.1110708999999999,0.27590349999999997,-0.50600064,-29.76,-31.2,-28.26
1554105366035,7.2304892999999995,-5.828085400000001,-1.4993688,-1.0641992,0.2609898,-0.5933523,-29.76,-31.68,-28.74
1554105366055,7.5704656,-6.273407,-1.6238673000000001,-1.0333065000000001,0.21837921,-0.7233145999999999,-29.76,-32.16,-29.28
1554105366074,7.6231384,-6.503250599999999,-1.7483658,-0.90014845,0.18002969,-0.79255676,-29.76,-32.82,-30.0
1554105366094,7.905653999999999,-6.9437833,-1.7292121999999999,-0.66365975,0.17150758,-0.8042746999999999,-29.76,-33.48,-30.78
1554105366116,7.8386164,-7.231087700000001,-1.8680758000000002,-0.257794,0.17470337,-0.78083885,-29.76,-34.2,-31.38
1554105366135,7.987056699999999,-7.1065892999999996,-2.2176294,0.017044231,0.19707392,-0.7552725,-29.76,-34.98,-31.8
1554105366154,8.341399000000001,-6.7187285,-2.4522612,0.13635385,0.21092236,-0.7520766999999999,-29.7,-35.88,-32.16
1554105366174,8.643068,-6.311714,-2.4235306,0.112918034,0.19920446,-0.737163,-29.64,-36.78,-32.52
1554105366195,11.434708,-6.737882000000001,-2.3756466,-0.008522116,0.20026971,-0.6988135,-29.52,-37.68,-32.82
1554105366214,12.430696000000001,-7.6907744000000005,-2.5480292,-0.05539375,0.29827404,-0.78936094,-29.4,-38.7,-33.12
1554105366235,13.857639,-7.872733599999999,-2.260725,0.06604639400000001,0.41864893,-0.85327685,-29.28,-39.54,-33.3
1554105366255,13.64695,-6.9437833,-2.5623944,0.26631612,0.5113269,-0.8159926,-29.1,-40.32,-33.3
1554105366274,11.951855,-6.0148335,-2.3469162,0.48149952,0.56245965,-0.6689861,-28.8,-41.04,-33.42
1554105366295,9.940725,-5.0906715,-1.6765398,0.5603291,0.4079963,-0.4261058,-28.44,-41.7,-33.66
1554105366314,9.179369,-4.3724110000000005,-1.2072762,0.49321744,0.020240024,-0.09267801,-28.08,-42.24,-33.84
1554105366335,9.203311,-3.6349967000000003,-0.56084174,0.5187838,-0.46232477,0.257794,-27.66,-42.66,-34.08
1554105366355,9.629479,-3.4386723,-0.12030864,0.72437984,-0.9310411,0.588026,-27.3,-42.9,-34.26
1554105366374,10.524911,-3.2758665000000002,-0.04369418,1.1227888000000001,-1.3006879,0.8873653,-26.94,-43.02,-34.32
1554105366395,10.984597,-2.8640637000000004,-0.06284779,1.587244,-1.5190671999999998,1.1217233999999998,-26.58,-43.14,-34.26
1554105366414,10.94629,-2.3517046,-0.4985925,2.0122845000000003,-1.6181368,1.3219931999999999,-26.34,-43.08,-33.96
1554105366435,11.372458,-2.0069396,-1.073201,2.2658174,-1.619202,1.5254587,-26.28,-42.9,-33.36
1554105366454,11.549629,-1.5089456,-1.7962499,2.2338595000000003,-1.5286545,1.6618125,-26.46,-42.42,-32.4
1554105366475,11.056422999999999,-1.0013748,-2.0452468,1.937716,-1.3880396000000002,1.7267936000000002,-26.7,-41.58,-31.14
1554105366495,10.223241,-0.8242039000000001,-1.9111716,1.3049488999999999,-1.164334,1.7736653000000002,-27.12,-39.78,-29.04
1554105366515,9.758766,-1.049259,-2.0308816000000003,0.8266452,-1.0439591000000001,1.7470337,-27.3,-39.06,-28.2
1554105366535,9.351752000000001,-1.3221979,-1.8249803,0.19813919,-0.8926915999999999,1.6223978000000001,-27.66,-37.5,-26.52
1554105366554,9.088389,-1.3509283,-1.6861166,-0.4101268,-0.7499462,1.4359765,-28.14,-35.58,-24.9
1554105366575,8.748413000000001,-1.9303252,-1.3413515,-0.9086706,-0.5954828000000001,1.2378373,-28.56,-33.6,-23.58
1554105366595,8.298303,-2.4235306,-1.039682,-1.180313,-0.37923414,1.0002834,-28.98,-30.78,-22.02
1554105366614,8.192958,-2.902371,-0.86251116,-1.1142666,-0.17789917,0.8447546999999999,-29.04,-29.94,-21.66
1554105366634,7.9343843,-3.2231941,-1.4562732,-0.89588743,0.08948222,0.628506,-29.4,-27.78,-20.76
1554105366655,8.010999,-3.117849,-2.1027076,-0.84581995,0.2609898,0.5006742999999999,-29.46,-27.24,-20.52
1554105366674,7.632714999999999,-3.103484,-2.4905684,-0.9150621999999999,0.48149952,0.36964676,-29.64,-26.22,-20.22
1554105366694,7.1873937,-3.3620577000000003,-2.7539306,-0.95660746,0.7137272,0.33981937,-29.7,-25.38,-20.04
1554105366714,6.622362,-3.4913447,-2.6246436,-0.9981528000000001,0.9044095,0.32170987,-29.82,-24.72,-19.86
1554105366735,6.6606693,-3.6924577000000003,-3.0220811000000003,-1.0823087,1.0727214,0.32490566,-29.82,-24.54,-19.8
1554105366755,7.125144500000001,-3.840898,-3.5488055,-1.2271847,1.2602079,0.37071204,-29.88,-24.24,-19.92
1554105366775,7.5321584,-4.152144399999999,-3.7882257000000004,-1.4689997,1.5190671999999998,0.4825648,-30.0,-23.94,-20.1
1554105366795,7.445967,-4.3580456,-4.013280399999999,-1.7214673999999999,1.8482338,0.664725,-30.06,-23.7,-20.58
1554105366815,7.5034279999999995,-4.8081555,-4.243124,-2.0176108,2.1891184,1.0002834,-30.24,-23.34,-21.72
1554105366834,8.034941,-5.205593,-4.1042604,-2.2019017000000005,2.3020365000000003,1.2186625,-30.3,-23.22,-22.2
1554105366854,7.6135616,-5.559935,-3.8983587999999996,-2.4692830000000003,2.3798008,1.5584818999999999,-30.54,-22.74,-23.94
1554105366874,7.5800424,-5.8185085999999995,-3.4961330000000004,-2.606702,2.3659522999999996,1.9259981,-30.78,-22.2,-25.5
1554105366896,10.026916499999999,-5.8089319999999995,-3.5488055,-2.5853968,2.4234767,2.3425164,-31.08,-21.3,-27.24
1554105366914,11.927913,-5.9047,-5.3540335,-2.4873924,2.755839,2.466087,-31.38,-20.04,-28.92
1554105366934,12.124236999999999,-6.5990186,-6.120178,-2.6567695,3.1329427000000005,2.150769,-31.62,-18.42,-30.66
1554105366955,12.751517999999999,-7.116166000000001,-5.938218599999999,-2.9656963,3.2682314,1.6362462,-31.86,-16.38,-32.46
1554105366975,12.703634,-7.8152729999999995,-5.21517,-3.1201596,3.0786142000000005,0.9651296,-31.92,-13.98,-34.32
1554105366994,11.003751,-8.404246,-3.4243068999999995,-3.045591,2.606702,0.27057716,-31.68,-11.34,-36.06
1554105367015,7.4124484,-9.074622999999999,-0.694917,-2.6375947,1.9430424,-0.25246766,-31.26,-8.58,-37.68
1554105367035,5.12838,-9.065046,-0.08200141,-1.6074841,1.2772521000000001,-0.45486793,-30.72,-5.82,-39.12
1554105367054,4.4915223,-8.705916,-0.8146270999999999,-0.809601,1.180313,-0.46765109999999993,-30.06,-3.42,-40.38
1554105367075,4.2425256,-8.169615,-2.0404584,0.22050974,1.2953615,-0.48043427,-29.4,-1.5,-41.64
1554105367094,5.616797,-7.269394999999999,-2.959832,0.78936094,1.4359765,-0.40266997,-28.68,0.06,-42.78
1554105367115,5.377377,-5.7849900000000005,-3.7978023999999997,0.77125144,1.6405072,-0.28442562,-27.96,1.14,-43.68
1554105367136,5.027823400000001,-5.0236335,-3.8025907999999995,0.33875409999999995,1.73212,-0.08841695,-27.3,1.74,-44.52
1554105367155,4.4675803,-4.329315,-3.9223008000000004,0.041545313,1.8173412,0.12676647,-26.88,1.98,-45.24
1554105367174,4.1946416,-3.9893386,-3.7020345,-0.27803403,1.937716,0.44954160000000004,-26.4,2.04,-46.08
1554105367195,4.5298295,-4.540005000000001,-3.2998084999999997,-0.76272935,1.9952403000000003,0.62104917,-25.92,1.92,-47.04
1554105367215,4.9799394999999995,-4.611831,-3.0843303,-1.0982877,1.9803267,0.5550028,-25.14,1.74,-48.0
1554105367234,4.9224787,-4.554370400000001,-2.7970262000000004,-1.3369069,1.9739349999999998,0.44315,-24.3,1.62,-49.02
1554105367254,4.999093,-4.544793599999999,-2.782661,-1.4988271,1.9856528999999998,0.35473305,-23.52,1.74,-50.04
1554105367275,5.233725,-4.511274299999999,-2.8353333,-1.6053536,2.0048277,0.30466563,-22.74,2.34,-51.0
1554105367295,5.765238,-4.6501384,-2.926313,-1.8290591,1.9675435000000001,0.2790993,-21.9,3.3,-51.84
1554105367314,5.951985400000001,-4.980538,-2.7730842,-2.1326593999999996,1.9036276,0.19068234,-21.0,4.5,-52.62
1554105367334,6.363788,-5.497685400000001,-2.6964695,-2.3787355,1.8066885,0.05965481,-19.98,6.12,-53.16
1554105367355,6.794744500000001,-6.1153900000000005,-2.7539306,-2.4671526000000004,1.7172063999999998,-0.058589544,-18.9,7.98,-53.46
1554105367375,7.240066000000001,-6.795342999999999,-2.9311013,-2.4426514999999998,1.6447683999999998,-0.10333065,-18.0,10.14,-53.64
1554105367394,7.61835,-7.269394999999999,-3.141791,-2.2391857999999996,1.5893745000000001,-0.07456851,-16.98,12.54,-53.58
1554105367415,7.824250999999999,-7.6189485,-3.2040405,-1.933455,1.4956313,0.0031957934000000003,-15.96,14.94,-53.46
1554105367435,7.603985000000001,-7.7386584,-2.5240872000000003,-1.6234629999999999,1.2761868,0.10759171,-14.82,17.04,-53.28
1554105367455,7.2209125,-7.1353197,-2.3517046,-1.3337111000000001,0.99495703,0.30466563,-13.62,19.2,-53.04
1554105367474,7.273585000000001,-6.579865,-2.677316,-1.1430287000000001,0.7435546,0.628506,-12.54,21.24,-52.68
1554105367494,7.7093296,-6.843227000000001,-3.0029275,-1.139833,0.58483016,0.9171927,-11.58,23.1,-52.2
1554105367515,7.6135616,-7.436989,-3.2662897,-1.2261194,0.5454154,1.0120013,-10.86,24.78,-51.66
1554105367534,8.020576,-7.5950065,-3.256713,-1.2112056999999998,0.5954828000000001,1.0162623,-10.08,26.46,-51.12
1554105367554,8.269572,-7.705139599999999,-3.3764230000000004,-1.0759171,0.70200926,0.97258645,-9.42,27.96,-50.52
1554105367575,8.101977999999999,-7.599794999999999,-3.9510313999999997,-0.9129315999999998,0.86392945,0.9054747999999999,-8.7,29.52,-49.98
1554105367595,8.169016000000001,-7.729081599999999,-4.563947,-0.9150621999999999,1.0418286,0.8628642,-7.8,31.14,-49.38
1554105367615,8.528147,-8.476072,-5.6221843,-1.1579423999999998,1.2325108999999999,0.66365975,-7.14,32.58,-48.78
1554105367635,8.882488,-9.0842,-6.096236,-1.5073493,1.442368,0.3174488,-6.3,33.9,-48.24
1554105367655,7.953538000000001,-9.318831,-5.875969400000001,-1.7204021,1.6128103999999999,-0.014913702,-4.98,35.82,-47.34
1554105367674,7.2113357,-9.371504,-5.6987987,-1.7971011000000001,1.7172063999999998,-0.22903186,-4.56,36.48,-46.92
1554105367694,5.865794,-8.940548,-5.0427876,-1.7960359000000001,1.7182716,-0.33875409999999995,-3.36,38.46,-45.6
1554105367715,4.984728,-8.519167999999999,-4.3580456,-1.6990968000000002,1.5851135,-0.3291667,-2.7,39.72,-44.64
1554105367735,4.4149080000000005,-8.404246,-3.9318779000000004,-1.582983,1.4157364,-0.28975195,-2.22,40.92,-43.44
1554105367754,4.2999864,-8.332419999999999,-4.0420110000000005,-1.4136058999999999,1.2804478000000001,-0.28122982,-1.8,42.12,-42.24
1554105367774,3.9600096,-8.040328,-3.8217443999999996,-1.2676646999999999,1.2293152,-0.28336033,-1.62,42.72,-41.64
1554105367795,3.6200330000000003,-7.796119,-3.6541502,-1.0950918,1.1771171999999999,-0.23009712,-1.2,44.58,-39.78
1554105367815,3.5051112,-7.6189485,-3.6541502,-1.0141318000000001,1.1408982,-0.11930962,-0.9,45.72,-38.76
1554105367834,3.4093432,-7.480085000000001,-3.8313212,-0.9331716999999998,1.1227888000000001,-0.0010652645,-0.6,46.68,-37.86
1554105367855,3.6583402,-7.5758529999999995,-4.1282024,-0.8767126000000001,1.099353,0.12357068,-0.36,47.4,-37.02
1554105367875,4.0701427,-7.5519110000000005,-4.1904516,-0.8479504999999999,1.1036139999999999,0.18216023,-0.06,48.06,-36.12
1554105367895,4.4915223,-7.4274119999999995,-4.745906400000001,-0.7701861999999999,1.1632688,0.28122982,0.18,48.54,-35.4
1554105367915,4.8506527,-7.2885485,-4.6405616,-0.6221144000000001,1.2868395000000001,0.48043427,0.48,48.84,-34.68
1554105367935,5.0086699999999995,-7.355586,-4.9996915,-0.5773733,1.3582121999999999,0.60720074,0.84,49.14,-33.9
1554105367955,5.3821654,-7.389105000000001,-5.0140567,-0.67218184,1.4157364,0.78936094,1.32,49.38,-33.18
1554105367974,5.2863975,-7.0874357,-4.7123876,-0.76059884,1.4082796999999998,0.87351686,1.68,49.68,-32.46
1554105367994,5.2528787,-7.2741833,-4.1282024,-0.90654004,1.3102753,1.0279802,2.1,50.04,-31.86
1554105368015,5.272032299999999,-7.341221000000001,-3.793014,-1.0290455,1.2090752,1.1430287000000001,2.52,50.4,-31.32
1554105368035,5.142745,-7.6333137,-3.2184057,-1.1653993,1.1387677,1.2037488,3.0,50.82,-30.9
1554105368054,5.1762643,-7.973290400000001,-2.7778726000000002,-1.2218584,1.0972224,1.2325108999999999,3.72,51.3,-30.54
1554105368075,4.9895163,-8.102577,-2.2080526000000003,-1.196292,1.1057445,1.2069446000000001,4.62,51.78,-30.12
1554105368094,5.329493,-8.188768,-1.9973627,-1.1185277,1.135572,1.135572,5.4,52.2,-29.58
1554105368114,5.7700260000000005,-8.69155,-2.212841,-1.0620687,1.2261194,0.9587379999999999,6.12,52.62,-28.86
1554105368135,5.889736,-8.835203,-1.834557,-1.0887003,1.2942963,0.753142,6.96,52.98,-27.96
1554105368155,5.674258,-8.93576,-1.5568296999999998,-1.180313,1.2900352,0.5422196,7.8,53.34,-27.0
1554105368175,5.0134583,-9.596559,-1.1737574,-1.3624732,1.1622036,0.23648871,8.64,53.7,-25.98
1554105368195,4.0845080000000005,-10.089765,-1.2455834,-1.6170714,0.96086854,-0.14594123,9.48,53.94,-24.72
1554105368215,3.2752678,-10.563816000000001,-1.2503718000000001,-1.9217370999999999,0.7595335999999999,-0.5230448000000001,10.02,54.12,-23.46
1554105368234,2.882619,-10.693104,-1.1306617,-2.1060277999999997,0.57098174,-0.74461985,10.38,54.3,-22.26
1554105368254,3.2273839,-10.6117,-0.7236475,-1.8269285,0.44847634,-0.74248934,10.62,54.42,-21.18
1554105368274,3.6248214,-10.592546,-0.7140707,-1.0844392,0.38775626,-0.59761333,10.8,54.6,-20.16
1554105368295,3.7158010000000004,-10.525509,-1.240795,-0.047936900000000005,0.36751625,-0.38136467,10.86,54.66,-19.26
1554105368314,3.466804,-9.433753,-1.9925743000000002,1.0034790999999998,0.37071204,-0.13315806,10.74,54.72,-18.24
1554105368335,3.5577837999999997,-8.413822999999999,-2.4570496,1.6415724999999999,0.31957933,0.083090626,10.56,54.66,-17.28
1554105368355,3.7110126000000005,-7.5136037,-2.9311013,1.7885790000000001,0.23648871,0.27483824,10.26,54.66,-16.56
1554105368377,4.228160400000001,-7.0251865,-3.127426,1.6064188,0.17363810000000002,0.4314321,9.96,54.6,-16.02
1554105368398,4.6878470000000005,-6.589442,-3.0891187,0.62744075,0.040480047000000005,0.6689861,9.54,54.54,-15.54
1554105368415,4.644751,-6.3883285999999995,-2.6629508,0.16405073,0.008522116,0.71479243,9.3,54.54,-15.6
1554105368435,4.8506527,-6.9437833,-2.1745335999999997,-0.31318775,-0.023435817999999997,0.7339671999999999,9.24,54.48,-15.84
1554105368454,5.0613421999999995,-7.3364325,-1.9925743000000002,-0.5518069999999999,-0.040480047000000005,0.6530071,9.3,54.48,-16.26
1554105368475,5.1906295,-7.436989,-1.738789,-0.58696073,-0.05752428,0.5209143,9.42,54.42,-16.8
1554105368495,5.0757074,-7.5950065,-1.3700819,-0.4889564,-0.13954964,0.38456047,9.66,54.42,-17.22
1554105368514,5.018246700000001,-7.820061,-1.2503718000000001,-0.4016047,-0.23968449999999997,0.26205507,9.84,54.42,-17.46
1554105368536,4.783615,-7.958925,-1.1833341999999998,-0.23329292,-0.42717105,0.040480047000000005,10.38,54.42,-17.82
1554105368556,4.5777135,-8.198345,-0.96306765,-0.08628642,-0.5763081,-0.16618125,10.74,54.42,-17.88
1554105368574,4.673482,-8.231864,-0.9151836,0.10759171,-0.7030744999999999,-0.39201729999999996,11.04,54.42,-17.82
1554105368594,4.941632299999999,-8.54311,-0.9391255999999999,0.32384038,-0.7861651999999999,-0.49321744,11.28,54.42,-17.64
1554105368615,5.248090299999999,-8.619724,-1.073201,0.49534798,-0.813862,-0.64341974,11.4,54.36,-17.46
1554105368635,5.7843914000000005,-8.7538,-1.5376761,0.59228706,-0.79681784,-0.78723043,11.58,54.36,-17.28
1554105368654,6.244078,-8.705916,-1.9590555,0.65726817,-0.7254451,-0.8383630999999999,11.7,54.3,-17.16
1554105368675,6.1770406,-8.552686999999999,-2.1745335999999997,0.67218184,-0.67324716,-0.81705785,11.76,54.3,-17.1
1554105368695,6.0381765,-8.294113000000001,-2.2655133999999997,0.56885123,-0.67537767,-0.6892261,11.82,54.24,-17.22
1554105368715,6.042965000000001,-7.834426400000001,-2.4091654,0.40586576,-0.73822826,-0.5475459,11.82,54.24,-17.4
1554105368734,6.191406,-7.839214999999999,-2.2703017999999995,0.36218992,-0.7595335999999999,-0.47510794,11.7,54.18,-17.64
1554105368755,6.2632318,-7.681197599999999,-2.4762032000000005,0.41119209999999995,-0.73609775,-0.406931,11.4,54.24,-17.88
1554105368775,6.1578870000000006,-7.5566993,-2.6485856,0.53795856,-0.6593986999999999,-0.33981937,11.04,54.24,-18.24
1554105368794,6.2105594,-7.5758529999999995,-2.7730842,0.67005134,-0.58269966,-0.23009712,10.68,54.3,-18.66
1554105368814,6.009446,-7.379528,-3.0699651,0.6743124,-0.5496765,-0.15978967,10.26,54.3,-19.08
1554105368835,6.023811299999999,-7.269394999999999,-3.5152867,0.5944176,-0.52624065,-0.04474111,9.78,54.3,-19.56
1554105368855,6.05733,-7.0874357,-3.840898,0.40266997,-0.5113269,0.06711166,9.3,54.36,-20.04
1554105368874,5.90889,-7.149685000000001,-3.6733038000000002,0.09161274,-0.5028047999999999,0.14061491,8.88,54.36,-20.52
1554105368895,5.760449400000001,-7.331644,-3.3955764999999998,-0.09161274,-0.5091964,0.15552860000000002,8.58,54.36,-20.94
1554105368916,5.683835,-7.5375457,-3.4003648999999996,-0.10972224,-0.5113269,0.15339808,8.4,54.36,-21.3
1554105368936,5.6407394,-7.5758529999999995,-3.3764230000000004,-0.00958738,-0.5134575,0.14594123,8.34,54.24,-21.66
1554105368955,5.2863975,-7.5136037,-3.4243068999999995,0.14168017,-0.51026165,0.12570119999999999,8.28,54.06,-21.84
1554105368974,5.1762643,-7.4322004,-3.7594953,0.25140239999999997,-0.49747851,0.10546118,8.22,53.76,-22.02
1554105368994,5.1475334,-7.4322004,-3.8361096,0.27803403,-0.47510794,0.06178534,8.22,53.4,-22.08
1554105369014,4.975151,-7.4561424,-4.032433999999999,0.25246766,-0.47297743,0.0010652645,8.28,52.98,-22.08
1554105369035,5.0086699999999995,-7.4992385,-4.0037036,0.19707392,-0.46871635,-0.020240024,8.22,52.56,-22.08
1554105369055,4.9943047,-7.566275999999999,-4.2814309999999995,0.13741912,-0.45806372,-0.033023197000000004,8.22,52.14,-22.02
1554105369074,4.984728,-7.882310400000001,-4.252701,0.083090626,-0.44101948,-0.024501082,8.22,51.72,-22.02
1554105369095,5.1475334,-8.088212,-4.137779,0.03089267,-0.45167214,-0.011717908999999999,8.22,51.42,-22.08
1554105369114,4.941632299999999,-8.15525,-4.0276456,0.05539375,-0.49108690000000005,0.007456851,8.22,51.3,-22.08
1554105369135,4.8362875,-8.15525,-4.022857,0.17470337,-0.5390238,0.06391586,8.28,51.36,-22.2
1554105369155,4.8506527,-8.112153999999999,-3.9989154,0.314253,-0.5550028,0.12783173,8.4,51.54,-22.32
1554105369175,5.0613421999999995,-8.160038,-3.912724,0.4079963,-0.54435015,0.17150758,8.52,51.78,-22.38
1554105369194,5.233725,-7.9876556,-3.9031472000000003,0.44528055,-0.49534798,0.1949434,8.7,52.08,-22.5
1554105369214,5.1666875,-7.6572556,-4.0994720000000004,0.42184472,-0.43036684,0.23222765,8.88,52.38,-22.62
1554105369234,5.1523223,-7.6093717000000005,-4.147355999999999,0.30253512,-0.37710363,0.27057716,9.06,52.68,-22.8
1554105369256,5.1092260000000005,-7.6285253,-4.147355999999999,0.112918034,-0.33768883,0.30360037,9.24,52.92,-22.92
1554105369274,5.171476,-7.911041,-4.0084919999999995,-0.05006743,-0.28549087,0.37071204,9.54,53.16,-23.16
1554105369294,5.195418,-8.045116,-3.6062663,-0.084155895,-0.26312032,0.38242993,9.78,53.22,-23.34
1554105369315,5.080496,-8.06427,-3.5679589999999997,-0.027696876000000002,-0.25672874,0.38242993,9.96,53.28,-23.52
1554105369334,5.133168,-8.212710000000001,-3.591901,0.04474111,-0.24927188,0.37923414,10.14,53.28,-23.64
1554105369354,4.960786,-7.949348,-3.4099417,0.09267801,-0.23861924,0.38029942,10.32,53.16,-23.82
1554105369374,4.7405194999999996,-8.040328,-3.1561562999999997,0.10972224,-0.25033715,0.40373522,10.56,53.04,-23.94
1554105369395,4.6255975,-8.169615,-3.0029275,0.10226539,-0.257794,0.406931,10.74,52.98,-24.06
1554105369415,4.692635500000001,-8.212710000000001,-2.8688521000000002,0.1107875,-0.24394555,0.39308259999999995,10.92,52.86,-24.18
1554105369434,4.663905000000001,-8.179192,-2.8401217,0.1438107,-0.18535602,0.38882150000000004,11.1,52.8,-24.24
1554105369454,4.76925,-8.284536,-3.007716,0.16405073,-0.08735169,0.38456047,11.16,52.74,-24.3
1554105369474,4.8362875,-8.116942,-3.1896752999999998,0.14487597,0.029827405,0.34940675,11.22,52.68,-24.36
1554105369495,4.855441000000001,-8.078635,-3.4243068999999995,0.058589544,0.12250541,0.32490566,11.4,52.68,-24.42
1554105369515,4.582502,-8.083424,-3.4674027,-0.098004326,0.17470337,0.28868666,11.64,52.68,-24.48
1554105369535,4.314351599999999,-8.073847,-3.1657330000000004,-0.21837921,0.16085494,0.24927188,11.88,52.74,-24.54
1554105369555,3.9360676,-8.107366,-3.0268695,-0.26738137,0.11611383,0.20240025,12.18,52.74,-24.54
1554105369575,3.7636849999999997,-8.30369,-2.9311013,-0.2695119,0.060720075,0.16085494,12.3,52.74,-24.54
1554105369594,3.7205894,-8.389880999999999,-2.7682957999999998,-0.20985709,-0.034088463,0.06391586,12.66,52.74,-24.6
1554105369614,3.6535518,-8.533533,-2.6868927000000005,-0.113983296,-0.101200126,-0.0031957934000000003,12.9,52.74,-24.6
1554105369635,3.6152446000000005,-8.72507,-2.6150667999999997,0.047936900000000005,-0.13954964,-0.05539375,13.14,52.8,-24.54
1554105369655,3.7158010000000004,-8.744224,-2.926313,0.22583607,-0.13635385,-0.07776430000000001,13.32,52.8,-24.54
1554105369676,3.6822822,-8.686762,-3.3764230000000004,0.33129725,-0.10865697,-0.06711166,13.44,52.74,-24.54
1554105369694,3.6008794,-8.552686999999999,-3.3141737,0.28975195,-0.101200126,-0.03195793,13.56,52.74,-24.54
1554105369714,3.3901896000000002,-8.45213,-3.4626143,0.165116,-0.10759171,0.034088463,13.62,52.68,-24.54
1554105369735,3.3566709,-8.581417,-3.2615013,0.043675844000000005,-0.111852765,0.09587380000000001,13.74,52.68,-24.48
1554105369754,3.2513257999999996,-8.576628999999999,-3.2279825,0.008522116,-0.094808534,0.13741912,13.8,52.62,-24.48
1554105369775,3.2225955,-8.638878,-3.1322143,0.056459017,-0.07882957,0.21198763,13.86,52.56,-24.42
1554105369795,3.098097,-8.672397,-3.2902317,0.083090626,-0.09161274,0.25246766,13.92,52.5,-24.42
1554105369815,3.1028854999999997,-8.533533,-3.4243068999999995,0.03834952,-0.12570119999999999,0.28868666,13.98,52.5,-24.42
1554105369834,2.9640217,-8.428188,-3.6445735,-0.060720075,-0.15233281,0.30146983,13.98,52.44,-24.36
1554105369854,3.0502129,-8.595782,-3.5631707,-0.16831179,-0.18748654,0.30999196,14.04,52.44,-24.36
1554105369875,3.1172507,-8.696339,-3.3237504999999996,-0.23329292,-0.22583607,0.32170987,14.16,52.5,-24.3
1554105369895,3.0023289,-8.696339,-3.2279825,-0.20453078,-0.2609898,0.34621096,14.4,52.5,-24.36
1554105369915,2.8443117,-8.595782,-2.8544869999999998,-0.10439592,-0.28655612,0.38349520000000004,14.64,52.44,-24.36
1554105369935,2.873042,-8.404246,-3.1896752999999998,-0.02876214,-0.314253,0.37284255,14.94,52.44,-24.36
1554105369955,2.9352913,-8.313267,-3.1848867000000003,-0.002130529,-0.30999196,0.330232,15.24,52.44,-24.36
1554105369976,2.8778305,-8.160038,-3.1561562999999997,-0.011717908999999999,-0.25246766,0.26631612,15.54,52.38,-24.36
1554105369995,2.8203697,-8.069058,-3.4721910000000005,-0.060720075,-0.16937704,0.18322548,15.84,52.38,-24.36
1554105370014,2.60968,-8.212710000000001,-3.5009214999999996,-0.14913702,-0.094808534,0.082025364,16.14,52.32,-24.42
1554105370034,2.5474305,-8.428188,-3.888782,-0.26312032,-0.05006743,-0.04474111,16.26,52.26,-24.48
1554105370055,2.336741,-8.81605,-3.8983587999999996,-0.3536678,-0.06604639400000001,-0.1470065,16.32,52.26,-24.48
1554105370075,2.4660277,-9.299678,-4.0420110000000005,-0.37923414,-0.12144015,-0.18855181,16.44,52.2,-24.48
1554105370095,2.5809495,-9.869498,-4.013280399999999,-0.29188246,-0.22690132,-0.20559604,16.44,52.2,-24.48
1554105370114,2.7150247000000003,-9.816825999999999,-3.7738605000000005,-0.10759171,-0.35153726,-0.17363810000000002,16.5,52.2,-24.48
1554105370135,2.9209259999999997,-9.730635000000001,-3.912724,0.12676647,-0.46125950000000004,-0.098004326,16.5,52.2,-24.48
1554105370155,3.2130187,-9.668385,-4.1138372,0.30466563,-0.5368933000000001,-0.049002163,16.5,52.14,-24.48
1554105370174,3.2082303,-9.333197,-4.147355999999999,0.32384038,-0.53476274,-0.051132694000000006,16.5,52.14,-24.48
1554105370194,3.1364042999999997,-9.146449,-4.1042604,0.29507825,-0.5123922000000001,-0.043675844000000005,16.5,52.14,-24.48
1554105370216,2.873042,-8.744224,-3.7786489000000003,0.18535602,-0.49002165,0.011717908999999999,16.5,52.14,-24.48
1554105370234,2.834735,-8.710705,-3.6349967000000003,0.10013486,-0.50813115,0.047936900000000005,16.5,52.14,-24.54
1554105370254,2.8491,-8.629301,-3.3907879999999997,0.02876214,-0.5230448000000001,0.06924219,16.5,52.14,-24.6
1554105370275,3.1028854999999997,-8.5143795,-3.7020345,0.026631612000000002,-0.5049353,0.036218993,16.44,52.14,-24.78
1554105370294,3.098097,-8.385093,-3.7738605000000005,0.07669904,-0.46978164,-0.040480047000000005,16.38,52.08,-24.96
1554105370314,2.96881,-8.45213,-4.0420110000000005,0.16405073,-0.45060685,-0.14274544,16.32,52.02,-25.14
1554105370336,2.791639,-8.385093,-4.329315,0.22264028,-0.4708469,-0.24714136,16.32,51.9,-25.44
1554105370354,2.681506,-8.385093,-4.482544,0.23755397,-0.49960902,-0.2727077,16.38,51.9,-25.56
1554105370375,2.4420857000000002,-8.69155,-4.659715,0.25246766,-0.6040049,-0.294013,16.38,51.78,-26.04
1554105370394,2.5617957000000002,-8.911817999999998,-4.7363295999999995,0.23116238,-0.69774824,-0.26205507,16.38,51.72,-26.28
1554105370415,2.4516625,-8.811261,-4.76506,0.20772657,-0.79255676,-0.23222765,16.44,51.72,-26.58
1554105370434,2.2888567,-8.744224,-4.611831,0.22903186,-0.902279,-0.18855181,16.44,51.66,-26.94
1554105370454,2.2361843999999995,-8.849568,-4.559158999999999,0.31212249999999997,-1.0301107,-0.14594123,16.44,51.66,-27.3
1554105370474,2.3080103,-8.892664,-4.6980224,0.36218992,-1.1121361,-0.13848437,16.38,51.66,-27.66
1554105370495,1.9440918000000003,-8.600571,-4.2814309999999995,0.35899413,-1.1888351000000001,-0.12463594,16.32,51.72,-27.96
1554105370515,1.9345150000000002,-8.686762,-4.348469000000001,0.30040458,-1.2665993999999998,-0.06711166,16.2,51.78,-28.26
1554105370534,1.8866308999999997,-9.361927,-4.2814309999999995,0.15446335,-1.2868395000000001,-0.020240024,15.96,51.78,-28.56
1554105370554,1.5945383,-9.606135,-4.3101616,0.10333065,-1.2793826000000001,-0.05219796,15.72,51.78,-28.86
1554105370575,1.3072342,-9.840767999999999,-4.353257,0.083090626,-1.320928,-0.10013486,15.42,51.78,-29.16
1554105370594,1.1587936,-9.998785,-4.3724110000000005,0.12463594,-1.3773868999999999,-0.13741912,15.18,51.72,-29.52
1554105370614,1.13964,-10.305242999999999,-3.970185,0.257794,-1.474326,-0.16937704,14.88,51.6,-29.94
1554105370635,1.0582372,-10.333973,-3.6685154000000004,0.54435015,-1.551025,-0.18642128,14.46,51.54,-30.54
1554105370655,0.91458505,-10.286089,-3.4913447,0.79681784,-1.5563513999999998,-0.16618125,13.92,51.42,-31.14
1554105370674,1.067814,-9.917382,-3.342904,0.96939063,-1.5446335,-0.16405073,13.32,51.3,-31.8
1554105370695,1.1827357,-9.366715,-3.208829,1.0961571,-1.4998924,-0.18002969,12.9,51.24,-32.52
1554105370715,1.0534488000000002,-8.796896,-3.0125043,1.1579423999999998,-1.4306501,-0.20026971,12.42,51.12,-33.18
1554105370735,1.0582372,-8.30369,-2.806603,1.1185277,-1.3731258999999998,-0.20453078,12.0,50.94,-33.96
1554105370755,1.3263878,-8.083424,-2.9119477000000002,0.9981528000000001,-1.3337111000000001,-0.21092236,11.46,50.58,-34.8
1554105370775,1.3838485,-7.6524673,-2.4762032000000005,0.8809737,-1.2900352,-0.25885928,10.92,50.04,-35.76
1554105370795,1.3694833999999998,-7.317278999999999,-2.0117279999999997,0.7755125,-1.2463594999999998,-0.314253,10.5,49.38,-36.6
1554105370815,1.7764976000000003,-7.269394999999999,-1.6095021,0.7339671999999999,-1.1622036,-0.40373522,10.14,48.72,-37.44
1554105370835,1.8722657,-6.9677253,-1.1450268999999997,0.7499462,-0.95234644,-0.55606806,9.72,48.06,-38.22
1554105370855,2.1452047999999997,-6.9820905,-1.1785458,0.721184,-0.71479243,-0.78936094,9.3,47.34,-39.06
1554105370875,2.3798366,-7.029975,-1.3174095,0.5997439,-0.48682585,-1.0599382,8.64,46.62,-39.96
1554105370895,2.7150247000000003,-7.5519110000000005,-1.6382325,0.40373522,-0.2727077,-1.2580773,7.92,45.9,-40.86
1554105370914,2.7006595,-7.872733599999999,-1.2551602,0.25140239999999997,-0.09054748,-1.3646038,7.14,45.18,-41.64
1554105370934,3.1507695,-8.021174,-1.8297686999999998,0.1768339,0.07563378,-1.3954965,6.3,44.58,-42.12
1554105370955,3.9408559999999997,-8.385093,-2.0931308,-0.023435817999999997,0.2428803,-1.4029533,5.52,43.98,-42.66
1554105370974,4.3526587,-8.839992,-2.7682957999999998,-0.39308259999999995,0.36964676,-1.4274544,4.8,43.38,-43.2
1554105370995,4.247314,-9.050680999999999,-2.5432408,-0.8767126000000001,0.4314321,-1.4551512,4.02,42.78,-43.68
1554105371015,3.8355112,-8.653243,-2.4762032000000005,-1.1590078000000001,0.37390783,-1.4753913,3.24,42.24,-44.16
1554105371034,4.1611223,-9.122507,-2.5240872000000003,-1.2474246999999998,0.23222765,-1.4231933,2.46,41.7,-44.46
1554105371054,5.12838,-9.821614,-2.9741971,-1.026915,0.08522116,-1.4998924,1.5,41.28,-44.7
1554105371075,5.2049947,-9.941324,-3.1657330000000004,-0.68389976,0.03834952,-1.567004,1.2,41.22,-44.64
1554105371094,5.1571107000000005,-9.821614,-3.0268695,-0.15446335,-0.03834952,-1.6117451,0.6,41.28,-44.4
1554105371114,5.329493,-9.77373,-3.1657330000000004,0.27377295,-0.18322548,-1.6447683999999998,-0.12,41.46,-44.16
1554105371135,5.2624555,-9.390657000000001,-3.6445735,0.5251754,-0.41438788,-1.5286545,-1.26,41.64,-43.62
1554105371155,5.257667,-8.868722,-3.9749733999999997,0.5006742999999999,-0.5571333,-1.397627,-1.74,41.76,-43.32
1554105371174,5.2002063,-8.696339,-3.888782,0.30679616,-0.75420725,-1.1675298,-3.06,41.82,-43.02
1554105371195,5.363012,-8.835203,-4.0084919999999995,0.15765914,-0.85540736,-0.98110855,-3.78,41.58,-42.78
1554105371215,5.3678,-8.950125,-3.5009214999999996,0.18002969,-0.90014845,-0.81918836,-4.56,41.16,-42.54
1554105371234,5.248090299999999,-8.729858,-3.2184057,0.31851408,-0.9438243000000001,-0.6583334,-5.28,40.56,-42.54
1554105371255,5.3103394999999995,-8.595782,-3.6493617999999994,0.46339005,-0.9960223,-0.46232477,-6.0,39.78,-42.6
1554105371275,5.635950599999999,-8.447341999999999,-3.6685154000000004,0.55606806,-1.0215886,-0.2695119,-6.78,39.06,-42.72
1554105371294,5.8849480000000005,-8.471283999999999,-3.5727474999999997,0.5816344,-1.0173275,-0.13848437,-7.56,38.34,-42.84
1554105371315,6.320692500000001,-8.5383215,-3.793014,0.5954828000000001,-0.98110855,-0.022370555,-8.04,37.5,-43.02
1554105371335,6.4068837,-8.193557,-3.4913447,0.6125271,-0.9171927,0.12144015,-8.58,36.72,-43.2
1554105371355,6.38773,-7.934983,-3.342904,0.5837649,-0.8607336999999999,0.2428803,-9.18,36.06,-43.38
1554105371374,6.1243677000000005,-7.5950065,-3.117849,0.5294364,-0.83942837,0.3057309,-9.84,35.46,-43.56
1554105371394,6.0381765,-7.231087700000001,-3.117849,0.41225734,-0.82344943,0.3653857,-10.5,34.92,-43.68
1554105371415,5.8849480000000005,-6.9150529999999995,-2.9646204,0.27590349999999997,-0.8064051999999999,0.40266997,-11.16,34.44,-43.8
1554105371435,5.664681400000001,-6.8767457,-3.079542,0.14061491,-0.7946873000000001,0.3898868,-11.58,34.02,-43.92
1554105371454,5.1571107000000005,-6.848015299999999,-3.1082723,0.07563378,-0.7861651999999999,0.32170987,-12.0,33.66,-43.98
1554105371475,5.171476,-7.0874357,-3.093907,0.12570119999999999,-0.8213189000000001,0.25992453,-12.36,33.3,-43.98
1554105371495,5.195418,-7.269394999999999,-3.2854433,0.27377295,-0.90973586,0.16937704,-12.72,33.06,-43.92
1554105371515,5.0086699999999995,-7.365163000000001,-3.3237504999999996,0.46871635,-0.97897804,0.098004326,-12.96,33.0,-43.86
1554105371534,4.855441000000001,-7.2789717000000005,-3.5631707,0.6125271,-1.0365024,0.07456851,-13.08,33.0,-43.8
1554105371554,5.0757074,-7.3460092999999995,-3.639785,0.7946873000000001,-1.1142666,0.03834952,-13.2,33.0,-43.68
1554105371575,5.377377,-7.508815299999999,-3.7307648999999996,0.88949585,-1.1259845,0.011717908999999999,-13.32,32.94,-43.62
1554105371595,5.1475334,-7.6428905,-4.0372224,0.88949585,-1.0887003,-0.012783173500000002,-13.56,32.64,-43.56
1554105371615,4.817133999999999,-7.341221000000001,-4.094683600000001,0.8021441,-1.0418286,-0.00958738,-13.8,32.28,-43.44
1554105371635,4.525041000000001,-7.5566993,-4.267066000000001,0.6178534000000001,-1.0120013,0.018109497,-14.04,31.92,-43.38
1554105371655,4.572925,-7.8248496,-4.156933,0.41971418,-1.0141318000000001,0.022370555,-14.28,31.5,-43.32
1554105371675,4.9081135,-8.164826,-4.204817,0.25140239999999997,-1.0183928,0.035153727999999995,-14.52,31.02,-43.32
1554105371695,4.721366000000001,-8.260594000000001,-4.300585,0.18961707,-0.96299905,0.035153727999999995,-14.82,30.6,-43.26
1554105371715,4.4101195,-8.385093,-4.1904516,0.22477080000000002,-0.89375687,0.047936900000000005,-15.24,30.12,-43.2
1554105371734,4.4484267,-8.705916,-4.209605000000001,0.314253,-0.82877576,0.035153727999999995,-15.66,29.7,-43.14
1554105371754,4.343082,-8.72507,-4.257489,0.4016047,-0.793622,-0.0053263223,-15.9,29.46,-42.96
1554105371775,4.2760444,-8.69155,-4.180875,0.4644553,-0.77444726,-0.008522116,-16.2,29.22,-42.78
1554105371795,3.9695864000000003,-8.5862055,-3.9893386,0.51026165,-0.74035877,0.008522116,-16.5,28.92,-42.54
1554105371814,3.8690300000000004,-8.4425535,-4.0994720000000004,0.5134575,-0.66152924,0.053263225,-16.8,28.5,-42.3
1554105371835,3.5960910000000004,-8.227076,-3.9270894999999997,0.39308259999999995,-0.5294364,0.11930962,-17.28,28.02,-41.94
1554105371854,3.193865,-7.963713,-3.9366663,0.27590349999999997,-0.43995422,0.15126756,-17.46,27.9,-41.88
1554105371876,2.9783869,-7.887099,-3.5823242999999994,0.10439592,-0.34194988,0.18535602,-17.7,27.6,-41.7
1554105371895,2.7437549999999997,-7.8152729999999995,-3.6349967000000003,-0.10013486,-0.28655612,0.1949434,-17.82,27.36,-41.58
1554105371914,2.681506,-8.097789,-3.3716345000000003,-0.2695119,-0.22903186,0.16831179,-18.06,27.0,-41.46
1554105371934,2.432509,-8.27496,-3.5535938999999996,-0.36218992,-0.17470337,0.11611383,-18.24,26.94,-41.4
1554105371955,2.3415293999999998,-8.476072,-3.3572693,-0.386691,-0.13209279,0.06178534,-18.42,26.94,-41.4
1554105371975,2.2840683,-8.509591,-3.2854433,-0.39840892,-0.12357068,0.010652645,-18.54,27.06,-41.34
1554105371995,2.2888567,-8.634089,-3.4482489999999997,-0.4261058,-0.14594123,-0.025566347000000003,-18.66,27.18,-41.28
1554105372015,2.384625,-8.859145,-3.4913447,-0.44528055,-0.18855181,-0.040480047000000005,-18.72,27.36,-41.16
1554105372034,2.4277205000000004,-9.285313,-3.591901,-0.37923414,-0.2130529,-0.041545313,-18.72,27.54,-41.1
1554105372054,2.336741,-9.385869,-3.5535938999999996,-0.19813919,-0.21837921,-0.043675844000000005,-18.78,27.78,-40.98
1554105372074,2.456451,-9.376292,-3.5679589999999997,0.007456851,-0.22903186,-0.041545313,-18.78,27.9,-40.86
1554105372094,2.5570072999999995,-9.309255,-3.7499184999999997,0.14168017,-0.24927188,-0.04261058,-18.72,28.08,-40.62
1554105372116,2.633622,-9.132083999999999,-3.8456864,0.16831179,-0.24501082,-0.039414786,-18.72,28.26,-40.32
1554105372134,2.6910827,-9.0842,-3.8552632000000004,0.11930962,-0.23009712,-0.024501082,-18.72,28.32,-39.96
1554105372155,2.60968,-9.045893,-3.9270894999999997,0.046871635999999994,-0.2034655,0.0010652645,-18.72,28.44,-39.66
1554105372176,2.6240451,-8.969278,-3.8552632000000004,-0.011717908999999999,-0.16085494,0.02876214,-18.78,28.5,-39.42
1554105372195,2.4851813,-8.883087,-3.7307648999999996,-0.051132694000000006,-0.12463594,0.06711166,-18.9,28.5,-39.12
1554105372215,2.384625,-8.873510000000001,-3.5679589999999997,-0.07456851,-0.098004326,0.07989483,-19.02,28.56,-38.82
1554105372235,2.3989902,-8.796896,-3.1657330000000004,-0.040480047000000005,-0.084155895,0.07137272,-19.14,28.56,-38.64
1554105372254,2.2026656000000004,-8.739435,-3.1896752999999998,0.060720075,-0.07989483,0.07669904,-19.2,28.62,-38.46
1554105372278,2.183512,-8.907029,-3.232771,0.18642128,-0.053263225,0.05752428,-19.32,28.62,-38.4
1554105372295,2.3942018,-9.208698,-3.7307648999999996,0.30146983,0.0,0.0031957934000000003,-19.44,28.62,-38.4
1554105372314,2.6384103,-9.304466,-4.1665095999999995,0.37923414,0.10439592,-0.049002163,-19.5,28.68,-38.4
1554105372335,2.7772740000000002,-9.381081,-4.559158999999999,0.4016047,0.19600865,-0.04261058,-19.5,28.68,-38.4
1554105372354,2.681506,-9.098564999999999,-4.487332299999999,0.34727620000000003,0.24501082,0.05539375,-19.5,28.68,-38.4
1554105372374,2.3558946,-8.57184,-3.9079356,0.22264028,0.21731395,0.23542345,-19.5,28.68,-38.46
1554105372395,2.2409727999999998,-8.179192,-3.615843,0.09267801,0.12357068,0.41545314,-19.5,28.74,-38.52
1554105372414,2.542642,-8.404246,-3.2854433,-0.03834952,0.049002163,0.5091964,-19.44,28.74,-38.58
1554105372434,2.6767175,-8.643666,-3.1896752999999998,-0.096939065,0.04261058,0.4889564,-19.38,28.74,-38.82
1554105372454,2.7341783,-8.710705,-3.2950199999999996,-0.07243799,0.080960095,0.45806372,-19.38,28.8,-39.0
1554105372476,2.4037786,-9.0315275,-3.1800982999999996,0.034088463,0.10652645,0.45912898,-19.26,28.92,-39.18
1554105372496,2.5570072999999995,-9.098564999999999,-3.1848867000000003,0.06711166,0.033023197000000004,0.47936899999999993,-19.14,29.1,-39.36
1554105372515,2.8060042999999997,-9.108141999999999,-3.4243068999999995,0.05965481,-0.06711166,0.4857606,-19.08,29.46,-39.42
1554105372535,3.193865,-9.20391,-3.615843,0.033023197000000004,-0.13635385,0.4644553,-18.9,29.76,-39.54
1554105372555,3.5960910000000004,-9.433753,-3.7355532999999994,-0.011717908999999999,-0.16831179,0.39095205,-18.84,30.06,-39.54
1554105372575,3.4237084,-9.35235,-3.7259765,-0.12463594,-0.17363810000000002,0.31105720000000003,-18.72,30.36,-39.54
1554105372596,2.9352913,-9.390657000000001,-3.5727474999999997,-0.34301516,-0.17257284,0.2609898,-18.54,30.78,-39.3
1554105372615,2.801216,-9.543886,-3.5631707,-0.48682585,-0.20026971,0.25992453,-18.48,30.96,-39.18
1554105372635,2.456451,-9.783307,-3.4434607,-0.61678815,-0.22477080000000002,0.27590349999999997,-18.3,31.2,-38.88
1554105372655,2.1739352000000003,-9.89344,-3.7786489000000003,-0.5965481,-0.23648871,0.30999196,-18.12,31.44,-38.58
1554105372674,2.0733786,-9.926959,-3.8792052000000004,-0.51452273,-0.24501082,0.3653857,-17.94,31.62,-38.4
1554105372694,1.7429788,-9.816825999999999,-4.185663,-0.45486793,-0.294013,0.406931,-17.76,32.04,-38.16
1554105372715,1.1731589,-9.816825999999999,-4.597466000000001,-0.56885123,-0.42930159999999995,0.54435015,-17.4,32.76,-37.62
1554105372734,0.7086836999999999,-9.922171,-4.463390400000001,-0.6945524000000001,-0.55074173,0.70200926,-17.22,33.3,-37.26
1554105372755,0.50278234,-10.152014,-4.540005000000001,-0.74461985,-0.6743124,0.8681905000000001,-17.04,33.9,-36.78
1554105372774,0.30166942,-10.080188,-4.6740804,-0.72011876,-0.76059884,1.0258497,-16.8,34.62,-36.36
1554105372794,0.110133275,-10.295666,-4.789002,-0.7275756,-0.84688526,1.164334,-16.56,35.4,-35.94
1554105372815,-0.16280572,-10.429741,-4.932654,-0.62531024,-0.94808537,1.293231,-16.38,36.3,-35.46
1554105372835,-0.23942018,-10.855909,-5.119402,-0.41545314,-1.0375676,1.4359765,-16.14,37.2,-34.8
1554105372855,-0.45968673,-10.793660000000001,-5.0140567,-0.101200126,-1.1100056,1.5243934,-15.78,38.1,-34.08
1554105372875,-0.61291564,-10.76493,-5.430648000000001,0.22690132,-1.1739215,1.6064188,-15.3,39.12,-33.24
1554105372894,-0.78050977,-10.563816000000001,-5.349245,0.41758367,-1.2293152,1.6373115,-14.7,40.2,-32.34
1554105372914,-1.1827357,-10.070611,-5.0236335,0.49747851,-1.3006879,1.6373115,-13.92,41.22,-31.56
1554105372934,-1.4077905000000002,-9.740211500000001,-5.0427876,0.5592638000000001,-1.3784522,1.6564863,-13.14,42.18,-30.84
1554105372955,-1.8770541,-9.381081,-5.507262,0.53476274,-1.4082796999999998,1.6458336,-12.3,43.02,-30.12
1554105372974,-2.7150247000000003,-9.20391,-5.6700683,0.35153726,-1.4434333000000001,1.6532904,-11.52,43.8,-29.46
1554105372994,-3.1986535,-9.390657000000001,-5.7658362,0.16298546,-1.5520903,1.7012273,-10.8,44.58,-29.04
1554105373015,-3.4476504,-9.68275,-5.7802014,0.068176925,-1.6596819999999999,1.7342505000000001,-10.44,45.0,-28.86
1554105373035,-4.525041000000001,-9.376292,-5.6365495,0.18322548,-1.9238676,1.7129452,-9.42,46.26,-28.68
1554105373054,-4.711789,-9.065046,-5.4641665999999995,0.3685815,-2.0751352,1.7534252000000001,-8.7,47.16,-28.62
1554105373074,-4.7884035,-9.0794115,-5.468955,0.51984906,-2.1880531000000003,1.7726,-7.98,48.06,-28.5
1554105373095,-5.0086699999999995,-8.212710000000001,-4.817732299999999,0.70200926,-2.3510387,1.7662083999999998,-7.32,48.96,-28.32
1554105373115,-5.511451999999999,-7.417835,-4.7363295999999995,0.7073356,-2.4469125,1.7449032,-6.48,49.98,-28.14
1554105373134,-5.391742,-6.8528037,-4.654927,0.4261058,-2.5278726000000002,1.7267936000000002,-5.52,50.94,-27.96
1554105373155,-5.5401826,-6.508039,-4.0372224,0.015978966,-2.5545042000000002,1.6575514999999998,-4.44,51.72,-27.78
1554105373175,-5.588066599999999,-5.737106,-3.3620577000000003,-0.3323625,-2.5395904,1.5755261,-3.24,52.32,-27.6
1554105373195,-5.664681400000001,-5.3061495,-2.6007016,-0.6327670999999999,-2.5001757000000002,1.5211976999999999,-2.04,52.86,-27.36
1554105373214,-5.8226986,-4.9661726999999996,-2.0021513,-0.84155893,-2.4341292,1.4689997,-0.9,53.28,-27.12
1554105373235,-5.5976434,-4.8656163,-1.4371196000000002,-0.96939063,-2.3680830000000004,1.4093448999999998,0.12,53.7,-26.94
1554105373255,-5.4779334,-4.386776,-0.99179804,-0.9960223,-2.2871227000000003,1.2399678,1.14,54.12,-26.76
1554105373275,-5.420472599999999,-4.065953299999999,-0.76195467,-0.9960223,-2.167813,1.0641992,1.98,54.48,-26.4
1554105373295,-5.5162406,-4.0755300000000005,-0.024540568,-0.9555421999999999,-1.9664781999999998,0.89375687,2.76,54.72,-26.04
1554105373314,-5.386954,-3.9653966,0.26276365,-0.8159926,-1.7651432,0.71798825,3.54,55.02,-25.5
1554105373335,-5.3821654,-3.8839936,0.5069722,-0.716923,-1.5371766000000002,0.5571333,4.26,55.26,-24.78
1554105373355,-5.5737014,-3.8935703999999998,0.83737206,-0.660464,-1.3017531999999998,0.42077947,4.92,55.56,-24.0
1554105373375,-5.7939680000000005,-4.018069000000001,0.86610246,-0.52837116,-1.0759171,0.31212249999999997,5.52,55.8,-23.28
1554105373394,-6.373365,-3.912724,0.7080852,-0.43356264,-0.8277104999999999,0.2428803,6.18,55.92,-22.62
1554105373414,-6.588842999999999,-3.9079356,0.6075286999999999,-0.45593318,-0.6359629,0.22690132,6.72,56.04,-21.96
1554105373435,-7.129933,-4.032433999999999,0.57400984,-0.5432849000000001,-0.49960902,0.22050974,7.2,56.16,-21.48
1554105373455,-7.455544000000001,-4.324527,0.6841431,-0.59228706,-0.4282363,0.23542345,7.68,56.22,-21.0
1554105373474,-7.565677,-4.2957964,0.45908818,-0.588026,-0.39308259999999995,0.25885928,8.16,56.28,-20.64
1554105373495,-7.833828,-4.420294999999999,0.20051439,-0.72011876,-0.36218992,0.26631612,8.58,56.4,-20.52
1554105373514,-7.97748,-4.597466000000001,0.3776853,-0.8021441,-0.34621096,0.24714136,8.7,56.46,-20.46
1554105373534,-8.384495,-4.9374423,0.4878186,-0.7840345999999999,-0.30999196,0.23329292,8.94,56.52,-20.34
1554105373554,-8.590396,-5.047576,0.6841431,-0.700944,-0.2695119,0.2545982,9.12,56.52,-20.16
1554105373575,-8.389283,-5.325303,0.82779527,-0.58696073,-0.294013,0.24394555,9.36,56.58,-19.62
1554105373595,-8.403648,-5.3971290000000005,0.82779527,-0.4101268,-0.32597092,0.21518342,9.48,56.64,-19.2
1554105373614,-8.437167,-5.3300915,0.9139864999999999,-0.30786142,-0.33981937,0.17044231,9.66,56.7,-18.54
1554105373634,-8.259995,-5.3157263,0.9044097,-0.19174760000000002,-0.34514567,0.113983296,9.72,56.7,-17.88
1554105373655,-8.226477000000001,-5.0667295,0.64583594,-0.15978967,-0.3270362,0.07456851,9.78,56.64,-17.22
1554105373675,-8.374918,-4.9422307,0.49739540000000004,-0.35579833,-0.28868666,0.06604639400000001,9.9,56.52,-16.62
1554105373695,-8.5473,-5.0906715,0.49260699999999996,-0.6380934,-0.27803403,0.06604639400000001,9.96,56.46,-16.08
1554105373714,-8.365341,-5.401917500000001,0.99060094,-0.7456851,-0.2790993,0.04474111,10.08,56.4,-15.6
1554105373734,-8.355764,-5.4498014,0.88046765,-0.6114618,-0.257794,0.008522116,10.2,56.34,-15.18
1554105373755,-8.667010000000001,-5.349245,0.9235633,-0.31638354,-0.19600865,-0.02130529,10.44,56.28,-14.94
1554105373775,-8.628703,-5.3396683,0.8996213,-0.017044231,-0.17257284,-0.039414786,10.68,56.22,-14.88
1554105373794,-8.374918,-4.827309,0.41120413,0.08948222,-0.2034655,-0.022370555,10.86,56.22,-14.82
1554105373815,-8.0924015,-4.860828,0.40641573,-0.04474111,-0.23222765,-0.03089267,11.1,56.16,-14.76
1554105373834,-7.9343843,-4.918288700000001,0.31543607,-0.19281286,-0.2428803,-0.05006743,11.28,56.22,-14.64
1554105373854,-7.905653999999999,-5.109825,0.53570265,-0.20772657,-0.21624869,-0.041545313,11.46,56.28,-14.46
1554105373875,-7.7428484,-5.0236335,0.8948328999999999,-0.09587380000000001,-0.16298546,-0.049002163,11.64,56.28,-14.34
1554105373894,-7.929596000000001,-4.88477,0.7368156,-0.07030745599999999,-0.13315806,-0.06178534,11.76,56.28,-14.16
1554105373914,-8.317456,-4.9374423,0.8086416000000001,-0.096939065,-0.06391586,-0.084155895,11.82,56.28,-14.04
1554105373935,-8.628703,-4.875193,0.6171055000000001,-0.07882957,-0.02130529,-0.07989483,11.82,56.28,-13.92
1554105373955,-8.743625,-4.755483,0.6123171,-0.07243799,-0.01917476,-0.054328485999999995,11.82,56.28,-13.8
1554105373975,-8.6334915,-4.923076999999999,0.47824179999999994,-0.1107875,-0.04474111,-0.039414786,11.88,56.22,-13.74
1554105373995,-8.499416,-5.0667295,0.43993455,-0.08841695,-0.06924219,-0.06498113,11.88,56.22,-13.68
1554105374015,-8.628703,-5.1241902999999995,0.45429978,0.0063915867,-0.08628642,-0.07882957,11.94,56.22,-13.68
1554105374034,-8.350976,-5.205593,0.6362591,0.098004326,-0.10439592,-0.080960095,11.94,56.22,-13.68
1554105374054,-8.101977999999999,-5.224746700000001,0.8182184,0.15126756,-0.111852765,-0.094808534,12.0,56.16,-13.68
1554105374075,-8.006210000000001,-5.1385555,0.87089086,0.17470337,-0.10865697,-0.11824436,12.0,56.16,-13.62
1554105374095,-8.365341,-5.0332108,0.85173726,0.14913702,-0.068176925,-0.12357068,12.06,56.16,-13.56
1554105374115,-8.293514,-5.0236335,0.8086416000000001,0.09161274,-0.034088463,-0.12463594,12.06,56.16,-13.5
1554105374135,-8.09719,-5.191228,0.95708215,0.04580637,-0.007456851,-0.11611383,12.06,56.16,-13.44
1554105374157,-8.255207,-5.1624975,0.9283517,0.029827405,0.014913702,-0.111852765,12.06,56.1,-13.38
1554105374175,-8.274361,-5.1002483,0.7224503999999999,0.017044231,0.023435817999999997,-0.09267801,12.0,56.16,-13.26
1554105374197,-8.197746,-5.2726307,0.54527944,0.018109497,0.007456851,-0.08628642,12.0,56.16,-13.2
1554105374217,-8.106767,-5.253476999999999,0.5021838,0.054328485999999995,-0.025566347000000003,-0.08841695,11.94,56.16,-13.14
1554105374235,-8.101977999999999,-5.119402,0.15741876,0.09161274,-0.04580637,-0.096939065,11.94,56.16,-13.2
1554105374255,-8.149861999999999,-5.0284224,0.7080852,0.10439592,-0.05006743,-0.082025364,11.88,56.16,-13.26
1554105374275,-8.034941,-5.1385555,1.1198878,0.12463594,-0.043675844000000005,-0.051132694000000006,11.88,56.22,-13.32
1554105374295,-8.0445175,-5.0810947,1.1486181999999998,0.1470065,-0.041545313,-0.039414786,11.88,56.22,-13.38
1554105374314,-7.891288799999999,-4.9278655,1.1773487,0.18109496,-0.013848438000000001,-0.02130529,11.88,56.22,-13.5
1554105374335,-7.795521000000001,-4.851251,1.1007341999999998,0.22264028,0.041545313,-0.0010652645,11.88,56.22,-13.56
1554105374354,-7.7332716,-4.6980224,0.95708215,0.2034655,0.07669904,-0.010652645,11.82,56.28,-13.68
1554105374374,-7.876923599999999,-4.7363295999999995,0.8182184,0.12676647,0.13741912,-0.012783173500000002,11.82,56.28,-13.74
1554105374395,-8.121132000000001,-4.659715,0.6314706999999999,0.015978966,0.18109496,-0.040480047000000005,11.76,56.28,-13.8
1554105374415,-8.422802,-4.7602715,0.66020113,-0.06604639400000001,0.20772657,-0.05006743,11.64,56.22,-13.86
1554105374434,-8.39886,-4.8225207,0.6218939,-0.084155895,0.19920446,-0.029827405,11.58,56.22,-13.92
1554105374454,-8.350976,-4.9422307,0.54049104,-0.07243799,0.19707392,-0.04580637,11.46,56.16,-13.98
1554105374474,-8.394072,-5.0236335,0.41599256,-0.02876214,0.20026971,-0.027696876000000002,11.4,56.16,-13.98
1554105374495,-8.480263,-5.0427876,0.74639237,-0.022370555,0.17363810000000002,-0.053263225,11.28,56.1,-14.04
1554105374515,-8.341399000000001,-5.105036699999999,0.5165489999999999,-0.004261058,0.13422333,-0.07030745599999999,11.16,56.1,-14.16
1554105374534,-8.374918,-5.09546,0.45908818,-0.01917476,0.11717909,-0.08948222,11.1,56.1,-14.16
1554105374554,-8.513782,-5.325303,0.5165489999999999,-0.07243799,0.09054748,-0.101200126,11.04,56.1,-14.22
1554105374575,-8.576031,-5.3683987,0.55006784,-0.07350325,0.06924219,-0.10439592,10.98,56.16,-14.22
1554105374595,-8.619126,-5.4114943,0.43993455,-0.029827405,0.04261058,-0.11824436,10.98,56.22,-14.22
1554105374614,-8.748413000000001,-5.3971290000000005,0.54049104,0.040480047000000005,0.018109497,-0.07882957,10.92,56.28,-14.22
1554105374634,-8.690952000000001,-5.349245,0.6171055000000001,0.060720075,0.0,-0.04474111,10.92,56.34,-14.22
1554105374655,-8.456321,-5.3061495,0.41120413,0.036218993,-0.014913702,-0.027696876000000002,10.86,56.4,-14.16
1554105374675,-8.350976,-5.248688700000001,0.54527944,0.024501082,-0.024501082,-0.02130529,10.8,56.46,-14.16
1554105374695,-8.350976,-5.286996,0.5883751,0.03834952,-0.039414786,-0.036218993,10.8,56.46,-14.16
1554105374715,-8.231264999999999,-5.1529207,0.55006784,0.037284255,-0.034088463,-0.025566347000000003,10.8,56.46,-14.16
1554105374734,-8.264783999999999,-5.085883,0.81343,0.04580637,-0.018109497,-0.03834952,10.74,56.52,-14.16
1554105374754,-7.9343843,-5.0236335,0.8086416000000001,0.046871635999999994,0.020240024,-0.034088463,10.74,56.52,-14.22
1554105374775,-7.8003089999999995,-4.827309,0.8086416000000001,-0.027696876000000002,0.08628642,-0.056459017,10.74,56.52,-14.28
1554105374795,-7.9248075,-4.947019,0.85173726,-0.07137272,0.15659387,-0.07456851,10.74,56.52,-14.28
1554105374815,-7.738060000000001,-4.9757495,0.55006784,-0.11717909,0.24607609,-0.039414786,10.74,56.52,-14.34
1554105374834,-7.546523599999999,-4.894346700000001,0.6314706999999999,-0.20133498,0.32597092,-0.040480047000000005,10.74,56.52,-14.4
1554105374854,-7.5561004,-4.9518075,0.56922144,-0.28122982,0.40373522,-0.04261058,10.74,56.52,-14.4
1554105374875,-7.417236999999999,-5.172074299999999,0.32501290000000005,-0.33981937,0.4644553,-0.034088463,10.74,56.52,-14.34
1554105374894,-7.268796400000001,-5.0810947,0.22445641,-0.3717773,0.51984906,-0.068176925,10.68,56.52,-14.28
1554105374914,-7.144297999999999,-4.9853263,0.23882163,-0.39734364,0.5965481,-0.112918034,10.68,56.52,-14.16
1554105374935,-6.588842999999999,-5.0284224,0.28670564,-0.43462790000000007,0.69668293,-0.13528858,10.68,56.52,-14.04
1554105374955,-5.66947,-5.1816510000000005,0.56443304,-0.46978164,0.793622,-0.17896444,10.68,56.52,-13.86
1554105374975,-4.9799394999999995,-5.1385555,0.56922144,-0.4133226,0.92038846,-0.27164245,10.62,56.46,-13.68
1554105374994,-4.501099,-5.3157263,0.44951138,-0.22903186,1.1238540000000001,-0.39308259999999995,10.56,56.46,-13.44
1554105375014,-4.156333999999999,-5.3540335,0.28670564,0.051132694000000006,1.3859091000000001,-0.5411543000000001,10.5,56.4,-13.08
1554105375036,-4.132391999999999,-5.1529207,-0.11552023,0.32277513,1.6660736,-0.721184,10.38,56.34,-12.72
1554105375056,-3.8307227999999998,-4.8799815,-0.52253455,0.628506,1.9291939999999999,-0.93636745,10.2,56.34,-12.48
1554105375075,-3.4093432,-4.6932339999999995,-0.9103952,0.9555421999999999,2.1401162,-1.180313,9.84,56.28,-12.18
1554105375094,-3.217807,-4.908712,-0.88166475,1.2410331000000001,2.3318639,-1.478587,9.36,56.28,-11.94
1554105375115,-2.8969840000000002,-5.3683987,-1.2312181999999998,1.5648735,2.4863272000000003,-1.8375811999999998,8.64,56.16,-11.94
1554105375135,-2.528277,-5.6700683,-2.2272062000000004,1.9345202000000001,2.6280074,-2.2338595000000003,7.8,56.1,-12.06
1554105375155,-2.1930888,-5.9956794,-3.0699651,2.2477080000000003,2.7590348999999996,-2.6365293999999997,6.84,56.04,-12.36
1554105375175,-1.9009962,-6.3548098,-3.9270894999999997,2.437325,2.8826056,-3.0264162999999997,5.7,55.92,-12.9
1554105375194,-1.6232687,-6.8623804999999996,-4.659715,2.4383903,2.968892,-3.4088464,4.38,55.8,-13.74
1554105375214,-1.1013328000000002,-7.934983,-4.908712,2.1411815,2.9550436,-3.7731667,2.82,55.56,-14.94
1554105375235,-0.7134720999999999,-8.667608,-4.329315,1.4157364,2.8229507999999996,-4.205664,-0.18,54.42,-17.64
1554105375255,-0.033518825,-9.045893,-4.257489,0.7456851,2.6056367999999996,-4.466654,-2.28,53.22,-19.68
1554105375275,0.9911995000000001,-9.644442999999999,-4.4059295999999994,0.049002163,2.4160197,-4.5327,-4.44,51.66,-21.78
1554105375294,1.4173675,-9.869498,-4.3436804,-0.39201729999999996,2.3499734,-4.463458,-5.52,50.7,-22.86
1554105375314,2.3511062000000003,-11.444882000000002,-4.43466,-0.91825795,2.299906,-4.3068643,-9.0,47.28,-26.28
1554105375335,2.8395232999999998,-12.56058,-3.8839936,-1.0641992,2.2285333,-4.2386870000000005,-11.34,44.52,-28.38
1554105375355,2.8874072999999996,-12.74254,-3.3333273,-0.7595335999999999,2.1092236,-4.0938115,-13.56,41.4,-30.36
1554105375375,3.5290532,-12.943653,-3.9414546,-0.26525086,1.9462381999999998,-3.8168425999999998,-15.42,38.1,-31.98
1554105375394,3.5577837999999997,-11.957241999999999,-4.353257,0.06604639400000001,1.7726,-3.5494611000000003,-17.04,34.86,-33.24
1554105375414,3.8642415999999997,-10.922947,-4.3963529999999995,-0.07350325,1.5574166999999999,-3.2245555,-18.48,31.44,-34.56
1554105375435,4.8602295,-11.717822,-4.540005000000001,-0.50387007,1.3582121999999999,-2.9337382,-19.86,28.08,-35.94
1554105375455,5.3103394999999995,-11.497555,-4.449025,-0.76912093,1.2197278,-2.6887274,-21.18,24.84,-37.26
1554105375475,5.583278,-11.114483,-4.257489,-0.8085357,1.1163971000000001,-2.3616912,-22.08,21.66,-38.4
1554105375494,5.5737014,-10.9899845,-3.9845502,-0.7552725,1.015197,-2.0154803,-22.86,18.84,-39.6
1554105375514,5.913678,-11.15279,-3.639785,-0.6423545,0.8841694999999999,-1.7704695,-23.46,16.2,-40.68
1554105375535,6.047753299999999,-11.047445,-3.6445735,-0.45380265,0.7574029999999999,-1.5851135,-24.06,13.86,-41.7
1554105375555,6.2871737,-10.750565,-3.8456864,-0.28122982,0.62531024,-1.4040185,-24.42,11.82,-42.78
1554105375575,6.0621184999999995,-9.582193,-4.0372224,-0.19174760000000002,0.48682585,-1.107875,-24.72,10.14,-43.56
1554105375594,5.9998693,-9.213486999999999,-3.9606082000000002,-0.27057716,0.37710363,-0.809601,-24.78,8.64,-44.1
1554105375614,6.042965000000001,-8.988432000000001,-3.5966894999999997,-0.37603834,0.29294774,-0.5613944000000001,-24.78,7.26,-44.46
1554105375635,6.2967505,-9.156025999999999,-3.3620577000000003,-0.39414784,0.2130529,-0.386691,-24.84,6.12,-44.88
1554105375655,6.50744,-8.921394,-3.0220811000000003,-0.25246766,0.18429075,-0.28442562,-24.84,5.1,-45.24
1554105375675,6.430825700000001,-8.787319,-3.1705215,-0.07350325,0.16405073,-0.23435818,-24.84,4.2,-45.6
1554105375694,6.320692500000001,-8.160038,-3.232771,0.03195793,0.16298546,-0.18002969,-24.84,3.48,-45.9
1554105375715,6.301539,-7.844003,-3.2998084999999997,0.039414786,0.15446335,-0.10333065,-24.9,2.94,-46.02
1554105375735,6.1530986,-7.681197599999999,-3.1082723,-0.053263225,0.14061491,-0.033023197000000004,-24.9,2.52,-46.14
1554105375755,6.0716953,-7.441777,-2.7347770000000002,-0.17257284,0.10972224,0.015978966,-24.9,2.28,-46.38
1554105375774,6.0764837,-7.307702000000001,-2.380435,-0.22264028,0.07989483,0.05752428,-24.9,2.22,-46.62
1554105375794,6.2871737,-7.417835,-2.212841,-0.19068234,0.037284255,0.06924219,-24.9,2.22,-46.8
1554105375815,6.291962,-7.16405,-2.0548236,-0.084155895,0.03195793,0.07456851,-24.84,2.22,-46.98
1554105375835,6.325481,-7.044339999999999,-1.939902,0.08628642,0.040480047000000005,0.10652645,-24.78,2.16,-47.1
1554105375855,6.4882865,-7.0587053,-2.0069396,0.2545982,0.06498113,0.17044231,-24.72,2.16,-47.28
1554105375874,6.7851677,-6.938994999999999,-2.0548236,0.34834146,0.096939065,0.21731395,-24.6,2.16,-47.4
1554105375896,6.8091097000000005,-6.680421400000001,-2.2176294,0.37923414,0.14594123,0.24927188,-24.48,2.16,-47.52
1554105375915,7.168239999999999,-6.4457892999999995,-2.404377,0.33449304,0.2066613,0.27164245,-24.42,2.22,-47.46
1554105375935,7.302314999999999,-6.345233,-2.6725276,0.21731395,0.27377295,0.26418558,-24.3,2.22,-47.46
1554105375955,7.4028716,-6.297349,-2.3995886000000004,0.056459017,0.32277513,0.25033715,-24.18,2.28,-47.4
1554105375975,7.168239999999999,-6.1153900000000005,-2.3373394,-0.084155895,0.36218992,0.27164245,-24.12,2.34,-47.4
1554105375995,6.9767036,-6.096236,-2.0021513,-0.21411815,0.36325517,0.29188246,-24.06,2.46,-47.4
1554105376015,7.038953,-6.177639,-2.1027076,-0.32597092,0.33875409999999995,0.30892670000000005,-24.0,2.58,-47.46
1554105376035,7.2065472999999995,-6.259042,-2.059612,-0.40373522,0.29294774,0.30360037,-23.88,2.82,-47.58
1554105376055,7.608772999999999,-6.3787518,-2.0308816000000003,-0.47297743,0.24820662,0.24820662,-23.7,3.0,-47.7
1554105376075,7.943961,-6.785766000000001,-2.1505916000000003,-0.5219796,0.221575,0.11611383,-23.52,3.24,-47.88
1554105376094,7.852981599999999,-6.8528037,-2.1170728,-0.52837116,0.22050974,-0.06285059999999999,-23.28,3.66,-48.06
1554105376114,7.5800424,-6.819285000000001,-1.882441,-0.5134575,0.23222765,-0.1438107,-23.16,3.84,-48.18
1554105376135,7.441178999999999,-7.006033,-1.6669630000000002,-0.5251754,0.21411815,-0.19068234,-22.98,4.32,-48.3
1554105376154,7.417236999999999,-7.341221000000001,-1.762731,-0.6135923000000001,0.18855181,-0.21731395,-22.86,4.8,-48.48
1554105376175,7.2065472999999995,-7.4274119999999995,-1.6573862000000001,-0.64768076,0.19174760000000002,-0.257794,-22.68,5.4,-48.6
1554105376195,7.1155677,-7.6093717000000005,-1.8680758000000002,-0.5837649,0.20985709,-0.25992453,-22.62,5.76,-48.66
1554105376214,7.038953,-7.475296000000001,-1.5376761,-0.43675843,0.22370553,-0.28336033,-22.62,6.12,-48.6
1554105376236,6.847417,-7.2167225,-1.5903485000000002,-0.22050974,0.2066613,-0.30040458,-22.62,6.48,-48.54
1554105376256,6.9096660000000005,-6.929417999999999,-1.738789,0.02130529,0.15978967,-0.3153183,-22.62,6.78,-48.42
1554105376276,6.861782000000001,-6.656479400000001,-1.7914615000000003,0.257794,0.10972224,-0.36432046,-22.62,6.96,-48.36
1554105376296,6.8091097000000005,-6.3643866,-1.8872293999999998,0.47297743,0.047936900000000005,-0.4165184,-22.62,7.08,-48.24
1554105376316,6.8522053,-6.187216,-1.882441,0.64555025,-0.0010652645,-0.45380265,-22.56,7.2,-48.24
1554105376336,7.043741000000001,-5.9621606,-2.1218612,0.72011876,-0.04580637,-0.50600064,-22.56,7.26,-48.18
1554105376356,7.0820484,-5.7083755,-2.2272062000000004,0.680704,-0.05965481,-0.5454154,-22.56,7.2,-48.18
1554105376375,7.192182000000001,-5.521628,-2.4139538,0.5496765,-0.041545313,-0.5475459,-22.56,6.9,-48.24
1554105376395,7.168239999999999,-5.3875523,-2.5001452,0.31318775,-0.010652645,-0.55074173,-22.56,6.24,-48.42
1554105376414,7.019799000000001,-5.3636102999999995,-2.308609,0.034088463,0.03089267,-0.5699165,-22.56,5.52,-48.54
1554105376435,6.9288197,-5.2917843,-2.2415714,-0.19920446,0.068176925,-0.5752428,-22.56,4.68,-48.72
1554105376454,7.0102224,-5.373187000000001,-1.9207484000000001,-0.37710363,0.08735169,-0.5699165,-22.62,3.84,-48.9
1554105376475,7.067683000000001,-5.445012999999999,-1.8489223000000001,-0.45060685,0.10972224,-0.57311225,-22.62,3.06,-48.96
1554105376495,7.177817,-5.828085400000001,-1.6765398,-0.3291667,0.11611383,-0.5752428,-22.68,2.28,-49.08
1554105376518,7.3645644,-5.789778,-1.7100586,-0.16085494,0.128897,-0.59867865,-22.74,1.56,-49.14
1554105376535,7.6853875999999985,-5.7802014,-1.8010383,0.15020229,0.11717909,-0.68176925,-22.74,1.14,-49.26
1554105376555,7.8673470000000005,-5.7658362,-1.8393455,0.37923414,0.112918034,-0.7137272,-22.8,0.84,-49.32
1554105376575,8.336611,-5.713164,-1.9590555,0.5273059,0.09054748,-0.7275756,-22.74,0.54,-49.38
1554105376594,8.614338,-5.593454,-1.9494787,0.56885123,0.07030745599999999,-0.7030744999999999,-22.74,0.18,-49.44
1554105376614,8.63828,-5.4354362,-2.0452468,0.51665324,0.049002163,-0.62744075,-22.74,-0.3,-49.5
1554105376635,8.700529,-5.2199583,-2.2655133999999997,0.36645097,0.04474111,-0.5400891,-22.68,-0.78,-49.56
1554105376655,8.7053175,-5.00448,-2.2272062000000004,0.13528858,0.013848438000000001,-0.46232477,-22.68,-1.38,-49.62
1554105376675,8.734048,-5.0092683,-1.9063831999999998,-0.13315806,-0.047936900000000005,-0.39947417,-22.62,-2.1,-49.68
1554105376694,8.623915,-5.0140567,-1.762731,-0.330232,-0.12676647,-0.35579833,-22.62,-2.82,-49.74
1554105376714,8.408437,-5.1529207,-1.5807717,-0.42184472,-0.2034655,-0.3270362,-22.68,-3.48,-49.8
1554105376735,8.394072,-5.2343235,-1.3748703000000002,-0.4165184,-0.26205507,-0.31212249999999997,-22.74,-3.96,-49.86
1554105376755,8.470686,-5.4354362,-1.3030443,-0.30146983,-0.29507825,-0.32384038,-22.8,-4.32,-49.92
1554105376775,8.532935,-5.6844335,-1.0923545000000001,-0.018109497,-0.3291667,-0.35153726,-22.86,-4.68,-49.98
1554105376795,8.719683,-5.943007,-0.9391255999999999,0.2972088,-0.3536678,-0.38456047,-22.98,-4.92,-50.04
1554105376814,8.734048,-5.880758,-1.0013748,0.660464,-0.3653857,-0.40053943,-23.04,-5.16,-50.1
1554105376834,8.623915,-5.7658362,-1.1737574,1.0088054,-0.3568636,-0.37390783,-23.16,-5.34,-50.16
1554105376855,8.51857,-5.497685400000001,-1.1402385,1.2474246999999998,-0.34727620000000003,-0.30892670000000005,-23.22,-5.58,-50.16
1554105376875,8.389283,-5.229535,-1.2934675,1.3635385,-0.31638354,-0.21411815,-23.28,-5.94,-50.16
1554105376895,8.360553,-4.9661726999999996,-1.5711948999999998,1.3401027,-0.27057716,-0.094808534,-23.34,-6.42,-50.04
1554105376915,8.418014,-4.6932339999999995,-1.7483658,1.1930962,-0.22477080000000002,-0.0053263223,-23.46,-7.08,-49.92
1554105376935,8.446744,-4.4921207,-1.8489223000000001,0.9470200999999999,-0.18429075,0.05752428,-23.46,-7.86,-49.74
1554105376955,8.465898,-4.1425676,-1.8154035,0.6317018,-0.1470065,0.08628642,-23.52,-8.64,-49.56
1554105376974,8.331821000000001,-4.1329910000000005,-1.7004818,0.314253,-0.10759171,0.094808534,-23.58,-9.42,-49.38
1554105376994,8.331821000000001,-4.180875,-1.9015948,0.06498113,-0.07989483,0.10013486,-23.64,-10.26,-49.2
1554105377015,8.499416,-4.3101616,-1.6765398,-0.14061491,-0.011717908999999999,0.068176925,-23.7,-11.34,-48.96
1554105377034,8.346188,-4.2957964,-1.7244238,-0.23755397,0.046871635999999994,0.02130529,-23.82,-11.94,-48.9
1554105377055,8.269572,-4.2814309999999995,-1.6334441000000002,-0.26312032,0.08735169,-0.008522116,-24.0,-12.3,-48.9
1554105377075,8.192958,-4.530428,-1.5520413,-0.23861924,0.09587380000000001,-0.02130529,-24.18,-12.6,-48.9
1554105377094,8.1881695,-4.6932339999999995,-1.5520413,-0.165116,0.07456851,-0.03089267,-24.3,-12.78,-48.96
1554105377114,8.403648,-4.76506,-1.6286557,-0.03195793,0.053263225,-0.041545313,-24.42,-12.9,-48.96
1554105377135,8.508992999999998,-4.76506,-1.5472529,0.15020229,0.053263225,-0.03089267,-24.6,-13.02,-49.02
1554105377155,8.643068,-4.654927,-1.939902,0.30786142,0.043675844000000005,0.0,-24.66,-13.02,-49.02
1554105377174,8.925583999999999,-4.578312400000001,-2.1841104,0.36751625,0.012783173500000002,0.024501082,-24.72,-13.02,-49.02
1554105377195,9.169792,-4.540005000000001,-2.0452468,0.3334278,-0.020240024,0.04261058,-24.72,-12.96,-49.02
1554105377215,9.150639,-4.482544,-2.1697452,0.27483824,-0.053263225,0.08735169,-24.66,-12.96,-49.02
1554105377235,8.973467999999999,-4.2814309999999995,-1.9877859,0.20559604,-0.06604639400000001,0.1587244,-24.66,-12.9,-49.02
1554105377256,8.7771435,-4.1282024,-2.0117279999999997,0.07030745599999999,-0.08735169,0.22690132,-24.6,-12.9,-49.02
1554105377275,8.652645,-3.9653966,-1.6478093,-0.04261058,-0.11611383,0.22583607,-24.66,-12.84,-49.08
1554105377295,8.614338,-4.1186256000000006,-1.6382325,-0.24181503,-0.20559604,0.20240025,-24.66,-12.84,-49.14
1554105377315,8.671799,-4.3963529999999995,-1.1833341999999998,-0.3057309,-0.25672874,0.15659387,-24.72,-12.84,-49.2
1554105377334,8.48984,-4.5160627,-1.1641805,-0.19707392,-0.24501082,0.07989483,-24.72,-12.84,-49.26
1554105377354,8.5473,-4.563947,-1.1210848999999998,0.03089267,-0.18642128,0.015978966,-24.78,-12.84,-49.32
1554105377375,8.389283,-4.654927,-1.0348936,0.2790993,-0.12144015,-0.049002163,-24.78,-12.84,-49.38
1554105377395,8.556877,-4.597466000000001,-0.75716627,0.4250405,-0.111852765,-0.084155895,-24.84,-12.84,-49.38
1554105377414,8.805874000000001,-4.607043,-0.8960299999999999,0.5049353,-0.14168017,-0.10013486,-24.9,-12.78,-49.38
1554105377434,9.088389,-4.8704047,-0.99658644,0.5550028,-0.16618125,-0.099069595,-24.96,-12.78,-49.32
1554105377456,9.509769,-4.702811,-1.2024878,0.6018744,-0.15233281,-0.06391586,-25.02,-12.84,-49.26
1554105377474,9.409213000000001,-4.377199,-1.4754268,0.5858955,-0.10865697,-0.008522116,-25.08,-12.9,-49.08
1554105377494,9.227253,-3.912724,-1.417966,0.45699844,-0.08628642,0.034088463,-25.14,-13.02,-48.96
1554105377515,9.217675999999999,-3.9414546,-1.3461398999999998,0.22264028,-0.12996227,0.041545313,-25.2,-13.26,-48.84
1554105377535,9.327810000000001,-4.147355999999999,-1.2072762,-0.012783173500000002,-0.17789917,-0.0063915867,-25.26,-13.56,-48.66
1554105377555,9.619903,-4.353257,-0.99179804,-0.080960095,-0.15446335,-0.05539375,-25.32,-13.86,-48.54
1554105377574,9.313444,-4.3963529999999995,-1.1354501000000001,0.0,-0.06498113,-0.07350325,-25.32,-14.1,-48.36
1554105377595,9.136273,-4.4777555,-1.0253168,0.09587380000000001,-0.012783173500000002,-0.08841695,-25.38,-14.4,-48.24
1554105377615,9.409213000000001,-4.511274299999999,-0.98222125,0.16405073,-0.012783173500000002,-0.08735169,-25.44,-14.7,-48.12
1554105377635,9.672575,-4.573524,-1.1450268999999997,0.23435818,-0.05219796,-0.07563378,-25.62,-14.88,-48.06
1554105377654,9.854534,-4.549582,-1.1210848999999998,0.33875409999999995,-0.083090626,-0.04261058,-25.8,-15.06,-47.94
1554105377674,9.89763,-4.3197384,-1.0779893,0.46125950000000004,-0.11504856,0.00958738,-25.98,-15.12,-47.88
1554105377694,9.509769,-4.152144399999999,-1.2312181999999998,0.5496765,-0.15126756,0.094808534,-26.16,-15.12,-47.88
1554105377715,9.323022,-4.018069000000001,-1.3509283,0.5432849000000001,-0.20133498,0.16618125,-26.34,-15.24,-47.82
1554105377735,9.045294,-3.8456864,-1.1833341999999998,0.47191215,-0.24074976,0.18535602,-26.46,-15.36,-47.76
1554105377754,8.99741,-3.793014,-1.2934675,0.3568636,-0.25885928,0.165116,-26.58,-15.48,-47.7
1554105377774,8.968679,-3.840898,-1.2503718000000001,0.23435818,-0.25992453,0.1107875,-26.58,-15.6,-47.64
1554105377795,8.805874000000001,-3.769072,-1.5616181,0.060720075,-0.24714136,0.00958738,-26.52,-15.84,-47.58
1554105377815,8.724471000000001,-3.74513,-2.0117279999999997,-0.23222765,-0.257794,-0.083090626,-26.46,-16.02,-47.52
1554105377834,8.355764,-3.9749733999999997,-1.7052702000000002,-0.531567,-0.2908172,-0.13422333,-26.4,-16.14,-47.46
1554105377854,8.346188,-4.156933,-1.8920178,-0.9214538000000001,-0.3323625,-0.13422333,-26.4,-16.2,-47.4
1554105377874,8.121132000000001,-4.611831,-2.0883423999999997,-1.196292,-0.28655612,-0.07563378,-26.46,-16.14,-47.22
1554105377894,7.943961,-4.932654,-1.939902,-1.2868395000000001,-0.15233281,0.07030745599999999,-26.46,-15.9,-47.1
1554105377914,7.8625584,-5.1529207,-1.8489223000000001,-1.2069446000000001,-0.05752428,0.17150758,-26.58,-15.6,-46.98
1554105377935,7.627927000000001,-5.277419,-1.5233108,-1.0162623,-0.015978966,0.24394555,-26.7,-15.24,-46.86
1554105377954,7.723694999999999,-5.248688700000001,-1.5807717,-0.7946873000000001,-0.017044231,0.29188246,-26.76,-14.76,-46.68
1554105377975,7.608772999999999,-5.109825,-1.6765398,-0.5539375,-0.039414786,0.31318775,-26.82,-14.22,-46.44
1554105377995,7.489063000000001,-4.9374423,-1.882441,-0.30466563,-0.058589544,0.35792887,-26.88,-13.5,-46.26
1554105378015,7.7332716,-4.875193,-2.1601684,-0.112918034,-0.04261058,0.39734364,-26.88,-12.78,-46.08
1554105378035,7.905653999999999,-4.5352163,-2.1745335999999997,-0.020240024,0.011717908999999999,0.39840892,-26.88,-12.06,-45.9
1554105378054,8.101977999999999,-4.2957964,-2.3038206000000003,-0.060720075,0.06924219,0.4016047,-26.88,-11.46,-45.78
1554105378074,8.212111,-4.1186256000000006,-2.5767596,-0.21518342,0.13528858,0.37071204,-26.82,-10.86,-45.66
1554105378094,8.427589999999999,-4.0037036,-3.0412347,-0.55287224,0.2609898,0.30999196,-26.7,-10.38,-45.6
1554105378114,8.494628,-3.8552632000000004,-3.232771,-0.81066626,0.36112466,0.25672874,-26.64,-9.9,-45.54
1554105378135,8.461109,-3.9270894999999997,-3.4674027,-1.3283848,0.531567,0.1470065,-26.58,-9.48,-45.48
1554105378155,8.293514,-3.888782,-3.6349967000000003,-1.7374463,0.64555025,0.07137272,-26.46,-8.88,-45.48
1554105378175,8.09719,-4.0037036,-3.6062663,-2.0154803,0.7073356,0.040480047000000005,-26.4,-8.16,-45.48
1554105378194,8.006210000000001,-4.257489,-3.5823242999999994,-2.3233417999999997,0.773382,0.015978966,-26.28,-7.44,-45.54
1554105378214,7.943961,-4.5016975,-3.6062663,-2.5363946,0.8085357,-0.002130529,-26.22,-6.6,-45.66
1554105378235,7.852981599999999,-4.851251,-3.3907879999999997,-2.5875272999999996,0.82344943,-0.0063915867,-26.1,-5.58,-45.9
1554105378254,7.762002000000001,-5.3779755,-3.256713,-2.4458472999999996,0.8085357,-0.039414786,-26.04,-4.32,-46.08
1554105378275,7.565677,-5.593454,-3.1657330000000004,-2.1805964,0.78083885,-0.09374327,-25.98,-2.82,-46.26
1554105378295,7.455544000000001,-5.6844335,-3.0412347,-1.7885790000000001,0.75101143,-0.15765914,-25.86,-1.26,-46.44
1554105378315,7.493850999999999,-5.66528,-3.3572693,-1.3411678999999999,0.737163,-0.17896444,-25.68,0.18,-46.62
1554105378334,7.6470804,-5.521628,-3.4386723,-0.9289106,0.7286409,-0.16937704,-25.5,1.62,-46.86
1554105378354,7.9487495,-5.1960163,-3.5679589999999997,-0.56885123,0.716923,-0.16192019,-25.14,2.88,-46.98
1554105378375,8.523358,-5.0523643,-3.8744167999999997,-0.29614353,0.7350325,-0.15765914,-24.84,3.96,-47.04
1554105378395,8.671799,-4.860828,-4.085107,-0.13635385,0.8032094,-0.18322548,-24.48,4.98,-47.1
1554105378414,8.384495,-4.8895583,-4.0755300000000005,-0.07350325,0.88949585,-0.23542345,-24.06,5.7,-47.16
1554105378434,7.9391727,-4.76506,-3.888782,-0.03195793,0.9821738000000001,-0.27057716,-23.7,6.24,-47.34
1554105378455,7.608772999999999,-4.755483,-3.4961330000000004,0.0031957934000000003,1.0396981,-0.26844665,-23.28,6.66,-47.52
1554105378475,7.2209125,-4.664503599999999,-3.4290953,0.035153727999999995,1.0471549,-0.23222765,-22.8,6.84,-47.82
1554105378494,7.369353,-4.717176,-3.2231941,0.037284255,1.0098706,-0.1587244,-22.26,6.9,-48.12
