TimeStamp,Ax,Ay,Az,Gx,Gy,Gz,Mx,My,Mz
1554104183025,-3.4524388,-6.067506,6.2865753,-1.1579423999999998,0.10865697,-0.29614353,-14.88,31.8,-12.18
1554104183046,-3.5338415999999997,-6.4457892999999995,6.257845,-0.86606,0.1470065,-0.32597092,-14.94,32.4,-11.76
1554104183065,-3.7205894,-6.8767457,6.3488245,-0.6380934,0.2066613,-0.24820662,-15.0,33.06,-11.22
1554104183086,-3.6822822,-7.2262993,6.3727665,-0.34301516,0.25885928,-0.2130529,-15.06,33.66,-10.68
1554104183105,-3.6391866000000004,-6.7570357,5.9226565,-0.07030745599999999,0.2908172,-0.24501082,-15.12,34.14,-10.14
1554104183125,-3.7349546,-6.177639,5.7502737,0.06498113,0.30786142,-0.314253,-15.12,34.56,-9.54
1554104183146,-3.6918589999999996,-5.919065,5.9849057,0.098004326,0.35792887,-0.34194988,-15.18,34.74,-9.0
1554104183166,-3.7014358,-6.0627174,6.157287999999999,0.07137272,0.39947417,-0.38562572,-15.24,34.8,-8.52
1554104183185,-3.4811692,-6.0483522,6.3823433,-0.008522116,0.43249738,-0.44954160000000004,-15.24,34.8,-8.34
1554104183206,-3.6535518,-5.7849900000000005,6.4398040000000005,-0.083090626,0.51026165,-0.5539375,-15.24,34.8,-8.22
1554104183225,-3.7828386,-5.9238534000000005,6.4924764999999995,-0.09587380000000001,0.5592638000000001,-0.5336975,-15.24,34.74,-8.22
1554104183245,-3.6056678,-6.249465,6.578667599999999,-0.02876214,0.65194184,-0.4878911,-15.24,34.74,-8.34
1554104183266,-3.7588966,-6.618172,6.717531,0.068176925,0.7137272,-0.5187838,-15.24,34.68,-8.58
1554104183286,-3.9312792,-6.6947865,6.727108,0.10546118,0.76059884,-0.5209143,-15.24,34.62,-8.82
1554104183306,-3.9408559999999997,-6.8863225,6.6744356,0.17150758,0.79894835,-0.45912898,-15.24,34.44,-9.06
1554104183326,-4.0078936,-7.154473299999999,6.4206505,0.314253,0.8479504999999999,-0.36218992,-15.24,34.14,-9.3
1554104183345,-4.175488,-7.527969000000001,6.458957700000001,0.43356264,0.8969527,-0.27483824,-15.18,33.9,-9.48
1554104183365,-4.486733999999999,-7.527969000000001,6.3392477,0.50173956,0.9587379999999999,-0.18535602,-15.12,33.6,-9.72
1554104183386,-4.525041000000001,-7.0395517000000005,6.06152,0.5219796,0.99708754,-0.21198763,-15.06,33.36,-10.02
1554104183406,-5.023035,-6.522404,5.7454852999999995,0.54435015,1.0034790999999998,-0.27377295,-15.0,33.06,-10.44
1554104183425,-5.12838,-6.469731299999999,5.769428,0.4857606,1.0088054,-0.165116,-14.88,32.76,-10.92
1554104183446,-5.185841,-6.675633,5.7023897,0.43888897,1.015197,0.0010652645,-14.7,32.4,-11.46
1554104183466,-5.257667,-7.020397999999999,5.7215432999999996,0.43569317,0.9683254000000001,0.08735169,-14.4,32.04,-12.06
1554104183485,-5.2863975,-6.8719573,5.668871,0.47617322,0.93636745,0.13635385,-13.92,31.74,-12.66
1554104183505,-5.4970870000000005,-6.4793080000000005,5.515642,0.6689861,0.86179894,0.20453078,-13.38,31.44,-13.32
1554104183526,-5.4061074,-6.2446766,5.099051,0.83942837,0.809601,0.23222765,-12.9,31.14,-14.16
1554104183546,-5.410896,-6.0770826,5.0320134,0.8831041999999999,0.74675035,0.30040458,-12.42,30.84,-14.94
1554104183565,-5.650316,-6.005256,5.194819,0.773382,0.6540724,0.33875409999999995,-11.88,30.6,-15.54
1554104183585,-5.568912999999999,-5.856816,5.3145294000000005,0.6402239000000001,0.56459016,0.32490566,-11.28,30.3,-15.96
1554104183606,-5.4539914000000005,-5.823297,5.515642,0.6860303000000001,0.531567,0.3323625,-10.62,30.06,-16.44
1554104183626,-5.521029,-5.823297,5.482123400000001,0.74461985,0.5049353,0.37284255,-9.9,29.46,-17.22
1554104183645,-5.3103394999999995,-5.8328739999999994,5.348048,0.7286409,0.45806372,0.35792887,-9.72,29.34,-17.52
1554104183666,-5.3007627,-5.401917500000001,5.137358,0.6487460999999999,0.39840892,0.32384038,-9.3,28.92,-18.06
1554104183686,-5.3103394999999995,-4.918288700000001,4.821324,0.5773733,0.3291667,0.27377295,-8.64,28.38,-18.72
1554104183706,-5.396530599999999,-4.6692919999999996,4.500500700000001,0.51026165,0.2727077,0.2545982,-8.4,28.14,-18.96
1554104183725,-5.3103394999999995,-4.544793599999999,4.56275,0.34194988,0.16937704,0.24607609,-7.56,27.54,-19.62
1554104183746,-5.329493,-4.578312400000001,5.099051,0.24820662,0.111852765,0.19707392,-7.2,27.18,-20.04
1554104183766,-5.5401826,-4.4059295999999994,4.931457,0.18322548,0.03834952,0.12570119999999999,-6.84,27.0,-20.4
1554104183786,-5.664681400000001,-4.3101616,4.835689,0.07989483,-0.060720075,0.06178534,-6.54,26.82,-20.82
1554104183805,-5.78918,-4.2862196,5.003283000000001,-0.011717908999999999,-0.15020229,-0.02876214,-6.36,26.64,-21.06
1554104183826,-5.693412,-4.544793599999999,5.3145294000000005,-0.011717908999999999,-0.18961707,-0.07882957,-6.12,26.52,-21.3
1554104183846,-5.5641245999999995,-4.7123876,5.549161,0.002130529,-0.20985709,-0.06285059999999999,-5.94,26.46,-21.54
1554104183866,-5.506664,-4.875193,5.8508306,-0.02876214,-0.2034655,-0.07456851,-5.88,26.34,-21.66
1554104183886,-5.568912999999999,-4.8799815,5.7502737,-0.06285059999999999,-0.19281286,-0.12570119999999999,-5.88,26.22,-21.78
1554104183905,-5.645528,-4.755483,5.817312,-0.06285059999999999,-0.165116,-0.14168017,-5.94,26.16,-21.78
1554104183925,-5.5401826,-4.7602715,5.951387,-0.07350325,-0.14061491,-0.13741912,-5.94,26.1,-21.84
1554104183947,-5.57849,-4.7698483,6.114192500000001,-0.03834952,-0.080960095,-0.15659387,-5.94,26.04,-21.78
1554104183966,-5.4683566,-4.8225207,6.1094040000000005,0.007456851,-0.03195793,-0.18429075,-5.94,25.98,-21.72
1554104183987,-5.535394,-4.573524,5.8221,0.017044231,0.008522116,-0.25140239999999997,-5.94,25.92,-21.66
1554104184006,-5.521029,-4.482544,5.8508306,-0.023435817999999997,0.0031957934000000003,-0.29933932,-6.0,25.8,-21.66
1554104184026,-5.3486465999999995,-4.583101,5.8412538,-0.10652645,-0.018109497,-0.36112466,-6.0,25.74,-21.6
1554104184045,-5.334281400000001,-4.630985,6.085462000000001,-0.11824436,-0.04261058,-0.38349520000000004,-6.06,25.68,-21.6
1554104184067,-5.444414599999999,-4.597466000000001,5.8221,-0.082025364,-0.05752428,-0.41119209999999995,-6.06,25.56,-21.54
1554104184086,-5.2385135,-4.635773,5.573103,-0.05539375,-0.08735169,-0.46871635,-6.18,25.5,-21.54
1554104184106,-5.027823400000001,-4.7123876,5.788581400000001,-0.004261058,-0.11824436,-0.55287224,-6.24,25.44,-21.54
1554104184125,-4.7979803,-4.9135003,5.8268886,0.06498113,-0.14487597,-0.63702816,-6.3,25.38,-21.48
1554104184147,-4.711789,-5.0092683,5.855619,0.06604639400000001,-0.1587244,-0.67537767,-6.48,25.38,-21.48
1554104184166,-4.673482,-5.061941,5.7023897,0.020240024,-0.19387813,-0.72011876,-6.6,25.26,-21.42
1554104184186,-4.548983,-5.0763063,5.549161,-0.046871635999999994,-0.23542345,-0.79894835,-6.78,25.2,-21.36
1554104184205,-4.3718123,-5.4402246,5.8412538,-0.05219796,-0.25992453,-0.83942837,-7.02,25.08,-21.36
1554104184227,-4.10845,-5.8041434,5.903503,0.026631612000000002,-0.2727077,-0.86606,-7.26,24.96,-21.3
1554104184246,-3.9312792,-5.943007,5.917868,0.13848437,-0.27377295,-0.93849796,-7.44,24.78,-21.3
1554104184266,-4.0078936,-5.842450599999999,5.549161,0.15020229,-0.28975195,-1.0162623,-7.74,24.48,-21.24
1554104184286,-3.8259343999999995,-5.6604915,5.3145294000000005,0.014913702,-0.3206446,-1.0439591000000001,-8.1,24.06,-21.24
1554104184307,-3.5146879999999996,-5.966949,5.1900306,-0.17470337,-0.3749731,-1.031176,-8.46,23.52,-21.24
1554104184327,-3.4811692,-6.359598,5.7598505,-0.29614353,-0.4133226,-1.0120013,-8.94,22.86,-21.18
1554104184346,-3.6583402,-6.699575,5.9705405,-0.24820662,-0.44101948,-1.0290455,-9.36,22.2,-21.18
1554104184365,-3.6966474000000002,-6.6469026,6.085462000000001,-0.21518342,-0.46658584,-1.0354371,-9.78,21.48,-21.06
1554104184385,-3.5482068,-6.7283053,6.2003837,-0.21624869,-0.4857606,-1.0173275,-10.14,20.76,-20.94
1554104184407,-3.6583402,-6.9820905,6.1524997,-0.24927188,-0.4878911,-0.9619338,-10.56,20.1,-20.76
1554104184425,-3.8067808,-7.2262993,6.583456,-0.28975195,-0.49747851,-0.9129315999999998,-11.04,19.56,-20.58
1554104184445,-3.7828386,-7.3460092999999995,6.3153057,-0.3536678,-0.515588,-0.8426242,-11.7,19.08,-20.4
1554104184467,-3.5769374,-7.4992385,6.3344593,-0.45912898,-0.51984906,-0.737163,-12.6,18.6,-20.1
1554104184485,-3.3566709,-7.7865424,6.415862000000001,-0.5613944000000001,-0.5123922000000001,-0.6348976,-12.9,18.42,-20.04
1554104184505,-3.1172507,-8.002021000000001,6.458957700000001,-0.5571333,-0.44101948,-0.5305017,-13.44,18.24,-19.86
1554104184526,-2.9113493,-8.102577,6.3344593,-0.35473305,-0.34301516,-0.47617322,-14.22,18.06,-19.62
1554104184545,-2.7868507,-7.9301944,5.994482499999999,-0.23116238,-0.28442562,-0.4708469,-14.46,18.0,-19.56
1554104184566,-2.542642,-7.743447,5.6497173,-0.18855181,-0.19281286,-0.43888897,-15.18,17.82,-19.38
1554104184585,-2.4756044999999998,-7.590217999999999,5.8221,-0.22583607,-0.11611383,-0.43675843,-15.3,17.7,-19.26
1554104184605,-2.5091232999999997,-7.5566993,5.798158,-0.28549087,-0.008522116,-0.4282363,-15.48,17.46,-18.96
1554104184625,-2.7102362999999996,-7.355586,5.869984,-0.30999196,0.08735169,-0.4282363,-15.72,17.16,-18.54
1554104184646,-2.96881,-7.2023573,6.2530565000000005,-0.25885928,0.14168017,-0.42184472,-15.96,16.92,-18.24
1554104184666,-3.1603463,-7.149685000000001,6.401497,-0.17470337,0.15233281,-0.34621096,-16.2,16.62,-17.88
1554104184686,-3.217807,-7.140108000000001,6.27221,-0.12250541,0.15659387,-0.24394555,-16.5,16.32,-17.58
1554104184707,-3.1794999,-7.1879919999999995,6.214748999999999,-0.12676647,0.14594123,-0.1438107,-16.74,16.02,-17.28
1554104184745,-2.6288335,-7.5136037,6.367978,0.015978966,0.11824436,0.03195793,-17.04,15.66,-16.92
1554104184745,-2.6288335,-7.5136037,6.367978,0.015978966,0.11824436,0.03195793,-17.04,15.66,-16.92
1554104184766,-2.5091232999999997,-7.566275999999999,6.305729,0.11611383,0.11504856,0.08841695,-17.1,15.6,-16.92
1554104184785,-2.4756044999999998,-7.671621000000001,6.118981,0.20879184,0.11504856,0.13741912,-17.1,15.6,-16.98
1554104184805,-2.3511062000000003,-7.7769656000000005,5.8987145,0.38242993,0.12037488,0.18535602,-16.98,15.6,-17.1
1554104184825,-2.111686,-7.504027000000001,5.965751999999999,0.55287224,0.09161274,0.18216023,-16.86,15.66,-17.22
1554104184846,-2.054225,-7.2741833,5.8604074,0.6146576,0.07989483,0.165116,-16.74,15.72,-17.34
1554104184865,-2.0590134,-6.737882000000001,5.525219,0.6146576,0.056459017,0.15446335,-16.62,15.78,-17.52
1554104184886,-2.1930888,-6.512827400000001,5.395932,0.5518069999999999,0.03089267,0.11824436,-16.44,15.78,-17.7
1554104184905,-2.5474305,-6.570288000000001,5.462969999999999,0.4079963,-0.01917476,0.060720075,-16.38,15.72,-17.88
1554104184925,-2.7198130000000003,-6.689997999999999,6.06152,0.18429075,-0.082025364,0.0010652645,-16.32,15.6,-18.0
1554104184945,-2.8060042999999997,-6.785766000000001,6.0040593,-0.08522116,-0.1438107,-0.058589544,-16.26,15.36,-18.06
1554104184965,-2.8969840000000002,-6.843227000000001,6.267421700000001,-0.30466563,-0.18109496,-0.06285059999999999,-16.2,15.18,-18.18
1554104184986,-2.9352913,-7.0491285,6.458957700000001,-0.53795856,-0.19707392,0.046871635999999994,-16.2,15.0,-18.24
1554104185006,-2.8395232999999998,-7.6668324000000005,6.6217630000000005,-0.50813115,-0.17363810000000002,0.13315806,-16.14,14.82,-18.24
1554104185026,-2.801216,-8.011598,6.746262,-0.34621096,-0.113983296,0.23542345,-16.08,14.64,-18.24
1554104185045,-2.791639,-7.968502,6.818088,-0.046871635999999994,-0.020240024,0.3153183,-16.08,14.52,-18.3
1554104185065,-2.8682537,-7.7865424,6.578667599999999,0.2727077,0.07030745599999999,0.350472,-16.08,14.52,-18.24
1554104185086,-2.96881,-7.5183919999999995,6.3153057,0.47617322,0.15339808,0.4261058,-16.08,14.7,-18.18
1554104185106,-3.0310593,-7.3364325,6.3392477,0.58483016,0.21411815,0.5134575,-16.02,15.0,-18.18
1554104185126,-3.0119057000000002,-7.1879919999999995,6.157287999999999,0.5933523,0.25033715,0.56885123,-16.02,15.3,-18.12
1554104185146,-2.9113493,-6.8719573,6.238691,0.51771855,0.26525086,0.60933125,-15.96,15.54,-18.12
1554104185166,-2.72939,-6.407482,5.707178,0.40586576,0.2609898,0.6306366,-15.96,15.78,-18.12
1554104185186,-2.7868507,-5.9717374,5.3624134,0.30146983,0.25566345,0.63383234,-15.84,16.02,-18.18
1554104185205,-3.0023289,-5.789778,5.620987,0.23116238,0.21624869,0.58909124,-15.78,16.2,-18.3
1554104185225,-3.0023289,-6.005256,5.716755,0.17896444,0.14168017,0.49428272,-15.66,16.38,-18.48
1554104185246,-3.0023289,-6.2351,5.788581400000001,0.13209279,0.07669904,0.34940675,-15.54,16.44,-18.66
1554104185266,-2.9017725,-6.273407,5.692813,0.037284255,0.023435817999999997,0.18109496,-15.36,16.44,-18.78
1554104185285,-2.8395232999999998,-6.225523,5.8604074,-0.04474111,-0.0063915867,0.07776430000000001,-15.18,16.56,-18.96
1554104185306,-2.6431987,-6.4266357,5.9849057,-0.068176925,0.004261058,0.046871635999999994,-14.94,16.68,-19.14
1554104185326,-2.4181437000000003,-6.517616,6.128557700000001,-0.08522116,0.036218993,0.05752428,-14.76,16.8,-19.26
1554104185346,-2.3511062000000003,-6.4745197,6.023213,-0.098004326,0.07563378,0.047936900000000005,-14.58,16.98,-19.32
1554104185366,-2.3942018,-6.2446766,6.1094040000000005,-0.07989483,0.11824436,0.0031957934000000003,-14.4,17.16,-19.38
1554104185386,-2.7437549999999997,-5.943007,6.0088477,-0.05539375,0.13635385,-0.027696876000000002,-14.22,17.34,-19.38
1554104185406,-2.767697,-5.799355,5.917868,-0.05752428,0.14168017,-0.07669904,-14.04,17.52,-19.38
1554104185425,-3.0214825000000003,-5.828085400000001,6.324882499999999,-0.05006743,0.12570119999999999,-0.15339808,-13.8,17.7,-19.32
1554104185446,-3.083732,-5.823297,6.2865753,-0.012783173500000002,0.11504856,-0.17576863,-13.74,17.76,-19.26
1554104185466,-3.3327288999999998,-5.943007,6.377555,0.004261058,0.099069595,-0.21411815,-13.62,17.82,-19.2
1554104185486,-3.4476504,-6.096236,6.128557700000001,-0.008522116,0.07137272,-0.27164245,-13.56,17.88,-19.14
1554104185506,-3.4380736000000005,-6.350021400000001,6.3392477,-0.039414786,0.058589544,-0.29294774,-13.44,17.94,-19.08
1554104185525,-3.4093432,-6.642114,6.4828997,-0.056459017,0.049002163,-0.28336033,-13.38,17.94,-19.08
1554104185545,-3.4189199999999995,-6.5511346,6.5068417,-0.05006743,0.05752428,-0.25672874,-13.38,18.0,-19.08
1554104185565,-3.4093432,-6.5271926,6.4206505,0.034088463,0.06498113,-0.2545982,-13.38,18.06,-19.08
1554104185586,-3.3518825,-6.4936733,6.1524997,0.15552860000000002,0.05006743,-0.27164245,-13.38,18.06,-19.14
1554104185606,-3.2225955,-6.306926,5.965751999999999,0.22903186,0.036218993,-0.29614353,-13.38,18.06,-19.2
1554104185626,-3.0550013,-6.407482,5.9130797,0.21944448,0.023435817999999997,-0.31318775,-13.38,17.94,-19.26
1554104185645,-3.1172507,-6.488885,5.7502737,0.16618125,0.010652645,-0.31957933,-13.38,17.76,-19.38
1554104185666,-2.9400797,-6.632537400000001,5.740697,0.080960095,-0.02130529,-0.32810146,-13.38,17.52,-19.44
1554104185686,-2.8969840000000002,-6.7666125,5.472546599999999,-0.036218993,-0.05752428,-0.33768883,-13.44,17.34,-19.5
1554104185706,-2.7964275,-6.699575,5.233126,-0.20133498,-0.10333065,-0.3323625,-13.44,17.1,-19.56
1554104185725,-2.7198130000000003,-6.627749000000001,5.213972599999999,-0.43249738,-0.14913702,-0.2972088,-13.56,16.86,-19.62
1554104185745,-2.8443117,-6.938994999999999,5.467758,-0.567786,-0.17470337,-0.28975195,-13.68,16.56,-19.62
1554104185766,-2.906561,-7.1448965,5.635351999999999,-0.68816084,-0.21411815,-0.28229508,-13.86,16.38,-19.68
1554104185785,-2.8155810000000003,-7.3220673,5.6401405,-0.660464,-0.23968449999999997,-0.28655612,-14.04,16.26,-19.68
1554104185806,-2.9592332999999997,-7.2981253,5.61141,-0.52837116,-0.27590349999999997,-0.3334278,-14.22,16.2,-19.62
1554104185825,-3.0071173,-7.2502413,5.7598505,-0.33449304,-0.3270362,-0.40053943,-14.34,16.2,-19.62
1554104185845,-2.9257145,-7.3699512,5.94181,-0.26418558,-0.35473305,-0.41438788,-14.52,16.26,-19.44
1554104185866,-2.834735,-7.4896617,5.9465985,-0.1949434,-0.36751625,-0.41971418,-14.64,16.32,-19.26
1554104185886,-2.7437549999999997,-7.4034699999999996,5.903503,-0.165116,-0.36432046,-0.40266997,-14.7,16.44,-19.08
1554104185905,-2.5761611,-7.3460092999999995,5.893926,-0.15978967,-0.35792887,-0.40586576,-14.76,16.56,-18.84
1554104185926,-2.327164,-7.3699512,6.023213,-0.16405073,-0.350472,-0.42397526,-14.76,16.68,-18.66
1554104185946,-2.0685901999999996,-7.441777,5.9801173,-0.23435818,-0.32810146,-0.41545314,-14.82,16.86,-18.48
1554104185966,-2.0685901999999996,-7.436989,5.8221,-0.3717773,-0.28655612,-0.3749731,-15.0,16.98,-18.24
1554104185985,-2.006341,-7.5136037,5.7933699999999995,-0.49215218,-0.26418558,-0.34727620000000003,-15.24,16.98,-18.06
1554104186005,-1.9488802,-7.6045833,5.6497173,-0.5400891,-0.24501082,-0.32384038,-15.54,16.98,-18.0
1554104186026,-2.087744,-7.834426400000001,5.9561753,-0.5070659000000001,-0.221575,-0.28975195,-15.84,16.98,-17.94
1554104186046,-2.087744,-7.829638,6.1716533,-0.4016047,-0.2130529,-0.25140239999999997,-16.2,16.92,-17.76
1554104186066,-2.1499932,-7.7003509999999995,6.013636,-0.2066613,-0.18748654,-0.21944448,-16.62,16.8,-17.58
1554104186085,-2.4756044999999998,-7.767389,6.1764417,0.025566347000000003,-0.17257284,-0.20453078,-16.98,16.74,-17.34
1554104186106,-2.5761611,-7.5710645,6.2339025,0.19600865,-0.20240025,-0.14913702,-17.34,16.62,-17.16
1554104186125,-2.6623523,-7.647678999999999,6.238691,0.28442562,-0.22583607,-0.047936900000000005,-17.58,16.56,-16.92
1554104186145,-2.7868507,-7.7147164,6.128557700000001,0.33768883,-0.2695119,0.05219796,-17.7,16.5,-16.68
1554104186165,-2.9735985,-7.6572556,6.2339025,0.33449304,-0.31318775,0.13315806,-17.82,16.44,-16.5
1554104186185,-3.1603463,-7.73387,6.377555,0.3536678,-0.33875409999999995,0.19174760000000002,-17.94,16.38,-16.32
1554104186206,-2.8778305,-7.872733599999999,6.2530565000000005,0.42397526,-0.36751625,0.26205507,-18.0,16.38,-16.2
1554104186225,-2.7437549999999997,-7.685986,6.0806737,0.43995422,-0.35899413,0.32810146,-18.0,16.32,-16.14
1554104186245,-2.882619,-7.4992385,6.205172,0.42077947,-0.32490566,0.4101268,-18.0,16.26,-15.96
1554104186265,-2.7485435000000003,-7.49445,6.4110737,0.50387007,-0.29614353,0.5113269,-18.0,16.14,-15.9
1554104186285,-2.4085669999999997,-7.6093717000000005,6.238691,0.6668556,-0.25672874,0.52411014,-18.0,16.08,-15.78
1554104186306,-2.1643584,-7.1592617,6.3153057,0.81705785,-0.17044231,0.53263223,-18.0,16.02,-15.6
1554104186326,-1.9488802,-6.7905545,6.2003837,0.902279,-0.10652645,0.49321744,-18.0,15.96,-15.48
1554104186346,-1.6424223000000002,-6.747458999999999,6.2195373,0.9225190000000001,-0.039414786,0.4101268,-18.0,15.9,-15.36
1554104186367,-1.4796166000000002,-6.7091517000000005,6.3871317,0.89375687,0.01917476,0.36218992,-18.0,15.9,-15.3
1554104186385,-1.1731589,-6.570288000000001,6.401497,0.7765778,0.113983296,0.27696875,-18.0,15.84,-15.3
1554104186406,-1.0486604,-6.4362125,6.320094,0.6359629,0.17257284,0.20133498,-18.0,15.78,-15.42
1554104186426,-1.1013328000000002,-6.177639,6.545148999999999,0.46765109999999993,0.2066613,0.12996227,-18.0,15.54,-15.54
1554104186445,-1.043872,-5.966949,6.4828997,0.28975195,0.22370553,0.058589544,-18.0,15.18,-15.78
1554104186466,-1.1540052,-5.823297,6.3009405,0.12463594,0.23648871,-0.007456851,-18.0,14.82,-15.9
1554104186485,-1.364695,-5.737106,6.6217630000000005,0.046871635999999994,0.23648871,-0.041545313,-18.0,14.46,-16.08
1554104186506,-1.5370774999999999,-5.93343,6.913856,0.13741912,0.21411815,-0.07350325,-17.94,14.04,-16.26
1554104186525,-1.5897499,-5.8328739999999994,6.885125599999999,0.221575,0.18642128,-0.14168017,-17.94,13.68,-16.44
1554104186546,-1.5658079,-5.559935,6.545148999999999,0.27057716,0.1470065,-0.23648871,-17.94,13.32,-16.56
1554104186565,-1.733402,-5.401917500000001,6.2865753,0.19920446,0.09587380000000001,-0.28549087,-17.88,13.02,-16.68
1554104186585,-1.6759412,-5.579088700000001,6.3488245,0.025566347000000003,0.058589544,-0.28975195,-17.88,12.78,-16.86
1554104186605,-1.6472107,-6.057929,6.7941460000000005,-0.18855181,0.002130529,-0.30892670000000005,-17.76,12.78,-17.04
1554104186625,-1.6280571000000001,-6.4218473,7.043143,-0.23222765,-0.01917476,-0.3270362,-17.64,12.78,-17.28
1554104186646,-1.6903063999999999,-6.4218473,6.8085113,-0.18535602,-0.037284255,-0.34621096,-17.52,12.78,-17.46
1554104186666,-1.6711528000000002,-6.3787518,6.779781,-0.14487597,-0.047936900000000005,-0.35792887,-17.4,12.72,-17.7
1554104186685,-1.7286136000000003,-6.603807000000001,6.9808936,-0.15233281,-0.06924219,-0.35899413,-17.28,12.66,-17.82
1554104186705,-1.6903063999999999,-6.5607114,7.124545599999999,-0.16298546,-0.084155895,-0.3653857,-17.16,12.6,-17.94
1554104186726,-1.6711528000000002,-6.503250599999999,7.047931,-0.16085494,-0.068176925,-0.35260254,-17.16,12.48,-18.06
1554104186746,-1.7812861,-6.330868,6.593033,-0.16085494,-0.04474111,-0.3174488,-17.1,12.36,-18.0
1554104186766,-1.8243817,-6.2351,6.353613,-0.18109496,-0.025566347000000003,-0.31638354,-17.16,12.12,-17.94
1554104186786,-1.8195933000000002,-6.2351,6.3009405,-0.23968449999999997,-0.015978966,-0.34621096,-17.22,11.88,-17.82
1554104186806,-2.0398598000000003,-6.2542534000000005,6.2003837,-0.30786142,-0.011717908999999999,-0.37923414,-17.28,11.7,-17.76
1554104186826,-2.111686,-6.259042,6.0088477,-0.38882150000000004,-0.02130529,-0.38882150000000004,-17.34,11.46,-17.7
1554104186846,-2.1212628,-6.546346,6.1381345000000005,-0.45806372,-0.054328485999999995,-0.3749731,-17.46,11.34,-17.64
1554104186866,-2.0159178,-6.996455999999999,6.18123,-0.50813115,-0.094808534,-0.38349520000000004,-17.58,11.28,-17.64
1554104186886,-1.9105729999999999,-7.1305312999999995,6.3631897,-0.52411014,-0.10546118,-0.386691,-17.64,11.28,-17.58
1554104186905,-2.0111293999999997,-7.2885485,6.4876879999999995,-0.50387007,-0.10013486,-0.35260254,-17.7,11.28,-17.46
1554104186925,-2.1068976000000004,-7.5327573,6.63134,-0.44528055,-0.1107875,-0.30466563,-17.76,11.34,-17.4
1554104186946,-1.8148049,-7.911041,6.7893577,-0.36645097,-0.13422333,-0.27483824,-17.82,11.46,-17.28
1554104186966,-1.7286136000000003,-7.839214999999999,6.9521630000000005,-0.25566345,-0.12037488,-0.24074976,-17.88,11.58,-17.22
1554104186985,-1.8052281000000003,-7.6764092,6.7606273,-0.15233281,-0.09161274,-0.16831179,-17.94,11.64,-17.1
1554104187005,-1.7812861,-7.4465656000000005,6.63134,-0.12463594,-0.05965481,-0.083090626,-18.0,11.76,-16.92
1554104187026,-1.9249381999999997,-7.374739599999999,6.5403605,-0.14913702,-0.03834952,-0.024501082,-18.06,11.82,-16.74
1554104187046,-1.9057846,-7.4465656000000005,6.712743,-0.16937704,-0.025566347000000003,0.012783173500000002,-18.18,11.88,-16.62
1554104187066,-1.8052281000000003,-7.4322004,6.5212069999999995,-0.17789917,-0.027696876000000002,0.06391586,-18.24,11.94,-16.56
1554104187086,-1.733402,-7.3268557,6.353613,-0.16937704,-0.023435817999999997,0.11504856,-18.3,12.0,-16.5
1554104187105,-1.6280571000000001,-7.3124905,6.3727665,-0.12570119999999999,-0.025566347000000003,0.17576863,-18.42,12.12,-16.38
1554104187125,-1.5801731,-7.211933999999999,6.214748999999999,-0.08841695,-0.02130529,0.2066613,-18.48,12.18,-16.38
1554104187147,-1.6567876,-7.2023573,6.1668650000000005,-0.05006743,-0.018109497,0.21837921,-18.54,12.3,-16.32
1554104187166,-1.6089035,-7.2454529999999995,6.2243257000000005,-0.034088463,-0.018109497,0.22583607,-18.6,12.3,-16.32
1554104187186,-1.5993267,-7.178415299999999,6.2243257000000005,-0.041545313,-0.020240024,0.22477080000000002,-18.66,12.36,-16.26
1554104187207,-1.6041151000000002,-7.154473299999999,6.1477113,-0.07030745599999999,-0.026631612000000002,0.22796659,-18.66,12.48,-16.2
1554104187226,-1.5179238000000002,-7.044339999999999,6.1524997,-0.10226539,-0.015978966,0.2428803,-18.72,12.54,-16.08
1554104187245,-1.5370774999999999,-7.149685000000001,6.095039,-0.10013486,0.0063915867,0.25033715,-18.72,12.66,-16.02
1554104187265,-1.5466543,-7.178415299999999,5.951387,-0.09054748,0.02876214,0.22690132,-18.72,12.72,-15.9
1554104187285,-1.5945383,-7.0491285,6.1620764999999995,-0.099069595,0.051132694000000006,0.20133498,-18.72,12.9,-15.84
1554104187305,-1.5897499,-7.1065892999999996,6.118981,-0.10333065,0.068176925,0.19600865,-18.72,13.26,-15.78
1554104187326,-1.5993267,-7.2215110000000005,5.975329,-0.10439592,0.084155895,0.2066613,-18.72,13.56,-15.72
1554104187346,-1.6089035,-7.2885485,6.157287999999999,-0.07669904,0.09587380000000001,0.19813919,-18.72,13.98,-15.72
1554104187365,-1.6424223000000002,-7.341221000000001,6.291363700000001,-0.029827405,0.09161274,0.14168017,-18.72,14.4,-15.66
1554104187386,-1.6041151000000002,-7.3843164,6.458957700000001,0.04261058,0.08948222,0.080960095,-18.72,14.82,-15.72
1554104187406,-1.5466543,-7.2885485,6.4637459999999995,0.12996227,0.09054748,0.015978966,-18.72,15.24,-15.78
1554104187425,-1.6472107,-7.2262993,6.18123,0.15659387,0.101200126,-0.03834952,-18.66,15.66,-15.84
1554104187446,-1.5993267,-7.0730705,6.1237693,0.14168017,0.10013486,-0.07137272,-18.6,15.96,-15.84
1554104187466,-1.6232687,-6.9485717000000005,5.975329,0.08735169,0.08735169,-0.14061491,-18.54,16.08,-15.9
1554104187485,-1.5227122,-7.053917,5.9465985,0.05006743,0.06924219,-0.18002969,-18.48,16.26,-15.96
1554104187506,-1.364695,-6.9581485,5.960963700000001,-0.014913702,0.01917476,-0.20985709,-18.36,16.32,-15.96
1554104187526,-1.292869,-6.9246297000000006,5.8268886,-0.07243799,-0.002130529,-0.2034655,-18.3,16.32,-15.96
1554104187546,-1.3455413999999999,-6.9677253,5.7790045999999995,-0.14487597,0.002130529,-0.18748654,-18.24,16.32,-16.02
1554104187566,-1.2593501,-7.053917,6.085462000000001,-0.20240025,0.010652645,-0.16618125,-18.18,16.32,-15.96
1554104187585,-1.1827357,-7.2167225,6.1668650000000005,-0.22690132,0.023435817999999997,-0.15446335,-18.12,16.26,-16.02
1554104187605,-1.2545617,-7.1592617,5.994482499999999,-0.21518342,0.04261058,-0.14487597,-18.12,16.26,-16.02
1554104187627,-1.2401965,-7.101800999999999,6.0088477,-0.16724652,0.051132694000000006,-0.12037488,-18.12,16.2,-16.02
1554104187646,-1.3886370000000001,-7.116166000000001,6.06152,-0.10652645,0.046871635999999994,-0.10439592,-18.12,16.2,-16.02
1554104187666,-1.2785037000000001,-7.255029700000001,6.1620764999999995,-0.035153727999999995,0.04261058,-0.10972224,-18.12,16.14,-16.02
1554104187685,-1.3359646,-7.0874357,6.1955953,0.034088463,0.05752428,-0.11824436,-18.12,16.14,-16.02
1554104187705,-1.292869,-7.015609700000001,6.06152,0.07243799,0.07776430000000001,-0.11930962,-18.12,16.2,-16.02
1554104187726,-1.484405,-7.0012445,6.071097,0.058589544,0.101200126,-0.11504856,-18.12,16.2,-16.02
1554104187746,-1.5562311000000002,-6.977302000000001,6.013636,0.013848438000000001,0.12357068,-0.13528858,-18.06,16.2,-16.02
1554104187766,-1.5849615,-7.1209545,6.085462000000001,-0.034088463,0.13848437,-0.16085494,-18.06,16.2,-16.02
1554104187786,-1.5897499,-7.2646065,6.2482677,-0.046871635999999994,0.16192019,-0.16405073,-18.0,16.26,-16.02
1554104187806,-1.7190368000000003,-7.5710645,5.965751999999999,-0.025566347000000003,0.17257284,-0.16298546,-17.94,16.32,-16.02
1554104187825,-1.7477672,-7.7865424,6.186018499999999,0.0053263223,0.18216023,-0.16937704,-17.94,16.38,-16.08
1554104187846,-1.5849615,-7.9062524000000005,6.2339025,0.07776430000000001,0.1949434,-0.18109496,-17.88,16.44,-16.14
1554104187865,-1.661576,-7.882310400000001,5.9849057,0.18109496,0.22690132,-0.2066613,-17.82,16.38,-16.14
1554104187885,-1.7190368000000003,-7.6333137,5.9561753,0.22583607,0.2609898,-0.22264028,-17.76,16.38,-16.2
1554104187906,-1.7812861,-7.504027000000001,5.7646394,0.17789917,0.2876214,-0.21837921,-17.76,16.32,-16.32
1554104187926,-1.8818424999999999,-7.3843164,5.668871,0.13315806,0.29933932,-0.21092236,-17.7,16.26,-16.32
1554104187945,-2.0207062,-7.422623599999999,5.4342394,0.07882957,0.30679616,-0.20559604,-17.58,16.02,-16.5
1554104187966,-1.9728221999999997,-7.4465656000000005,5.3624134,0.051132694000000006,0.32597092,-0.21731395,-17.52,15.9,-16.62
1554104187987,-2.1452047999999997,-7.3699512,5.0511669999999995,0.056459017,0.37390783,-0.23435818,-17.4,15.6,-16.86
1554104188006,-2.0685901999999996,-7.3938932,4.988918,0.022370555,0.40373522,-0.25566345,-17.22,15.42,-16.98
1554104188026,-1.9919758,-7.3843164,5.0224366,-0.040480047000000005,0.4101268,-0.29614353,-17.04,15.12,-17.16
1554104188048,-2.0302830000000003,-7.341221000000001,4.9506106,-0.10865697,0.4079963,-0.31638354,-16.98,14.94,-17.28
1554104188065,-2.1499932,-7.5950065,4.9841294000000005,-0.22583607,0.38349520000000004,-0.31318775,-16.68,14.58,-17.64
1554104188086,-2.1643584,-7.73387,5.415086,-0.26418558,0.34621096,-0.28975195,-16.56,14.46,-17.82
1554104188105,-2.3032220000000003,-7.844003,5.486912,-0.20026971,0.31212249999999997,-0.257794,-16.5,14.34,-17.94
1554104188125,-2.2218192,-7.834426400000001,5.606621700000001,-0.10759171,0.27057716,-0.21092236,-16.38,14.28,-18.12
1554104188145,-2.3463178,-7.662044,5.587468,-0.017044231,0.22796659,-0.18429075,-16.26,14.16,-18.3
1554104188166,-2.5139117000000004,-7.5710645,5.568314599999999,0.027696876000000002,0.17789917,-0.165116,-16.26,14.1,-18.48
1554104188185,-2.4708161,-7.623736999999999,5.453393,0.0,0.13209279,-0.12783173,-16.2,14.1,-18.6
1554104188205,-2.4468741,-7.729081599999999,5.453393,-0.040480047000000005,0.08841695,-0.10546118,-16.08,14.1,-18.66
1554104188225,-2.3032220000000003,-7.6428905,5.515642,-0.080960095,0.05219796,-0.12996227,-15.96,14.16,-18.72
1554104188246,-2.5378537,-7.504027000000001,5.391144000000001,-0.1107875,0.02130529,-0.14168017,-15.78,14.22,-18.72
1554104188265,-2.5713725,-7.527969000000001,5.4390279999999995,-0.13102753,-0.017044231,-0.094808534,-15.6,14.22,-18.78
1554104188285,-2.7150247000000003,-7.719505000000001,5.467758,-0.14168017,-0.07563378,-0.025566347000000003,-15.48,14.22,-18.84
1554104188306,-2.6623523,-7.709928,5.807735,-0.10972224,-0.15659387,0.03834952,-15.36,14.22,-18.9
1554104188326,-2.5570072999999995,-7.709928,5.7215432999999996,-0.06391586,-0.22370553,0.03834952,-15.24,14.22,-18.96
1554104188345,-2.3319526,-7.681197599999999,5.61141,-0.036218993,-0.2876214,0.07882957,-15.12,14.16,-18.96
1554104188365,-2.1643584,-7.566275999999999,5.6257753,-0.053263225,-0.33555830000000003,0.128897,-15.12,14.16,-19.02
1554104188386,-1.9919758,-7.623736999999999,5.415086,-0.06711166,-0.36005938,0.1470065,-15.12,14.22,-19.02
1554104188405,-1.8100165000000001,-7.49445,5.213972599999999,-0.015978966,-0.36645097,0.18002969,-15.12,14.28,-19.02
1554104188426,-1.9393034,-7.2981253,5.319318,0.06924219,-0.36964676,0.17789917,-15.12,14.46,-19.02
1554104188446,-1.9488802,-7.140108000000001,5.146935,0.14594123,-0.38349520000000004,0.1587244,-15.18,14.64,-18.9
1554104188465,-1.8195933000000002,-7.0491285,5.156512,0.19068234,-0.40053943,0.12463594,-15.24,14.82,-18.84
1554104188485,-1.8291701,-6.9246297000000006,5.1996074,0.18216023,-0.4165184,0.10759171,-15.36,14.94,-18.72
1554104188505,-1.6950948000000001,-7.1592617,5.218761,0.1107875,-0.44315,0.113983296,-15.48,15.12,-18.66
1554104188526,-1.5131354,-7.4896617,5.415086,0.084155895,-0.44421527,0.11930962,-15.6,15.3,-18.54
1554104188546,-1.3311761999999998,-7.590217999999999,5.482123400000001,0.08628642,-0.43782368,0.08522116,-15.78,15.36,-18.42
1554104188566,-1.3359646,-7.796119,5.635351999999999,0.098004326,-0.42717105,0.05219796,-15.96,15.42,-18.3
1554104188586,-1.1827357,-7.891887,5.893926,0.14913702,-0.40266997,0.02130529,-16.26,15.48,-18.18
1554104188606,-1.1779473,-8.059482000000001,5.927445,0.2609898,-0.38775626,-0.007456851,-16.56,15.42,-18.06
1554104188626,-1.1156979999999999,-7.973290400000001,5.869984,0.36964676,-0.37390783,-0.04580637,-16.86,15.42,-18.0
1554104188645,-1.1109096,-7.6189485,5.7215432999999996,0.41758367,-0.34940675,-0.07137272,-17.1,15.36,-17.88
1554104188666,-1.0486604,-7.5136037,5.7790045999999995,0.40053943,-0.30253512,-0.06498113,-17.46,15.36,-17.7
1554104188686,-1.0630256,-7.753023599999999,5.817312,0.42717105,-0.27696875,-0.053263225,-17.58,15.3,-17.64
1554104188705,-1.0486604,-7.685986,5.846042,0.5305017,-0.27164245,-0.07350325,-17.76,15.12,-17.46
1554104188726,-1.0342950999999998,-7.283760000000001,5.6976013,0.6625945,-0.27590349999999997,-0.12783173,-17.94,14.94,-17.28
1554104188745,-1.2497733,-7.1209545,5.8412538,0.7254451,-0.28655612,-0.16298546,-18.06,14.58,-17.16
1554104188766,-1.1587936,-6.9581485,5.869984,0.6870956,-0.3270362,-0.17576863,-18.18,14.04,-16.98
1554104188785,-1.1109096,-6.8288617,6.047155,0.5763081,-0.38562572,-0.19281286,-18.3,13.56,-16.86
1554104188806,-1.2449848999999997,-6.7330937,6.18123,0.35260254,-0.47297743,-0.20026971,-18.48,12.72,-16.74
1554104188826,-1.2162545,-6.7283053,6.0327897,0.2066613,-0.5219796,-0.18109496,-18.54,12.42,-16.68
1554104188846,-1.1779473,-6.5990186,6.2530565000000005,0.0,-0.5773733,-0.13848437,-18.66,11.82,-16.56
1554104188865,-1.0821792,-6.7283053,6.4206505,-0.18109496,-0.62104917,-0.07776430000000001,-18.78,11.16,-16.56
1554104188886,-1.2641385,-6.8671690000000005,6.583456,-0.24501082,-0.6562029,0.010652645,-18.9,10.56,-16.56
1554104188906,-1.13964,-7.4322004,6.865972,-0.08841695,-0.721184,0.12250541,-19.02,10.02,-16.44
1554104188926,-1.0295067,-7.1927805,7.129334,0.10333065,-0.7616641,0.18855181,-19.14,9.84,-16.32
1554104188945,-0.94810385,-7.283760000000001,7.143699000000001,0.28868666,-0.7882956999999999,0.24607609,-19.38,9.66,-16.14
1554104188965,-0.6607997,-7.2789717000000005,7.062296400000001,0.44208476,-0.793622,0.31212249999999997,-19.68,9.54,-15.84
1554104188986,-0.4261679,-7.211933999999999,7.0048356,0.6103965,-0.80533993,0.32384038,-20.04,9.42,-15.42
1554104189006,-0.40701428,-6.8623804999999996,7.277775,0.6380934,-0.7957525,0.33662358,-20.34,9.48,-15.0
1554104189026,-0.33039984,-6.522404,6.995259,0.47191215,-0.7797736,0.3536678,-20.64,9.54,-14.52
1554104189046,-0.5793968,-6.4362125,6.971317,0.20985709,-0.7456851,0.4016047,-21.0,9.6,-14.16
1554104189066,-0.48362875,-6.455366000000001,6.947375,-0.14168017,-0.71798825,0.49854377,-21.36,9.66,-13.8
1554104189085,-0.35913026,-6.4362125,6.84203,-0.49641323,-0.70200926,0.5603291,-21.78,9.6,-13.5
1554104189105,-0.31603462,-6.5607114,6.9665284,-0.74781567,-0.6860303000000001,0.5635249,-22.02,9.66,-13.14
1554104189125,-0.17717093,-6.9150529999999995,7.282563000000001,-0.75420725,-0.6402239000000001,0.59122175,-22.26,9.72,-12.78
1554104189146,0.019153614,-7.1065892999999996,7.474099000000001,-0.47723848,-0.5656554,0.6221144000000001,-22.5,9.96,-12.3
1554104189165,0.13407529999999998,-6.83365,7.177217999999999,-0.054328485999999995,-0.49534798,0.5390238,-22.8,10.26,-11.76
1554104189186,0.20111294,-6.3643866,6.712743,0.12250541,-0.45593318,0.47297743,-23.1,10.68,-11.16
1554104189205,0.30645782,-6.239888,6.5212069999999995,0.060720075,-0.41758367,0.44954160000000004,-23.34,11.16,-10.56
1554104189226,-0.033518825,-6.4218473,6.645705,-0.09587380000000001,-0.39627838,0.42930159999999995,-23.52,11.7,-9.9
1554104189246,0.7134720999999999,-6.632537400000001,6.918644400000001,-0.19600865,-0.4079963,0.41225734,-23.82,12.24,-9.3
1554104189266,0.6512229,-6.761824000000001,7.2873516,-0.21944448,-0.36112466,0.32597092,-24.0,12.78,-8.76
1554104189286,0.6799533,-6.7330937,7.3974850000000005,-0.21944448,-0.34940675,0.26738137,-24.18,13.32,-8.28
1554104189305,0.7038953,-6.761824000000001,7.1867948,-0.1107875,-0.31638354,0.18748654,-24.3,13.8,-7.98
1554104189326,0.59855044,-6.469731299999999,7.119757000000001,0.0053263223,-0.29188246,0.12250541,-24.36,14.28,-7.74
1554104189345,0.40222588,-6.3404446,6.889914,0.06711166,-0.27590349999999997,0.080960095,-24.42,14.7,-7.5
1554104189366,0.4405331,-6.345233,6.827665,0.04261058,-0.25246766,0.06285059999999999,-24.48,15.06,-7.26
1554104189387,0.24899697,-6.4122705,7.014412400000001,-0.015978966,-0.22690132,0.02876214,-24.54,15.36,-6.96
1554104189406,0.2873042,-6.464943,6.9808936,-0.06178534,-0.18961707,-0.008522116,-24.48,15.72,-6.72
1554104189426,0.19153613,-6.579865,6.870760400000001,-0.05965481,-0.15339808,-0.04261058,-24.42,16.02,-6.48
1554104189446,0.25857377,-6.4362125,6.569091,-0.05006743,-0.13528858,-0.09054748,-24.48,16.26,-6.3
1554104189465,0.37828386,-6.503250599999999,6.6600703999999995,-0.07882957,-0.12037488,-0.12463594,-24.48,16.44,-6.12
1554104189486,0.34476504,-6.7187285,6.401497,-0.14594123,-0.098004326,-0.13635385,-24.54,16.5,-6.0
1554104189506,0.4405331,-6.7283053,6.4924764999999995,-0.21837921,-0.083090626,-0.15339808,-24.6,16.56,-5.94
1554104189526,0.61770403,-6.800131299999999,6.4637459999999995,-0.31957933,-0.07456851,-0.165116,-24.66,16.56,-5.88
1554104189545,0.6560113000000001,-6.819285000000001,6.401497,-0.45806372,-0.06391586,-0.17576863,-24.72,16.56,-5.76
1554104189565,0.60333884,-7.0395517000000005,6.4876879999999995,-0.5944176,-0.06604639400000001,-0.1768339,-24.78,16.56,-5.7
1554104189585,0.5746084,-7.2071457,6.367978,-0.69668293,-0.06924219,-0.17470337,-24.84,16.5,-5.64
1554104189605,0.4357447,-7.561487700000001,6.27221,-0.8586031999999999,-0.036218993,-0.15978967,-24.9,16.44,-5.52
1554104189626,0.40701428,-7.5710645,6.1620764999999995,-1.1824435,-0.015978966,-0.09374327,-24.9,16.44,-5.46
1554104189645,0.41180268,-7.963713,5.8651957999999995,-1.6074841,0.008522116,-0.0063915867,-24.9,16.38,-5.34
1554104189665,0.26815059999999996,-8.638878,5.5826797,-2.0367856,0.08841695,0.10439592,-24.9,16.38,-5.16
1554104189686,0.06703765,-9.438541,4.931457,-2.5843315,0.221575,0.36432046,-24.96,16.5,-4.56
1554104189707,-0.41180268,-10.137649,4.68246,-2.9166942000000002,0.33768883,0.6018744,-24.96,16.92,-4.14
1554104189728,-0.25378537,-10.817602,5.209184,-3.093528,0.49428272,0.8202536,-24.96,17.58,-3.72
1554104189746,-0.7374141,-11.071387,4.706402,-3.0956585,0.6061354999999999,0.92997587,-24.96,18.48,-3.24
1554104189767,-1.8148049,-11.401786999999999,3.7630866000000003,-2.8410604,0.7073356,1.2218584,-24.96,19.56,-2.7
1554104189786,-2.4085669999999997,-11.406575,2.949058,-2.4319987000000003,0.6764429,1.5840483,-24.9,20.88,-2.16
1554104189806,-2.4947581000000003,-12.129624,2.6952724,-1.7214673999999999,0.6487460999999999,1.9110843999999998,-24.72,22.68,-1.56
1554104189825,-2.6767175,-12.311583500000001,2.460641,-1.0620687,0.6221144000000001,2.1198764,-24.42,24.66,-0.96
1554104189845,-3.1507695,-11.291654,2.3744495,-0.6593986999999999,0.5944176,2.2700787,-23.94,26.76,-0.42
1554104189865,-3.5673605999999998,-10.333973,1.7280151000000001,-0.5422196,0.47830373,2.420281,-23.28,28.74,0.12
1554104189885,-3.7684733999999995,-9.874286999999999,1.335366,-0.58056915,0.37390783,2.5768747000000003,-22.98,29.76,0.42
1554104189905,-4.003105000000001,-9.371504,1.2443863000000002,-0.5752428,0.16831179,2.8144287999999995,-21.84,33.06,1.2
1554104189925,-4.209007,-9.045893,1.3976152,-0.3749731,0.068176925,2.8091022999999997,-20.88,35.46,1.68
1554104189946,-4.6782703,-8.322844,1.0767921999999999,-0.38775626,-0.06604639400000001,2.735599,-19.74,37.92,2.22
1554104189966,-4.8745947,-7.6907744000000005,0.8900445,-0.608266,-0.16831179,2.743056,-18.42,40.2,2.7
1554104189985,-5.272032299999999,-7.422623599999999,0.45429978,-0.74675035,-0.26738137,2.7462517999999996,-16.98,42.54,3.12
1554104190006,-5.530606,-6.795342999999999,0.66020113,-0.7584683000000001,-0.39521313,2.621616,-15.48,44.88,3.54
1554104190026,-5.363012,-6.350021400000001,0.75596917,-0.664725,-0.46978164,2.4937842,-13.92,47.16,3.96
1554104190045,-5.4683566,-6.000468,0.6362591,-0.48043427,-0.46552056,2.2732744,-12.18,49.5,4.38
1554104190065,-5.7939680000000005,-5.919065,0.74639237,-0.39627838,-0.43462790000000007,2.1465080000000003,-10.44,51.66,5.04
1554104190086,-5.765238,-5.535993,0.87567925,-0.2545982,-0.38242993,1.9025623,-8.7,53.46,5.76
1554104190105,-5.645528,-5.3540335,1.0528502,-0.09374327,-0.37816888,1.784318,-7.8,54.3,6.06
1554104190125,-5.861006,-4.88477,0.65541273,0.34088463,-0.29614353,1.442368,-5.52,56.58,6.84
1554104190146,-6.291962,-4.5926776,0.81343,0.3536678,-0.19281286,1.2186625,-4.14,57.84,7.32
1554104190166,-6.272808599999999,-4.43466,1.158195,0.38029942,-0.14594123,0.9171927,-2.88,58.8,7.74
1554104190185,-6.253655,-4.583101,0.85173726,0.45806372,-0.09587380000000001,0.62531024,-1.8,59.7,8.16
1554104190205,-6.900089299999999,-4.6980224,0.66498953,0.3717773,-0.022370555,0.45912898,-0.78,60.18,8.46
1554104190226,-7.359775999999999,-4.803367,0.87089086,0.23116238,-0.015978966,0.36432046,0.24,60.6,8.58
1554104190246,-7.1634517,-4.702811,0.84216046,0.11611383,-0.046871635999999994,0.25140239999999997,1.14,61.2,8.64
1554104190266,-7.5273699999999995,-4.7267528,1.0049661,0.15446335,-0.07137272,0.14061491,1.86,61.56,8.58
1554104190286,-7.967903,-4.6884456,1.1198878,0.14168017,-0.083090626,0.09054748,2.46,61.8,8.58
1554104190306,-8.226477000000001,-4.7985787,1.3976152,-0.013848438000000001,-0.08522116,0.08735169,2.94,62.04,8.52
1554104190326,-8.322245,-4.745906400000001,1.4694413,-0.23648871,-0.07989483,0.101200126,3.3,62.28,8.46
1554104190346,-8.37013,-4.7842135,1.3784616000000003,-0.3536678,-0.094808534,0.12037488,3.54,62.46,8.34
1554104190366,-8.504205,-4.8320975,1.4550761,-0.29294774,-0.10652645,0.13209279,3.78,62.7,8.28
1554104190386,-8.470686,-4.8704047,1.8142063999999998,-0.07137272,-0.09374327,0.12037488,3.78,62.94,8.22
1554104190406,-8.336611,-4.7698483,1.9339164,0.12783173,-0.068176925,0.080960095,3.78,63.0,8.22
1554104190426,-8.255207,-4.779425,1.6801311,0.22050974,-0.04580637,0.068176925,3.72,63.12,8.22
1554104190446,-8.456321,-4.717176,1.4263457,0.1949434,-0.037284255,0.09161274,3.72,63.24,8.22
1554104190465,-8.643068,-4.6501384,1.2252326999999998,0.094808534,-0.058589544,0.10865697,3.72,63.36,8.22
1554104190485,-8.327033,-4.851251,1.4215573000000001,-0.0031957934000000003,-0.09054748,0.111852765,3.78,63.48,8.22
1554104190506,-8.350976,-4.956596,1.4598645000000001,-0.07350325,-0.10013486,0.12996227,3.78,63.6,8.22
1554104190526,-8.422802,-4.812944,1.4263457,-0.1107875,-0.12037488,0.17150758,3.78,63.66,8.28
1554104190545,-8.231264999999999,-4.76506,1.4502877,-0.12037488,-0.12570119999999999,0.18961707,3.84,63.6,8.28
1554104190565,-8.125919999999999,-4.621408,1.3976152,-0.113983296,-0.12037488,0.17576863,3.9,63.6,8.28
1554104190587,-8.259995,-4.741118,1.5029601000000001,-0.083090626,-0.12357068,0.14168017,4.08,63.6,8.34
1554104190606,-8.125919999999999,-4.554370400000001,1.6657659,-0.08628642,-0.113983296,0.1438107,4.2,63.54,8.34
1554104190626,-7.9008656,-4.4921207,1.7615339,-0.083090626,-0.099069595,0.14168017,4.32,63.54,8.34
1554104190646,-7.785944000000001,-4.420294999999999,1.7567455,-0.07456851,-0.08735169,0.10759171,4.44,63.54,8.34
1554104190665,-7.972691499999999,-4.6501384,1.5125369,-0.058589544,-0.054328485999999995,0.05006743,4.56,63.6,8.4
1554104190686,-8.183380999999999,-4.654927,1.359308,-0.07137272,-0.035153727999999995,0.0063915867,4.68,63.6,8.4
1554104190706,-8.078036,-4.6501384,1.3305776000000002,-0.14274544,-0.015978966,-0.03834952,4.8,63.6,8.46
1554104190725,-8.154651,-4.7219644,1.3736732,-0.24607609,-0.015978966,-0.05752428,4.86,63.6,8.52
1554104190747,-8.154651,-5.0092683,1.5173253,-0.31318775,-0.010652645,-0.06924219,4.92,63.6,8.58
1554104190765,-8.327033,-5.0284224,1.38325,-0.25885928,-0.013848438000000001,-0.068176925,4.98,63.6,8.58
1554104190786,-8.39886,-4.980538,1.4550761,-0.112918034,-0.022370555,-0.056459017,4.98,63.54,8.58
1554104190806,-8.48984,-4.779425,1.4646529,-0.05965481,-0.015978966,-0.039414786,5.04,63.54,8.64
1554104190825,-8.595184,-4.851251,1.4502877,-0.06924219,-0.015978966,-0.033023197000000004,5.04,63.54,8.7
1554104190846,-8.485051,-4.702811,1.4263457,-0.12676647,-0.025566347000000003,-0.012783173500000002,5.1,63.48,8.76
1554104190866,-8.446744,-4.836886,1.5604209999999998,-0.11504856,-0.02876214,0.0063915867,5.1,63.48,8.82
1554104190885,-8.499416,-4.774636699999999,1.5269021,-0.07669904,-0.034088463,0.039414786,5.16,63.48,8.94
1554104190905,-8.394072,-4.836886,1.5221136999999998,0.0010652645,-0.013848438000000001,0.04474111,5.16,63.48,9.0
1554104190925,-8.250419,-4.755483,1.4407108999999998,0.05219796,0.0,0.033023197000000004,5.22,63.48,9.06
1554104190946,-8.327033,-4.554370400000001,1.6705543,0.08841695,0.025566347000000003,0.014913702,5.28,63.54,9.18
1554104190966,-8.437167,-4.439448400000001,1.4359225,0.09267801,0.020240024,0.012783173500000002,5.34,63.6,9.3
1554104190986,-8.394072,-4.511274299999999,1.3257892,0.10546118,0.008522116,0.0053263223,5.4,63.66,9.3
1554104191006,-8.403648,-4.530428,1.2348095,0.096939065,0.0053263223,-0.010652645,5.4,63.72,9.36
1554104191025,-8.480263,-4.5926776,1.2635399,0.051132694000000006,0.013848438000000001,-0.013848438000000001,5.52,63.78,9.36
1554104191046,-8.461109,-4.5016975,1.5029601000000001,0.024501082,0.02130529,-0.0063915867,5.58,63.84,9.42
1554104191067,-8.394072,-4.549582,1.4311341,0.03089267,0.024501082,-0.004261058,5.58,63.9,9.42
1554104191086,-8.580819,-4.4442368,1.3688848,0.018109497,0.024501082,-0.015978966,5.64,63.9,9.42
1554104191106,-8.580819,-4.5352163,1.2731166999999999,-0.010652645,0.007456851,-0.010652645,5.64,63.9,9.48
1554104191126,-8.350976,-4.6501384,1.3640964,-0.011717908999999999,-0.002130529,0.0031957934000000003,5.64,63.96,9.48
1554104191146,-8.360553,-4.482544,1.4359225,0.00958738,0.0053263223,0.002130529,5.7,63.96,9.48
1554104191166,-8.427589999999999,-4.578312400000001,1.287482,0.0063915867,0.015978966,-0.018109497,5.7,63.96,9.48
1554104191187,-8.48984,-4.554370400000001,1.2635399,-0.03089267,0.008522116,-0.018109497,5.7,63.96,9.54
1554104191206,-8.293514,-4.6022544000000005,1.4311341,-0.011717908999999999,-0.002130529,-0.012783173500000002,5.7,63.96,9.54
1554104191225,-8.298303,-4.6501384,1.3305776000000002,0.04261058,-0.004261058,-0.034088463,5.7,63.96,9.6
1554104191246,-8.513782,-4.5687356,1.2683283,0.041545313,0.017044231,-0.049002163,5.7,63.96,9.6
1554104191266,-8.537724,-4.554370400000001,1.2204443,0.004261058,0.023435817999999997,-0.04580637,5.7,63.9,9.66
1554104191285,-8.513782,-4.578312400000001,1.3162124,-0.03089267,0.014913702,-0.039414786,5.7,63.9,9.72
1554104191305,-8.470686,-4.540005000000001,1.2635399,-0.033023197000000004,0.0063915867,-0.03834952,5.7,63.9,9.78
1554104191326,-8.446744,-4.549582,1.3497312,-0.014913702,0.008522116,-0.03834952,5.7,63.9,9.78
1554104191346,-8.504205,-4.43466,1.4838065,-0.0063915867,0.013848438000000001,-0.039414786,5.7,63.9,9.84
1554104191366,-8.384495,-4.439448400000001,1.4119805,-0.0053263223,0.018109497,-0.037284255,5.7,63.96,9.84
1554104191385,-8.475474,-4.554370400000001,1.3305776000000002,-0.010652645,0.012783173500000002,-0.04580637,5.7,64.02,9.78
1554104191405,-8.513782,-4.4777555,1.2970588,-0.025566347000000003,0.0063915867,-0.05006743,5.76,64.08,9.78
1554104191426,-8.446744,-4.6261964,1.3018471999999999,-0.047936900000000005,-0.0010652645,-0.049002163,5.76,64.14,9.72
1554104191445,-8.475474,-4.6022544000000005,1.287482,-0.040480047000000005,0.0010652645,-0.047936900000000005,5.7,64.14,9.66
1554104191465,-8.384495,-4.5926776,1.3640964,-0.024501082,0.013848438000000001,-0.053263225,5.64,64.2,9.6
1554104191486,-8.566454,-4.43466,1.3162124,-0.029827405,0.010652645,-0.07243799,5.58,64.26,9.48
1554104191505,-8.63828,-4.4921207,1.3018471999999999,-0.035153727999999995,0.002130529,-0.06924219,5.52,64.26,9.48
1554104191526,-8.561666,-4.635773,1.3784616000000003,-0.06391586,-0.015978966,-0.039414786,5.52,64.26,9.36
1554104191546,-8.312667999999999,-4.587889,1.4407108999999998,-0.058589544,-0.007456851,-0.037284255,5.46,64.2,9.3
1554104191565,-8.350976,-4.563947,1.2970588,-0.023435817999999997,0.00958738,-0.049002163,5.46,64.2,9.3
1554104191585,-8.384495,-4.583101,1.2300211,-0.00958738,0.014913702,-0.058589544,5.52,64.2,9.36
1554104191606,-8.48984,-4.6884456,1.1150993999999999,-0.025566347000000003,0.010652645,-0.05752428,5.52,64.14,9.42
1554104191625,-8.365341,-4.6022544000000005,1.3545196000000002,-0.029827405,0.010652645,-0.054328485999999995,5.46,64.14,9.48
1554104191645,-8.379706,-4.6405616,1.2731166999999999,-0.035153727999999995,0.015978966,-0.054328485999999995,5.4,64.08,9.54
1554104191666,-8.283937,-4.5687356,1.2491747,-0.034088463,0.02130529,-0.058589544,5.34,64.08,9.6
1554104191686,-8.283937,-4.597466000000001,1.3018471999999999,-0.007456851,0.024501082,-0.06604639400000001,5.28,64.08,9.72
1554104191706,-8.403648,-4.630985,1.2060791000000002,0.004261058,0.02876214,-0.06924219,5.22,64.08,9.78
1554104191725,-8.446744,-4.5926776,1.1007341999999998,-0.008522116,0.036218993,-0.060720075,5.22,64.08,9.84
1554104191745,-8.475474,-4.7123876,1.1629834,-0.035153727999999995,0.04474111,-0.04580637,5.16,64.08,9.9
1554104191766,-8.446744,-4.5926776,1.1917138999999999,-0.041545313,0.039414786,-0.034088463,5.22,64.08,9.9
1554104191785,-8.422802,-4.4777555,1.3497312,-0.017044231,0.04261058,-0.037284255,5.28,64.08,9.9
1554104191805,-8.384495,-4.5687356,1.3066356000000001,0.008522116,0.046871635999999994,-0.05219796,5.34,64.08,9.9
1554104191826,-8.561666,-4.5016975,1.0049661,-0.0010652645,0.05539375,-0.06391586,5.4,64.08,9.96
1554104191846,-8.504205,-4.530428,1.1055226,-0.058589544,0.05006743,-0.049002163,5.4,64.02,9.96
1554104191866,-8.48984,-4.607043,1.1629834,-0.10333065,0.046871635999999994,-0.02130529,5.4,64.02,9.9
1554104191885,-8.379706,-4.597466000000001,1.0001777,-0.08948222,0.043675844000000005,-0.014913702,5.34,63.96,9.9
1554104191905,-8.461109,-4.635773,1.1821371,-0.047936900000000005,0.05006743,-0.027696876000000002,5.34,63.96,9.9
1554104191926,-8.432379,-4.6980224,1.1007341999999998,-0.043675844000000005,0.05539375,-0.03195793,5.34,63.96,9.84
1554104191946,-8.403648,-4.607043,1.0289081,-0.068176925,0.06285059999999999,-0.02130529,5.4,63.96,9.84
1554104191966,-8.327033,-4.659715,1.0528502,-0.082025364,0.07030745599999999,-0.00958738,5.4,63.96,9.84
1554104191986,-8.39886,-4.587889,0.9187749,-0.084155895,0.07989483,-0.010652645,5.4,63.9,9.84
1554104192006,-8.504205,-4.745906400000001,1.0145429,-0.09374327,0.084155895,-0.02130529,5.4,63.96,9.84
1554104192026,-8.552089,-4.8704047,0.96187055,-0.10013486,0.083090626,-0.035153727999999995,5.4,63.96,9.9
1554104192045,-8.561666,-4.8225207,1.0097545,-0.07882957,0.07350325,-0.026631612000000002,5.46,64.02,10.02
1554104192065,-8.485051,-4.817732299999999,0.8038531999999999,-0.027696876000000002,0.07030745599999999,-0.010652645,5.46,64.02,10.2
1554104192085,-8.470686,-4.6501384,1.1438298,0.020240024,0.06924219,-0.014913702,5.52,64.02,10.44
1554104192106,-8.561666,-4.6884456,0.9283517,0.035153727999999995,0.07350325,-0.04580637,5.52,64.02,10.62
1554104192125,-8.513782,-4.7219644,0.84694886,-0.002130529,0.07137272,-0.06285059999999999,5.52,64.08,10.8
1554104192145,-8.374918,-4.683657,0.9379284999999999,-0.0063915867,0.07030745599999999,-0.06604639400000001,5.52,64.08,10.98
1554104192166,-8.365341,-4.583101,0.7224503999999999,0.051132694000000006,0.080960095,-0.07776430000000001,5.52,64.08,11.04
1554104192185,-8.413225,-4.5352163,0.8182184,0.08948222,0.09054748,-0.111852765,5.52,64.08,11.04
1554104192206,-8.432379,-4.4442368,0.81343,0.09267801,0.101200126,-0.15765914,5.52,64.08,11.04
1554104192225,-8.580819,-4.487332299999999,0.86610246,0.098004326,0.12676647,-0.19813919,5.52,64.08,10.92
1554104192245,-8.599973,-4.611831,1.1198878,0.101200126,0.14061491,-0.2130529,5.52,64.08,10.8
1554104192266,-8.504205,-4.5926776,1.0001777,0.13102753,0.16937704,-0.22050974,5.58,64.14,10.62
1554104192286,-8.279149,-4.611831,1.1773487,0.15978967,0.22796659,-0.23861924,5.64,64.14,10.5
1554104192305,-8.283937,-4.7363295999999995,0.9091981,0.17789917,0.2609898,-0.27057716,5.64,64.14,10.44
1554104192326,-7.987056699999999,-5.0284224,1.4790181,0.19281286,0.330232,-0.31105720000000003,5.64,64.2,10.44
1554104192346,-7.7572136,-4.970961,1.2731166999999999,0.30466563,0.386691,-0.3334278,5.58,64.2,10.32
1554104192366,-7.627927000000001,-4.923076999999999,1.1438298,0.4250405,0.45593318,-0.35579833,5.58,64.2,10.2
1554104192385,-7.417236999999999,-4.707599,0.99060094,0.5933523,0.5496765,-0.42290998,5.58,64.2,10.08
1554104192406,-6.9144545,-4.267066000000001,0.9187749,0.74675035,0.6412892,-0.60507023,5.52,64.2,9.78
1554104192426,-6.339846,-3.9318779000000004,1.1246762,0.8298409999999999,0.7073356,-0.8277104999999999,5.46,64.14,9.6
1554104192445,-6.1483099999999995,-3.7307648999999996,1.3257892,0.8788431999999999,0.79042625,-1.1110708999999999,5.28,64.08,9.3
1554104192466,-5.803545,-3.3524809999999996,1.5029601000000001,0.94488955,0.88203895,-1.4668691,5.04,63.84,8.94
1554104192485,-5.588066599999999,-3.2184057,1.5221136999999998,1.0365024,0.9406285,-1.8780613000000002,4.62,63.54,8.4
1554104192505,-4.960786,-3.6062663,1.5364790000000002,1.1259845,0.9257148000000001,-2.2988408,4.02,63.24,7.8
1554104192526,-4.2425256,-4.0276456,1.2779051000000001,1.1195928999999998,0.9193232,-2.6993802000000002,3.3,62.88,7.08
1554104192546,-3.7684733999999995,-5.277419,0.5931635000000001,1.0205233,0.8202536,-3.0562437,2.52,62.4,6.3
1554104192566,-3.3758245000000002,-5.119402,0.8230068000000001,0.7797736,0.8117314999999999,-3.303385,1.56,61.74,5.52
1554104192586,-3.5242648,-6.010045,0.7080852,0.8298409999999999,0.7052050999999999,-3.7358824999999998,0.48,60.66,4.74
1554104192606,-3.0358477,-6.589442,0.032920275,0.773382,0.47723848,-3.8999330000000003,-0.84,59.22,3.9
1554104192626,-1.8339584999999998,-7.85358,-0.40761283,0.6828345,0.28122982,-3.9638489999999997,-2.4,57.66,2.88
1554104192645,-1.0390834999999998,-8.054692999999999,0.18136078,0.62744075,0.25246766,-4.034156299999999,-4.14,55.86,1.92
1554104192665,-0.60333884,-8.461707,0.23882163,0.5752428,0.17576863,-4.218447,-5.88,53.58,1.08
1554104192686,0.45489833,-10.25257,-0.06284779,0.17044231,-0.10865697,-4.2386870000000005,-7.8,50.94,0.42
1554104192706,1.6472107,-11.875839,0.08559271,-0.07882957,-0.10652645,-4.0224385,-9.9,47.94,-0.36
1554104192725,2.2601264,-13.403339,-0.21128829999999998,-0.1949434,-0.051132694000000006,-3.8051245000000002,-12.0,44.7,-1.14
1554104192745,2.681506,-14.87338,-1.1785458,-0.44954160000000004,-0.07669904,-3.540939,-14.22,41.58,-1.8
1554104192765,2.8299465,-15.404892000000002,-1.264737,-0.6679208000000001,0.0,-3.0945932999999997,-16.32,38.34,-2.4
1554104192786,2.2122424,-14.485517999999999,-0.694917,-0.7669904000000001,0.16192019,-2.6152241000000003,-18.18,34.86,-2.76
1554104192806,1.7525556,-13.427280999999999,-0.26874915,-0.79255676,0.19813919,-2.3702134999999998,-19.68,31.44,-3.0
1554104192826,1.3599066,-11.947664999999999,-0.3645172,-0.79255676,0.20453078,-2.2146847000000003,-21.0,28.14,-3.24
1554104192846,0.93373865,-11.645996,-0.14903906,-0.67537767,0.19813919,-2.0208068,-22.08,25.08,-3.42
1554104192865,0.89064306,-11.358691,-0.08200141,-0.48043427,0.15339808,-1.8450380000000002,-23.04,22.26,-3.48
1554104192886,0.9816226999999998,-10.420164,0.39205053,-0.16831179,0.15233281,-1.7779262999999998,-23.94,19.62,-3.6
1554104192906,0.7038953,-9.424176,0.6410475,0.20453078,0.12250541,-1.8066885,-24.54,17.1,-3.66
1554104192925,1.0821792,-8.772953999999999,1.0959458,0.5390238,0.051132694000000006,-1.8386464,-24.96,14.82,-3.72
1554104192945,1.2785037000000001,-8.758589,1.0720038,0.84368944,0.0063915867,-1.8897791000000002,-25.32,12.6,-3.78
1554104192965,2.1164744,-8.902241,0.3776853,0.88843054,-0.13528858,-1.8333201000000001,-25.68,10.56,-3.78
1554104192986,2.791639,-8.385093,0.7224503999999999,0.71585774,-0.08948222,-1.7012273,-26.04,8.52,-3.84
1554104193005,3.1316159,-8.337209,1.2683283,0.58696073,-0.046871635999999994,-1.6596819999999999,-26.34,6.42,-3.96
1554104193026,3.9217023999999996,-9.050680999999999,1.8956091,0.6487460999999999,0.025566347000000003,-1.6106798999999998,-26.52,4.26,-4.02
1554104193046,5.434838,-9.86471,0.52133745,0.5773733,-0.02130529,-1.4594122999999999,-26.64,2.04,-4.08
1554104193066,6.0716953,-9.170391,0.49260699999999996,0.26844665,0.19281286,-1.3124058,-26.7,-0.12,-4.2
1554104193086,5.813122,-8.614936,1.3305776000000002,0.002130529,0.32810146,-1.2463594999999998,-26.76,-3.12,-4.32
1554104193105,6.133945,-8.480861,1.6370354,-0.03089267,0.34408042,-1.1249193000000002,-26.76,-4.02,-4.38
1554104193126,6.569689299999999,-8.96449,1.6370354,0.05965481,0.3568636,-1.0247844000000002,-26.76,-5.82,-4.44
1554104193146,7.2831616,-8.203134,1.6705543,0.094808534,0.3653857,-1.0290455,-26.76,-8.34,-4.68
1554104193166,7.101202000000001,-7.1927805,1.7375918999999997,0.09267801,0.38882150000000004,-1.0972224,-26.76,-9.72,-4.8
1554104193186,7.053317999999999,-6.699575,1.6274586000000002,0.14274544,0.39734364,-1.1089402,-26.7,-10.86,-4.98
1554104193205,7.153875,-6.488885,1.6418238,0.221575,0.39734364,-1.0780476,-26.58,-11.34,-5.1
1554104193226,7.522581599999999,-6.168062,2.0679917000000003,0.34194988,0.37284255,-1.0769824,-26.34,-12.6,-5.52
1554104193245,8.236053,-5.799355,1.9147629000000002,0.27803403,0.29507825,-1.1174624,-26.16,-13.38,-5.76
1554104193265,8.307879,-5.4114943,2.0679917000000003,0.14913702,0.25140239999999997,-1.1994878,-25.92,-14.34,-6.0
1554104193286,8.350976,-5.172074299999999,2.1972785,0.043675844000000005,0.2034655,-1.2325108999999999,-25.68,-15.3,-6.3
1554104193306,8.322245,-4.8225207,2.2307975,0.008522116,0.19600865,-1.216532,-25.32,-16.26,-6.54
1554104193325,8.576031,-4.947019,2.379238,0.027696876000000002,0.18002969,-1.2378373,-24.9,-17.4,-6.84
1554104193346,8.667010000000001,-4.9135003,2.3840263,0.013848438000000001,0.17363810000000002,-1.2538162,-24.42,-18.54,-7.08
1554104193365,8.499416,-4.659715,2.1350293,-0.007456851,0.21518342,-1.3070794,-24.0,-19.86,-7.32
1554104193386,8.767567,-4.520851,2.3026235,0.011717908999999999,0.25566345,-1.3241237,-23.58,-21.18,-7.56
1554104193405,8.892064999999999,-4.7267528,2.4271219,0.05539375,0.25140239999999997,-1.3166668,-23.1,-22.5,-7.74
1554104193425,8.916007,-4.7219644,2.3265655,0.12357068,0.257794,-1.4487596999999999,-22.62,-23.64,-7.98
1554104193446,8.801085,-4.252701,2.321777,0.13954964,0.28122982,-1.5393071000000003,-22.2,-24.6,-8.16
1554104193466,9.069236,-3.9510313999999997,2.7670987,0.13848437,0.27483824,-1.5606124,-21.78,-25.56,-8.28
1554104193485,9.457097000000001,-4.109049,3.0831332000000002,0.13635385,0.2066613,-1.490305,-21.48,-26.46,-8.4
1554104193505,9.323022,-4.094683600000001,3.0639796,0.1768339,0.15659387,-1.4594122999999999,-21.06,-27.48,-8.52
1554104193526,9.303867,-3.86484,3.2172085999999998,0.38242993,0.14274544,-1.4114753999999998,-20.58,-28.56,-8.64
1554104193545,9.26556,-3.7163997,3.2746694,0.5496765,0.17150758,-1.3347764,-20.04,-29.64,-8.76
1554104193566,9.251195,-3.5296519,3.0639796,0.72437984,0.1949434,-1.1728562,-19.56,-30.66,-8.82
1554104193586,9.074024,-3.4003648999999996,2.8532897999999998,0.72651035,0.20453078,-1.0588728,-18.9,-31.56,-8.94
1554104193605,8.959103,-3.3141737,2.6521769,0.6317018,0.19174760000000002,-0.96406436,-18.24,-32.46,-9.06
1554104193625,8.930372,-2.9311013,2.4079683,0.47404268,0.17363810000000002,-0.8852348,-17.64,-33.3,-9.06
1554104193646,8.901641999999999,-3.0891187,2.532467,0.32170987,0.16085494,-0.8085357,-17.1,-34.14,-9.0
1554104193665,9.054871,-3.2806550000000003,2.7766755,0.22264028,0.12250541,-0.73290193,-16.62,-35.04,-8.88
1554104193686,9.165004,-3.1992521000000003,2.5899277,0.18109496,0.11611383,-0.72011876,-16.2,-35.94,-8.76
1554104193706,9.040505,-3.2279825,2.3600842999999996,0.20026971,0.165116,-0.7233145999999999,-15.72,-36.66,-8.58
1554104193726,8.834603999999999,-3.1753099999999996,2.2499511,0.17044231,0.20026971,-0.66365975,-15.3,-37.38,-8.4
1554104193745,8.389283,-2.9454667999999997,2.0775685,0.013848438000000001,0.20772657,-0.62104917,-15.0,-38.04,-8.28
1554104193765,8.892064999999999,-2.8975825,2.130241,-0.21518342,0.2034655,-0.5752428,-14.76,-38.64,-8.22
1554104193786,8.939949,-3.0843303,1.857302,-0.41438788,0.16724652,-0.48149952,-14.52,-39.18,-8.16
1554104193806,8.791509,-3.117849,1.9818004,-0.608266,0.13422333,-0.39627838,-14.22,-39.54,-8.22
1554104193825,8.7771435,-2.902371,1.9674352,-0.7552725,0.13422333,-0.30999196,-13.86,-39.72,-8.34
1554104193845,8.695741,-2.9789855,2.144606,-0.8383630999999999,0.12676647,-0.13954964,-13.5,-39.66,-8.46
1554104193865,8.892064999999999,-3.1226375,1.8764555,-0.9225190000000001,0.08948222,-0.0053263223,-13.32,-39.66,-8.58
1554104193885,8.762777999999999,-2.9789855,1.9387047999999998,-1.0024139,0.05539375,0.046871635999999994,-13.08,-39.6,-8.76
1554104193906,8.786719999999999,-2.9358897,2.0488381,-1.051416,0.004261058,0.17576863,-12.9,-39.6,-8.94
1554104193926,9.193734,-2.8975825,2.144606,-1.0535465,-0.07882957,0.3174488,-12.72,-39.6,-9.18
1554104193945,9.165004,-2.9837740000000004,2.2164322999999997,-0.9736517,-0.12996227,0.37816888,-12.54,-39.48,-9.66
1554104193966,9.059659,-3.0508115,2.570774,-0.721184,-0.19387813,0.48682585,-12.36,-39.18,-10.5
1554104193986,9.203311,-2.9885623,2.5228900000000003,-0.46871635,-0.25246766,0.53795856,-12.42,-38.82,-11.04
1554104194005,9.112331,-2.7922377999999997,2.6234465,-0.26312032,-0.28229508,0.5411543000000001,-12.42,-38.58,-11.28
1554104194025,9.078813,-2.8353333,2.7431567,0.01917476,-0.3270362,0.5763081,-12.54,-37.98,-11.76
1554104194046,9.3182335,-2.7682957999999998,2.7766755,0.30360037,-0.37816888,0.58909124,-12.66,-37.2,-12.48
1554104194066,9.294291000000001,-2.5384523999999997,2.7144263,0.51984906,-0.36112466,0.5613944000000001,-12.78,-36.66,-12.78
1554104194086,9.169792,-2.5911248,3.09271,0.7499462,-0.33875409999999995,0.5763081,-13.02,-36.12,-13.02
1554104194105,9.131485000000001,-2.260725,3.5811272000000005,0.93636745,-0.35473305,0.57417756,-13.26,-35.7,-13.02
1554104194125,9.275136999999999,-1.963844,4.3999443,1.1504856,-0.386691,0.5486112,-13.56,-35.4,-12.96
1554104194145,9.615114,-1.8201918999999998,5.209184,1.5936357,-0.39521313,0.5539375,-13.98,-35.22,-12.66
1554104194166,9.979032499999999,-2.1984756,4.4286747,2.2732744,-0.32277513,0.50600064,-14.46,-35.28,-12.18
1554104194186,9.643844999999999,-2.15538,3.5763388,2.8314729,-0.165116,0.29827404,-15.0,-35.4,-11.58
1554104194205,9.222465,-1.6238673000000001,2.3936029999999997,2.9166942000000002,-0.058589544,0.08948222,-15.54,-35.52,-10.86
1554104194225,9.14585,-0.9103952,1.8477252,2.538525,-0.0010652645,-0.0063915867,-16.02,-35.82,-10.02
1554104194246,9.059659,-0.9391255999999999,1.3784616000000003,1.9345202000000001,0.029827405,-0.025566347000000003,-16.44,-36.12,-9.0
1554104194266,9.174581,-1.049259,1.158195,0.9736517,0.07563378,-0.096939065,-16.74,-36.6,-7.92
1554104194285,9.059659,-1.2072762,1.2300211,0.15020229,0.08841695,-0.2066613,-17.04,-37.02,-6.84
1554104194305,9.160214999999999,-1.3461398999999998,1.4502877,-0.4261058,0.07989483,-0.29507825,-17.22,-37.44,-5.94
1554104194326,9.102755,-1.5759833,1.5604209999999998,-1.1792477,0.07137272,-0.43462790000000007,-17.22,-37.8,-5.22
1554104194346,9.097966,-1.7770962,1.8285716,-1.5808525,0.06924219,-0.5006742999999999,-17.16,-38.16,-4.68
1554104194365,9.107543,-2.0979192,1.9913772,-1.8013622,0.04474111,-0.5251754,-17.1,-38.46,-4.26
1554104194385,9.174581,-2.3708582000000002,2.3936029999999997,-1.8578212,0.024501082,-0.54648066,-17.04,-38.64,-4.08
1554104194406,9.217675999999999,-2.4953567999999997,2.5516205000000003,-1.7566210999999998,0.00958738,-0.56459016,-16.98,-38.7,-4.26
1554104194426,9.251195,-2.6677392,2.6378117000000003,-1.5211976999999999,0.017044231,-0.57098174,-16.92,-38.7,-4.56
1554104194446,9.141062,-2.8018146,2.9394810000000002,-1.1611383,0.040480047000000005,-0.5635249,-16.8,-38.58,-5.04
1554104194465,9.203311,-2.7778726000000002,3.1884782000000005,-0.7595335999999999,0.06285059999999999,-0.515588,-16.74,-38.4,-5.64
1554104194485,9.284714,-2.9071592999999996,2.8628666000000003,-0.42077947,0.07669904,-0.5113269,-16.62,-38.22,-6.3
1554104194506,9.246407000000001,-2.7778726000000002,2.6521769,-0.22477080000000002,0.08841695,-0.567786,-16.5,-38.1,-7.02
1554104194526,8.992621,-2.5049335999999998,2.379238,-0.18216023,0.08628642,-0.57098174,-16.38,-37.92,-7.68
1554104194547,8.892064999999999,-2.4235306,2.4893713,-0.23648871,0.06711166,-0.5251754,-16.08,-37.8,-8.28
1554104194566,8.944737,-2.5049335999999998,2.5276785,-0.35579833,0.04474111,-0.45167214,-15.72,-37.74,-8.7
1554104194586,9.016563,-2.6485856,2.3983915000000002,-0.44315,0.035153727999999995,-0.39201729999999996,-15.36,-37.68,-9.06
1554104194606,9.165004,-2.6868927000000005,2.6330232999999996,-0.4644553,0.04261058,-0.3334278,-15.0,-37.68,-9.3
1554104194626,9.093178,-2.5240872000000003,2.5851393,-0.44421527,0.056459017,-0.27590349999999997,-14.64,-37.8,-9.54
1554104194645,8.987833,-2.7635074,2.3983915000000002,-0.41119209999999995,0.06711166,-0.22050974,-14.28,-37.86,-9.72
1554104194666,8.930372,-2.7299886000000004,2.4558525,-0.38242993,0.06498113,-0.17044231,-13.98,-37.92,-9.84
1554104194686,8.935161,-2.6725276,2.28347,-0.37284255,0.036218993,-0.12144015,-13.74,-37.98,-10.08
1554104194705,9.169792,-2.677316,2.3936029999999997,-0.34834146,0.012783173500000002,-0.07243799,-13.62,-37.98,-10.32
1554104194726,9.107543,-2.7682957999999998,2.556409,-0.26418558,-0.0053263223,-0.03195793,-13.56,-37.98,-10.62
1554104194746,9.165004,-2.8209682000000003,2.5228900000000003,-0.12570119999999999,-0.013848438000000001,-0.010652645,-13.5,-37.98,-10.86
1554104194765,9.188946000000001,-2.806603,2.2691047,0.007456851,-0.013848438000000001,0.0031957934000000003,-13.44,-37.98,-11.16
1554104194786,9.121908,-2.7252002,2.1829132999999996,0.040480047000000005,-0.004261058,0.05539375,-13.44,-37.92,-11.46
1554104194806,9.188946000000001,-2.6916811000000003,2.202067,-0.034088463,0.00958738,0.11824436,-13.38,-37.86,-11.64
1554104194826,9.141062,-2.5863364,2.2260091,-0.20133498,0.015978966,0.19813919,-13.32,-37.74,-11.82
1554104194847,9.361329,-2.7060466,2.3169887000000005,-0.38029942,0.027696876000000002,0.2790993,-13.26,-37.62,-12.0
1554104194867,9.753978,-2.7587189999999997,2.4893713,-0.72437984,0.015978966,0.39521313,-13.26,-37.5,-12.06
1554104194886,10.012551,-3.0268695,2.867655,-0.9768475000000001,-0.010652645,0.42077947,-13.32,-37.38,-12.06
1554104194906,9.9550905,-3.342904,3.3752258,-0.9853696,0.004261058,0.4048005,-13.38,-37.26,-12.06
1554104194925,9.974244,-3.4003648999999996,3.6625300000000003,-0.76272935,0.034088463,0.37923414,-13.44,-36.96,-12.12
1554104194945,9.447519999999999,-3.342904,3.7199910000000003,-0.41119209999999995,0.098004326,0.35792887,-13.5,-36.6,-12.12
1554104194966,8.892064999999999,-3.1130607000000006,3.2746694,0.04261058,0.20026971,0.3291667,-13.68,-36.06,-12.3
1554104194986,8.738836000000001,-2.8449101000000003,3.2028434,0.27803403,0.23755397,0.38029942,-13.74,-35.76,-12.48
1554104195006,8.90643,-2.7156234,2.7623102999999998,0.3291667,0.21944448,0.4314321,-13.86,-35.4,-12.66
1554104195025,8.992621,-2.6629508,2.508525,0.28549087,0.16298546,0.42717105,-13.92,-35.04,-12.9
1554104195045,8.686164,-2.7443538,2.4941597,0.26525086,0.11824436,0.39414784,-13.92,-34.74,-13.08
1554104195066,8.269572,-2.7443538,2.4271219,0.31851408,0.13422333,0.34514567,-13.98,-34.5,-13.32
1554104195086,8.154651,-2.5576060000000003,2.2068555,0.39414784,0.14168017,0.3323625,-13.98,-34.32,-13.5
1554104195105,8.240842,-2.5384523999999997,2.1924900000000003,0.39414784,0.1107875,0.314253,-14.04,-34.08,-13.68
1554104195125,8.212111,-2.4091654,1.9243397,0.31105720000000003,0.04580637,0.25992453,-14.16,-33.84,-13.86
1554104195146,8.183380999999999,-2.3756466,2.0679917000000003,0.22903186,-0.015978966,0.21624869,-14.22,-33.6,-13.86
1554104195166,8.48984,-2.5576060000000003,2.0105310000000003,0.20026971,-0.07137272,0.21624869,-14.34,-33.36,-13.92
1554104195185,8.590396,-2.6102784,2.1254525,0.23435818,-0.09161274,0.20985709,-14.52,-33.18,-13.86
1554104195206,8.6334915,-2.677316,2.0248961,0.28868666,-0.10759171,0.165116,-14.76,-32.94,-13.74
1554104195226,8.51857,-2.5863364,2.0919337,0.33129725,-0.13209279,0.128897,-14.94,-32.76,-13.68
1554104195246,8.686164,-2.5480292,1.9913772,0.36325517,-0.14807177,0.13315806,-15.12,-32.7,-13.56
1554104195266,8.791509,-2.6485856,2.273893,0.386691,-0.17257284,0.13315806,-15.3,-32.76,-13.44
1554104195286,8.90643,-2.806603,2.321777,0.4079963,-0.20879184,0.10865697,-15.48,-32.88,-13.32
1554104195305,8.992621,-2.9358897,2.3361422999999997,0.43675843,-0.23648871,0.03834952,-15.66,-33.0,-13.2
1554104195325,9.030928999999999,-2.8353333,2.2499511,0.43249738,-0.24927188,-0.018109497,-15.78,-33.18,-13.08
1554104195346,9.102755,-2.8640637000000004,2.3744495,0.39521313,-0.2545982,-0.033023197000000004,-15.84,-33.36,-13.02
1554104195365,9.323022,-2.9406781000000004,2.3361422999999997,0.3323625,-0.26525086,-0.05006743,-15.96,-33.54,-12.96
1554104195386,9.179369,-3.0268695,2.4702177000000005,0.25353295,-0.27377295,-0.10333065,-16.08,-33.72,-12.9
1554104195406,9.179369,-2.902371,2.6426,0.165116,-0.27696875,-0.15126756,-16.26,-33.96,-12.66
1554104195426,9.169792,-2.959832,3.0735563999999997,0.10439592,-0.28442562,-0.17576863,-16.38,-34.14,-12.48
1554104195446,9.016563,-2.9885623,3.2076318,0.09587380000000001,-0.28336033,-0.20985709,-16.5,-34.32,-12.18
1554104195465,8.944737,-3.1465794999999996,3.3752258,0.15020229,-0.2609898,-0.25992453,-16.62,-34.44,-11.88
1554104195486,8.939949,-3.117849,3.3081882000000005,0.23861924,-0.23222765,-0.2908172,-16.74,-34.62,-11.52
1554104195506,9.006986999999999,-3.151368,3.4087446000000003,0.32490566,-0.20240025,-0.30360037,-16.8,-34.74,-11.22
1554104195526,9.102755,-3.141791,3.293823,0.3898868,-0.17789917,-0.30466563,-16.8,-34.8,-10.92
1554104195545,9.045294,-3.031658,3.2124202,0.44741106,-0.13209279,-0.30040458,-16.74,-34.92,-10.68
1554104195565,9.14585,-2.8832173,3.116652,0.5028047999999999,-0.058589544,-0.27057716,-16.68,-35.04,-10.5
1554104195586,9.222465,-2.7730842,2.7240029999999997,0.5251754,0.0063915867,-0.22050974,-16.56,-35.16,-10.32
1554104195605,9.188946000000001,-2.8161798,2.6521769,0.47617322,0.06391586,-0.1768339,-16.44,-35.34,-10.26
1554104195625,9.169792,-2.8209682000000003,2.475006,0.36325517,0.07776430000000001,-0.15339808,-16.26,-35.58,-10.14
1554104195646,9.002198,-2.6677392,2.40318,0.257794,0.07669904,-0.15233281,-16.14,-35.82,-10.02
1554104195665,8.8777,-2.6868927000000005,2.273893,0.18002969,0.06498113,-0.16085494,-16.02,-36.24,-9.72
1554104195685,8.848969,-2.6916811000000003,2.1972785,0.15233281,0.051132694000000006,-0.16192019,-15.96,-36.42,-9.66
1554104195706,8.935161,-2.7060466,2.1877017000000003,0.13954964,0.023435817999999997,-0.16724652,-15.9,-36.84,-9.36
1554104195726,8.925583999999999,-2.8018146,2.2260091,0.1768339,0.018109497,-0.19281286,-15.78,-37.08,-9.24
1554104195746,8.825027,-2.7730842,2.1924900000000003,0.20026971,0.010652645,-0.21198763,-15.78,-37.2,-9.12
1554104195766,8.896853,-2.6198552000000004,2.0967221,0.19707392,-0.013848438000000001,-0.24607609,-15.78,-37.5,-8.82
1554104195786,8.829816000000001,-2.5959132,2.1733365,0.19174760000000002,-0.037284255,-0.23329292,-15.78,-37.62,-8.64
1554104195805,9.002198,-2.5767596,2.2212207000000004,0.19707392,-0.07030745599999999,-0.17044231,-15.78,-37.8,-8.58
1554104195826,9.083601,-2.60549,2.1206641,0.21837921,-0.06178534,-0.12996227,-15.78,-37.92,-8.52
1554104195846,9.088389,-2.5767596,2.154183,0.22903186,-0.05965481,-0.07350325,-15.78,-38.1,-8.46
1554104195865,9.169792,-2.5288756,2.2260091,0.19600865,-0.096939065,-0.00958738,-15.78,-38.22,-8.34
1554104195885,9.141062,-2.5384523999999997,2.3936029999999997,0.165116,-0.12996227,0.020240024,-15.78,-38.4,-8.28
1554104195905,9.035717,-2.380435,2.570774,0.17789917,-0.1438107,0.05965481,-15.78,-38.52,-8.16
1554104195925,9.251195,-2.4331074,2.5228900000000003,0.22903186,-0.14274544,0.11824436,-15.78,-38.64,-8.16
1554104195946,9.179369,-2.4570496,2.6042929,0.27164245,-0.12783173,0.14594123,-15.78,-38.7,-8.1
1554104195965,9.251195,-2.1841104,2.6617537000000002,0.35153726,-0.113983296,0.16085494,-15.78,-38.82,-7.92
1554104195985,9.203311,-2.1027076,2.7240029999999997,0.38456047,-0.11824436,0.16618125,-15.84,-38.88,-7.74
1554104196006,9.212888000000001,-2.0069396,2.7910407000000004,0.43782368,-0.10972224,0.1768339,-15.84,-38.94,-7.5
1554104196026,9.323022,-1.9877859,2.8963853999999998,0.49215218,-0.08841695,0.18535602,-15.84,-39.0,-7.26
1554104196046,9.241617999999999,-1.9063831999999998,2.6569653,0.5336975,-0.06498113,0.17789917,-15.84,-39.06,-6.96
1554104196066,9.23683,-1.7244238,2.7623102999999998,0.5454154,-0.03089267,0.14594123,-15.9,-39.18,-6.66
1554104196086,9.188946000000001,-1.6142905,2.532467,0.49960902,-0.027696876000000002,0.11717909,-15.9,-39.18,-6.36
1554104196105,9.208099,-1.5376761,2.3888147,0.3898868,-0.023435817999999997,0.07882957,-15.9,-39.24,-6.06
1554104196125,9.059659,-1.5568296999999998,2.3361422999999997,0.23329292,-0.017044231,0.03195793,-15.96,-39.3,-5.82
1554104196146,9.131485000000001,-1.4945803999999998,2.2643162999999995,0.07243799,-0.024501082,-0.01917476,-16.02,-39.36,-5.52
1554104196165,9.255983,-1.4610616,2.5468319999999998,-0.08735169,-0.033023197000000004,-0.083090626,-16.08,-39.42,-5.34
1554104196186,9.193734,-1.6047136999999998,2.4319102999999997,-0.21092236,-0.02130529,-0.1587244,-16.14,-39.48,-5.1
1554104196206,9.308656,-1.6669630000000002,2.5468319999999998,-0.2972088,-0.013848438000000001,-0.22264028,-16.26,-39.54,-4.98
1554104196226,9.299078999999999,-1.5664065,2.4319102999999997,-0.36005938,0.0,-0.25885928,-16.32,-39.66,-4.86
1554104196245,9.260772,-1.6621746,2.5133132999999996,-0.41438788,0.020240024,-0.2876214,-16.38,-39.72,-4.74
1554104196266,9.332599,-1.7196354,2.5516205000000003,-0.4708469,0.0010652645,-0.28975195,-16.5,-39.78,-4.68
1554104196286,9.227253,-1.7244238,2.5611973,-0.5028047999999999,0.007456851,-0.314253,-16.5,-39.84,-4.62
1554104196306,9.016563,-1.8106151000000001,2.6761188999999996,-0.515588,0.026631612000000002,-0.32170987,-16.38,-39.96,-4.56
1554104196326,9.050082000000002,-1.9686323000000001,2.7048495,-0.5230448000000001,0.024501082,-0.30466563,-16.2,-40.02,-4.56
1554104196346,9.064447,-1.9686323000000001,2.5516205000000003,-0.5571333,0.011717908999999999,-0.30786142,-16.02,-40.02,-4.62
1554104196365,9.102755,-2.15538,2.4893713,-0.58909124,0.004261058,-0.3291667,-15.78,-40.02,-4.68
1554104196385,9.179369,-2.1458032000000005,2.556409,-0.59228706,0.002130529,-0.3323625,-15.54,-40.08,-4.8
1554104196406,9.121908,-2.2511482000000003,2.4510639,-0.5954828000000001,0.00958738,-0.34088463,-15.3,-40.08,-4.86
1554104196427,9.093178,-2.1936872000000003,2.5516205000000003,-0.60933125,0.01917476,-0.34408042,-15.06,-40.08,-5.04
1554104196446,9.069236,-2.2942438,2.5276785,-0.61891866,0.022370555,-0.31318775,-14.88,-40.08,-5.16
1554104196466,9.169792,-2.4378957999999997,2.6042929,-0.61891866,0.015978966,-0.26738137,-14.76,-40.08,-5.4
1554104196486,9.188946000000001,-2.5001452,2.441487,-0.5933523,0.0063915867,-0.25672874,-14.64,-40.08,-5.64
1554104196505,9.078813,-2.5145104,2.4462755,-0.5411543000000001,0.0063915867,-0.2545982,-14.52,-40.08,-5.82
1554104196526,9.030928999999999,-2.5192987999999996,2.5611973,-0.46978164,0.0031957934000000003,-0.21944448,-14.28,-40.08,-6.06
1554104196546,9.174581,-2.581548,2.4223334999999997,-0.38242993,-0.0063915867,-0.1587244,-13.98,-40.08,-6.42
1554104196565,9.203311,-2.5384523999999997,2.6426,-0.25992453,-0.020240024,-0.101200126,-13.74,-40.02,-6.78
1554104196586,9.074024,-2.6916811000000003,2.7144263,-0.12676647,-0.015978966,-0.07989483,-13.5,-39.96,-7.08
1554104196606,8.959103,-2.4762032000000005,2.5851393,-0.010652645,-0.020240024,-0.046871635999999994,-13.32,-39.96,-7.38
1554104196626,9.136273,-2.4714148,2.5851393,0.049002163,-0.03834952,-0.0010652645,-13.08,-39.9,-7.62
1554104196645,9.26556,-2.4762032000000005,2.4941597,0.06178534,-0.046871635999999994,0.025566347000000003,-12.96,-39.84,-7.86
1554104196666,9.308656,-2.5049335999999998,2.3409307,0.094808534,-0.03089267,0.047936900000000005,-12.9,-39.84,-8.1
1554104196686,9.188946000000001,-2.2655133999999997,2.475006,0.10333065,-0.010652645,0.06391586,-12.9,-39.78,-8.28
1554104196706,9.232041,-2.212841,2.6617537000000002,0.07456851,-0.0010652645,0.09374327,-12.84,-39.78,-8.34
1554104196726,9.241617999999999,-2.2750902,2.7144263,0.036218993,-0.012783173500000002,0.13315806,-12.84,-39.84,-8.28
1554104196746,9.442732000000001,-2.2798786,2.5372553,0.02130529,-0.014913702,0.14913702,-12.84,-39.84,-8.22
1554104196766,9.241617999999999,-2.2655133999999997,2.5516205000000003,0.043675844000000005,0.0053263223,0.13102753,-12.84,-39.84,-8.16
1554104196785,9.232041,-2.1362264,2.6282349,0.08522116,0.014913702,0.12037488,-12.84,-39.84,-8.1
1554104196806,9.356541,-2.212841,2.6809072,0.12783173,0.012783173500000002,0.12037488,-12.84,-39.84,-8.04
1554104196826,9.284714,-2.2176294,2.6569653,0.16831179,0.011717908999999999,0.08841695,-12.84,-39.84,-7.98
1554104196846,9.155427,-2.1888987999999996,2.594716,0.19813919,0.00958738,0.05219796,-12.9,-39.78,-7.98
1554104196866,9.188946000000001,-2.0883423999999997,2.594716,0.22264028,0.020240024,0.034088463,-12.9,-39.78,-7.92
1554104196885,9.093178,-2.0021513,2.6761188999999996,0.21731395,0.024501082,0.035153727999999995,-12.9,-39.72,-7.92
1554104196906,9.165004,-2.059612,2.9346926,0.2034655,0.018109497,0.054328485999999995,-12.96,-39.78,-7.86
1554104196926,9.361329,-2.179322,3.2603042,0.23116238,-0.004261058,0.06924219,-12.96,-39.78,-7.86
1554104196945,9.509769,-2.1841104,3.5236663999999998,0.35792887,-0.00958738,0.06285059999999999,-12.96,-39.78,-7.8
1554104196965,9.557653,-2.131438,3.4757824,0.5635249,0.004261058,0.049002163,-13.02,-39.78,-7.74
1554104196986,9.327810000000001,-2.0644004000000002,3.3081882000000005,0.77444726,0.043675844000000005,0.011717908999999999,-13.02,-39.78,-7.68
1554104197006,9.227253,-1.9590555,3.3895910000000002,0.89801794,0.06711166,-0.011717908999999999,-13.02,-39.84,-7.62
1554104197026,9.11712,-1.9303252,2.9107506,0.9374326999999999,0.09587380000000001,-0.013848438000000001,-13.14,-39.84,-7.62
1554104197046,8.911219000000001,-1.7483658,2.9825767999999995,0.9033443000000001,0.12144015,-0.00958738,-13.2,-39.96,-7.5
1554104197065,8.825027,-1.6956933999999997,2.7862522999999997,0.8021441,0.1438107,0.004261058,-13.26,-40.08,-7.32
1554104197085,8.801085,-1.6430208999999998,2.6090812999999997,0.6359629,0.13848437,0.0031957934000000003,-13.38,-40.2,-7.02
1554104197106,8.839393,-1.6238673000000001,2.5276785,0.43036684,0.11824436,-0.010652645,-13.44,-40.32,-6.72
1554104197126,8.848969,-1.7292121999999999,2.321777,0.21518342,0.112918034,-0.020240024,-13.56,-40.44,-6.42
1554104197146,8.949525999999999,-1.6525976999999998,2.5228900000000003,0.025566347000000003,0.111852765,-0.00958738,-13.68,-40.56,-6.06
1554104197166,8.968679,-1.8441339,2.4797945,-0.06924219,0.112918034,0.0053263223,-13.74,-40.68,-5.76
1554104197186,9.054871,-1.7914615000000003,2.3983915000000002,-0.16192019,0.11930962,0.00958738,-13.8,-40.86,-5.4
1554104197205,8.983044999999999,-1.8106151000000001,2.1972785,-0.24714136,0.112918034,0.004261058,-13.86,-40.98,-5.1
1554104197227,8.90643,-1.8201918999999998,2.2307975,-0.34301516,0.08628642,0.011717908999999999,-13.86,-41.1,-4.92
1554104197246,8.944737,-1.8537107,2.28347,-0.38242993,0.056459017,0.026631612000000002,-13.86,-41.16,-4.86
1554104197266,8.954314,-1.9159599999999999,2.556409,-0.39308259999999995,0.015978966,0.034088463,-13.92,-41.22,-4.86
1554104197286,9.126697,-1.8728642,2.5133132999999996,-0.36005938,-0.025566347000000003,0.004261058,-13.86,-41.28,-4.92
1554104197305,9.275136999999999,-1.9590555,2.5611973,-0.2790993,-0.051132694000000006,-0.033023197000000004,-13.86,-41.28,-5.04
1554104197325,9.093178,-1.9734207,2.6330232999999996,-0.12570119999999999,-0.058589544,-0.06178534,-13.8,-41.22,-5.28
1554104197345,9.212888000000001,-2.0452468,2.7335799,-0.01917476,-0.07989483,-0.07669904,-13.8,-41.16,-5.4
1554104197366,9.203311,-1.9159599999999999,2.7670987,0.04474111,-0.10546118,-0.10439592,-13.8,-41.1,-5.58
1554104197385,9.14585,-1.9111716,2.7335799,0.080960095,-0.11611383,-0.11930962,-13.86,-41.04,-5.76
1554104197405,9.121908,-2.0165164,2.9682117000000003,0.1107875,-0.1107875,-0.09587380000000001,-13.92,-40.98,-5.94
1554104197426,9.188946000000001,-1.9829974999999997,3.0160956000000003,0.113983296,-0.09161274,-0.080960095,-14.04,-40.92,-6.06
1554104197446,9.107543,-1.8632874,2.9634232999999996,0.07456851,-0.07669904,-0.10439592,-14.1,-40.86,-6.12
1554104197466,9.040505,-1.7962499,3.0352492,-0.002130529,-0.06711166,-0.10865697,-14.22,-40.86,-6.06
1554104197487,9.155427,-1.8249803,2.9825767999999995,-0.080960095,-0.049002163,-0.09054748,-14.28,-40.86,-6.06
1554104197505,9.150639,-1.9877859,2.9346926,-0.14594123,-0.018109497,-0.07669904,-14.4,-40.8,-6.0
1554104197525,9.102755,-1.9782091,3.0304607999999997,-0.17896444,0.010652645,-0.07563378,-14.4,-40.8,-5.94
1554104197546,8.987833,-1.9829974999999997,3.020884,-0.17896444,0.040480047000000005,-0.08948222,-14.46,-40.8,-5.82
1554104197565,9.112331,-2.0260932,2.819771,-0.18642128,0.05006743,-0.08522116,-14.4,-40.8,-5.7
1554104197585,9.184157,-2.0691888,2.9107506,-0.19707392,0.05006743,-0.07030745599999999,-14.28,-40.8,-5.64
1554104197606,9.141062,-2.0452468,2.9107506,-0.19707392,0.054328485999999995,-0.06924219,-14.22,-40.8,-5.58
1554104197625,9.155427,-2.1027076,2.7000610000000003,-0.18002969,0.054328485999999995,-0.07563378,-14.1,-40.8,-5.52
1554104197646,9.059659,-2.0260932,2.8101943,-0.16724652,0.043675844000000005,-0.07350325,-14.04,-40.86,-5.58
1554104197666,9.126697,-2.03567,2.8820202,-0.16085494,0.035153727999999995,-0.07137272,-13.98,-40.86,-5.58
1554104197685,9.241617999999999,-2.1410147999999998,2.7575218999999995,-0.15126756,0.018109497,-0.06178534,-13.92,-40.86,-5.7
1554104197706,9.074024,-2.1745335999999997,2.8772318,-0.113983296,0.023435817999999997,-0.05539375,-13.92,-40.86,-5.76
1554104197726,8.978256,-2.131438,2.7910407000000004,-0.07669904,0.018109497,-0.046871635999999994,-13.86,-40.86,-5.88
1554104197745,9.097966,-2.083554,2.7623102999999998,-0.060720075,0.014913702,-0.05539375,-13.86,-40.86,-6.06
1554104197765,9.040505,-2.0644004000000002,2.7096379,-0.068176925,-0.0010652645,-0.043675844000000005,-13.86,-40.86,-6.24
1554104197785,9.23683,-1.9542671000000003,2.9682117000000003,-0.06391586,-0.007456851,-0.02876214,-13.86,-40.86,-6.42
1554104197806,9.150639,-2.2176294,3.09271,0.0063915867,0.01917476,-0.024501082,-13.86,-40.86,-6.48
1554104197825,8.978256,-2.0739772000000003,2.915539,0.026631612000000002,0.018109497,-0.023435817999999997,-13.86,-40.86,-6.54
1554104197845,9.088389,-1.9542671000000003,2.8628666000000003,-0.002130529,0.015978966,-0.041545313,-13.86,-40.86,-6.66
1554104197866,9.11712,-2.0213048,2.915539,-0.02876214,0.013848438000000001,-0.035153727999999995,-13.86,-40.8,-6.72
1554104197886,9.160214999999999,-2.0931308,2.747945,-0.023435817999999997,0.002130529,-0.025566347000000003,-13.8,-40.8,-6.78
1554104197905,9.260772,-2.1362264,2.795829,0.0,0.00958738,-0.047936900000000005,-13.8,-40.74,-6.78
1554104197925,9.299078999999999,-1.9542671000000003,2.9873652,0.022370555,0.015978966,-0.049002163,-13.74,-40.74,-6.78
1554104197946,9.3421755,-1.9063831999999998,3.164536,0.051132694000000006,0.01917476,-0.024501082,-13.68,-40.74,-6.78
1554104197966,9.471461999999999,-1.9686323000000001,3.2076318,0.07456851,-0.002130529,-0.007456851,-13.68,-40.68,-6.78
1554104197986,9.346964,-2.0213048,3.3464954,0.14594123,0.004261058,-0.018109497,-13.62,-40.68,-6.78
1554104198006,9.251195,-2.0069396,3.4566288,0.26525086,0.03834952,-0.023435817999999997,-13.56,-40.68,-6.78
1554104198026,9.232041,-1.8058267,3.5476084,0.33875409999999995,0.05539375,-0.00958738,-13.56,-40.68,-6.78
1554104198047,9.275136999999999,-1.7579426,3.5859156000000003,0.34408042,0.05006743,0.0010652645,-13.56,-40.68,-6.78
1554104198065,8.99741,-1.7483658,3.6577415,0.34194988,0.049002163,0.008522116,-13.56,-40.68,-6.78
1554104198085,8.896853,-1.762731,3.3560722000000003,0.36218992,0.07882957,-0.0031957934000000003,-13.56,-40.62,-6.78
1554104198106,8.882488,-1.7052702000000002,3.198055,0.33768883,0.098004326,-0.026631612000000002,-13.62,-40.68,-6.78
1554104198126,8.805874000000001,-1.6478093,3.0065188,0.2130529,0.08628642,-0.07137272,-13.62,-40.68,-6.72
1554104198146,8.671799,-1.7483658,3.09271,0.018109497,0.046871635999999994,-0.11504856,-13.62,-40.68,-6.66
1554104198165,8.39886,-2.0069396,2.9299042,-0.12570119999999999,0.007456851,-0.15020229,-13.62,-40.68,-6.54
1554104198186,8.298303,-2.107496,2.9969419999999998,-0.22264028,-0.040480047000000005,-0.19281286,-13.62,-40.74,-6.48
1554104198206,8.327033,-2.2703017999999995,3.365649,-0.27057716,-0.08628642,-0.24394555,-13.56,-40.74,-6.36
1554104198226,8.422802,-2.4714148,3.6242227999999996,-0.23009712,-0.098004326,-0.27483824,-13.56,-40.8,-6.3
1554104198245,8.437167,-2.581548,3.4614172,-0.06178534,-0.047936900000000005,-0.32597092,-13.5,-40.86,-6.12
1554104198265,8.432379,-2.5576060000000003,3.4231097999999998,0.027696876000000002,-0.018109497,-0.35792887,-13.5,-40.86,-6.12
1554104198286,8.714894000000001,-2.3277626000000002,3.5571851999999997,0.060720075,-0.033023197000000004,-0.34514567,-13.44,-40.92,-6.06
1554104198306,9.054871,-2.4187422,3.3369186,0.03195793,-0.06498113,-0.29294774,-13.38,-40.92,-6.06
1554104198326,9.054871,-2.6150667999999997,3.0974984,0.06285059999999999,-0.03195793,-0.21198763,-13.32,-41.04,-6.12
1554104198346,9.131485000000001,-2.3660697999999996,3.0017304,0.113983296,0.022370555,-0.09054748,-13.32,-41.16,-6.12
1554104198366,9.188946000000001,-2.2750902,2.9107506,0.09267801,0.046871635999999994,0.07243799,-13.32,-41.28,-6.12
1554104198385,9.093178,-2.1745335999999997,2.6330232999999996,-0.012783173500000002,0.039414786,0.20879184,-13.26,-41.4,-6.18
1554104198405,9.045294,-2.1936872000000003,2.307412,-0.12463594,0.037284255,0.30679616,-13.2,-41.52,-6.18
1554104198426,9.083601,-2.0644004000000002,2.3505075,-0.22050974,0.04474111,0.4282363,-13.14,-41.64,-6.24
1554104198445,8.944737,-2.1649568,2.2882583,-0.26738137,0.07456851,0.52624065,-13.14,-41.7,-6.24
1554104198465,9.102755,-1.9782091,2.273893,-0.3174488,0.07137272,0.5784385999999999,-13.2,-41.76,-6.3
1554104198486,9.390058999999999,-2.1027076,2.2212207000000004,-0.37710363,0.03195793,0.6178534000000001,-13.32,-41.76,-6.36
1554104198505,9.476251,-2.0404584,2.2882583,-0.40266997,-0.025566347000000003,0.62531024,-13.5,-41.64,-6.42
1554104198525,9.423578,-2.1266496,2.4319102999999997,-0.35579833,-0.06711166,0.58696073,-13.68,-41.46,-6.54
1554104198546,9.437942999999999,-2.15538,2.7862522999999997,-0.2130529,-0.09267801,0.5230448000000001,-13.92,-41.22,-6.66
1554104198565,8.829816000000001,-2.0308816000000003,2.747945,-0.08841695,-0.094808534,0.44954160000000004,-14.22,-40.98,-6.78
1554104198586,8.662222,-2.0213048,2.7910407000000004,0.00958738,-0.10226539,0.4282363,-14.52,-40.68,-6.96
1554104198606,9.112331,-1.9063831999999998,2.9873652,0.07030745599999999,-0.14168017,0.45167214,-14.88,-40.38,-7.14
1554104198626,9.481038999999999,-2.203264,3.0544027999999996,0.1470065,-0.15020229,0.41864893,-15.18,-40.08,-7.32
1554104198645,9.543288,-2.2319946,3.020884,0.25992453,-0.101200126,0.31105720000000003,-15.48,-39.72,-7.44
1554104198666,9.562441999999999,-2.179322,3.1693244,0.37390783,-0.035153727999999995,0.23116238,-15.78,-39.48,-7.56
1554104198686,9.634267999999999,-2.1362264,3.0735563999999997,0.4261058,0.014913702,0.17257284,-16.02,-39.12,-7.62
1554104198706,9.548077000000001,-2.1266496,2.9682117000000003,0.39414784,0.056459017,0.07456851,-16.26,-38.82,-7.68
1554104198725,9.284714,-2.0260932,3.0304607999999997,0.30679616,0.101200126,-0.011717908999999999,-16.5,-38.46,-7.68
1554104198746,9.212888000000001,-1.8728642,2.8580782000000005,0.19068234,0.15659387,-0.05006743,-16.74,-38.1,-7.68
1554104198766,9.217675999999999,-1.8249803,2.9730000000000003,0.04580637,0.19813919,-0.05006743,-16.92,-37.8,-7.68
1554104198786,9.064447,-2.0452468,3.020884,-0.09267801,0.23968449999999997,-0.05539375,-17.1,-37.5,-7.68
1554104198806,9.059659,-2.107496,2.819771,-0.21837921,0.28122982,-0.08948222,-17.22,-37.2,-7.62
1554104198826,8.954314,-2.0500352,2.5468319999999998,-0.36432046,0.32597092,-0.12570119999999999,-17.34,-36.9,-7.62
1554104198846,8.935161,-2.0452468,2.5803509,-0.5550028,0.3334278,-0.13315806,-17.4,-36.84,-7.62
1554104198866,8.882488,-2.179322,2.5755625,-0.7233145999999999,0.32810146,-0.12996227,-17.46,-36.72,-7.68
1554104198886,8.872911,-2.5192987999999996,2.5611973,-0.81918836,0.30786142,-0.12357068,-17.46,-36.66,-7.68
1554104198906,8.853758000000001,-2.7156234,2.6761188999999996,-0.82877576,0.28549087,-0.15446335,-17.4,-36.66,-7.74
1554104198925,8.695741,-2.8353333,2.8580782000000005,-0.74461985,0.2695119,-0.21092236,-17.28,-36.66,-7.86
1554104198946,8.566454,-2.9885623,2.9059622000000003,-0.6061354999999999,0.25246766,-0.25566345,-17.22,-36.6,-8.04
1554104198966,8.552089,-3.1082723,2.7670987,-0.46871635,0.23116238,-0.2876214,-17.1,-36.6,-8.4
1554104198986,8.6334915,-3.1705215,2.9586349,-0.37923414,0.19281286,-0.31851408,-17.1,-36.54,-8.88
1554104199005,8.508992999999998,-3.1800982999999996,2.7096379,-0.31851408,0.16405073,-0.33981937,-17.04,-36.48,-9.3
1554104199026,8.494628,-3.3716345000000003,2.6617537000000002,-0.26525086,0.15233281,-0.34514567,-16.92,-36.42,-9.72
1554104199045,8.738836000000001,-3.3524809999999996,2.7431567,-0.22796659,0.128897,-0.32810146,-16.74,-36.3,-10.38
1554104199065,8.882488,-3.4386723,2.843713,-0.23116238,0.098004326,-0.32277513,-16.68,-36.3,-10.56
1554104199086,8.868122999999999,-3.5440169999999998,2.6234465,-0.221575,0.06711166,-0.34621096,-16.44,-36.3,-10.92
1554104199106,8.7292595,-3.615843,2.9011737999999996,-0.18642128,0.049002163,-0.3653857,-16.14,-36.24,-11.16
1554104199126,8.643068,-3.5679589999999997,2.9394810000000002,-0.15126756,0.04261058,-0.36112466,-15.78,-36.3,-11.28
1554104199145,8.528147,-3.6062663,2.8963853999999998,-0.1587244,0.004261058,-0.34727620000000003,-15.3,-36.3,-11.4
1554104199166,8.427589999999999,-3.6302083,2.9107506,-0.16298546,-0.015978966,-0.32170987,-15.0,-36.24,-11.4
1554104199186,8.1881695,-3.6637269999999997,2.9873652,-0.14274544,-0.03089267,-0.26631612,-14.76,-36.24,-11.46
1554104199206,8.346188,-3.6110547,3.0160956000000003,-0.11504856,-0.03834952,-0.18855181,-14.58,-36.24,-11.58
1554104199226,8.350976,-3.6828809000000002,2.9634232999999996,-0.09054748,-0.058589544,-0.112918034,-14.46,-36.18,-11.64
1554104199245,8.303091,-3.5775358999999995,2.9825767999999995,-0.06285059999999999,-0.080960095,-0.053263225,-14.52,-36.12,-11.7
1554104199265,8.394072,-3.6062663,3.1405939999999997,-0.011717908999999999,-0.10013486,0.011717908999999999,-14.58,-36.06,-11.76
1554104199285,8.700529,-3.3476925000000004,3.0639796,0.07030745599999999,-0.1107875,0.084155895,-14.64,-36.06,-11.88
1554104199305,8.781932000000001,-3.4865562999999993,3.044826,0.15339808,-0.11717909,0.13422333,-14.7,-36.0,-12.0
1554104199325,8.810661999999999,-3.4482489999999997,2.9873652,0.22370553,-0.12250541,0.13422333,-14.76,-36.0,-12.06
1554104199345,9.193734,-3.342904,3.0017304,0.26418558,-0.15339808,0.11824436,-14.82,-35.94,-12.18
1554104199365,9.188946000000001,-3.2902317,3.1741127999999996,0.30892670000000005,-0.17150758,0.111852765,-14.76,-35.94,-12.18
1554104199387,8.911219000000001,-3.3907879999999997,3.1262288,0.41971418,-0.15339808,0.11504856,-14.76,-35.94,-12.18
1554104199406,8.892064999999999,-3.2806550000000003,2.9921536,0.49215218,-0.12463594,0.13954964,-14.76,-35.94,-12.12
1554104199425,8.968679,-3.1848867000000003,3.0352492,0.5400891,-0.10439592,0.19920446,-14.76,-35.94,-12.06
1554104199446,8.901641999999999,-3.1130607000000006,3.0639796,0.5091964,-0.113983296,0.25672874,-14.76,-35.94,-11.88
1554104199466,8.652645,-2.959832,2.7910407000000004,0.4825648,-0.11504856,0.27803403,-14.82,-36.0,-11.64
1554104199485,8.604761,-2.8736405,3.09271,0.46765109999999993,-0.10013486,0.31957933,-14.94,-36.06,-11.4
1554104199506,8.868122999999999,-2.8353333,3.0160956000000003,0.45167214,-0.07350325,0.406931,-15.0,-36.12,-11.1
1554104199525,8.820239,-2.9454667999999997,3.020884,0.43569317,-0.04261058,0.43995422,-15.12,-36.18,-10.86
1554104199546,8.724471000000001,-2.7922377999999997,2.795829,0.35260254,-0.020240024,0.43995422,-15.24,-36.24,-10.62
1554104199566,8.667010000000001,-2.7443538,3.0065188,0.23222765,-0.020240024,0.43356264,-15.36,-36.3,-10.44
1554104199586,8.75799,-2.782661,2.9634232999999996,0.112918034,-0.054328485999999995,0.44528055,-15.54,-36.36,-10.2
1554104199606,9.006986999999999,-3.0412347,3.198055,0.09161274,-0.07243799,0.45273739999999996,-15.78,-36.42,-10.02
1554104199625,9.179369,-3.2231941,3.1358056,0.17044231,-0.07882957,0.43356264,-15.9,-36.48,-9.78
1554104199645,8.882488,-3.1322143,3.0544027999999996,0.2790993,-0.04261058,0.38882150000000004,-16.02,-36.48,-9.54
1554104199666,8.686164,-2.9933507,3.116652,0.33768883,-0.034088463,0.37071204,-16.2,-36.48,-9.36
1554104199686,8.734048,-3.0412347,3.0974984,0.34088463,-0.049002163,0.4016047,-16.38,-36.48,-9.12
1554104199706,8.652645,-3.1561562999999997,3.0639796,0.3334278,-0.047936900000000005,0.37923414,-16.62,-36.42,-8.94
1554104199726,8.734048,-3.1130607000000006,2.9346926,0.33449304,-0.049002163,0.34088463,-16.92,-36.36,-8.7
1554104199746,8.810661999999999,-3.1800982999999996,3.0113072,0.32810146,-0.051132694000000006,0.31638354,-17.28,-36.24,-8.58
1554104199765,8.671799,-3.1705215,3.020884,0.3057309,-0.07137272,0.28229508,-17.58,-36.18,-8.4
1554104199785,8.441956,-3.2950199999999996,3.0017304,0.2908172,-0.080960095,0.24074976,-17.88,-36.06,-8.4
1554104199806,8.250419,-3.208829,3.0400376000000002,0.26631612,-0.07776430000000001,0.21198763,-18.18,-35.88,-8.34
1554104199826,8.710106,-3.4147300000000005,3.2650926,0.22903186,-0.10759171,0.21944448,-18.48,-35.7,-8.34
1554104199845,8.710106,-3.7116113,3.2411506,0.23329292,-0.096939065,0.20559604,-18.72,-35.46,-8.28
1554104199867,8.446744,-3.639785,3.0735563999999997,0.27057716,-0.068176925,0.1438107,-18.9,-35.28,-8.22
1554104199886,8.815451,-3.4482489999999997,3.2172085999999998,0.2695119,-0.05539375,0.14913702,-19.02,-35.16,-8.16
1554104199906,9.174581,-3.6014779000000003,3.4326867999999995,0.22050974,-0.060720075,0.16724652,-19.02,-34.98,-8.04
1554104199926,8.935161,-3.7786489000000003,3.5045127999999997,0.16831179,-0.058589544,0.08841695,-19.08,-34.86,-7.92
1554104199946,8.312667999999999,-3.5679589999999997,3.3512837999999996,0.14913702,0.0010652645,-0.01917476,-19.14,-34.68,-7.62
1554104199966,8.231264999999999,-3.4051532999999994,3.4183214,0.112918034,0.025566347000000003,-0.0063915867,-19.14,-34.62,-7.5
1554104199986,8.346188,-3.3859997,3.3560722000000003,0.04261058,0.02876214,0.02876214,-19.2,-34.62,-7.2
1554104200005,8.169016000000001,-3.5679589999999997,3.3800142,-0.07350325,0.037284255,0.036218993,-19.2,-34.62,-6.96
1554104200026,7.967903,-3.615843,3.3129766000000003,-0.16192019,0.05006743,-0.017044231,-19.26,-34.56,-6.66
1554104200045,8.197746,-3.5727474999999997,3.3943794,-0.18961707,0.05219796,-0.049002163,-19.32,-34.5,-6.48
1554104200065,8.255207,-3.6014779000000003,3.566762,-0.20240025,0.040480047000000005,-0.06391586,-19.32,-34.5,-6.42
1554104200086,8.336611,-3.7116113,3.5140896,-0.17470337,0.02876214,-0.10013486,-19.38,-34.44,-6.24
1554104200106,8.418014,-3.6685154000000004,3.5140896,-0.101200126,0.034088463,-0.15339808,-19.38,-34.38,-6.24
1554104200125,8.413225,-3.4913447,3.3464954,-0.05219796,0.051132694000000006,-0.18748654,-19.38,-34.38,-6.24
1554104200146,8.643068,-3.6685154000000004,3.3752258,-0.058589544,0.06285059999999999,-0.21092236,-19.32,-34.32,-6.42
1554104200165,8.791509,-3.6924577000000003,3.2890346,-0.13635385,0.054328485999999995,-0.22583607,-19.32,-34.32,-6.48
1554104200185,8.394072,-3.793014,3.2076318,-0.21198763,0.07989483,-0.25885928,-19.32,-34.26,-6.6
1554104200206,8.259995,-3.639785,3.2507273999999997,-0.26631612,0.12570119999999999,-0.25992453,-19.26,-34.26,-6.72
1554104200225,8.178593,-3.5966894999999997,3.1597476,-0.3323625,0.16618125,-0.19920446,-19.26,-34.26,-6.84
1554104200245,8.073248,-3.6637269999999997,2.9682117000000003,-0.47191215,0.19920446,-0.13635385,-19.2,-34.26,-6.96
1554104200266,8.039729,-3.6637269999999997,3.0639796,-0.5635249,0.20133498,-0.113983296,-19.08,-34.26,-7.08
1554104200286,7.762002000000001,-3.6062663,2.8820202,-0.68816084,0.19813919,-0.06178534,-19.02,-34.2,-7.2
1554104200306,7.675811,-3.7259765,3.1118636000000004,-0.73609775,0.19707392,-0.036218993,-18.96,-34.2,-7.38
1554104200325,8.154651,-3.8073792,3.4087446000000003,-0.74781567,0.13315806,-0.004261058,-18.9,-34.2,-7.5
1554104200345,8.561666,-4.1138372,3.5715504,-0.63702816,0.09161274,-0.03834952,-18.84,-34.14,-7.74
1554104200365,8.350976,-4.1425676,3.317765,-0.42290998,0.09054748,-0.13848437,-18.72,-34.08,-8.1
1554104200386,8.178593,-3.9989154,3.5811272000000005,-0.21198763,0.09374327,-0.1768339,-18.66,-33.96,-8.34
1554104200405,8.307879,-3.9175123999999997,3.3369186,-0.096939065,0.07882957,-0.15446335,-18.6,-33.84,-8.64
1554104200425,8.346188,-3.8121676,3.2172085999999998,-0.07563378,0.06604639400000001,-0.15233281,-18.54,-33.72,-8.88
1554104200446,8.212111,-3.8935703999999998,3.1262288,-0.099069595,0.047936900000000005,-0.17257284,-18.42,-33.6,-9.12
1554104200466,8.015787,-3.8073792,3.1836896,-0.12250541,0.05539375,-0.16831179,-18.3,-33.54,-9.36
1554104200485,7.9248075,-3.8456864,3.341707,-0.13528858,0.051132694000000006,-0.16298546,-18.24,-33.42,-9.54
1554104200505,8.197746,-4.0372224,3.3704373999999997,-0.111852765,0.037284255,-0.15233281,-18.12,-33.36,-9.66
1554104200526,8.327033,-4.094683600000001,3.2411506,-0.034088463,0.05006743,-0.16192019,-18.0,-33.36,-9.72
1554104200546,8.259995,-4.022857,3.1693244,0.036218993,0.07456851,-0.18429075,-17.94,-33.36,-9.78
1554104200566,8.135497,-3.816956,2.949058,0.025566347000000003,0.096939065,-0.16937704,-17.88,-33.36,-9.84
1554104200586,8.293514,-3.7355532999999994,2.9969419999999998,-0.04474111,0.10226539,-0.11930962,-17.82,-33.36,-9.9
1554104200605,8.422802,-3.7882257000000004,3.0304607999999997,-0.14913702,0.09054748,-0.07030745599999999,-17.82,-33.36,-9.96
1554104200626,8.307879,-3.9845502,3.1453824,-0.23435818,0.07669904,-0.051132694000000006,-17.76,-33.42,-10.02
1554104200645,8.283937,-3.9414546,3.1022868,-0.22583607,0.068176925,-0.04580637,-17.64,-33.48,-10.08
1554104200665,8.283937,-3.9175123999999997,3.2986114,-0.15233281,0.058589544,-0.047936900000000005,-17.58,-33.48,-10.2
1554104200686,8.327033,-3.8696284,3.1741127999999996,-0.06178534,0.047936900000000005,-0.07882957,-17.52,-33.54,-10.32
1554104200705,8.169016000000001,-3.7499184999999997,3.0735563999999997,0.010652645,0.025566347000000003,-0.10759171,-17.46,-33.6,-10.44
1554104200725,8.250419,-3.5679589999999997,3.0160956000000003,0.054328485999999995,0.0063915867,-0.11717909,-17.4,-33.66,-10.56
1554104200746,8.647857,-3.793014,3.221997,0.08628642,-0.020240024,-0.12144015,-17.34,-33.66,-10.68
1554104200765,9.035717,-3.6733038000000002,3.09271,0.12570119999999999,-0.027696876000000002,-0.15978967,-17.28,-33.72,-10.8
1554104200786,8.7532015,-3.5152867,2.9538465,0.17789917,-0.0063915867,-0.25246766,-17.28,-33.72,-10.92
1554104200806,8.671799,-3.1226375,3.1262288,0.19174760000000002,0.014913702,-0.2727077,-17.22,-33.72,-11.04
1554104200825,8.930372,-3.127426,3.2794578000000003,0.17576863,0.018109497,-0.25033715,-17.16,-33.72,-11.04
1554104200845,8.983044999999999,-2.9789855,3.2794578000000003,0.11717909,0.027696876000000002,-0.25033715,-16.92,-33.72,-11.16
1554104200866,9.102755,-2.830545,3.2890346,0.054328485999999995,0.036218993,-0.294013,-16.8,-33.72,-11.16
1554104200886,8.949525999999999,-2.7778726000000002,3.3225534,0.007456851,0.06285059999999999,-0.29933932,-16.62,-33.84,-11.22
1554104200906,8.714894000000001,-2.581548,3.4518404,-0.0053263223,0.11717909,-0.26525086,-16.5,-34.02,-11.22
1554104200926,8.499416,-2.404377,3.2172085999999998,-0.015978966,0.15233281,-0.21944448,-16.32,-34.2,-11.22
1554104200946,8.192958,-2.2990322,3.0496144,-0.07030745599999999,0.17789917,-0.16405073,-16.14,-34.38,-11.16
1554104200966,8.082825,-2.15538,3.0400376000000002,-0.16724652,0.16937704,-0.12996227,-16.02,-34.56,-11.1
1554104200986,8.441956,-2.2511482000000003,2.9682117000000003,-0.2972088,0.14594123,-0.13528858,-15.96,-34.74,-10.98
1554104201005,8.710106,-2.1984756,2.690484,-0.44528055,0.13102753,-0.15339808,-15.9,-34.92,-10.92
1554104201026,8.671799,-2.1936872000000003,2.441487,-0.6849651,0.14274544,-0.16192019,-15.78,-35.04,-10.86
1554104201046,8.767567,-2.3277626000000002,2.532467,-0.850081,0.13635385,-0.14594123,-15.66,-35.1,-10.8
1554104201066,9.097966,-2.6007016,2.8101943,-1.0045444,0.13848437,-0.10759171,-15.54,-35.1,-10.8
1554104201086,9.308656,-3.007716,3.0591912,-1.0610034,0.14594123,-0.12463594,-15.42,-35.04,-10.86
1554104201105,9.557653,-3.2998084999999997,2.9011737999999996,-1.0727214,0.16724652,-0.22903186,-15.3,-34.98,-11.1
1554104201126,9.275136999999999,-3.3716345000000003,2.7862522999999997,-1.0876350000000001,0.21518342,-0.34514567,-15.18,-34.8,-11.46
1554104201146,8.7292595,-3.3907879999999997,2.7527334999999997,-1.1323761,0.2609898,-0.38562572,-15.06,-34.62,-11.82
1554104201165,8.839393,-3.4386723,2.9442697,-1.2665993999999998,0.27377295,-0.38349520000000004,-14.94,-34.38,-12.3
1554104201186,9.006986999999999,-3.9223008000000004,2.7910407000000004,-1.4168017,0.27803403,-0.37923414,-14.88,-34.08,-12.9
1554104201205,8.647857,-4.458602,2.9107506,-1.5020228999999998,0.29614353,-0.49534798,-14.76,-33.72,-13.44
1554104201226,8.020576,-4.7219644,3.164536,-1.4274544,0.32170987,-0.5763081,-14.58,-33.3,-13.98
1554104201246,7.97748,-4.899135,3.2363622000000003,-1.3102753,0.30999196,-0.53795856,-14.46,-32.88,-14.4
1554104201265,8.283937,-5.5407815000000005,3.5332432000000003,-1.2026836,0.27377295,-0.41545314,-14.22,-32.4,-14.76
1554104201285,8.0445175,-6.350021400000001,3.5284547999999996,-0.9576728000000001,0.26525086,-0.21837921,-13.98,-31.86,-15.12
1554104201305,7.489063000000001,-6.8671690000000005,3.4566288,-0.60507023,0.2790993,-0.026631612000000002,-13.62,-31.38,-15.54
1554104201326,7.038953,-7.006033,3.3991678,-0.33129725,0.2972088,0.12996227,-13.32,-30.72,-15.96
1554104201346,6.837839999999999,-7.2167225,3.2267854,-0.24394555,0.26631612,0.32597092,-13.02,-30.12,-16.32
1554104201366,6.766014,-7.647678999999999,3.221997,-0.18109496,0.23755397,0.5539375,-12.78,-29.46,-16.68
1554104201385,6.6654577,-7.85358,3.3991678,-0.05006743,0.21944448,0.7680557,-12.54,-28.86,-17.04
1554104201405,6.732495299999999,-7.867945,3.7487214,0.20133498,0.17789917,0.9683254000000001,-12.24,-28.2,-17.4
1554104201426,7.110779300000001,-7.848791599999999,4.2658687,0.58696073,0.15446335,1.1483551,-12.0,-27.66,-17.76
1554104201446,7.374141000000001,-7.934983,4.3568487000000005,1.0961571,0.14807177,1.2911005,-11.82,-27.12,-18.0
1554104201466,7.666233999999999,-7.7578119999999995,4.6680946,1.6383767,0.2428803,1.4114753999999998,-11.76,-26.7,-18.18
1554104201486,7.771578999999999,-7.374739599999999,4.577115,2.1667478,0.31957933,1.5425029,-11.7,-26.4,-18.18
1554104201506,8.030152000000001,-6.541558,4.2898107,2.481001,0.41225734,1.6426378000000001,-11.76,-26.22,-18.24
1554104201525,8.1163435,-5.852027400000001,4.3568487000000005,2.5182853,0.5294364,1.7022926,-12.0,-26.1,-18.12
1554104201546,8.087613000000001,-5.679645,4.5914803,2.4991105,0.64555025,1.7502294999999999,-12.3,-25.98,-17.94
1554104201566,7.9248075,-5.325303,4.936245400000001,2.6557042999999996,0.7488809000000001,1.7512947,-12.72,-25.98,-17.7
1554104201586,7.752425,-4.7985787,4.68246,2.7803402000000004,0.7978831000000001,1.675661,-13.2,-26.16,-17.4
1554104201606,7.3071036,-4.147355999999999,4.4861355000000005,2.6290727,0.85327685,1.5648735,-13.68,-26.46,-17.1
1554104201626,6.7516490000000005,-3.520075,4.44304,2.183792,0.85540736,1.442368,-14.4,-27.0,-16.68
1554104201645,6.7277070000000005,-3.2615013,4.7782279999999995,1.9142801999999999,0.8341021000000001,1.3709954,-14.64,-27.18,-16.5
1554104201665,6.5026517,-3.1705215,4.869208,1.6053536,0.7680557,1.2346416,-15.0,-27.6,-16.26
1554104201686,6.2345014,-3.1226375,4.9841294000000005,1.3709954,0.69668293,1.0961571,-15.24,-28.08,-16.02
1554104201705,6.0142345,-3.007716,5.142146599999999,1.1653993,0.6327670999999999,0.9896306999999999,-15.48,-28.5,-15.9
1554104201726,5.8322754,-3.0172927000000005,5.568314599999999,1.0365024,0.5795039000000001,0.87990844,-15.66,-28.92,-15.78
1554104201746,5.559336,-3.1657330000000004,5.817312,1.0950918,0.48043427,0.70627034,-15.9,-29.28,-15.72
1554104201766,5.5497594,-2.8113914,5.8747725,1.1227888000000001,0.41119209999999995,0.54648066,-16.08,-29.46,-15.66
1554104201785,5.291186,-2.782661,5.6880245,1.0929613,0.33449304,0.4016047,-16.2,-29.58,-15.6
1554104201805,5.142745,-2.5049335999999998,5.549161,0.99921805,0.23222765,0.27590349999999997,-16.26,-29.64,-15.54
1554104201825,5.2002063,-2.3469162,5.7359085,0.6945524000000001,0.12144015,0.18535602,-16.38,-29.76,-15.42
1554104201845,5.161899,-2.4714148,5.8268886,0.29188246,0.039414786,0.09267801,-16.44,-29.88,-15.3
1554104201866,5.070919,-2.60549,6.1094040000000005,0.037284255,-0.047936900000000005,-0.017044231,-16.5,-30.0,-15.0
1554104201886,5.085284,-2.7060466,6.4350157,-0.08948222,-0.13102753,-0.12463594,-16.56,-30.18,-14.7
1554104201906,5.0421886,-2.710835,6.3631897,-0.14168017,-0.21731395,-0.25885928,-16.62,-30.3,-14.4
1554104201925,5.023035,-2.8113914,6.458957700000001,-0.18109496,-0.27590349999999997,-0.35260254,-16.68,-30.48,-14.1
1554104201946,5.0374002,-2.8927941,6.3488245,-0.27057716,-0.33662358,-0.43462790000000007,-16.74,-30.6,-13.8
1554104201966,5.171476,-2.9167361,6.377555,-0.3717773,-0.3749731,-0.49534798,-16.8,-30.72,-13.56
1554104201985,5.1666875,-2.806603,6.4062852999999995,-0.4889564,-0.43356264,-0.5752428,-16.92,-30.9,-13.32
1554104202005,5.2289367,-2.8640637000000004,6.616975,-0.50387007,-0.49428272,-0.67537767,-16.98,-31.02,-13.2
1554104202026,5.487509999999999,-2.8496985,6.473323000000001,-0.38242993,-0.5763081,-0.87032104,-17.04,-31.14,-13.2
1554104202046,5.626374,-2.6102784,6.2482677,-0.40906155,-0.6412892,-1.0098706,-17.1,-31.26,-13.26
1554104202065,5.659893,-2.3852234,5.7646394,-0.54648066,-0.7126619000000001,-1.0865698000000001,-17.1,-31.44,-13.32
1554104202086,6.0860605,-2.0165164,5.7933699999999995,-0.9757822,-0.8490158000000001,-1.1824435,-17.04,-31.62,-13.38
1554104202105,6.655881,-2.2798786,6.1477113,-1.2836437,-0.92784536,-1.2431636000000001,-16.86,-31.86,-13.38
1554104202126,7.1490865,-2.806603,6.4781113,-1.3592775,-0.9502159,-1.320928,-16.74,-32.16,-13.38
1554104202146,7.551311999999999,-3.093907,6.4637459999999995,-1.2325108999999999,-0.9289106,-1.4370418,-16.56,-32.46,-13.32
1554104202166,7.656657000000001,-3.0268695,6.0758852999999995,-1.0887003,-0.8692558000000001,-1.5712651000000002,-16.44,-32.7,-13.2
1554104202186,7.891288799999999,-2.926313,5.620987,-1.0535465,-0.81918836,-1.6458336,-16.26,-32.94,-13.14
1554104202205,8.2169,-2.8688521000000002,5.6497173,-1.1515508999999997,-0.7520766999999999,-1.6714,-16.14,-33.18,-13.02
1554104202225,8.643068,-3.328539,6.0280013,-1.216532,-0.664725,-1.6937705,-15.84,-33.42,-12.96
1554104202246,8.6334915,-3.5631707,5.9561753,-1.1195928999999998,-0.5933523,-1.7012273,-15.54,-33.72,-12.9
1554104202266,8.355764,-3.4147300000000005,5.419874,-1.051416,-0.51984906,-1.6969663000000001,-15.24,-34.08,-12.84
1554104202286,8.470686,-3.1226375,5.060744000000001,-1.1014834999999998,-0.47510794,-1.6223978000000001,-14.88,-34.38,-12.78
1554104202306,8.590396,-3.1561562999999997,4.8787847,-1.2708606000000002,-0.4261058,-1.4764565,-14.52,-34.62,-12.78
1554104202325,8.825027,-3.5009214999999996,4.883573,-1.4391723,-0.33662358,-1.3486248,-14.16,-34.86,-12.78
1554104202346,8.8777,-3.6828809000000002,4.9841294000000005,-1.4519554,-0.24181503,-1.2495551999999999,-13.74,-35.1,-12.84
1554104202366,8.7532015,-3.888782,4.7782279999999995,-1.2985574,-0.15339808,-1.1845741,-13.2,-35.28,-12.9
1554104202386,8.7532015,-3.9175123999999997,4.706402,-1.0791129,-0.07243799,-1.1590078000000001,-12.54,-35.46,-13.08
1554104202406,8.552089,-3.6685154000000004,4.409521,-0.8202536,-0.034088463,-1.1696603,-12.0,-35.52,-13.38
1554104202426,8.51857,-3.4721910000000005,4.1317935,-0.6327670999999999,-0.058589544,-1.1930962,-11.4,-35.52,-13.8
1554104202445,8.441956,-3.1753099999999996,3.8109705000000003,-0.5795039000000001,-0.07882957,-1.2186625,-10.74,-35.46,-14.22
1554104202465,8.121132000000001,-2.878429,3.3704373999999997,-0.60080916,-0.11717909,-1.2357068000000002,-10.2,-35.46,-14.64
1554104202486,8.173803999999999,-2.5145104,3.1932666000000003,-0.6892261,-0.18322548,-1.2112056999999998,-9.54,-35.4,-15.12
1554104202506,8.51857,-2.2750902,3.2555158,-0.8404937,-0.25140239999999997,-1.1899004,-8.88,-35.34,-15.54
1554104202526,8.647857,-2.3469162,3.3369186,-1.1036139999999999,-0.2972088,-1.1813782,-8.22,-35.22,-16.02
1554104202545,8.695741,-2.1649568,3.2794578000000003,-1.2623383999999997,-0.3153183,-1.1771171999999999,-7.98,-35.22,-16.14
1554104202565,8.882488,-2.03567,3.3991678,-1.3965617000000001,-0.29188246,-1.1291803,-7.56,-35.1,-16.32
1554104202586,9.040505,-2.0787656,3.5093012000000003,-1.401888,-0.22690132,-0.99921805,-6.96,-34.8,-16.38
1554104202605,8.935161,-2.1266496,3.6673183,-1.32945,-0.21092236,-0.9033443000000001,-6.78,-34.62,-16.44
1554104202625,9.088389,-2.2942438,3.8349125,-1.1899004,-0.21198763,-0.8032094,-6.18,-33.96,-16.74
1554104202646,8.983044999999999,-2.4953567999999997,3.9258924,-1.0855045,-0.20985709,-0.8021441,-5.7,-33.42,-17.04
1554104202666,8.973467999999999,-2.4235306,4.055179,-0.88949585,-0.1949434,-0.8127968000000001,-5.28,-32.7,-17.4
1554104202686,8.949525999999999,-2.4570496,4.0025067000000005,-0.6348976,-0.16298546,-0.78936094,-4.86,-31.98,-17.82
1554104202706,8.738836000000001,-2.2224178,3.9594111000000005,-0.40266997,-0.12037488,-0.73609775,-4.56,-31.2,-18.18
1554104202725,8.5473,-2.1410147999999998,3.9881415000000002,-0.22903186,-0.098004326,-0.6679208000000001,-4.38,-30.54,-18.6
1554104202745,8.599973,-2.0979192,3.9881415000000002,-0.10546118,-0.084155895,-0.57098174,-4.14,-29.88,-19.02
1554104202765,8.844180999999999,-2.0021513,3.9737763,-0.008522116,-0.07030745599999999,-0.46125950000000004,-3.96,-29.4,-19.38
1554104202786,9.165004,-1.9351135,3.9641995000000003,0.025566347000000003,-0.05219796,-0.34940675,-3.72,-29.04,-19.56
1554104202806,9.308656,-1.9015948,3.9498343,0.039414786,-0.023435817999999997,-0.23755397,-3.42,-28.74,-19.74
1554104202825,9.351752000000001,-1.9063831999999998,3.7966053,0.058589544,-0.0053263223,-0.11611383,-3.3,-28.62,-19.74
1554104202846,9.327810000000001,-1.834557,3.8253357000000006,0.06498113,0.0,-0.060720075,-3.12,-28.56,-19.8
1554104202866,8.968679,-1.7292121999999999,3.6673183,0.08841695,0.036218993,-0.007456851,-2.82,-28.56,-19.8
1554104202886,8.963891,-1.6621746,3.7199910000000003,0.10972224,0.06285059999999999,0.03195793,-2.58,-28.62,-19.8
1554104202905,9.212888000000001,-1.5951369,3.7199910000000003,0.112918034,0.058589544,0.07669904,-2.28,-28.62,-19.8
1554104202925,9.083601,-1.489792,3.7008373999999997,0.113983296,0.06604639400000001,0.12463594,-2.04,-28.68,-19.74
1554104202946,8.355764,-1.4227544,3.6625300000000003,0.15765914,0.09587380000000001,0.17789917,-1.92,-28.8,-19.74
1554104202965,8.259995,-1.2551602,3.6673183,0.22477080000000002,0.12783173,0.27483824,-1.8,-28.86,-19.62
1554104202985,8.331821000000001,-1.2886791000000002,3.6242227999999996,0.30040458,0.1470065,0.38562572,-1.74,-28.98,-19.56
1554104203006,8.537724,-1.049259,3.5859156000000003,0.314253,0.13741912,0.46232477,-1.74,-29.1,-19.5
1554104203025,8.475474,-1.0827777,3.470994,0.25353295,0.111852765,0.49002165,-1.74,-29.22,-19.44
1554104203046,8.585608,-0.86729956,3.4039562000000005,0.20026971,0.08841695,0.5123922000000001,-1.8,-29.34,-19.44
1554104203065,8.858546,-1.1402385,3.341707,0.20772657,0.07350325,0.51452273,-1.86,-29.46,-19.44
1554104203086,8.939949,-1.2695253999999998,3.3991678,0.20879184,0.046871635999999994,0.4314321,-1.98,-29.58,-19.44
1554104203106,8.604761,-1.3557166999999999,3.2794578000000003,0.17363810000000002,0.033023197000000004,0.24714136,-2.1,-29.7,-19.38
1554104203127,8.240842,-1.1402385,3.0304607999999997,0.10333065,-0.0010652645,0.068176925,-2.16,-29.76,-19.38
1554104203146,8.446744,-1.1546037,2.9682117000000003,-0.0031957934000000003,-0.05752428,-0.015978966,-2.34,-29.82,-19.38
1554104203166,9.059659,-1.2120646000000002,3.0113072,-0.128897,-0.11930962,-0.07030745599999999,-2.64,-29.88,-19.38
1554104203185,9.299078999999999,-1.4514848,3.2124202,-0.20879184,-0.15765914,-0.19281286,-2.82,-29.88,-19.32
1554104203205,9.557653,-1.46585,3.3273417999999997,-0.21411815,-0.1768339,-0.30679616,-3.06,-29.88,-19.32
1554104203226,9.533711,-1.3269863000000002,3.3129766000000003,-0.16937704,-0.16298546,-0.32490566,-3.24,-29.88,-19.26
1554104203247,8.916007,-1.1976993999999999,3.2650926,-0.1470065,-0.12357068,-0.25246766,-3.42,-29.88,-19.26
1554104203266,8.6574335,-1.1354501000000001,3.044826,-0.18855181,-0.13635385,-0.12250541,-3.6,-29.88,-19.2
1554104203286,8.930372,-1.3509283,3.0544027999999996,-0.27483824,-0.16618125,0.015978966,-3.84,-29.88,-19.2
1554104203306,9.193734,-1.6430208999999998,3.09271,-0.35899413,-0.20133498,0.08841695,-4.02,-29.88,-19.26
1554104203325,9.313444,-2.0452468,3.1549592,-0.39201729999999996,-0.22583607,0.058589544,-4.14,-29.88,-19.32
1554104203346,9.251195,-2.1601684,3.3464954,-0.36005938,-0.23861924,0.023435817999999997,-4.2,-29.88,-19.44
1554104203365,9.208099,-2.0308816000000003,3.6433763999999997,-0.22370553,-0.23222765,0.06711166,-4.32,-29.88,-19.56
1554104203385,9.303867,-2.3517046,3.9833531000000004,0.10652645,-0.18429075,0.21092236,-4.5,-29.76,-19.74
1554104203406,9.605537,-2.6533740000000003,3.9019501000000005,0.39734364,-0.14061491,0.36325517,-4.56,-29.64,-19.86
1554104203426,9.639056,-2.8496985,3.4518404,0.57417756,-0.07882957,0.5411543000000001,-4.56,-29.58,-20.04
1554104203445,9.624691,-2.7539306,2.9394810000000002,0.5656554,-0.02876214,0.71585774,-4.62,-29.52,-20.1
1554104203467,9.442732000000001,-3.1848867000000003,2.9921536,0.406931,0.03834952,1.0482203,-4.68,-29.34,-20.22
1554104203486,9.466674000000001,-3.6589386,3.198055,0.23648871,0.046871635999999994,1.3731258999999998,-4.8,-29.22,-20.28
1554104203506,9.533711,-4.2383356,2.9299042,0.054328485999999995,0.05006743,1.6959009999999999,-5.04,-29.1,-20.22
1554104203527,9.648633,-4.812944,2.532467,-0.3291667,0.047936900000000005,2.0069581999999997,-5.34,-29.04,-20.22
1554104203545,9.557653,-5.09546,2.8054059,-0.572047,0.056459017,2.1699438,-5.7,-28.92,-20.16
1554104203566,9.591172,-5.5407815000000005,2.9203273999999997,-0.69348717,0.020240024,2.3947146,-6.18,-28.56,-20.1
1554104203585,9.586383999999999,-6.603807000000001,2.556409,-0.73822826,0.0053263223,2.6823359,-6.78,-28.02,-20.04
1554104203605,9.773131,-7.317278999999999,2.4797945,-0.7669904000000001,0.0010652645,2.957174,-7.5,-27.12,-19.98
1554104203626,9.892841,-8.504802999999999,2.6761188999999996,-0.572047,0.03834952,3.2501217999999996,-8.4,-26.04,-19.92
1554104203645,9.873688000000001,-8.969278,2.5468319999999998,-0.3898868,0.083090626,3.4408042,-9.24,-24.66,-19.92
1554104203666,9.466674000000001,-9.68275,2.0871453,-0.18109496,0.09587380000000001,3.7294907999999998,-10.08,-23.1,-19.92
1554104203686,9.313444,-9.998785,1.6753427,-0.23435818,0.07669904,3.9159122,-10.86,-21.18,-20.04
1554104203705,8.7532015,-10.630854,1.6370354,-0.44528055,0.02130529,4.222708,-11.64,-18.96,-20.16
1554104203726,8.049306,-11.238980999999999,1.4981716999999999,-0.69668293,-0.07776430000000001,4.3601274000000005,-12.36,-16.5,-20.22
1554104203747,7.201759,-11.334749,1.1917138999999999,-0.98110855,-0.18855181,4.477306400000001,-13.02,-13.8,-20.34
1554104203768,6.129156,-11.171944,0.3681085,-1.4157364,-0.37923414,4.681837000000001,-13.56,-10.98,-20.46
1554104203786,5.257667,-11.468824,0.741604,-1.8226674999999999,-0.5230448000000001,4.989699,-13.92,-7.92,-20.52
1554104203805,4.2042184,-12.273276,1.1534066,-1.8546255,-0.6924219,5.212339,-14.28,-4.62,-20.58
1554104203825,2.8778305,-11.157577999999999,1.335366,-1.587244,-0.9225190000000001,5.219795700000001,-14.52,-0.84,-20.52
1554104203846,1.5035586,-9.888652,1.0432734000000001,-1.1366372,-1.1888351000000001,5.0962252999999995,-14.76,3.18,-20.34
1554104203866,0.7278373,-8.567052,1.0193313,-0.87138635,-1.454086,5.0525494,-14.88,7.44,-20.04
1554104203886,0.5363011999999999,-8.025963,1.3640964,-0.5795039000000001,-1.6117451,5.029113300000001,-14.88,11.76,-19.44
1554104203906,0.30166942,-6.699575,1.8956091,-0.18535602,-1.5957662000000001,4.8554754,-14.58,16.14,-18.78
1554104203925,-0.90021986,-6.177639,0.6314706999999999,0.06285059999999999,-1.5712651000000002,4.543353,-13.86,20.52,-17.94
1554104203947,-1.7094599999999998,-5.5743003,0.7224503999999999,-0.30679616,-1.5041533999999999,4.362258,-12.9,24.72,-17.1
1554104203966,-1.9249381999999997,-4.779425,1.7806876,-0.62744075,-1.3773868999999999,4.2152514000000005,-11.88,28.68,-16.2
1554104203985,-2.4756044999999998,-4.9901147,1.9387047999999998,-0.5635249,-1.2133361999999999,3.8168425999999998,-10.68,32.4,-15.3
1554104204005,-2.96881,-5.172074299999999,1.5269021,-0.5273059,-1.0823087,3.286341,-9.3,35.7,-14.28
1554104204026,-3.3806129,-4.745906400000001,1.2826935,-0.5251754,-0.95234644,2.8538435,-7.74,38.7,-13.32
1554104204046,-4.1371803,-5.037999,1.1486181999999998,-0.49854377,-0.8000136,2.509763,-6.12,41.34,-12.54
1554104204066,-4.7644614999999995,-5.655703,1.3305776000000002,-0.60080916,-0.7137272,2.1518342,-4.62,43.5,-11.88
1554104204086,-5.0421886,-5.5168395,1.5652093999999999,-0.7052050999999999,-0.6444850000000001,1.8098843,-3.36,45.3,-11.22
1554104204105,-5.473145,-5.507262,1.4646529,-0.6828345,-0.58056915,1.5009576,-2.28,46.92,-10.5
1554104204125,-6.0621184999999995,-5.6221843,1.4885948999999998,-0.59228706,-0.5230448000000001,1.3092101,-1.2,48.36,-9.84
1554104204146,-6.885724000000001,-5.789778,1.287482,-0.46658584,-0.43569317,1.2026836,-0.18,49.56,-9.18
1554104204166,-7.345411,-5.6604915,1.7088615000000003,-0.3057309,-0.3323625,1.0301107,0.78,50.58,-8.7
1554104204186,-7.608772999999999,-5.3683987,1.7471686999999998,-0.026631612000000002,-0.28868666,0.8841694999999999,1.56,51.36,-8.34
1554104204205,-7.699753,-5.224746700000001,1.6274586000000002,0.24394555,-0.1949434,0.8745821,2.34,52.02,-7.98
1554104204226,-8.403648,-4.7602715,1.5604209999999998,0.5123922000000001,-0.07030745599999999,0.8863,3.24,52.98,-7.5
1554104204246,-8.504205,-4.5352163,1.5652093999999999,0.660464,-0.046871635999999994,0.87138635,3.54,53.28,-7.44
1554104204265,-8.480263,-3.9893386,1.6657659,0.75633776,-0.012783173500000002,0.8671253000000001,4.14,53.76,-7.26
1554104204285,-8.542512,-3.8935703999999998,2.0248961,0.7286409,0.033023197000000004,0.850081,4.8,54.12,-7.14
1554104204306,-8.451532,-3.4434607,1.7375918999999997,0.72011876,0.0,0.76912093,5.7,54.24,-7.14
1554104204326,-8.283937,-3.3333273,1.7950528000000001,0.77870834,-0.033023197000000004,0.6849651,6.3,54.06,-7.2
1554104204346,-8.418014,-3.3237504999999996,1.9865887999999998,0.74461985,-0.04580637,0.58269966,6.78,53.82,-7.38
1554104204365,-8.365341,-3.117849,2.1206641,0.6540724,-0.058589544,0.49960902,7.02,53.7,-7.44
1554104204385,-8.274361,-2.9311013,1.8908207,0.41438788,-0.09054748,0.37284255,7.74,53.22,-7.86
1554104204405,-8.255207,-2.902371,1.9195513,0.25353295,-0.09054748,0.2876214,8.22,52.86,-8.28
1554104204426,-8.331821000000001,-3.0412347,1.7902644,0.12996227,-0.068176925,0.21837921,8.58,52.56,-8.7
1554104204446,-8.221688,-3.3764230000000004,1.6897078999999997,-0.027696876000000002,-0.04261058,0.15233281,8.88,52.14,-9.06
1554104204465,-8.274361,-3.5248635000000004,2.0536265,-0.14913702,-0.007456851,0.09054748,9.06,51.84,-9.48
1554104204485,-8.494628,-3.5583823,2.0440497,-0.10652645,0.022370555,0.043675844000000005,9.24,51.6,-9.84
1554104204506,-8.461109,-3.5727474999999997,1.8477252,0.04474111,0.040480047000000005,0.007456851,9.36,51.42,-10.2
1554104204526,-8.5473,-3.5775358999999995,1.6705543,0.08735169,0.04474111,-0.017044231,9.48,51.18,-10.5
1554104204546,-8.590396,-3.4147300000000005,2.0009542000000002,0.07456851,0.020240024,-0.04474111,9.54,51.06,-10.68
1554104204565,-8.801085,-3.2710779999999997,2.0775685,0.033023197000000004,-0.010652645,-0.033023197000000004,9.6,50.88,-10.74
1554104204586,-8.882488,-3.3333273,2.0871453,0.04474111,-0.043675844000000005,-0.018109497,9.66,50.7,-10.74
1554104204605,-8.992621,-3.2423477000000003,1.7280151000000001,0.007456851,-0.08628642,-0.008522116,9.72,50.58,-10.68
1554104204625,-9.006986999999999,-3.0412347,1.9339164,-0.10759171,-0.098004326,0.008522116,9.72,50.52,-10.62
1554104204646,-8.99741,-3.2136172999999997,2.1110873,-0.17363810000000002,-0.10013486,0.02130529,9.78,50.52,-10.56
1554104204666,-9.035717,-3.3237504999999996,2.3505075,-0.13315806,-0.096939065,0.024501082,9.84,50.52,-10.5
1554104204686,-8.939949,-3.2758665000000002,2.2930467,-0.033023197000000004,-0.08735169,0.03195793,9.84,50.46,-10.5
1554104204705,-8.896853,-3.256713,2.3696610000000002,0.024501082,-0.07243799,0.053263225,9.9,50.46,-10.44
1554104204725,-8.848969,-3.2758665000000002,2.1350293,0.06711166,-0.06178534,0.068176925,9.9,50.4,-10.44
1554104204746,-8.896853,-3.2950199999999996,2.1015105,0.12676647,-0.056459017,0.054328485999999995,9.9,50.4,-10.44
