TimeStamp,Ax,Ay,Az,Gx,Gy,Gz,Mx,My,Mz
1554118091801,-5.9118824,-5.9029045,4.7818192999999996,0.0053263223,-0.010652645,-0.03195793,36.24,-0.9,0.72
1554118091821,-6.073491000000001,-5.746084,4.7453080000000005,-0.033023197000000004,0.00958738,-0.027696876000000002,36.3,-0.9,0.72
1554118091841,-6.1542954000000005,-5.901707,4.4861355000000005,-0.007456851,-0.01917476,-0.011717908999999999,36.36,-0.9,0.72
1554118091860,-5.990292500000001,-5.7849900000000005,4.865018,0.01917476,-0.037284255,-0.054328485999999995,36.42,-0.9,0.72
1554118091880,-5.9244523000000004,-5.760449400000001,4.938639599999999,-0.014913702,-0.014913702,-0.033023197000000004,36.42,-0.9,0.72
1554118091900,-5.9747305,-5.932832,4.7644614999999995,-0.034088463,0.0,-0.025566347000000003,36.36,-0.84,0.72
1554118091921,-6.002862,-5.969942,4.734534,-0.026631612000000002,0.013848438000000001,-0.027696876000000002,36.3,-0.78,0.72
1554118091940,-6.0423665,-5.947197,4.6459484,0.0010652645,0.013848438000000001,-0.027696876000000002,36.24,-0.72,0.72
1554118091960,-6.041768,-5.917868,4.758476,0.010652645,0.024501082,-0.022370555,36.24,-0.66,0.72
1554118091980,-6.0202203,-5.981314,4.6603136,-0.002130529,0.039414786,-0.010652645,36.24,-0.6,0.72
1554118092000,-6.0627174,-5.8478374,4.429871599999999,0.049002163,0.035153727999999995,-0.025566347000000003,36.18,-0.6,0.78
1554118092020,-6.114791,-5.6670755999999995,4.5394063,0.022370555,0.033023197000000004,-0.02130529,36.18,-0.54,0.78
1554118092041,-6.096236,-5.7879825,4.5340195,-0.007456851,0.034088463,-0.014913702,36.18,-0.54,0.84
1554118092061,-6.155493,-5.994482499999999,4.5022964000000005,-0.027696876000000002,0.025566347000000003,0.0053263223,36.18,-0.54,0.78
1554118092080,-6.1357403,-5.975329,4.56694,-0.008522116,0.0053263223,0.007456851,36.18,-0.6,0.72
1554118092101,-6.0639142999999995,-5.8364654,4.6513352,0.041545313,0.002130529,-0.011717908999999999,36.12,-0.66,0.66
1554118092120,-6.1100025,-5.722142,4.4783545,0.033023197000000004,-0.0063915867,-0.002130529,36.12,-0.66,0.6
1554118092141,-6.047155,-5.588066599999999,4.417301999999999,0.04474111,-0.03089267,-0.023435817999999997,36.06,-0.72,0.54
1554118092162,-6.011242,-5.556343599999999,4.413112,-0.027696876000000002,-0.054328485999999995,-0.03195793,36.06,-0.72,0.54
1554118092181,-6.0184245,-5.756858,4.663905000000001,-0.08735169,-0.06178534,-0.051132694000000006,36.06,-0.78,0.48
1554118092201,-6.005855,-5.801749,4.5807066,-0.05006743,-0.06498113,-0.08735169,36.06,-0.78,0.54
1554118092222,-6.0908489999999995,-5.7209449999999995,4.64116,0.0053263223,-0.07882957,-0.113983296,36.12,-0.72,0.54
1554118092240,-6.035782299999999,-5.7161565,4.6202106,0.015978966,-0.09374327,-0.10865697,36.12,-0.72,0.54
1554118092261,-5.9346275,-5.8933277,4.5232453,-0.0010652645,-0.10972224,-0.099069595,36.06,-0.66,0.6
1554118092281,-5.8466406,-5.966350599999999,4.619014,-0.051132694000000006,-0.094808534,-0.10652645,36.06,-0.66,0.66
1554118092301,-5.811326,-6.0758852999999995,4.811747,-0.084155895,-0.05539375,-0.07882957,36.06,-0.66,0.66
1554118092321,-5.864597,-6.1303535,4.83509,-0.068176925,-0.012783173500000002,-0.060720075,36.0,-0.66,0.66
1554118092340,-5.9400144,-6.048950700000001,4.7399206,-0.07882957,0.014913702,-0.037284255,35.94,-0.6,0.66
1554118092361,-5.9747305,-6.099229,4.695628,-0.05539375,0.023435817999999997,-0.0063915867,35.88,-0.54,0.6
1554118092381,-5.9184665999999995,-6.0285997,4.8039656,-0.06178534,0.03089267,-0.0063915867,35.88,-0.48,0.6
1554118092401,-5.929839,-6.0040593,4.851251,0.0,0.03834952,-0.007456851,35.88,-0.48,0.6
1554118092421,-5.949591000000001,-5.849633,4.783615,0.024501082,0.056459017,0.0010652645,35.88,-0.42,0.6
1554118092440,-5.969942,-5.810129,4.554370400000001,0.01917476,0.05539375,-0.02130529,35.88,-0.36,0.54
1554118092460,-6.0651116,-5.718550700000001,4.4717703,0.035153727999999995,0.02876214,-0.043675844000000005,35.94,-0.3,0.54
1554118092481,-5.957372,-5.7963624000000005,4.417301999999999,-0.017044231,-0.012783173500000002,-0.03834952,35.94,-0.3,0.54
1554118092500,-5.843049,-5.9082913,4.8398786,-0.09161274,0.0010652645,-0.04580637,35.94,-0.3,0.54
1554118092520,-5.9561753,-6.063316,4.478953,-0.113983296,0.014913702,-0.039414786,36.0,-0.3,0.54
1554118092541,-6.0106435,-5.9920883,4.530428,-0.004261058,0.0,-0.05219796,36.06,-0.36,0.48
1554118092560,-5.8849480000000005,-5.910087,4.26946,0.026631612000000002,-0.024501082,-0.05539375,36.06,-0.3,0.48
1554118092581,-5.767632,-5.892729,4.613028,-0.047936900000000005,-0.014913702,-0.06178534,36.12,-0.36,0.54
1554118092601,-5.7802014,-5.8322754,4.556764599999999,-0.07882957,0.008522116,-0.07137272,36.18,-0.36,0.54
1554118092621,-5.8705826,-5.979519,4.403535400000001,-0.07563378,0.023435817999999997,-0.06285059999999999,36.24,-0.36,0.54
1554118092641,-5.935226,-5.855619,4.5274353,-0.10972224,0.01917476,-0.10226539,36.3,-0.36,0.54
1554118092661,-5.961562000000001,-5.985504,4.695628,-0.15339808,0.04474111,-0.07669904,36.36,-0.42,0.48
1554118092681,-5.927445,-6.1405287,4.762067299999999,-0.13635385,0.07137272,-0.05965481,36.36,-0.42,0.48
1554118092701,-6.008249299999999,-6.247669,4.6591167,-0.10333065,0.083090626,-0.07030745599999999,36.3,-0.42,0.48
1554118092721,-6.008249299999999,-6.1740474999999995,4.459201,-0.07030745599999999,0.07882957,-0.058589544,36.3,-0.42,0.48
1554118092741,-6.1219735,-6.1225724,4.2515035,0.013848438000000001,0.043675844000000005,-0.07563378,36.24,-0.42,0.48
1554118092761,-6.0483522,-5.8215012999999995,4.313154,0.041545313,0.024501082,-0.05752428,36.24,-0.36,0.48
1554118092780,-5.9531827,-5.632958,4.1695023,-0.082025364,0.002130529,-0.07350325,36.18,-0.3,0.48
1554118092800,-5.7843914000000005,-5.8382607,4.292804,-0.28868666,-0.018109497,-0.053263225,36.18,-0.24,0.48
1554118092821,-5.6628857,-6.06571,4.498705,-0.40266997,0.023435817999999997,-0.051132694000000006,36.18,-0.18,0.54
1554118092841,-5.565322,-5.8358665,4.453215,-0.4878911,0.07137272,-0.096939065,36.18,-0.12,0.6
1554118092860,-5.5030727,-6.041768,4.572925,-0.45486793,0.12676647,-0.12144015,36.24,-0.12,0.66
1554118092880,-5.470751,-6.4864907,4.088698,-0.38562572,0.12996227,-0.13741912,36.24,-0.06,0.72
1554118092901,-5.618592700000001,-6.3985043,4.1958385,-0.30786142,0.16831179,-0.23542345,36.3,-0.06,0.78
1554118092921,-5.6179943,-6.1596823,4.025251399999999,-0.36645097,0.221575,-0.27483824,36.3,0.0,0.84
1554118092940,-5.5461683,-6.0465565,4.079121,-0.4079963,0.2727077,-0.28442562,36.24,0.06,0.9
1554118092960,-5.7215432999999996,-6.272808599999999,3.7343562000000006,-0.49002165,0.31851408,-0.30360037,36.24,0.12,0.96
1554118092981,-5.8065375999999995,-6.430825700000001,3.4434607,-0.58269966,0.33555830000000003,-0.30892670000000005,36.24,0.18,1.14
1554118093000,-5.951985400000001,-6.712743,3.4973302000000004,-0.64341974,0.3291667,-0.31851408,36.24,0.3,1.32
1554118093021,-5.897517,-6.603208,3.2609026,-0.67005134,0.3206446,-0.34301516,36.18,0.36,1.56
1554118093041,-5.9717374,-6.5445504,3.2381577,-0.60507023,0.30253512,-0.41438788,36.18,0.48,1.86
1554118093061,-5.9005103,-6.921637,2.705448,-0.60720074,0.30679616,-0.33662358,36.12,0.6,2.16
1554118093080,-5.90889,-7.0832458,2.6312277,-0.6764429,0.2876214,-0.30466563,36.12,0.72,2.58
1554118093100,-5.7544637000000005,-7.371747,2.6755204,-0.72970617,0.31638354,-0.30466563,36.06,0.84,2.82
1554118093120,-5.6569,-7.0784574000000005,3.2375592999999996,-0.5699165,0.30786142,-0.4133226,36.0,0.9,3.0
1554118093140,-5.831677,-7.144297999999999,2.7102362999999996,-0.43249738,0.33555830000000003,-0.33449304,36.0,0.96,3.18
1554118093161,-5.861006,-8.194156,2.842516,-0.44528055,0.38029942,-0.16085494,35.94,1.08,3.42
1554118093180,-5.7682304,-8.139688,2.6330232999999996,-0.39734364,0.39734364,-0.24820662,35.88,1.14,3.72
1554118093200,-6.083068,-7.097611,2.3439236,-0.18535602,0.36218992,-0.42930159999999995,35.82,1.26,3.96
1554118093221,-6.306926,-5.726930599999999,1.6825253,0.007456851,0.21518342,-0.5113269,35.64,1.38,4.32
1554118093240,-6.1902084,-6.268618599999999,1.8249803,-0.36325517,0.16831179,-0.28549087,35.46,1.5,4.62
1554118093261,-5.662287,-7.2113357,1.6579846999999999,-0.80533993,0.16085494,-0.29827404,35.22,1.74,4.98
1554118093280,-5.9394160000000005,-7.16405,1.0193313,-1.2452941000000002,0.16192019,-0.46658584,35.04,2.04,5.34
1554118093300,-6.180033,-6.613982000000001,1.5023615,-1.526524,0.12570119999999999,-0.535828,34.8,2.34,5.64
1554118093320,-6.133945,-6.291363700000001,0.64823014,-1.5680691999999998,0.04261058,-0.6263755,34.56,2.58,5.82
1554118093341,-6.1782374,-5.768829,0.49260699999999996,-1.8620822,-0.05219796,-0.86179894,34.38,2.88,6.0
1554118093360,-6.4817023,-6.1782374,0.33638534,-1.9664781999999998,-0.1587244,-0.9960223,34.2,3.24,6.24
1554118093381,-6.4164605,-7.9583262999999995,0.6362591,-2.0112193,-0.22264028,-0.85540736,34.14,3.6,6.36
1554118093401,-5.506065400000001,-8.219294999999999,0.83378077,-1.7853831999999998,-0.25885928,-0.9374326999999999,34.14,3.96,6.54
1554118093420,-5.283405,-7.4256167,0.39983168,-1.3124058,-0.33981937,-1.2761868,34.2,4.2,6.72
1554118093441,-6.029797,-8.546700999999999,-0.7062895,-1.0088054,-0.4314321,-1.0290455,34.2,4.44,6.9
1554118093460,-5.020641,-9.776722999999999,-2.2625206,-1.1930962,-0.6498113,-0.8447546999999999,34.26,4.74,7.14
1554118093481,-4.723161,-10.206482000000001,-0.91338795,-1.1377025,-0.72011876,-0.8223841999999999,34.26,5.1,7.38
1554118093501,-4.703409,-10.477027,-0.6691794,-0.6625945,-0.76485986,-0.773382,34.32,5.52,7.56
1554118093523,-4.502895,-9.941324,-1.0181341999999998,-0.24394555,-0.8426242,-0.62104917,34.32,5.94,7.68
1554118093541,-4.0270470000000005,-10.077793,-0.6817489000000001,-0.1470065,-0.87564737,-0.41864893,34.32,6.3,7.74
1554118093561,-3.6092591,-9.831789,-0.46267948,0.035153727999999995,-0.89162636,-0.45060685,34.32,6.78,7.62
1554118093581,-3.8133647000000006,-9.603143,-0.5793968,0.058589544,-0.809601,-0.38242993,34.32,7.26,7.38
1554118093601,-3.5506010000000003,-8.916007,-0.76195467,-0.09374327,-0.793622,-0.43782368,34.32,7.74,7.14
1554118093621,-3.7846344,-9.142858,-0.7667431,-0.35260254,-0.7840345999999999,-0.38349520000000004,34.26,8.16,6.72
1554118093641,-3.241749,-9.178771000000001,-0.21966799999999997,-0.55287224,-0.8362325999999999,-0.33555830000000003,34.26,8.52,6.3
1554118093660,-3.2573112999999996,-9.28232,-0.38486794,-0.62317973,-0.8522116,-0.24181503,34.26,8.88,5.82
1554118093681,-3.4153287000000003,-9.025542,-0.40102878,-0.75101143,-0.8213189000000001,-0.1438107,34.26,9.3,5.34
1554118093700,-3.9671922,-8.93935,-0.8762778,-0.8404937,-0.8522116,-0.29614353,34.32,9.66,4.8
1554118093721,-4.134786,-9.32362,-1.5711948999999998,-0.9768475000000001,-0.8990832000000001,-0.29827404,34.32,9.96,4.44
1554118093741,-3.9743748,-9.309854,-1.1366472,-0.8831041999999999,-0.92038846,-0.43888897,34.32,10.32,4.02
1554118093761,-3.7283707,-9.186552,-0.2184709,-0.6040049,-0.93423694,-0.5752428,34.38,10.62,3.66
1554118093780,-3.6864722000000003,-10.298060000000001,0.044292733,-0.20559604,-0.84581995,-0.36218992,34.38,10.92,3.3
1554118093801,-3.1489737,-9.633071000000001,-0.26815059999999996,-0.0063915867,-0.76912093,-0.3717773,34.44,11.22,2.7
1554118093821,-3.4171242999999993,-9.091981,-1.1378443,-0.035153727999999995,-0.721184,-0.37923414,34.5,11.64,1.8
1554118093842,-2.533664,-9.049484,-1.7902644,-0.3057309,-0.73609775,-0.3323625,34.56,11.88,1.26
1554118093861,-2.2152352000000004,-9.734824,-1.6681601000000001,-0.45486793,-0.7669904000000001,-0.3653857,34.56,12.24,0.66
1554118093881,-2.1751322999999996,-10.160992,-0.6955156,-0.34408042,-0.74461985,-0.41119209999999995,34.56,12.36,0.42
1554118093901,-1.417966,-10.729614999999999,0.02633622,0.080960095,-0.6956177,-0.37390783,34.56,12.84,-0.3
1554118093921,-0.93852705,-9.906608,-0.40701428,0.55606806,-0.628506,-0.36432046,34.56,13.02,-0.54
1554118093941,-1.2348095,-9.186552,-1.6484078000000002,0.58056915,-0.62104917,-0.2727077,34.56,13.62,-1.26
1554118093960,-1.1552023,-9.3733,-1.6053122,0.28975195,-0.660464,-0.19174760000000002,34.56,13.98,-1.68
1554118093980,-1.1091138999999999,-9.891046000000001,-0.6727706999999999,0.08841695,-0.6498113,-0.1470065,34.5,14.28,-2.04
1554118094001,-1.1887212,-9.932944,-0.12569559,0.035153727999999995,-0.5752428,-0.098004326,34.44,14.52,-2.58
1554118094021,-1.2330139,-10.072407,0.20410569,-0.07669904,-0.48043427,-0.0031957934000000003,34.38,14.76,-3.18
1554118094040,-1.0726023999999998,-10.2495775,1.5089456,0.082025364,-0.30146983,0.002130529,34.32,14.94,-3.72
1554118094060,-1.6597804,-9.717466,0.88405895,0.37710363,-0.13528858,0.0031957934000000003,34.26,15.06,-4.26
1554118094082,-2.2146366000000004,-9.055469500000001,0.16879122,0.28975195,-0.05965481,0.04580637,34.2,15.12,-4.74
1554118094101,-1.4520833,-8.901641999999999,0.2861071,0.14913702,-0.035153727999999995,-0.022370555,34.14,15.18,-5.16
1554118094120,-2.4528596,-9.009381,-0.8242039000000001,0.17576863,-0.05006743,-0.13848437,34.14,15.18,-5.52
1554118094140,-2.4235306,-9.22067,-0.7302314999999999,0.037284255,-0.16192019,-0.13848437,34.14,15.18,-5.76
1554118094161,-2.1948842999999996,-10.187327999999999,-0.18255788,0.22583607,-0.23222765,-0.15126756,34.2,15.18,-5.88
1554118094181,-2.690484,-10.545860000000001,0.44113165,0.5699165,-0.23755397,-0.112918034,34.2,15.18,-6.06
1554118094200,-2.4378957999999997,-10.609905,0.50637364,0.8127968000000001,-0.2130529,0.084155895,34.26,15.18,-6.18
1554118094221,-1.3317747,-10.605117,0.7278373,1.0258497,-0.09054748,0.32170987,34.26,15.12,-6.3
1554118094240,-1.8148049,-10.180145,0.30945057,1.0652645,0.0063915867,0.41438788,34.26,15.12,-6.48
1554118094260,-2.3702598,-10.81461,0.6290765,1.1856394,-0.05752428,0.5028047999999999,34.2,15.06,-6.66
1554118094280,-1.7591397000000002,-12.229582,2.8317419999999998,1.8791265,-0.0031957934000000003,0.6348976,34.14,14.88,-7.08
1554118094301,-1.7034745,-11.577761,3.6361937999999996,2.7366642999999997,0.22796659,0.66152924,34.08,14.64,-7.5
1554118094321,-2.384625,-10.267534,2.8185740000000004,2.8538435,0.43782368,0.813862,34.08,14.34,-8.04
1554118094341,-2.3906104999999997,-9.924564,2.8969840000000002,2.380866,0.5933523,1.1408982,34.08,13.92,-8.46
1554118094361,-2.4797945,-9.65821,3.6379894999999998,1.8173412,0.77125144,1.325189,34.14,13.32,-8.94
1554118094381,-3.4344822999999995,-9.916184,3.8905778,1.1877699,0.9150621999999999,1.4040185,34.2,12.36,-9.36
1554118094401,-4.2036195,-10.138845,4.3197384,0.96299905,0.9587379999999999,1.474326,34.32,11.22,-9.72
1554118094421,-4.8057612999999995,-10.166379,4.171298,1.1206582,0.9331716999999998,1.6010925,34.44,10.02,-10.02
1554118094442,-5.0020857,-9.498994999999999,3.7912182999999997,1.4104101999999998,0.8809737,1.7310548,34.62,8.76,-10.14
1554118094460,-5.0810947,-8.5538845,3.3800142,1.6341157,0.8404937,1.7662083999999998,34.74,7.32,-10.08
1554118094481,-5.6802435,-7.7649946,2.7629087,1.5574166999999999,0.76059884,1.7342505000000001,34.92,5.52,-9.9
1554118094501,-6.3087215,-6.7989345000000005,2.4073699,1.3965617000000001,0.6625945,1.7726,35.04,3.42,-9.6
1554118094521,-6.637326,-5.990891,2.331354,1.3177321000000002,0.51026165,1.8684738999999997,35.28,1.38,-9.18
1554118094541,-6.194398400000001,-5.377377,2.9227216,1.3837786,0.386691,1.8546255,35.46,-0.66,-8.76
1554118094560,-5.984307299999999,-4.939238,3.413533,1.5648735,0.33981937,1.7427727,35.64,-2.7,-8.34
1554118094581,-6.3548098,-4.7297454000000005,2.7784709999999997,1.6735305,0.26525086,1.6458336,35.82,-4.8,-7.86
1554118094601,-6.846818400000001,-4.12102,2.5450362999999996,1.6905746,0.165116,1.5094798,35.94,-7.02,-7.38
1554118094620,-6.792948700000001,-2.9556419999999997,1.9877859,1.6319852,-0.010652645,1.325189,36.0,-9.18,-6.9
1554118094641,-7.1023993,-2.6150667999999997,2.7383683,1.4935007,-0.11824436,1.1590078000000001,36.06,-11.1,-6.42
1554118094661,-6.6828156000000005,-2.4917655,4.3167458,1.3752563999999998,-0.14594123,1.0407634,36.0,-12.84,-6.0
1554118094681,-6.6534867,-2.8574797999999997,3.9294837,1.546764,-0.20559604,0.8969527,35.82,-14.58,-5.64
1554118094701,-6.962936999999999,-2.2589292999999997,3.7876269999999996,1.5222628999999999,-0.23861924,0.74248934,35.58,-16.08,-5.34
1554118094720,-7.0970125,-0.95708215,3.9474400999999997,1.3454291,-0.28016454,0.5858955,35.16,-18.18,-4.86
1554118094742,-7.2670007,-1.6998832,4.333505000000001,0.75633776,-0.25033715,0.6103965,34.86,-19.44,-4.56
1554118094761,-7.086238400000001,-2.328361,5.1235914000000005,0.5422196,-0.22370553,0.531567,34.62,-20.4,-4.32
1554118094781,-7.041946,-2.107496,4.9081135,0.58269966,-0.23222765,0.33875409999999995,34.32,-21.24,-4.2
1554118094801,-7.247248599999999,-1.8267759,5.4480059999999995,0.64768076,-0.19174760000000002,0.24607609,34.08,-22.02,-4.2
1554118094821,-7.0521210000000005,-1.6112977,5.9567738,0.8213189000000001,-0.14061491,0.15446335,33.9,-22.62,-4.14
1554118094841,-6.8330517,-1.9243397,6.008249299999999,1.0120013,-0.056459017,0.14274544,33.78,-23.16,-4.14
1554118094861,-6.981492,-1.5747862,5.379771,1.160073,0.0,0.012783173500000002,33.6,-23.64,-4.14
1554118094881,-7.2580222999999995,-0.9696517,4.882974,1.0322412,0.036218993,0.0010652645,33.54,-24.06,-4.08
1554118094901,-7.136516599999999,-0.8391677,4.921282,0.5613944000000001,0.07563378,0.07563378,33.48,-24.48,-4.08
1554118094921,-7.1945763,-1.1617863000000002,4.759074,0.060720075,0.080960095,0.10759171,33.36,-24.84,-3.96
1554118094941,-7.640496300000001,-1.4550761,4.8057612999999995,-0.36964676,0.03089267,0.034088463,33.24,-25.08,-3.78
1554118094961,-7.7518270000000005,-1.7447745,5.137358,-0.48682585,-0.015978966,0.043675844000000005,33.18,-25.38,-3.6
1554118094980,-7.1341224,-1.8770541,5.932832,-0.40266997,-0.011717908999999999,0.047936900000000005,33.12,-25.56,-3.42
1554118095000,-7.378331,-1.6035166,5.704784,-0.23222765,-0.0010652645,-0.06285059999999999,33.0,-25.68,-3.24
1554118095021,-7.421427,-1.340753,5.3833623,-0.13741912,0.002130529,-0.14061491,32.88,-25.68,-3.0
1554118095041,-7.0096240000000005,-1.5280992,5.8358665,-0.10439592,0.036218993,-0.10865697,32.82,-25.68,-2.88
1554118095061,-6.695385000000001,-1.2431892,5.4641665999999995,-0.05965481,0.06924219,-0.2130529,32.76,-25.74,-2.76
1554118095081,-6.689997999999999,-0.8631097,5.1080294,-0.28442562,0.10439592,-0.26738137,32.7,-25.74,-2.82
1554118095103,-6.9120603,-0.81283146,4.8524485,-0.56459016,0.07776430000000001,-0.25566345,32.64,-25.74,-2.94
1554118095123,-7.017405,-1.2485761999999998,4.104858999999999,-0.97258645,0.0,-0.26631612,32.64,-25.74,-3.06
1554118095141,-6.9970546,-1.7411831999999998,4.3915644,-1.4136058999999999,-0.034088463,-0.30892670000000005,32.58,-25.68,-3.24
1554118095160,-6.8252707,-2.0290859,4.578911,-1.9728698,-0.08841695,-0.50173956,32.58,-25.56,-3.36
1554118095180,-6.6720414,-2.4498667999999997,4.8518495999999995,-2.1763353,-0.07776430000000001,-0.5773733,32.58,-25.32,-3.54
1554118095201,-6.3182983,-3.132813,4.9745526,-2.2285333,-0.014913702,-0.5432849000000001,32.64,-25.08,-3.72
1554118095221,-6.048950700000001,-3.7014358,4.445434,-2.0943098,0.026631612000000002,-0.6359629,32.7,-24.72,-4.02
1554118095241,-6.0998273,-4.240131400000001,4.021062000000001,-2.0485036,0.060720075,-0.7978831000000001,32.76,-24.36,-4.32
1554118095260,-5.8921304,-3.5146879999999996,3.5889084,-2.1081583,0.02130529,-1.0578076,32.88,-23.94,-4.8
1554118095280,-6.0974330000000005,-3.019687,2.6994624,-2.6375947,0.043675844000000005,-1.2708606000000002,33.0,-23.34,-5.28
1554118095304,-7.759608,-3.7666779000000004,2.9239187,-3.3747578000000003,-0.05539375,-1.4530207,33.12,-22.68,-5.76
1554118095321,-8.531139,-4.7255554,3.3848026,-3.8519962,-0.3174488,-1.530785,33.3,-21.78,-6.24
1554118095341,-8.318055000000001,-6.0010667,3.0514099999999997,-4.185423999999999,-0.53263223,-1.5552860000000002,33.54,-20.76,-6.78
1554118095361,-7.845799,-7.5764512999999996,3.1423897999999997,-4.0586576,-0.74675035,-1.7555558999999998,33.78,-19.44,-7.26
1554118095380,-7.5345526,-8.762179,2.690484,-3.7049897000000005,-0.9491506,-1.9877833999999999,34.02,-17.94,-7.74
1554118095400,-7.049727000000001,-9.14226,2.4019828,-3.4163031999999998,-1.0812434,-2.0857878,34.26,-16.14,-8.4
1554118095421,-6.4260373,-9.749788,2.4624363999999996,-3.04133,-1.1824435,-2.0793962,34.5,-14.04,-9.0
1554118095441,-5.7664347000000005,-10.510546000000001,2.3157916000000003,-2.6290727,-1.1877699,-2.0069581999999997,34.74,-11.58,-9.72
1554118095460,-5.0427876,-10.601525,1.7908629,-2.2977755,-1.1622036,-1.9355855,34.98,-9.06,-10.44
1554118095481,-4.518457,-10.841544,1.7471686999999998,-1.8514296000000001,-1.0780476,-1.8429075000000001,35.1,-5.28,-11.52
1554118095500,-4.320337,-11.203069000000001,2.0171148999999997,-1.1611383,-0.99495703,-1.7022926,35.1,-2.64,-12.24
1554118095520,-4.096479,-10.805631,1.3060371000000002,-0.6348976,-0.9779128,-1.5840483,35.04,-1.38,-12.6
1554118095541,-3.603872,-9.846753,0.5201403,-0.46978164,-0.8873653,-1.4253238000000001,34.74,2.4,-13.44
1554118095560,-3.5272577000000003,-9.718064,0.87328506,-0.5901565,-0.84688526,-1.3486248,34.56,4.62,-13.86
1554118095580,-3.3500867,-10.315418,0.90381116,-0.5454154,-0.8341021000000001,-1.1728562,34.32,6.54,-14.28
1554118095601,-3.079542,-10.627263000000001,0.48841715,-0.24394555,-0.8032094,-1.0205233,34.02,8.22,-14.7
1554118095621,-3.2136172999999997,-10.648212,0.6667852,0.14168017,-0.7840345999999999,-0.9502159,33.66,9.78,-15.12
1554118095641,-3.0011318,-10.0341,0.6835446,0.29294774,-0.7819041,-0.8681905000000001,33.18,11.22,-15.48
1554118095661,-2.682703,-9.784504,0.7930793,0.20772657,-0.74781567,-0.7595335999999999,32.7,12.48,-15.9
1554118095681,-2.3822308,-9.770139,0.9343372,0.10439592,-0.7137272,-0.72011876,32.34,13.56,-16.32
1554118095701,-2.292448,-9.695917999999999,0.6631939,0.16085494,-0.7275756,-0.737163,31.92,14.52,-16.8
1554118095721,-2.11827,-9.475052999999999,0.7146691999999999,0.24074976,-0.7307714,-0.7052050999999999,31.44,15.3,-17.4
1554118095741,-1.6729485,-9.425972,1.3467385,0.3270362,-0.69135666,-0.67005134,30.96,15.96,-18.0
1554118095761,-1.5239093000000001,-9.513959,1.5508442,0.58483016,-0.62531024,-0.6402239000000001,30.48,16.5,-18.6
1554118095780,-1.5340848,-9.143456,1.3718776000000001,0.7126619000000001,-0.59867865,-0.5954828000000001,29.94,16.92,-19.2
1554118095800,-1.2826935,-8.471283999999999,0.79487497,0.6785734,-0.5699165,-0.5656554,29.46,17.16,-19.86
1554118095820,-0.91817635,-8.416816,0.6679823,0.4133226,-0.50173956,-0.515588,29.04,17.28,-20.52
1554118095840,-0.7266402,-9.301474,1.2491747,0.35473305,-0.4101268,-0.3749731,28.56,17.58,-21.06
1554118095861,-0.5021838,-9.182362,1.2000936000000002,0.44954160000000004,-0.3536678,-0.3057309,28.02,17.76,-21.54
1554118095880,-0.25378537,-8.44375,1.2779051000000001,0.46658584,-0.28655612,-0.26312032,27.54,17.94,-21.96
1554118095901,0.01436521,-8.426991000000001,0.8523358,0.32490566,-0.23329292,-0.21624869,27.06,18.12,-22.32
1554118095921,0.040102877,-8.726865,0.7457938000000001,0.14274544,-0.18002969,-0.18748654,26.64,18.3,-22.68
1554118095941,-0.09935937,-9.087193,0.7739256999999999,0.07776430000000001,-0.15339808,-0.16724652,26.28,18.48,-22.98
1554118095961,-0.019153614,-9.13388,0.79607207,0.094808534,-0.13315806,-0.14807177,26.04,18.6,-23.28
1554118095980,-0.11432313,-9.010578,0.7146691999999999,0.165116,-0.15126756,-0.14274544,25.8,18.72,-23.64
1554118096000,-0.05746084,-8.7771435,0.7200562,0.08628642,-0.165116,-0.11611383,25.62,18.72,-23.94
1554118096020,-0.037110128,-8.941146,0.5506664000000001,-0.098004326,-0.18216023,-0.10546118,25.5,18.66,-24.3
1554118096041,-0.32441434,-9.297882000000001,1.0067618,-0.23009712,-0.1949434,-0.10013486,25.44,18.6,-24.66
1554118096061,-0.56443304,-9.487024,1.3030443,-0.12144015,-0.24181503,-0.15659387,25.32,18.54,-24.9
1554118096081,-0.45190558,-9.431359,1.4879963,0.029827405,-0.2908172,-0.22690132,25.26,18.54,-25.02
1554118096102,-0.25139117,-9.301474,1.1845313,-0.027696876000000002,-0.29933932,-0.26631612,25.14,18.48,-25.14
1554118096122,-0.29747957,-9.654618,1.2623428,-0.15233281,-0.30146983,-0.294013,25.02,18.48,-25.26
1554118096141,-0.3776853,-9.69951,1.5394716999999998,-0.07243799,-0.31318775,-0.3206446,24.9,18.54,-25.38
1554118096161,-0.26276365,-9.372701,1.4227544,0.09054748,-0.31318775,-0.30040458,24.78,18.6,-25.56
1554118096181,0.08798691,-9.260174000000001,1.2677298000000001,-0.06924219,-0.29188246,-0.19813919,24.66,18.66,-25.74
1554118096201,0.15322891,-9.77792,1.5275006000000002,-0.21411815,-0.24394555,-0.11717909,24.48,18.78,-25.8
1554118096220,-0.03232172,-10.073005,1.5825673,-0.13741912,-0.22264028,-0.05965481,24.3,18.9,-25.92
1554118096240,0.12749124,-9.928156,1.4730326,-0.040480047000000005,-0.22477080000000002,-0.02130529,24.12,19.02,-26.04
1554118096261,0.18734628,-9.778519000000001,1.6430208999999998,0.018109497,-0.21837921,0.002130529,23.94,19.2,-26.16
1554118096281,0.17956513,-9.853935,1.7501613999999999,0.04474111,-0.20453078,0.043675844000000005,23.76,19.38,-26.28
1554118096301,0.24241292,-9.803658,1.9351135,0.01917476,-0.15552860000000002,0.05965481,23.52,19.5,-26.34
1554118096320,0.10654198,-9.590573,1.3988123,0.03834952,-0.10546118,0.037284255,23.22,19.68,-26.34
1554118096340,0.25198972,-9.726444,1.6944963,0.010652645,-0.08628642,0.047936900000000005,23.04,19.74,-26.34
1554118096361,0.28371290000000005,-9.703101,1.9045875,0.017044231,-0.041545313,0.0031957934000000003,22.98,19.86,-26.34
1554118096381,0.23403321,-9.303269,1.6292541999999999,0.10226539,-0.014913702,0.007456851,22.92,19.98,-26.34
1554118096400,0.29448682,-9.327211,1.3078326999999998,0.06391586,-0.011717908999999999,-0.013848438000000001,22.86,19.98,-26.34
1554118096420,0.13227965,-9.414599,1.2587515,-0.04261058,-0.011717908999999999,-0.03834952,22.8,19.92,-26.34
1554118096443,-0.01616086,-9.6288805,1.5837643999999997,-0.060720075,-0.014913702,-0.05539375,22.8,19.92,-26.4
1554118096462,0.20709845,-9.741408,1.8471266,-0.0053263223,0.0031957934000000003,-0.039414786,22.74,19.8,-26.4
1554118096482,0.23163901,-9.593566000000001,1.7118542,0.06711166,0.054328485999999995,-0.014913702,22.74,19.74,-26.46
1554118096502,-0.014963761,-9.333197,1.311424,0.07350325,0.084155895,0.0010652645,22.74,19.62,-26.46
1554118096521,-0.024540568,-9.540894,1.3994108,-0.015978966,0.09374327,0.039414786,22.74,19.5,-26.52
1554118096542,-0.017956512,-9.767146,1.4784195,-0.05219796,0.10333065,0.03834952,22.74,19.44,-26.52
1554118096561,-0.018555064,-9.703699,1.484405,-0.026631612000000002,0.1107875,0.025566347000000003,22.74,19.38,-26.52
1554118096581,0.015562311,-9.5732155,1.4149733,0.06391586,0.10333065,0.027696876000000002,22.74,19.32,-26.52
1554118096600,0.11552023,-9.308656,1.2545617,0.083090626,0.10226539,0.05219796,22.74,19.32,-26.52
1554118096621,-0.0017956513,-9.292496,1.2354081000000001,-0.025566347000000003,0.09267801,0.07776430000000001,22.74,19.32,-26.52
1554118096641,-0.18076223,-9.561244,1.4951789,-0.101200126,0.09587380000000001,0.09054748,22.74,19.32,-26.52
1554118096660,-0.29688102,-9.835381,1.7232267,-0.05965481,0.10972224,0.05965481,22.74,19.26,-26.52
1554118096681,-0.42796355,-9.770736999999999,1.54845,0.03195793,0.1107875,0.02130529,22.74,19.32,-26.52
1554118096701,-0.57400984,-9.491214,1.3934253,-0.010652645,0.07989483,-0.02130529,22.8,19.26,-26.52
1554118096721,-0.6344634,-9.534908,1.7561468999999996,-0.05965481,0.06604639400000001,-0.049002163,22.86,19.26,-26.52
1554118096741,-0.57520694,-9.916184,2.2840683,0.0031957934000000003,0.05752428,-0.049002163,22.92,19.26,-26.52
1554118096761,-0.6171055000000001,-10.064625999999999,2.3744495,0.15339808,0.07776430000000001,-0.05965481,23.04,19.2,-26.52
1554118096781,-0.7811083000000001,-9.765948,2.0829554,0.26418558,0.09374327,-0.08628642,23.1,19.2,-26.4
1554118096801,-0.6775591,-9.599552000000001,1.8351556,0.24394555,0.11824436,-0.07989483,23.22,19.2,-26.34
1554118096820,-0.6344634,-9.306861,1.5532384,0.15020229,0.12783173,-0.05752428,23.34,19.2,-26.22
1554118096841,-0.664391,-9.290101,1.5610195,0.060720075,0.12463594,-0.012783173500000002,23.4,19.14,-26.1
1554118096861,-0.5578489999999999,-9.226056,1.5280992,0.017044231,0.099069595,0.05965481,23.46,19.14,-26.04
1554118096880,-0.47764325,-9.49301,1.8662802,0.03195793,0.07669904,0.094808534,23.52,19.14,-25.92
1554118096902,-0.45549688,-9.576807,2.0566192,0.06498113,0.07243799,0.10972224,23.58,19.08,-25.86
1554118096920,-0.56682724,-9.294291000000001,1.7699136000000002,0.06711166,0.080960095,0.082025364,23.7,19.02,-25.8
1554118096942,-0.6536171,-9.329605,1.8968061999999999,0.022370555,0.08522116,0.023435817999999997,23.82,18.96,-25.8
1554118096962,-0.6512229,-9.434352,1.9087773999999997,0.054328485999999995,0.08522116,-0.022370555,23.94,18.84,-25.8
1554118096982,-0.59495914,-9.16261,1.7016789,0.10013486,0.06498113,-0.053263225,24.0,18.72,-25.86
1554118097001,-0.5835866999999999,-9.372701,1.5969325,0.053263225,0.040480047000000005,-0.07989483,24.12,18.6,-25.86
1554118097021,-0.40222588,-9.473258,1.5364790000000002,-0.03195793,0.0063915867,-0.05752428,24.18,18.48,-25.98
1554118097041,-0.4165911,-9.591172,1.7435773999999997,-0.017044231,-0.015978966,-0.07030745599999999,24.24,18.42,-26.04
1554118097060,-0.54049104,-9.739613,1.8818424999999999,0.03089267,-0.0053263223,-0.03834952,24.36,18.3,-26.1
1554118097080,-0.47524905,-9.797672,1.951873,0.12783173,0.007456851,-0.018109497,24.42,18.24,-26.1
1554118097100,-0.43035775,-9.504382000000001,1.7322049,0.1949434,0.011717908999999999,-0.040480047000000005,24.42,18.24,-26.16
1554118097121,-0.45789108,-9.309854,1.7962499,0.10333065,0.01917476,-0.02876214,24.42,18.24,-26.22
1554118097140,-0.3477578,-9.545084,1.9674352,0.002130529,0.041545313,-0.013848438000000001,24.42,18.24,-26.28
1554118097161,-0.27952304,-9.722255,2.171541,0.026631612000000002,0.07669904,0.0031957934000000003,24.48,18.24,-26.28
1554118097181,-0.38127659999999997,-9.588778,2.0883423999999997,0.13635385,0.10439592,0.023435817999999997,24.48,18.24,-26.28
1554118097201,-0.37110126,-9.405023,1.8166006000000001,0.13848437,0.13315806,0.060720075,24.54,18.18,-26.22
1554118097220,-0.4770447,-9.436148,1.7016789,0.11930962,0.15126756,0.08948222,24.54,18.18,-26.22
1554118097241,-0.52133745,-9.414599,1.8136078000000002,0.10652645,0.17789917,0.12037488,24.54,18.06,-26.22
1554118097260,-0.5746084,-9.229049,1.6795325,0.07350325,0.17789917,0.12463594,24.54,18.06,-26.16
1554118097280,-0.62249243,-9.124303,1.7717092,-0.023435817999999997,0.17576863,0.13209279,24.54,18.0,-26.16
1554118097300,-0.7086836999999999,-9.320627,1.8740613000000002,-0.022370555,0.165116,0.12676647,24.6,17.94,-26.16
1554118097320,-0.7248446,-9.294291000000001,1.8507179,0.033023197000000004,0.1470065,0.10226539,24.6,17.88,-26.16
1554118097342,-0.7188591,-9.176975,1.7830818,0.015978966,0.12570119999999999,0.068176925,24.6,17.82,-26.16
1554118097361,-0.7649474,-9.333197,1.9393034,-0.047936900000000005,0.101200126,0.02876214,24.72,17.82,-26.16
1554118097381,-0.7781156,-9.561843,2.1871033,-0.05539375,0.07563378,-0.014913702,24.78,17.7,-26.16
1554118097401,-0.7260416999999999,-9.618107,2.2343888,-0.010652645,0.07456851,-0.06604639400000001,24.9,17.64,-26.1
1554118097421,-0.7757214,-9.548675,2.1727380000000003,0.043675844000000005,0.083090626,-0.10439592,25.02,17.52,-26.04
1554118097440,-0.8194155000000001,-9.543886,2.0769699,0.07350325,0.084155895,-0.13209279,25.14,17.4,-25.98
1554118097460,-0.84335756,-9.555259,2.059612,0.07669904,0.084155895,-0.13528858,25.26,17.28,-25.92
1554118097480,-0.80445176,-9.569026,2.0524294,0.07882957,0.08735169,-0.12250541,25.38,17.1,-25.8
1554118097501,-0.7517793,-9.500193,1.8028339,-0.034088463,0.084155895,-0.094808534,25.44,16.98,-25.74
1554118097521,-0.78170687,-9.453505499999999,2.0745756999999996,-0.09267801,0.08841695,-0.07456851,25.5,16.86,-25.62
1554118097541,-0.86131406,-9.656414,2.0141221999999996,-0.06391586,0.08522116,-0.054328485999999995,25.5,16.8,-25.44
1554118097561,-0.81402856,-9.620500999999999,2.1158757,0.008522116,0.07456851,-0.02130529,25.5,16.74,-25.26
1554118097581,-0.89902276,-9.346364999999999,2.0231004,0.09587380000000001,0.060720075,-0.040480047000000005,25.5,16.68,-25.14
1554118097601,-0.9648633,-9.226056,1.8166006000000001,0.08522116,0.046871635999999994,-0.036218993,25.5,16.62,-25.02
1554118097620,-0.89064306,-9.264961999999999,1.8842366999999998,-0.020240024,0.029827405,-0.022370555,25.5,16.62,-24.84
1554118097641,-0.8415619000000001,-9.384072999999999,1.9165584999999998,-0.10013486,0.024501082,-0.036218993,25.5,16.62,-24.72
1554118097661,-0.7625531999999999,-9.600749,2.1033063,-0.1107875,0.020240024,-0.02876214,25.5,16.62,-24.66
1554118097681,-0.7164649000000001,-9.776722999999999,2.2589292999999997,0.02130529,0.018109497,-0.039414786,25.5,16.62,-24.54
1554118097701,-0.6769605,-9.5570545,2.0817582999999997,0.15765914,0.017044231,-0.033023197000000004,25.56,16.62,-24.48
1554118097721,-0.5919664000000001,-9.268554,1.9871874,0.13848437,0.01917476,-0.025566347000000003,25.56,16.62,-24.48
1554118097741,-0.5859809,-9.246407000000001,1.8237831999999998,0.017044231,0.017044231,-0.026631612000000002,25.62,16.62,-24.42
1554118097762,-0.7308300999999999,-9.361927,1.9351135,-0.06711166,0.03195793,-0.015978966,25.62,16.62,-24.42
1554118097783,-0.55605334,-9.580399,2.236783,-0.06178534,0.043675844000000005,-0.017044231,25.62,16.56,-24.36
1554118097800,-0.5446809,-9.515156,2.1613655,-0.0063915867,0.060720075,-0.03195793,25.68,16.5,-24.3
1554118097826,-0.61112,-9.43914,2.0763714,0.03089267,0.07669904,-0.03834952,25.62,16.5,-24.3
1554118097842,-0.56802434,-9.44333,1.8806453999999997,0.060720075,0.09054748,-0.027696876000000002,25.56,16.38,-24.24
1554118097861,-0.59136784,-9.345168,1.8698715,0.054328485999999995,0.09161274,-0.04474111,25.5,16.32,-24.18
1554118097880,-0.62249243,-9.289502,1.8321629000000001,0.0010652645,0.09054748,-0.027696876000000002,25.44,16.32,-24.18
1554118097900,-0.60453594,-9.3343935,1.8734628,-0.03089267,0.09374327,-0.023435817999999997,25.44,16.26,-24.18
1554118097920,-0.6751649000000001,-9.400234,1.9207484000000001,-0.041545313,0.10333065,-0.023435817999999997,25.44,16.2,-24.18
1554118097940,-0.7134720999999999,-9.466674000000001,1.9871874,0.01917476,0.10865697,-0.017044231,25.38,16.2,-24.12
1554118097960,-0.6781576,-9.431359,1.939902,0.05752428,0.11504856,-0.015978966,25.38,16.14,-24.06
1554118097980,-0.7236475,-9.316438,1.8722657,0.06498113,0.12357068,-0.004261058,25.38,16.14,-23.94
1554118098000,-0.7206547,-9.3026705,1.8255788,0.035153727999999995,0.13741912,0.007456851,25.44,16.08,-23.88
1554118098021,-0.6919243,-9.287707000000001,1.8531121,0.004261058,0.15126756,0.036218993,25.5,16.02,-23.7
1554118098040,-0.6925228,-9.3104515,1.8686744,0.012783173500000002,0.16405073,0.05006743,25.56,16.02,-23.64
1554118098061,-0.6865373,-9.294291000000001,1.894412,0.053263225,0.18429075,0.07243799,25.62,16.02,-23.52
1554118098081,-0.81163436,-9.345168,2.0284874,0.165116,0.18216023,0.084155895,25.74,16.02,-23.4
1554118098101,-0.8098387,-9.335591,1.7908629,0.25140239999999997,0.1768339,0.10013486,25.86,16.08,-23.28
1554118098120,-0.7793127,-9.18715,1.7238252,0.19600865,0.14807177,0.13635385,25.98,16.14,-23.22
1554118098140,-0.79248077,-9.320028,1.9752164,0.05965481,0.12463594,0.12144015,26.1,16.14,-23.16
1554118098162,-1.002572,-9.592369,2.4396915,0.0,0.12783173,0.10439592,26.22,16.2,-23.16
1554118098182,-1.2802993,-9.764750999999999,2.6378117000000003,0.13848437,0.098004326,0.101200126,26.34,16.2,-23.1
1554118098201,-1.246182,-9.415198,2.4013843999999995,0.21411815,0.08841695,0.060720075,26.52,16.26,-23.1
1554118098221,-1.3718776000000001,-9.196728,2.2224178,0.17576863,0.08841695,0.008522116,26.76,16.2,-23.04
1554118098241,-1.4263457,-9.575011,2.4223334999999997,0.07350325,0.10013486,0.025566347000000003,27.0,16.14,-23.04
1554118098261,-1.2653356000000002,-9.914988000000001,2.8969840000000002,0.20133498,0.098004326,0.034088463,27.18,16.08,-23.04
1554118098281,-1.2042834999999998,-9.640852,2.705448,0.34940675,0.082025364,-0.004261058,27.42,16.08,-22.98
1554118098301,-1.2623428,-9.1829605,2.4462755,0.2908172,0.09374327,-0.008522116,27.54,16.02,-22.98
1554118098320,-1.400608,-9.243414,2.48578,0.22477080000000002,0.10226539,0.013848438000000001,27.72,15.96,-22.92
1554118098340,-1.4263457,-9.394848,2.5833437000000004,0.22050974,0.10013486,0.020240024,27.84,15.78,-22.86
1554118098361,-1.3599066,-9.081805000000001,2.5863364,0.19920446,0.101200126,-0.013848438000000001,27.96,15.54,-22.8
1554118098381,-1.4191631000000002,-9.029732000000001,2.409764,0.12996227,0.08735169,-0.00958738,27.96,15.3,-22.8
1554118098401,-1.347337,-9.099164,2.3104044999999998,-0.0010652645,0.082025364,0.010652645,27.9,15.0,-22.74
1554118098421,-1.2737153,-9.264961999999999,2.343325,-0.13315806,0.068176925,0.011717908999999999,27.84,14.76,-22.74
1554118098441,-1.2671312,-9.465475999999999,2.6342204,-0.14913702,0.06604639400000001,0.010652645,27.78,14.52,-22.8
1554118098460,-1.2808979,-9.692925,2.7838580000000004,0.0031957934000000003,0.068176925,0.023435817999999997,27.78,14.34,-22.86
1554118098481,-1.2054806,-9.671975999999999,2.9053638,0.24394555,0.068176925,0.012783173500000002,27.72,14.16,-22.86
1554118098501,-1.1162965,-9.348161,2.678513,0.4133226,0.07243799,-0.002130529,27.72,14.04,-22.92
1554118098521,-1.2228385,-9.181764,2.3630772,0.4314321,0.09161274,0.014913702,27.72,14.04,-22.92
1554118098540,-1.134253,-9.227852,2.510919,0.35899413,0.11930962,0.05539375,27.72,14.1,-22.98
1554118098560,-1.0648212,-9.503783,2.7467479999999997,0.386691,0.1470065,0.10546118,27.78,14.1,-22.98
1554118098580,-1.1133038,-9.575610000000001,2.5773582000000004,0.51984906,0.16192019,0.13209279,27.84,14.1,-22.98
1554118098601,-1.1366472,-9.284116000000001,2.5037365,0.5432849000000001,0.17363810000000002,0.16405073,27.9,14.04,-22.92
1554118098622,-1.0971429,-9.085397,2.5013422999999997,0.47936899999999993,0.17044231,0.19068234,28.02,13.92,-22.92
1554118098642,-1.1719618,-9.259575,2.5348610000000003,0.43569317,0.18855181,0.25033715,28.14,13.68,-22.98
1554118098662,-1.2246342,-9.483433,2.7874494,0.4644553,0.23009712,0.3536678,28.2,13.38,-22.98
1554118098681,-1.2360066,-9.358934,2.7898436,0.49854377,0.25566345,0.39734364,28.26,13.02,-23.04
1554118098701,-1.2773066000000002,-9.334992,2.731784,0.4708469,0.30679616,0.47297743,28.32,12.54,-23.1
1554118098723,-1.3198037,-9.605537,3.0909145000000002,0.6562029,0.45167214,0.67537767,28.5,11.76,-23.22
1554118098741,-1.4437037,-9.654019,3.5583823,0.8873653,0.5603291,0.7616641,28.56,11.52,-23.28
1554118098761,-1.7465701,-9.446322,3.9378633,1.2080098,0.65726817,0.8127968000000001,28.68,10.92,-23.34
1554118098780,-2.0715830000000004,-9.048885,3.8911762000000003,1.4050837999999999,0.74035877,0.8724516,28.8,10.26,-23.4
1554118098800,-2.4384943999999997,-8.5886,3.9995138999999997,1.438107,0.8223841999999999,0.92038846,28.98,9.54,-23.4
1554118098821,-2.8101943,-8.122928,4.109049,1.4168017,0.92464954,0.94808537,29.28,8.7,-23.46
1554118098841,-3.0735563999999997,-7.958925,4.225766,1.3933659,0.9981528000000001,0.9171927,29.64,7.62,-23.46
1554118098861,-3.3746273999999996,-7.74225,4.3478703,1.3646038,1.0322412,0.9108011,30.3,5.82,-23.34
1554118098881,-3.6745010000000002,-7.5046253,4.7237599999999995,1.3262542,1.0641992,0.90973586,30.66,4.44,-23.22
1554118098900,-3.9869443999999996,-7.423821,5.117605999999999,1.3305153,1.0812434,0.89162636,30.84,3.72,-23.16
1554118098921,-4.26527,-7.5549035,5.394735,1.4679343999999999,1.0705907,0.87138635,31.38,1.44,-22.68
1554118098940,-4.250905,-7.132327,5.337274,1.5947008999999999,1.026915,0.7680557,31.74,-0.12,-22.26
1554118098961,-4.538808,-6.4858923,5.2660465,1.7140104999999999,0.9981528000000001,0.62531024,32.16,-1.68,-21.66
1554118098981,-4.8865657,-6.079477,5.209184,1.7278589,0.9757822,0.5795039000000001,32.52,-3.18,-20.94
1554118099001,-5.0577510000000006,-6.0303955,5.2941785,1.6532904,0.9491506,0.572047,32.88,-4.5,-20.22
1554118099021,-5.171476,-5.798158,5.3037553,1.591505,0.92997587,0.50600064,33.18,-5.76,-19.5
1554118099041,-5.467758,-5.4390279999999995,5.272032299999999,1.5126754999999998,0.9129315999999998,0.4282363,33.48,-7.02,-18.72
1554118099061,-5.6299653,-4.929661299999999,5.236717700000001,1.3539511,0.87032104,0.406931,33.84,-8.22,-17.88
1554118099081,-5.7682304,-4.6662992999999995,5.261258,1.1313108,0.7797736,0.3749731,34.26,-9.3,-17.22
1554118099100,-6.1363389999999995,-4.8380833,5.2863975,0.98110855,0.6828345,0.36325517,34.56,-10.2,-16.5
1554118099120,-6.389526,-4.948216400000001,5.788581400000001,0.8969527,0.6114618,0.39201729999999996,34.8,-10.92,-15.96
1554118099141,-6.237494,-4.896142500000001,5.994482499999999,0.9502159,0.5603291,0.34940675,34.86,-11.64,-15.36
1554118099161,-6.171055,-4.7937902999999995,6.1387334000000005,1.0386329,0.5635249,0.33129725,34.92,-12.24,-14.58
1554118099181,-6.063316,-4.431667299999999,6.213552,1.1504856,0.588026,0.30999196,34.98,-12.96,-13.74
1554118099201,-6.257246,-4.0276456,5.692813,1.3060142,0.5837649,0.25246766,34.98,-13.74,-13.02
1554118099221,-6.483498,-3.8654387000000003,5.453393,1.3720607,0.5901565,0.23329292,34.98,-14.46,-12.3
1554118099241,-6.4248405,-3.7654807999999997,5.862801599999999,1.32945,0.60507023,0.25140239999999997,34.92,-15.12,-11.64
1554118099260,-6.371569,-3.4799721,6.129156,1.3081448,0.6135923000000001,0.19281286,34.86,-15.78,-11.04
1554118099281,-6.603208,-3.0897174,6.132149,1.3560816,0.6146576,0.13954964,34.86,-16.44,-10.38
1554118099301,-6.755839,-2.9394810000000002,5.877765,1.4530207,0.61678815,0.13422333,34.86,-17.04,-9.78
1554118099321,-6.800729799999999,-2.855684,5.8837504,1.5190671999999998,0.61678815,0.12996227,34.8,-17.52,-9.12
1554118099341,-6.8665705,-2.7036523999999997,5.7670335999999995,1.5659386999999998,0.58269966,0.051132694000000006,34.74,-17.88,-8.58
1554118099360,-6.959346000000001,-2.6461914,5.824494400000001,1.6234629999999999,0.5699165,0.02130529,34.74,-18.0,-7.92
1554118099380,-7.122151400000001,-2.1799207000000003,5.7616463,1.598962,0.5486112,0.018109497,34.68,-18.12,-7.26
1554118099400,-7.214328299999999,-1.8046296000000002,5.4504004,1.4679343999999999,0.49534798,-0.0053263223,34.62,-18.24,-6.54
1554118099420,-7.2322845000000004,-1.6795325,5.383961,1.3070794,0.43995422,-0.056459017,34.62,-18.42,-5.76
1554118099441,-7.5710645,-1.6472107,5.4575830000000005,1.2080098,0.38349520000000004,-0.10759171,34.56,-18.6,-4.92
1554118099461,-7.563283,-1.5251063999999999,5.500079599999999,1.2229236,0.31957933,-0.10013486,34.5,-18.78,-3.96
1554118099480,-7.2831616,-1.3491327,5.3971290000000005,1.2261194,0.2695119,-0.113983296,34.5,-18.96,-3.12
1554118099501,-7.407660000000001,-1.0726023999999998,5.3396683,1.091896,0.22477080000000002,-0.14487597,34.5,-19.08,-2.34
1554118099521,-7.510012,-0.7727286,5.4001220000000005,0.9214538000000001,0.17363810000000002,-0.15233281,34.44,-19.2,-1.68
1554118099541,-7.539341,-0.801459,5.28939,0.78083885,0.15446335,-0.13422333,34.44,-19.26,-1.02
1554118099561,-7.581838,-1.1091138999999999,5.3701944,0.59122175,0.128897,-0.09587380000000001,34.38,-19.2,-0.42
1554118099581,-7.254431200000001,-1.0546459,5.765238,0.4644553,0.12570119999999999,-0.13102753,34.38,-19.2,0.06
1554118099601,-7.374141000000001,-0.58777654,5.7179523,0.41438788,0.13102753,-0.19600865,34.32,-19.08,0.42
1554118099621,-7.6794020000000005,-0.44232875,5.7819970000000005,0.34727620000000003,0.15765914,-0.18855181,34.32,-19.02,0.54
1554118099641,-7.6027875,-0.5674258000000001,5.823297,0.29294774,0.17257284,-0.19600865,34.26,-18.84,0.72
1554118099661,-7.541735000000001,-0.6787562,5.707178,0.16937704,0.19387813,-0.19387813,34.26,-18.66,0.9
1554118099681,-7.6189485,-0.7386111999999999,5.7496753,0.034088463,0.19600865,-0.22050974,34.32,-18.36,1.14
1554118099700,-7.499836999999999,-0.9127894,5.795165,0.011717908999999999,0.19174760000000002,-0.18322548,34.32,-18.18,1.44
1554118099721,-7.4705076,-1.1713632,5.60722,0.10333065,0.16937704,-0.14807177,34.32,-17.88,1.86
1554118099741,-7.417236999999999,-1.0073603000000002,5.635950599999999,0.24607609,0.13102753,-0.23435818,34.38,-17.7,2.1
1554118099761,-7.477092,-0.7254431,6.0244102,0.37284255,0.128897,-0.2428803,34.44,-17.52,2.34
1554118099781,-7.428011,-0.7146691999999999,5.922058,0.47830373,0.13848437,-0.25140239999999997,34.5,-17.34,2.58
1554118099801,-7.1820064,-0.98341835,5.875371,0.5187838,0.16298546,-0.2908172,34.56,-17.16,2.76
1554118099821,-7.114370299999999,-1.2306197,5.915474,0.6263755,0.20026971,-0.30466563,34.62,-16.92,2.94
1554118099840,-7.189788,-1.1372458,5.4761375999999995,0.75420725,0.22903186,-0.36432046,34.68,-16.74,3.06
1554118099860,-7.201759,-0.8487445,5.3701944,0.700944,0.27483824,-0.42290998,34.68,-16.5,3.12
1554118099880,-7.331644,-0.37110126,4.981735,0.5656554,0.30253512,-0.5230448000000001,34.74,-16.2,3.24
1554118099900,-7.3789296,-0.83138657,4.605247,0.16405073,0.34727620000000003,-0.48682585,34.74,-15.9,3.42
1554118099920,-7.5758529999999995,-1.1558008,5.2026005,-0.017044231,0.35473305,-0.5933523,34.74,-15.48,3.6
1554118099940,-7.754819400000001,-1.3850456,5.006874,-0.08522116,0.36325517,-0.61891866,34.74,-15.06,3.9
1554118099961,-7.6650367,-1.1324573999999998,4.9200845,-0.18216023,0.38242993,-0.6135923000000001,34.74,-14.52,4.14
1554118099981,-7.8326306,-1.2677298000000001,4.9254713,-0.35473305,0.36112466,-0.6125271,34.74,-14.04,4.44
1554118100001,-8.037335,-1.3575124,5.1170077,-0.48149952,0.34408042,-0.56885123,34.74,-13.5,4.74
1554118100021,-8.122928,-1.323395,5.20679,-0.46019423,0.32810146,-0.49534798,34.74,-12.9,5.04
1554118100040,-8.188768,-1.4263457,5.1642933,-0.34727620000000003,0.32277513,-0.49215218,34.74,-12.3,5.4
1554118100061,-8.693346,-1.5753847,5.456983999999999,-0.33129725,0.30360037,-0.4314321,34.68,-11.7,5.7
1554118100081,-8.74542,-1.8561048999999998,5.3941364,-0.3323625,0.28975195,-0.2972088,34.62,-11.22,6.0
1554118100101,-8.837597,-2.1416135,5.2636523,-0.28868666,0.28868666,-0.20879184,34.62,-10.68,6.24
1554118100121,-8.837597,-2.3451207000000003,5.0254292000000005,-0.10865697,0.25353295,-0.13954964,34.56,-10.26,6.48
1554118100141,-8.656236999999999,-2.0697872999999998,5.061941,0.014913702,0.23222765,-0.10546118,34.44,-9.9,6.66
1554118100161,-8.567052,-1.9369092,5.2026005,0.113983296,0.22370553,-0.07350325,34.44,-9.6,6.84
1554118100181,-8.568848,-1.8680758000000002,5.1002483,0.15339808,0.22583607,-0.007456851,34.38,-9.36,7.02
1554118100201,-8.395866,-1.7615339,4.8638205999999995,0.14594123,0.21944448,0.040480047000000005,34.32,-9.18,7.2
1554118100220,-8.236652000000001,-1.7914615000000003,4.532822,0.13209279,0.20026971,0.034088463,34.32,-9.0,7.38
1554118100241,-8.3408,-1.8321629000000001,4.256891,0.11611383,0.15446335,0.035153727999999995,34.26,-8.94,7.56
1554118100260,-8.314464,-1.751957,4.232949,0.096939065,0.111852765,0.037284255,34.26,-8.88,7.8
1554118100281,-8.131308,-1.8279729999999998,4.291606400000001,0.056459017,0.09054748,0.02130529,34.26,-8.88,8.04
1554118100300,-8.067263,-1.9243397,4.2778397,-0.007456851,0.08841695,0.018109497,34.26,-8.88,8.22
1554118100320,-8.174403,-1.8818424999999999,4.3065705,-0.07456851,0.07669904,0.018109497,34.26,-8.94,8.46
1554118100341,-8.352771,-1.9632453999999997,4.1665095999999995,-0.11717909,0.04261058,0.015978966,34.2,-9.06,8.64
1554118100361,-8.392874,-2.1523874,4.385579,-0.10013486,0.03195793,0.037284255,34.2,-9.12,8.88
1554118100381,-8.189366999999999,-2.123657,4.609437000000001,-0.07350325,0.05539375,0.029827405,34.14,-9.24,9.0
1554118100400,-8.325238,-2.0644004000000002,4.5316253,-0.10439592,0.082025364,0.027696876000000002,34.14,-9.3,9.12
1554118100421,-8.526351,-2.0644004000000002,4.573524,-0.113983296,0.09374327,0.07350325,34.08,-9.36,9.18
1554118100441,-8.462306,-2.1338322,4.561553,-0.06391586,0.10546118,0.14913702,34.08,-9.42,9.24
1554118100461,-8.5383215,-2.1051017999999995,4.431069,-0.082025364,0.112918034,0.14274544,34.02,-9.48,9.36
1554118100483,-8.873510000000001,-1.9327193,4.510676,-0.09054748,0.10972224,0.11930962,34.02,-9.48,9.48
1554118100501,-8.914810000000001,-1.8441339,4.582502,-0.05006743,0.11717909,0.15126756,34.02,-9.54,9.48
1554118100521,-8.736442,-1.6849195,4.561553,0.029827405,0.128897,0.18002969,34.02,-9.66,9.54
1554118100541,-8.893262,-1.6083049999999999,4.320935700000001,0.03195793,0.11930962,0.20772657,34.02,-9.84,9.6
1554118100560,-8.95611,-1.5388732,4.2515035,-0.023435817999999997,0.08628642,0.23116238,34.08,-10.02,9.66
1554118100581,-8.907029,-1.3323733,4.1742907,-0.058589544,0.043675844000000005,0.25672874,34.08,-10.2,9.66
1554118100600,-8.860342,-1.3982137,4.085107,-0.09161274,0.0,0.26844665,34.02,-10.44,9.72
1554118100621,-8.796297000000001,-1.3982137,4.271256,-0.07350325,-0.02130529,0.29188246,34.02,-10.8,9.72
1554118100641,-8.674192,-1.3078326999999998,4.0695443,-0.010652645,-0.037284255,0.28975195,33.96,-11.1,9.78
1554118100661,-8.683769,-1.067814,3.8989575,-0.011717908999999999,-0.053263225,0.28122982,33.96,-11.4,9.78
1554118100681,-8.64666,-0.9008184000000001,3.9211037,-0.101200126,-0.06604639400000001,0.30892670000000005,33.9,-11.7,9.78
1554118100703,-8.499416,-1.0432734000000001,4.0982747,-0.20559604,-0.068176925,0.34088463,33.84,-11.94,9.78
1554118100722,-8.343793,-1.1372458,4.079121,-0.25353295,-0.08522116,0.2908172,33.78,-12.24,9.78
1554118100742,-8.362347999999999,-1.1905168,4.110844,-0.23329292,-0.09587380000000001,0.26312032,33.72,-12.48,9.78
1554118100762,-8.339603,-1.1294646000000002,4.2012253,-0.18642128,-0.09054748,0.2790993,33.6,-12.78,9.78
1554118100781,-8.324639,-1.1007341999999998,4.1419687000000005,-0.18429075,-0.096939065,0.2727077,33.54,-13.02,9.72
1554118100802,-8.290522,-1.2455834,4.2664676,-0.22690132,-0.09161274,0.25246766,33.42,-13.38,9.66
1554118100821,-8.330027000000001,-1.335366,4.3478703,-0.21731395,-0.07882957,0.2428803,33.36,-13.74,9.6
1554118100841,-8.514978,-1.459266,4.248511,-0.22477080000000002,-0.080960095,0.23009712,33.24,-14.16,9.48
1554118100860,-8.435371,-1.2204443,4.4807487,-0.2428803,-0.083090626,0.2034655,33.18,-14.64,9.36
1554118100880,-8.319252,-1.1587936,4.607641,-0.19068234,-0.082025364,0.1949434,33.12,-15.12,9.24
1554118100901,-8.446744,-1.2162545,4.6710877,-0.17150758,-0.06604639400000001,0.22264028,33.12,-15.6,9.12
1554118100921,-8.5538845,-1.2515688999999999,4.7722425,-0.16192019,-0.06711166,0.21518342,33.06,-16.02,9.0
1554118100940,-8.397064,-1.1947067,4.8662148,-0.04261058,-0.07243799,0.15978967,33.06,-16.44,8.88
1554118100961,-8.244433,-0.81402856,4.7878050000000005,0.09054748,-0.060720075,0.11930962,33.06,-16.74,8.82
1554118100981,-8.24204,-0.62847793,4.6124296,0.08948222,-0.054328485999999995,0.12463594,33.0,-16.92,8.82
1554118101001,-8.296508,-0.7212533,4.540603599999999,0.041545313,-0.054328485999999995,0.11930962,33.0,-16.98,8.76
1554118101020,-8.313866,-0.8535328999999999,4.459201,-0.07563378,-0.07350325,0.13209279,33.0,-17.04,8.76
1554118101041,-8.249222,-0.8750806999999999,4.5441947,-0.1438107,-0.083090626,0.11824436,33.0,-17.04,8.76
1554118101060,-8.376713,-0.96067345,4.6022544000000005,-0.13102753,-0.10546118,0.09267801,33.0,-17.04,8.76
1554118101081,-8.486847000000001,-1.0271125,4.569932499999999,-0.053263225,-0.13102753,0.082025364,32.94,-17.1,8.7
1554118101101,-8.372523,-0.9923966000000001,4.7022123,-0.023435817999999997,-0.113983296,0.12037488,32.94,-17.16,8.64
1554118101121,-8.328828999999999,-1.0007763,4.607043,0.00958738,-0.08948222,0.113983296,32.94,-17.28,8.58
1554118101141,-8.341997000000001,-0.88405895,4.5136685,0.002130529,-0.07776430000000001,0.101200126,32.94,-17.4,8.46
1554118101163,-8.313267,-0.8230068000000001,4.595072,0.020240024,-0.06924219,0.12676647,32.94,-17.64,8.4
1554118101181,-8.254609,-0.82779527,4.3861775000000005,0.058589544,-0.04580637,0.12676647,32.82,-17.94,8.28
1554118101200,-8.201937,-0.7248446,4.361038,0.0053263223,-0.046871635999999994,0.101200126,32.82,-18.24,8.22
1554118101222,-8.06427,-0.5566519,4.586692,-0.056459017,-0.056459017,0.06711166,32.76,-18.54,8.1
1554118101242,-8.0606785,-0.39504328,4.679467,-0.10226539,-0.060720075,0.056459017,32.7,-18.9,8.1
1554118101261,-7.86615,-0.4381389,4.6202106,-0.17150758,-0.051132694000000006,0.03195793,32.64,-19.2,8.04
1554118101281,-8.081628,-0.6488286999999999,4.6124296,-0.221575,-0.04580637,-0.041545313,32.52,-19.44,7.92
1554118101300,-8.285733,-0.78050977,4.7147818,-0.23542345,-0.047936900000000005,-0.07243799,32.46,-19.74,7.86
1554118101320,-8.29531,-0.9935937,4.7997760000000005,-0.17576863,-0.03834952,-0.049002163,32.46,-20.22,7.74
1554118101342,-8.346786,-0.97623575,4.8099513,-0.08522116,-0.033023197000000004,-0.046871635999999994,32.4,-20.46,7.62
1554118101360,-8.376713,-0.92775315,4.7004166,-0.0053263223,-0.022370555,-0.034088463,32.34,-20.82,7.56
1554118101380,-8.334216,-0.83138657,4.6513352,0.017044231,-0.012783173500000002,-0.010652645,32.28,-21.3,7.5
1554118101400,-8.246828,-0.82001406,4.638766,-0.018109497,0.004261058,-0.020240024,32.1,-21.96,7.38
1554118101421,-8.301894,-0.7188591,4.703409,-0.039414786,0.012783173500000002,-0.049002163,31.98,-22.62,7.32
1554118101440,-8.380303999999999,-0.61112,4.599261299999999,-0.047936900000000005,0.004261058,-0.05006743,31.86,-23.34,7.32
1554118101460,-8.30369,-0.6428431,4.6208089999999995,-0.06924219,-0.007456851,-0.051132694000000006,31.74,-23.94,7.26
1554118101480,-8.222287,-0.78769237,4.7896004,-0.08522116,-0.007456851,-0.051132694000000006,31.62,-24.48,7.2
1554118101500,-8.268974,-0.8499416,4.7878050000000005,-0.084155895,-0.011717908999999999,-0.06604639400000001,31.5,-24.9,7.2
1554118101521,-8.371326,-0.75596917,4.7734394,-0.05965481,-0.015978966,-0.10972224,31.38,-25.26,7.14
1554118101540,-8.449736999999999,-0.7553706,4.7602715,-0.058589544,-0.02130529,-0.101200126,31.32,-25.32,7.08
1554118101560,-8.345589,-0.74758947,4.782418,-0.10333065,-0.012783173500000002,-0.06391586,31.32,-25.26,7.02
1554118101580,-8.319851,-0.87567925,4.7542860000000005,-0.1470065,-0.004261058,-0.07030745599999999,31.32,-25.2,6.96
1554118101600,-8.395268,-0.88944596,4.780622,-0.13315806,-0.0053263223,-0.10013486,31.32,-25.02,6.9
1554118101621,-8.375516000000001,-0.85772276,4.770447,-0.08841695,-0.00958738,-0.098004326,31.38,-24.78,6.9
1554118101640,-8.41502,-0.9115923,4.7734394,-0.012783173500000002,-0.014913702,-0.09374327,31.38,-24.42,6.96
1554118101661,-8.316259,-0.8858546,4.7560816,0.051132694000000006,-0.02876214,-0.10439592,31.38,-24.0,6.96
1554118101681,-8.216302,-0.8523358,4.6022544000000005,0.08628642,-0.03195793,-0.10439592,31.44,-23.7,6.96
1554118101700,-8.273763,-0.9283517,4.4238862999999995,0.04261058,-0.025566347000000003,-0.08628642,31.56,-23.46,6.96
1554118101720,-8.314464,-0.9056068000000002,4.439448400000001,-0.06391586,-0.025566347000000003,-0.08735169,31.68,-23.16,6.96
1554118101740,-8.189964999999999,-0.88166475,4.4861355000000005,-0.14168017,-0.03089267,-0.09054748,31.8,-22.74,6.96
1554118101760,-8.217499,-0.83138657,4.437054,-0.18961707,-0.04474111,-0.10759171,31.98,-22.38,6.96
1554118101781,-8.340200999999999,-0.97144735,4.4741645,-0.18642128,-0.047936900000000005,-0.10546118,32.1,-22.08,6.96
1554118101801,-8.371326,-1.1432313,4.5501804,-0.16618125,-0.047936900000000005,-0.111852765,32.34,-21.78,6.96
1554118101820,-8.307879,-1.1354501000000001,4.584896,-0.14913702,-0.054328485999999995,-0.14168017,32.52,-21.36,6.9
1554118101840,-8.272566000000001,-1.0450690999999999,4.586692,-0.22264028,-0.06178534,-0.17896444,32.7,-21.0,6.9
1554118101861,-8.419210000000001,-1.2479776000000002,4.7147818,-0.2908172,-0.07456851,-0.15659387,32.82,-20.64,6.9
1554118101880,-8.380903,-1.4287398999999998,4.892551,-0.27803403,-0.09587380000000001,-0.1470065,32.88,-20.28,6.84
1554118101900,-8.238448,-1.3880384,4.9027267,-0.25353295,-0.09054748,-0.12676647,32.94,-20.04,6.84
1554118101921,-8.432379,-1.5975311,5.0763063,-0.23009712,-0.07350325,-0.10333065,33.0,-19.74,6.84
1554118101941,-8.373122,-1.6136919,5.097854,-0.15233281,-0.07456851,-0.101200126,33.06,-19.56,6.78
1554118101960,-8.169615,-1.4359225,4.9625816,-0.060720075,-0.07563378,-0.12144015,33.06,-19.5,6.72
1554118101980,-8.238448,-1.3455413999999999,4.7602715,-0.01917476,-0.10226539,-0.1438107,33.06,-19.56,6.66
1554118102000,-8.100183,-1.1659763,4.776432499999999,-0.04474111,-0.1438107,-0.15020229,33.0,-19.56,6.6
1554118102021,-7.9708962,-1.1575965,4.744708999999999,-0.113983296,-0.18002969,-0.16085494,33.0,-19.56,6.42
1554118102040,-7.828441000000001,-1.2401965,4.7135844,-0.21624869,-0.21518342,-0.18322548,33.0,-19.56,6.18
1554118102061,-7.659051400000001,-1.3227965,4.6495394999999995,-0.3334278,-0.25672874,-0.25033715,33.0,-19.56,6.0
1554118102081,-7.498041000000001,-1.2180501,4.622006400000001,-0.45912898,-0.2876214,-0.34940675,33.0,-19.56,5.76
1554118102101,-7.603985000000001,-1.2336124,4.6417584000000005,-0.5795039000000001,-0.30466563,-0.44528055,33.0,-19.56,5.58
1554118102121,-7.726089,-1.1629834,4.7788267,-0.6743124,-0.32384038,-0.5432849000000001,33.0,-19.5,5.34
1554118102141,-7.563283,-1.2252326999999998,4.809353,-0.7616641,-0.34088463,-0.6114618,33.0,-19.44,5.16
1554118102161,-7.553107700000001,-1.8363526999999997,4.871003,-0.84688526,-0.35792887,-0.6625945,33.06,-19.26,4.92
1554118102181,-7.3699512,-2.5863364,5.233126,-0.7914915,-0.3653857,-0.7286409,33.12,-18.96,4.74
1554118102201,-7.2047514999999995,-2.7252002,5.3516392999999995,-0.5209143,-0.39201729999999996,-0.8926915999999999,33.24,-18.72,4.56
1554118102221,-7.4322004,-2.7682957999999998,5.2235494000000005,-0.2876214,-0.44208476,-0.9896306999999999,33.42,-18.3,4.32
1554118102241,-7.6189485,-3.0502129,5.309142,0.011717908999999999,-0.48149952,-1.051416,33.6,-17.82,4.2
1554118102261,-7.5668745,-3.7140055,5.4222684,0.34940675,-0.53476274,-1.0045444,33.84,-16.74,3.78
1554118102281,-7.4327993,-3.8175547,5.5862713,0.5305017,-0.5603291,-0.99069595,33.9,-16.32,3.66
1554118102300,-7.358579,-3.8193502,5.667674,0.75420725,-0.60507023,-0.99708754,34.26,-14.88,3.12
1554118102321,-7.405266,-3.6523547,5.701193,1.0791129,-0.680704,-0.98430437,34.56,-13.92,2.76
1554118102340,-7.444171400000001,-3.5901055,6.1094040000000005,1.3390374,-0.7520766999999999,-0.9086706,34.92,-12.96,2.46
1554118102360,-7.199364699999999,-4.122815,6.1578870000000006,1.6181368,-0.8319715,-0.84155893,35.16,-12.0,2.1
1554118102381,-6.996455999999999,-4.016872,6.811503999999999,1.8343854,-0.8223841999999999,-0.7701861999999999,35.34,-11.52,1.92
1554118102400,-6.892308,-4.049194,6.5948286,2.3031017999999994,-0.8724516,-0.64768076,35.7,-9.96,1.2
1554118102421,-6.880337,-3.4602199999999996,6.4499793,2.3840618,-0.9012136999999999,-0.5230448000000001,35.94,-9.0,0.72
1554118102440,-6.731298,-2.7257986,6.3182983,2.1411815,-0.9108011,-0.39947417,36.18,-8.16,0.24
1554118102461,-6.3709707,-1.5478513999999999,6.1088057000000004,1.5126754999999998,-0.9171927,-0.24394555,36.36,-7.44,-0.3
1554118102481,-5.840056400000001,-0.6619968,5.657499,0.6540724,-0.9353021999999999,-0.16831179,36.42,-6.9,-0.9
1554118102501,-5.4659624,-1.0289081,6.0441623,-0.39627838,-0.92464954,-0.10759171,36.42,-6.3,-1.5
1554118102521,-5.3019595,-1.6932991999999998,6.5146227,-0.8724516,-0.902279,-0.029827405,36.42,-5.76,-2.28
1554118102540,-4.8745947,-2.3852234,7.735666,-1.1824435,-0.84368944,-0.022370555,36.42,-5.34,-3.12
1554118102560,-4.935647,-3.095703,8.454525,-0.9832390999999999,-0.78723043,-0.094808534,36.42,-5.1,-3.84
1554118102580,-4.938041,-3.5027169999999996,8.6095495,-0.28975195,-0.7105314,-0.12570119999999999,36.42,-5.04,-4.56
1554118102600,-4.7285485000000005,-3.0490158,8.680178999999999,0.4165184,-0.6402239000000001,-0.18535602,36.42,-4.98,-5.28
1554118102620,-4.832696,-2.4797945,8.548497,0.82344943,-0.57098174,-0.25672874,36.42,-4.92,-5.82
1554118102641,-4.9015293,-1.9225439999999998,8.594585,0.9800433000000001,-0.49854377,-0.25566345,36.42,-4.92,-6.36
1554118102660,-4.957793,-1.9393034,8.447341999999999,1.1185277,-0.45273739999999996,-0.22583607,36.3,-4.86,-6.84
1554118102680,-4.7405194999999996,-1.9165584999999998,8.473678999999999,1.1270498,-0.41545314,-0.19068234,36.18,-4.8,-7.2
1554118102700,-4.5777135,-1.7812861,8.335413,1.063134,-0.36218992,-0.23542345,36.0,-4.8,-7.38
1554118102721,-4.83509,-1.4778209999999998,8.392874,0.9139969000000001,-0.30360037,-0.23116238,35.88,-4.74,-7.74
1554118102740,-4.869208,-1.2707225,8.318653999999999,0.7307714,-0.26844665,-0.17257284,35.76,-4.68,-8.16
1554118102760,-4.551976,-1.2904748,8.497022,0.58056915,-0.22796659,-0.15126756,35.64,-4.68,-8.64
1554118102780,-4.3113589999999995,-1.3108255,8.53054,0.4282363,-0.18002969,-0.12463594,35.58,-4.68,-9.06
1554118102800,-4.405330999999999,-1.7699136000000002,8.645462,0.36645097,-0.14168017,-0.014913702,35.52,-4.68,-9.54
1554118102820,-4.367024,-1.951873,9.091981,0.48469532,-0.10759171,0.07776430000000001,35.58,-4.68,-9.96
1554118102840,-4.2718544000000005,-1.8291701,8.945336,0.809601,-0.07776430000000001,0.04474111,35.64,-4.68,-10.38
1554118102861,-4.288614,-1.2252326999999998,8.867524000000001,0.9651296,-0.023435817999999997,0.07137272,35.64,-4.74,-10.74
1554118102880,-4.3646297,-0.5578489999999999,8.376114999999999,0.94488955,0.0031957934000000003,0.13102753,35.64,-4.86,-10.98
1554118102900,-4.208408,-0.3776853,7.893683,0.85753787,0.037284255,0.12037488,35.64,-4.98,-11.16
1554118102920,-4.171298,0.3477578,7.7171106,0.5113269,0.047936900000000005,0.12144015,35.58,-5.16,-11.22
1554118102941,-4.1222167,0.2825158,7.817667,0.02876214,0.040480047000000005,0.13422333,35.46,-5.46,-11.34
1554118102960,-4.2880154,-0.32441434,8.028955,-0.111852765,0.02130529,0.15233281,35.4,-5.64,-11.4
1554118102980,-4.07134,-0.75477207,8.473678999999999,-0.18642128,0.023435817999999997,0.16405073,35.34,-6.0,-11.46
1554118103000,-4.0402154999999995,-0.39444473,8.3390045,-0.20772657,0.017044231,0.09054748,35.22,-6.48,-11.52
1554118103020,-4.170100700000001,-0.047884032,8.255806,-0.23116238,0.007456851,0.080960095,35.22,-6.6,-11.52
1554118103040,-4.1335893,-0.08379706,7.9032598,-0.2972088,-0.007456851,0.10865697,35.22,-6.9,-11.52
1554118103060,-4.0719385,-0.027533319,8.070255,-0.49854377,-0.010652645,0.07882957,35.1,-7.26,-11.52
1554118103080,-4.219182,-0.41299978,8.350377,-0.60933125,-0.0031957934000000003,0.029827405,35.04,-7.44,-11.52
1554118103101,-4.2999864,-0.8283938,8.721478,-0.5752428,0.012783173500000002,0.002130529,34.98,-7.56,-11.46
1554118103120,-4.4364557,-1.1324573999999998,8.686164,-0.41438788,0.0053263223,-0.035153727999999995,34.92,-7.56,-11.46
1554118103140,-4.4544125,-1.0444705,8.720282000000001,-0.11930962,-0.0010652645,-0.09374327,34.92,-7.56,-11.46
1554118103160,-4.4837413,-0.7906850999999999,8.408437,0.07137272,0.00958738,-0.1107875,34.86,-7.62,-11.46
1554118103181,-4.334103599999999,-0.39803603,8.2995,-0.09267801,0.02130529,-0.07030745599999999,34.8,-7.68,-11.46
1554118103200,-4.2491093,0.21368249999999997,7.5351515,-0.60507023,0.037284255,-0.113983296,34.8,-7.74,-11.46
1554118103220,-4.0360255,0.25318682,7.3112936,-1.4349113000000002,0.10972224,-0.12357068,34.8,-7.86,-11.52
1554118103240,-4.302979,-0.9624690999999999,8.219892999999999,-1.9579561,0.17044231,-0.113983296,34.8,-7.98,-11.52
1554118103261,-4.4957123,-3.1753099999999996,9.7803135,-1.3880396000000002,0.25885928,-0.06924219,34.8,-7.98,-11.58
1554118103281,-4.5483847,-4.0001125,10.299257,-0.24074976,0.29614353,-0.09374327,34.86,-7.8,-11.58
1554118103300,-4.4693760000000005,-2.8275523,9.357738000000001,0.60720074,0.3153183,-0.25140239999999997,34.92,-7.5,-11.58
1554118103320,-4.991312000000001,-1.3024458,8.388085,0.8852348,0.29827404,-0.29507825,34.98,-7.02,-11.58
1554118103341,-5.175066999999999,-1.1013328000000002,7.7374616,0.7755125,0.21944448,-0.11930962,35.04,-6.48,-11.46
1554118103361,-4.8524485,-1.2982559,7.515399,0.5795039000000001,0.165116,-0.08628642,35.1,-5.88,-11.28
1554118103381,-4.807557,-1.122282,7.5429325,0.11717909,0.101200126,-0.17044231,35.22,-5.34,-11.1
1554118103401,-4.976947,-1.2186487,7.832032000000001,-0.13528858,0.07243799,-0.12250541,35.4,-4.74,-10.86
1554118103421,-5.0451818,-1.8154035,8.137293,-0.28122982,0.03834952,-0.022370555,35.52,-4.26,-10.68
1554118103441,-4.8344917,-2.3756466,8.397662,-0.17576863,0.02876214,0.01917476,35.7,-3.96,-10.44
1554118103461,-4.794389,-2.3600842999999996,8.257602,0.09374327,0.007456851,0.014913702,35.82,-3.78,-10.26
1554118103481,-4.9625816,-1.9782091,8.119336,0.29294774,-0.018109497,0.026631612000000002,36.0,-3.72,-10.08
1554118103501,-4.941033999999999,-1.5310919,7.902063,0.34940675,-0.05006743,0.082025364,36.18,-3.72,-9.96
1554118103521,-4.7506948,-1.2791021999999999,7.797915,0.24394555,-0.053263225,0.10652645,36.3,-3.72,-9.9
1554118103541,-4.785411,-1.1354501000000001,7.767389,0.09267801,-0.054328485999999995,0.07989483,36.36,-3.78,-9.84
1554118103561,-4.943428,-1.2419921,7.891887,0.018109497,-0.07882957,0.07776430000000001,36.42,-3.84,-9.78
1554118103581,-4.7728410000000006,-1.6101006000000002,8.41502,0.15659387,-0.08948222,0.113983296,36.42,-3.84,-9.72
1554118103601,-4.546589,-1.7411831999999998,8.729858,0.36645097,-0.06924219,0.11611383,36.36,-3.9,-9.66
1554118103621,-4.619612,-1.4951789,8.556278,0.515588,-0.039414786,0.07137272,36.3,-4.02,-9.6
1554118103641,-4.6950297,-0.95468795,8.495225999999999,0.6423545,0.0,0.05752428,36.18,-4.08,-9.6
1554118103661,-4.674679,-0.6703765,8.149264,0.6423545,0.029827405,0.07563378,36.12,-4.14,-9.6
1554118103680,-4.583101,-0.5758055000000001,8.152257,0.4889564,0.06711166,0.068176925,36.06,-4.26,-9.6
1554118103700,-4.7542860000000005,-0.44113165,8.187572,0.3270362,0.09161274,0.040480047000000005,36.0,-4.38,-9.6
1554118103720,-4.831499,-0.37229836,8.008605000000001,0.12783173,0.09267801,0.07563378,35.94,-4.5,-9.6
1554118103740,-4.653131,-0.45848963,8.048708,-0.043675844000000005,0.08948222,0.07776430000000001,35.88,-4.62,-9.6
1554118103760,-4.679467,-0.55725044,8.164826,-0.083090626,0.082025364,0.05219796,35.82,-4.8,-9.6
1554118103781,-4.747701999999999,-0.6242880999999999,8.269572,-0.07243799,0.07776430000000001,0.056459017,35.82,-4.98,-9.6
1554118103801,-4.7560816,-0.7691373,8.206725,0.015978966,0.05006743,0.08628642,35.88,-5.1,-9.6
1554118103821,-4.673482,-0.7146691999999999,8.264783999999999,0.08948222,0.029827405,0.08522116,35.94,-5.22,-9.6
1554118103841,-4.6363715999999995,-0.45669398,8.037335,0.15765914,0.0031957934000000003,0.054328485999999995,36.0,-5.4,-9.6
1554118103861,-4.6884456,-0.3681085,7.9194207,0.11504856,-0.007456851,0.06924219,36.12,-5.58,-9.6
1554118103881,-4.684255599999999,-0.4309563,8.119935,0.023435817999999997,-0.02876214,0.094808534,36.24,-5.76,-9.6
1554118103901,-4.7237599999999995,-0.50038815,8.151658,0.00958738,-0.043675844000000005,0.07137272,36.3,-5.88,-9.54
1554118103920,-4.7429137,-0.43514615,8.210316,0.033023197000000004,-0.047936900000000005,0.05006743,36.42,-6.0,-9.54
1554118103940,-4.6662992999999995,-0.39504328,8.293514,0.06498113,-0.04474111,0.03195793,36.42,-6.18,-9.48
1554118103961,-4.653131,-0.46387658,8.222287,0.082025364,-0.040480047000000005,0.033023197000000004,36.48,-6.42,-9.42
1554118103981,-4.581305,-0.31543607,8.201937,0.083090626,-0.017044231,0.036218993,36.42,-6.54,-9.42
1554118104001,-4.642357,-0.25857377,8.137891999999999,0.07563378,-0.007456851,0.020240024,36.42,-6.6,-9.36
1554118104020,-4.63697,-0.19991584,8.15525,0.026631612000000002,0.0053263223,0.0053263223,36.36,-6.66,-9.3
1554118104040,-4.630985,-0.18555063,8.154053,-0.008522116,0.014913702,-0.033023197000000004,36.3,-6.66,-9.3
1554118104060,-4.6818614,-0.19991584,8.128314999999999,-0.024501082,0.013848438000000001,-0.040480047000000005,36.3,-6.72,-9.3
1554118104081,-4.8320975,-0.18854338,8.144476,-0.036218993,0.002130529,-0.058589544,36.24,-6.78,-9.36
1554118104103,-4.780622,-0.31064767,8.270171000000001,-0.046871635999999994,-0.0053263223,-0.06711166,36.18,-6.78,-9.36
1554118104122,-4.770447,-0.44352585,8.397662,-0.033023197000000004,-0.010652645,-0.07563378,36.12,-6.78,-9.36
1554118104142,-4.829105,-0.47225627,8.416816,0.004261058,-0.0053263223,-0.06711166,36.06,-6.78,-9.42
1554118104162,-4.918288700000001,-0.4165911,8.193557,0.034088463,-0.014913702,-0.051132694000000006,36.0,-6.78,-9.42
1554118104181,-4.9428296,-0.35434186,8.156446,0.020240024,-0.026631612000000002,-0.035153727999999995,35.94,-6.84,-9.42
1554118104200,-4.9069166,-0.4985925,8.251616499999999,-0.022370555,-0.027696876000000002,-0.00958738,35.88,-6.84,-9.42
1554118104221,-4.8338933,-0.58777654,8.31207,-0.06178534,-0.02876214,-0.010652645,35.82,-6.9,-9.36
1554118104241,-4.8189297,-0.56682724,8.253411999999999,-0.035153727999999995,-0.026631612000000002,-0.011717908999999999,35.76,-6.96,-9.3
1554118104261,-4.823119,-0.44532153,8.091205,-0.036218993,-0.03089267,0.018109497,35.76,-7.02,-9.3
1554118104282,-4.835689,-0.51116204,8.194156,-0.060720075,-0.04261058,0.034088463,35.7,-7.08,-9.24
1554118104301,-4.76925,-0.5578489999999999,8.491635,-0.02876214,-0.041545313,0.020240024,35.7,-7.08,-9.24
1554118104321,-4.722563,-0.6206968,8.455722,0.084155895,-0.03195793,0.01917476,35.7,-7.14,-9.24
1554118104341,-4.664503599999999,-0.49679685,8.376114999999999,0.2876214,-0.010652645,0.004261058,35.7,-7.2,-9.24
1554118104360,-4.672284599999999,-0.29568392,8.078036,0.32810146,-0.007456851,-0.007456851,35.7,-7.2,-9.24
1554118104381,-4.635773,0.061650693,7.951741999999999,0.21411815,0.0031957934000000003,-0.013848438000000001,35.7,-7.2,-9.24
1554118104400,-4.551976,0.092176765,7.887099,0.011717908999999999,0.022370555,-0.012783173500000002,35.7,-7.2,-9.24
1554118104420,-4.560954,0.02813187,7.81228,-0.17470337,0.03089267,-0.025566347000000003,35.7,-7.2,-9.24
1554118104441,-4.6244005999999995,-0.13766660000000003,7.8811135,-0.4079963,0.04474111,-0.049002163,35.7,-7.2,-9.24
1554118104461,-4.5980644,-0.2896984,7.8865004,-0.49428272,0.051132694000000006,-0.060720075,35.7,-7.2,-9.18
1554118104481,-4.609437000000001,-0.2621651,7.793725,-0.5773733,0.034088463,-0.08841695,35.7,-7.2,-9.18
1554118104501,-4.3807906999999995,-0.08798691,7.5758529999999995,-0.7190535,0.022370555,-0.15339808,35.7,-7.2,-9.24
1554118104521,-4.3119574,-0.31004912,7.4806833,-0.90973586,0.034088463,-0.18535602,35.7,-7.14,-9.24
1554118104540,-4.283227,-0.6512229,7.7153149999999995,-1.0684601999999999,0.053263225,-0.19813919,35.7,-7.14,-9.36
1554118104560,-4.0545807,-0.7589619000000001,7.5932107,-1.1100056,0.07456851,-0.29827404,35.7,-7.14,-9.42
1554118104580,-3.9719806,-0.4165911,6.774992500000001,-1.3358417,0.098004326,-0.36645097,35.7,-7.02,-9.54
1554118104601,-3.6379894999999998,-0.42916065,6.2368955999999995,-1.9121496999999998,0.17150758,-0.41545314,35.7,-6.9,-9.6
1554118104621,-3.6337996,-1.1683705,6.430825700000001,-2.4937842,0.27057716,-0.48682585,35.76,-6.66,-9.66
1554118104641,-3.8863877999999996,-2.5959132,6.940790700000001,-2.7654266,0.33555830000000003,-0.50600064,35.76,-6.24,-9.66
1554118104661,-3.843891,-3.503914,7.231686,-2.5768747000000003,0.39201729999999996,-0.56885123,35.76,-5.64,-9.6
1554118104681,-3.74094,-3.3435028,6.18123,-2.4522388,0.43888897,-0.6583334,35.76,-4.98,-9.48
1554118104701,-3.8893807000000002,-3.221997,5.6018333,-2.7569044,0.51665324,-0.71585774,35.76,-4.2,-9.18
1554118104721,-4.395156,-4.206013700000001,5.785588300000001,-3.016829,0.5656554,-0.7254451,35.76,-3.36,-8.82
1554118104741,-4.644751,-5.792771,6.1632739999999995,-2.8932583,0.58483016,-0.6828345,35.82,-2.52,-8.4
1554118104761,-4.3161473,-6.8581905,5.940613,-2.4948493999999997,0.6466155,-0.6668556,35.82,-1.62,-7.8
1554118104780,-4.1802763999999994,-6.8863225,4.9583917,-2.1880531000000003,0.77444726,-0.77231675,35.88,-0.3,-6.78
1554118104801,-4.6501384,-7.0521210000000005,4.7261543,-2.1379857,0.8745821,-0.8064051999999999,35.94,0.48,-6.0
1554118104821,-4.933253,-7.171232700000001,4.228160400000001,-1.965413,0.9054747999999999,-0.8021441,36.0,1.38,-5.22
1554118104841,-5.0745106,-7.445369,3.4955344,-1.8098843,0.94275904,-0.7499462,36.06,2.16,-4.5
1554118104860,-5.118803,-7.659051400000001,3.2704793999999997,-1.8216022,0.96619487,-0.71159667,36.06,2.58,-3.9
1554118104881,-5.2157683,-7.793725,3.5607765,-1.8588865,0.9896306999999999,-0.70840085,36.06,3.66,-3.12
1554118104901,-5.4857144,-8.054094000000001,3.466804,-1.7449032,0.9981528000000001,-0.65726817,36.06,4.38,-2.34
1554118104921,-5.6580973,-8.217499,3.0855273999999997,-1.5403723999999999,0.99282646,-0.5773733,35.94,5.1,-1.32
1554118104940,-5.760449400000001,-8.34918,2.5959132,-1.3720607,0.97897804,-0.531567,35.82,5.7,-0.3
1554118104961,-5.777807,-8.604161999999999,2.4366987,-1.3060142,0.9534117,-0.49428272,35.7,6.24,0.72
1554118104981,-5.667674,-8.666411,2.0967221,-1.2420983,0.9235843,-0.46125950000000004,35.52,6.6,1.68
1554118105001,-5.593454,-8.719683,1.7878702000000002,-1.1994878,0.92464954,-0.38349520000000004,35.34,7.02,2.64
1554118105020,-5.604826,-8.914810000000001,1.6011223999999997,-1.1430287000000001,0.9353021999999999,-0.3057309,35.22,7.32,3.66
1554118105040,-5.6269727,-9.002198,1.4790181,-0.9619338,0.9235843,-0.28549087,35.04,7.62,4.68
1554118105060,-5.6341553,-9.012972,1.2318168,-0.7861651999999999,0.90654004,-0.257794,34.92,7.86,5.64
1554118105080,-5.645528,-8.9602995,0.9199719999999999,-0.5613944000000001,0.89162636,-0.23968449999999997,34.8,8.04,6.54
1554118105100,-5.722142,-8.889072,0.8295909,-0.406931,0.8724516,-0.27057716,34.68,8.16,7.32
1554118105120,-5.6982,-8.921394,0.6841431,-0.29294774,0.8511463,-0.3057309,34.5,8.28,8.1
1554118105140,-5.5940523,-9.103952,0.5626374,-0.21837921,0.809601,-0.3174488,34.26,8.34,8.94
1554118105161,-5.567716000000001,-9.129688999999999,0.40940848,-0.15659387,0.7797736,-0.33449304,33.96,8.34,9.78
1554118105181,-5.7119665,-9.100361,0.14425065,-0.15339808,0.7339671999999999,-0.350472,33.66,8.4,10.74
1554118105201,-5.6940102999999995,-9.220071,-0.047285482000000004,-0.22477080000000002,0.6689861,-0.32384038,33.36,8.46,11.52
1554118105222,-5.3624134,-9.260772,0.055066638,-0.28229508,0.6040049,-0.27164245,33.06,8.46,12.12
1554118105240,-5.1906295,-9.130288,0.27832595,-0.25353295,0.5486112,-0.22583607,32.76,8.4,12.66
1554118105260,-5.218761,-9.005191,0.32621,-0.16618125,0.49960902,-0.17150758,32.46,8.4,13.14
1554118105280,-5.237316000000001,-8.9842415,0.27353755,-0.07776430000000001,0.45273739999999996,-0.12037488,32.16,8.4,13.68
1554118105301,-5.059547,-8.920795,0.032920275,0.10759171,0.3749731,-0.06391586,31.86,8.4,14.22
1554118105320,-4.981735,-8.653842,-0.26994625,0.16192019,0.3334278,-0.05006743,31.62,8.46,14.64
1554118105340,-5.0116625,-8.426991000000001,-0.39145198,0.06285059999999999,0.2972088,-0.043675844000000005,31.38,8.46,14.88
1554118105360,-4.953603299999999,-8.391078,-0.46806642,-0.07563378,0.25672874,-0.00958738,31.08,8.52,15.24
1554118105380,-4.8159366,-8.523956,-0.5518635000000001,-0.16085494,0.25140239999999997,0.034088463,30.84,8.58,15.54
1554118105400,-4.830302,-8.643068,-0.48303019999999997,-0.17789917,0.26525086,0.039414786,30.6,8.64,15.9
1554118105421,-4.8763905,-8.646061,-0.33279404,-0.14487597,0.26418558,0.029827405,30.42,8.7,16.26
1554118105441,-4.8285065000000005,-8.602965,-0.28371290000000005,-0.10226539,0.25672874,0.046871635999999994,30.3,8.76,16.5
1554118105461,-4.803367,-8.613739,-0.4405331,-0.10333065,0.23009712,0.07350325,30.18,8.76,16.68
1554118105480,-4.766257,-8.575432000000001,-0.4249708,-0.15126756,0.19600865,0.07669904,30.06,8.76,16.86
1554118105500,-4.7405194999999996,-8.583213,-0.29568392,-0.17363810000000002,0.15233281,0.080960095,29.88,8.64,17.1
1554118105522,-4.7237599999999995,-8.662222,-0.21607670000000004,-0.13209279,0.10013486,0.10333065,29.64,8.52,17.34
1554118105541,-4.5753193,-8.721478,-0.0796072,-0.06391586,0.07030745599999999,0.11824436,29.58,8.46,17.4
1554118105561,-4.522647,-8.767567,-0.088585466,0.034088463,0.047936900000000005,0.12570119999999999,29.46,8.4,17.46
1554118105580,-4.5621514,-8.652645,-0.20829555,0.07776430000000001,0.041545313,0.12037488,29.28,8.28,17.46
1554118105601,-4.5920787,-8.435371,-0.28909984,0.06604639400000001,0.022370555,0.09267801,29.16,8.16,17.52
1554118105621,-4.6088379999999995,-8.39048,-0.30226797,0.024501082,0.002130529,0.07137272,29.1,7.98,17.58
1554118105641,-4.6740804,-8.480861,-0.24121583,-0.002130529,-0.02130529,0.054328485999999995,29.1,7.92,17.64
1554118105660,-4.7979803,-8.542512,-0.24839842,-0.007456851,-0.04474111,0.037284255,29.1,7.86,17.7
1554118105681,-4.8380833,-8.533533,-0.21128829999999998,-0.022370555,-0.07030745599999999,0.026631612000000002,29.16,7.8,17.82
1554118105700,-4.8733974,-8.480861,-0.19512744,-0.015978966,-0.096939065,0.012783173500000002,29.16,7.68,17.94
1554118105722,-4.929661299999999,-8.546700999999999,-0.17238252,0.014913702,-0.12250541,0.034088463,29.22,7.44,18.12
1554118105740,-4.9428296,-8.528147,-0.17956513,0.05965481,-0.13209279,0.03834952,29.22,7.38,18.12
1554118105761,-5.0020857,-8.531737,-0.41299978,0.14274544,-0.15552860000000002,0.037284255,29.28,7.2,18.24
1554118105781,-4.9158945,-8.491036,-0.41599256,0.16405073,-0.15020229,0.06711166,29.34,7.08,18.36
1554118105803,-4.969764,-8.54311,-0.35793316,0.13528858,-0.14913702,0.068176925,29.34,6.96,18.36
1554118105820,-5.01286,-8.381501,-0.34476504,0.10013486,-0.15765914,0.06924219,29.4,6.9,18.36
1554118105840,-4.9943047,-8.3868885,-0.21368249999999997,0.06498113,-0.165116,0.09374327,29.4,6.84,18.24
1554118105861,-4.95899,-8.416217999999999,-0.06943185,0.05965481,-0.15765914,0.09267801,29.46,6.84,18.18
1554118105881,-5.105036699999999,-8.482656500000001,-0.12988544,0.083090626,-0.16192019,0.07563378,29.52,6.84,18.12
1554118105901,-5.065532,-8.486248,-0.15143326,0.12570119999999999,-0.16724652,0.07137272,29.58,6.84,18.06
1554118105921,-4.911106,-8.565256,-0.14784196,0.13528858,-0.165116,0.08735169,29.7,6.9,18.0
1554118105940,-4.868608999999999,-8.541314,-0.06823475,0.16085494,-0.15978967,0.094808534,29.88,6.9,17.88
1554118105960,-4.8817773,-8.503007,-0.10594343,0.15552860000000002,-0.15446335,0.12357068,30.0,6.9,17.76
1554118105982,-4.8404775,-8.3312235,-0.06943185,0.12037488,-0.14061491,0.15126756,30.12,6.9,17.64
1554118106001,-5.00448,-8.346786,-0.088585466,0.07350325,-0.12357068,0.15765914,30.24,6.9,17.58
1554118106021,-5.078101599999999,-8.189964999999999,0.0047884034,0.017044231,-0.10865697,0.17257284,30.36,6.9,17.46
1554118106041,-5.127781400000001,-8.180987,0.11791443,0.0,-0.099069595,0.17576863,30.42,6.9,17.46
1554118106060,-5.2289367,-8.248025,0.060453594000000006,-0.035153727999999995,-0.08735169,0.20026971,30.6,6.84,17.34
1554118106081,-5.379771,-8.292916,0.25019407,-0.02130529,-0.060720075,0.19920446,30.6,6.72,17.22
1554118106101,-5.503671,-8.236053,0.3238158,0.008522116,-0.04474111,0.19068234,30.6,6.54,17.1
1554118106121,-5.5180364,-8.217499,0.36511576,0.07456851,-0.040480047000000005,0.18855181,30.6,6.42,16.92
1554118106141,-5.4240639999999996,-8.133103,0.3274071,0.18855181,-0.035153727999999995,0.17576863,30.66,6.24,16.74
1554118106161,-5.494094400000001,-8.0924015,0.1328782,0.21411815,-0.026631612000000002,0.17257284,30.66,6.0,16.5
1554118106181,-5.543175700000001,-7.8942814,0.14604631,0.15765914,-0.03089267,0.14061491,30.72,5.76,16.32
1554118106201,-5.655703,-7.829638,0.09636662,0.08522116,-0.060720075,0.11930962,30.72,5.58,16.14
1554118106221,-5.635351999999999,-7.879916000000001,0.17357962,0.02876214,-0.08841695,0.12996227,30.78,5.34,15.96
1554118106241,-5.595249,-7.9750857,0.22385786,0.025566347000000003,-0.11611383,0.12144015,30.84,5.1,15.78
1554118106261,-5.61979,-7.9930425000000005,0.24301147,0.084155895,-0.13422333,0.09374327,30.9,4.98,15.66
1554118106281,-5.699397,-7.969699,0.09816227,0.13848437,-0.16085494,0.07669904,30.9,4.92,15.72
1554118106301,-5.734113,-7.960122,0.077213004,0.13209279,-0.18642128,0.08735169,30.96,4.8,15.72
1554118106320,-5.695806,-7.9391727,0.10534488,0.113983296,-0.20559604,0.09587380000000001,31.02,4.74,15.72
1554118106342,-5.66947,-7.984064,0.13946225,0.094808534,-0.22050974,0.10333065,31.02,4.74,15.72
1554118106362,-5.671864,-7.928399000000001,0.12030864,0.07776430000000001,-0.22477080000000002,0.113983296,31.08,4.74,15.66
1554118106382,-5.768829,-7.8386164,0.0023942017,0.036218993,-0.23009712,0.12783173,31.08,4.74,15.6
1554118106401,-5.961562000000001,-7.950545299999999,0.03172317,-0.023435817999999997,-0.23648871,0.14274544,31.14,4.74,15.54
1554118106421,-6.05733,-8.008605000000001,0.35793316,-0.082025364,-0.23435818,0.18002969,31.2,4.68,15.42
1554118106441,-6.0836663,-8.027759,0.48662150000000004,-0.06391586,-0.23968449999999997,0.21411815,31.2,4.56,15.3
1554118106461,-6.149507,-8.002619000000001,0.44352585,-0.004261058,-0.24394555,0.2609898,31.26,4.5,15.18
1554118106480,-6.0968347000000005,-7.958925,0.3824737,0.008522116,-0.24181503,0.31318775,31.32,4.32,15.0
1554118106500,-6.0866594,-7.991845,0.2908955,0.034088463,-0.25992453,0.34194988,31.38,4.08,14.88
1554118106521,-6.18961,-8.034343,0.26874915,0.03834952,-0.26631612,0.386691,31.5,3.78,14.7
1554118106541,-6.1985884,-7.860762599999999,0.46148238,0.0063915867,-0.26844665,0.45273739999999996,31.68,3.12,14.52
1554118106561,-6.1758432,-7.826047,0.46088383,0.0031957934000000003,-0.27057716,0.49321744,31.8,2.94,14.46
1554118106580,-6.241683999999999,-7.767389,0.60214174,0.014913702,-0.2609898,0.5368933000000001,31.92,2.52,14.22
1554118106600,-6.2967505,-7.675811,0.5638345,0.07243799,-0.26631612,0.5571333,32.04,2.16,14.04
1554118106621,-6.2003837,-7.423821,0.4985925,0.13422333,-0.27164245,0.57417756,32.22,1.8,13.86
1554118106640,-6.2542534000000005,-7.3322425,0.5506664000000001,0.1438107,-0.27483824,0.5752428,32.46,1.38,13.56
1554118106661,-6.427234599999999,-7.261015400000001,0.7386111999999999,0.12676647,-0.26418558,0.5603291,32.64,1.02,13.38
1554118106683,-6.573281,-7.1514807000000005,0.7404069000000001,0.11930962,-0.26738137,0.5496765,32.7,0.72,13.2
1554118106700,-6.5906386,-7.080253,0.85532856,0.09267801,-0.2790993,0.55606806,32.82,0.36,13.02
1554118106720,-6.6067995999999996,-6.901885000000001,0.88525605,0.08522116,-0.30040458,0.5390238,32.88,-0.12,12.9
1554118106742,-6.7767878,-6.909067599999999,0.9139864999999999,0.05752428,-0.32384038,0.52837116,32.94,-0.54,12.84
1554118106762,-6.725911,-6.745663,1.0851719,-0.0010652645,-0.34514567,0.52624065,33.0,-0.96,12.6
1554118106783,-6.8360443,-6.6062009999999995,1.0875661,-0.068176925,-0.36964676,0.49321744,33.06,-1.5,12.36
1554118106801,-7.150882000000001,-6.654085,1.1587936,-0.1587244,-0.39308259999999995,0.4857606,33.12,-2.1,12.06
1554118106821,-7.1730285,-6.6612678,1.292869,-0.18216023,-0.42930159999999995,0.48682585,33.18,-2.7,11.76
1554118106841,-7.073669000000001,-6.7366850000000005,1.335366,-0.1470065,-0.47617322,0.5006742999999999,33.3,-3.24,11.46
1554118106860,-7.056909599999999,-6.7199254,1.6071079,-0.060720075,-0.48043427,0.50387007,33.42,-3.72,11.04
1554118106881,-7.138312299999999,-6.611588,1.714847,0.035153727999999995,-0.46125950000000004,0.5113269,33.54,-4.2,10.56
1554118106901,-7.1448965,-6.2859764,1.5544354999999999,0.113983296,-0.4314321,0.531567,33.66,-4.74,10.14
1554118106920,-7.1454949999999995,-6.1010246,1.5592238999999999,0.12357068,-0.39414784,0.55287224,33.78,-5.28,9.78
1554118106941,-7.08983,-6.0345855,1.8022354,0.07669904,-0.34940675,0.56245965,33.9,-5.88,9.48
1554118106961,-7.0581064,-5.886145,1.7016789,0.043675844000000005,-0.31638354,0.5486112,33.96,-6.36,9.18
1554118106981,-7.083844,-5.840056400000001,1.7854759999999998,-0.0031957934000000003,-0.2695119,0.55287224,34.02,-6.96,8.88
1554118107001,-7.1209545,-5.8364654,1.9309237000000001,-0.00958738,-0.23542345,0.531567,34.14,-7.56,8.58
1554118107021,-7.1742253,-5.7736173,1.9500773,0.041545313,-0.20772657,0.49428272,34.14,-8.1,8.4
1554118107041,-7.271789,-5.723339,2.03567,0.15020229,-0.18322548,0.45486793,34.2,-8.58,8.22
1554118107061,-7.447763,-5.5988407,2.124854,0.24820662,-0.16618125,0.41545314,34.26,-9.12,8.04
1554118107080,-7.554305,-5.567117700000001,2.2044610000000002,0.28655612,-0.15659387,0.4016047,34.26,-9.6,7.8
1554118107101,-7.591415,-5.492897,2.4079683,0.32490566,-0.14061491,0.37710363,34.26,-10.14,7.68
1554118107120,-7.728483,-5.3737855,2.40318,0.39414784,-0.12676647,0.3536678,34.26,-10.62,7.5
1554118107141,-7.8709383,-5.1930237,2.4211364,0.44421527,-0.112918034,0.3568636,34.32,-10.98,7.32
1554118107160,-7.8787193,-5.102043599999999,2.4839842,0.4878911,-0.10972224,0.34194988,34.38,-11.4,7.14
1554118107181,-7.866748299999999,-5.04997,2.4953567999999997,0.535828,-0.10333065,0.33875409999999995,34.38,-11.88,7.02
1554118107200,-7.898471400000001,-5.0116625,2.6030957999999997,0.5603291,-0.07776430000000001,0.34301516,34.44,-12.42,6.9
1554118107220,-7.8308353,-4.672883000000001,2.5366566,0.58909124,-0.07563378,0.28549087,34.44,-12.9,6.9
1554118107241,-7.945757,-4.57113,2.4678235,0.58909124,-0.07137272,0.26312032,34.44,-13.32,6.84
1554118107261,-8.057087,-4.5795093,2.5432408,0.55606806,-0.06285059999999999,0.29507825,34.44,-13.68,6.72
1554118107280,-7.948150999999999,-4.502895,2.6138697,0.54435015,-0.047936900000000005,0.2727077,34.44,-13.98,6.66
1554118107300,-7.8290396,-4.3903675,2.7443538,0.5187838,-0.033023197000000004,0.24501082,34.44,-14.22,6.66
1554118107321,-7.854178999999999,-4.3664255,2.7700913,0.50173956,0.015978966,0.23116238,34.38,-14.34,6.6
1554118107341,-8.033145,-4.341286,2.706645,0.49854377,0.051132694000000006,0.23542345,34.38,-14.4,6.54
1554118107361,-8.010999,-4.1934443,2.5863364,0.47404268,0.05965481,0.23435818,34.26,-14.46,6.54
1554118107381,-8.043321,-4.168904,2.7377696,0.43782368,0.07882957,0.21198763,34.26,-14.52,6.54
1554118107401,-8.115746000000001,-4.0025067000000005,2.8161798,0.41864893,0.08948222,0.16937704,34.2,-14.58,6.54
1554118107421,-8.287529,-4.013280399999999,2.72939,0.37923414,0.09161274,0.18216023,34.08,-14.7,6.6
1554118107441,-8.218098,-3.9641995000000003,2.8772318,0.32597092,0.07669904,0.18109496,34.02,-14.94,6.66
1554118107461,-8.261791,-3.8833952000000003,2.8820202,0.33555830000000003,0.07243799,0.15552860000000002,33.96,-15.12,6.72
1554118107480,-8.294711999999999,-3.7541082,2.8155810000000003,0.35579833,0.06498113,0.13209279,33.9,-15.36,6.72
1554118107501,-8.334814999999999,-3.7445314,2.7455509,0.3536678,0.05006743,0.084155895,33.9,-15.54,6.78
1554118107520,-8.416217999999999,-3.7936125,2.7060466,0.34088463,0.027696876000000002,0.058589544,33.9,-15.72,6.84
1554118107540,-8.422802,-3.7074212999999996,2.7449522,0.32810146,0.004261058,0.06285059999999999,33.9,-15.9,6.9
1554118107560,-8.266580000000001,-3.6816837999999996,2.7329812,0.29507825,-0.014913702,0.07882957,33.96,-16.02,6.96
1554118107581,-8.034343,-3.4644098,2.7880477999999997,0.3323625,-0.014913702,0.04474111,33.96,-16.14,7.08
1554118107601,-7.809886,-3.164536,2.9700072,0.44741106,0.017044231,-0.015978966,33.9,-16.26,7.2
1554118107621,-7.690175999999999,-2.96881,3.0041246,0.5294364,0.05006743,-0.06498113,33.84,-16.32,7.32
1554118107641,-7.77517,-2.9053638,2.6593595000000003,0.59761333,0.06711166,-0.13422333,33.72,-16.38,7.5
1554118107661,-7.911041,-3.0418332,2.416348,0.51984906,0.08522116,-0.21624869,33.6,-16.44,7.62
1554118107681,-7.839813,-3.09271,2.4235306,0.23968449999999997,0.10013486,-0.2695119,33.48,-16.44,7.8
1554118107701,-7.979874000000001,-3.2202013,2.6671407000000005,-0.002130529,0.1107875,-0.36964676,33.36,-16.32,7.98
1554118107720,-8.135497,-3.4111388,2.695871,-0.15978967,0.10226539,-0.41758367,33.24,-16.14,8.1
1554118107741,-8.215105,-3.7211879999999997,2.9107506,-0.22796659,0.09587380000000001,-0.4282363,33.06,-15.84,8.22
1554118107761,-8.348581,-3.9719806,3.064578,-0.12357068,0.09054748,-0.48043427,33.0,-15.54,8.34
1554118107780,-8.427589999999999,-3.9959226,3.0699651,0.0063915867,0.10013486,-0.47404268,33.0,-15.18,8.46
1554118107800,-8.5862055,-4.0084919999999995,2.6126726000000002,0.004261058,0.09587380000000001,-0.44954160000000004,33.0,-14.82,8.58
1554118107821,-8.743025999999999,-4.216787999999999,2.866458,-0.13315806,0.10865697,-0.37923414,33.06,-14.4,8.64
1554118107840,-8.686164,-4.131195,2.9616275,-0.23009712,0.11504856,-0.36112466,33.12,-14.04,8.7
1554118107860,-8.796297000000001,-4.23235,2.8233624,-0.34088463,0.111852765,-0.30892670000000005,33.24,-13.62,8.7
1554118107881,-8.793902000000001,-4.3317094,2.7563248,-0.38882150000000004,0.07563378,-0.21092236,33.3,-13.26,8.76
1554118107901,-8.975264,-4.4262805,2.3606830000000003,-0.37071204,0.017044231,-0.14807177,33.42,-12.96,8.76
1554118107920,-9.124303,-4.5034933,2.190096,-0.37390783,-0.04261058,-0.10439592,33.42,-12.9,8.76
1554118107941,-9.008183500000001,-4.532822,2.3463178,-0.386691,-0.1587244,-0.07882957,33.48,-12.54,8.76
1554118107961,-8.875306,-4.394557,2.4995465,-0.29827404,-0.20240025,-0.04580637,33.48,-12.36,8.76
1554118107980,-9.091382000000001,-4.383185,2.4127567,-0.26312032,-0.20985709,0.036218993,33.48,-12.24,8.82
1554118108000,-8.89446,-4.325724,2.4588451,-0.27696875,-0.22903186,0.112918034,33.48,-12.12,8.76
1554118108021,-8.807071,-4.382586,2.2888567,-0.23968449999999997,-0.25033715,0.16192019,33.48,-12.12,8.76
1554118108042,-8.725667999999999,-4.1814733,2.160767,-0.25566345,-0.28336033,0.18322548,33.48,-12.12,8.76
1554118108060,-8.560468,-4.1539397000000005,2.1086931,-0.25885928,-0.3291667,0.19387813,33.48,-12.12,8.76
1554118108081,-8.428188,-4.1437645,2.1098902,-0.27057716,-0.37816888,0.20133498,33.48,-12.24,8.76
1554118108102,-8.262989,-4.0144777000000005,2.0290859,-0.3291667,-0.4250405,0.19813919,33.48,-12.66,8.58
1554118108121,-8.265982000000001,-4.1096473,2.1865046,-0.37284255,-0.44528055,0.19707392,33.48,-12.78,8.52
1554118108141,-8.246229,-4.27365,2.4630349999999996,-0.39095205,-0.4708469,0.18109496,33.48,-13.08,8.22
1554118108160,-8.019378999999999,-4.3119574,2.6204537999999995,-0.4048005,-0.46552056,0.21411815,33.48,-13.38,7.92
1554118108181,-8.037933,-4.3957543,2.5761611,-0.4101268,-0.45380265,0.22050974,33.54,-13.68,7.62
1554118108201,-8.038532,-4.435258999999999,2.5881321,-0.4282363,-0.43995422,0.23542345,33.66,-14.04,7.32
1554118108221,-7.960122,-4.4113164000000005,2.606687,-0.41758367,-0.42290998,0.23009712,33.72,-14.34,6.9
1554118108241,-7.8703394,-4.4268790000000005,2.7485435000000003,-0.37816888,-0.40586576,0.20559604,33.84,-14.64,6.48
1554118108261,-7.785944000000001,-4.43466,2.891597,-0.33875409999999995,-0.38242993,0.19068234,33.9,-14.94,6.0
1554118108281,-7.5698669999999995,-4.525041000000001,3.0005333,-0.31957933,-0.34940675,0.19600865,34.02,-15.24,5.58
1554118108300,-7.444171400000001,-4.4238862999999995,3.1950622,-0.2790993,-0.28655612,0.165116,34.2,-15.66,5.1
1554118108320,-7.590816499999999,-4.326921,3.1381997999999998,-0.23542345,-0.2545982,0.11611383,34.2,-15.84,4.98
1554118108341,-7.833828,-4.4927197,2.9765912999999995,-0.257794,-0.22370553,0.13635385,34.26,-16.26,4.68
1554118108361,-7.666233999999999,-4.5753193,3.164536,-0.31851408,-0.21198763,0.13315806,34.26,-16.86,4.2
1554118108381,-7.726089,-4.497508,3.3554738,-0.34621096,-0.19281286,0.02876214,34.2,-17.22,3.96
1554118108400,-7.7637978,-4.4161053,3.4081461,-0.35899413,-0.1768339,0.017044231,34.14,-17.4,3.78
1554118108420,-7.8027034,-4.470573,3.3967736000000004,-0.36325517,-0.165116,0.033023197000000004,34.08,-17.64,3.48
1554118108441,-7.9301944,-4.5352163,3.3093852999999998,-0.35579833,-0.17363810000000002,-0.014913702,34.02,-17.88,3.12
1554118108461,-7.9762830000000005,-4.530428,3.5404258,-0.32277513,-0.17363810000000002,-0.041545313,33.96,-18.06,2.88
1554118108481,-7.9762830000000005,-4.5352163,3.5841199999999995,-0.24607609,-0.15659387,-0.020240024,33.96,-18.12,2.58
1554118108501,-7.980473,-4.593276,3.4410665000000003,-0.23542345,-0.14594123,0.010652645,33.9,-18.18,2.46
1554118108521,-8.0924015,-4.6273932,3.3662476999999997,-0.20133498,-0.14594123,0.0063915867,33.9,-18.24,2.1
1554118108541,-8.243835,-4.631583,3.394978,-0.11717909,-0.15978967,0.0063915867,33.96,-18.3,1.86
1554118108561,-8.152855,-4.505289,3.2231941,-0.029827405,-0.16937704,-0.0063915867,34.02,-18.3,1.86
1554118108581,-8.094197,-4.459799299999999,3.151368,-0.012783173500000002,-0.14487597,0.017044231,34.08,-18.36,1.68
1554118108601,-7.9463553,-4.4621935,3.2172085999999998,-0.049002163,-0.11824436,0.025566347000000003,34.14,-18.36,1.56
1554118108621,-7.893683,-4.4885297,3.2561142000000003,-0.018109497,-0.10013486,0.033023197000000004,34.2,-18.42,1.38
1554118108641,-7.7218990000000005,-4.4574050000000005,3.1501707999999997,0.01917476,-0.099069595,0.05965481,34.2,-18.48,1.26
1554118108661,-7.5626845000000005,-4.361637,3.1364042999999997,0.068176925,-0.10759171,0.040480047000000005,34.26,-18.6,1.14
1554118108680,-7.583035499999999,-4.425682,3.3022027,0.06604639400000001,-0.099069595,0.054328485999999995,34.32,-18.72,1.08
1554118108701,-7.439383,-4.459799299999999,3.527856,0.07882957,-0.08522116,0.06924219,34.32,-18.84,0.96
1554118108721,-7.462726600000001,-4.334702,3.513491,0.08628642,-0.05752428,0.07669904,34.38,-18.9,0.84
1554118108741,-7.780557000000001,-4.3694180000000005,3.4548330000000003,0.07456851,-0.03089267,0.05965481,34.32,-19.02,0.66
1554118108760,-7.8589673,-4.4262805,3.3387144,0.013848438000000001,-0.026631612000000002,0.04474111,34.32,-19.08,0.6
1554118108780,-7.792528,-4.574721,3.4446578000000003,-0.06711166,-0.018109497,-0.026631612000000002,34.38,-19.14,0.54
1554118108801,-7.61835,-4.7261543,3.7313633000000004,-0.17150758,-0.0053263223,-0.08841695,34.38,-19.2,0.42
1554118108820,-7.706935400000001,-4.7644614999999995,3.918111,-0.18109496,0.0,-0.1107875,34.38,-19.2,0.36
1554118108840,-7.735666,-4.655525,4.138976,-0.13102753,-0.00958738,-0.099069595,34.38,-19.26,0.3
1554118108861,-7.723096400000001,-4.5884876,4.2299557,-0.06285059999999999,-0.033023197000000004,-0.02876214,34.38,-19.32,0.24
1554118108880,-7.6943655,-4.4562078000000005,4.209605000000001,-0.037284255,-0.06285059999999999,-0.010652645,34.38,-19.38,0.24
1554118108900,-7.6692266,-4.4286747,4.1299977,0.035153727999999995,-0.07882957,0.004261058,34.44,-19.44,0.24
1554118108921,-7.700949700000001,-4.362833999999999,4.073136,0.101200126,-0.07989483,0.01917476,34.44,-19.44,0.24
1554118108941,-7.629722,-4.1305966,3.9480386,0.12250541,-0.07350325,0.020240024,34.44,-19.5,0.18
1554118108961,-7.574057000000001,-4.044405,3.7774517999999997,0.06711166,-0.06604639400000001,0.023435817999999997,34.44,-19.56,0.18
1554118108980,-7.563882,-4.0467997,3.86484,-0.04261058,-0.068176925,0.03195793,34.38,-19.62,0.18
1554118109001,-7.483077499999999,-4.086901999999999,3.9504328,-0.15339808,-0.068176925,0.05219796,34.38,-19.62,0.18
1554118109020,-7.492654300000001,-4.1934443,3.9761705000000003,-0.22477080000000002,-0.07030745599999999,0.060720075,34.38,-19.62,0.12
1554118109041,-7.654263,-4.303577400000001,4.001309399999999,-0.25353295,-0.07030745599999999,0.036218993,34.32,-19.62,0.12
1554118109061,-7.807492,-4.417900599999999,4.065953299999999,-0.29827404,-0.07882957,0.041545313,34.32,-19.62,0.06
1554118109081,-7.860762599999999,-4.5202527,4.060566000000001,-0.29614353,-0.094808534,0.05006743,34.26,-19.74,0.06
1554118109101,-7.826645399999999,-4.4981065000000005,4.1270050000000005,-0.23968449999999997,-0.11824436,0.037284255,34.26,-19.8,0.0
1554118109121,-7.968502,-4.584896,4.059369,-0.13848437,-0.128897,0.051132694000000006,34.26,-19.86,-0.06
1554118109141,-7.845799,-4.569932499999999,4.0282445,-0.099069595,-0.12996227,0.08735169,34.26,-19.92,-0.12
1554118109160,-7.723096400000001,-4.5777135,3.9348705,-0.017044231,-0.113983296,0.07350325,34.2,-20.04,-0.18
1554118109181,-7.963713,-4.547187999999999,3.6619315,-0.017044231,-0.10759171,0.07989483,34.2,-20.1,-0.24
1554118109201,-8.051701,-4.544793599999999,3.6433763999999997,-0.06604639400000001,-0.101200126,0.05965481,34.2,-20.22,-0.3
1554118109221,-8.003217999999999,-4.7141833,3.7175968,-0.11824436,-0.096939065,0.046871635999999994,34.14,-20.4,-0.36
1554118109241,-7.967304700000001,-4.7243585999999995,3.888782,-0.16085494,-0.09054748,0.025566347000000003,34.08,-20.58,-0.42
1554118109260,-7.969100500000001,-4.7393220000000005,3.9414546,-0.13635385,-0.07243799,0.026631612000000002,34.02,-20.82,-0.54
1554118109281,-7.8954787,-4.630985,3.9031472000000003,-0.04261058,-0.056459017,0.05752428,33.96,-21.0,-0.66
1554118109301,-7.7578119999999995,-4.377199,3.8283286,0.053263225,-0.060720075,0.06604639400000001,33.9,-21.12,-0.78
1554118109321,-7.7105265,-4.1922474,3.6332011,0.12250541,-0.056459017,0.111852765,33.9,-21.24,-0.9
1554118109341,-7.684190299999999,-4.0797195,3.425504,0.13528858,-0.047936900000000005,0.13635385,33.9,-21.36,-0.96
1554118109361,-7.716512,-4.0665517,3.2620997000000003,0.08735169,-0.037284255,0.1438107,33.96,-21.36,-1.08
1554118109380,-7.697358599999999,-3.933075,3.2225955,0.056459017,-0.046871635999999994,0.10759171,33.96,-21.36,-1.14
1554118109400,-7.835623700000001,-3.970185,3.1304187999999997,0.04261058,-0.056459017,0.06391586,34.02,-21.42,-1.32
1554118109421,-7.730877400000001,-4.1718965,3.3387144,0.0031957934000000003,-0.053263225,0.05006743,34.08,-21.42,-1.44
1554118109441,-7.610568499999999,-4.247314,3.5104983,0.007456851,-0.046871635999999994,0.0063915867,34.08,-21.48,-1.56
1554118109461,-7.7224975,-4.3167458,3.7379474999999998,0.013848438000000001,-0.03834952,-0.02130529,34.08,-21.6,-1.68
1554118109480,-7.701548,-4.167108,3.8810010000000004,0.083090626,-0.02876214,-0.018109497,34.08,-21.66,-1.8
1554118109500,-8.058285,-4.2251673,3.8259343999999995,0.19387813,-0.026631612000000002,-0.004261058,34.14,-21.78,-1.92
1554118109521,-8.186374,-4.0701427,3.8331169999999997,0.30786142,-0.02130529,0.023435817999999997,34.14,-21.9,-2.04
1554118109540,-8.333617,-4.010288,3.762488,0.4101268,0.017044231,0.04261058,34.14,-22.02,-2.1
1554118109560,-8.363545,-3.9001546,3.5715504,0.4250405,0.04474111,0.04261058,34.08,-22.08,-2.16
1554118109581,-8.322245,-3.6703112,3.74094,0.39627838,0.10652645,0.03195793,34.08,-22.2,-2.16
1554118109601,-8.385093,-3.5775358999999995,3.4207156000000003,0.33981937,0.1470065,0.051132694000000006,34.02,-22.2,-2.22
1554118109620,-8.428787,-3.6314054,3.4261025999999997,0.28229508,0.17044231,0.05006743,34.02,-22.26,-2.16
1554118109640,-8.37372,-3.6661212,3.4674027,0.2790993,0.17576863,0.058589544,33.96,-22.26,-2.1
1554118109660,-8.310274,-3.8205473,3.4308910000000004,0.29294774,0.17896444,0.08628642,33.9,-22.32,-2.04
1554118109680,-8.267777,-3.9258924,3.2710779999999997,0.26844665,0.15552860000000002,0.096939065,33.84,-22.38,-1.92
1554118109701,-8.109759,-3.9121256,3.626617,0.29933932,0.128897,0.06604639400000001,33.72,-22.44,-1.74
1554118109721,-8.012196000000001,-3.7786489000000003,3.757101,0.40586576,0.13741912,0.07669904,33.66,-22.5,-1.56
1554118109744,-8.079233,-3.6589386,3.4195184999999997,0.45486793,0.13635385,0.12570119999999999,33.6,-22.56,-1.2
1554118109760,-8.115147,-3.5673605999999998,3.5589809999999997,0.4644553,0.14274544,0.14807177,33.6,-22.56,-1.08
1554118109781,-8.127716,-3.3512837999999996,3.3985693,0.5273059,0.14913702,0.12676647,33.6,-22.62,-0.78
1554118109801,-8.504205,-3.2926260000000003,2.9861681,0.54435015,0.13741912,0.12996227,33.54,-22.68,-0.6
1554118109821,-8.344392,-3.2752678,3.0382418999999996,0.5518069999999999,0.096939065,0.10652645,33.54,-22.74,-0.36
1554118109840,-7.916428,-3.144784,3.2632967999999996,0.6146576,0.111852765,0.06711166,33.54,-22.8,-0.12
1554118109860,-8.126519,-2.954445,3.2106244999999998,0.5368933000000001,0.13315806,0.017044231,33.48,-22.92,0.12
1554118109880,-8.115746000000001,-2.6821042999999998,3.2106244999999998,0.3153183,0.12037488,-0.046871635999999994,33.42,-23.04,0.3
1554118109901,-8.359355,-2.6916811000000003,3.2004492,0.18961707,0.09587380000000001,-0.07137272,33.36,-23.16,0.42
1554118109922,-8.488044,-2.9700072,3.2603042,0.14807177,0.07137272,-0.017044231,33.3,-23.28,0.54
1554118109940,-8.3312235,-3.1292217,3.5966894999999997,0.2034655,0.05965481,-0.011717908999999999,33.18,-23.4,0.72
1554118109960,-8.305486,-3.1381997999999998,3.5685577000000004,0.3291667,0.06498113,-0.05539375,33.12,-23.46,0.96
1554118109980,-8.377911,-2.9388826,3.4075474999999997,0.4079963,0.080960095,-0.07456851,33.0,-23.52,1.14
1554118110001,-8.280945,-2.813187,3.4123358999999995,0.37071204,0.094808534,-0.05219796,32.94,-23.52,1.32
1554118110021,-8.351574000000001,-2.8580782000000005,3.4201171,0.2609898,0.09587380000000001,-0.043675844000000005,32.88,-23.52,1.56
1554118110041,-8.402451,-3.0615854,3.4548330000000003,0.15339808,0.09161274,-0.040480047000000005,32.88,-23.4,1.74
1554118110061,-8.164227499999999,-2.9879637000000003,3.6212301,0.15765914,0.10546118,-0.07563378,32.82,-23.34,1.98
1554118110081,-8.028955,-2.8808231,3.6631286,0.14807177,0.13635385,-0.09374327,32.82,-23.28,2.16
1554118110100,-8.067263,-2.7862522999999997,3.6284127,0.10865697,0.14807177,-0.12144015,32.82,-23.22,2.28
1554118110120,-8.230068,-2.8287494,3.5446155,0.054328485999999995,0.12144015,-0.14913702,32.82,-23.16,2.46
1554118110141,-8.27496,-2.8622682,3.4955344,0.06178534,0.07882957,-0.25246766,32.82,-23.1,2.64
1554118110161,-8.300098,-2.7138276,3.6056678,0.025566347000000003,0.056459017,-0.28016454,32.82,-23.04,2.82
1554118110181,-8.1402855,-2.8778305,3.769072,-0.036218993,0.056459017,-0.26205507,32.82,-23.04,2.94
1554118110201,-7.9990277,-3.0759506,3.6182373,-0.03195793,0.049002163,-0.27164245,32.82,-22.98,3.06
1554118110221,-7.876325,-3.0442273999999996,3.8013937000000007,-0.06178534,0.06604639400000001,-0.28975195,32.82,-22.98,3.24
1554118110241,-7.7332716,-2.8736405,3.6828809000000002,-0.06178534,0.047936900000000005,-0.4282363,32.82,-22.86,3.42
1554118110261,-7.493850999999999,-3.110068,4.0761285,-0.083090626,0.053263225,-0.45699844,32.88,-22.74,3.54
1554118110281,-7.141903999999999,-3.264494,4.185663,-0.0063915867,0.05219796,-0.49108690000000005,32.94,-22.56,3.6
1554118110300,-7.061099499999999,-3.5889084,4.264672,0.11611383,0.07137272,-0.56245965,33.0,-22.26,3.72
1554118110321,-6.928221000000001,-3.6254199000000003,4.138976,0.24927188,0.07882957,-0.7052050999999999,33.12,-21.84,3.72
1554118110340,-6.684012400000001,-3.6403837,3.942053,0.34301516,0.07882957,-0.8628642,33.24,-21.3,3.78
1554118110361,-5.9052987,-3.645172,3.8361096,0.38136467,0.05752428,-1.0365024,33.3,-20.7,3.78
1554118110382,-5.4360349999999995,-3.6224272000000006,3.7702692000000004,0.40053943,0.05219796,-1.1270498,33.42,-20.1,3.84
1554118110401,-5.1265845,-3.4931402,3.803788,0.47617322,0.054328485999999995,-1.3454291,33.54,-19.2,3.84
1554118110421,-5.102043599999999,-3.7894227999999996,3.7469256,0.62104917,0.046871635999999994,-1.5648735,33.66,-18.3,3.9
1554118110440,-5.269039,-3.9217023999999996,3.8229415,0.80747044,0.05539375,-1.8322549,33.78,-17.4,3.96
1554118110460,-5.4264584000000005,-3.8827964999999995,3.482965,0.85966843,0.039414786,-2.139051,33.96,-16.26,4.02
1554118110480,-5.593454,-4.0922894,3.1010897,0.49854377,0.014913702,-2.3457124,34.2,-15.06,4.08
1554118110500,-5.8334722999999995,-4.657321,2.9897593999999996,0.07882957,0.015978966,-2.4405208,34.38,-13.5,4.26
1554118110521,-5.972934700000001,-5.659294,2.8862102000000003,-0.6508765999999999,0.05006743,-2.582201,34.56,-11.7,4.38
1554118110541,-6.039374,-7.3843164,2.2313959999999997,-1.2591426000000001,0.10546118,-2.433064,34.74,-9.66,4.56
1554118110560,-5.8161144,-8.731055,1.8195933000000002,-1.8226674999999999,0.22690132,-2.2615564,34.98,-7.56,4.74
1554118110581,-5.676652400000001,-9.138668,1.8154035,-2.6695528,0.44208476,-2.2626216,35.1,-5.46,4.98
1554118110601,-6.0148335,-9.1590185,1.447295,-2.915629,0.5763081,-2.2477080000000003,35.22,-3.24,5.22
1554118110620,-6.0465565,-9.011177,1.0600328,-2.9465215,0.75101143,-1.9473034,35.28,-1.02,5.64
1554118110640,-5.7736173,-9.312846,0.9451110999999999,-2.8527782000000004,0.96939063,-1.6170714,35.1,1.14,6.12
1554118110660,-5.659294,-9.824607,0.8619126,-2.5949842999999997,1.1824435,-1.4082796999999998,34.86,2.88,6.72
1554118110680,-5.524022,-9.57142,0.14544775,-2.223207,1.3805827,-1.2634037,34.62,4.38,7.5
1554118110700,-5.616797,-9.068039,-0.3465607,-1.8993665000000002,1.5680691999999998,-1.1611383,34.32,5.52,8.58
1554118110720,-5.717354,-8.974067,-0.8882488000000002,-1.562743,1.6554209999999998,-1.0205233,33.96,6.48,9.6
1554118110740,-5.4982843,-9.058461999999999,-0.94570965,-1.1483551,1.7278589,-0.8341021000000001,33.54,7.2,10.68
1554118110760,-5.410896,-9.603742,-1.1312603,-0.75420725,1.7576863999999999,-0.6530071,32.88,7.8,11.82
1554118110781,-5.172074299999999,-10.031107,-1.2437878,-0.40266997,1.7683389999999999,-0.5070659000000001,32.1,8.16,13.08
1554118110800,-5.0679264,-10.187327999999999,-1.5191208999999999,-0.02876214,1.7534252000000001,-0.40586576,31.38,8.34,14.46
1554118110821,-5.071518,-9.982624000000001,-1.8914193,0.2428803,1.6927053,-0.29614353,30.54,8.52,15.84
1554118110842,-4.9021277,-9.738416,-2.291251,0.33662358,1.598962,-0.16192019,29.64,8.64,17.04
1554118110861,-4.836886,-9.955689,-2.4911668,0.2876214,1.4775218,-0.01917476,28.68,8.7,18.0
1554118110880,-4.59986,-10.073005,-2.3786395000000002,0.18322548,1.3464943,0.11824436,27.72,8.82,19.14
1554118110901,-4.3742065000000006,-9.801862,-2.2307975,0.13741912,1.2506205,0.221575,26.28,8.94,20.94
1554118110921,-4.374805,-9.559449,-2.1547816,0.14274544,1.1611383,0.27803403,25.92,9.0,21.48
1554118110941,-4.3783965,-9.325416,-2.1386206000000003,0.15978967,1.0791129,0.34408042,24.72,9.12,22.68
1554118110961,-4.2778397,-9.146449,-2.086547,0.21624869,0.98750013,0.3568636,24.36,9.12,22.98
1554118110980,-4.129399299999999,-9.072827,-2.183512,0.30892670000000005,0.8745821,0.34194988,23.52,9.12,23.94
1554118111000,-4.160524,-9.1272955,-2.2972363999999996,0.38242993,0.813862,0.29827404,23.22,9.12,24.3
1554118111021,-4.0677485,-9.011775,-2.3463178,0.41971418,0.7275756,0.27057716,22.5,9.06,25.32
1554118111040,-3.970185,-8.868722,-2.327164,0.4165184,0.6593986999999999,0.21837921,22.08,9.0,25.98
1554118111060,-4.001309399999999,-8.70831,-2.146402,0.37603834,0.60080916,0.17896444,21.72,8.94,26.4
1554118111081,-4.021062000000001,-8.752005,-2.1865046,0.34301516,0.5411543000000001,0.16405073,21.48,8.94,26.82
1554118111101,-3.9163153,-8.67539,-2.2146366000000004,0.31212249999999997,0.49641323,0.13741912,21.24,8.88,27.24
1554118111121,-3.9528269999999996,-8.644264999999999,-2.2122424,0.26418558,0.45699844,0.09267801,20.94,8.88,27.6
1554118111140,-3.9121256,-8.67958,-2.2319946,0.21411815,0.42290998,0.06285059999999999,20.58,8.82,27.84
1554118111161,-3.791817,-8.77834,-1.8884265,0.18535602,0.40906155,0.035153727999999995,20.1,8.88,28.02
1554118111181,-3.7822402000000004,-8.754398,-1.8124107,0.23542345,0.41225734,0.004261058,19.74,8.94,28.02
1554118111200,-3.945046,-8.580219999999999,-1.9566613000000002,0.30466563,0.41225734,-0.027696876000000002,19.38,9.0,28.02
1554118111220,-4.161721,-8.531139,-2.2589292999999997,0.29614353,0.38456047,-0.041545313,19.08,9.06,28.08
1554118111241,-4.2838254000000004,-8.55987,-2.160767,0.23009712,0.34621096,-0.06391586,18.72,9.18,28.14
1554118111261,-4.2993879999999995,-8.636484,-2.219425,0.14913702,0.29294774,-0.096939065,18.42,9.3,28.2
1554118111281,-4.1581297,-8.762179,-2.0991162999999995,0.09054748,0.25140239999999997,-0.099069595,18.12,9.42,28.32
1554118111301,-4.0282445,-8.728661,-1.9823990000000002,0.09161274,0.20772657,-0.10865697,17.88,9.54,28.38
1554118111322,-4.1240125,-8.708909,-2.1296425,0.11611383,0.15339808,-0.09161274,17.76,9.72,28.5
1554118111341,-4.0509889999999995,-8.746018,-1.9249381999999997,0.12144015,0.10333065,-0.05752428,17.52,9.84,28.62
1554118111360,-3.9282866000000003,-9.01417,-1.8698715,0.08628642,0.084155895,-0.026631612000000002,17.28,10.02,28.74
1554118111380,-3.846285,-9.1751795,-1.7938557000000002,0.084155895,0.07776430000000001,-0.03834952,17.04,10.08,28.86
1554118111401,-3.8385038000000002,-9.02614,-1.8249803,0.13102753,0.083090626,-0.043675844000000005,16.86,10.2,28.86
1554118111421,-3.98874,-8.816647999999999,-1.8890251,0.16298546,0.07243799,-0.02876214,16.68,10.26,28.92
1554118111441,-4.0240545,-8.740632000000002,-1.8997990000000002,0.12783173,0.051132694000000006,-0.0053263223,16.56,10.32,29.04
1554118111461,-3.9851487,-8.860941,-1.8740613000000002,0.053263225,0.03089267,0.00958738,16.5,10.5,29.1
1554118111481,-3.8911762000000003,-8.875904,-1.685518,0.027696876000000002,0.03089267,0.013848438000000001,16.5,10.62,29.16
1554118111501,-3.9115269999999995,-9.094974,-1.9177556,0.035153727999999995,0.0063915867,0.029827405,16.5,10.74,29.22
1554118111526,-3.8385038000000002,-9.149442,-1.8962077000000002,0.040480047000000005,-0.0010652645,0.04474111,16.5,10.86,29.28
1554118111541,-3.7367504,-9.179967999999999,-1.8668787,0.113983296,-0.03195793,0.06178534,16.56,10.98,29.28
1554118111560,-3.8181531000000004,-9.020155,-1.8908207,0.15339808,-0.049002163,0.06924219,16.62,11.1,29.28
1554118111581,-3.7942111000000005,-8.901641999999999,-1.869273,0.15978967,-0.07882957,0.09161274,16.62,11.22,29.28
1554118111600,-3.6643257000000005,-8.944139,-1.8758569999999999,0.14274544,-0.11824436,0.10652645,16.68,11.28,29.28
1554118111621,-3.5930982000000005,-8.868722,-1.7585411,0.13209279,-0.13635385,0.09587380000000001,16.68,11.28,29.22
1554118111643,-3.6086605000000005,-8.77834,-1.7256208999999998,0.12357068,-0.13102753,0.07989483,16.68,11.28,29.22
1554118111660,-3.726575,-8.907029,-1.881244,0.07989483,-0.12357068,0.09374327,16.68,11.28,29.16
1554118111680,-3.7876269999999996,-8.902839,-1.5873556999999998,-0.014913702,-0.11611383,0.08735169,16.74,11.22,29.16
1554118111700,-3.7846344,-8.826224,-1.4095862,0.0053263223,-0.12037488,0.05965481,16.74,11.16,29.1
1554118111720,-3.7894227999999996,-8.859145,-1.3634979,0.05006743,-0.10546118,0.07030745599999999,16.74,11.1,29.04
1554118111740,-3.858256,-8.820838,-1.5310919,0.08841695,-0.08948222,0.082025364,16.74,10.92,28.86
1554118111761,-3.8869865,-8.814254,-1.596334,0.04580637,-0.07989483,0.08841695,16.8,10.86,28.74
1554118111781,-3.8983587999999996,-8.821436,-1.5143325,-0.0010652645,-0.06711166,0.09161274,16.92,10.8,28.68
1554118111800,-3.9013517,-8.785523,-1.4856021000000001,0.017044231,-0.05752428,0.08948222,16.98,10.8,28.56
1554118111820,-3.9217023999999996,-8.757391,-1.4377182,0.05219796,-0.051132694000000006,0.08522116,17.1,10.74,28.44
1554118111841,-3.9977183,-8.716091,-1.4047978,0.09267801,-0.05219796,0.053263225,17.16,10.86,28.38
1554118111861,-4.174889,-8.632295,-1.5131354,0.16298546,-0.07030745599999999,0.00958738,17.22,10.92,28.32
1554118111881,-4.248511,-8.461109,-1.283292,0.20879184,-0.08841695,-0.018109497,17.28,11.04,28.32
1554118111901,-4.300585,-8.395866,-1.3305776000000002,0.25033715,-0.10652645,-0.043675844000000005,17.34,11.16,28.32
1554118111921,-4.401739599999999,-8.357559,-1.3257892,0.2876214,-0.12996227,-0.049002163,17.4,11.22,28.32
1554118111940,-4.264672,-8.388085,-1.4413095,0.2972088,-0.16724652,-0.056459017,17.4,11.34,28.32
1554118111960,-4.0755300000000005,-8.416217999999999,-1.5622166000000002,0.24501082,-0.18855181,-0.083090626,17.4,11.4,28.32
1554118111980,-4.0563765,-8.483853,-1.4173675,0.13954964,-0.20026971,-0.11611383,17.46,11.52,28.32
1554118112001,-4.0402154999999995,-8.619126,-1.4999673,0.01917476,-0.25033715,-0.12037488,17.52,11.58,28.26
1554118112020,-3.8564602999999997,-8.808866499999999,-1.5191208999999999,-0.08948222,-0.28655612,-0.08948222,17.64,11.7,28.26
1554118112041,-3.8792052000000004,-9.040505,-1.5251063999999999,-0.12570119999999999,-0.32597092,-0.08841695,17.7,11.88,28.14
1554118112061,-3.8504747999999998,-9.11293,-1.2485761999999998,-0.10652645,-0.34940675,-0.05752428,17.82,12.0,28.02
1554118112081,-3.8666358,-9.015965,-1.1617863000000002,-0.008522116,-0.3334278,-0.040480047000000005,17.88,12.12,27.9
1554118112101,-4.140772,-8.983644,-1.2354081000000001,0.07030745599999999,-0.30679616,-0.03195793,18.0,12.24,27.78
1554118112121,-4.2197804,-8.887277000000001,-1.0456676,0.128897,-0.30146983,-0.060720075,18.12,12.36,27.66
1554118112141,-4.1198225,-8.878299,-0.7457938000000001,0.18109496,-0.28336033,-0.06711166,18.24,12.42,27.54
1554118112160,-4.0138793,-8.890269,-0.30885202,0.27590349999999997,-0.23861924,-0.06924219,18.36,12.48,27.42
1554118112180,-3.7948096,-9.035717,0.0035913025,0.39095205,-0.17257284,-0.06711166,18.6,12.54,27.36
1554118112201,-3.3225534,-9.182362,0.3890578,0.5550028,-0.08948222,-0.083090626,18.84,12.72,27.3
1554118112221,-3.103484,-9.226056,0.5979519,0.813862,-0.011717908999999999,-0.16192019,19.08,12.9,27.24
1554118112240,-3.2052376000000002,-9.169792,0.6667852,1.0865698000000001,0.05965481,-0.30253512,19.32,13.14,27.18
1554118112260,-3.4219127,-9.099164,0.6703765,1.3156016000000001,0.07882957,-0.44315,19.56,13.44,27.0
1554118112281,-3.470994,-9.041103999999999,0.7254431,1.4444987,0.06391586,-0.49960902,19.74,13.86,26.76
1554118112300,-3.359065,-8.983044999999999,0.6733691999999999,1.4093448999999998,0.034088463,-0.5454154,19.92,14.52,26.46
1554118112320,-3.3423057000000003,-8.817246,0.6655880999999999,1.2516857,0.029827405,-0.59761333,19.98,15.36,26.22
1554118112341,-3.4189199999999995,-8.5700445,1.0097545,0.99282646,0.05752428,-0.6135923000000001,19.98,16.38,25.92
1554118112362,-3.5889084,-8.790312,1.0648212,0.7574029999999999,0.07563378,-0.5837649,20.04,17.4,25.5
1554118112382,-3.4320881,-9.137471000000001,0.8319851,0.5422196,0.096939065,-0.46871635,19.98,18.42,25.02
1554118112401,-3.0364463,-9.269751,1.1378443,0.40906155,0.18748654,-0.406931,19.98,19.44,24.6
1554118112421,-3.0178912,-9.322422999999999,1.0348936,0.37710363,0.2609898,-0.44741106,19.92,20.4,24.24
1554118112440,-3.1148564999999997,-9.292496,0.99179804,0.33129725,0.32170987,-0.39308259999999995,19.86,21.24,24.0
1554118112461,-3.1381997999999998,-9.184756,0.99419224,0.2790993,0.36432046,-0.34940675,19.62,22.14,23.7
1554118112480,-3.1759086,-9.194932000000001,1.1629834,0.25033715,0.3653857,-0.3323625,19.5,22.38,23.58
1554118112503,-3.1358056,-9.447519999999999,1.4059948999999998,0.31105720000000003,0.36325517,-0.27057716,19.08,22.68,23.22
1554118112520,-2.9322984,-9.406818,1.5245079,0.40586576,0.36005938,-0.24394555,18.72,22.92,23.1
1554118112541,-2.9550436,-9.239224,1.2976573999999998,0.5336975,0.330232,-0.27377295,18.3,23.16,23.04
1554118112560,-2.9089549999999997,-9.256582,1.2413936,0.5901565,0.30146983,-0.23329292,17.82,23.46,22.92
1554118112580,-2.906561,-9.390657000000001,1.3587095,0.5997439,0.27696875,-0.22690132,17.4,23.7,22.86
1554118112600,-2.9119477000000002,-9.355942,1.3910311000000002,0.54648066,0.24501082,-0.221575,17.04,24.0,22.74
1554118112621,-2.8999767000000003,-9.244612,1.3533225,0.46978164,0.19600865,-0.2066613,16.74,24.3,22.62
1554118112640,-2.8125885,-8.930372,1.3383588,0.37923414,0.16192019,-0.20879184,16.44,24.78,22.38
1554118112661,-2.9819782000000004,-8.987833,1.4544774999999999,0.25246766,0.13209279,-0.1587244,16.26,25.26,22.2
1554118112680,-2.9293058,-9.0315275,1.6101006000000002,0.14168017,0.099069595,-0.13102753,16.14,25.68,22.02
1554118112701,-2.9400797,-9.093777000000001,1.4957775,0.05752428,0.09267801,-0.14594123,15.96,26.04,21.84
1554118112720,-2.9460652,-9.128492,1.7411831999999998,-0.0010652645,0.10013486,-0.165116,15.84,26.34,21.66
1554118112741,-2.8898015,-9.18715,2.343325,0.023435817999999997,0.12037488,-0.14807177,15.66,26.58,21.48
1554118112760,-3.0017304,-8.792705999999999,2.166154,0.13422333,0.096939065,-0.15446335,15.48,26.76,21.3
1554118112781,-2.834735,-8.932767,1.4598645000000001,0.18216023,0.07350325,-0.09054748,15.3,26.94,21.24
1554118112800,-2.5474305,-9.320028,1.6478093,0.007456851,0.10226539,-0.037284255,15.06,26.94,21.3
1554118112820,-2.6599581000000003,-9.463681,2.0757727999999998,-0.039414786,0.128897,-0.07243799,14.88,26.88,21.36
1554118112840,-2.9843724,-9.110536,2.272696,-0.02876214,0.15446335,-0.07030745599999999,14.64,26.88,21.42
1554118112860,-2.8688521000000002,-9.114127,2.0404584,-0.002130529,0.1587244,-0.027696876000000002,14.46,26.82,21.42
1554118112880,-2.7742812999999997,-9.306262,1.7345991000000003,-0.041545313,0.13209279,-0.014913702,14.22,26.82,21.48
1554118112900,-2.9622262000000004,-9.263166,1.7758990000000001,-0.027696876000000002,0.10013486,-0.02130529,14.1,26.76,21.54
1554118112920,-2.9867666,-9.153630999999999,1.6741456000000001,0.054328485999999995,0.022370555,-0.024501082,13.92,26.82,21.54
1554118112941,-2.9807810000000003,-9.07582,1.5915456000000001,0.112918034,-0.025566347000000003,-0.06498113,13.8,26.82,21.48
1554118112960,-2.7730842,-8.919,1.6454151000000001,0.09267801,-0.033023197000000004,-0.05539375,13.74,27.0,21.42
1554118112980,-2.8526914,-9.213486999999999,2.5139117000000004,0.11824436,0.0031957934000000003,-0.033023197000000004,13.74,27.18,21.3
1554118113000,-2.9017725,-8.536526,2.0320787,0.23861924,-0.018109497,-0.082025364,13.74,27.42,21.24
1554118113021,-3.1118636000000004,-8.668806,1.4622587,0.17150758,0.011717908999999999,-0.0063915867,13.74,27.66,21.12
1554118113040,-2.5983074,-8.979453,1.8441339,-0.041545313,0.018109497,-0.03089267,13.8,27.9,21.06
1554118113061,-2.6821042999999998,-9.123106,2.1218612,-0.08735169,0.06285059999999999,-0.053263225,13.8,28.14,21.0
1554118113080,-2.8778305,-9.051279,1.9081788,-0.08522116,0.06178534,-0.020240024,13.8,28.32,20.94
1554118113101,-2.6611552000000005,-9.211093,1.6819267,-0.12996227,0.010652645,0.004261058,13.86,28.5,20.94
1554118113121,-2.8000187999999997,-9.506178,1.5251063999999999,-0.111852765,-0.07563378,0.008522116,13.86,28.62,20.94
1554118113141,-2.870648,-9.256582,1.1988965,-0.05006743,-0.13954964,0.015978966,13.86,28.68,21.0
1554118113161,-2.8383262000000005,-8.969278,1.3706805,-0.08522116,-0.15659387,-0.024501082,13.86,28.68,21.06
1554118113182,-2.7844564999999997,-9.1255,2.2780828,-0.13848437,-0.113983296,0.036218993,13.86,28.74,21.12
1554118113202,-3.0573955,-9.504382000000001,2.409764,0.017044231,-0.10865697,0.060720075,13.92,28.8,21.18
1554118113222,-2.8335377999999998,-8.599973,1.4712370000000001,0.03089267,-0.10972224,0.07137272,13.98,28.8,21.24
1554118113241,-2.9334955000000003,-8.971074,1.4927847,-0.10439592,-0.08735169,0.10013486,14.16,28.86,21.3
1554118113261,-2.7605145,-9.152434,1.7585411,-0.2428803,-0.10546118,0.09374327,14.34,28.92,21.42
1554118113281,-2.7551277,-9.344569,2.0709844,-0.27483824,-0.08522116,0.09267801,14.58,28.98,21.48
1554118113301,-2.8245595000000003,-9.240421000000001,2.1637597,-0.24607609,-0.06604639400000001,0.11504856,14.76,28.98,21.48
1554118113320,-2.966416,-9.2787285,2.0494366000000004,-0.20453078,-0.06498113,0.15552860000000002,14.94,29.04,21.54
1554118113340,-2.9101522,-9.324219,1.9393034,-0.15446335,-0.07563378,0.16618125,15.06,29.04,21.54
1554118113361,-2.9484594,-9.211093,1.7202339,-0.10546118,-0.08841695,0.1438107,15.24,28.98,21.6
1554118113381,-3.0735563999999997,-9.054871,1.3263878,-0.10333065,-0.12676647,0.15659387,15.36,28.98,21.66
1554118113401,-3.103484,-9.102157,1.3569138,-0.165116,-0.14487597,0.16618125,15.42,28.92,21.72
1554118113420,-3.0705638,-9.111733000000001,1.1659763,-0.23222765,-0.18535602,0.16192019,15.42,28.86,21.78
1554118113441,-3.1675289,-9.236232000000001,1.4341268999999999,-0.34621096,-0.18109496,0.19600865,15.42,28.62,21.84
1554118113460,-3.1777040000000003,-9.169194000000001,1.4371196000000002,-0.34301516,-0.18002969,0.2130529,15.36,28.44,21.9
1554118113481,-3.3584663999999997,-9.194333,1.3976152,-0.30466563,-0.14274544,0.27377295,15.42,28.08,22.02
1554118113500,-3.3500867,-9.170391,1.3730746999999999,-0.27803403,-0.16192019,0.2876214,15.48,27.66,22.2
1554118113520,-3.3249476000000002,-9.221267999999998,1.3431472,-0.20453078,-0.15659387,0.30999196,15.54,27.12,22.38
1554118113542,-3.4398693999999996,-9.116522,1.2366052,-0.14594123,-0.18855181,0.29294774,15.6,26.64,22.56
1554118113561,-3.5703532999999994,-8.916007,1.122282,-0.06498113,-0.22690132,0.30679616,15.78,26.16,22.74
1554118113582,-3.6924577000000003,-8.953716,1.0923545000000001,-0.06178534,-0.2609898,0.3270362,15.96,25.68,22.8
1554118113601,-3.6601357000000005,-9.029133,1.0720038,-0.08948222,-0.28655612,0.35260254,16.2,25.32,22.92
1554118113621,-3.6750996,-8.944737,1.0205284,-0.15552860000000002,-0.32810146,0.34408042,16.5,24.96,22.98
1554118113640,-3.7463272000000005,-8.793304,1.0929531000000001,-0.2066613,-0.3749731,0.350472,16.8,24.78,22.92
1554118113661,-3.8738184,-8.811859,1.2419921,-0.24074976,-0.39840892,0.38775626,17.1,24.6,22.8
1554118113680,-3.9205053,-8.867524000000001,1.1875241,-0.27803403,-0.4282363,0.41758367,17.34,24.42,22.62
1554118113700,-3.8660371,-8.834603999999999,1.1121067,-0.32810146,-0.44421527,0.44528055,17.58,24.18,22.5
1554118113720,-3.9163153,-8.866926,1.1306617,-0.37816888,-0.44421527,0.4825648,17.76,23.88,22.38
1554118113741,-4.0863037,-8.929772999999999,1.3545196000000002,-0.40053943,-0.41545314,0.5113269,17.88,23.46,22.26
1554118113760,-4.2036195,-9.009979,1.4718354999999999,-0.39947417,-0.39840892,0.5336975,18.06,23.04,22.14
1554118113781,-4.302380599999999,-9.01417,1.347337,-0.34514567,-0.37284255,0.5550028,18.3,22.5,22.08
1554118113800,-4.384382,-8.903438000000001,1.3311761999999998,-0.25885928,-0.36112466,0.5486112,18.72,21.9,22.02
1554118113821,-4.4681787,-8.800487,1.4532804,-0.1438107,-0.35579833,0.5475459,19.14,21.24,21.96
1554118113840,-4.605247,-8.731653,1.5041572,-0.02876214,-0.33662358,0.5581986,19.5,20.52,21.96
