TimeStamp,Ax,Ay,Az,Gx,Gy,Gz,Mx,My,Mz
1553850847757,4.3240604000000005,8.387145,1.7550035,-0.24599726,0.1080529,0.18172692,-21.119999,-24.42,31.679997999999998
1553850847777,4.661653,8.375174000000001,1.2258687,-0.17635863,0.32185575,0.022901948999999998,-21.539998999999998,-24.48,31.14
1553850847798,4.264203500000001,8.772623,1.3431882,-0.13970672,0.35850766,-0.167688,-21.48,-24.66,31.26
1553850847817,3.9960446000000003,8.722342999999999,1.2306572,-0.12565681,0.34873378,-0.18173791,-22.08,-25.32,31.32
1553850847837,4.0582957,9.174861,1.3312168,-0.17880209,0.28825814,-0.1976204,-22.56,-25.439999,31.26
1553850847858,3.4429672,8.820508,1.2234744,-0.25882545,0.22656076,-0.21411377,-22.38,-25.38,31.56
1553850847877,3.1987512000000002,8.573898,1.489239,-0.27592966,0.12149194,-0.16280109,-22.5,-25.8,31.679997999999998
1553850847897,3.3232534,8.542772,1.6305011999999999,-0.23011477,0.06773579,-0.20556165,-22.859999,-26.22,31.08
1553850847917,3.4429672,8.499676,1.5227587,-0.16719565,0.017644841,-0.2593178,-22.199999,-25.98,30.42
1553850847937,3.7590114999999997,8.363202000000001,1.4820561,-0.18613248,-0.09597609,-0.36560833,-22.08,-26.46,30.42
1553850847958,3.8045027,8.085466,1.9824595,-0.18491073,-0.27557045,-0.5775786,-22.02,-26.46,30.24
1553850847977,3.6105663999999997,8.214757,1.8052831999999999,-0.11405037,-0.35009605,-0.7730555,-21.119999,-26.4,29.939999
1553850847997,3.4429672,7.5874567,2.205127,-0.029750971,-0.29878336,-0.97830623,-20.58,-27.42,29.82
1553850848019,2.317658,8.499676,1.5443072,0.005679214,-0.30916807,-0.95264983,-20.039998999999998,-27.539998999999998,30.119999
1553850848037,1.908237,9.079089999999999,1.2474172,-0.13909586,-0.2486924,-0.83902895,-19.98,-27.48,31.14
1553850848057,3.2490308,9.186832,1.7119064,-0.20751275,-0.29878336,-0.67104095,-19.68,-27.9,31.32
1553850848077,2.4804687999999997,9.790189999999999,1.5203645000000001,-0.13543066,-0.23464250000000003,-0.60140234,-18.84,-28.439999,31.26
1553850848098,2.3966691000000004,9.182044,1.9441511999999999,-0.031583566,-0.20043406,-0.5952937,-18.9,-28.68,31.14
1553850848117,2.8084843,9.464568,1.5562786,0.038665935,-0.11063685,-0.5598635000000001,-18.3,-28.5,31.14
1553850848138,3.1125572,10.92747,1.5203645000000001,0.091200344,0.048188105,-0.539705,-17.76,-29.46,31.14
1553850848157,2.6887705000000004,10.944230000000001,1.5754328000000002,0.09425468,0.04879897,-0.5012204,-17.52,-29.58,31.019999
1553850848177,2.248224,10.673677,1.2881198,0.028281228999999998,0.04879897,-0.38515604,-16.199999,-29.039998999999998,31.199999
1553850848198,2.3320236,10.491713,1.6448668000000002,0.00018142698,-0.0025137104,-0.33017817,-15.66,-29.22,31.199999
1553850848217,1.9656997,10.501289,1.664021,0.022783441,0.0048166723,-0.24648963,-16.56,-29.4,31.56
1553850848237,1.7741576000000001,10.898738999999999,1.637684,0.08020477,0.034138203,-0.11087754,-16.8,-29.22,31.32
1553850848257,1.7143008000000002,10.166091,2.0255566000000003,0.10586111,-0.035500433,0.037562713,-16.38,-29.039998999999998,31.74
1553850848278,1.9633054,10.35045,1.6712039,0.06737660000000001,-0.2450272,0.18539211,-16.08,-29.46,31.92
1553850848297,1.7717633000000002,10.060742,1.8100717,0.012398731999999999,-0.5333555999999999,0.36742997,-16.26,-29.46,32.04
1553850848317,0.6296943,8.945011000000001,1.5395187,-0.08656144,-0.118578106,-0.06200832,-16.08,-29.279999,31.619999
1553850848338,2.0279508,9.103033,1.637684,0.06432228,0.10377684,0.0021325308,-15.48,-29.46,31.26
1553850848357,2.317658,8.892337,1.4868447,0.11441323,0.16486338,0.01618243,-15.299999,-29.16,31.92
1553850848377,2.700742,9.182044,1.5059988000000002,0.21581687,0.34201428,-0.014971696000000001,-15.48,-28.199999,31.26
1553850848398,2.9569294,9.158101,0.339987,0.080815636,0.1080529,0.014349835,-15.839998999999999,-28.56,30.66
1553850848417,2.5499027,9.529214,1.3407938,-0.023642316,0.061016272999999996,0.04061704,-16.14,-29.099998,31.199999
1553850848437,2.1740015,9.75667,1.3575538,0.017285653999999998,0.08667261,0.02656714,-16.08,-28.68,31.679997999999998
1553850848457,1.9752767,9.701602000000001,1.0582695,0.03500075,0.12576799,0.035119254,-16.44,-27.9,31.8
1553850848477,3.7422516000000003,8.051947,0.014365649,-0.07862019,0.06773579,-0.14814033,-16.5,-27.9,31.56
1553850848497,1.786129,7.070293400000001,1.7957061999999997,-0.44758278,-0.3665894,-0.083388604,-16.26,-28.619999,30.9
1553850848518,1.3192455,6.5004563,2.1596357999999998,-0.038913947000000004,-0.18210809,-0.07666908,-16.44,-29.279999,30.9
1553850848537,0.39984390000000003,4.537151000000001,1.2546,0.18588446,0.21861951,0.16034663,-16.08,-29.939999,31.5
1553850848558,0.82123625,3.9864676,1.4317763000000001,0.27262732,0.41104206,0.53908306,-16.08,-28.98,31.8
1553850848577,1.6951466,6.6584783,0.47885495,0.032557286,0.19051972,0.91843045,-16.619999,-28.38,31.5
1553850848597,4.2258949999999995,11.142955,1.56825,-0.13176547,-0.008011498,0.80664206,-17.58,-28.56,31.14
1553850848618,5.114171,12.299389999999999,-1.3934678999999999,-0.21056707,0.07262271,-0.06628438,-18.42,-27.9,31.439999
1553850848637,4.9441776,11.389565,3.0407290000000002,-0.44819367,0.53993464,-0.86651784,-18.359999,-28.56,31.619999
1553850848657,3.205934,11.262669,0.72546524,-0.42131558,0.9614315999999999,-1.6398733,-18.18,-28.92,31.56
1553850848678,1.977671,9.783007000000001,4.051113,0.08997861,0.17036116,-1.7779288,-17.699999,-28.8,30.72
1553850848697,1.0032011,10.934652999999999,0.47406640000000005,0.11196976,0.3475121,-1.7034032,-16.68,-29.64,29.76
1553850848717,0.9313729,10.405519,1.7813405,0.017896518,0.41226378,-1.4321791000000001,-15.78,-30.3,29.88
1553850848737,0.7039168,9.282603,2.1596357999999998,0.10769371,0.3719467,-1.2531955,-14.94,-30.3,30.24
1553850848757,0.7829279,8.91628,1.2929084,0.11196976,0.3542316,-1.0253428,-15.12,-30.24,30.359999
1553850848778,0.31604427,7.9394155,1.1468576000000001,0.013009597,0.43975273,-0.7693903,-15.24,-31.38,30.0
1553850848797,-0.34716985,7.908289999999999,2.264984,0.10586111,0.23999979,-0.48900312,-15.059999,-31.56,29.939999
1553850848817,-0.05985687,10.501289,1.3192455,0.19016053,0.078731366,-0.32834557,-14.28,-30.539998999999998,30.179997999999998
1553850848837,1.4245936000000001,15.988967,0.94573855,-0.048687793,0.6614968000000001,-0.98685825,-14.16,-30.66,30.72
1553850848857,-0.90024734,12.014471,2.2362528,-0.07434413,0.48434588,-0.7217428000000001,-14.4,-31.5,30.72
1553850848878,-1.4341706,11.379988,1.8675343999999998,-0.08228537400000001,0.15142433,-0.31796086,-14.46,-31.8,30.24
1553850848897,-1.4676905,10.714379,2.0854135,0.0020140228,0.117826745,-0.03635198,-14.519999499999999,-31.38,30.06
1553850848917,-0.2466103,9.701602000000001,1.8411973999999998,0.13151745,0.19479576,0.12369472,-14.16,-31.199999,29.939999
1553850848937,0.23224466,10.118205,1.4581133,0.08264823,0.16058731,0.13835548,-13.98,-31.859999,29.76
1553850848957,-0.38068968,10.0200405,1.5203645000000001,-0.0077598216,0.061016272999999996,0.17378566,-14.219999,-32.399998,29.699999
1553850848978,-0.9505271000000001,10.118205,1.6592325,-0.06823548,-0.08314793,0.32222593,-14.28,-32.34,29.76
1553850848997,-0.48124924,9.682447,1.8435916,-0.051742118,-0.19554713,0.46516840000000004,-14.34,-31.8,30.06
1553850849017,-0.4189981,9.265842999999998,1.8579572,-0.0034837644,-0.27923566,0.5403048,-14.88,-31.92,30.359999
1553850849037,0.6488484999999999,9.189227,1.7310607,0.06982007,-0.25846624,0.716234,-14.4,-31.98,29.88
1553850849057,1.1803774999999999,9.347249,1.4844503,0.070430934,-0.17783204,0.5250332,-13.86,-31.56,29.34
1553850849077,1.8986599999999998,9.75667,1.1684061000000001,-0.008370686,-0.21998173,0.308176,-15.0,-31.32,29.64
1553850849097,1.158829,9.773430000000001,1.5059988000000002,-0.020587992,-0.11430205,0.01251724,-15.78,-30.779999,29.58
1553850849117,1.1277034,9.75667,1.7358493000000002,-0.0034837644,-0.14240186,-0.08827553,-15.12,-31.019999,29.46
1553850849137,0.21548474,9.086273,1.5610671999999999,0.07165266599999999,-0.09597609,-0.07239303,-14.099998999999999,-31.38,29.4
1553850849157,0.18196489,8.952193,1.211503,0.12174361,0.0066492682999999995,-0.027799865,-14.099998999999999,-31.26,29.039998999999998
1553850849177,0.13886794,9.500483000000001,1.1181264,0.10341766,0.037803393,0.028399736000000002,-14.759998999999999,-31.199999,29.519999
1553850849197,0.39505535,10.089474000000001,1.3814965,0.07348526,0.032916475,0.033897523,-14.759998999999999,-31.199999,29.76
1553850849217,0.32801566,10.063137,1.4581133,0.054548435,-0.02328313,0.0070194528,-14.4,-31.5,29.64
1553850849238,0.25379312,10.235525,1.4796618000000001,0.038665935,-0.04893947,0.014960701000000002,-14.4,-31.14,29.88
1553850849257,0.105348095,9.632168,1.5083932,0.052104972,-0.050161199999999996,0.021069353,-15.0,-31.08,29.82
1553850849277,0.41181526,10.08708,1.5203645000000001,0.048439782,-0.078261,-0.012528235,-15.42,-31.38,29.58
1553850849297,0.47885495,9.900327,1.6257126,0.06432228,-0.11308032,-0.008863044,-15.0,-31.199999,30.779999
1553850849317,0.79250497,9.926663000000001,1.5826156,0.07409612,-0.10086302,-0.047347553,-13.98,-30.84,31.14
1553850849338,0.48603779999999996,9.610619999999999,1.2426286,0.07348526,-0.09292177,-0.07239303,-14.04,-30.24,30.539998999999998
1553850849357,0.63208854,10.395941,1.5443072,0.056991894,-0.011065823999999998,-0.08216687,-14.219999,-30.539998999999998,30.96
1553850849377,0.55786604,11.066339,1.9944308999999998,0.04355286,0.017644841,-0.06261919,-14.46,-31.439999,30.96
1553850849398,0.6296943,10.462981,1.7214836,0.038665935,-0.18638416,-0.024134673,-14.219999,-31.199999,30.84
1553850849417,0.40223816,9.888355,1.5993756000000001,0.08692429,-0.15828435,-0.024134673,-14.04,-30.779999,31.38
1553850849437,0.45012367,9.265842999999998,1.4078336,0.14495650000000002,-0.12835194,-0.017415157,-13.74,-30.539998999999998,31.38
1553850849457,0.679974,9.024022,1.2546,0.17672148,-0.07337408,-0.032075923,-13.679998999999999,-30.539998999999998,31.32
1553850849478,1.0247495999999998,8.351231,1.3551594999999999,0.17244542,-0.08986744,-0.08827553,-14.46,-30.359999,32.219997
1553850849497,1.7573976999999998,7.029590600000001,0.8356019,0.13212833,-0.16500387,-0.1731858,-14.099998999999999,-30.3,31.74
1553850849517,0.57223165,9.957788,1.5610671999999999,0.23047763,0.015812248,-0.09988196,-14.4,-30.96,31.679997999999998
1553850849537,0.749408,10.065532000000001,1.2953026,0.25552312,0.055518486,-0.074836485,-14.759998999999999,-31.56,32.579997999999996
1553850849557,0.6656084,9.711179,1.1396747999999999,0.26529694,0.07812050000000001,-0.055288803,-14.46,-31.019999,32.88
1553850849577,0.6249057,9.656111,0.9768641,0.2891207,0.14409395,-0.04001717,-14.04,-30.599998,33.059998
1553850849597,0.6201171999999999,9.629773,0.75659084,0.29217502,0.22411729999999996,-0.05040188,-13.799999,-30.779999,33.12
1553850849618,0.5411060999999999,9.7135725,0.84039044,0.29217502,0.28703642,-0.07605822,-13.92,-29.88,33.12
1553850849637,0.42618093,9.675264,0.76137936,0.29034242,0.30963844,-0.1114884,-14.58,-29.64,33.0
1553850849657,0.28013015,9.725544000000001,0.84996754,0.25857744,0.25343883,-0.113321,-14.219999,-29.699999,32.7
1553850849677,0.39266106,9.948212,0.7637736999999999,0.22375810000000002,0.18624365,-0.11271013,-14.34,-29.34,32.579997999999996
1553850849697,0.5506831999999999,9.91948,0.76616794,0.17061283,0.17769155,-0.11454273,-14.519999499999999,-29.34,33.36
1553850849717,0.39984390000000003,10.1206,0.5458947,0.11441323,0.18624365,-0.058343127,-14.7,-29.58,33.3
1553850849737,0.6057515,10.0368,0.51716334,0.04355286,0.24855189999999996,-0.0058087176,-14.88,-29.699999,33.0
1553850849757,0.56744313,10.166091,0.5818088,0.018507386,0.30352979999999996,0.082155876,-14.519999499999999,-29.46,33.54
1553850849777,0.58420306,9.8548355,0.46209505,-0.015090204,0.41287467,0.12186212,-14.759998999999999,-29.46,33.48
1553850849797,0.50998056,9.909904,0.27773590000000004,-0.057239905,0.5258847,0.12735991,-15.059999,-29.519999,33.0
1553850849818,0.5411060999999999,9.847652,0.18196489,-0.115272105,0.61507106,0.12125125,-15.299999,-29.039998999999998,32.7
1553850849837,0.6105401,9.917086999999999,0.35435268,-0.15314575,0.6450035,0.10170357,-15.9,-28.92,31.859999
1553850849857,0.39266106,9.866806,0.6081458000000001,-0.14459364,0.583306,0.070549436,-16.68,-28.74,31.38
1553850849877,0.16041641,9.708784,0.5698373999999999,-0.09450269,0.42325938,0.06871684,-17.039998999999998,-28.439999,31.8
1553850849897,0.071828246,9.665688000000001,0.32083282,-0.08350711,0.38294226,0.05588867,-17.46,-29.099998,31.98
1553850849918,0.14605077,9.768641,0.36632404,-0.09267009,0.38599658,0.030843196,-17.699999,-29.519999,31.859999
1553850849937,0.22506183,9.778217999999999,0.70631105,-0.06701375,0.37683362,0.019236756,-17.88,-29.699999,31.74
1553850849957,0.27294734,9.914692,0.9313729,-0.016922799999999998,0.30352979999999996,0.021069353,-18.6,-29.58,31.5
1553850849977,0.21309046,9.885961,0.7685622,0.024616037,0.22228470000000003,0.019236756,-18.48,-29.82,31.26
1553850849997,0.19154198,9.794978,0.60335726,0.037444208,0.20090441,0.01251724,-18.06,-29.82,30.599998
1553850850018,0.17478207,9.845258,0.5889916000000001,0.06676574,0.19113056,-0.013139101,-18.3,-28.98,30.66
1553850850037,0.18675344,9.821315,0.50998056,0.085091695,0.18746538,-0.036962844,-18.72,-29.4,31.439999
1553850850057,0.13886794,9.859624,0.5243462,0.090589486,0.16058731,-0.044904094000000006,-18.96,-29.22,31.56
1553850850077,0.08140534,9.933846,0.43336374,0.07592872,0.13370924,-0.055899665,-18.48,-29.039998999999998,31.5
1553850850097,0.031125572,9.960183,0.5554718000000001,0.060046222,0.10011165,-0.046125825,-18.359999,-29.58,31.199999
1553850850117,-0.043096945,9.826103999999999,0.6464542,0.06065708400000001,0.040857725,-0.041849766000000004,-18.119999,-29.76,30.9
1553850850137,-0.16281068,9.8787775,0.6344828,0.06982007,-0.034278702,-0.036962844,-18.359999,-29.88,31.56
1553850850157,-0.20590763,9.809344,0.48843205,0.060046222,-0.08864571,-0.035130247,-18.96,-29.22,31.619999
1553850850177,-0.25858167,9.900327,0.5123747999999999,0.047828916,-0.10697166599999999,-0.022912946,-19.199999,-29.039998999999998,31.14
1553850850197,-0.21309046,9.998491,0.50998056,0.038665935,-0.12896281,-0.018026022,-19.14,-29.22,31.679997999999998
1553850850218,-0.117319465,9.938635000000001,0.55307746,0.02156171,-0.16744733,-0.012528235,-18.42,-29.16,31.74
1553850850237,0.019154198,9.885961,0.63208854,0.0069009447,-0.21814914,-0.005197852,-18.24,-29.46,31.5
1553850850257,0.11253092,9.90272,0.5363176,-0.010814147,-0.26701838,-0.003976122,-18.84,-29.099998,31.26
1553850850277,0.17717634,9.869201,0.48603779999999996,-0.02608578,-0.29206383,-0.007030448000000001,-18.42,-28.619999,31.019999
1553850850298,0.27773590000000004,9.792584,0.5027977,-0.049298655,-0.29878336,-0.013749965500000001,-17.94,-28.859999,31.679997999999998
1553850850317,0.27773590000000004,9.876384,0.6249057,-0.051742118,-0.30916807,-0.02230208,-18.3,-28.74,32.34
1553850850337,0.53392327,9.699207000000001,0.97446984,-0.05540731,-0.29206383,-0.02474554,-18.18,-28.199999,32.399998
1553850850358,0.5985687,9.833286,0.69194543,-0.062126825999999996,-0.23280990000000001,-0.025356404,-17.88,-28.98,31.8
1553850850377,0.9217958,9.857229,0.9481328000000001,-0.08228537400000001,-0.1717234,-0.002143526,-18.0,-29.939999,31.679997999999998
1553850850398,0.91700727,9.924269,0.8379962,-0.09572442,-0.10025215,0.028399736000000002,-16.98,-29.519999,32.52
1553850850420,0.9074302,9.93624,0.8451790000000001,-0.10794172,-0.0043463064000000004,0.060775592999999996,-16.44,-29.16,33.18
1553850850437,0.65124273,9.991309,0.8739103000000001,-0.13787411,0.18196759,0.10597962,-16.859999,-29.099998,32.16
1553850850457,0.24182175,10.158908,0.6440599,-0.19712806,0.39454870000000003,0.16645528,-16.92,-29.039998999999998,31.92
1553850850478,-0.05027977,10.127783,0.37350687,-0.33823790000000004,0.6376731,0.22448747,-17.279999,-29.4,31.92
1553850850497,-0.27055305,10.0368,0.36871833,-0.49278682,0.805661,0.26846978,-17.88,-29.76,31.199999
1553850850517,-0.17717634,9.696813,0.59378016,-0.7029245,0.91317326,0.34727138,-18.359999,-29.88,30.599998
1553850850537,0.035914123,9.550761999999999,0.6751855,-0.9313880999999999,1.0646678,0.40591446,-18.9,-29.82,30.539998999999998
1553850850557,0.10774237,9.268238,1.8675343999999998,-1.1183128,1.2008908999999999,0.53786135,-19.68,-29.82,29.82
1553850850578,0.43815228,8.983319,2.3368123,-1.1610733,1.1947823,0.62582594,-20.939999,-30.3,28.26
1553850850597,0.39266106,8.93304,2.9665065,-1.076774,1.1013198,0.64537364,-22.08,-30.599998,27.3
1553850850617,0.6296943,8.624178,3.1556542000000003,-0.9478814,0.97548157,0.5305309,-23.34,-30.9,25.92
1553850850637,0.5770202,9.301758,3.8739367,-0.6876528000000001,0.773896,0.28068706,-24.42,-31.5,25.019999
1553850850657,0.57462597,9.747093,3.8356282999999998,-0.41154176,0.67188156,-0.011917368999999999,-24.96,-31.26,24.48
1553850850677,0.37590113,9.124581,3.0838259999999997,-0.2649341,0.56436926,-0.26176125,-25.32,-31.679997999999998,23.4
1553850850698,-0.11971374,8.739103,3.8452053,-0.19040853,0.6010211999999999,-0.49877697,-25.56,-32.64,22.56
1553850850717,-0.6464542,8.968952999999999,4.1013927,-0.08350711,0.52405214,-0.61911744,-25.56,-32.52,22.619999
1553850850738,-1.0582695,9.052753,4.1780095,-0.006538090799999999,0.40982035,-0.6270585999999999,-25.5,-32.399998,22.439999
1553850850757,-1.1037607,8.722342999999999,3.842811,0.14434563,0.2558823,-0.5775786,-25.92,-32.82,22.08
1553850850778,-1.2953026,8.38475,3.1245286,0.38075048,0.17036116,-0.5091617,-25.019999,-32.82,22.199999
1553850850798,-1.5490957,8.284191,2.3128695,0.63792473,0.18746538,-0.45907074,-24.6,-33.18,22.199999
1553850850817,-1.9752767,8.360807000000001,1.8938714,0.8004149,0.25282794,-0.48045102,-24.42,-33.899998,22.68
1553850850838,-2.248224,8.858817,1.6903580000000002,0.87555134,0.34873378,-0.5280984999999999,-23.519999,-33.78,23.1
1553850850858,-2.5235654999999997,8.92825,1.9561224999999998,0.8847143,0.33162957,-0.5195464,-23.039998999999998,-33.6,23.34
1553850850879,-2.9473522,10.649734500000001,2.3368123,0.85966885,0.21128912,-0.4383013,-23.039998999999998,-33.66,24.0
1553850850897,-3.2226939999999997,12.14855,3.093403,0.83767766,0.030473012,-0.21655722,-23.22,-32.88,24.119999
1553850850918,-2.7989072999999998,12.110242,3.0119977000000002,0.7869759,-0.19799058,-0.014360831000000001,-23.4,-31.8,25.26
1553850850937,-1.5897985000000001,10.802968,2.3344178,0.75093484,-0.43561715,0.02534541,-23.88,-31.26,26.22
1553850850958,0.22506183,10.26665,0.61293435,0.8981533000000002,-0.6433113,-0.039406307,-24.119999,-30.779999,25.619999
1553850850977,1.9920366000000003,9.385557,-1.4964218,1.3501936,-0.6762981,-0.118207924,-23.88,-30.24,26.34
1553850850997,2.545114,8.803747999999999,-1.1923488000000002,1.5395618999999998,-0.30672459999999996,-0.10599062,-22.619999,-29.64,28.14
1553850851018,0.6153286,8.212361999999999,-0.6201171999999999,1.3471392,0.020088303999999998,-0.17868358,-21.539998999999998,-28.619999,29.519999
1553850851037,-2.317658,9.514847999999999,-2.0997790000000003,0.541408,0.36583805,-0.42974922,-21.48,-27.779999,30.24
1553850851057,-1.9704881999999997,10.403124,-0.38308397,-0.20384756,0.6315644,-0.5024422000000001,-21.119999,-28.08,29.88
1553850851077,-0.25379312,11.631387,1.3647367,-0.6296206999999999,0.3169688,-0.33017817,-21.0,-28.019999,30.06
1553850851097,1.3360053,12.172493,0.9074302,-0.4616327,-0.08864571,-0.0571214,-21.06,-27.539998999999998,29.76
1553850851118,3.1604427999999998,10.836488000000001,-0.6273,0.038055072999999995,-0.13140628,0.43706858,-21.9,-27.72,29.34
1553850851137,2.875524,9.387952,0.31365,0.19138224,-0.034278702,0.69729716,-22.08,-28.32,29.76
1553850851158,1.6281068,8.636149000000001,0.16041641,0.015453058,0.08422916,0.6001696,-21.96,-27.84,29.58
1553850851177,0.14365649,9.380769,-0.81644773,-0.026696645,0.17646979999999998,0.32772368,-22.5,-27.539998999999998,29.64
1553850851198,-0.26097596,9.883567,-1.4916332,-0.038303085,0.27420825,0.16584443,-23.34,-27.96,29.22
1553850851218,0.8643332,9.830893,-1.1660118,-0.025474913,0.38966176,0.199442,-24.0,-28.26,28.8
1553850851238,1.6448668000000002,9.763853,-0.15802214,0.1272414,0.15875472,0.27396756,-24.06,-28.08,29.279999
1553850851258,1.211503,9.826103999999999,-0.014365649,0.14434563,-0.0043463064000000004,0.24708949,-24.66,-27.72,28.74
1553850851278,0.39744959999999996,9.720756,0.0670397,0.060046222,-0.04344168,0.11514260000000001,-24.359999,-27.84,28.56
1553850851298,-0.10774237,9.526819,-0.25379312,-0.051742118,0.10866377,-0.041238904,-23.519999,-27.66,29.34
1553850851318,0.37590113,9.864412,0.27055305,-0.12076989,0.1343201,-0.09804937,-23.34,-27.359999,29.039998999999998
1553850851337,0.53392327,10.281016000000001,0.4764607,-0.05662904,-0.088034846,-0.027189001,-23.4,-27.599998,29.099998
1553850851358,0.36632404,10.4294615,0.17238778,0.015453058,-0.14973223,0.08276675,-23.699999,-27.66,29.34
1553850851377,-0.08619389,10.008069,0.22985038,0.044163722999999995,-0.12529762,0.10475789,-23.58,-27.0,29.039998999999998
1553850851398,-0.42139238,9.569917,0.13168511,-0.037081353,-0.020839668999999998,0.013738968999999998,-23.4,-27.0,28.56
1553850851417,-0.35914123,9.73991,0.14126222,-0.098167874,0.05246416,-0.058953992999999996,-23.64,-27.359999,28.92
1553850851437,0.16041641,9.98652,0.16281068,-0.09144836,0.040857725,-0.03635198,-24.06,-27.42,29.46
1553850851458,0.66321415,9.9889145,-0.08858817,-0.030361835,0.02069917,0.044893097,-23.939999,-27.3,28.98
1553850851477,0.99362403,9.881172,0.031125572,0.024616037,0.006038403,0.13774462,-24.0,-27.24,28.74
1553850851497,1.0319325000000001,9.751882,0.18435916,0.0392768,-0.030613512000000002,0.21104845,-24.72,-28.019999,29.16
1553850851517,0.8882760000000001,9.7135725,0.29928434,0.010566137,-0.02939178,0.20493978,-24.48,-27.48,28.859999
1553850851538,0.74222517,9.747093,0.28252444,-0.022420587000000002,-0.017174477,0.16584443,-24.06,-27.18,28.98
1553850851557,0.5698373999999999,9.811738,0.19393626,-0.023642316,0.018255709,0.11758606,-24.06,-27.0,29.22
1553850851578,0.31843856,9.766247,0.021548472000000003,-0.012035878,0.09339213,0.06260819,-23.34,-26.76,29.039998999999998
1553850851597,-0.06943397,9.816526,-0.14605077,-0.02852924,0.21067825,0.02656714,-23.22,-27.18,28.98
1553850851617,-0.38068968,9.893144,-0.14365649,-0.057850774,0.32796440000000004,0.0045759915,-24.06,-26.64,29.16
1553850851637,-0.55307746,9.876384,-0.21309046,-0.07984192,0.461133,-0.016804293,-24.359999,-26.34,28.619999
1553850851657,-0.43096948,9.727939,-0.023942748,-0.07984192,0.54176724,-0.025356404,-24.18,-26.22,27.9
1553850851677,-0.28013015,9.615408,0.32562137,-0.07862019,0.5362694,-0.018026022,-24.539998999999998,-26.34,28.32
1553850851698,-0.19872479999999998,9.644139,0.55307746,-0.07556587,0.4470831,0.01618243,-25.08,-26.22,28.38
1553850851717,-0.22745611,9.749487,0.64166564,-0.080452785,0.35300985,0.058942996,-25.5,-26.58,28.08
1553850851738,-0.23224466,9.828498,0.43336374,-0.10855259,0.28031690000000004,0.09864924,-26.34,-27.24,27.42
1553850851758,-0.18435916,10.012857,0.4644893,-0.14520450000000001,0.25160623,0.11331,-26.58,-27.359999,27.06
1553850851777,-0.16759923,10.211582,0.48364350000000006,-0.18185641,0.23572373,0.11941866,-26.76,-27.48,28.08
1553850851798,-0.1699935,10.269045,0.505192,-0.23072563,0.23572373,0.120029524,-26.58,-27.06,27.48
1553850851817,-0.090982445,10.194822,0.31125572,-0.3034186,0.26809958,0.103536166,-25.74,-27.0,26.4
1553850851838,0.04070267,10.017646000000001,0.5363176,-0.38038763,0.329797,0.09926010000000002,-26.34,-27.66,26.099998
1553850851857,0.22985038,9.847652,0.65363705,-0.4139852,0.33407304,0.09987097,-27.06,-27.539998999999998,25.14
1553850851877,0.32083282,9.75667,0.69673395,-0.42864597,0.36156198,0.10659049,-27.599998,-27.48,25.14
1553850851897,0.39266106,9.682447,1.0702409,-0.40848744,0.37255755,0.123083845,-27.599998,-27.539998999999998,25.5
1553850851918,0.31843856,9.668080999999999,1.3360053,-0.3474009,0.31635794,0.14385328,-27.9,-28.019999,25.439999
1553850851938,0.2657645,9.620196,1.2617828000000002,-0.31197070000000005,0.27237564,0.16523355,-28.32,-28.08,24.42
1553850851958,0.22506183,9.534002000000001,1.4700848,-0.27043188,0.2607692,0.17928344,-28.199999,-27.72,23.4
1553850851977,0.1340794,9.500483000000001,1.5203645000000001,-0.22156265,0.20762393,0.17500739999999998,-28.14,-27.84,23.4
1553850851997,-0.028731298,9.608225,1.4150163999999998,-0.18307814,0.19235231,0.13774462,-27.96,-28.199999,22.859999
1553850852018,-0.047885496,9.692024,1.4078336,-0.13848498,0.18746538,0.09315145,-28.68,-28.019999,22.68
1553850852037,-0.09337672,9.876384,1.5107874,-0.09572442,0.18502192,0.05100175,-29.46,-27.779999,22.74
1553850852057,-0.03351985,9.945818,1.5610671999999999,-0.077398464,0.16058731,0.018015025,-29.279999,-27.42,22.98
1553850852077,0.06943397,9.914692,1.5538843999999998,-0.048076928,0.1324875,-0.00947391,-28.68,-28.38,23.1
1553850852098,0.14844504,9.651321000000001,1.333611,-0.047466062,0.11721588,-0.017415157,-29.46,-28.38,22.5
1553850852117,0.12450229,9.498088000000001,1.4245936000000001,-0.037081353,0.10377684,-0.02596727,-29.4,-27.779999,22.02
1553850852137,0.13886794,9.510059,1.3407938,-0.029750971,0.07506618,-0.02352381,-29.099998,-28.26,22.26
1553850852157,0.10055954,9.591465,1.5227587,-0.014479338000000001,0.029251281,-0.029632462000000002,-29.22,-28.14,22.38
1553850852178,0.16041641,9.715967,1.5730386,-0.0040946295,-0.031835243,-0.030854193,-29.699999,-28.38,22.02
1553850852197,0.19393626,9.703996,1.4198049,-0.006538090799999999,-0.050161199999999996,-0.041849766000000004,-29.099998,-29.4,22.619999
1553850852217,0.25139886,9.732727,1.4413534,-0.015090204,-0.048328605,-0.047347553,-28.32,-28.439999,22.14
1553850852237,0.3232271,9.763853,1.2809371,-0.010203282,-0.02939178,-0.06200832,-28.68,-27.539998999999998,21.24
1553850852258,0.23224466,9.816526,1.4341706,-0.024253184,0.013368786,-0.064451784,-28.68,-28.26,21.48
1553850852277,0.14605077,9.8237095,1.5083932,-0.007148956,0.01153619,-0.056510534,-29.22,-28.68,21.9
1553850852298,0.117319465,9.72315,1.4868447,0.004457484,0.02069917,-0.04246063,-29.46,-28.8,22.5
1553850852317,0.062251142999999995,9.668080999999999,1.4437478000000001,0.024616037,0.021310033,-0.03879544,-28.98,-28.859999,22.859999
1553850852338,0.083799616,9.744699,1.3264283000000001,0.032557286,0.029862148999999998,-0.032686785,-29.279999,-28.92,22.56
1553850852357,0.090982445,9.730332,1.2402343999999998,0.024616037,0.039025128,-0.033297653999999996,-28.92,-28.859999,22.199999
1553850852378,0.12210801,9.737515,1.2569941999999998,0.012398731999999999,0.032305606,-0.043071497,-28.5,-28.56,22.56
1553850852397,0.15562786,9.718361999999999,1.3048798000000001,0.008122675,0.01153619,-0.04429323,-28.68,-28.38,22.38
1553850852418,0.10055954,9.706389999999999,1.1947431999999998,0.015453058,-0.0019028451999999999,-0.048569287999999995,-29.46,-28.74,21.84
1553850852437,0.102953814,9.735122,1.1899546,0.019729115,0.006038403,-0.041238904,-29.519999,-29.16,21.96
1553850852458,0.071828246,9.787795,1.2354459,0.023394305,0.012147056000000002,-0.04001717,-28.92,-29.099998,22.14
1553850852477,0.019154198,9.864412,1.0534808999999998,0.019729115,0.035970800000000004,-0.036962844,-28.56,-28.56,22.26
1553850852497,0.021548472000000003,9.833286,1.0462981,0.0032357534,0.057351083,-0.041238904,-28.98,-28.619999,22.32
1553850852518,0.12210801,9.759064,1.1779832000000001,-0.007148956,0.05612935,-0.041238904,-28.68,-28.439999,21.779999
1553850852537,-0.028731298,9.912297,1.1277034,-0.020587992,0.07567704,-0.054067075,-28.8,-28.08,21.72
1553850852557,-0.0023942748,9.833286,1.2641771000000002,-0.02852924,0.050631564000000004,-0.044904094000000006,-28.619999,-28.74,22.08
1553850852577,-0.023942748,9.783007000000001,1.2881198,-0.030361835,0.024975225,-0.041849766000000004,-28.56,-28.8,21.72
1553850852597,-0.05506832,9.816526,1.3216397,-0.036470487999999995,0.00909273,-0.03879544,-28.98,-28.56,21.779999
1553850852617,-0.09337672,9.766247,1.2450229,-0.029750971,-0.01778534,-0.021691214,-28.8,-29.039998999999998,22.38
1553850852637,-0.105348095,9.761458,1.2426286,-0.02852924,-0.02328313,-0.024134673,-28.8,-27.96,22.56
1553850852657,-0.08858817,9.780613,1.2593886,-0.023642316,-0.031224377,-0.028410732999999997,-28.5,-27.779999,21.72
1553850852678,-0.019154198,9.703996,1.1875603000000001,-0.027307509,-0.0031245756,-0.043682362999999995,-27.72,-29.34,21.779999
1553850852698,-0.026337024,9.766247,1.403045,-0.04135741,-0.0031245756,-0.049791015999999994,-27.84,-29.939999,22.68
1553850852718,-0.007182824399999999,9.763853,1.3575538,-0.035248756,-0.016563611000000002,-0.04673669,-28.38,-29.699999,22.92
1553850852737,-0.057462595,9.790189999999999,1.3671309,-0.032194432,0.0023732113,-0.0571214,-28.32,-29.58,22.859999
1553850852757,0.045491222000000005,9.646533,1.3886794,-0.008981552,0.01031446,-0.06994957,-28.74,-29.58,22.56
1553850852777,-0.05985687,9.780613,1.3814965,0.0069009447,0.01153619,-0.06323005,-28.74,-29.22,22.14
1553850852797,-0.03351985,9.6896305,1.333611,0.02400517,0.027418686,-0.06078659,-29.16,-29.76,21.9
1553850852818,-0.047885496,9.75667,1.3096683,0.027059497000000002,0.039025128,-0.047347553,-28.98,-30.0,21.24
1553850852837,-0.03351985,9.672871,1.2354459,0.023394305,0.05612935,-0.046125825,-28.74,-29.279999,21.24
1553850852858,-0.12689656,9.687236,1.2881198,0.03194642,0.08667261,-0.054677937,-28.619999,-29.16,22.02
1553850852877,-0.22506183,9.706389999999999,1.3383996,0.033779013999999996,0.07995310000000001,-0.05040188,-28.38,-29.22,22.32
1553850852897,-0.28491869999999997,9.699207000000001,1.3695252,0.033779013999999996,0.04879897,-0.04246063,-28.68,-29.22,22.38
1553850852918,-0.35674694,9.771035000000001,1.3743136999999999,0.03194642,0.029251281,-0.04001717,-28.5,-29.519999,22.02
1553850852938,-0.41181526,9.780613,1.4509305000000001,0.023394305,-0.01412015,-0.027799865,-28.859999,-29.699999,21.359999
1553850852958,-0.41420954,9.794978,1.4006507,0.022783441,-0.057491582,-0.028410732999999997,-29.34,-29.039998999999998,22.14
1553850852977,-0.43336374,9.814133,1.350371,0.022783441,-0.08192619999999999,-0.027189001,-28.439999,-28.859999,22.38
1553850852998,-0.41420954,9.799767,1.3168511,0.015453058,-0.1081934,-0.029021597000000003,-28.14,-29.64,22.56
1553850853017,-0.36632404,9.749487,1.2737542,0.015453058,-0.1259085,-0.03757371,-28.32,-29.699999,22.98
1553850853038,-0.39266106,9.890749000000001,1.3360053,0.013009597,-0.16072781,-0.03635198,-29.279999,-29.22,22.38
1553850853057,-0.41660379999999997,9.797373,1.3192455,0.013620462,-0.19493626,-0.036962844,-29.46,-29.22,22.08
1553850853078,-0.4070267,9.811738,1.2953026,0.005679214,-0.21204050000000002,-0.03757371,-28.74,-29.22,22.5
1553850853097,-0.39026679999999997,9.790189999999999,1.2737542,0.004457484,-0.23586422,-0.045514955999999995,-28.98,-29.82,22.859999
1553850853117,-0.4189981,9.792584,1.2857256000000001,0.0038466183,-0.25113586,-0.051623613,-29.039998999999998,-29.58,22.68
1553850853138,-0.42378664,9.787795,1.3312168,-0.002262034,-0.25968800000000003,-0.048569287999999995,-27.9,-29.46,22.14
1553850853157,-0.41181526,9.799767,1.3431882,-0.012035878,-0.2627423,-0.04673669,-27.779999,-29.16,23.1
1553850853177,-0.31365,9.775824,1.3431882,-0.027307509,-0.26213145,-0.041238904,-27.84,-29.58,23.699999
1553850853197,-0.24182175,9.754275,1.3407938,-0.038303085,-0.2645749,-0.036962844,-27.779999,-29.88,23.16
1553850853217,-0.20111908,9.747093,1.376708,-0.04624433,-0.2627423,-0.035130247,-27.96,-30.06,22.92
1553850853237,-0.1699935,9.742303999999999,1.403045,-0.045633465,-0.26152056,-0.028410732999999997,-27.72,-29.88,23.46
1553850853257,-0.14605077,9.732727,1.4174107,-0.038913947000000004,-0.25907713,-0.024134673,-26.58,-29.76,24.24
1553850853277,-0.090982445,9.754275,1.376708,-0.02852924,-0.2468598,-0.02596727,-26.699999,-29.46,23.82
1553850853298,-0.08140534,9.720756,1.3431882,-0.024253184,-0.21692741,-0.029021597000000003,-26.88,-29.64,22.92
1553850853317,-0.11013664,9.725544000000001,1.4317763000000001,-0.016311936000000003,-0.1924928,-0.03390852,-26.88,-30.48,23.1
1553850853337,-0.102953814,9.749487,1.4269878,-0.00531636,-0.17294511,-0.03390852,-27.18,-30.48,23.16
1553850853357,-0.10055954,9.742303999999999,1.4054393,-0.002262034,-0.15706262,-0.029632462000000002,-26.519999,-30.3,23.76
1553850853377,-0.13168511,9.715967,1.3791022,-0.006538090799999999,-0.14118011,-0.022912946,-26.4,-30.539998999999998,24.3
1553850853398,-0.1699935,9.687236,1.4174107,-0.013257608999999998,-0.12468676,-0.014360831000000001,-25.92,-30.72,23.699999
1553850853417,-0.18914771,9.732727,1.4245936000000001,-0.013257608999999998,-0.11979984,-0.013139101,-25.98,-30.359999,23.34
1553850853437,-0.18196489,9.744699,1.4269878,-0.014479338000000001,-0.12651935,-0.0076413136,-26.4,-30.06,23.34
1553850853457,-0.17957062,9.727939,1.4341706,-0.014479338000000001,-0.13018455,-0.007030448000000001,-26.22,-30.06,23.46
1553850853477,-0.16520496,9.720756,1.3958621999999998,-0.012035878,-0.14179099,-0.0058087176,-26.4,-30.179997999999998,23.699999
1553850853498,-0.16281068,9.725544000000001,1.446142,-0.014479338000000001,-0.13934752,-0.011917368999999999,-25.98,-29.88,24.18
1553850853517,-0.16041641,9.749487,1.4676905,-0.006538090799999999,-0.14301272,-0.013139101,-25.619999,-29.279999,24.42
1553850853538,-0.12689656,9.749487,1.4557191,0.0020140228,-0.13507147,-0.018636888,-25.619999,-30.0,25.14
1553850853557,-0.10055954,9.766247,1.4581133,0.019729115,-0.12713023,-0.022912946,-25.859999,-30.42,25.14
1553850853577,-0.08858817,9.773430000000001,1.4557191,0.031335555,-0.11246945,-0.024134673,-25.68,-29.939999,24.72
1553850853598,-0.07901107,9.763853,1.359948,0.044163722999999995,-0.09964128,-0.028410732999999997,-25.439999,-30.06,25.019999
1553850853617,-0.08858817,9.730332,1.3695252,0.052104972,-0.09170003,-0.03390852,-25.439999,-30.119999,24.84
1553850853637,-0.076616794,9.6896305,1.3455825000000001,0.061267953,-0.08070446,-0.030243327999999996,-25.859999,-29.519999,24.0
1553850853658,-0.117319465,9.72315,1.3360053,0.06187882,-0.06726543,-0.028410732999999997,-25.859999,-29.4,23.76
1553850853677,-0.11013664,9.737515,1.3264283000000001,0.04966151,-0.05626985,-0.02352381,-25.5,-29.4,24.3
1553850853697,-0.11253092,9.751882,1.3455825000000001,0.041109398,-0.050161199999999996,-0.0155825615,-25.32,-29.88,25.019999
1553850853717,-0.08858817,9.80695,1.3000913,0.029502958,-0.037943892,-0.00947391,-25.32,-29.34,25.019999
1553850853738,-0.07422252,9.811738,1.2785428,0.01911825,-0.012898419,-0.005197852,-25.08,-29.76,25.019999
1553850853757,-0.071828246,9.747093,1.350371,0.028281228999999998,0.0029840767,-0.007030448000000001,-25.26,-30.72,24.359999
1553850853777,-0.09337672,9.754275,1.333611,0.03988767,0.008481864,-0.01069564,-24.96,-30.42,25.38
1553850853797,-0.13886794,9.778217999999999,1.2809371,0.046607185,0.025586091000000002,-0.008252178,-25.08,-30.119999,25.8
1553850853818,-0.19393626,9.754275,1.2330515,0.054548435,0.04330118,-0.011306506000000001,-25.38,-30.599998,25.32
1553850853837,-0.24182175,9.759064,1.1684061000000001,0.056991894,0.051853300000000005,-0.0155825615,-25.32,-30.72,24.9
1553850853858,-0.27773590000000004,9.751882,1.1827718,0.052104972,0.049409837000000005,-0.021691214,-24.9,-30.179997999999998,24.66
1553850853877,-0.29928434,9.773430000000001,1.201926,0.04477459,0.03352734,-0.024134673,-25.38,-30.66,24.66
1553850853898,-0.31843856,9.830893,1.1947431999999998,0.03988767,0.02069917,-0.02474554,-25.68,-31.08,25.5
1553850853917,-0.29210153,9.816526,1.1779832000000001,0.028281228999999998,0.01031446,-0.02474554,-25.619999,-30.179997999999998,26.039998999999998
1553850853937,-0.25139886,9.75667,1.1516461,0.025837766,-0.006178901999999999,-0.028410732999999997,-25.32,-29.16,26.34
1553850853958,-0.23224466,9.744699,1.1372806,0.029502958,-0.02328313,-0.024134673,-25.32,-29.58,26.099998
1553850853977,-0.21309046,9.720756,1.1037607,0.029502958,-0.028170051,-0.021080348999999998,-25.439999,-30.24,25.74
1553850853997,-0.20830189999999998,9.761458,1.1181264,0.02400517,-0.020228801,-0.011917368999999999,-25.199999,-30.48,25.26
1553850854017,-0.20590763,9.790189999999999,1.1444633,0.022783441,-0.019007072,-0.0064195828,-25.019999,-29.699999,24.6
1553850854037,-0.19872479999999998,9.785401,1.1708003,0.022783441,-0.010454959,-0.0064195828,-25.08,-29.64,25.32
1553850854058,-0.20351335,9.792584,1.185166,0.014231328,-0.01412015,-0.00947391,-24.72,-30.0,25.68
1553850854078,-0.21309046,9.826103999999999,1.1660118,0.00079229224,-0.015341881000000002,-0.007030448000000001,-24.96,-29.58,25.68
1553850854097,-0.20830189999999998,9.814133,1.1660118,-0.0028728994,-0.01412015,-0.0058087176,-24.9,-29.64,25.68
1553850854118,-0.21069619,9.821315,1.1061549,-0.0040946295,-0.011065823999999998,-0.005197852,-25.14,-29.939999,25.019999
1553850854137,-0.22745611,9.751882,1.0917894,-0.0040946295,-0.0025137104,-0.0058087176,-24.96,-30.0,25.32
1553850854158,-0.23942748,9.778217999999999,1.1229149,-0.00042943824999999995,-0.0067897669999999995,-0.0033652566,-24.84,-29.22,25.5
1553850854177,-0.25379312,9.783007000000001,1.0917894,0.0026248879999999997,-0.016563611000000002,-0.00947391,-24.6,-28.8,25.439999
1553850854197,-0.2657645,9.75667,1.1037607,0.0026248879999999997,-0.028170051,-0.016193425,-24.3,-29.22,24.779999
1553850854217,-0.2657645,9.773430000000001,1.1181264,0.0069009447,-0.03977649,-0.021691214,-24.9,-29.88,24.9
1553850854237,-0.29928434,9.785401,1.1396747999999999,0.0069009447,-0.044663414000000005,-0.02474554,-24.6,-29.4,25.68
1553850854257,-0.29928434,9.804555,1.1396747999999999,0.0014031575,-0.058713312999999996,-0.02352381,-24.84,-29.939999,25.68
1553850854277,-0.29689008,9.809344,1.1708003,-0.002262034,-0.07581754,-0.019247754,-24.9,-30.0,25.68
1553850854298,-0.24900457,9.778217999999999,1.1803774999999999,-0.011425013000000001,-0.09108917400000001,-0.011917368999999999,-24.3,-29.76,26.519999
1553850854317,-0.2657645,9.780613,1.1660118,-0.018144531000000002,-0.10086302,-0.013139101,-24.84,-29.939999,26.099998
1553850854337,-0.28252444,9.792584,1.175589,-0.01936626,-0.10880426,-0.01069564,-24.779999,-29.519999,25.8
1553850854358,-0.25139886,9.773430000000001,1.185166,-0.023031452999999997,-0.12835194,-0.008252178,-24.66,-29.039998999999998,25.619999
1553850854377,-0.22027329,9.771035000000001,1.1947431999999998,-0.024864048,-0.13323888,-0.007030448000000001,-24.66,-29.46,25.5
1553850854398,-0.17238778,9.75667,1.2426286,-0.01936626,-0.13995839999999998,-0.011306506000000001,-24.539998999999998,-30.119999,25.439999
1553850854417,-0.12929083,9.754275,1.2426286,-0.014479338000000001,-0.12774108,-0.013139101,-24.96,-30.3,25.68
1553850854438,-0.11013664,9.787795,1.2713598999999998,-0.008370686,-0.10574994,-0.017415157,-25.08,-30.359999,26.16
1553850854458,-0.09337672,9.775824,1.3048798000000001,0.0014031575,-0.08131533,-0.016193425,-24.359999,-30.0,25.98
1553850854477,-0.052674048,9.749487,1.2306572,0.008122675,-0.05138293,-0.016804293,-24.66,-30.119999,25.8
1553850854497,-0.011971374,9.742303999999999,1.1803774999999999,0.014231328,0.0017623462,-0.016193425,-24.96,-30.24,25.92
1553850854518,-0.043096945,9.751882,1.1636176,0.017285653999999998,0.029862148999999998,-0.011917368999999999,-24.9,-30.66,25.859999
1553850854537,-0.12450229,9.783007000000001,1.132492,0.014842193,0.06895752,-0.004586987,-24.6,-30.539998999999998,25.98
1553850854557,-0.16759923,9.761458,1.1396747999999999,0.011787866000000001,0.09522473,0.0027433957000000003,-24.66,-30.06,25.98
1553850854578,-0.20351335,9.73991,1.1731946000000002,0.015453058,0.11293982,0.0009108001,-24.72,-30.0,26.039998999999998
1553850854597,-0.30407290000000003,9.80695,1.1468576000000001,0.017896518,0.11721588,0.0015216654,-24.72,-30.539998999999998,26.16
1553850854617,-0.30407290000000003,9.771035000000001,1.1085492000000001,0.014231328,0.10560944,-0.002143526,-24.42,-30.3,25.98
1553850854638,-0.29928434,9.715967,1.1420691,0.016674789,0.096446455,-0.004586987,-24.119999,-29.64,25.68
1553850854657,-0.29928434,9.737515,1.185166,0.029502958,0.07506618,-0.013139101,-24.6,-29.88,25.92
1553850854677,-0.32801566,9.771035000000001,1.1564348,0.042941995,0.06284886599999999,-0.021691214,-24.6,-30.72,25.74
1553850854698,-0.28970724,9.775824,1.1277034,0.047828916,0.059794545,-0.021691214,-24.42,-30.779999,25.26
1553850854717,-0.23463893,9.768641,1.1492518999999999,0.048439782,0.061016272999999996,-0.021691214,-24.48,-29.88,25.32
1553850854738,-0.21069619,9.845258,1.1731946000000002,0.049050647999999995,0.05368589,-0.018026022,-24.96,-30.119999,25.74
1553850854758,-0.22985038,9.826103999999999,1.1396747999999999,0.040498532000000004,0.053075027000000004,-0.012528235,-25.019999,-30.599998,25.38
1553850854778,-0.22027329,9.809344,1.1037607,0.024616037,0.051853300000000005,-0.005197852,-24.779999,-30.3,26.099998
1553850854797,-0.25379312,9.818921000000001,1.0654523,0.00751181,0.054907624,0.0021325308,-24.3,-30.179997999999998,26.34
1553850854818,-0.29689008,9.840469,1.1229149,-0.006538090799999999,0.054907624,0.008852048000000001,-23.76,-30.24,25.74
1553850854837,-0.32562137,9.754275,1.1229149,-0.013868473999999999,0.050020702,0.0033542612,-24.359999,-30.3,25.8
1553850854858,-0.35674694,9.761458,1.1612233,-0.019977124,0.038414262000000005,0.0033542612,-24.42,-29.88,25.859999
1553850854878,-0.34477556,9.737515,1.1684061000000001,-0.016311936000000003,0.018255709,-0.004586987,-25.38,-29.519999,25.74
1553850854897,-0.36392978,9.749487,1.1085492000000001,-0.00042943824999999995,-7.024949999999999e-05,-0.0064195828,-25.199999,-29.519999,25.92
1553850854917,-0.33040990000000003,9.75667,1.1181264,0.008122675,-0.0055680363,-0.008252178,-25.26,-29.699999,25.68
1553850854938,-0.33040990000000003,9.773430000000001,1.1229149,0.017896518,-0.014731015,-0.0155825615,-24.359999,-29.76,25.68
1553850854957,-0.31843856,9.787795,1.0798178999999999,0.019729115,-0.017174477,-0.013139101,-24.359999,-29.939999,26.16
1553850854977,-0.30646718,9.828498,1.0534808999999998,0.016063923,-0.023893993,-0.016804293,-24.72,-29.82,25.68
1553850854998,-0.29210153,9.804555,1.0486923000000001,-0.0010403035,-0.028780917000000003,-0.019247754,-24.84,-29.039998999999998,25.14
1553850855018,-0.29210153,9.75667,1.0941836,-0.008981552,-0.035500433,-0.018026022,-24.779999,-29.46,25.32
1553850855037,-0.3519584,9.787795,1.1468576000000001,-0.01570107,-0.03733303,-0.012528235,-24.539998999999998,-29.82,25.56
1553850855057,-0.3328042,9.80695,1.0941836,-0.024864048,-0.02939178,-0.008863044,-24.84,-30.119999,25.619999
1553850855078,-0.34956414,9.811738,1.1492518999999999,-0.02852924,-0.01778534,-0.002143526,-24.84,-30.3,25.98
1553850855098,-0.35914123,9.773430000000001,1.1468576000000001,-0.029140104,-0.008011498,-0.0027543914000000003,-24.42,-30.66,25.32
1553850855117,-0.30407290000000003,9.73991,1.2067145000000001,-0.027918374,-0.012898419,-0.00031093040000000003,-24.48,-30.359999,25.56
1553850855137,-0.27773590000000004,9.766247,1.1492518999999999,-0.016922799999999998,-0.025726587999999998,0.00029993482000000005,-24.66,-29.699999,26.279999
1553850855158,-0.32083282,9.771035000000001,1.0798178999999999,-0.008981552,-0.025115725,-0.002143526,-24.84,-29.34,26.039998999999998
1553850855177,-0.35914123,9.785401,1.0654523,-0.010203282,-0.017174477,-0.004586987,-25.019999,-29.58,25.74
1553850855197,-0.37590113,9.816526,1.1444633,-0.012646743,-0.022061398,-0.01069564,-25.199999,-29.76,25.199999
1553850855217,-0.42139238,9.818921000000001,1.132492,-0.010203282,-0.03733303,-0.0155825615,-24.66,-29.699999,24.539998999999998
1553850855237,-0.43575802,9.802161,1.1109436000000001,-0.018755395,-0.045885142000000004,-0.018026022,-24.6,-28.92,25.56
1553850855258,-0.41181526,9.778217999999999,1.1157321000000002,-0.022420587000000002,-0.055658985,-0.019858617,-24.6,-28.8,25.859999
1553850855278,-0.41660379999999997,9.768641,1.1779832000000001,-0.014479338000000001,-0.06787629,-0.019247754,-24.84,-29.76,25.74
1553850855298,-0.40223816,9.763853,1.1684061000000001,-0.010814147,-0.07276321,-0.020469485,-24.84,-30.3,25.8
1553850855317,-0.37111259,9.737515,1.1827718,-0.010814147,-0.07765014,-0.0155825615,-24.359999,-30.06,25.92
1553850855337,-0.35435268,9.751882,1.1492518999999999,-0.013257608999999998,-0.07703927,-0.016193425,-24.24,-29.88,26.099998
1553850855358,-0.3232271,9.768641,1.1827718,-0.010203282,-0.07887186,-0.012528235,-25.019999,-30.42,25.859999
1553850855377,-0.30407290000000003,9.773430000000001,1.1612233,-0.010203282,-0.07154148,-0.014360831000000001,-25.199999,-30.72,26.099998
1553850855398,-0.28252444,9.768641,1.1803774999999999,-0.014479338000000001,-0.061156772000000005,-0.014360831000000001,-24.6,-30.599998,26.519999
1553850855417,-0.28970724,9.792584,1.1995316999999999,-0.019977124,-0.057491582,-0.00947391,-25.199999,-30.779999,26.279999
1553850855437,-0.2681588,9.814133,1.2091087999999999,-0.021198856000000002,-0.053215526,-0.0076413136,-25.32,-30.72,26.22
1553850855457,-0.30646718,9.759064,1.1947431999999998,-0.01936626,-0.045885142000000004,-0.004586987,-24.3,-30.179997999999998,25.8
1553850855477,-0.3423813,9.773430000000001,1.2043202,-0.01936626,-0.031835243,-0.004586987,-23.88,-29.939999,25.26
1553850855497,-0.33519846,9.821315,1.211503,-0.022420587000000002,-0.022061398,-0.007030448000000001,-24.18,-30.24,25.5
1553850855517,-0.339987,9.751882,1.2210802,-0.01936626,-0.021450532999999997,-0.0076413136,-24.18,-30.539998999999998,25.859999
1553850855537,-0.37590113,9.730332,1.2186858999999999,-0.013257608999999998,-0.022061398,-0.013139101,-23.4,-29.88,26.16
1553850855557,-0.41420954,9.768641,1.1947431999999998,-0.012646743,-0.018396208,-0.011306506000000001,-23.16,-30.06,25.439999
1553850855577,-0.42857520000000005,9.809344,1.1995316999999999,-0.010814147,-0.017174477,-0.00947391,-23.22,-30.599998,25.8
1553850855597,-0.43096948,9.804555,1.1971374,-0.010203282,-0.019617938,-0.007030448000000001,-23.939999,-30.119999,26.34
1553850855618,-0.42139238,9.785401,1.2306572,-0.018755395,-0.022672263999999998,-0.003976122,-24.119999,-30.599998,26.4
1553850855637,-0.41181526,9.780613,1.2091087999999999,-0.020587992,-0.03855476,-0.00947391,-23.88,-30.84,26.34
1553850855658,-0.40223816,9.749487,1.185166,-0.021809721,-0.045274275999999995,-0.007030448000000001,-24.06,-30.3,26.22
1553850855677,-0.37829542,9.783007000000001,1.1660118,-0.022420587000000002,-0.041609086,-0.01069564,-23.58,-30.3,25.98
1553850855697,-0.36632404,9.75667,1.1995316999999999,-0.02852924,-0.035500433,-0.008863044,-23.4,-30.3,25.32
1553850855717,-0.37590113,9.766247,1.2402343999999998,-0.031583566,-0.034278702,-0.003976122,-23.039998999999998,-30.179997999999998,25.439999
1553850855737,-0.39026679999999997,9.785401,1.2522057,-0.027307509,-0.035500433,-0.0015326607999999998,-23.4,-30.359999,26.16
1553850855757,-0.37829542,9.766247,1.201926,-0.023642316,-0.030002648,-0.0009217956699999999,-23.82,-30.3,26.16
1553850855778,-0.3423813,9.751882,1.1995316999999999,-0.023642316,-0.02328313,-0.00031093040000000003,-23.4,-30.24,26.34
1553850855797,-0.3615355,9.735122,1.23784,-0.021809721,-0.024504859,-0.0027543914000000003,-24.06,-30.42,26.46
1553850855817,-0.37829542,9.744699,1.2617828000000002,-0.017533666,-0.021450532999999997,-0.0015326607999999998,-24.3,-30.779999,26.099998
1553850855837,-0.39026679999999997,9.775824,1.2282629999999999,-0.022420587000000002,-0.015952745,-0.002143526,-24.18,-30.72,26.46
1553850855857,-0.38787252,9.785401,1.2641771000000002,-0.021809721,-0.012287554,-0.0027543914000000003,-24.42,-30.539998999999998,26.46
1553850855877,-0.38547826,9.790189999999999,1.2641771000000002,-0.02852924,-0.011065823999999998,-0.0027543914000000003,-23.64,-30.84,26.519999
1553850855897,-0.37829542,9.761458,1.2474172,-0.032805298,-0.013509285,-0.0009217956699999999,-23.16,-30.96,26.16
1553850855917,-0.37590113,9.725544000000001,1.2953026,-0.031583566,-0.015952745,-0.0009217956699999999,-23.4,-30.96,26.039998999999998
1553850855937,-0.39505535,9.778217999999999,1.2498114,-0.032194432,-0.022061398,0.0027433957000000003,-23.16,-30.72,26.58
1553850855957,-0.36871833,9.75667,1.2905141000000002,-0.036470487999999995,-0.025726587999999998,-0.0015326607999999998,-23.1,-30.779999,26.279999
1553850855978,-0.36392978,9.732727,1.3168511,-0.031583566,-0.028780917000000003,-0.0064195828,-23.64,-31.199999,26.039998999999998
1553850855997,-0.38547826,9.715967,1.3048798000000001,-0.031583566,-0.03977649,-0.0064195828,-23.82,-30.96,25.38
1553850856018,-0.38547826,9.742303999999999,1.3383996,-0.02852924,-0.045885142000000004,-0.004586987,-23.939999,-30.779999,24.9
1553850856037,-0.38068968,9.727939,1.3096683,-0.025474913,-0.044663414000000005,-0.002143526,-23.64,-30.84,25.38
1553850856058,-0.38308397,9.735122,1.350371,-0.031583566,-0.04649601,-0.007030448000000001,-23.34,-30.539998999999998,25.26
1553850856077,-0.39026679999999997,9.754275,1.3886794,-0.030972700000000002,-0.04649601,0.0015216654,-23.46,-30.48,25.74
1553850856097,-0.41181526,9.763853,1.4198049,-0.029750971,-0.050772063,0.0015216654,-23.58,-30.359999,25.859999
1553850856118,-0.39984390000000003,9.759064,1.3910737,-0.039524816000000004,-0.053215526,0.00029993482000000005,-23.88,-30.24,25.439999
1553850856138,-0.35435268,9.742303999999999,1.4413534,-0.045022603,-0.057491582,0.0033542612,-23.64,-30.72,25.56
1553850856158,-0.34477556,9.737515,1.4844503,-0.049298655,-0.06665456,0.010073779,-23.46,-31.019999,25.74
1553850856177,-0.37590113,9.771035000000001,1.4221992,-0.04624433,-0.06298937,0.016793298,-23.82,-31.26,26.4
1553850856198,-0.38547826,9.792584,1.4557191,-0.051742118,-0.04771774,0.021680217,-23.519999,-30.72,25.92
1553850856217,-0.4070267,9.790189999999999,1.4389591,-0.05052039,-0.04771774,0.018015025,-23.22,-30.119999,24.96
1553850856238,-0.45012367,9.749487,1.4676905,-0.039524816000000004,-0.04955033599999999,0.008241183000000001,-23.46,-30.42,24.66
1553850856257,-0.4644893,9.699207000000001,1.4772675,-0.023031452999999997,-0.051993795,-0.0027543914000000003,-23.519999,-30.84,24.96
1553850856277,-0.43336374,9.708784,1.4772675,-0.010814147,-0.057491582,-0.008863044,-23.22,-30.84,26.46
1553850856297,-0.42857520000000005,9.706389999999999,1.489239,0.00018142698,-0.070930615,-0.013749965500000001,-23.16,-30.9,26.16
1553850856317,-0.40463245,9.725544000000001,1.4581133,-0.00042943824999999995,-0.08314793,-0.018636888,-22.68,-31.14,25.26
1553850856337,-0.37829542,9.730332,1.4748733,0.0014031575,-0.079482734,-0.027189001,-22.619999,-31.14,25.439999
1553850856358,-0.34477556,9.699207000000001,1.4964218,0.00018142698,-0.079482734,-0.025356404,-22.98,-31.08,25.92
1553850856377,-0.3232271,9.72315,1.5131816999999999,-0.00042943824999999995,-0.08314793,-0.02230208,-23.64,-30.96,25.92
1553850856398,-0.25379312,9.754275,1.498816,-0.012646743,-0.07459581,-0.019858617,-23.58,-31.14,24.9
1553850856417,-0.20111908,9.72315,1.5419129999999999,-0.01570107,-0.062378507,-0.016804293,-22.92,-31.199999,24.96
1553850856437,-0.15562786,9.6896305,1.5395187,-0.014479338000000001,-0.05138293,-0.014360831000000001,-23.1,-30.42,25.98
1553850856457,-0.17478207,9.682447,1.5562786,-0.00531636,-0.039165627,-0.01069564,-22.92,-30.42,26.099998
1553850856477,-0.22985038,9.680053,1.525153,0.00079229224,-0.018396208,-0.004586987,-22.98,-30.72,25.98
1553850856497,-0.24182175,9.682447,1.5323358999999999,-0.00042943824999999995,0.006038403,-0.0015326607999999998,-23.1,-30.599998,26.519999
1553850856518,-0.2681588,9.725544000000001,1.525153,-0.0016511687,0.026196957000000003,0.0051868567,-23.16,-30.96,26.16
1553850856537,-0.24421602,9.718361999999999,1.4940275,0.0014031575,0.037803393,0.0045759915,-23.34,-30.9,25.92
1553850856557,-0.24421602,9.696813,1.4748733,0.0038466183,0.046355512,0.0064085876000000005,-22.859999,-30.599998,26.4
1553850856578,-0.28252444,9.701602000000001,1.4437478000000001,0.0038466183,0.045744643,0.0039651264,-22.74,-30.539998999999998,26.58
1553850856597,-0.33519846,9.708784,1.4221992,0.0026248879999999997,0.05612935,0.005797722,-22.8,-30.42,25.8
1553850856617,-0.37350687,9.773430000000001,1.4054393,0.0020140228,0.05796195,0.0039651264,-22.68,-29.939999,25.14
1553850856637,-0.40223816,9.773430000000001,1.4150163999999998,-0.0028728994,0.05674022,0.0051868567,-22.859999,-29.699999,25.5
1553850856657,-0.41420954,9.783007000000001,1.4389591,-0.0028728994,0.04391205,0.0039651264,-23.039998999999998,-30.539998999999998,25.26
1553850856677,-0.39984390000000003,9.749487,1.4006507,0.00018142698,0.029862148999999998,0.0021325308,-22.859999,-31.14,25.619999
1553850856698,-0.39266106,9.73991,1.3791022,0.0069009447,0.012147056000000002,-0.0033652566,-22.98,-31.199999,25.98
1553850856717,-0.409421,9.727939,1.350371,0.014231328,-0.0019028451999999999,-0.0064195828,-23.34,-31.14,25.859999
1553850856738,-0.36871833,9.72315,1.3527653,0.019729115,-0.015341881000000002,-0.0155825615,-22.8,-30.3,25.98
1553850856757,-0.35435268,9.706389999999999,1.3743136999999999,0.027059497000000002,-0.022672263999999998,-0.020469485,-23.16,-30.359999,25.619999
1553850856778,-0.33040990000000003,9.725544000000001,1.4269878,0.036833342000000005,-0.025115725,-0.029021597000000003,-23.88,-30.779999,25.08
1553850856797,-0.29449580000000003,9.763853,1.4150163999999998,0.047828916,-0.022672263999999998,-0.032686785,-23.16,-30.42,25.14
1553850856818,-0.30407290000000003,9.785401,1.324034,0.04477459,-0.014731015,-0.029632462000000002,-22.859999,-30.42,25.26
1553850856837,-0.30407290000000003,9.780613,1.3527653,0.040498532000000004,-0.017174477,-0.031465057000000005,-23.279999,-30.96,25.56
1553850856858,-0.31365,9.737515,1.3551594999999999,0.03561161,-0.021450532999999997,-0.029021597000000003,-22.859999,-30.72,26.039998999999998
1553850856877,-0.34716985,9.72315,1.3719195,0.031335555,-0.021450532999999997,-0.02474554,-22.5,-30.48,26.279999
1553850856897,-0.35435268,9.766247,1.3647367,0.015453058,-0.015952745,-0.021080348999999998,-23.16,-31.019999,26.64
1553850856917,-0.32562137,9.751882,1.3982565,0.0032357534,-0.017174477,-0.01069564,-23.1,-31.32,26.22
1553850856937,-0.3232271,9.792584,1.3551594999999999,-0.012646743,-0.018396208,-0.0015326607999999998,-22.68,-30.9,25.92
1553850856957,-0.3615355,9.804555,1.333611,-0.02852924,-0.011065823999999998,0.0009108001,-22.619999,-30.9,25.98
1553850856978,-0.3615355,9.761458,1.3192455,-0.035859622,-0.0025137104,0.0045759915,-22.98,-31.08,26.099998
1553850856997,-0.37111259,9.766247,1.3096683,-0.04135741,0.007260133,0.0039651264,-23.039998999999998,-30.539998999999998,26.519999
1553850857017,-0.39505535,9.814133,1.3360053,-0.040746543999999996,0.006038403,0.0033542612,-22.14,-30.42,25.92
1553850857037,-0.4189981,9.797373,1.3264283000000001,-0.03769222,0.006038403,0.0070194528,-22.08,-30.539998999999998,25.38
1553850857058,-0.42139238,9.749487,1.3288225,-0.029750971,-0.00068111473,0.0009108001,-22.26,-30.779999,25.5
1553850857077,-0.47167215,9.718361999999999,1.3072741,-0.02852924,-0.014731015,-0.008252178,-22.14,-30.84,25.8
1553850857098,-0.45491222,9.737515,1.3407938,-0.030361835,-0.025115725,-0.011917368999999999,-22.02,-30.9,25.98
1553850857117,-0.4764607,9.773430000000001,1.3288225,-0.02608578,-0.034889567999999996,-0.01069564,-22.199999,-30.72,25.68
1553850857137,-0.46688359999999995,9.780613,1.324034,-0.024864048,-0.042830817,-0.011306506000000001,-22.859999,-30.84,25.859999
1553850857157,-0.45251793,9.761458,1.3144568,-0.029750971,-0.041609086,-0.010084774,-23.039998999999998,-31.08,26.039998999999998
1553850857178,-0.41660379999999997,9.778217999999999,1.333611,-0.035248756,-0.045885142000000004,-0.004586987,-22.439999,-31.56,26.4
1553850857197,-0.40463245,9.766247,1.3695252,-0.048076928,-0.053215526,-0.004586987,-22.92,-31.199999,26.4
1553850857218,-0.4189981,9.763853,1.403045,-0.060294232999999996,-0.053826387999999996,0.0027433957000000003,-22.92,-30.599998,26.46
1553850857237,-0.44533512,9.744699,1.4365649,-0.062126825999999996,-0.05626985,0.0021325308,-22.68,-31.5,26.46
1553850857257,-0.46209505,9.703996,1.4437478000000001,-0.06640288,-0.053215526,0.0039651264,-23.22,-31.5,25.98
1553850857277,-0.44533512,9.763853,1.472479,-0.06518115,-0.05688072,0.0027433957000000003,-22.56,-30.66,25.859999
1553850857297,-0.42378664,9.6896305,1.489239,-0.062737696,-0.058102448,-0.002143526,-21.84,-30.539998999999998,25.8
1553850857317,-0.39266106,9.672871,1.5107874,-0.05540731,-0.054437257,-0.0033652566,-22.26,-31.019999,25.32
1553850857338,-0.41181526,9.703996,1.5490957,-0.052352987000000004,-0.05993504400000001,-0.003976122,-22.08,-31.14,25.74
1553850857357,-0.37829542,9.696813,1.5706443,-0.049298655,-0.06848716,-0.003976122,-22.5,-30.66,25.98
1553850857377,-0.4070267,9.720756,1.5706443,-0.048687793,-0.06543283,-0.0027543914000000003,-22.8,-30.9,25.56
1553850857397,-0.41181526,9.730332,1.5610671999999999,-0.054796442,-0.053215526,-0.0076413136,-22.38,-31.56,25.199999
1553850857417,-0.409421,9.785401,1.6113469999999999,-0.06701375,-0.048328605,-0.013749965500000001,-23.039998999999998,-32.219997,25.32
1553850857437,-0.40223816,9.754275,1.6592325,-0.07556587,-0.05688072,-0.002143526,-22.859999,-32.579997999999996,26.58
1553850857457,-0.43096948,9.744699,1.6592325,-0.07678760000000001,-0.05993504400000001,-0.0015326607999999998,-22.08,-31.98,26.64
1553850857477,-0.44772938,9.763853,1.6975409,-0.08106365,-0.07398495,0.0027433957000000003,-21.72,-31.08,25.619999
1553850857497,-0.49800915,9.797373,1.6951466,-0.07434413,-0.09903042,-0.0058087176,-21.96,-30.84,25.14
1553850857517,-0.49800915,9.744699,1.6927522000000002,-0.07006807599999999,-0.11369119,-0.01069564,-22.619999,-30.9,25.5
1553850857537,-0.49800915,9.656111,1.6879636999999998,-0.06701375,-0.12651935,-0.02352381,-22.619999,-31.32,25.68
1553850857558,-0.43096948,9.653716000000001,1.6496553,-0.06334856,-0.13812579,-0.029021597000000003,-22.08,-31.74,25.439999
1553850857577,-0.4189981,9.665688000000001,1.6328955,-0.06701375,-0.14423445,-0.02352381,-21.72,-32.16,26.099998
1553850857597,-0.40223816,9.648928,1.637684,-0.07556587,-0.1485105,-0.02230208,-22.02,-32.219997,26.16
1553850857617,-0.38787252,9.653716000000001,1.7095122,-0.07923105,-0.1448453,-0.019247754,-21.9,-31.679997999999998,25.859999
1553850857637,-0.36871833,9.605830000000001,1.7837347,-0.08656144,-0.1466779,-0.010084774,-21.3,-31.5,26.22
1553850857657,-0.31604427,9.608225,1.8723229,-0.09267009,-0.14301272,0.0015216654,-21.48,-31.679997999999998,26.58
1553850857678,-0.29210153,9.63935,1.8627458,-0.08961576,-0.1307954,0.0021325308,-21.6,-31.98,26.22
1553850857697,-0.27773590000000004,9.634561999999999,1.8819,-0.09022663,-0.10758253,0.0064085876000000005,-22.14,-31.98,25.859999
1553850857718,-0.25139886,9.665688000000001,1.8819,-0.08656144,-0.08070446,0.0027433957000000003,-21.9,-32.04,25.859999
1553850857737,-0.19154198,9.440625,1.8747171000000002,-0.068846345,-0.045885142000000004,-0.02352381,-20.58,-31.92,25.619999
1553850857757,-0.22985038,9.708784,2.030345,-0.062737696,-0.03855476,-0.0009217956699999999,-20.52,-32.1,25.26
1553850857777,-0.31125572,9.644139,2.0351336,-0.043800868,-0.05260466,-0.0076413136,-20.88,-32.64,25.56
1553850857797,-0.339987,9.624985,1.9800651999999999,-0.029750971,-0.055048123,-0.012528235,-21.42,-32.52,26.279999
1553850857817,-0.40223816,9.598647999999999,1.9417567999999998,-0.025474913,-0.05138293,-0.011917368999999999,-21.42,-32.1,26.099998
1553850857838,-0.42139238,9.608225,1.9369683000000002,-0.025474913,-0.04771774,-0.0155825615,-20.76,-31.5,25.92
1553850857857,-0.43096948,9.627379,1.9297855,-0.023642316,-0.055658985,-0.013139101,-20.76,-31.74,25.98
1553850857877,-0.43096948,9.617802000000001,1.9585168000000002,-0.026696645,-0.06298937,-0.010084774,-21.72,-31.859999,25.98
1553850857897,-0.39026679999999997,9.651321000000001,1.9633054,-0.031583566,-0.07887186,-0.007030448000000001,-21.48,-32.1,25.439999
1553850857917,-0.36632404,9.636956,2.0087965,-0.038913947000000004,-0.082537055,-0.0064195828,-20.699999,-32.94,25.14
1553850857937,-0.36871833,9.634561999999999,2.030345,-0.038303085,-0.09353263,-0.004586987,-20.76,-32.82,25.98
1553850857958,-0.36392978,9.598647999999999,2.0351336,-0.040135678,-0.08314793,-0.003976122,-20.64,-32.46,26.16
1553850857977,-0.36392978,9.636956,2.0518935000000003,-0.035248756,-0.069708884,-0.0033652566,-20.64,-32.64,25.56
1553850857998,-0.31365,9.653716000000001,2.0279508,-0.024253184,-0.053215526,-0.0033652566,-21.539998999999998,-32.52,26.16
1553850858017,-0.31843856,9.641745,2.0494993000000004,-0.021809721,-0.03977649,-0.0027543914000000003,-21.359999,-32.46,26.46
1553850858038,-0.30407290000000003,9.636956,2.0279508,-0.011425013000000001,-0.032446105,-0.0033652566,-20.22,-33.059998,26.039998999999998
1553850858057,-0.33040990000000003,9.675264,1.9968252,-0.008981552,-0.020839668999999998,-0.0064195828,-20.34,-33.239998,26.22
1553850858078,-0.32801566,9.656111,1.9656997,-0.00531636,-0.012287554,-0.0064195828,-20.939999,-32.64,25.92
1553850858097,-0.37111259,9.634561999999999,1.9585168000000002,-0.0040946295,-0.0067897669999999995,-0.002143526,-21.3,-32.52,25.32
1553850858117,-0.39505535,9.624985,1.9561224999999998,-0.002262034,-0.010454959,-0.002143526,-21.06,-32.399998,25.38
1553850858137,-0.39026679999999997,9.646533,1.9226026999999999,-0.0016511687,-0.01167669,-0.0033652566,-20.34,-32.94,25.26
1553850858158,-0.32562137,9.670475999999999,1.9130256,-0.00531636,-0.008011498,-0.00947391,-21.24,-33.3,25.26
1553850858177,-0.27534159999999996,9.569917,1.9513340000000001,0.0020140228,0.005427538000000001,-0.014360831000000001,-21.24,-32.76,25.26
1553850858197,-0.21309046,9.560339,1.9752767,0.014842193,0.0066492682999999995,-0.018026022,-20.88,-32.52,25.98
1553850858217,-0.21309046,9.562733999999999,1.9656997,0.020950846000000002,0.029862148999999998,-0.017415157,-20.699999,-33.0,26.22
1553850858237,-0.19872479999999998,9.557945,1.9178141,0.020950846000000002,0.050631564000000004,-0.013139101,-20.4,-33.059998,25.199999
1553850858257,-0.24182175,9.605830000000001,1.8914771000000001,0.014231328,0.078731366,-0.003976122,-21.119999,-32.46,25.019999
1553850858278,-0.27294734,9.668080999999999,1.8651401,0.0038466183,0.096446455,0.0033542612,-21.18,-32.52,25.38
1553850858297,-0.35674694,9.701602000000001,1.8603516,-0.012035878,0.10438771,0.014960701000000002,-20.88,-32.579997999999996,25.5
1553850858318,-0.43096948,9.696813,1.8699286,-0.026696645,0.08606175,0.028399736000000002,-20.46,-32.34,24.96
1553850858337,-0.45012367,9.672871,1.8555629,-0.038303085,0.06773579,0.029010601,-20.22,-32.04,24.84
1553850858357,-0.5027977,9.672871,1.8531687,-0.05052039,0.048188105,0.035119254,-20.939999,-32.28,24.84
1553850858377,-0.5554718000000001,9.665688000000001,1.8938714,-0.059072502,0.015201381000000002,0.035119254,-21.0,-31.98,25.08
1553850858397,-0.5913859,9.641745,1.8819,-0.06395942,-0.008622363000000001,0.03695185,-20.52,-31.859999,25.08
1553850858417,-0.60335726,9.620196,1.9010541,-0.06395942,-0.027559185,0.029621465,-20.699999,-32.52,24.48
1553850858437,-0.55786604,9.680053,1.8579572,-0.06457029,-0.05626985,0.021680217,-21.24,-32.7,24.66
1553850858457,-0.56744313,9.727939,1.8651401,-0.07556587,-0.06298937,0.020458488,-21.539998999999998,-32.28,25.019999
1553850858478,-0.5554718000000001,9.768641,1.924997,-0.08717230000000001,-0.098419555,0.018625893,-21.539998999999998,-31.92,25.14
1553850858497,-0.5219519,9.701602000000001,1.9226026999999999,-0.08411797,-0.12529762,0.0112955095,-21.84,-31.98,24.96
1553850858517,-0.47885495,9.6585045,1.9728824,-0.084728844,-0.15584089,0.00029993482000000005,-21.3,-32.64,25.019999
1553850858537,-0.46927786,9.627379,1.9872481,-0.08533971,-0.1784429,-0.0033652566,-21.42,-32.94,25.56
1553850858558,-0.39984390000000003,9.550761999999999,2.1021732999999996,-0.08106365,-0.19066021,-0.007030448000000001,-21.66,-32.52,25.439999
1553850858577,-0.32801566,9.519637,2.1476645,-0.074955,-0.20715356,-0.010084774,-21.359999,-33.0,24.539998999999998
1553850858597,-0.25858167,9.550761999999999,2.19555,-0.06334856,-0.20471011,-0.020469485,-21.0,-33.12,24.9
1553850858618,-0.18914771,9.545974000000001,2.2266755000000003,-0.04135741,-0.18455157,-0.027799865,-19.92,-32.7,25.38
1553850858637,-0.1340794,9.598647999999999,2.2721667,-0.020587992,-0.15828435,-0.035741117,-19.8,-32.88,24.9
1553850858657,-0.007182824399999999,9.617802000000001,2.2841382,-0.007148956,-0.12835194,-0.033297653999999996,-20.58,-32.52,24.779999
1553850858678,0.014365649,9.608225,2.343995,-0.005927225600000001,-0.10330647,-0.04001717,-20.699999,-32.52,25.199999
1553850858697,-0.009577099,9.569917,2.3392065,-0.00531636,-0.08436965,-0.04062804,-19.56,-33.36,24.3
1553850858717,-0.038308397,9.569917,2.2721667,-0.008981552,-0.06543283,-0.038184576,-19.38,-33.78,24.18
1553850858738,-0.06943397,9.562733999999999,2.2601955,-0.018144531000000002,-0.039165627,-0.02596727,-20.52,-33.36,25.199999
1553850858757,-0.076616794,9.586677,2.2865324,-0.029750971,-0.023893993,-0.016804293,-21.0,-33.3,25.439999
1553850858777,-0.12689656,9.550761999999999,2.2841382,-0.043800868,-0.022061398,-0.007030448000000001,-20.699999,-33.66,24.66
1553850858797,-0.11971374,9.517242,2.2817439999999998,-0.052352987000000004,-0.020839668999999998,0.0015216654,-20.279999,-33.36,24.72
1553850858817,-0.15323359,9.507666,2.3368123,-0.05418558,-0.015341881000000002,0.0112955095,-20.58,-32.52,25.199999
1553850858838,-0.1699935,9.464568,2.2961093999999997,-0.043800868,0.015201381000000002,0.020458488,-19.8,-33.059998,24.24
1553850858857,-0.15802214,9.500483000000001,2.2817439999999998,-0.03341616,0.04391205,0.019236756,-19.68,-33.36,23.64
1553850858878,-0.1699935,9.553157,2.3032923,-0.025474913,0.06773579,0.01618243,-20.46,-33.18,24.96
1553850858897,-0.19872479999999998,9.651321000000001,2.3152637,-0.024253184,0.07934223,0.01618243,-19.92,-33.66,25.38
1553850858917,-0.19633053,9.646533,2.2697724999999997,-0.026696645,0.08361828,0.01618243,-19.08,-34.26,24.18
1553850858937,-0.27534159999999996,9.615408,2.2458298,-0.038303085,0.08545088,0.0094629135,-19.199999,-33.42,24.779999
1553850858958,-0.35914123,9.605830000000001,2.2266755000000003,-0.048687793,0.08667261,-0.0058087176,-19.8,-32.94,25.56
1553850858977,-0.44294083,9.622589999999999,2.2721667,-0.049298655,0.09339213,-0.008252178,-19.68,-34.32,25.32
1553850858998,-0.49082634,9.672871,2.2937152000000003,-0.04257914,0.08972695,-0.003976122,-19.439999,-34.14,25.619999
1553850859017,-0.41420954,9.598647999999999,2.291321,-0.032805298,0.07323358,-0.0058087176,-20.4,-33.18,26.16
1553850859038,-0.4189981,9.651321000000001,2.3296294,-0.023642316,0.058572814,-0.003976122,-20.34,-33.78,25.56
1553850859058,-0.5147691,9.555551,2.343995,-0.00531636,0.045744643,-0.012528235,-19.859999,-34.02,24.3
1553850859078,-0.50998056,9.601042,2.3272352,-0.0047054947,0.031083878,-0.00031093040000000003,-20.16,-33.36,24.359999
1553850859098,-0.5554718000000001,9.498088000000001,2.3655436,-0.0047054947,0.013979651000000001,0.0051868567,-20.58,-33.12,24.539998999999998
1553850859117,-0.54350036,9.622589999999999,2.3344178,-0.013257608999999998,0.0011514811,0.005797722,-21.06,-33.78,24.06
1553850859138,-0.49800915,9.730332,2.2889266,-0.024864048,-0.008011498,0.0064085876000000005,-20.58,-34.38,24.18
1553850859158,-0.4070267,9.706389999999999,2.2673783,-0.051131252,-0.00129198,0.0039651264,-20.1,-33.719997,24.3
1553850859178,-0.38787252,9.601042,2.3870918999999997,-0.061515965,-0.019007072,-0.00031093040000000003,-19.92,-33.719997,24.42
1553850859197,-0.38547826,9.615408,2.4589202,-0.06640288,-0.036111300000000006,-0.004586987,-19.74,-33.84,23.939999
1553850859217,-0.39266106,9.641745,2.3966691000000004,-0.06090509999999999,-0.051993795,-0.004586987,-19.74,-33.42,23.76
1553850859237,-0.45491222,9.4932995,2.4110348,-0.05540731,-0.059324175,-0.0015326607999999998,-19.68,-33.719997,24.359999
1553850859257,-0.47406640000000005,9.421472,2.3607549999999997,-0.046855195999999995,-0.062378507,0.0015216654,-19.8,-33.78,24.42
1553850859277,-0.52913475,9.445414999999999,2.2721667,-0.043800868,-0.05260466,-0.0015326607999999998,-20.46,-33.96,24.42
1553850859297,-0.50998056,9.39274,2.2985039,-0.048687793,-0.05138293,0.0021325308,-20.76,-33.78,24.48
1553850859317,-0.44772938,9.471751,2.248224,-0.051742118,-0.07581754,0.0064085876000000005,-19.98,-33.42,24.06
1553850859338,-0.41420954,9.478933999999999,2.2937152000000003,-0.043800868,-0.09903042,-0.002143526,-20.1,-33.84,24.06
1553850859357,-0.3519584,9.553157,2.3320236,-0.03341616,-0.10636079999999999,-0.011306506000000001,-20.279999,-33.96,24.3
1553850859377,-0.24421602,9.624985,2.3344178,-0.015090204,-0.101473875,-0.018636888,-19.98,-34.079997999999996,24.42
1553850859397,-0.16759923,9.543579,2.343995,-0.00042943824999999995,-0.10697166599999999,-0.02352381,-19.8,-34.5,24.0
1553850859418,-0.15562786,9.450203,2.3655436,0.013009597,-0.10208475,-0.021080348999999998,-18.9,-34.2,23.64
1553850859437,-0.3423813,9.421472,2.3799092999999996,0.027670362999999996,-0.086813115,-0.019858617,-19.32,-33.96,23.939999
1553850859457,-0.39744959999999996,9.47654,2.3894862999999997,0.031335555,-0.05993504400000001,-0.011917368999999999,-19.98,-34.2,24.359999
1553850859478,-0.44533512,9.490905999999999,2.3631492,0.03561161,-0.037943892,-0.005197852,-19.68,-34.2,23.939999
1553850859497,-0.44054657,9.519637,2.3918805,0.033779013999999996,-0.035500433,0.0027433957000000003,-19.32,-34.68,23.64
1553850859517,-0.5363176,9.562733999999999,2.3823035,0.020950846000000002,-0.053826387999999996,0.014960701000000002,-19.74,-34.2,24.48
1553850859537,-0.41420954,9.651321000000001,2.2817439999999998,0.004457484,-0.06054591,0.02412368,-20.699999,-33.899998,24.72
1553850859557,-0.409421,9.632168,2.2554069,-0.021198856000000002,-0.061156772000000005,0.018625893,-20.279999,-34.44,24.66
1553850859577,-0.42378664,9.598647999999999,2.264984,-0.045633465,-0.058713312999999996,0.0076303175,-19.68,-34.26,23.939999
1553850859597,-0.37350687,9.620196,2.4637089,-0.047466062,-0.07459581,-0.007030448000000001,-19.56,-34.5,24.24
1553850859618,-0.40223816,9.613013,2.4517374,-0.031583566,-0.11430205,-0.0064195828,-19.14,-34.68,24.539998999999998
1553850859637,-0.4189981,9.648928,2.4469488,-0.030361835,-0.123465024,-0.013749965500000001,-18.779999,-34.559998,24.42
1553850859657,-0.38547826,9.534002000000001,2.2769554,-0.027918374,-0.11430205,-0.007030448000000001,-18.84,-34.8,24.3
1553850859677,-0.30407290000000003,9.464568,2.3727264,-0.023031452999999997,-0.10086302,-0.0058087176,-18.9,-34.44,24.06
1553850859698,-0.27294734,9.457385,2.3607549999999997,-0.010203282,-0.09475436,-0.00947391,-19.199999,-34.14,23.82
1553850859717,-0.23463893,9.505271,2.3775147999999997,0.00018142698,-0.08375879,-0.01069564,-19.439999,-34.079997999999996,24.359999
1553850859737,-0.15562786,9.593859,2.4134290000000003,0.008733541,-0.075206675,-0.014971696000000001,-19.32,-34.079997999999996,25.14
1553850859757,-0.1340794,9.58907,2.482863,0.009955271,-0.0642111,-0.014971696000000001,-19.32,-33.899998,24.84
1553850859777,-0.11253092,9.553157,2.4517374,0.004457484,-0.050772063,-0.010084774,-19.14,-33.42,24.359999
1553850859797,-0.16281068,9.529214,2.4565259999999998,-0.0010403035,-0.03977649,-0.011917368999999999,-19.26,-34.079997999999996,24.0
1553850859818,-0.16041641,9.541185,2.4421604,-0.0010403035,-0.022672263999999998,-0.008252178,-19.92,-34.68,23.82
1553850859837,-0.14365649,9.531608,2.4445546,-0.0010403035,-0.014731015,-0.0064195828,-19.5,-34.26,23.82
1553850859858,-0.15083931,9.445414999999999,2.4517374,0.0020140228,-0.008622363000000001,-0.002143526,-18.72,-33.96,24.06
1553850859877,-0.18914771,9.438231,2.4445546,0.004457484,-0.008622363000000001,0.0051868567,-18.779999,-33.6,23.82
1553850859897,-0.15083931,9.438231,2.5139885,0.014231328,-0.006178901999999999,0.0064085876000000005,-18.24,-33.96,24.0
1553850859918,-0.14126222,9.411894,2.5283542000000003,0.027059497000000002,0.0023732113,0.0051868567,-19.199999,-34.92,24.0
1553850859937,-0.14126222,9.431047999999999,2.5929997000000005,0.0392768,0.016423114,0.0039651264,-19.68,-34.38,24.06
1553850859957,-0.14126222,9.452597,2.6097596000000003,0.04599632,0.017644841,0.01251724,-19.14,-33.84,25.439999
1553850859978,-0.14844504,9.656111,2.4804687999999997,0.036833342000000005,0.031694744,0.020458488,-18.66,-34.62,25.859999
1553850859997,-0.13886794,9.735122,2.3775147999999997,0.014842193,0.042690318,0.027788872000000003,-18.42,-35.1,25.26
1553850860017,-0.19154198,9.644139,2.3200524,-0.007148956,0.05368589,0.03328666,-18.96,-34.86,24.72
1553850860038,-0.21548474,9.598647999999999,2.4062462000000004,-0.01570107,0.044522915,0.037562713,-18.66,-34.559998,24.48
1553850860057,-0.23224466,9.555551,2.4134290000000003,-0.018144531000000002,0.028029552000000003,0.03817358,-18.539998999999998,-34.2,24.66
1553850860077,-0.22985038,9.569917,2.4134290000000003,-0.018755395,0.015812248,0.033897523,-18.6,-34.14,24.6
1553850860098,-0.19872479999999998,9.534002000000001,2.4445546,-0.013868473999999999,0.008481864,0.021069353,-18.6,-34.98,24.359999
1553850860117,-0.19633053,9.457385,2.4421604,-0.010203282,0.0023732113,0.0112955095,-19.32,-34.68,24.6
1553850860137,-0.19393626,9.464568,2.4110348,-0.0016511687,0.005427538000000001,0.005797722,-19.08,-33.78,24.3
1553850860157,-0.23463893,9.502875999999999,2.3727264,0.005679214,0.014590516000000001,0.0051868567,-19.08,-33.42,24.48
1553850860177,-0.2466103,9.613013,2.3032923,0.005679214,0.022531765,0.0051868567,-19.32,-33.899998,25.019999
1553850860198,-0.25858167,9.598647999999999,2.291321,-0.007148956,0.018255709,0.0051868567,-19.68,-34.739998,24.9
1553850860217,-0.2657645,9.58907,2.3056867000000003,-0.017533666,-0.003735441,-0.0009217956699999999,-19.68,-34.5,24.84
1553850860238,-0.27773590000000004,9.550761999999999,2.370332,-0.034637894,-0.03733303,-0.0064195828,-18.66,-34.739998,24.9
1553850860258,-0.20351335,9.519637,2.4134290000000003,-0.04135741,-0.05993504400000001,-0.014360831000000001,-19.14,-34.559998,24.779999
1553850860277,-0.17717634,9.498088000000001,2.4421604,-0.038303085,-0.072152354,-0.018026022,-19.56,-34.079997999999996,24.42
1553850860297,-0.16041641,9.471751,2.4373717,-0.036470487999999995,-0.06726543,-0.014360831000000001,-19.14,-33.899998,24.48
1553850860317,-0.11253092,9.502875999999999,2.4134290000000003,-0.030361835,-0.05260466,-0.007030448000000001,-18.779999,-33.96,24.359999
1553850860337,-0.09577099,9.495694,2.4373717,-0.020587992,-0.03305697,0.0039651264,-19.08,-34.2,24.119999
1553850860358,-0.071828246,9.481328,2.430189,-0.00042943824999999995,-7.024949999999999e-05,0.0094629135,-19.26,-34.32,23.88
1553850860377,-0.11253092,9.541185,2.432583,0.0050683487,0.025586091000000002,0.013738968999999998,-19.8,-34.68,23.82
1553850860398,-0.12450229,9.560339,2.432583,0.011177001,0.046966374000000005,0.013128106,-20.1,-34.92,24.119999
1553850860418,-0.16281068,9.574705,2.4182177000000005,0.0069009447,0.0659032,0.010684643999999998,-18.96,-34.98,24.0
1553850860437,-0.20590763,9.560339,2.4086404,-0.0034837644,0.08117483,0.0070194528,-19.26,-34.86,24.119999
1553850860458,-0.22266756,9.555551,2.4277947,-0.010814147,0.08545088,0.011906375,-19.68,-34.739998,24.24
1553850860477,-0.31365,9.598647999999999,2.3990633,-0.01936626,0.076898776,0.008852048000000001,-19.199999,-34.62,24.3
1553850860498,-0.30646718,9.577099,2.3727264,-0.021198856000000002,0.061016272999999996,0.0094629135,-18.84,-34.98,23.88
1553850860517,-0.29449580000000003,9.536397000000001,2.3799092999999996,-0.026696645,0.053075027000000004,0.0094629135,-19.199999,-34.26,23.64
1553850860537,-0.32801566,9.557945,2.370332,-0.030361835,0.041468587,0.008241183000000001,-19.199999,-33.84,23.82
1553850860558,-0.30407290000000003,9.531608,2.3727264,-0.02608578,0.031083878,0.0076303175,-19.56,-34.68,24.24
1553850860577,-0.28491869999999997,9.4932995,2.403852,-0.022420587000000002,0.019477438,0.0051868567,-19.74,-34.86,24.359999
1553850860597,-0.27294734,9.498088000000001,2.403852,-0.01936626,0.021920899,0.0021325308,-19.439999,-34.079997999999996,23.46
1553850860618,-0.26337022,9.5794935,2.3894862999999997,-0.018755395,0.024364362,0.0015216654,-19.5,-33.719997,23.58
1553850860637,-0.2657645,9.581888000000001,2.4086404,-0.023642316,0.028029552000000003,-0.0027543914000000003,-19.74,-34.26,23.88
1553850860657,-0.25858167,9.545974000000001,2.4780743,-0.021809721,0.024364362,0.0009108001,-19.98,-34.14,23.88
1553850860678,-0.24900457,9.538791,2.4158232,-0.018144531000000002,0.024364362,-0.002143526,-19.859999,-33.12,24.359999
1553850860697,-0.25858167,9.526819,2.4254005000000003,-0.021198856000000002,0.02680782,-0.003976122,-20.039998999999998,-33.78,24.119999
1553850860717,-0.28252444,9.541185,2.4110348,-0.026696645,0.03352734,-0.00031093040000000003,-19.98,-34.44,23.64
1553850860737,-0.28731298,9.567522,2.4182177000000005,-0.03402703,0.040857725,0.0045759915,-19.859999,-33.84,24.3
1553850860757,-0.25858167,9.536397000000001,2.4565259999999998,-0.04135741,0.035359933999999996,0.0009108001,-19.32,-34.44,24.24
1553850860777,-0.27534159999999996,9.462174000000001,2.5044115000000002,-0.035859622,0.029862148999999998,-0.0033652566,-19.38,-34.62,23.939999
1553850860797,-0.29689008,9.454991,2.4708917,-0.023642316,0.031083878,-0.004586987,-20.039998999999998,-33.84,24.24
1553850860817,-0.28491869999999997,9.483723,2.4780743,-0.023031452999999997,0.028640417,-0.008252178,-19.859999,-33.899998,24.119999
1553850860837,-0.25139886,9.464568,2.5044115000000002,-0.01936626,0.017033977,-0.0076413136,-19.38,-34.26,23.88
1553850860857,-0.22027329,9.435837,2.4972286,-0.018144531000000002,-0.00068111473,-0.003976122,-19.26,-34.26,23.64
1553850860877,-0.21787901,9.457385,2.5115943,-0.011425013000000001,-0.006178901999999999,0.0021325308,-19.859999,-34.32,23.4
1553850860897,-0.22266756,9.488511,2.5211713,-0.0047054947,-0.00129198,0.0039651264,-19.32,-33.84,23.22
1553850860918,-0.21069619,9.495694,2.5307484000000002,-0.0016511687,0.0005406157599999999,0.0076303175,-19.199999,-33.84,23.64
1553850860938,-0.1699935,9.5483675,2.5283542000000003,-0.006538090799999999,0.007870999,0.013738968999999998,-19.14,-33.96,24.119999
1553850860957,-0.13886794,9.519637,2.5522968999999995,-0.012646743,0.008481864,0.020458488,-19.08,-33.96,24.06
1553850860978,-0.15802214,9.514847999999999,2.545114,-0.021809721,0.02069917,0.02412368,-19.859999,-35.04,24.119999
1553850860997,-0.17957062,9.519637,2.569057,-0.029140104,0.035359933999999996,0.021069353,-20.16,-34.68,24.3
1553850861018,-0.18435916,9.4932995,2.5714512000000003,-0.038303085,0.06284886599999999,0.024734545,-19.98,-34.02,24.18
1553850861037,-0.17957062,9.488511,2.6217308,-0.035248756,0.07323358,0.022901948999999998,-19.439999,-34.26,24.06
1553850861058,-0.1699935,9.4932995,2.648068,-0.02852924,0.0659032,0.015571565,-19.56,-34.38,24.3
1553850861078,-0.17238778,9.438231,2.6121537999999997,-0.01936626,0.067124926,0.014349835,-20.22,-34.559998,23.64
1553850861097,-0.20830189999999998,9.464568,2.6241252,-0.013257608999999998,0.071400985,0.01251724,-20.039998999999998,-33.899998,23.58
1553850861118,-0.21069619,9.474146000000001,2.5882110000000003,-0.008370686,0.08361828,0.010073779,-19.5,-33.66,23.699999
1553850861137,-0.2466103,9.483723,2.5906053,-0.008370686,0.08606175,0.0051868567,-19.74,-34.559998,22.98
1553850861158,-0.28491869999999997,9.498088000000001,2.631308,-0.0034837644,0.076898776,0.0064085876000000005,-19.8,-34.38,22.92
1553850861177,-0.27055305,9.524425500000001,2.5762396,0.0014031575,0.06895752,0.008852048000000001,-19.5,-33.54,22.439999
1553850861197,-0.27055305,9.538791,2.5882110000000003,0.0050683487,0.06284886599999999,0.0064085876000000005,-19.8,-33.719997,22.68
1553850861217,-0.25858167,9.495694,2.6265194,0.010566137,0.06040541,0.0021325308,-20.279999,-34.079997999999996,23.46
1553850861237,-0.2681588,9.502875999999999,2.6265194,0.017896518,0.05612935,-0.004586987,-20.279999,-33.84,23.46
1553850861257,-0.25139886,9.514847999999999,2.6337023,0.016063923,0.053075027000000004,-0.0009217956699999999,-20.82,-34.32,23.4
1553850861278,-0.25618739999999995,9.505271,2.5882110000000003,0.014231328,0.051242433,-0.003976122,-20.939999,-34.5,23.22
1553850861298,-0.29210153,9.490905999999999,2.5522968999999995,0.008122675,0.06468146,-0.0015326607999999998,-19.74,-34.2,22.68
1553850861317,-0.28252444,9.488511,2.5546912999999996,0.0050683487,0.076898776,0.0021325308,-19.56,-34.8,22.439999
1553850861337,-0.32083282,9.440625,2.5810282000000004,0.004457484,0.07934223,-0.0009217956699999999,-20.279999,-35.1,23.16
1553850861357,-0.3328042,9.457385,2.5738453999999997,0.0050683487,0.07812050000000001,0.0039651264,-20.34,-34.559998,22.98
1553850861377,-0.31365,9.4932995,2.5882110000000003,0.004457484,0.07201185,0.008852048000000001,-20.22,-34.14,22.619999
1553850861397,-0.32562137,9.517242,2.5714512000000003,0.0062900796,0.06529233599999999,0.010684643999999998,-19.859999,-34.32,23.4
1553850861420,-0.33040990000000003,9.541185,2.5379312,0.0050683487,0.059794545,0.010684643999999998,-20.22,-34.559998,23.519999
1553850861437,-0.339987,9.512454,2.5379312,0.0038466183,0.054907624,0.0076303175,-20.52,-34.2,22.859999
1553850861458,-0.33759275,9.512454,2.5546912999999996,0.005679214,0.057351083,0.0076303175,-20.58,-33.899998,22.98
1553850861477,-0.3615355,9.553157,2.5307484000000002,0.005679214,0.054296758,0.0076303175,-20.76,-34.739998,22.92
1553850861497,-0.34477556,9.557945,2.5211713,-0.0010403035,0.05796195,0.0045759915,-20.22,-34.44,22.8
1553850861517,-0.34716985,9.5483675,2.52596,0.0020140228,0.04879897,0.0033542612,-20.64,-33.899998,22.98
1553850861538,-0.35914123,9.517242,2.5235654999999997,0.0020140228,0.03719253,0.0039651264,-21.72,-33.48,22.38
1553850861557,-0.3615355,9.512454,2.4996228,0.0020140228,0.032305606,-0.002143526,-21.9,-33.78,21.96
1553850861577,-0.36392978,9.510059,2.5163830000000003,0.0050683487,0.028640417,-0.0033652566,-20.64,-34.079997999999996,22.26
1553850861597,-0.37111259,9.505271,2.5020173,0.0038466183,0.015812248,-0.003976122,-20.279999,-34.14,22.74
1553850861617,-0.38547826,9.505271,2.49244,-0.002262034,0.00909273,-0.0027543914000000003,-20.82,-34.38,23.46
1553850861637,-0.3423813,9.522031,2.47568,-0.008370686,0.006038403,-0.0009217956699999999,-21.6,-33.96,23.279999
1553850861657,-0.3328042,9.505271,2.4852571,-0.005927225600000001,-0.00068111473,0.0015216654,-21.539998999999998,-34.02,22.98
1553850861677,-0.32562137,9.490905999999999,2.5283542000000003,0.00018142698,0.004205807,0.0039651264,-21.0,-34.2,23.279999
1553850861697,-0.29928434,9.514847999999999,2.5235654999999997,-0.00042943824999999995,0.0029840767,0.0033542612,-21.18,-34.44,23.46
1553850861718,-0.29449580000000003,9.529214,2.5522968999999995,0.00079229224,0.004205807,0.0027433957000000003,-21.06,-34.68,22.859999
1553850861737,-0.29210153,9.536397000000001,2.5068057,-0.00042943824999999995,0.008481864,0.0045759915,-20.76,-34.62,22.38
1553850861757,-0.29689008,9.517242,2.5163830000000003,-0.012035878,0.016423114,0.0070194528,-20.76,-34.38,22.68
1553850861777,-0.29210153,9.512454,2.5163830000000003,-0.013868473999999999,0.016423114,0.0094629135,-21.119999,-33.899998,22.859999
1553850861797,-0.29689008,9.483723,2.5187771,-0.009592416999999999,0.01031446,0.01251724,-21.18,-33.899998,22.92
1553850861818,-0.31125572,9.524425500000001,2.4852571,-0.006538090799999999,0.016423114,0.011906375,-21.24,-34.44,23.1
1553850861837,-0.3328042,9.545974000000001,2.4852571,-0.011425013000000001,0.021310033,0.015571565,-21.3,-35.1,23.22
1553850861858,-0.3423813,9.538791,2.4421604,-0.023642316,0.023753494,0.018625893,-20.82,-34.98,23.1
1553850861877,-0.33759275,9.545974000000001,2.466103,-0.027918374,0.015201381000000002,0.015571565,-20.52,-33.96,22.56
1553850861898,-0.31604427,9.4932995,2.4996228,-0.027918374,-0.006178901999999999,0.0045759915,-21.0,-33.48,22.38
1553850861917,-0.34477556,9.416683,2.5355369999999997,-0.016311936000000003,-0.01778534,-0.002143526,-20.76,-34.26,22.68
1553850861938,-0.33519846,9.390346000000001,2.5427197999999995,-0.0034837644,-0.021450532999999997,-0.0064195828,-20.58,-34.92,22.92
1553850861957,-0.30167863,9.447808,2.5475084999999997,0.00018142698,-0.019617938,-0.0015326607999999998,-21.0,-34.14,22.74
1553850861978,-0.21787901,9.584282,2.5714512000000003,0.0038466183,-0.021450532999999997,0.0064085876000000005,-21.48,-33.899998,22.199999
1553850861997,-0.17717634,9.613013,2.6217308,0.011787866000000001,-0.01778534,0.010684643999999998,-21.48,-34.5,23.22
1553850862017,-0.16281068,9.591465,2.5858168999999998,0.013009597,0.0029840767,0.013128106,-20.52,-34.559998,24.06
1553850862038,-0.1340794,9.565128,2.5475084999999997,0.0050683487,0.031694744,0.015571565,-19.92,-34.739998,23.939999
1553850862057,-0.12689656,9.538791,2.5858168999999998,-0.0028728994,0.053075027000000004,0.018625893,-20.16,-34.38,23.519999
1553850862077,-0.15083931,9.524425500000001,2.6504622,0.010566137,0.054907624,0.0094629135,-20.82,-34.079997999999996,23.34
1553850862097,-0.20830189999999998,9.45978,2.545114,0.014231328,0.067124926,0.0070194528,-21.06,-34.739998,23.76
1553850862117,-0.2466103,9.399923,2.4996228,0.016063923,0.08484002,0.0045759915,-20.939999,-34.38,23.88
1553850862138,-0.2657645,9.347249,2.6073654,0.023394305,0.10683117,0.016793298,-21.3,-34.079997999999996,24.119999
1553850862158,-0.24900457,9.364009,2.5594797000000002,0.036222477,0.11538328,0.027788872000000003,-21.0,-34.86,23.939999
1553850862177,-0.25139886,9.366403,2.5283542000000003,0.041109398,0.12821145,0.033897523,-21.119999,-34.8,23.88
1553850862198,-0.22266756,9.407105,2.4900458,0.03438988,0.13737443,0.045503963,-21.6,-34.2,23.46
1553850862217,-0.24421602,9.474146000000001,2.4445546,0.019729115,0.14409395,0.055277806,-21.119999,-34.62,22.439999
1553850862237,-0.2681588,9.536397000000001,2.4493432,0.015453058,0.14775914,0.054666944,-20.699999,-34.8,22.5
1553850862257,-0.28731298,9.569917,2.466103,0.009344406,0.15631124,0.05772127,-20.76,-34.44,22.74
1553850862278,-0.33040990000000003,9.565128,2.5044115000000002,0.00751181,0.16364163,0.05772127,-21.66,-34.02,22.439999
1553850862297,-0.339987,9.574705,2.5163830000000003,0.0014031575,0.17158289,0.06016473,-22.38,-33.48,22.619999
1553850862317,-0.3232271,9.584282,2.52596,-0.00531636,0.17769155,0.058332134,-22.02,-33.84,22.92
1553850862339,-0.32562137,9.543579,2.4948344,-0.0047054947,0.18624365,0.05344521,-22.32,-34.26,22.619999
1553850862359,-0.32801566,9.507666,2.4349775,0.005679214,0.19968268,0.044893097,-22.98,-33.899998,22.56
1553850862377,-0.3232271,9.435837,2.3846977000000003,0.013009597,0.2082348,0.044282235,-22.32,-33.36,22.92
1553850862398,-0.31604427,9.471751,2.3966691000000004,0.02156171,0.21006739,0.041227907,-22.02,-33.6,22.439999
1553850862417,-0.35914123,9.505271,2.4182177000000005,0.03500075,0.20151527,0.041838772999999996,-22.439999,-33.66,22.32
1553850862438,-0.3519584,9.557945,2.4541316,0.041720264,0.18807624,0.04061704,-22.32,-33.42,22.439999
1553850862457,-0.37829542,9.577099,2.4182177000000005,0.045385458,0.17585894,0.043671365999999996,-22.199999,-33.78,22.26
1553850862477,-0.37350687,9.603436,2.3990633,0.03988767,0.16913942,0.038784448,-22.8,-33.54,21.3
1553850862497,-0.35914123,9.584282,2.3799092999999996,0.030113826,0.15814385,0.035730116,-22.56,-34.079997999999996,22.26
1553850862517,-0.33519846,9.581888000000001,2.3607549999999997,0.016674789,0.13859616,0.037562713,-22.619999,-33.899998,22.56
1553850862538,-0.35914123,9.5483675,2.3679377999999995,0.00751181,0.11538328,0.040006176000000004,-22.68,-33.18,22.02
1553850862557,-0.38547826,9.584282,2.3463893,-0.00042943824999999995,0.09827905,0.0430605,-22.68,-33.48,21.66
1553850862578,-0.36392978,9.584282,2.3727264,-0.0016511687,0.08056396,0.0430605,-22.74,-34.14,21.48
1553850862597,-0.32083282,9.498088000000001,2.4182177000000005,0.009344406,0.07567704,0.041838772999999996,-23.279999,-33.96,21.84
1553850862618,-0.31843856,9.483723,2.423006,0.013620462,0.07323358,0.0430605,-24.119999,-33.78,21.96
1553850862637,-0.27294734,9.500483000000001,2.4421604,0.012398731999999999,0.06834666,0.041227907,-23.939999,-33.6,21.9
1553850862658,-0.28970724,9.534002000000001,2.4134290000000003,0.014231328,0.059794545,0.038784448,-23.16,-34.02,21.539998999999998
1553850862678,-0.31604427,9.534002000000001,2.3751206000000002,0.008733541,0.06162714,0.040006176000000004,-23.039998999999998,-34.26,21.06
1553850862698,-0.29928434,9.553157,2.3535721,0.0026248879999999997,0.06651406,0.03695185,-23.88,-33.42,22.08
1553850862717,-0.31843856,9.58907,2.403852,-0.0016511687,0.06040541,0.03450839,-23.88,-33.36,22.619999
1553850862738,-0.30167863,9.598647999999999,2.4541316,-0.007148956,0.050631564000000004,0.036340985,-23.82,-33.78,21.96
1553850862757,-0.30407290000000003,9.615408,2.4421604,-0.00531636,0.035970800000000004,0.03267579,-24.6,-33.12,22.02
1553850862778,-0.30167863,9.603436,2.3823035,-0.008981552,0.032916475,0.030232332999999997,-23.82,-32.1,22.199999
1553850862797,-0.31125572,9.567522,2.3559662999999995,-0.014479338000000001,0.031083878,0.029621465,-24.0,-32.88,22.38
1553850862818,-0.32083282,9.529214,2.3655436,-0.018755395,0.022531765,0.027788872000000003,-24.779999,-33.719997,22.02
1553850862837,-0.32562137,9.522031,2.4158232,-0.018755395,0.015812248,0.030843196,-23.939999,-33.42,21.359999
1553850862858,-0.30167863,9.507666,2.4110348,-0.013868473999999999,0.007870999,0.029621465,-23.82,-33.719997,21.6
1553850862877,-0.27055305,9.526819,2.4086404,-0.010814147,0.00909273,0.032064926,-24.72,-33.18,22.08
1553850862897,-0.26337022,9.553157,2.3966691000000004,-0.009592416999999999,0.013368786,0.028399736000000002,-24.539998999999998,-33.0,21.779999
1553850862917,-0.27294734,9.550761999999999,2.423006,-0.007148956,0.01153619,0.02412368,-24.42,-33.3,21.66
1553850862937,-0.28491869999999997,9.557945,2.4277947,-0.009592416999999999,0.01031446,0.022901948999999998,-24.3,-33.12,21.66
1553850862958,-0.27055305,9.562733999999999,2.4421604,-0.005927225600000001,0.0029840767,0.023512814,-23.76,-32.88,21.24
1553850862977,-0.27294734,9.581888000000001,2.432583,-0.014479338000000001,-0.0049571716,0.022291085,-24.06,-32.94,21.6
1553850862998,-0.27294734,9.601042,2.4158232,-0.018755395,-0.009233228000000001,0.022901948999999998,-23.64,-33.0,21.72
1553850863018,-0.28970724,9.57231,2.4637089,-0.019977124,-0.012898419,0.021069353,-23.58,-33.059998,21.42
1553850863038,-0.30407290000000003,9.586677,2.4469488,-0.024253184,-0.022672263999999998,0.020458488,-24.0,-33.36,21.779999
1553850863057,-0.29689008,9.591465,2.439766,-0.027307509,-0.036722165,0.019236756,-24.06,-33.059998,21.3
1553850863077,-0.25139886,9.545974000000001,2.432583,-0.026696645,-0.040998224,0.020458488,-23.82,-32.94,20.88
1553850863097,-0.21309046,9.502875999999999,2.4972286,-0.032194432,-0.05138293,0.022901948999999998,-24.18,-32.34,22.08
1553850863118,-0.21309046,9.512454,2.5618742,-0.019977124,-0.075206675,0.017404161,-24.0,-32.46,21.779999
1553850863137,-0.24182175,9.58907,2.5882110000000003,0.0050683487,-0.11613464,-0.005197852,-23.64,-33.0,21.0
1553850863158,-0.29928434,9.529214,2.4684972999999997,0.009344406,-0.13323888,-0.027799865,-23.46,-33.239998,21.24
1553850863177,-0.21787901,9.486116,2.3942747000000004,0.004457484,-0.13140628,-0.051012743,-23.16,-33.719997,21.359999
1553850863198,-0.23942748,9.440625,2.4708917,-0.002262034,-0.12896281,-0.06017572400000001,-23.699999,-33.36,21.96
1553850863217,-0.18914771,9.438231,2.5594797000000002,-0.01936626,-0.09780869,-0.056510534,-23.76,-33.3,21.9
1553850863237,-0.15083931,9.524425500000001,2.5666625,-0.013868473999999999,-0.10025215,-0.058343127,-23.64,-33.78,21.24
1553850863258,-0.16520496,9.524425500000001,2.6504622,-0.015090204,-0.10452819999999999,-0.043682362999999995,-23.58,-33.96,21.3
1553850863278,-0.14365649,9.4932995,2.6456738,-0.008370686,-0.103917345,-0.028410732999999997,-23.279999,-33.96,21.779999
1553850863298,-0.105348095,9.452597,2.640885,0.0014031575,-0.09292177,-0.00947391,-22.98,-33.6,22.08
1553850863317,-0.076616794,9.397528999999999,2.5762396,0.005679214,-0.05993504400000001,0.010684643999999998,-23.039998999999998,-33.84,22.26
1553850863337,-0.031125572,9.366403,2.5906053,0.011177001,-0.022672263999999998,0.028399736000000002,-23.76,-33.42,22.14
1553850863357,-0.047885496,9.411894,2.5834224,0.016063923,0.004205807,0.038784448,-23.64,-33.3,22.08
1553850863377,-0.09577099,9.507666,2.578634,0.014231328,0.03352734,0.04733656,-23.1,-33.42,21.84
1553850863397,-0.06464542,9.536397000000001,2.5331428,0.010566137,0.05796195,0.04733656,-23.82,-33.66,21.359999
1553850863418,-0.06943397,9.526819,2.4948344,0.0026248879999999997,0.07934223,0.040006176000000004,-24.24,-34.14,21.0
1553850863438,-0.08619389,9.524425500000001,2.49244,-0.0010403035,0.08667261,0.04061704,-23.699999,-33.66,21.9
1553850863457,-0.12450229,9.567522,2.4684972999999997,0.0020140228,0.096446455,0.040006176000000004,-23.4,-33.54,23.34
1553850863478,-0.14365649,9.605830000000001,2.430189,0.009955271,0.10377684,0.040006176000000004,-23.519999,-32.88,22.56
1553850863497,-0.18675344,9.646533,2.439766,0.02400517,0.10011165,0.03695185,-23.64,-32.82,21.779999
1553850863517,-0.18914771,9.665688000000001,2.4206119,0.037444208,0.08972695,0.03817358,-23.58,-33.059998,22.14
1553850863538,-0.17478207,9.641745,2.4158232,0.040498532000000004,0.07201185,0.027178004,-23.34,-32.7,22.14
1553850863558,-0.20111908,9.529214,2.3679377999999995,0.04721805,0.053075027000000004,0.010684643999999998,-23.4,-33.3,21.66
1553850863577,-0.22266756,9.524425500000001,2.3224466,0.052104972,0.04391205,-0.0058087176,-23.279999,-33.899998,20.939999
1553850863598,-0.21787901,9.486116,2.3583608,0.052715838,0.040857725,-0.018636888,-23.88,-33.719997,20.939999
1553850863617,-0.20351335,9.505271,2.308081,0.056991894,0.026196957000000003,-0.030243327999999996,-24.66,-33.6,21.3
1553850863638,-0.18196489,9.522031,2.264984,0.052104972,0.028640417,-0.031465057000000005,-24.48,-33.48,21.18
1553850863657,-0.18435916,9.510059,2.3200524,0.03438988,0.045744643,-0.026578136000000002,-23.939999,-33.059998,21.9
1553850863678,-0.19633053,9.541185,2.317658,0.02400517,0.031083878,-0.018026022,-23.82,-32.7,22.38
1553850863698,-0.16759923,9.567522,2.3679377999999995,0.012398731999999999,0.017644841,-0.01069564,-24.119999,-32.16,22.56
1553850863717,-0.16281068,9.529214,2.3823035,0.0062900796,-0.009233228000000001,-0.00031093040000000003,-24.18,-32.64,22.199999
1553850863739,-0.20351335,9.500483000000001,2.351178,0.0026248879999999997,-0.014731015,0.016793298,-23.4,-33.6,21.18
1553850863758,-0.17478207,9.510059,2.3487834999999997,0.0014031575,-0.0031245756,0.03267579,-23.34,-33.3,22.02
1553850863777,-0.15323359,9.57231,2.3583608,-0.007148956,0.012147056000000002,0.044893097,-23.34,-32.88,22.56
1553850863797,-0.11492519,9.560339,2.4421604,-0.00531636,0.014590516000000001,0.052834347000000004,-22.92,-32.82,22.14
1553850863817,-0.09577099,9.545974000000001,2.3846977000000003,0.0020140228,0.007260133,0.05100175,-23.279999,-32.579997999999996,22.38
1553850863837,-0.11492519,9.519637,2.351178,0.0038466183,0.017033977,0.047947425,-23.939999,-33.84,21.72
1553850863857,-0.1340794,9.560339,2.3463893,0.009955271,0.025586091000000002,0.0430605,-23.46,-34.5,21.3
1553850863878,-0.15083931,9.605830000000001,2.3631492,0.013009597,0.030473012,0.03450839,-24.119999,-34.079997999999996,21.66
1553850863897,-0.17478207,9.610619999999999,2.3966691000000004,0.022783441,0.022531765,0.029621465,-24.24,-33.18,21.9
1553850863918,-0.18435916,9.636956,2.3751206000000002,0.014842193,0.018255709,0.02534541,-23.939999,-33.12,21.779999
1553850863938,-0.19393626,9.620196,2.351178,0.014231328,0.01153619,0.019236756,-23.039998999999998,-33.12,21.6
1553850863957,-0.19633053,9.596252999999999,2.3535721,0.016674789,-7.024949999999999e-05,0.013128106,-24.06,-32.88,22.26
1553850863977,-0.22506183,9.550761999999999,2.3416007000000003,0.03194642,-0.009233228000000001,0.008852048000000001,-24.66,-32.46,22.32
1553850863998,-0.19872479999999998,9.610619999999999,2.2338583,0.027059497000000002,-0.0019028451999999999,0.008241183000000001,-24.119999,-32.399998,21.84
1553850864017,-0.16281068,9.617802000000001,2.2194927000000004,0.019729115,-0.0025137104,0.0015216654,-24.66,-32.46,22.199999
1553850864038,-0.16281068,9.632168,2.2362528,0.023394305,0.00909273,0.00029993482000000005,-24.48,-32.579997999999996,21.84
1553850864057,-0.15562786,9.634561999999999,2.2961093999999997,0.020950846000000002,0.02314263,-0.003976122,-24.3,-32.76,21.9
1553850864077,-0.14365649,9.560339,2.4134290000000003,0.023394305,-0.0055680363,-0.012528235,-24.6,-33.059998,22.98
1553850864097,-0.13168511,9.555551,2.3607549999999997,0.023394305,-0.041609086,-0.011917368999999999,-24.72,-33.059998,22.619999
1553850864118,-0.16041641,9.488511,2.2266755000000003,0.011787866000000001,-0.055658985,-0.0064195828,-24.359999,-31.8,22.08
1553850864137,-0.19633053,9.512454,2.2147042999999997,-0.0040946295,-0.050161199999999996,-0.00031093040000000003,-24.539998999999998,-31.8,22.38
1553850864157,-0.19633053,9.560339,2.2218869999999997,-0.010203282,-0.04955033599999999,0.0027433957000000003,-24.6,-32.46,22.619999
1553850864178,-0.14844504,9.545974000000001,2.2769554,-0.026696645,-0.040998224,0.014349835,-24.3,-31.859999,22.619999
1553850864197,-0.13647367,9.550761999999999,2.3392065,-0.030972700000000002,-0.059324175,0.022901948999999998,-24.42,-31.8,22.56
1553850864217,-0.09577099,9.5483675,2.317658,-0.043190005999999996,-0.072152354,0.03328666,-24.3,-32.04,22.26
1553850864237,-0.09577099,9.526819,2.343995,-0.049909525,-0.06909802599999999,0.03267579,-23.699999,-32.34,21.72
1553850864257,-0.11492519,9.57231,2.3487834999999997,-0.040135678,-0.0642111,0.03328666,-24.0,-32.52,21.96
1553850864277,-0.08619389,9.581888000000001,2.3559662999999995,-0.030361835,-0.04344168,0.022291085,-24.66,-32.399998,22.68
1553850864297,-0.023942748,9.565128,2.4086404,-0.025474913,-0.03366784,0.019847622,-24.24,-32.64,22.439999
1553850864317,-0.0047885496,9.584282,2.4277947,-0.020587992,-0.035500433,0.019236756,-24.359999,-32.7,21.96
1553850864337,-0.019154198,9.629773,2.3918805,-0.009592416999999999,-0.04221995,0.019236756,-23.939999,-32.82,21.3
1553850864357,-0.03351985,9.605830000000001,2.3966691000000004,-0.002262034,-0.04221995,0.0112955095,-23.16,-32.82,22.619999
1553850864378,-0.06464542,9.586677,2.3751206000000002,0.00079229224,-0.045885142000000004,0.0051868567,-23.519999,-32.88,22.26
1553850864397,-0.09577099,9.555551,2.3727264,0.00018142698,-0.05260466,-0.0027543914000000003,-23.039998999999998,-32.7,21.9
1553850864417,-0.090982445,9.541185,2.3392065,-0.008981552,-0.05688072,-0.0027543914000000003,-23.58,-33.0,22.439999
1553850864438,-0.083799616,9.524425500000001,2.3751206000000002,-0.018755395,-0.069708884,-0.00031093040000000003,-24.119999,-33.18,23.16
1553850864457,-0.09577099,9.502875999999999,2.3583608,-0.024253184,-0.07337408,0.0009108001,-24.0,-32.94,22.619999
1553850864477,-0.071828246,9.529214,2.370332,-0.03341616,-0.07765014,0.0070194528,-23.939999,-32.76,22.26
1553850864497,0.009577099,9.529214,2.3846977000000003,-0.036470487999999995,-0.088034846,0.0094629135,-23.22,-32.82,22.5
1553850864517,0.014365649,9.490905999999999,2.4206119,-0.030361835,-0.08742398,0.015571565,-23.22,-32.28,22.68
1553850864537,-0.0047885496,9.512454,2.423006,-0.030361835,-0.07765014,0.021069353,-24.06,-32.219997,23.279999
1553850864557,0.05027977,9.526819,2.4421604,-0.027918374,-0.08070446,0.021069353,-24.66,-33.12,22.38
1553850864578,0.045491222000000005,9.524425500000001,2.47568,-0.024864048,-0.07337408,0.03450839,-24.0,-33.6,21.06
1553850864597,0.021548472000000003,9.526819,2.4613144,-0.017533666,-0.06848716,0.03267579,-22.5,-33.42,21.96
1553850864617,-0.0023942748,9.557945,2.4349775,-0.015090204,-0.053826387999999996,0.03328666,-22.56,-33.18,23.1
1553850864638,0.009577099,9.586677,2.4780743,-0.010203282,-0.04221995,0.029010601,-23.88,-33.0,22.38
1553850864657,0.03351985,9.593859,2.4517374,0.0026248879999999997,-0.032446105,0.027788872000000003,-24.42,-33.12,22.68
1553850864678,-0.014365649,9.598647999999999,2.3248408,0.00018142698,0.0029840767,0.027178004,-24.0,-32.76,23.16
1553850864697,-0.03351985,9.646533,2.2386470000000003,-0.019977124,0.07995310000000001,0.022291085,-23.039998999999998,-32.399998,22.439999
1553850864717,0.057462595,9.620196,2.4445546,-0.023031452999999997,0.08789435,0.014960701000000002,-23.76,-32.76,22.619999
1553850864739,0.090982445,9.538791,2.5522968999999995,-0.012035878,0.06529233599999999,0.0009108001,-24.359999,-32.94,22.56
1553850864757,0.08858817,9.438231,2.5235654999999997,0.00079229224,0.034138203,-0.0027543914000000003,-23.699999,-32.219997,22.32
1553850864777,-0.014365649,9.464568,2.3368123,0.0032357534,0.048188105,0.0015216654,-23.82,-32.1,21.84
1553850864797,-0.0670397,9.644139,2.1835787,-0.021809721,0.13004406,0.0076303175,-24.0,-32.34,21.24
1553850864817,0.05985687,9.601042,2.5211713,-0.027307509,0.1557004,0.0033542612,-23.519999,-32.64,21.42
1553850864838,0.18196489,9.495694,2.6241252,-0.030972700000000002,0.12637885,0.00029993482000000005,-23.4,-33.0,22.14
1553850864857,0.29210153,9.483723,2.700742,-0.018144531000000002,0.053075027000000004,0.00029993482000000005,-23.699999,-32.88,22.08
1553850864878,0.19633053,9.435837,2.5115943,0.014842193,0.0023732113,0.008852048000000001,-24.119999,-32.28,22.02
1553850864897,0.105348095,9.502875999999999,2.2985039,0.03072469,0.028640417,0.011906375,-24.24,-32.46,22.439999
1553850864918,0.11492519,9.562733999999999,2.310475,0.03438988,0.07934223,0.0045759915,-24.96,-33.059998,22.38
1553850864937,0.17238778,9.550761999999999,2.4373717,0.041109398,0.090337805,0.008852048000000001,-24.42,-33.42,22.08
1553850864957,0.18675344,9.526819,2.4972286,0.046607185,0.07201185,0.019236756,-23.939999,-33.239998,22.32
1553850864978,0.15802214,9.529214,2.4206119,0.04477459,0.06468146,0.021680217,-24.06,-32.579997999999996,22.68
1553850864997,0.11492519,9.507666,2.3272352,0.0392768,0.08667261,0.023512814,-24.119999,-32.34,22.14
1553850865018,0.105348095,9.488511,2.3128695,0.03988767,0.101944245,0.017404161,-24.779999,-32.34,21.96
1553850865037,0.11013664,9.462174000000001,2.3775147999999997,0.04599632,0.10316598,0.021069353,-24.84,-32.16,22.32
1553850865058,0.07901107,9.502875999999999,2.3559662999999995,0.042331126,0.098889925,0.022901948999999998,-24.72,-32.219997,22.5
1553850865077,0.11253092,9.536397000000001,2.3320236,0.038665935,0.09155954,0.023512814,-24.359999,-32.46,22.56
1553850865098,0.0670397,9.517242,2.2865324,0.028892094,0.10560944,0.027788872000000003,-24.42,-32.76,22.26
1553850865117,0.08619389,9.545974000000001,2.308081,0.016674789,0.1221028,0.03267579,-24.3,-32.28,22.68
1553850865137,0.11253092,9.591465,2.317658,0.008122675,0.12637885,0.03817358,-24.779999,-31.92,23.279999
1553850865157,0.12450229,9.596252999999999,2.3463893,0.00079229224,0.11965934,0.04061704,-25.26,-32.46,22.92
1553850865177,0.09337672,9.529214,2.3224466,0.0014031575,0.10499857,0.041838772999999996,-24.6,-32.52,22.619999
1553850865198,0.028731298,9.560339,2.2601955,0.005679214,0.120881066,0.043671365999999996,-24.96,-32.76,23.519999
1553850865218,0.045491222000000005,9.577099,2.2578009999999997,0.0026248879999999997,0.14042875,0.04061704,-25.5,-32.7,24.0
1553850865238,0.071828246,9.5794935,2.3248408,-0.00531636,0.14837001,0.043671365999999996,-25.32,-32.04,22.98
1553850865257,0.10055954,9.529214,2.3799092999999996,-0.0010403035,0.12637885,0.0430605,-25.38,-32.219997,22.74
1553850865277,0.06464542,9.543579,2.3487834999999997,0.0038466183,0.10255511,0.041838772999999996,-25.619999,-32.219997,22.98
1553850865297,0.019154198,9.555551,2.2554069,0.0026248879999999997,0.10133338,0.041227907,-25.08,-32.219997,21.96
1553850865318,0.009577099,9.557945,2.2554069,0.0050683487,0.09950078,0.03695185,-25.14,-31.98,21.359999
1553850865338,0.03351985,9.581888000000001,2.291321,0.0020140228,0.09339213,0.043671365999999996,-25.56,-31.8,21.539998999999998
1553850865357,0.04070267,9.560339,2.3583608,0.00018142698,0.06773579,0.03817358,-25.619999,-32.88,21.96
1553850865378,0.03351985,9.581888000000001,2.3751206000000002,0.0014031575,0.045744643,0.033897523,-25.32,-32.399998,21.72
1553850865397,0.026337024,9.613013,2.3320236,0.00079229224,0.028029552000000003,0.020458488,-24.72,-31.32,21.48
1553850865418,0.014365649,9.608225,2.3032923,0.0032357534,0.01031446,0.0112955095,-25.68,-31.679997999999998,21.3
1553850865437,0.011971374,9.603436,2.2985039,0.0032357534,-0.003735441,0.0064085876000000005,-26.519999,-31.56,20.82
1553850865457,0.0047885496,9.581888000000001,2.291321,-0.0010403035,-0.01167669,0.0045759915,-26.22,-31.92,21.119999
1553850865478,-0.019154198,9.596252999999999,2.3463893,0.0014031575,-0.017174477,-0.00031093040000000003,-26.4,-32.76,21.3
1553850865497,-0.021548472000000003,9.5794935,2.370332,0.0062900796,-0.020228801,-0.0027543914000000003,-26.279999,-32.7,21.0
1553850865517,-0.0023942748,9.567522,2.4134290000000003,0.014842193,-0.036111300000000006,-0.002143526,-25.74,-32.399998,21.0
1553850865537,-0.023942748,9.5794935,2.343995,0.010566137,-0.032446105,-0.0076413136,-25.38,-32.52,21.42
1553850865557,0.007182824399999999,9.58907,2.3224466,0.004457484,-0.010454959,-0.01069564,-25.5,-32.34,21.3
1553850865578,0.05506832,9.58907,2.3392065,-0.006538090799999999,-0.0025137104,-0.011917368999999999,-25.619999,-32.1,20.939999
1553850865597,0.028731298,9.617802000000001,2.291321,-0.018755395,0.01031446,-0.0058087176,-25.859999,-32.82,20.76
1553850865618,0.071828246,9.627379,2.2601955,-0.038913947000000004,0.028029552000000003,-0.0027543914000000003,-25.98,-32.94,21.359999
1553850865637,0.102953814,9.545974000000001,2.3942747000000004,-0.051742118,0.02314263,0.0009108001,-25.56,-32.52,21.42
1553850865658,0.102953814,9.435837,2.4517374,-0.04135741,-0.0067897669999999995,0.0033542612,-25.32,-32.1,20.82
1553850865677,0.019154198,9.443019999999999,2.3799092999999996,-0.024253184,-0.02939178,0.005797722,-25.32,-31.859999,20.939999
1553850865697,0.014365649,9.495694,2.3727264,-0.013257608999999998,-0.019617938,0.0021325308,-25.38,-32.34,21.66
1553850865718,0.08858817,9.562733999999999,2.351178,-0.013257608999999998,-0.017174477,-0.0015326607999999998,-24.9,-32.94,21.539998999999998
1553850865737,0.14126222,9.586677,2.3918805,-0.016311936000000003,-0.022672263999999998,0.00029993482000000005,-25.14,-32.82,20.699999
1553850865758,0.13168511,9.615408,2.3799092999999996,-0.016922799999999998,-0.04221995,-0.002143526,-25.019999,-31.98,20.76
1553850865777,0.11971374,9.569917,2.3751206000000002,-0.011425013000000001,-0.057491582,-0.010084774,-25.199999,-31.8,21.3
1553850865797,0.06943397,9.565128,2.3655436,-0.008981552,-0.06848716,-0.016804293,-25.859999,-31.619999,21.06
1553850865818,0.05506832,9.557945,2.3775147999999997,-0.00531636,-0.078261,-0.020469485,-25.14,-31.92,21.18
1553850865837,0.05027977,9.519637,2.4158232,-0.005927225600000001,-0.08925658,-0.032075923,-24.96,-32.46,21.42
1553850865858,0.038308397,9.519637,2.3966691000000004,-0.008981552,-0.10330647,-0.032075923,-25.5,-32.04,21.0
1553850865877,0.057462595,9.5483675,2.4206119,-0.012646743,-0.11552378,-0.03635198,-26.279999,-31.5,21.359999
1553850865897,0.08140534,9.529214,2.4134290000000003,-0.010814147,-0.13140628,-0.03451938,-25.619999,-31.859999,21.06
1553850865917,0.06464542,9.507666,2.4062462000000004,-0.008981552,-0.14301272,-0.03635198,-24.9,-32.76,20.52
1553850865937,0.062251142999999995,9.543579,2.3894862999999997,0.0026248879999999997,-0.13507147,-0.036962844,-25.14,-32.52,21.18
1553850865957,0.05506832,9.5483675,2.403852,-0.0034837644,-0.11613464,-0.04001717,-25.199999,-32.28,21.6
1553850865977,0.102953814,9.57231,2.4062462000000004,-0.014479338000000001,-0.088034846,-0.035130247,-24.9,-32.64,21.539998999999998
1553850865997,0.12210801,9.610619999999999,2.3799092999999996,-0.03341616,-0.063600235,-0.029632462000000002,-24.359999,-32.52,21.6
1553850866017,0.13647367,9.534002000000001,2.4637089,-0.039524816000000004,-0.055658985,-0.027189001,-24.9,-32.1,21.48
1553850866038,0.102953814,9.466963,2.482863,-0.034637894,-0.0642111,-0.02230208,-25.32,-31.92,20.88
1553850866057,0.043096945,9.500483000000001,2.4541316,-0.022420587000000002,-0.072152354,-0.025356404,-25.14,-31.98,21.0
1553850866077,0.071828246,9.531608,2.4182177000000005,-0.021809721,-0.07154148,-0.018026022,-24.84,-32.1,21.539998999999998
1553850866098,0.06464542,9.505271,2.4589202,-0.016311936000000003,-0.0800936,-0.019858617,-25.019999,-32.04,21.72
1553850866117,0.08140534,9.500483000000001,2.4708917,-0.011425013000000001,-0.08620225,-0.019858617,-24.84,-32.28,21.119999
1553850866138,0.05027977,9.524425500000001,2.482863,-0.008370686,-0.0800936,-0.018636888,-24.3,-32.7,21.18
1553850866157,0.047885496,9.538791,2.4613144,-0.002262034,-0.08070446,-0.016193425,-24.6,-32.579997999999996,21.84
1553850866177,0.035914123,9.565128,2.439766,-0.00531636,-0.063600235,-0.017415157,-24.42,-32.34,21.66
1553850866198,0.05027977,9.560339,2.423006,-0.012035878,-0.04771774,-0.019858617,-23.699999,-32.399998,21.6
1553850866217,0.0670397,9.529214,2.49244,-0.017533666,-0.04893947,-0.020469485,-23.88,-32.64,21.779999
1553850866237,0.05506832,9.550761999999999,2.4684972999999997,-0.021809721,-0.051993795,-0.020469485,-24.24,-32.7,21.779999
1553850866257,0.026337024,9.555551,2.4541316,-0.023031452999999997,-0.03855476,-0.02230208,-23.88,-33.0,20.88
1553850866277,0.076616794,9.538791,2.4565259999999998,-0.024864048,-0.034278702,-0.022912946,-24.06,-33.12,21.18
1553850866297,0.05985687,9.495694,2.4948344,-0.026696645,-0.040998224,-0.02474554,-24.42,-32.94,21.779999
1553850866317,0.06464542,9.505271,2.4948344,-0.021809721,-0.047106873,-0.02230208,-24.9,-32.76,21.9
1553850866337,0.019154198,9.519637,2.466103,-0.017533666,-0.055658985,-0.021691214,-25.14,-32.76,21.66
1553850866358,0.031125572,9.505271,2.4517374,-0.018755395,-0.053826387999999996,-0.02596727,-24.66,-33.0,21.72
1553850866377,0.0670397,9.522031,2.5020173,-0.016922799999999998,-0.061156772000000005,-0.025356404,-24.66,-33.42,22.92
1553850866398,0.05027977,9.519637,2.5020173,-0.011425013000000001,-0.055658985,-0.028410732999999997,-24.42,-33.48,22.92
1553850866417,0.057462595,9.512454,2.4804687999999997,-0.011425013000000001,-0.053826387999999996,-0.029632462000000002,-24.119999,-33.18,22.14
1553850866437,0.03351985,9.505271,2.4852571,-0.00531636,-0.058102448,-0.02596727,-24.3,-32.7,22.08
1553850866458,0.05506832,9.481328,2.5211713,-0.0034837644,-0.058713312999999996,-0.02352381,-24.42,-32.64,21.96
1553850866477,0.021548472000000003,9.500483000000001,2.4780743,-0.00531636,-0.05993504400000001,-0.02230208,-24.06,-32.52,21.96
1553850866497,0.014365649,9.486116,2.4876516,-0.007148956,-0.059324175,-0.022912946,-23.4,-32.16,21.96
1553850866517,0.031125572,9.486116,2.47568,-0.007148956,-0.06054591,-0.016804293,-23.519999,-32.94,21.96
1553850866538,0.0047885496,9.488511,2.4780743,-0.010814147,-0.06543283,-0.018026022,-23.46,-33.719997,22.38
1553850866557,0.014365649,9.510059,2.4996228,-0.009592416999999999,-0.07459581,-0.018026022,-23.519999,-32.94,22.439999
1553850866577,0.011971374,9.488511,2.5379312,-0.0047054947,-0.08375879,-0.017415157,-23.82,-32.82,22.02
1553850866597,0.016759925,9.529214,2.5475084999999997,0.0069009447,-0.09964128,-0.022912946,-23.939999,-33.3,21.96
1553850866618,-0.019154198,9.529214,2.5211713,0.013009597,-0.10269561,-0.026578136000000002,-24.3,-33.12,22.38
1553850866637,-0.043096945,9.538791,2.5068057,0.011787866000000001,-0.09964128,-0.027799865,-23.939999,-32.94,22.38
1553850866657,-0.038308397,9.543579,2.47568,0.009344406,-0.0904783,-0.029632462000000002,-23.76,-32.579997999999996,22.02
1553850866678,-0.05027977,9.553157,2.4684972999999997,0.005679214,-0.07887186,-0.031465057000000005,-23.1,-32.46,22.14
1553850866697,-0.08858817,9.596252999999999,2.4565259999999998,-0.008981552,-0.053826387999999996,-0.027799865,-22.439999,-32.88,22.26
1553850866718,-0.023942748,9.500483000000001,2.5044115000000002,-0.021809721,-0.032446105,-0.02230208,-23.039998999999998,-32.219997,21.72
1553850866739,-0.043096945,9.507666,2.4852571,-0.027918374,-0.02939178,-0.017415157,-23.46,-32.219997,21.779999
1553850866757,-0.0047885496,9.545974000000001,2.4852571,-0.035859622,-0.017174477,-0.013749965500000001,-23.039998999999998,-33.3,21.779999
1553850866778,0.0,9.435837,2.5522968999999995,-0.032805298,-0.022061398,-0.017415157,-22.8,-33.12,22.08
1553850866797,0.035914123,9.45978,2.5953939999999998,-0.023642316,-0.045274275999999995,-0.017415157,-22.56,-33.0,21.779999
1553850866817,0.045491222000000005,9.502875999999999,2.5115943,-0.0077598216,-0.050161199999999996,-0.014971696000000001,-22.619999,-34.14,21.96
1553850866837,0.03351985,9.534002000000001,2.5092,0.0050683487,-0.04649601,-0.020469485,-22.32,-34.32,22.08
1553850866858,0.038308397,9.495694,2.5714512000000003,0.01911825,-0.045274275999999995,-0.029632462000000002,-22.859999,-33.42,21.9
1553850866877,0.052674048,9.483723,2.597788,0.022783441,-0.053826387999999996,-0.027799865,-23.4,-33.18,22.439999
1553850866898,0.019154198,9.490905999999999,2.5642683999999996,0.031335555,-0.06909802599999999,-0.02596727,-22.98,-33.48,22.02
1553850866917,-0.028731298,9.507666,2.5379312,0.027670362999999996,-0.06298937,-0.024134673,-22.619999,-33.36,21.96
1553850866938,-0.047885496,9.490905999999999,2.5546912999999996,0.022172576,-0.050161199999999996,-0.02230208,-23.16,-33.239998,22.68
1553850866957,-0.021548472000000003,9.507666,2.5427197999999995,0.018507386,-0.053215526,-0.026578136000000002,-23.82,-34.02,22.32
1553850866977,-0.007182824399999999,9.524425500000001,2.5307484000000002,0.015453058,-0.058102448,-0.02230208,-23.519999,-33.78,22.02
1553850866998,-0.007182824399999999,9.512454,2.5139885,0.014231328,-0.055048123,-0.02230208,-22.56,-33.12,22.439999
1553850867017,-0.0023942748,9.534002000000001,2.4900458,0.0032357534,-0.04344168,-0.021691214,-22.199999,-33.18,22.5
1553850867038,0.009577099,9.507666,2.5403256,0.008122675,-0.04221995,-0.021080348999999998,-22.619999,-33.96,22.08
1553850867057,-0.04070267,9.522031,2.4900458,0.01911825,-0.04649601,-0.021080348999999998,-22.8,-33.0,22.02
1553850867077,-0.07422252,9.57231,2.482863,0.023394305,-0.027559185,-0.021080348999999998,-22.56,-32.52,22.56
1553850867097,-0.043096945,9.526819,2.4517374,0.017896518,-0.009844094,-0.021080348999999998,-22.14,-33.6,22.199999
1553850867117,-0.035914123,9.534002000000001,2.473286,0.011177001,0.0029840767,-0.018636888,-22.74,-33.42,21.96
1553850867137,-0.045491222000000005,9.543579,2.4708917,0.0069009447,0.015201381000000002,-0.016193425,-23.22,-33.059998,22.74
1553850867158,-0.08619389,9.531608,2.432583,0.0020140228,0.021920899,-0.018636888,-22.619999,-32.94,22.92
1553850867177,-0.014365649,9.510059,2.4613144,-0.00531636,0.022531765,-0.019858617,-22.08,-32.88,22.8
1553850867197,0.0023942748,9.469357,2.473286,-0.005927225600000001,0.012147056000000002,-0.016804293,-22.32,-33.48,22.5
1553850867217,-0.011971374,9.464568,2.4996228,-0.006538090799999999,-0.008622363000000001,-0.004586987,-22.8,-33.78,22.68
1553850867237,-0.045491222000000005,9.45978,2.4589202,0.0038466183,-0.012898419,-0.0064195828,-22.859999,-33.78,22.02
1553850867258,-0.071828246,9.522031,2.4517374,0.016063923,-0.0049571716,-0.0076413136,-23.4,-33.84,22.14
1553850867277,-0.035914123,9.574705,2.473286,0.017896518,0.005427538000000001,-0.01069564,-22.92,-33.12,22.439999
1553850867297,-0.011971374,9.553157,2.4996228,0.020950846000000002,0.0029840767,-0.00947391,-22.26,-33.059998,22.5
1553850867318,-0.021548472000000003,9.550761999999999,2.4900458,0.02400517,0.007260133,-0.013749965500000001,-22.439999,-33.48,23.22
1553850867337,-0.019154198,9.526819,2.4708917,0.025837766,0.005427538000000001,-0.016804293,-22.92,-34.079997999999996,23.1
1553850867357,-0.07901107,9.498088000000001,2.5139885,0.03438988,0.0017623462,-0.013139101,-22.68,-33.36,22.08
1553850867378,-0.12929083,9.519637,2.423006,0.03988767,0.015201381000000002,-0.016193425,-22.26,-32.52,21.18
1553850867397,-0.11253092,9.538791,2.4158232,0.03072469,0.022531765,-0.013749965500000001,-21.72,-32.7,21.42
1553850867418,-0.09337672,9.517242,2.4493432,0.023394305,0.018255709,-0.014360831000000001,-22.38,-33.54,22.56
1553850867437,-0.090982445,9.510059,2.423006,0.01911825,0.008481864,-0.011917368999999999,-22.5,-33.96,22.859999
1553850867457,-0.11013664,9.536397000000001,2.3823035,0.009344406,0.012147056000000002,-0.011917368999999999,-22.08,-33.719997,23.1
1553850867477,-0.10055954,9.541185,2.4086404,0.0032357534,0.00909273,-0.01069564,-22.08,-33.6,22.68
1553850867497,-0.11971374,9.531608,2.4254005000000003,0.0020140228,0.006038403,-0.008252178,-22.26,-33.84,22.56
1553850867517,-0.12450229,9.553157,2.430189,0.0014031575,-0.0067897669999999995,-0.0064195828,-22.38,-33.6,22.68
1553850867537,-0.11253092,9.526819,2.4277947,0.0014031575,-0.01412015,-0.004586987,-22.32,-33.059998,23.1
1553850867558,-0.15323359,9.553157,2.4158232,0.00018142698,-0.015952745,-0.007030448000000001,-22.08,-32.82,22.8
1553850867577,-0.13647367,9.531608,2.4110348,0.005679214,-0.022061398,-0.0076413136,-22.26,-33.059998,22.8
1553850867597,-0.14844504,9.577099,2.423006,0.010566137,-0.021450532999999997,-0.0064195828,-21.96,-33.239998,22.619999
1553850867617,-0.12689656,9.581888000000001,2.4014575000000002,0.011177001,-0.019007072,-0.01069564,-22.26,-33.42,22.26
1553850867637,-0.12929083,9.567522,2.4086404,0.01911825,-0.01778534,-0.014971696000000001,-22.199999,-33.239998,22.26
1553850867658,-0.16759923,9.557945,2.3607549999999997,0.018507386,-0.008622363000000001,-0.011306506000000001,-22.68,-33.6,22.619999
1553850867677,-0.17957062,9.593859,2.3056867000000003,0.014842193,0.006038403,-0.011917368999999999,-22.859999,-33.899998,23.16
1553850867698,-0.17957062,9.555551,2.3894862999999997,0.013009597,0.007870999,-0.013749965500000001,-22.5,-33.36,22.859999
1553850867717,-0.20830189999999998,9.553157,2.3775147999999997,0.017285653999999998,0.0005406157599999999,-0.011306506000000001,-22.439999,-33.12,22.5
1553850867737,-0.18196489,9.557945,2.343995,0.014231328,-0.00068111473,-0.012528235,-22.439999,-33.48,23.22
1553850867758,-0.18675344,9.529214,2.351178,0.011177001,0.0017623462,-0.012528235,-21.0,-33.6,22.68
1553850867778,-0.22506183,9.569917,2.3416007000000003,0.014231328,0.01031446,-0.012528235,-21.539998999999998,-33.36,22.56
1553850867797,-0.18675344,9.57231,2.3535721,0.0020140228,0.02314263,-0.011917368999999999,-22.199999,-33.48,22.199999
1553850867818,-0.12929083,9.541185,2.4541316,0.0062900796,-0.00129198,-0.010084774,-22.8,-33.899998,22.859999
1553850867837,-0.13168511,9.550761999999999,2.423006,0.0062900796,-0.015952745,-0.008252178,-22.56,-33.78,23.58
1553850867857,-0.15562786,9.545974000000001,2.3751206000000002,0.005679214,-0.0074006324,-0.011917368999999999,-22.14,-33.42,23.46
1553850867877,-0.1699935,9.531608,2.3942747000000004,-0.0010403035,-7.024949999999999e-05,-0.008863044,-22.38,-33.18,22.859999
1553850867898,-0.15802214,9.569917,2.4110348,0.00079229224,-0.009233228000000001,-0.007030448000000001,-22.56,-33.899998,22.8
1553850867918,-0.17957062,9.569917,2.3846977000000003,-0.0028728994,-0.014731015,-0.002143526,-22.14,-33.54,23.039998999999998
1553850867937,-0.1699935,9.541185,2.3990633,-0.0016511687,-0.012898419,-0.0033652566,-22.199999,-33.059998,23.1
1553850867958,-0.16281068,9.553157,2.4158232,0.00079229224,-0.01412015,-0.007030448000000001,-22.38,-33.48,23.039998999999998
1553850867977,-0.16041641,9.524425500000001,2.4134290000000003,0.005679214,-0.020228801,-0.008863044,-22.68,-33.6,22.619999
1553850867998,-0.13647367,9.550761999999999,2.3751206000000002,0.009955271,-0.01778534,-0.005197852,-22.8,-33.6,23.16
1553850868017,-0.14844504,9.555551,2.3583608,0.014231328,-0.008011498,-0.008252178,-22.68,-34.02,22.68
1553850868037,-0.13647367,9.584282,2.4086404,0.011787866000000001,0.0011514811,-0.005197852,-22.68,-34.079997999999996,22.74
1553850868057,-0.14844504,9.553157,2.439766,0.014231328,-0.01167669,-0.004586987,-22.32,-33.6,23.22
1553850868077,-0.18435916,9.536397000000001,2.4014575000000002,0.013620462,-0.014731015,-0.005197852,-22.08,-33.42,22.5
1553850868097,-0.17957062,9.567522,2.3799092999999996,0.017285653999999998,-0.016563611000000002,-0.003976122,-22.32,-33.18,22.859999
1553850868117,-0.15562786,9.522031,2.370332,0.012398731999999999,-0.012898419,-0.003976122,-22.38,-33.54,23.519999
1553850868137,-0.15562786,9.555551,2.3966691000000004,0.009955271,-0.010454959,-0.0033652566,-22.56,-33.899998,23.16
1553850868157,-0.1340794,9.543579,2.3918805,0.0062900796,-0.012898419,-0.00031093040000000003,-23.4,-33.84,23.46
1553850868177,-0.1340794,9.569917,2.3894862999999997,0.0069009447,-0.017174477,0.0039651264,-23.279999,-32.579997999999996,24.24
1553850868197,-0.14605077,9.58907,2.3535721,0.00751181,-0.018396208,0.0009108001,-22.14,-32.94,23.1
