TimeStamp,Ax,Ay,Az,Gx,Gy,Gz,Mx,My,Mz
1553846293660,1.9154198,9.5794935,1.7526091000000001,0.052029226,0.15876387,0.04731457,25.74,-31.08,-28.5
1553846293681,2.030345,9.502875999999999,1.6328955,0.05508355400000001,0.17464638,0.03692986,25.439999,-30.66,-28.14
1553846293700,1.9920366000000003,9.457385,1.6664151999999999,0.05386182,0.2058005,0.022269092999999997,25.439999,-30.9,-27.539998999999998
1553846293721,1.8842942999999999,9.512454,1.6616267,0.030038076,0.18319848,0.024101688,26.4,-31.26,-26.76
1553846293740,1.7909175,9.505271,1.6975409,-0.0029486464,0.14349225,0.032653800000000004,26.82,-30.96,-26.76
1553846293761,1.7909175,9.543579,1.7957061999999997,-0.022496332999999997,0.102564275,0.05464495,26.58,-30.9,-26.76
1553846293780,1.7789462,9.545974000000001,1.673598,-0.024939793999999998,0.10989466,0.066862255,26.279999,-31.199999,-27.0
1553846293800,1.7573976999999998,9.536397000000001,1.6688095,-0.04204402,0.105618596,0.07541437,26.34,-30.9,-27.42
1553846293820,1.8196488999999998,9.613013,1.6855695,-0.0670895,0.08423832,0.08946427,26.82,-30.779999,-27.18
1553846293840,1.8771113999999998,9.591465,1.7143008000000002,-0.08724805,0.06896668,0.100459844,26.64,-30.66,-26.82
1553846293860,1.9154198,9.567522,1.7238779,-0.10923920000000001,0.060414575,0.08763167,26.039998999999998,-30.779999,-26.099998
1553846293881,1.908237,9.517242,1.7909175,-0.11351526,0.05186246,0.08396648599999999,25.619999,-31.859999,-26.279999
1553846293900,1.8890828000000002,9.478933999999999,1.9130256,-0.08846978,0.049418997,0.07297091,25.98,-31.859999,-26.82
1553846293921,1.9992193999999999,9.378374,1.8962656000000002,-0.057315655,0.054916788,0.065640524,25.859999,-31.08,-26.519999
1553846293941,2.0590763,9.270632,1.8531687,-0.0371571,0.07507534,0.04975803,26.22,-31.38,-26.58
1553846293961,2.0806248,9.284998,2.0447106,-0.012111626,0.0915687,0.03692986,26.519999,-31.56,-26.22
1553846293980,2.0471049999999997,9.265842999999998,1.9273912,0.045309708,0.11233812,0.023490824,26.34,-31.14,-25.74
1553846294000,1.9273912,9.332883,1.7238779,0.081961624,0.15082262,0.003943135,26.76,-31.26,-26.16
1553846294020,1.8579572,9.596252999999999,1.6807808999999998,0.08318335,0.14349225,0.0063865962,26.34,-31.439999,-26.22
1553846294041,1.8004947,9.632168,1.6783867,0.07646383,0.12333369,0.013716978999999999,26.58,-31.14,-25.92
1553846294060,1.8340145,9.522031,1.7454262999999999,0.09112460000000001,0.101342544,0.017993037,26.88,-32.04,-24.84
1553846294080,1.9034485,9.435837,1.7454262999999999,0.12044614,0.085460044,0.014327845,25.92,-32.82,-24.72
1553846294101,1.9848539,9.407105,1.5538843999999998,0.13266344,0.095233895,-0.003387248,26.099998,-31.619999,-25.74
1553846294120,1.924997,9.522031,1.4652961000000002,0.121057,0.08362745,-0.0094959,26.939999,-30.72,-25.619999
1553846294141,1.9393626,9.591465,1.5514901,0.10395277,0.07446447,-0.011939362,27.18,-31.14,-25.14
1553846294161,1.9872481,9.63935,1.5802213999999999,0.093568064,0.08423832,-0.0070524393,26.82,-32.34,-25.56
1553846294180,1.9513340000000001,9.596252999999999,1.5874043,0.08440508,0.078129664,-0.0027763825,26.099998,-32.219997,-25.14
1553846294200,1.977671,9.598647999999999,1.6520496999999998,0.0929572,0.08301659,-0.00827417,26.039998999999998,-31.5,-25.08
1553846294221,2.0518935000000003,9.562733999999999,1.5993756000000001,0.100898445,0.098288216,-0.013161092,26.82,-31.679997999999998,-25.74
1553846294240,2.0040080000000002,9.534002000000001,1.5467016000000002,0.08379422,0.08607092,-0.016826283,27.359999,-31.26,-25.619999
1553846294261,1.9010541,9.47654,1.6185298000000001,0.073409505,0.07690793,-0.017437149,27.48,-31.14,-25.14
1553846294280,1.9513340000000001,9.464568,1.5514901,0.06852259,0.066523224,-0.023545802,27.66,-32.04,-24.359999
1553846294300,1.9226026999999999,9.538791,1.5299416000000001,0.06180307,0.06591236,-0.00827417,27.3,-32.34,-24.48
1553846294320,1.9800651999999999,9.569917,1.5083932,0.05264009,0.07690793,-0.00827417,26.88,-31.859999,-24.48
1553846294340,2.0231621,9.593859,1.3743136999999999,0.03614673,0.08301659,-0.005830709,27.06,-31.56,-24.3
1553846294361,1.9465453999999998,9.613013,1.4221992,0.015988177,0.08484918,-0.0076633045,26.699999,-31.619999,-24.66
1553846294380,1.8938714,9.634561999999999,1.6448668000000002,0.009879523000000001,0.07629707,-0.003387248,26.46,-32.399998,-24.359999
1553846294401,1.9465453999999998,9.565128,1.5969813,0.005603466999999999,0.05430592,0.0021105395,27.0,-32.16,-24.42
1553846294420,1.9489397000000002,9.517242,1.5203645000000001,0.0062143323,0.066523224,0.013106113,27.42,-31.619999,-24.42
1553846294440,2.0016138999999997,9.466963,1.6017698,0.009879523000000001,0.0671341,0.020436496999999998,27.779999,-32.46,-24.3
1553846294460,2.1021732999999996,9.421472,1.5371244,0.019653369,0.072021015,0.014938709,27.66,-32.399998,-24.359999
1553846294480,2.0375278000000003,9.517242,1.4844503,0.020875098,0.08301659,0.0069974614,28.199999,-31.74,-23.82
1553846294501,1.8819,9.5794935,1.5395187,0.022096828,0.07629707,0.008830056999999999,28.38,-32.1,-23.4
1553846294520,1.8795058,9.567522,1.5730386,0.02576202,0.05308419,0.015549575,27.9,-31.56,-23.88
1553846294541,1.8771113999999998,9.510059,1.5059988000000002,0.019042501,0.039645154,0.013716978999999999,28.439999,-30.96,-24.779999
1553846294560,1.908237,9.529214,1.6065584,0.026372885,0.033536500000000004,0.009440923,27.599998,-31.92,-25.26
1553846294580,1.8699286,9.560339,1.5419129999999999,0.03614673,0.03597996,0.010051788,26.939999,-32.219997,-25.019999
1553846294600,1.8627458,9.498088000000001,1.4221992,0.019042501,0.0353691,0.019825632,27.359999,-32.16,-24.6
1553846294621,1.8819,9.534002000000001,1.5299416000000001,0.006825197,0.046364672,0.022269092999999997,26.82,-32.04,-24.48
1553846294641,1.960911,9.58907,1.5443072,0.005603466999999999,0.046975538,0.024712552999999998,26.76,-31.92,-24.6
1553846294660,1.9585168000000002,9.605830000000001,1.498816,-0.01150076,0.03659083,0.027156016,27.24,-32.34,-24.3
1553846294681,1.9848539,9.545974000000001,1.489239,-0.018220278,0.03109304,0.029599477000000003,27.599998,-32.34,-24.18
1553846294700,1.9800651999999999,9.517242,1.5203645000000001,-0.02188547,0.04880813,0.022269092999999997,27.9,-31.98,-23.699999
1553846294720,1.8866886000000003,9.538791,1.6065584,-0.006613838,0.057971112000000005,0.022269092999999997,27.599998,-31.74,-23.34
1553846294740,1.8268316999999998,9.557945,1.6161355,0.006825197,0.050029866,0.023490824,27.359999,-32.399998,-23.88
1553846294760,1.8819,9.490905999999999,1.5658557,0.0062143323,0.026816985,0.0069974614,27.539998999999998,-32.7,-24.18
1553846294781,1.8795058,9.507666,1.5514901,-0.0017269160999999998,0.017654005,-0.00033292157,27.48,-32.16,-24.42
1553846294800,1.9393626,9.565128,1.5634614,-0.007835569,0.010323622,-0.0015546521,28.199999,-32.52,-23.82
1553846294820,1.9489397000000002,9.555551,1.5634614,-0.010889893999999999,0.023151792999999997,0.0033322698,28.019999,-32.7,-24.119999
1553846294841,1.9513340000000001,9.534002000000001,1.5993756000000001,-0.008446434000000001,0.039034292000000005,0.013716978999999999,27.539998999999998,-32.46,-24.359999
1553846294861,1.9633054,9.514847999999999,1.5131816999999999,-0.007224703000000001,0.057360243,0.024712552999999998,27.779999,-32.1,-23.4
1553846294880,1.9034485,9.58907,1.5323358999999999,-0.013333356000000001,0.07507534,0.03143207,27.539998999999998,-32.28,-22.98
1553846294901,1.8507744,9.567522,1.5778271000000001,-0.019442009,0.05674938,0.03692986,26.88,-31.859999,-23.34
1553846294920,1.8555629,9.565128,1.637684,-0.016387682,0.031703907999999996,0.03692986,27.18,-31.74,-23.88
1553846294941,1.8459859,9.531608,1.6041641000000002,-0.022496332999999997,0.0078801615,0.03204294,28.019999,-32.579997999999996,-24.24
1553846294960,1.9010541,9.483723,1.5634614,-0.025550662000000002,-0.01899791,0.01738217,28.019999,-31.8,-23.699999
1553846294981,1.9465453999999998,9.502875999999999,1.5586729,-0.026161525,-0.024495697,0.008830056999999999,27.539998999999998,-31.859999,-23.16
1553846295001,1.8890828000000002,9.538791,1.5658557,-0.031048449,-0.031215213,-0.00033292157,27.24,-32.7,-22.98
1553846295021,1.8747171000000002,9.63935,1.56825,-0.039600562,-0.050762903,0.0027214046999999996,27.359999,-32.16,-23.16
1553846295040,1.8962656000000002,9.617802000000001,1.5706443,-0.054261327000000005,-0.078862704,0.003943135,28.26,-31.38,-23.64
1553846295061,1.9417567999999998,9.565128,1.5323358999999999,-0.07075469,-0.09046914,0.010051788,28.32,-32.28,-23.46
1553846295080,1.9417567999999998,9.553157,1.5490957,-0.08113939,-0.07580838,0.013106113,27.18,-32.46,-23.88
1553846295100,1.9226026999999999,9.550761999999999,1.620924,-0.09030238,-0.07336491,0.014327845,26.64,-31.439999,-23.939999
1553846295120,1.9297855,9.543579,1.7071179,-0.10190881,-0.09046914,0.01738217,26.519999,-31.439999,-24.0
1553846295140,1.9752767,9.481328,1.7023293999999998,-0.111071795,-0.102075584,0.024712552999999998,26.519999,-31.5,-24.539998999999998
1553846295160,2.0710478,9.450203,1.7238779,-0.122678235,-0.10818423,0.033264667000000005,26.58,-31.74,-24.06
1553846295181,2.116539,9.471751,1.7190893,-0.11779131,-0.07519751,0.039984185,26.58,-31.8,-24.48
1553846295200,2.1237217999999998,9.457385,1.7597919999999998,-0.108017474,-0.050152034000000005,0.0467037,26.279999,-31.92,-25.32
1553846295221,2.1596357999999998,9.39274,1.8268316999999998,-0.10129795,-0.04954117,0.03815159,27.119999,-32.399998,-24.24
1553846295240,2.135693,9.435837,1.8364087,-0.09030238,-0.054428093,0.023490824,27.539998999999998,-31.8,-23.58
1553846295260,2.0878077,9.464568,1.8196488999999998,-0.083582856,-0.05564982,0.023490824,26.88,-31.32,-24.84
1553846295281,2.1452703,9.445414999999999,1.8531687,-0.07747421,-0.060536745999999995,0.025934285,26.699999,-31.8,-25.68
1553846295301,2.1572416000000003,9.378374,1.8914771000000001,-0.06953296,-0.057482418,0.024712552999999998,27.3,-31.92,-26.34
1553846295320,2.1237217999999998,9.3831625,1.8004947,-0.057315655,-0.041599922000000004,0.016771305,27.9,-31.92,-25.56
1553846295341,2.0255566000000003,9.426260000000001,1.8890828000000002,-0.053650465,-0.04343252,0.016771305,27.72,-32.16,-24.96
1553846295360,2.013585,9.419077,1.9441511999999999,-0.04387662,-0.059315015,0.01616044,27.599998,-32.1,-25.38
1553846295380,2.1069617000000003,9.395133999999999,1.9034485,-0.034713637,-0.062369343,0.0027214046999999996,27.06,-31.679997999999998,-25.439999
1553846295400,2.1668186,9.4095,1.9106313000000001,-0.029826717000000003,-0.05992588,-0.0015546521,26.939999,-31.38,-25.38
1553846295420,2.2242813,9.419077,1.8914771000000001,-0.027383257,-0.052595496,-0.013161092,27.72,-30.9,-24.48
1553846295440,2.1931557999999995,9.397528999999999,1.9130256,-0.031659313,-0.039156462999999996,-0.014382822,27.119999,-31.08,-24.48
1553846295461,2.0878077,9.450203,1.9704881999999997,-0.030437581000000002,-0.023884831000000002,-0.0009437867999999999,26.939999,-31.679997999999998,-24.96
1553846295480,2.0279508,9.462174000000001,1.9561224999999998,-0.029215854,-0.0055588734999999995,0.01738217,26.76,-31.679997999999998,-25.5
1553846295500,2.0447106,9.445414999999999,2.0016138999999997,-0.031659313,-0.0025045476,0.03143207,26.34,-31.08,-25.68
1553846295520,2.1189332000000003,9.404712,2.0973847,-0.027383257,-0.001282817,0.035708126,26.58,-31.38,-24.779999
1553846295540,2.1835787,9.359220500000001,1.9992193999999999,-0.013944221000000001,0.011545353000000001,0.03021034,25.56,-31.32,-25.26
1553846295561,2.22907,9.349642999999999,1.9537282,-0.01027903,0.030482177000000003,0.027156016,26.22,-31.14,-26.039998999999998
1553846295581,2.2362528,9.378374,1.9633054,-0.010889893999999999,0.045753807,0.017993037,27.0,-31.439999,-25.859999
1553846295600,2.2027327999999997,9.385557,1.9872481,0.0013274101999999999,0.06835582,0.010051788,26.64,-31.38,-26.34
1553846295621,2.0997790000000003,9.411894,1.9058428,0.0062143323,0.08118399,0.022879956,26.76,-31.08,-26.279999
1553846295640,2.0662591,9.478933999999999,1.960911,0.0013274101999999999,0.073853604,0.03815159,27.18,-30.599998,-25.5
1553846295660,2.0710478,9.435837,1.9752767,0.0025491407,0.05430592,0.04731457,27.3,-30.779999,-25.74
1553846295680,2.0949904999999998,9.399923,1.9226026999999999,0.003160006,0.05430592,0.042427648,26.519999,-31.26,-26.16
1553846295700,2.0925963,9.4142885,1.9106313000000001,0.0025491407,0.050029866,0.028377745,26.58,-31.439999,-26.099998
1553846295721,2.0423164000000003,9.4095,1.9034485,0.003770871,0.034758233,0.010051788,26.58,-31.14,-25.98
1553846295740,2.0494993000000004,9.4142885,1.9800651999999999,0.00010567969,-6.108652500000001e-05,0.0051648653999999995,26.519999,-31.56,-25.92
1553846295761,2.1309047000000003,9.402317,1.9321798,-0.0011160509,-0.015943583,0.004554,27.18,-32.1,-25.14
1553846295780,2.152453,9.399923,1.9154198,0.0013274101999999999,-0.017165313999999997,0.004554,27.18,-31.859999,-25.74
1553846295801,2.1332988999999998,9.387952,1.9561224999999998,0.003160006,-0.009224065,0.008830056999999999,26.76,-31.74,-26.279999
1553846295820,2.152453,9.371192,2.0255566000000003,0.011712118999999998,-0.014721853,0.010051788,26.519999,-31.38,-26.279999
1553846295841,2.1476645,9.378374,1.9872481,0.017209906,-0.020219638999999998,0.0076083266000000005,26.64,-31.38,-25.859999
1553846295860,2.176396,9.371192,1.9656997,0.021485964,-0.029993482000000002,-0.0027763825,26.279999,-31.56,-25.68
1553846295881,2.2218869999999997,9.397528999999999,1.9393626,0.015988177,-0.038545597,-0.011328496,26.22,-31.5,-26.519999
1553846295900,2.2147042999999997,9.39274,2.0016138999999997,0.01659904,-0.037323866000000004,-0.02110234,26.699999,-31.679997999999998,-26.4
1553846295921,2.1620302000000002,9.385557,1.9585168000000002,0.020875098,-0.03793473,-0.020491473,26.939999,-31.199999,-25.74
1553846295940,2.1213273999999998,9.361614,1.960911,0.022096828,-0.036713,-0.01071763,27.24,-31.32,-24.9
1553846295960,2.1476645,9.371192,1.9848539,0.02576202,-0.033658676,0.0021105395,26.519999,-31.439999,-25.619999
1553846295980,2.2242813,9.380769,1.9297855,0.037368458,-0.020830505,0.013716978999999999,26.039998999999998,-31.679997999999998,-26.34
1553846296000,2.2362528,9.378374,1.8890828000000002,0.036757596000000003,-0.013500122,0.005775731,25.98,-32.16,-25.98
1553846296020,2.2578009999999997,9.366403,2.073442,0.048364032,-0.0049480083,-0.003998113,26.519999,-31.26,-26.4
1553846296041,2.2769554,9.25866,2.0973847,0.077685565,-0.0043371436,-0.004608978,26.58,-31.56,-26.46
1553846296061,2.2937152000000003,9.289786,2.0040080000000002,0.09601152,0.003604105,-0.0076633045,26.519999,-32.1,-25.859999
1553846296080,2.300898,9.385557,1.9178141,0.08990287,0.0017715092000000002,-0.022934936,26.46,-31.5,-25.74
1553846296101,2.2194927000000004,9.390346000000001,1.8675343999999998,0.08073989,-6.108652500000001e-05,-0.031487048,25.8,-31.38,-26.4
1553846296120,2.1931557999999995,9.466963,1.8268316999999998,0.0752421,-0.0006719517999999999,-0.032097917000000004,25.859999,-31.5,-26.76
1553846296141,2.1596357999999998,9.498088000000001,1.7693691000000003,0.059359605999999995,0.0005497787,-0.02110234,25.5,-32.16,-26.699999
1553846296160,2.1141446,9.538791,1.7310607,0.041033648,0.013988813999999999,-0.010106766,25.98,-32.34,-25.68
1553846296181,2.1141446,9.534002000000001,1.7550035,0.022096828,0.028038716,-0.0015546521,26.46,-31.619999,-25.92
1553846296200,2.1835787,9.466963,1.7933118000000001,0.00010567969,0.018875737,0.008219192,26.46,-31.439999,-26.88
1553846296220,2.2434354,9.395133999999999,1.9369683000000002,0.003160006,0.012156218,-0.003387248,26.099998,-31.679997999999998,-26.58
1553846296240,2.2362528,9.37598,1.8675343999999998,0.026372885,0.027427847999999998,-0.0052198432,26.4,-32.579997999999996,-26.099998
1553846296260,2.2266755000000003,9.419077,1.7597919999999998,0.03125981,0.024984388,-0.008885034,26.699999,-32.64,-25.32
1553846296281,2.1716073,9.411894,1.7238779,0.022707692999999998,0.029260445,-0.0094959,26.76,-31.679997999999998,-25.859999
1553846296300,2.1452703,9.426260000000001,1.7693691000000003,0.024540287999999997,0.017654005,-0.005830709,26.64,-31.5,-25.98
1553846296320,2.135693,9.447808,1.7669748,0.039201055,0.00421497,-0.0027763825,26.46,-31.98,-25.38
1553846296341,2.0949904999999998,9.452597,1.7693691000000003,0.045309708,0.00421497,-0.0015546521,26.22,-32.64,-25.5
1553846296360,2.1787900000000002,9.440625,1.5562786,0.049585767,-0.0055588734999999995,-0.005830709,26.4,-32.1,-25.32
1553846296380,2.1309047000000003,9.522031,1.6305011999999999,0.026372885,0.0017715092000000002,-0.016215418,26.46,-32.1,-25.859999
1553846296400,2.0878077,9.486116,1.8435916,0.019042501,-0.017776178,-0.003387248,26.22,-32.7,-26.64
1553846296420,2.1309047000000003,9.395133999999999,1.7430321,0.026372885,-0.0073914696,0.0033322698,26.76,-32.28,-26.099998
1553846296441,2.176396,9.423865,1.7119064,0.028816348,0.014599678999999999,-0.0015546521,27.18,-32.16,-24.84
1553846296460,2.2099156000000004,9.4932995,1.6592325,0.026372885,0.039034292000000005,-0.008885034,27.18,-32.219997,-24.6
1553846296480,2.1045675,9.560339,1.6305011999999999,0.003160006,0.06224717,-0.003998113,26.279999,-32.219997,-25.68
1553846296501,2.0183737,9.601042,1.6520496999999998,-0.012111626,0.07263187,0.0076083266000000005,26.34,-31.92,-25.98
1553846296520,1.9465453999999998,9.562733999999999,1.7669748,-0.020663738,0.060414575,0.022269092999999997,26.519999,-32.34,-26.34
1553846296541,1.9920366000000003,9.454991,1.7526091000000001,-0.021274604,0.061636302999999996,0.03143207,26.699999,-33.0,-26.16
1553846296560,2.0590763,9.450203,1.7454262999999999,-0.026161525,0.04880813,0.027156016,27.06,-32.16,-25.56
1553846296580,2.1093562,9.426260000000001,1.7382435,-0.026772391,0.039034292000000005,0.015549575,26.82,-31.5,-25.859999
1553846296600,2.1380875,9.4095,1.8172544999999998,-0.018220278,0.029260445,0.0051648653999999995,26.88,-31.92,-25.619999
1553846296620,2.1979442000000002,9.431047999999999,1.8292258999999997,-0.0023377811999999998,0.025595253,-0.0015546521,26.699999,-31.859999,-25.619999
1553846296640,2.1309047000000003,9.423865,1.7382435,0.011101254,0.027427847999999998,-0.012550226000000001,26.34,-31.679997999999998,-25.74
1553846296660,2.0614705,9.466963,1.7119064,0.014155581,0.017654005,-0.013771958,26.4,-31.92,-25.32
1553846296681,2.0087965,9.531608,1.7454262999999999,0.015377311000000001,0.003604105,-0.016215418,26.58,-33.0,-24.119999
1553846296700,2.011191,9.560339,1.7502148999999998,0.015988177,-0.0055588734999999995,-0.018048013999999998,26.82,-32.64,-24.48
1553846296721,2.011191,9.45978,1.673598,0.008657793,-0.022052234,-0.013161092,26.88,-31.5,-25.619999
1553846296740,2.0686533,9.452597,1.7190893,0.003770871,-0.041599922000000004,-0.016215418,26.46,-32.1,-25.38
1553846296761,2.1141446,9.464568,1.6879636999999998,-0.0035595119,-0.054428093,-0.022934936,26.699999,-31.92,-25.199999
1553846296780,2.1189332000000003,9.462174000000001,1.6807808999999998,-0.014555086,-0.05626069,-0.027210994,26.699999,-31.32,-25.199999
1553846296801,2.1093562,9.500483000000001,1.664021,-0.021274604,-0.056871556,-0.024156665,27.359999,-32.04,-24.84
1553846296820,2.1045675,9.45978,1.7693691000000003,-0.02432893,-0.06603453,-0.003998113,28.14,-32.94,-23.1
1553846296840,2.2027327999999997,9.4142885,1.7621863000000002,-0.01150076,-0.058704152999999995,0.005775731,28.019999,-33.239998,-21.6
1553846296861,2.2793495999999998,9.371192,1.7645805,-0.0053921076,-0.047708575,0.0051648653999999995,28.019999,-32.88,-21.539998999999998
1553846296880,2.308081,9.387952,1.8076775,0.0043817363,-0.03060435,0.0008888089,28.26,-32.579997999999996,-21.119999
1553846296900,2.2266755000000003,9.411894,1.7693691000000003,0.026372885,-0.0055588734999999995,-0.014993688,28.38,-32.34,-21.06
1553846296921,2.1572416000000003,9.452597,1.7717633000000002,0.022707692999999998,-0.0061697387,-0.016215418,28.019999,-32.16,-20.58
1553846296940,2.1572416000000003,9.438231,1.7669748,0.026372885,-0.0018936823000000001,-0.016215418,27.779999,-32.52,-20.1
1553846296960,2.176396,9.433442999999999,1.7262721,0.032481536,0.011545353000000001,-0.018048013999999998,27.96,-32.52,-20.58
1553846296980,2.1093562,9.483723,1.6496553,0.022096828,0.03109304,-0.013771958,28.32,-32.76,-21.0
1553846297001,2.0782306,9.526819,1.6712039,0.012322985,0.037812557000000004,-0.008885034,28.8,-32.88,-20.279999
1553846297020,2.0686533,9.534002000000001,1.6592325,-0.0023377811999999998,0.03231477,-0.01071763,28.14,-32.76,-21.24
1553846297040,1.9345740000000002,9.543579,1.7286664,-0.00050518557,0.0194866,0.004554,26.64,-32.7,-24.119999
1553846297060,1.9944308999999998,9.531608,1.647261,-0.01272249,0.010323622,0.009440923,26.22,-32.399998,-25.14
1553846297081,2.011191,9.498088000000001,1.6855695,-0.023718065,0.007269296999999999,0.009440923,25.98,-32.219997,-24.96
1553846297100,2.0231621,9.466963,1.7358493000000002,-0.023718065,0.0054367009999999995,0.0033322698,26.22,-31.859999,-24.359999
1553846297121,2.0782306,9.421472,1.8531687,-0.007224703000000001,-0.008002334,-0.0021655173,26.699999,-31.74,-24.66
1553846297140,2.1285102000000005,9.438231,1.8148602999999999,-0.0017269160999999998,-0.023884831000000002,-0.011328496,26.46,-31.619999,-25.14
1553846297161,2.116539,9.416683,1.7597919999999998,0.0007165449,-0.029382618,-0.026600126,26.4,-31.859999,-24.84
1553846297180,2.0614705,9.483723,1.7286664,0.0074360627,-0.017165313999999997,-0.03515224,26.76,-32.399998,-25.14
1553846297201,2.0231621,9.543579,1.6759924,-0.0035595119,-0.025106562000000002,-0.029654452999999997,26.64,-32.34,-25.019999
1553846297220,1.977671,9.500483000000001,1.7143008000000002,-0.013944221000000001,-0.031215213,-0.018048013999999998,26.939999,-32.04,-24.96
1553846297240,2.0399222,9.462174000000001,1.7430321,-0.007835569,-0.04098906,-0.01071763,27.539998999999998,-32.34,-25.199999
1553846297261,2.0662591,9.445414999999999,1.6759924,-0.01027903,-0.02144137,-0.011328496,27.119999,-32.64,-24.96
1553846297280,2.056682,9.466963,1.7813405,-0.0053921076,-0.0073914696,-0.013771958,27.3,-32.28,-25.08
1553846297300,2.0351336,9.474146000000001,1.8292258999999997,0.030038076,0.0005497787,-0.014382822,27.539998999999998,-31.679997999999998,-24.48
1553846297321,1.9800651999999999,9.483723,1.6185298000000001,0.027594617000000002,-0.011667526000000001,-0.027821857000000002,27.18,-31.619999,-24.9
1553846297340,1.9680939,9.488511,1.6089526,0.011101254,-0.023884831000000002,-0.034541376,26.58,-32.34,-26.16
1553846297360,1.9369683000000002,9.557945,1.5802213999999999,0.0025491407,-0.03304781,-0.047369543,26.699999,-32.64,-26.099998
1553846297381,1.8747171000000002,9.648928,1.5658557,-0.019442009,-0.060536745999999995,-0.04065003,26.88,-31.98,-26.039998999999998
1553846297400,1.8986599999999998,9.584282,1.5586729,-0.04143316,-0.078862704,-0.023545802,26.88,-31.199999,-24.9
1553846297420,1.9417567999999998,9.517242,1.6017698,-0.057315655,-0.07947357,-0.011939362,27.06,-31.199999,-25.199999
1553846297441,2.0016138999999997,9.474146000000001,1.7310607,-0.06831123,-0.09596693,-0.0070524393,27.119999,-31.8,-25.619999
1553846297460,2.020768,9.454991,1.8100717,-0.063424304,-0.10329731,-0.010106766,27.119999,-32.28,-24.6
1553846297480,2.0830189999999997,9.440625,1.7789462,-0.051207002,-0.09963212,-0.016215418,26.58,-32.94,-25.68
1553846297501,2.0973847,9.464568,1.7645805,-0.039600562,-0.08741481599999999,-0.018048013999999998,25.98,-32.94,-26.58
1553846297520,2.1309047000000003,9.450203,1.7789462,-0.035935372,-0.07947357,-0.018048013999999998,26.699999,-32.16,-26.34
1553846297540,2.126116,9.435837,1.7789462,-0.03776797,-0.07519751,-0.029043588999999998,27.24,-31.5,-26.16
1553846297561,2.0949904999999998,9.440625,1.8316202000000001,-0.04387662,-0.074586645,-0.025378397,26.58,-31.859999,-26.039998999999998
1553846297580,2.0806248,9.431047999999999,1.8148602999999999,-0.04998527,-0.080695294,-0.02232407,26.58,-31.92,-26.039998999999998
1553846297600,2.0447106,9.483723,1.7981004,-0.06036998,-0.080695294,-0.017437149,27.48,-31.32,-26.46
1553846297620,2.0399222,9.500483000000001,1.7981004,-0.059148252000000005,-0.07580838,-0.00827417,27.3,-31.5,-25.56
1553846297640,2.030345,9.483723,1.7741576000000001,-0.053650465,-0.06359107,-0.0009437867999999999,26.76,-31.439999,-25.439999
1553846297660,2.0878077,9.483723,1.7502148999999998,-0.057315655,-0.044043384000000005,0.0051648653999999995,26.939999,-31.08,-26.4
1553846297681,2.1452703,9.464568,1.8076775,-0.058537383,-0.03182608,0.003943135,26.22,-30.72,-26.58
1553846297700,2.0854135,9.440625,1.8268316999999998,-0.059759114,-0.025106562000000002,-0.0009437867999999999,26.519999,-30.179997999999998,-27.0
1553846297721,2.0183737,9.404712,1.7693691000000003,-0.054872192,-0.027550022999999996,0.0008888089,26.519999,-30.599998,-26.88
1553846297740,2.0327394,9.445414999999999,1.7765520000000001,-0.06036998,-0.018387043999999998,0.009440923,25.8,-31.619999,-26.4
1553846297760,2.0710478,9.428655000000001,1.9154198,-0.051817867999999996,-0.01899791,0.022269092999999997,25.859999,-31.5,-26.58
1553846297780,2.126116,9.3831625,1.9561224999999998,-0.029826717000000003,-0.011667526000000001,0.026545147999999998,25.98,-31.619999,-27.42
1553846297801,2.126116,9.3831625,1.9010541,-0.021274604,-0.012278391999999999,0.008219192,25.98,-31.98,-27.119999
1553846297820,2.0997790000000003,9.39274,1.9800651999999999,-0.013333356000000001,-0.017776178,-0.010106766,26.699999,-31.92,-26.099998
1553846297840,2.0878077,9.443019999999999,1.9226026999999999,-0.0011160509,-0.0061697387,-0.02110234,27.24,-31.679997999999998,-26.039998999999998
1553846297860,2.0782306,9.481328,1.8483802,-0.010889893999999999,-0.00983493,-0.02110234,26.34,-31.26,-26.34
1553846297880,2.0638650000000003,9.502875999999999,1.9273912,-0.013333356000000001,-0.011667526000000001,-0.011939362,25.5,-31.26,-26.34
1553846297901,2.0518935000000003,9.438231,1.9489397000000002,-0.017609414,-0.014110987,0.00027794369999999997,26.82,-32.219997,-24.96
1553846297920,2.0471049999999997,9.4095,1.8842942999999999,-0.026161525,-0.0055588734999999995,0.005775731,28.14,-32.579997999999996,-22.56
1553846297940,2.0351336,9.380769,1.9369683000000002,-0.039600562,-0.006780604399999999,0.011273518,27.96,-31.38,-21.66
1553846297961,2.0949904999999998,9.416683,1.9465453999999998,-0.0371571,-0.0043371436,0.01616044,28.199999,-30.9,-21.9
1553846297980,2.1141446,9.450203,1.9369683000000002,-0.032881044,0.0017715092000000002,0.022879956,27.84,-30.9,-22.02
1553846298000,2.1332988999999998,9.404712,1.9872481,-0.020663738,0.007269296999999999,0.013716978999999999,27.359999,-31.14,-22.32
1553846298020,2.1500587,9.3280945,2.0423164000000003,-0.009057298,0.011545353000000001,0.0051648653999999995,27.18,-32.219997,-22.8
1553846298040,2.1309047000000003,9.332883,2.0614705,0.01659904,0.012767083,-0.008885034,27.42,-32.16,-22.5
1553846298060,2.116539,9.39274,1.9656997,0.033092402,0.016432276000000003,-0.01988061,27.119999,-32.16,-22.08
1553846298080,2.0830189999999997,9.421472,1.9034485,0.033092402,0.012156218,-0.025378397,27.119999,-31.74,-22.08
1553846298101,2.0255566000000003,9.45978,1.9202085,0.03370327,0.006658430999999999,-0.034541376,28.019999,-31.32,-22.08
1553846298120,1.960911,9.486116,1.8220432,0.023318559,-0.003726278,-0.027821857000000002,27.42,-31.439999,-23.34
1553846298140,1.9321798,9.502875999999999,1.8459859,0.006825197,-0.0055588734999999995,-0.015604551999999999,26.46,-30.779999,-25.08
1553846298161,1.977671,9.462174000000001,1.8723229,0.0049926020000000005,-0.0018936823000000001,-0.0052198432,26.699999,-31.019999,-26.64
1553846298180,2.0040080000000002,9.440625,1.8603516,-0.00050518557,-6.108652500000001e-05,-0.003387248,26.519999,-31.619999,-28.14
1553846298201,1.9968252,9.466963,1.9010541,-0.006002973000000001,-0.0031154128000000004,-0.006441574,26.82,-31.26,-27.779999
1553846298220,1.9872481,9.531608,1.8076775,-0.009668164,-0.0043371436,-0.0052198432,26.82,-30.66,-27.72
1553846298240,1.9728824,9.565128,1.7502148999999998,-0.030437581000000002,0.0005497787,0.00027794369999999997,25.8,-31.019999,-27.72
1553846298260,1.9824595,9.531608,1.8914771000000001,-0.045098346,-0.009224065,0.0033322698,25.98,-31.32,-27.06
1553846298280,2.0494993000000004,9.366403,2.0447106,-0.031048449,-0.020219638999999998,-0.0009437867999999999,26.4,-31.5,-27.18
1553846298300,2.0494993000000004,9.330489,1.9848539,-0.022496332999999997,-0.023273965,-0.0009437867999999999,26.58,-31.32,-27.42
1553846298320,2.0710478,9.342461,1.9896424,-0.01272249,-0.012889257,0.00027794369999999997,26.519999,-30.66,-27.3
1553846298341,2.1117504,9.399923,1.9728824,0.009268658,0.013988813999999999,-0.0015546521,26.4,-30.66,-26.34
1553846298360,2.0518935000000003,9.47654,1.8651401,0.023929425,0.034147367000000005,-0.011328496,25.92,-31.14,-26.279999
1553846298380,1.9752767,9.541185,1.8244373999999999,0.010490389,0.026816985,-0.008885034,25.859999,-31.199999,-26.939999
1553846298400,1.9585168000000002,9.507666,1.8986599999999998,0.0049926020000000005,0.017654005,-0.004608978,26.099998,-30.96,-27.359999
1553846298420,1.9680939,9.462174000000001,1.8603516,0.0013274101999999999,0.018875737,0.004554,25.92,-31.439999,-27.539998999999998
1553846298440,1.9704881999999997,9.428655000000001,1.9393626,0.003160006,0.029260445,0.003943135,26.279999,-30.96,-27.18
1553846298460,1.9561224999999998,9.4142885,1.9226026999999999,0.01293385,0.032925636,0.00027794369999999997,27.18,-29.82,-26.519999
1553846298480,1.9800651999999999,9.419077,1.9561224999999998,0.008657793,0.023762656,-0.003998113,27.3,-30.72,-27.06
1553846298500,1.9800651999999999,9.486116,1.9752767,0.009268658,0.013988813999999999,-0.004608978,26.279999,-31.74,-27.779999
1553846298520,1.9728824,9.4932995,1.960911,0.0049926020000000005,0.0023823746,0.00027794369999999997,26.039998999999998,-31.08,-27.119999
1553846298540,1.960911,9.526819,1.908237,0.009879523000000001,0.0078801615,0.003943135,26.4,-30.72,-26.88
1553846298560,2.0255566000000003,9.557945,1.7478206000000003,0.010490389,0.03597996,0.012495248999999998,27.119999,-30.72,-26.46
1553846298581,2.0518935000000003,9.5794935,1.7214836,0.005603466999999999,0.05674938,0.003943135,27.18,-30.599998,-26.76
1553846298600,1.9178141,9.514847999999999,1.8627458,0.0007165449,0.032925636,-0.006441574,26.099998,-30.72,-27.3
1553846298620,1.9345740000000002,9.344854,1.9369683000000002,-0.0047812425,-0.015943583,0.00027794369999999997,26.4,-31.08,-26.939999
1553846298640,2.0159793,9.246689,1.9058428,-0.0011160509,-0.03793473,-0.013771958,27.119999,-30.96,-27.3
1553846298660,2.0518935000000003,9.244295,2.0542877,0.022707692999999998,-0.03304781,-0.025378397,26.82,-30.42,-27.18
1553846298681,2.0997790000000003,9.431047999999999,1.8938714,0.058748744000000006,-0.028771752,-0.030265318,26.22,-30.48,-26.699999
1553846298701,2.0806248,9.574705,1.8244373999999999,0.04775317,-0.018387043999999998,-0.038206566000000004,25.98,-30.84,-27.0
1553846298720,2.0447106,9.500483000000001,1.8507744,0.044698842,-0.023273965,-0.037595704,26.699999,-30.779999,-26.76
1553846298741,2.1237217999999998,9.471751,1.7957061999999997,0.041033648,-0.001282817,-0.041871756,26.939999,-31.019999,-27.0
1553846298760,1.9824595,9.452597,1.9393626,0.036757596000000003,0.013988813999999999,-0.043704353,27.24,-30.599998,-26.34
1553846298781,1.908237,9.419077,1.9848539,0.046531435,-0.0006719517999999999,-0.025378397,27.48,-30.42,-26.099998
1553846298800,1.8483802,9.454991,1.8340145,0.055694416,0.00421497,-0.016826283,26.64,-31.08,-27.18
1553846298821,1.8866886000000003,9.486116,1.8675343999999998,0.041033648,0.008491027,0.0033322698,26.16,-31.08,-26.64
1553846298841,2.0040080000000002,9.431047999999999,1.9489397000000002,0.037979322999999995,0.010323622,0.009440923,26.22,-31.199999,-26.279999
1553846298860,2.0782306,9.380769,1.9130256,0.056916147,0.016432276000000003,0.003943135,26.519999,-31.5,-26.519999
1553846298881,2.030345,9.423865,1.8938714,0.06485740000000001,0.015210545,-0.0076633045,26.58,-31.199999,-26.699999
1553846298900,2.0447106,9.505271,1.8603516,0.05813788,0.008491027,-0.017437149,26.34,-30.779999,-27.0
1553846298921,2.1452703,9.57231,1.7454262999999999,0.04408798,0.021930063,-0.018658878,26.46,-30.96,-26.76
1553846298940,2.2338583,9.562733999999999,1.7478206000000003,0.042866245,0.05552765,-0.017437149,26.64,-30.779999,-26.88
1553846298960,2.126116,9.498088000000001,1.8052831999999999,0.03859019,0.08607092,-0.017437149,26.82,-31.019999,-27.539998999999998
1553846298980,1.9393626,9.440625,1.7430321,0.03859019,0.0934013,-0.005830709,27.18,-30.66,-26.64
1553846299000,1.8914771000000001,9.471751,1.7933118000000001,0.033092402,0.08423832,-0.0015546521,27.0,-30.96,-26.22
1553846299021,1.8986599999999998,9.445414999999999,1.7430321,0.034314133,0.06835582,0.013106113,26.82,-31.74,-26.519999
1553846299040,1.8747171000000002,9.435837,1.6712039,0.017820772,0.05186246,0.015549575,27.119999,-31.199999,-26.519999
1553846299061,1.8771113999999998,9.464568,1.7119064,0.022096828,0.045753807,0.010051788,27.119999,-31.08,-26.64
1553846299080,1.8675343999999998,9.574705,1.6041641000000002,0.027594617000000002,0.046364672,-0.0021655173,26.76,-31.8,-25.68
1553846299101,1.8651401,9.636956,1.6185298000000001,0.01293385,0.017654005,-0.0021655173,26.76,-32.28,-25.38
1553846299120,1.8723229,9.603436,1.6544438999999997,0.008046928,0.0011606439,0.0051648653999999995,26.82,-31.619999,-26.099998
1553846299141,1.8627458,9.500483000000001,1.7238779,0.008046928,-0.017776178,-0.0021655173,26.76,-31.019999,-26.519999
1553846299160,1.9345740000000002,9.380769,1.8459859,0.017820772,-0.034269537999999995,-0.0094959,25.98,-31.019999,-26.64
1553846299181,1.9848539,9.443019999999999,1.7143008000000002,0.03125981,-0.017165313999999997,-0.024767531000000002,25.92,-30.96,-25.74
1553846299200,1.9489397000000002,9.514847999999999,1.6831752,0.03614673,-0.011667526000000001,-0.033319645,26.76,-31.32,-25.32
1553846299220,1.8675343999999998,9.569917,1.7262721,0.036757596000000003,-0.017165313999999997,-0.021713205,27.0,-31.38,-26.279999
1553846299241,1.9010541,9.562733999999999,1.6975409,0.026983751,-0.036102135,-0.010106766,26.76,-30.72,-26.88
1553846299260,1.9848539,9.500483000000001,1.7478206000000003,0.014766445,-0.03060435,-0.00033292157,26.58,-30.48,-26.16
1553846299280,2.0638650000000003,9.45978,1.8172544999999998,0.020875098,-0.0006719517999999999,0.008830056999999999,27.42,-31.14,-25.56
1553846299301,2.0973847,9.469357,1.6424724999999998,0.026372885,0.03659083,0.0069974614,27.3,-31.8,-26.16
1553846299320,2.0471049999999997,9.524425500000001,1.6233183,0.018431637,0.058581978,0.0069974614,26.4,-31.74,-26.519999
1553846299340,2.0016138999999997,9.510059,1.7573976999999998,0.019653369,0.072021015,0.005775731,26.64,-31.019999,-26.76
1553846299360,1.9896424,9.457385,1.7669748,0.030038076,0.07263187,0.0027214046999999996,27.06,-30.96,-26.279999
1553846299380,1.8651401,9.469357,1.7406378,0.028816348,0.06407977,-0.0015546521,26.699999,-31.92,-25.74
1553846299400,1.7430321,9.560339,1.673598,0.030648941000000002,0.054916788,0.00027794369999999997,26.279999,-32.16,-25.859999
1553846299420,1.6903580000000002,9.636956,1.6017698,0.015377311000000001,0.039034292000000005,0.010051788,26.22,-31.859999,-25.98
1553846299440,1.7502148999999998,9.608225,1.6281068,-0.0053921076,0.0054367009999999995,0.014938709,26.4,-31.98,-25.98
1553846299460,1.8076775,9.581888000000001,1.6065584,-0.012111626,-0.0061697387,0.010662653000000001,27.3,-31.74,-25.32
1553846299481,1.812466,9.596252999999999,1.6951466,-0.022496332999999997,-0.018387043999999998,0.008219192,27.18,-31.98,-25.68
1553846299500,1.8962656000000002,9.519637,1.7214836,-0.019442009,-0.027550022999999996,0.0014996742000000002,27.06,-31.439999,-25.26
1553846299521,1.9656997,9.447808,1.7406378,-0.01150076,-0.026328294,-0.016826283,27.359999,-30.72,-24.96
1553846299540,2.0279508,9.443019999999999,1.7502148999999998,-0.006002973000000001,-0.014110987,-0.02232407,26.76,-31.439999,-26.279999
1553846299560,2.020768,9.428655000000001,1.7933118000000001,0.009268658,0.0011606439,-0.027821857000000002,26.58,-32.04,-26.099998
1553846299580,1.9680939,9.462174000000001,1.7478206000000003,0.027594617000000002,0.020708332,-0.028432721,27.119999,-31.92,-26.22
1553846299601,1.9273912,9.538791,1.7095122,0.02576202,0.03109304,-0.029654452999999997,27.06,-31.56,-25.92
1553846299620,1.9369683000000002,9.5483675,1.6951466,0.022707692999999998,0.026206119,-0.027821857000000002,26.699999,-31.26,-25.26
1553846299641,1.9010541,9.555551,1.5921928,0.018431637,0.037201695,-0.019269746,26.88,-31.619999,-26.22
1553846299661,1.8483802,9.5794935,1.6065584,0.01293385,0.040866885,-0.011328496,27.0,-31.98,-26.279999
1553846299680,1.8723229,9.517242,1.7645805,0.011712118999999998,0.031703907999999996,-0.0052198432,27.18,-31.26,-26.099998
1553846299701,1.9633054,9.454991,1.7262721,0.008046928,0.012767083,-0.0070524393,28.019999,-30.9,-25.199999
1553846299720,1.9537282,9.481328,1.6688095,0.008046928,0.013377948999999998,-0.011939362,28.26,-30.72,-25.08
1553846299741,1.8938714,9.526819,1.6616267,0.009879523000000001,0.023151792999999997,-0.00827417,27.779999,-31.26,-25.92
1553846299761,1.8531687,9.534002000000001,1.6544438999999997,0.010490389,0.03109304,0.0027214046999999996,27.48,-30.96,-25.5
1553846299780,1.8364087,9.5483675,1.6951466,0.0062143323,0.03231477,0.0051648653999999995,27.42,-30.599998,-25.08
1553846299801,1.8340145,9.557945,1.6807808999999998,0.0019382754,0.022540928999999998,0.012495248999999998,27.359999,-32.28,-25.439999
1553846299820,1.838803,9.553157,1.6688095,-0.0041703773,0.010934488000000001,0.014327845,27.0,-32.1,-25.619999
1553846299841,1.8483802,9.5483675,1.6616267,-0.00050518557,0.009712758,0.012495248999999998,26.88,-31.74,-25.08
1553846299860,1.8747171000000002,9.5483675,1.6233183,-0.0017269160999999998,0.024373524,0.0014996742000000002,26.64,-32.1,-25.26
1553846299880,1.8220432,9.519637,1.6999351000000003,0.005603466999999999,0.010323622,-0.006441574,26.099998,-31.439999,-25.439999
1553846299901,1.8052831999999999,9.464568,1.7454262999999999,0.0074360627,-0.0031154128000000004,-0.006441574,26.58,-31.5,-25.439999
1553846299921,1.7933118000000001,9.47654,1.673598,0.003770871,-0.018387043999999998,-0.014993688,27.599998,-31.14,-25.019999
1553846299940,1.8411973999999998,9.488511,1.6975409,0.0049926020000000005,-0.020219638999999998,-0.018048013999999998,28.199999,-30.42,-24.779999
1553846299960,1.8292258999999997,9.545974000000001,1.6281068,0.012322985,-0.015332717,-0.011939362,28.019999,-31.26,-25.74
1553846299981,1.8771113999999998,9.610619999999999,1.5227587,0.005603466999999999,-0.001282817,-0.008885034,27.18,-32.1,-26.039998999999998
1553846300000,1.9178141,9.596252999999999,1.5874043,0.003160006,0.009101893,-0.006441574,26.939999,-31.439999,-25.38
1553846300022,1.8459859,9.560339,1.6448668000000002,-0.0023377811999999998,0.0078801615,-0.011328496,27.48,-31.26,-23.64
1553846300040,1.8459859,9.514847999999999,1.7071179,-0.0011160509,-0.013500122,-0.013771958,27.539998999999998,-31.679997999999998,-24.119999
1553846300061,1.908237,9.481328,1.7286664,0.0007165449,-0.028160888999999998,-0.012550226000000001,27.359999,-30.84,-25.74
1553846300080,1.9273912,9.483723,1.6951466,0.01293385,-0.020219638999999998,-0.0070524393,27.359999,-30.359999,-25.92
1553846300101,1.9393626,9.474146000000001,1.6616267,0.015988177,-0.0061697387,-0.0052198432,26.58,-31.32,-26.16
1553846300120,1.9130256,9.536397000000001,1.6400781999999998,0.012322985,0.010323622,-0.010106766,26.699999,-32.28,-26.34
1553846300141,1.8819,9.57231,1.7382435,0.014766445,0.0017715092000000002,-0.01071763,27.18,-31.92,-25.92
1553846300160,1.8699286,9.565128,1.6712039,0.01659904,-0.010445796,-0.0070524393,27.0,-31.199999,-25.14
1553846300180,1.8651401,9.545974000000001,1.6233183,0.0062143323,-0.023884831000000002,-0.010106766,27.119999,-31.14,-25.38
1553846300201,1.8531687,9.538791,1.6161355,0.008046928,-0.014721853,-0.01988061,26.76,-31.019999,-25.92
1553846300221,1.8483802,9.526819,1.5634614,0.003770871,-0.0055588734999999995,-0.014993688,27.96,-31.619999,-25.019999
1553846300240,1.8483802,9.577099,1.647261,-0.0053921076,-0.003726278,-0.018658878,28.019999,-31.74,-24.84
1553846300260,1.8004947,9.519637,1.6664151999999999,-0.0047812425,-0.015332717,-0.0076633045,26.699999,-31.8,-25.439999
1553846300281,1.812466,9.514847999999999,1.6831752,-0.0041703773,-0.022052234,-0.005830709,26.939999,-32.34,-25.26
1553846300300,1.8196488999999998,9.5483675,1.6089526,-0.0041703773,-0.023273965,-0.00033292157,27.18,-32.04,-25.08
1553846300320,1.8220432,9.646533,1.594587,-0.01150076,-0.020219638999999998,0.0033322698,27.3,-31.92,-24.779999
1553846300341,1.8100717,9.581888000000001,1.6233183,-0.026772391,-0.027550022999999996,0.012495248999999998,27.66,-32.16,-24.84
1553846300360,1.8244373999999999,9.524425500000001,1.5826156,-0.031048449,-0.05503896,0.013106113,27.48,-31.859999,-24.539998999999998
1553846300380,1.8531687,9.510059,1.5443072,-0.038989697000000004,-0.05626069,0.008830056999999999,27.359999,-31.56,-24.359999
1553846300401,1.8723229,9.553157,1.4844503,-0.034713637,-0.03060435,0.0063865962,27.779999,-31.8,-24.72
1553846300420,1.8435916,9.682447,1.4964218,-0.038989697000000004,-0.017776178,0.0008888089,27.42,-31.74,-25.5
1553846300440,1.7933118000000001,9.624985,1.6520496999999998,-0.057926517000000004,-0.058704152999999995,-0.0070524393,27.18,-31.26,-25.019999
1553846300461,1.7358493000000002,9.490905999999999,1.7693691000000003,-0.062202577,-0.12040155,-0.018658878,27.539998999999998,-30.539998999999998,-24.48
1553846300480,1.7238779,9.471751,1.8579572,-0.031659313,-0.17354682,-0.023545802,27.119999,-30.779999,-25.56
1553846300500,1.9010541,9.486116,1.6616267,0.003770871,-0.1704925,-0.025378397,26.82,-31.08,-26.279999
1553846300521,1.9872481,9.488511,1.5131816999999999,-0.006002973000000001,-0.12895367,-0.030265318,27.06,-31.38,-26.34
1553846300540,2.1045675,9.510059,1.6448668000000002,-0.013333356000000001,-0.0666454,-0.021713205,27.119999,-31.8,-25.74
1553846300561,2.1045675,9.536397000000001,1.6257126,-0.015165952,-0.028771752,-0.0027763825,26.699999,-31.92,-25.199999
1553846300580,2.0542877,9.483723,1.6041641000000002,-0.023718065,-0.0055588734999999995,0.03204294,26.939999,-32.04,-25.32
1553846300600,2.0447106,9.435837,1.6831752,-0.025550662000000002,0.038423423,0.056477547,27.18,-31.56,-26.099998
1553846300620,2.0590763,9.37598,1.7621863000000002,0.00010567969,0.09706649,0.06808399,26.46,-31.439999,-26.279999
1553846300641,2.0806248,9.378374,1.7717633000000002,0.023318559,0.14043793,0.054034084,26.58,-31.26,-25.5
1553846300660,2.030345,9.435837,1.7550035,0.03370327,0.15632042,0.033264667000000005,26.939999,-30.96,-26.039998999999998
1553846300681,1.9872481,9.505271,1.6233183,0.05264009,0.17647897,0.016771305,26.46,-31.32,-26.58
1553846300700,1.8268316999999998,9.646533,1.5754328000000002,0.049585767,0.18319848,0.012495248999999998,26.16,-31.8,-25.8
1553846300721,1.6328955,9.665688000000001,1.56825,0.035535865,0.15876387,0.024101688,26.46,-31.56,-25.26
1553846300740,1.5562786,9.648928,1.6544438999999997,0.017820772,0.119668506,0.042427648,26.58,-31.56,-24.84
1553846300761,1.594587,9.598647999999999,1.6927522000000002,0.012322985,0.0671341,0.044871107,27.0,-31.92,-24.779999
1553846300780,1.7286664,9.517242,1.6568381999999997,0.011101254,0.026816985,0.022269092999999997,26.76,-30.96,-25.32
1553846300801,1.7885233,9.510059,1.6041641000000002,0.0049926020000000005,0.012767083,-0.0009437867999999999,26.64,-30.84,-26.34
1553846300820,1.7741576000000001,9.557945,1.647261,-0.007835569,0.012156218,-0.014993688,27.539998999999998,-31.679997999999998,-25.68
1553846300840,1.8052831999999999,9.562733999999999,1.6999351000000003,-0.015776817,0.0054367009999999995,-0.021713205,27.72,-31.56,-25.68
1553846300860,1.7502148999999998,9.565128,1.7789462,-0.01027903,-0.016554449,-0.02110234,27.359999,-31.56,-25.92
1553846300880,1.802889,9.565128,1.7071179,-0.013944221000000001,-0.03793473,0.0033322698,26.82,-31.56,-26.039998999999998
1553846300901,1.9417567999999998,9.4932995,1.7190893,-0.008446434000000001,-0.027550022999999996,0.01738217,26.82,-31.679997999999998,-26.099998
1553846300920,2.0064023,9.426260000000001,1.7621863000000002,0.0025491407,-0.0018936823000000001,0.014327845,27.3,-31.619999,-26.519999
1553846300940,1.9704881999999997,9.433442999999999,1.7933118000000001,0.0043817363,0.010934488000000001,-0.0021655173,27.539998999999998,-31.5,-26.46
1553846300960,1.8914771000000001,9.490905999999999,1.7837347,0.003770871,-0.0018936823000000001,-0.016826283,27.42,-31.56,-25.439999
1553846300980,1.786129,9.58907,1.7573976999999998,0.0013274101999999999,-0.008002334,-0.014993688,27.24,-31.38,-25.38
1553846301000,1.7741576000000001,9.545974000000001,1.8052831999999999,0.008046928,-0.009224065,-0.0009437867999999999,27.18,-30.9,-25.5
1553846301020,1.8316202000000001,9.502875999999999,1.7621863000000002,0.010490389,-0.016554449,0.011273518,27.359999,-30.9,-25.14
1553846301041,1.8699286,9.483723,1.7262721,0.011712118999999998,-0.014721853,0.008219192,27.539998999999998,-31.56,-24.779999
1553846301060,1.8627458,9.510059,1.7190893,0.012322985,-0.019608773,-0.003998113,27.3,-31.619999,-24.84
1553846301081,1.8459859,9.5794935,1.7047237000000002,-0.0035595119,-0.042821657,-0.011328496,27.599998,-31.08,-25.68
1553846301100,1.8555629,9.596252999999999,1.6520496999999998,-0.020663738,-0.05626069,-0.021713205,27.42,-31.199999,-26.22
1553846301121,1.7789462,9.591465,1.6855695,-0.03227018,-0.062980205,-0.016215418,27.24,-31.32,-25.92
1553846301140,1.7837347,9.545974000000001,1.6855695,-0.0371571,-0.068477996,-0.0027763825,27.599998,-30.779999,-25.859999
1553846301160,1.8268316999999998,9.4932995,1.7286664,-0.04876354,-0.07947357,-0.0027763825,28.199999,-30.96,-25.019999
1553846301180,1.8842942999999999,9.469357,1.7502148999999998,-0.050596133,-0.08863654,-0.0027763825,27.539998999999998,-31.5,-25.32
1553846301200,1.9226026999999999,9.471751,1.7454262999999999,-0.054261327000000005,-0.1069625,-0.0070524393,26.46,-31.619999,-26.34
1553846301221,1.9992193999999999,9.490905999999999,1.7238779,-0.050596133,-0.11307116,-0.011939362,26.82,-31.56,-26.34
1553846301240,2.0518935000000003,9.545974000000001,1.6831752,-0.035324506,-0.10146471,-0.016215418,27.0,-31.14,-26.58
1553846301261,2.0518935000000003,9.514847999999999,1.6688095,-0.040211423999999996,-0.08741481599999999,-0.0094959,26.34,-31.56,-26.64
1553846301280,2.0471049999999997,9.440625,1.7717633000000002,-0.034713637,-0.058704152999999995,-0.004608978,26.519999,-31.74,-26.699999
1553846301300,2.0064023,9.4095,1.8268316999999998,-0.015165952,-0.025106562000000002,-0.0052198432,27.0,-31.019999,-26.699999
1553846301322,1.9441511999999999,9.397528999999999,1.8986599999999998,0.008657793,-0.009224065,-0.0009437867999999999,26.519999,-30.779999,-26.519999
1553846301340,2.030345,9.423865,1.8316202000000001,0.022707692999999998,-0.0073914696,-0.003998113,26.699999,-30.84,-26.46
1553846301360,2.0231621,9.498088000000001,1.6879636999999998,0.027594617000000002,0.010323622,-0.010106766,26.82,-30.779999,-26.22
1553846301380,1.9896424,9.553157,1.6975409,0.022096828,0.02864958,-0.0009437867999999999,26.82,-31.14,-25.859999
1553846301400,1.9345740000000002,9.500483000000001,1.7693691000000003,0.03187067,0.052473325,0.010662653000000001,26.82,-31.38,-26.34
1553846301420,1.8603516,9.507666,1.7382435,0.030038076,0.0671341,0.023490824,26.88,-31.019999,-26.34
1553846301440,1.8507744,9.519637,1.7981004,0.036757596000000003,0.06469063,0.03143207,27.539998999999998,-30.779999,-25.38
1553846301460,1.8866886000000003,9.519637,1.7454262999999999,0.040422786,0.061636302999999996,0.035708126,27.119999,-31.019999,-24.48
1553846301481,1.9465453999999998,9.529214,1.6448668000000002,0.033092402,0.06224717,0.033264667000000005,26.58,-31.38,-24.779999
1553846301500,1.9202085,9.557945,1.5658557,0.025151156,0.08057313,0.022269092999999997,26.939999,-31.98,-25.98
1553846301521,1.8100717,9.608225,1.6233183,0.017209906,0.08362745,0.009440923,27.06,-31.679997999999998,-26.46
1553846301540,1.7430321,9.581888000000001,1.6424724999999998,0.005603466999999999,0.06469063,0.011884383,26.88,-31.38,-26.22
1553846301561,1.7478206000000003,9.598647999999999,1.6975409,-0.0053921076,0.03597996,0.01738217,27.18,-31.619999,-25.8
1553846301580,1.802889,9.560339,1.7478206000000003,-0.007835569,0.012767083,0.01616044,26.64,-31.679997999999998,-25.56
1553846301601,1.8603516,9.464568,1.6592325,0.0043817363,-0.006780604399999999,-0.0021655173,26.279999,-31.32,-25.14
1553846301620,1.8220432,9.483723,1.6496553,-0.007835569,-0.028160888999999998,-0.015604551999999999,26.64,-31.8,-25.56
1553846301640,1.8483802,9.524425500000001,1.7190893,-0.010889893999999999,-0.048319444,-0.024156665,26.939999,-31.5,-25.8
1553846301661,1.8364087,9.565128,1.6903580000000002,-0.018831143,-0.07825184,-0.01988061,26.4,-31.199999,-25.38
1553846301680,1.8795058,9.543579,1.7214836,-0.024939793999999998,-0.09046914,-0.012550226000000001,26.279999,-31.619999,-25.68
1553846301701,1.8866886000000003,9.526819,1.6903580000000002,-0.018831143,-0.08436049,-0.014993688,26.88,-31.92,-25.5
1553846301720,1.8938714,9.560339,1.637684,-0.028604986000000002,-0.08558222,-0.016826283,27.3,-30.66,-25.8
1553846301741,1.8795058,9.560339,1.6616267,-0.040211423999999996,-0.09230173400000001,-0.018048013999999998,26.939999,-31.08,-26.4
1553846301760,1.8435916,9.529214,1.7238779,-0.044487484,-0.105129905,-0.0094959,26.64,-30.96,-26.46
1553846301781,1.8579572,9.481328,1.7406378,-0.040211423999999996,-0.10574078,-0.006441574,27.0,-30.779999,-26.4
1553846301801,1.8747171000000002,9.431047999999999,1.7933118000000001,-0.031048449,-0.114903755,-0.014382822,26.46,-31.14,-25.8
1553846301820,1.908237,9.466963,1.7526091000000001,-0.01027903,-0.11795808,-0.027821857000000002,26.22,-31.26,-26.039998999999998
1553846301840,1.9920366000000003,9.498088000000001,1.6448668000000002,-0.008446434000000001,-0.122234136,-0.03515224,26.34,-31.08,-26.4
1553846301860,1.9992193999999999,9.536397000000001,1.6113469999999999,-0.027383257,-0.12040155,-0.04065003,25.8,-31.32,-26.64
1553846301880,1.9704881999999997,9.545974000000001,1.6664151999999999,-0.031659313,-0.11184943,-0.038206566000000004,25.74,-30.72,-27.359999
1553846301900,1.908237,9.510059,1.7310607,-0.039600562,-0.12345587,-0.026600126,26.22,-30.9,-26.64
1553846301920,1.9130256,9.423865,1.7645805,-0.034102775,-0.12284500000000001,-0.014382822,26.58,-31.439999,-26.279999
1553846301940,1.9944308999999998,9.431047999999999,1.7885233,-0.02188547,-0.10390818,-0.018048013999999998,27.06,-31.199999,-27.3
1553846301960,1.9944308999999998,9.447808,1.7645805,-0.013333356000000001,-0.08436049,-0.016215418,26.46,-30.96,-27.0
1553846301980,1.9824595,9.512454,1.6783867,-0.015165952,-0.062369343,-0.015604551999999999,25.38,-30.96,-26.88
1553846302000,1.9417567999999998,9.567522,1.7238779,-0.018831143,-0.04893030599999999,-0.00827417,25.8,-31.92,-26.939999
1553846302021,1.9178141,9.522031,1.7382435,-0.02432893,-0.05137377,0.0008888089,27.119999,-31.019999,-25.859999
1553846302040,1.9154198,9.435837,1.812466,-0.02432893,-0.047708575,0.0021105395,25.859999,-31.14,-27.84
1553846302061,1.908237,9.433442999999999,1.8220432,-0.017609414,-0.04709771,0.00027794369999999997,26.46,-30.66,-27.9
1553846302080,1.8866886000000003,9.447808,1.7693691000000003,-0.0047812425,-0.034880407,-0.0021655173,26.939999,-30.599998,-27.779999
1553846302101,1.9058428,9.495694,1.7741576000000001,0.0007165449,-0.022052234,-0.005830709,26.4,-31.019999,-28.019999
1553846302120,1.9393626,9.519637,1.7286664,0.011101254,0.0005497787,-0.013771958,26.82,-31.019999,-27.599998
1553846302141,1.8866886000000003,9.531608,1.7023293999999998,0.0074360627,0.006658430999999999,-0.013771958,26.939999,-30.84,-27.359999
1553846302160,1.8196488999999998,9.510059,1.7741576000000001,-0.00050518557,0.009101893,-0.014993688,26.34,-31.32,-27.599998
1553846302181,1.8052831999999999,9.502875999999999,1.7573976999999998,0.0062143323,0.003604105,-0.013161092,25.859999,-31.26,-27.84
1553846302200,1.7957061999999997,9.565128,1.7454262999999999,0.01293385,-0.0055588734999999995,-0.005830709,25.26,-31.38,-28.019999
1553846302221,1.7957061999999997,9.543579,1.6999351000000003,0.009268658,-0.010445796,-0.00827417,25.439999,-30.96,-27.48
1553846302240,1.8172544999999998,9.534002000000001,1.6831752,0.0019382754,-0.023273965,-0.008885034,25.68,-31.14,-27.72
1553846302260,1.8340145,9.514847999999999,1.7358493000000002,-0.00050518557,-0.03182608,-0.0094959,25.98,-30.9,-27.119999
1553846302280,1.8220432,9.517242,1.7143008000000002,0.008046928,-0.042210788,-0.014382822,25.74,-30.72,-26.82
1553846302301,1.7693691000000003,9.560339,1.664021,0.013544715,-0.052595496,-0.014993688,26.519999,-31.019999,-26.64
1553846302320,1.7957061999999997,9.545974000000001,1.6041641000000002,0.0049926020000000005,-0.058093282999999996,-0.011328496,27.24,-30.42,-26.58
1553846302340,1.8579572,9.57231,1.6496553,-0.008446434000000001,-0.07214319,-0.010106766,26.699999,-30.599998,-27.48
1553846302361,1.8675343999999998,9.543579,1.6831752,-0.020663738,-0.074586645,-0.0070524393,25.859999,-30.9,-27.599998
1553846302380,1.8675343999999998,9.502875999999999,1.7190893,-0.029215854,-0.08191703,-0.004608978,25.56,-30.66,-27.42
1553846302400,1.908237,9.471751,1.7621863000000002,-0.021274604,-0.078862704,-0.005830709,25.859999,-30.179997999999998,-27.42
1553846302420,1.9633054,9.428655000000001,1.7837347,-0.016387682,-0.07275405,-0.013161092,25.74,-30.66,-26.939999
1553846302440,1.9656997,9.500483000000001,1.7837347,-0.007835569,-0.05320636,-0.015604551999999999,26.039998999999998,-31.38,-26.64
1553846302460,1.9441511999999999,9.553157,1.7190893,-0.013944221000000001,-0.048319444,-0.008885034,26.34,-30.96,-26.88
1553846302480,1.9106313000000001,9.5483675,1.7310607,-0.020052874,-0.039156462999999996,0.004554,26.099998,-30.48,-26.58
1553846302500,1.9369683000000002,9.495694,1.786129,-0.015776817,-0.022052234,0.013106113,25.38,-30.539998999999998,-27.48
1553846302520,1.9489397000000002,9.407105,1.7358493000000002,-0.008446434000000001,-0.014110987,0.017993037,25.019999,-30.84,-27.18
1553846302540,1.9561224999999998,9.411894,1.786129,-0.0053921076,-0.010445796,0.009440923,25.199999,-31.019999,-27.06
1553846302560,1.908237,9.466963,1.7286664,0.008046928,-0.0018936823000000001,0.0033322698,26.099998,-30.72,-27.18
1553846302580,1.8986599999999998,9.531608,1.647261,0.005603466999999999,-0.0055588734999999995,-0.0021655173,26.16,-30.539998999999998,-26.76
1553846302601,1.8507744,9.598647999999999,1.6688095,-0.0047812425,-0.026939157000000002,0.0021105395,25.74,-30.72,-26.699999
1553846302620,1.8914771000000001,9.543579,1.6664151999999999,-0.009668164,-0.042821657,0.010051788,25.8,-31.14,-27.18
1553846302640,1.8962656000000002,9.514847999999999,1.7143008000000002,-0.01150076,-0.044043384000000005,0.011884383,25.859999,-31.08,-27.06
1553846302661,1.8962656000000002,9.495694,1.7190893,-0.009057298,-0.046486847000000005,0.011884383,25.56,-30.539998999999998,-27.18
1553846302680,1.9273912,9.490905999999999,1.6999351000000003,-0.007835569,-0.04587598,0.008830056999999999,25.619999,-30.48,-28.26
1553846302700,1.9704881999999997,9.507666,1.6807808999999998,-0.007835569,-0.034880407,-0.0009437867999999999,26.16,-30.359999,-28.14
1553846302720,1.8723229,9.531608,1.7119064,-0.012111626,-0.032436945,-0.00033292157,26.16,-30.539998999999998,-27.96
1553846302740,1.8866886000000003,9.510059,1.7310607,-0.015776817,-0.050152034000000005,-0.0021655173,25.56,-30.84,-27.539998999999998
1553846302760,1.8914771000000001,9.534002000000001,1.7166951000000001,-0.010889893999999999,-0.061758477,-0.005830709,25.619999,-30.42,-27.539998999999998
1553846302780,1.9106313000000001,9.517242,1.6424724999999998,-0.015165952,-0.06725626400000001,-0.01071763,26.039998999999998,-30.42,-27.9
1553846302800,1.9369683000000002,9.452597,1.7071179,-0.02188547,-0.07336491,-0.016215418,25.56,-31.08,-28.38
1553846302820,1.9202085,9.454991,1.8100717,-0.010889893999999999,-0.08741481599999999,-0.021713205,25.619999,-30.779999,-28.32
1553846302841,1.9273912,9.443019999999999,1.7789462,-0.0029486464,-0.094745204,-0.027210994,25.74,-30.3,-27.66
1553846302860,1.9872481,9.452597,1.6855695,0.003770871,-0.08680396,-0.025378397,25.68,-30.359999,-27.779999
1553846302881,1.9872481,9.517242,1.6951466,0.0043817363,-0.06542367,-0.01988061,25.68,-30.96,-27.599998
1553846302900,1.9872481,9.534002000000001,1.7047237000000002,0.003770871,-0.058704152999999995,-0.011939362,25.32,-31.08,-27.72
1553846302920,2.0279508,9.574705,1.7478206000000003,0.00010567969,-0.045265112,-0.0009437867999999999,26.46,-31.679997999999998,-24.18
1553846302940,1.9944308999999998,9.550761999999999,1.733455,-0.0029486464,-0.026939157000000002,0.008219192,27.06,-31.619999,-22.56
1553846302960,2.030345,9.443019999999999,1.7166951000000001,0.0019382754,-0.0031154128000000004,0.01616044,26.4,-30.66,-23.16
1553846302981,2.0686533,9.411894,1.7406378,0.017820772,0.031703907999999996,0.014327845,26.4,-30.599998,-23.699999
1553846303000,2.0447106,9.435837,1.7454262999999999,0.02576202,0.060414575,0.014938709,26.58,-30.779999,-23.4
1553846303021,1.9656997,9.505271,1.6999351000000003,0.034925,0.079351395,0.010662653000000001,26.22,-31.32,-23.58
1553846303040,1.8842942999999999,9.550761999999999,1.6616267,0.024540287999999997,0.07446447,0.010662653000000001,26.46,-31.32,-23.519999
1553846303061,1.8986599999999998,9.565128,1.647261,0.015377311000000001,0.057971112000000005,0.011884383,26.64,-30.96,-23.4
1553846303080,1.9273912,9.557945,1.6089526,0.0025491407,0.05430592,0.016771305,26.699999,-30.9,-22.74
1553846303100,1.9513340000000001,9.531608,1.6017698,-0.0053921076,0.05919284,0.015549575,27.359999,-30.9,-22.859999
1553846303120,1.8699286,9.5483675,1.6424724999999998,-0.0041703773,0.06224717,0.013716978999999999,27.119999,-31.14,-24.66
1553846303140,1.8819,9.581888000000001,1.6305011999999999,-0.01027903,0.049418997,0.005775731,26.64,-31.5,-27.3
1553846303160,1.8340145,9.529214,1.6975409,-0.018831143,0.020708332,0.003943135,25.5,-31.8,-27.359999
1553846303180,1.8795058,9.512454,1.664021,-0.020052874,-0.010445796,0.0076083266000000005,25.74,-31.32,-27.48
1553846303200,1.8890828000000002,9.505271,1.6616267,-0.022496332999999997,-0.022052234,-0.0009437867999999999,26.82,-30.24,-27.96
1553846303220,1.8890828000000002,9.524425500000001,1.7286664,-0.030437581000000002,-0.040378194,-0.0076633045,26.4,-30.3,-27.9
1553846303240,1.9058428,9.507666,1.7238779,-0.032881044,-0.059315015,-0.010106766,25.619999,-30.779999,-28.14
1553846303260,1.8842942999999999,9.512454,1.7095122,-0.03837883,-0.07336491,-0.010106766,25.08,-30.179997999999998,-28.439999
1553846303280,1.8866886000000003,9.478933999999999,1.7119064,-0.04204402,-0.07703011,-0.005830709,24.6,-29.64,-28.5
1553846303300,1.8819,9.512454,1.6903580000000002,-0.043265752000000005,-0.080084436,-0.006441574,24.9,-30.48,-28.619999
1553846303321,1.8914771000000001,9.529214,1.7286664,-0.054261327000000005,-0.08191703,0.004554,25.38,-31.38,-29.099998
1553846303340,1.924997,9.538791,1.6999351000000003,-0.06525689999999999,-0.078862704,0.015549575,25.019999,-29.699999,-28.199999
1553846303360,1.9872481,9.522031,1.7358493000000002,-0.07380901,-0.06786713,0.020436496999999998,25.38,-30.0,-27.539998999999998
1553846303381,2.0016138999999997,9.505271,1.7502148999999998,-0.07686334,-0.040378194,0.01738217,25.199999,-30.119999,-27.72
1553846303400,2.0159793,9.519637,1.6712039,-0.07441988599999999,-0.008002334,0.012495248999999998,25.619999,-30.72,-28.08
1553846303420,2.030345,9.498088000000001,1.6759924,-0.07808507,0.01704314,0.011273518,26.039998999999998,-30.66,-27.66
1553846303441,2.0016138999999997,9.500483000000001,1.8172544999999998,-0.07136556,0.034147367000000005,0.013716978999999999,25.8,-30.42,-27.3
1553846303460,1.9848539,9.454991,1.8052831999999999,-0.046930942999999996,0.051251594000000004,0.0069974614,25.5,-30.96,-27.48
1553846303480,1.9848539,9.450203,1.7909175,-0.040822294,0.061636302999999996,0.0021105395,25.38,-31.019999,-27.66
1553846303501,1.9345740000000002,9.433442999999999,1.812466,-0.029826717000000003,0.072021015,-0.015604551999999999,25.5,-30.539998999999998,-28.56
1553846303520,1.8938714,9.4932995,1.812466,-0.023718065,0.061025437,-0.022934936,25.859999,-30.0,-28.32
1553846303541,1.8675343999999998,9.474146000000001,1.8052831999999999,-0.022496332999999997,0.043310344,-0.020491473,25.019999,-30.179997999999998,-28.199999
1553846303560,1.8579572,9.47654,1.786129,-0.018220278,0.03659083,-0.024156665,25.38,-30.42,-27.84
1553846303580,1.8579572,9.483723,1.8052831999999999,-0.013333356000000001,0.030482177000000003,-0.022934936,25.68,-30.3,-27.96
1553846303600,1.8699286,9.519637,1.7933118000000001,-0.017609414,0.032925636,-0.02110234,26.34,-30.3,-28.38
1553846303620,1.8675343999999998,9.514847999999999,1.8196488999999998,-0.02432893,0.026816985,-0.024156665,25.38,-30.359999,-28.56
1553846303640,1.8435916,9.507666,1.9417567999999998,-0.024939793999999998,0.012767083,-0.019269746,25.5,-30.24,-28.8
1553846303661,1.838803,9.440625,1.9513340000000001,-0.02188547,-0.011056661,-0.018048013999999998,25.68,-29.58,-29.279999
1553846303680,1.8651401,9.435837,1.9441511999999999,-0.023107199,-0.029382618,-0.016215418,25.56,-29.699999,-28.8
1553846303701,1.9441511999999999,9.421472,1.9297855,-0.026161525,-0.029382618,-0.025378397,26.099998,-29.76,-29.16
1553846303720,1.9273912,9.445414999999999,1.9728824,-0.023718065,-0.027550022999999996,-0.030265318,25.92,-29.64,-28.92
1553846303741,1.9297855,9.457385,1.9465453999999998,-0.020663738,-0.023884831000000002,-0.028432721,25.859999,-29.699999,-28.14
1553846303761,1.9178141,9.4932995,1.9537282,-0.029826717000000003,-0.028771752,-0.025378397,25.8,-29.939999,-29.22
1553846303781,1.9034485,9.452597,1.9992193999999999,-0.029826717000000003,-0.03304781,-0.019269746,25.8,-29.82,-29.039998999999998
1553846303800,1.9178141,9.438231,1.9537282,-0.026772391,-0.025717426,-0.016826283,25.26,-30.42,-29.099998
1553846303820,1.9417567999999998,9.443019999999999,1.9130256,-0.029826717000000003,-0.023273965,-0.019269746,25.68,-30.72,-29.699999
1553846303840,1.924997,9.471751,1.9728824,-0.03776797,-0.025717426,-0.011328496,25.56,-29.939999,-29.58
1553846303861,1.9417567999999998,9.454991,2.0064023,-0.034713637,-0.02144137,-0.018048013999999998,25.619999,-29.699999,-29.519999
1553846303880,1.960911,9.426260000000001,1.9992193999999999,-0.03227018,-0.026328294,-0.016215418,25.68,-30.179997999999998,-29.16
1553846303901,1.9441511999999999,9.380769,2.0040080000000002,-0.023107199,-0.012889257,-0.0052198432,25.14,-30.0,-29.34
1553846303920,1.9465453999999998,9.385557,1.9992193999999999,-0.013944221000000001,0.0017715092000000002,-0.003387248,24.779999,-30.0,-30.06
1553846303940,1.9130256,9.428655000000001,2.0040080000000002,-0.0023377811999999998,0.0078801615,-0.0021655173,25.199999,-29.58,-29.76
1553846303960,1.8962656000000002,9.416683,2.0064023,0.0062143323,0.012767083,0.0014996742000000002,25.26,-29.64,-29.279999
1553846303980,1.8866886000000003,9.416683,1.9848539,0.010490389,0.010934488000000001,0.0014996742000000002,25.68,-29.76,-28.98
1553846304000,1.8962656000000002,9.4142885,1.9345740000000002,0.014766445,0.013377948999999998,0.00027794369999999997,25.8,-29.46,-28.14
1553846304021,1.8675343999999998,9.445414999999999,1.8962656000000002,0.014766445,0.021319197,-0.003387248,25.439999,-29.279999,-28.199999
1553846304040,1.8435916,9.490905999999999,1.9369683000000002,0.018431637,0.025595253,-0.005830709,25.14,-29.76,-29.039998999999998
1553846304060,1.8292258999999997,9.524425500000001,2.0183737,0.023929425,0.020708332,-0.0015546521,25.26,-29.76,-29.4
1553846304080,1.8890828000000002,9.483723,1.9920366000000003,0.023929425,0.00421497,-0.00033292157,25.56,-29.4,-29.519999
1553846304101,1.9226026999999999,9.431047999999999,1.9704881999999997,0.025151156,0.0017715092000000002,-0.00827417,25.92,-29.76,-28.38
1553846304120,1.9321798,9.419077,1.9441511999999999,0.030648941000000002,0.018264871000000002,-0.016215418,25.5,-30.3,-27.72
1553846304141,1.9034485,9.435837,1.9202085,0.035535865,0.033536500000000004,-0.016826283,25.619999,-30.42,-28.859999
1553846304161,1.8364087,9.4932995,1.9393626,0.03859019,0.037201695,-0.015604551999999999,25.98,-29.699999,-29.039998999999998
1553846304181,1.8268316999999998,9.545974000000001,1.9010541,0.030648941000000002,0.028038716,-0.003998113,25.5,-29.279999,-28.98
1553846304200,1.8220432,9.550761999999999,1.8842942999999999,0.025151156,0.017654005,0.0027214046999999996,24.96,-29.039998999999998,-28.199999
1553846304220,1.8196488999999998,9.517242,1.8747171000000002,0.009268658,0.014599678999999999,0.011884383,25.199999,-29.58,-28.439999
1553846304240,1.8268316999999998,9.478933999999999,1.8986599999999998,-0.0053921076,0.006658430999999999,0.018603900000000003,25.38,-29.939999,-29.46
1553846304260,1.8771113999999998,9.483723,1.8795058,-0.006613838,0.004825835,0.022879956,25.92,-29.22,-29.46
1553846304280,1.8675343999999998,9.519637,1.9058428,-0.012111626,0.009101893,0.024101688,26.039998999999998,-29.46,-29.22
1553846304304,1.9106313000000001,9.474146000000001,1.9728824,-0.0029486464,0.0017715092000000002,0.025323419,25.859999,-30.539998999999998,-28.32
1553846304320,1.9321798,9.445414999999999,1.9417567999999998,-0.0017269160999999998,-0.001282817,0.025934285,25.68,-30.42,-28.26
1553846304341,1.9273912,9.4142885,1.9297855,-0.0017269160999999998,-6.108652500000001e-05,0.014938709,25.199999,-29.88,-29.22
1553846304360,1.9058428,9.445414999999999,1.8819,0.003770871,0.0011606439,0.003943135,25.38,-29.88,-29.34
1553846304380,1.9226026999999999,9.45978,1.9034485,0.0019382754,-0.0025045476,0.0027214046999999996,25.32,-29.699999,-29.58
1553846304401,1.9130256,9.474146000000001,1.9034485,0.006825197,0.0029932396,0.0076083266000000005,25.08,-29.82,-29.34
1553846304420,1.8986599999999998,9.486116,1.9154198,0.011101254,0.009712758,0.0063865962,25.38,-29.82,-29.519999
1553846304440,1.8986599999999998,9.457385,1.9202085,0.014766445,0.011545353000000001,0.003943135,25.56,-30.06,-29.46
1553846304461,1.8962656000000002,9.428655000000001,1.9010541,0.020264233,0.010934488000000001,-0.006441574,26.279999,-30.06,-28.32
1553846304481,1.9034485,9.47654,1.8986599999999998,0.019653369,0.013988813999999999,-0.0076633045,26.22,-30.0,-27.539998999999998
1553846304500,1.8938714,9.466963,1.9226026999999999,0.028816348,0.013377948999999998,-0.0009437867999999999,25.92,-30.179997999999998,-27.9
1553846304520,1.924997,9.450203,1.8771113999999998,0.026983751,0.021930063,-0.003998113,25.98,-29.82,-28.32
1553846304540,1.9154198,9.483723,1.9010541,0.02820548,0.026816985,-0.0021655173,25.439999,-29.88,-27.779999
1553846304560,1.9130256,9.502875999999999,1.8986599999999998,0.026372885,0.026206119,-0.0015546521,25.98,-30.179997999999998,-28.5
1553846304581,1.9178141,9.471751,1.8771113999999998,0.028816348,0.03597996,0.0014996742000000002,26.22,-30.119999,-28.92
1553846304600,1.9393626,9.447808,1.8459859,0.03125981,0.04880813,0.0014996742000000002,25.56,-30.0,-29.22
1553846304621,1.9202085,9.440625,1.8340145,0.035535865,0.07446447,0.003943135,25.199999,-30.9,-28.98
1553846304640,1.8795058,9.466963,1.8483802,0.03859019,0.07996226,0.0021105395,25.199999,-30.84,-28.5
1553846304660,1.8292258999999997,9.524425500000001,1.8579572,0.041644517,0.072021015,0.0021105395,25.14,-30.359999,-28.74
1553846304680,1.8220432,9.498088000000001,1.7813405,0.034314133,0.059803706,0.0051648653999999995,25.619999,-30.24,-29.519999
1553846304700,1.8244373999999999,9.519637,1.812466,0.028816348,0.057971112000000005,0.003943135,25.859999,-29.699999,-29.34
1553846304720,1.8292258999999997,9.519637,1.7909175,0.02820548,0.057360243,0.0021105395,25.68,-29.34,-28.26
1553846304740,1.7909175,9.555551,1.7573976999999998,0.022707692999999998,0.05552765,0.00027794369999999997,25.98,-29.76,-27.539998999999998
1553846304760,1.7933118000000001,9.545974000000001,1.7885233,0.017209906,0.04880813,-0.00033292157,26.64,-29.82,-28.14
1553846304780,1.802889,9.517242,1.7789462,0.008657793,0.04025602,-0.0009437867999999999,26.58,-29.279999,-28.32
1553846304800,1.8076775,9.529214,1.8004947,0.0062143323,0.033536500000000004,-0.0027763825,26.519999,-29.82,-28.68
1553846304820,1.8076775,9.486116,1.802889,0.0074360627,0.029260445,-0.0052198432,26.4,-30.9,-28.38
1553846304841,1.7957061999999997,9.500483000000001,1.8340145,0.006825197,0.023762656,-0.005830709,26.279999,-30.42,-28.14
1553846304860,1.8220432,9.490905999999999,1.8411973999999998,0.010490389,0.015210545,-0.003387248,26.82,-29.699999,-29.099998
1553846304880,1.8148602999999999,9.478933999999999,1.8076775,0.008657793,0.008491027,-0.004608978,26.76,-29.699999,-29.039998999999998
1553846304901,1.8004947,9.534002000000001,1.7981004,0.0049926020000000005,0.006047566,-0.008885034,26.279999,-29.699999,-28.74
1553846304920,1.7741576000000001,9.534002000000001,1.8220432,-0.00050518557,0.0029932396,-0.0076633045,25.859999,-30.179997999999998,-28.38
1553846304940,1.7813405,9.553157,1.8220432,-0.0023377811999999998,-0.008002334,-0.0027763825,26.099998,-30.3,-27.96
1553846304960,1.7837347,9.536397000000001,1.8411973999999998,-0.009668164,-0.015332717,0.00027794369999999997,26.279999,-30.599998,-28.38
1553846304980,1.8220432,9.466963,1.8675343999999998,-0.010889893999999999,-0.015332717,0.0014996742000000002,25.74,-30.539998999999998,-28.14
1553846305000,1.8340145,9.447808,1.8627458,0.00010567969,-0.011056661,-0.0015546521,25.68,-29.699999,-27.42
1553846305021,1.8459859,9.474146000000001,1.8603516,0.011712118999999998,-0.0049480083,-0.006441574,26.34,-30.3,-27.539998999999998
1553846305041,1.8340145,9.522031,1.9058428,0.0062143323,-0.015943583,-0.01071763,26.58,-30.48,-27.599998
1553846305061,1.8316202000000001,9.4932995,1.8411973999999998,0.008657793,-0.024495697,-0.01071763,26.64,-30.599998,-27.599998
1553846305080,1.8364087,9.486116,1.8220432,0.0049926020000000005,-0.026328294,-0.00827417,25.92,-29.82,-28.26
1553846305101,1.8435916,9.495694,1.8555629,0.0074360627,-0.022052234,-0.004608978,26.76,-29.64,-28.32
1553846305121,1.8148602999999999,9.486116,1.8172544999999998,0.0074360627,-0.022052234,0.0014996742000000002,26.82,-29.939999,-28.199999
1553846305140,1.8244373999999999,9.4932995,1.802889,0.0019382754,-0.017776178,0.005775731,26.64,-29.46,-28.019999
1553846305160,1.8196488999999998,9.507666,1.7957061999999997,-0.0041703773,-0.020219638999999998,0.010662653000000001,26.46,-29.519999,-28.32
1553846305180,1.8364087,9.517242,1.8076775,-0.006613838,-0.018387043999999998,0.018603900000000003,26.16,-30.119999,-28.68
1553846305200,1.8675343999999998,9.4932995,1.7981004,-0.0023377811999999998,-0.020219638999999998,0.014938709,26.099998,-30.539998999999998,-29.039998999999998
1553846305221,1.8986599999999998,9.498088000000001,1.7933118000000001,-0.009057298,-0.012889257,0.010051788,25.439999,-30.119999,-29.039998999999998
1553846305240,1.8914771000000001,9.495694,1.8052831999999999,-0.007835569,-0.00983493,0.0069974614,25.38,-30.06,-27.359999
1553846305261,1.8866886000000003,9.483723,1.8459859,-0.0035595119,-0.006780604399999999,0.0063865962,26.039998999999998,-30.779999,-26.939999
1553846305282,1.8675343999999998,9.517242,1.8340145,0.0019382754,0.0029932396,0.005775731,26.699999,-30.06,-28.26
1553846305301,1.8316202000000001,9.500483000000001,1.8076775,0.0062143323,0.009712758,0.0076083266000000005,26.64,-29.58,-28.859999
1553846305320,1.7957061999999997,9.526819,1.7933118000000001,0.008046928,0.01582141,0.0076083266000000005,26.519999,-29.939999,-28.68
1553846305340,1.7981004,9.490905999999999,1.7981004,0.009879523000000001,0.012767083,0.008830056999999999,26.519999,-30.66,-28.14
1553846305360,1.8196488999999998,9.500483000000001,1.8459859,0.008657793,0.0023823746,0.0033322698,25.8,-30.599998,-28.26
1553846305381,1.8531687,9.478933999999999,1.8411973999999998,0.008657793,-0.0018936823000000001,-0.0015546521,26.039998999999998,-30.539998999999998,-28.619999
1553846305400,1.8699286,9.507666,1.8435916,0.011712118999999998,-0.0025045476,-0.012550226000000001,26.34,-30.779999,-28.32
1553846305421,1.8316202000000001,9.507666,1.8962656000000002,0.014766445,-0.0073914696,-0.014382822,26.699999,-30.48,-28.32
1553846305440,1.8579572,9.498088000000001,1.8555629,0.017209906,-0.0031154128000000004,-0.010106766,27.06,-29.939999,-28.199999
1553846305460,1.8244373999999999,9.500483000000001,1.8172544999999998,0.011101254,-0.010445796,-0.011328496,27.119999,-30.599998,-27.119999
1553846305481,1.8435916,9.510059,1.8459859,0.009268658,-0.012889257,-0.011328496,26.64,-31.199999,-26.76
1553846305500,1.8579572,9.524425500000001,1.8052831999999999,0.0013274101999999999,-0.012278391999999999,-0.0076633045,26.279999,-30.96,-27.539998999999998
1553846305520,1.8651401,9.524425500000001,1.8172544999999998,-0.009668164,-0.006780604399999999,-0.0027763825,26.039998999999998,-30.48,-28.019999
1553846305540,1.8459859,9.536397000000001,1.8052831999999999,-0.014555086,-0.0006719517999999999,0.0027214046999999996,25.08,-30.179997999999998,-28.859999
1553846305560,1.8316202000000001,9.526819,1.7813405,-0.019442009,-0.0031154128000000004,0.0051648653999999995,25.32,-30.9,-28.26
1553846305580,1.8627458,9.541185,1.8316202000000001,-0.021274604,0.0005497787,0.008830056999999999,25.74,-30.779999,-27.48
1553846305600,1.8435916,9.483723,1.838803,-0.017609414,-0.0018936823000000001,0.013106113,25.38,-30.119999,-28.38
1553846305620,1.8340145,9.464568,1.8196488999999998,-0.02188547,-0.011667526000000001,0.011273518,25.32,-30.599998,-29.099998
1553846305641,1.8555629,9.481328,1.802889,-0.021274604,-0.0049480083,0.008219192,25.92,-30.66,-28.8
1553846305660,1.8603516,9.507666,1.7621863000000002,-0.021274604,-0.001282817,0.009440923,26.4,-30.119999,-27.9
1553846305680,1.8555629,9.478933999999999,1.8196488999999998,-0.017609414,-0.0055588734999999995,0.010662653000000001,25.859999,-30.179997999999998,-28.32
1553846305700,1.8507744,9.495694,1.802889,-0.0041703773,0.0005497787,0.008219192,25.74,-30.48,-28.5
1553846305721,1.8603516,9.495694,1.8555629,-0.0011160509,-0.0043371436,0.0014996742000000002,26.22,-30.3,-28.5
1553846305740,1.8651401,9.450203,1.8795058,0.0049926020000000005,-0.017165313999999997,-0.0027763825,25.74,-30.42,-29.22
1553846305760,1.9034485,9.452597,1.8340145,0.011712118999999998,-0.016554449,-0.015604551999999999,25.5,-30.72,-28.68
1553846305780,1.9130256,9.474146000000001,1.8268316999999998,0.015988177,-0.0073914696,-0.016215418,25.56,-30.119999,-27.9
1553846305800,1.8914771000000001,9.47654,1.838803,0.020875098,0.0029932396,-0.014382822,25.859999,-29.88,-28.08
1553846305820,1.8842942999999999,9.505271,1.8364087,0.022096828,0.009101893,-0.0094959,26.46,-29.82,-28.68
1553846305840,1.8555629,9.522031,1.8364087,0.017209906,0.010934488000000001,-0.005830709,26.46,-30.24,-29.64
1553846305860,1.8699286,9.522031,1.8483802,0.010490389,0.0078801615,-0.0021655173,26.16,-30.3,-29.76
1553846305881,1.8531687,9.514847999999999,1.8483802,0.008046928,0.0078801615,0.0014996742000000002,25.619999,-29.46,-28.439999
1553846305900,1.8675343999999998,9.490905999999999,1.8603516,0.0025491407,0.006047566,0.0051648653999999995,25.26,-30.179997999999998,-28.14
1553846305921,1.8771113999999998,9.522031,1.8483802,-0.0017269160999999998,0.006047566,0.004554,25.32,-30.66,-28.199999
1553846305940,1.8411973999999998,9.529214,1.8100717,-0.0017269160999999998,0.006047566,0.0063865962,25.38,-30.42,-28.08
1553846305960,1.8268316999999998,9.553157,1.7981004,-0.007835569,-0.0025045476,0.0069974614,25.439999,-30.539998999999998,-28.439999
1553846305980,1.838803,9.507666,1.8052831999999999,-0.010889893999999999,-0.0049480083,0.008219192,26.22,-30.84,-27.599998
1553846306000,1.8340145,9.471751,1.8340145,-0.012111626,-0.011667526000000001,0.0051648653999999995,26.64,-30.84,-27.48
1553846306021,1.8507744,9.4932995,1.8364087,-0.0017269160999999998,-0.013500122,-0.003387248,26.099998,-30.48,-28.019999
1553846306040,1.8459859,9.524425500000001,1.7981004,-0.0029486464,-0.015332717,-0.010106766,26.22,-30.359999,-28.439999
1553846306061,1.8316202000000001,9.498088000000001,1.8220432,0.00010567969,-0.020219638999999998,-0.012550226000000001,26.34,-30.0,-28.859999
1553846306080,1.8459859,9.522031,1.7933118000000001,-0.0047812425,-0.024495697,-0.012550226000000001,26.099998,-30.06,-28.019999
1553846306101,1.8364087,9.502875999999999,1.8196488999999998,-0.0035595119,-0.025717426,-0.011939362,26.279999,-30.599998,-27.539998999999998
1553846306120,1.8699286,9.502875999999999,1.8435916,-0.0023377811999999998,-0.017776178,-0.011328496,25.98,-30.3,-28.08
1553846306141,1.8914771000000001,9.466963,1.8268316999999998,0.0043817363,-0.016554449,-0.01071763,25.5,-29.82,-28.56
1553846306160,1.9226026999999999,9.45978,1.8771113999999998,0.008046928,-0.011056661,-0.015604551999999999,25.199999,-29.939999,-28.38
1553846306180,1.9273912,9.454991,1.8244373999999999,0.012322985,0.0023823746,-0.019269746,25.56,-30.66,-27.24
1553846306200,1.8699286,9.488511,1.8316202000000001,0.017209906,0.018264871000000002,-0.016826283,26.4,-30.3,-27.42
1553846306220,1.8316202000000001,9.514847999999999,1.8244373999999999,0.015988177,0.024373524,-0.011328496,26.699999,-30.42,-28.68
1553846306240,1.8316202000000001,9.524425500000001,1.8268316999999998,0.011101254,0.023151792999999997,-0.0052198432,26.4,-30.42,-28.859999
1553846306260,1.8196488999999998,9.522031,1.8076775,0.0043817363,0.013988813999999999,0.0027214046999999996,26.099998,-30.179997999999998,-28.38
1553846306280,1.8364087,9.490905999999999,1.8100717,-0.0011160509,0.020097468,0.0063865962,26.16,-30.599998,-27.42
1553846306300,1.812466,9.512454,1.8364087,-0.0047812425,0.014599678999999999,0.0063865962,25.92,-30.359999,-27.48
1553846306320,1.8052831999999999,9.510059,1.8172544999999998,-0.007835569,0.015210545,0.011273518,25.439999,-30.179997999999998,-28.5
1553846306341,1.802889,9.505271,1.8052831999999999,-0.009057298,0.009712758,0.013106113,25.68,-30.42,-28.32
1553846306360,1.7765520000000001,9.519637,1.8220432,-0.01027903,0.006047566,0.010662653000000001,26.519999,-30.3,-27.72
1553846306380,1.8244373999999999,9.502875999999999,1.7933118000000001,-0.0035595119,0.007269296999999999,0.010662653000000001,26.82,-29.88,-28.019999
1553846306401,1.8268316999999998,9.512454,1.7765520000000001,-0.01027903,0.008491027,0.008830056999999999,26.64,-30.06,-28.08
1553846306420,1.8076775,9.526819,1.8411973999999998,-0.006613838,0.0017715092000000002,0.0051648653999999995,25.5,-30.72,-28.5
1553846306440,1.838803,9.495694,1.8052831999999999,-0.006613838,-0.011056661,-0.00033292157,25.439999,-30.48,-28.92
1553846306461,1.8196488999999998,9.483723,1.7717633000000002,-0.0035595119,-0.011056661,-0.0027763825,26.039998999999998,-30.119999,-27.779999
1553846306480,1.8292258999999997,9.488511,1.8004947,-0.0011160509,-0.003726278,0.00027794369999999997,25.439999,-30.3,-27.119999
1553846306500,1.8459859,9.500483000000001,1.7885233,0.0013274101999999999,0.0017715092000000002,0.0033322698,25.619999,-30.96,-27.3
1553846306521,1.8364087,9.505271,1.7957061999999997,0.0013274101999999999,-0.001282817,0.0033322698,25.68,-30.779999,-27.72
1553846306540,1.8364087,9.500483000000001,1.786129,-0.00050518557,-0.001282817,0.0033322698,25.8,-29.88,-27.779999
1553846306561,1.8627458,9.512454,1.8052831999999999,-0.00050518557,-0.003726278,0.003943135,26.22,-29.88,-28.08
1553846306580,1.8866886000000003,9.512454,1.8268316999999998,-0.00050518557,0.0029932396,-0.00033292157,26.279999,-30.179997999999998,-28.38
1553846306600,1.8819,9.483723,1.8555629,-0.0011160509,0.014599678999999999,0.00027794369999999997,25.859999,-30.179997999999998,-28.08
1553846306620,1.8435916,9.495694,1.8411973999999998,0.0043817363,0.023151792999999997,0.0027214046999999996,25.56,-30.72,-27.96
1553846306640,1.8052831999999999,9.519637,1.8555629,0.0049926020000000005,0.0194866,0.003943135,25.859999,-30.96,-28.019999
1553846306661,1.8052831999999999,9.514847999999999,1.8723229,0.003160006,0.009712758,0.0076083266000000005,25.92,-30.119999,-27.539998999999998
1553846306680,1.8172544999999998,9.510059,1.8603516,0.00010567969,0.0023823746,0.005775731,25.68,-30.179997999999998,-27.66
1553846306700,1.8220432,9.4932995,1.8100717,-0.0035595119,0.008491027,0.0069974614,25.859999,-30.359999,-27.539998999999998
1553846306720,1.802889,9.545974000000001,1.8244373999999999,-0.0035595119,0.010934488000000001,0.005775731,26.46,-30.599998,-27.84
1553846306741,1.7909175,9.550761999999999,1.8220432,-0.006613838,0.009712758,0.0076083266000000005,26.279999,-30.179997999999998,-28.32
1553846306760,1.8364087,9.543579,1.8531687,-0.009668164,0.0029932396,0.0063865962,25.619999,-29.88,-27.84
1553846306780,1.8364087,9.524425500000001,1.812466,-0.013333356000000001,-0.0043371436,0.004554,25.98,-29.82,-27.66
1553846306800,1.8004947,9.510059,1.838803,-0.015776817,-0.008002334,0.0063865962,26.46,-29.22,-27.779999
1553846306820,1.7933118000000001,9.486116,1.8268316999999998,-0.018831143,-0.009224065,0.0069974614,25.74,-28.98,-28.26
1553846306840,1.7885233,9.502875999999999,1.8435916,-0.018220278,-0.017165313999999997,0.0063865962,25.8,-29.519999,-28.439999
1553846306860,1.838803,9.498088000000001,1.8627458,-0.01272249,-0.02144137,0.011273518,26.46,-30.48,-28.74
1553846306880,1.8531687,9.505271,1.8196488999999998,-0.016998546,-0.017776178,0.012495248999999998,25.98,-30.48,-28.68
1553846306900,1.8890828000000002,9.495694,1.838803,-0.013333356000000001,-0.014110987,0.0063865962,25.92,-30.179997999999998,-28.74
1553846306920,1.8771113999999998,9.47654,1.8507744,-0.009668164,-0.008002334,0.005775731,26.939999,-30.24,-28.199999
1553846306940,1.8795058,9.483723,1.8723229,-0.0047812425,-0.0086132,0.004554,26.34,-30.0,-28.14
1553846306961,1.8459859,9.478933999999999,1.9010541,-0.0029486464,-0.011667526000000001,0.0027214046999999996,25.56,-30.42,-28.56
1553846306980,1.8531687,9.469357,1.8795058,-0.0011160509,-0.011667526000000001,0.003943135,25.619999,-30.539998999999998,-28.199999
1553846307000,1.8699286,9.486116,1.8699286,0.0025491407,-0.011667526000000001,0.0008888089,25.619999,-29.76,-27.9
1553846307021,1.8651401,9.478933999999999,1.8747171000000002,-0.0023377811999999998,-0.012889257,0.0021105395,25.74,-29.76,-27.359999
1553846307040,1.8866886000000003,9.471751,1.8435916,-0.0017269160999999998,-0.0086132,0.0063865962,26.34,-30.599998,-27.42
1553846307060,1.8819,9.507666,1.8316202000000001,-0.0017269160999999998,-0.003726278,0.0027214046999999996,26.22,-30.48,-27.539998999999998
1553846307081,1.8723229,9.512454,1.9106313000000001,-0.0029486464,-0.001282817,0.0027214046999999996,25.5,-30.119999,-27.48
1553846307100,1.8651401,9.466963,1.9058428,0.0043817363,-0.0031154128000000004,0.0033322698,25.26,-30.179997999999998,-27.84
1553846307120,1.8819,9.452597,1.8842942999999999,0.003770871,-0.0006719517999999999,0.004554,25.92,-29.939999,-27.9
1553846307141,1.8819,9.47654,1.8771113999999998,0.0013274101999999999,0.004825835,0.0008888089,25.98,-30.119999,-27.779999
1553846307160,1.8699286,9.495694,1.8244373999999999,-0.0035595119,0.003604105,0.0063865962,25.619999,-30.119999,-28.56
1553846307181,1.8651401,9.526819,1.8435916,-0.007224703000000001,0.0005497787,0.0063865962,25.68,-30.0,-28.859999
1553846307200,1.8507744,9.553157,1.8531687,-0.012111626,0.003604105,0.013106113,25.26,-29.88,-28.019999
1553846307221,1.8483802,9.483723,1.8603516,-0.012111626,0.0011606439,0.016771305,25.26,-29.82,-27.96
1553846307240,1.8986599999999998,9.45978,1.8459859,-0.008446434000000001,0.006658430999999999,0.010662653000000001,25.859999,-29.88,-28.08
1553846307261,1.8771113999999998,9.457385,1.8579572,-0.007835569,0.013377948999999998,0.009440923,26.16,-30.06,-28.08
1553846307280,1.8866886000000003,9.474146000000001,1.8651401,-0.006613838,0.0194866,0.005775731,25.68,-30.84,-28.26
1553846307300,1.8483802,9.495694,1.8603516,-0.0035595119,0.016432276000000003,0.0051648653999999995,26.039998999999998,-30.66,-28.5
1553846307321,1.8292258999999997,9.490905999999999,1.8986599999999998,-0.0023377811999999998,0.0023823746,0.005775731,26.4,-30.119999,-28.26
1553846307340,1.8699286,9.45978,1.8795058,-0.0023377811999999998,-0.0073914696,0.0014996742000000002,26.46,-29.64,-27.539998999999998
1553846307360,1.9058428,9.474146000000001,1.8819,0.00010567969,-0.0086132,-0.00033292157,26.64,-30.3,-27.599998
1553846307381,1.9010541,9.454991,1.8555629,0.0043817363,-0.0025045476,-0.003998113,26.279999,-30.599998,-27.84
1553846307400,1.9130256,9.471751,1.8771113999999998,0.0074360627,0.003604105,-0.006441574,25.98,-30.119999,-27.599998
1553846307420,1.8938714,9.507666,1.8196488999999998,0.005603466999999999,-0.0006719517999999999,-0.0094959,26.279999,-30.3,-27.359999
1553846307440,1.8555629,9.5483675,1.8340145,-0.0029486464,-0.0006719517999999999,-0.005830709,26.519999,-30.599998,-27.18
1553846307460,1.8699286,9.507666,1.8579572,-0.0047812425,-0.006780604399999999,-0.0021655173,25.5,-30.48,-27.359999
1553846307481,1.8842942999999999,9.488511,1.8579572,-0.006002973000000001,-0.0086132,0.00027794369999999997,25.38,-30.06,-27.66
1553846307500,1.8723229,9.462174000000001,1.9058428,-0.009057298,-0.0061697387,0.0008888089,25.859999,-30.06,-27.84
1553846307520,1.8699286,9.450203,1.8842942999999999,-0.008446434000000001,-0.00983493,0.003943135,25.199999,-30.24,-28.199999
1553846307540,1.8723229,9.474146000000001,1.8651401,-0.006613838,-0.012278391999999999,0.003943135,24.6,-29.82,-28.26
1553846307560,1.9010541,9.481328,1.8723229,-0.0017269160999999998,-0.011667526000000001,0.0076083266000000005,24.9,-29.939999,-28.32
1553846307580,1.9106313000000001,9.481328,1.8579572,0.00010567969,-0.014110987,0.0076083266000000005,25.38,-30.42,-28.26
1553846307600,1.9010541,9.500483000000001,1.8507744,-0.0035595119,-0.015332717,0.0021105395,25.439999,-30.179997999999998,-28.5
1553846307621,1.9034485,9.481328,1.8483802,-0.007835569,-0.011056661,0.003943135,25.859999,-30.24,-29.039998999999998
1553846307640,1.8603516,9.483723,1.8579572,-0.007224703000000001,-0.013500122,-0.0009437867999999999,26.22,-30.24,-28.56
1553846307660,1.8555629,9.45978,1.8819,-0.0035595119,-0.00983493,-0.0009437867999999999,26.16,-30.3,-28.439999
1553846307680,1.8771113999999998,9.483723,1.8603516,-0.006613838,-0.011056661,0.0027214046999999996,25.8,-30.0,-28.68
1553846307701,1.8747171000000002,9.486116,1.8938714,0.0013274101999999999,-0.008002334,0.004554,25.92,-29.82,-28.56
1553846307720,1.9178141,9.481328,1.8220432,0.0043817363,0.0029932396,0.0069974614,26.16,-30.06,-29.64
1553846307741,1.9297855,9.505271,1.8795058,0.003160006,0.006047566,0.0008888089,25.92,-30.42,-29.64
1553846307760,1.8866886000000003,9.481328,1.9106313000000001,0.010490389,0.0011606439,-0.004608978,25.859999,-30.119999,-28.56
1553846307781,1.8747171000000002,9.450203,1.8603516,0.010490389,-0.0006719517999999999,-0.005830709,25.56,-29.88,-28.26
1553846307800,1.8914771000000001,9.47654,1.8866886000000003,0.012322985,0.0054367009999999995,-0.003387248,25.26,-30.179997999999998,-28.14
1553846307821,1.8603516,9.466963,1.8555629,0.017820772,0.018875737,0.0021105395,25.32,-30.48,-28.68
1553846307840,1.8771113999999998,9.483723,1.8531687,0.022096828,0.029260445,0.009440923,25.859999,-30.539998999999998,-28.68
1553846307860,1.8411973999999998,9.488511,1.8220432,0.023929425,0.039034292000000005,0.008830056999999999,26.64,-30.599998,-27.9
1553846307881,1.8364087,9.529214,1.8364087,0.022096828,0.041477747,0.008830056999999999,26.34,-31.199999,-28.859999
1553846307900,1.8316202000000001,9.522031,1.8220432,0.015988177,0.041477747,0.008219192,25.74,-30.3,-29.039998999999998
1553846307921,1.8435916,9.545974000000001,1.8076775,0.006825197,0.04453208,0.009440923,26.34,-29.76,-28.32
1553846307940,1.8483802,9.557945,1.8076775,0.0062143323,0.047586404000000006,0.012495248999999998,26.34,-30.3,-28.74
1553846307961,1.8148602999999999,9.541185,1.8148602999999999,0.003770871,0.05186246,0.017993037,25.14,-30.779999,-28.439999
1553846307980,1.8100717,9.541185,1.8507744,0.00010567969,0.047586404000000006,0.01738217,24.96,-30.66,-28.08
1553846308000,1.8435916,9.474146000000001,1.8555629,0.0025491407,0.045753807,0.014938709,25.74,-30.24,-28.14
1553846308020,1.8699286,9.416683,1.8938714,0.008657793,0.041477747,0.008219192,25.56,-30.42,-28.199999
1553846308040,1.8603516,9.435837,1.8603516,0.01659904,0.037812557000000004,0.00027794369999999997,25.619999,-30.779999,-28.199999
1553846308060,1.8268316999999998,9.505271,1.8172544999999998,0.01293385,0.034147367000000005,-0.003998113,26.279999,-30.359999,-27.66
1553846308080,1.786129,9.562733999999999,1.8483802,0.008046928,0.013988813999999999,-0.003998113,26.46,-29.939999,-27.18
1553846308101,1.7957061999999997,9.555551,1.8340145,0.0007165449,-0.008002334,-0.003387248,26.22,-30.48,-27.96
1553846308120,1.8316202000000001,9.522031,1.8340145,-0.01027903,-0.022663102,0.0021105395,26.16,-30.66,-28.199999
1553846308141,1.8627458,9.486116,1.8196488999999998,-0.01272249,-0.029993482000000002,-0.0021655173,25.859999,-30.66,-28.32
1553846308160,1.9130256,9.454991,1.8627458,-0.016387682,-0.036713,-0.005830709,25.5,-31.019999,-28.32
1553846308180,1.8986599999999998,9.447808,1.8723229,-0.017609414,-0.039156462999999996,-0.003387248,25.74,-30.779999,-27.84
1553846308200,1.9202085,9.469357,1.8723229,-0.018220278,-0.054428093,-0.0052198432,26.279999,-30.119999,-27.779999
1553846308220,1.9226026999999999,9.466963,1.8795058,-0.019442009,-0.06359107,-0.0015546521,26.279999,-29.88,-28.14
1553846308240,1.960911,9.435837,1.8795058,-0.019442009,-0.056871556,0.0008888089,25.439999,-29.88,-28.439999
1553846308260,1.9896424,9.445414999999999,1.8938714,-0.01272249,-0.04893030599999999,-0.0015546521,24.96,-30.06,-28.08
1553846308281,1.9920366000000003,9.466963,1.8603516,-0.010889893999999999,-0.036713,-0.0076633045,25.32,-29.699999,-27.66
1553846308301,1.9656997,9.486116,1.8555629,-0.01150076,-0.03182608,-0.00827417,26.34,-29.519999,-28.14
1553846308320,1.9226026999999999,9.488511,1.8627458,-0.013944221000000001,-0.029993482000000002,-0.005830709,26.34,-29.939999,-28.5
1553846308340,1.9178141,9.488511,1.8603516,-0.013944221000000001,-0.025717426,0.0008888089,25.619999,-30.06,-28.38
1553846308360,1.9297855,9.481328,1.8603516,-0.013944221000000001,-0.01899791,0.008219192,26.039998999999998,-30.179997999999998,-28.08
1553846308381,1.9417567999999998,9.471751,1.8459859,-0.01150076,-0.0049480083,0.011273518,26.279999,-30.96,-26.699999
1553846308400,1.9441511999999999,9.440625,1.8938714,-0.008446434000000001,-0.0006719517999999999,0.013106113,25.439999,-30.48,-26.88
1553846308420,1.9561224999999998,9.438231,1.8555629,0.0019382754,0.010934488000000001,0.011884383,25.14,-29.58,-28.439999
1553846308441,1.9393626,9.454991,1.8459859,0.0049926020000000005,0.013988813999999999,0.004554,25.56,-29.88,-28.98
1553846308460,1.8962656000000002,9.45978,1.9106313000000001,0.009879523000000001,0.012156218,-0.00033292157,25.619999,-30.24,-28.32
1553846308480,1.9058428,9.469357,1.8483802,0.009268658,0.0078801615,-0.0009437867999999999,25.98,-30.179997999999998,-27.0
1553846308500,1.8986599999999998,9.510059,1.8627458,0.009879523000000001,0.007269296999999999,-0.00033292157,26.16,-29.58,-27.66
1553846308520,1.8723229,9.478933999999999,1.8627458,0.009879523000000001,0.012156218,0.0063865962,25.859999,-29.58,-28.68
1553846308541,1.8819,9.466963,1.8890828000000002,0.01293385,0.013377948999999998,0.0076083266000000005,25.26,-30.0,-28.56
1553846308560,1.9034485,9.488511,1.8747171000000002,0.012322985,0.0078801615,0.0033322698,25.74,-30.179997999999998,-28.38
1553846308580,1.908237,9.469357,1.8914771000000001,0.013544715,0.010323622,0.0033322698,26.82,-30.599998,-27.3
1553846308600,1.9178141,9.469357,1.8795058,0.01293385,0.010934488000000001,0.0051648653999999995,26.88,-30.779999,-27.119999
1553846308620,1.924997,9.47654,1.8651401,0.014766445,0.0194866,0.0027214046999999996,26.22,-30.599998,-28.199999
1553846308641,1.9106313000000001,9.462174000000001,1.8723229,0.01659904,0.026816985,0.003943135,25.14,-30.72,-28.32
1553846308660,1.8579572,9.466963,1.8435916,0.019042501,0.03597996,0.0014996742000000002,25.38,-30.24,-28.5
1553846308680,1.8531687,9.507666,1.8962656000000002,0.015988177,0.023762656,0.004554,25.98,-30.06,-28.26
1553846308700,1.8747171000000002,9.474146000000001,1.8890828000000002,0.022096828,0.013988813999999999,0.0069974614,25.5,-30.42,-27.96
1553846308720,1.8938714,9.450203,1.8531687,0.022707692999999998,0.009712758,0.003943135,25.5,-29.939999,-28.56
1553846308740,1.9154198,9.481328,1.8459859,0.020875098,0.020097468,-0.003998113,25.14,-29.939999,-28.68
1553846308760,1.8866886000000003,9.514847999999999,1.8172544999999998,0.023318559,0.0194866,-0.0052198432,25.08,-29.939999,-28.619999
1553846308781,1.8747171000000002,9.529214,1.812466,0.014766445,0.01704314,-0.0009437867999999999,25.74,-30.24,-28.32
1553846308800,1.8555629,9.541185,1.802889,0.0062143323,0.013377948999999998,0.0051648653999999995,26.039998999999998,-30.359999,-27.359999
1553846308821,1.8819,9.505271,1.7933118000000001,-0.00050518557,0.012767083,0.013716978999999999,26.46,-30.3,-27.599998
1553846308840,1.8914771000000001,9.481328,1.8459859,-0.0017269160999999998,0.007269296999999999,0.014327845,25.98,-30.66,-28.26
1553846308861,1.9297855,9.462174000000001,1.8435916,0.0007165449,0.008491027,0.010662653000000001,25.74,-30.3,-28.8
1553846308880,1.9297855,9.454991,1.8890828000000002,0.003770871,0.006047566,0.0069974614,26.16,-30.3,-28.5
1553846308901,1.9154198,9.454991,1.8651401,0.0074360627,0.0029932396,0.0014996742000000002,25.98,-30.3,-27.96
1553846308920,1.9178141,9.4932995,1.812466,0.008046928,0.0029932396,-0.00033292157,25.92,-30.539998999999998,-28.26
1553846308941,1.9178141,9.488511,1.8004947,0.009879523000000001,0.008491027,-0.00033292157,25.8,-30.48,-28.14
1553846308960,1.8938714,9.526819,1.8196488999999998,0.010490389,0.009101893,0.0008888089,25.08,-29.88,-27.96
1553846308981,1.9010541,9.505271,1.8100717,0.0074360627,0.009712758,0.005775731,25.439999,-30.42,-27.96
1553846309000,1.8962656000000002,9.4932995,1.8340145,0.010490389,0.008491027,0.003943135,25.32,-30.539998999999998,-27.599998
1553846309020,1.908237,9.471751,1.8459859,0.011712118999999998,0.0029932396,0.0021105395,25.14,-29.64,-27.539998999999998
1553846309040,1.9058428,9.462174000000001,1.8244373999999999,0.014766445,0.0029932396,-0.0027763825,26.279999,-30.359999,-28.019999
1553846309060,1.9202085,9.512454,1.8196488999999998,0.014155581,0.0078801615,-0.0070524393,26.099998,-30.779999,-28.5
1553846309080,1.9154198,9.510059,1.8603516,0.013544715,0.0054367009999999995,-0.0021655173,25.619999,-30.66,-28.74
1553846309100,1.9369683000000002,9.474146000000001,1.8244373999999999,0.019042501,0.006658430999999999,-0.0021655173,25.859999,-31.26,-28.08
1553846309120,1.9465453999999998,9.466963,1.7981004,0.019653369,0.004825835,-0.003998113,26.22,-31.14,-27.84
1553846309140,1.9345740000000002,9.481328,1.8340145,0.021485964,0.0078801615,-0.008885034,26.16,-30.179997999999998,-28.38
1553846309161,1.9489397000000002,9.471751,1.8052831999999999,0.020875098,0.009712758,-0.014382822,26.039998999999998,-30.0,-28.26
1553846309181,1.924997,9.488511,1.7885233,0.023929425,0.010934488000000001,-0.016826283,25.68,-30.24,-27.24
1553846309200,1.8771113999999998,9.534002000000001,1.7909175,0.019042501,0.013988813999999999,-0.00827417,25.68,-30.179997999999998,-27.119999
1553846309220,1.8866886000000003,9.512454,1.7621863000000002,0.017209906,0.014599678999999999,0.0033322698,25.26,-30.72,-28.019999
1553846309241,1.8890828000000002,9.481328,1.8220432,0.01659904,0.012156218,0.0008888089,25.439999,-31.199999,-28.439999
1553846309260,1.9202085,9.498088000000001,1.8196488999999998,0.017820772,0.012156218,0.003943135,26.64,-30.9,-28.8
1553846309281,1.9154198,9.490905999999999,1.802889,0.017820772,0.010323622,0.0021105395,26.16,-30.66,-28.92
1553846309300,1.9226026999999999,9.483723,1.7669748,0.018431637,0.017654005,-0.0015546521,25.56,-30.599998,-27.779999
1553846309321,1.9154198,9.519637,1.7621863000000002,0.017209906,0.021930063,-0.0009437867999999999,26.099998,-30.9,-26.34
1553846309340,1.9034485,9.507666,1.7597919999999998,0.019653369,0.029260445,-0.0021655173,26.039998999999998,-31.14,-26.939999
1553846309360,1.8771113999999998,9.502875999999999,1.7430321,0.017820772,0.0353691,0.0021105395,25.619999,-30.96,-27.779999
1553846309381,1.8507744,9.522031,1.7573976999999998,0.017209906,0.034147367000000005,0.0069974614,26.22,-30.599998,-27.539998999999998
1553846309400,1.8675343999999998,9.500483000000001,1.7166951000000001,0.015377311000000001,0.03659083,0.0051648653999999995,26.46,-30.779999,-27.9
1553846309420,1.8555629,9.543579,1.7262721,0.008657793,0.03109304,-0.0009437867999999999,26.22,-30.779999,-27.539998999999998
1553846309441,1.8651401,9.529214,1.7119064,0.006825197,0.025595253,0.0014996742000000002,26.34,-30.66,-27.84
1553846309460,1.8627458,9.541185,1.7382435,0.0025491407,0.020097468,0.00027794369999999997,26.519999,-30.66,-27.599998
1553846309480,1.8651401,9.536397000000001,1.7190893,0.0043817363,0.024373524,0.0021105395,26.519999,-30.599998,-26.82
1553846309501,1.8795058,9.510059,1.7526091000000001,0.008657793,0.024373524,0.0014996742000000002,26.039998999999998,-31.08,-27.06
1553846309520,1.8555629,9.505271,1.7645805,0.010490389,0.018875737,-0.00033292157,26.58,-30.72,-27.18
1553846309540,1.8938714,9.4932995,1.7430321,0.010490389,0.011545353000000001,-0.0076633045,26.519999,-30.359999,-27.779999
1553846309560,1.8890828000000002,9.502875999999999,1.7478206000000003,0.008046928,0.006047566,-0.010106766,25.859999,-31.08,-27.72
1553846309580,1.8627458,9.531608,1.7717633000000002,0.009268658,0.007269296999999999,-0.0052198432,26.16,-30.9,-27.06
1553846309601,1.8699286,9.545974000000001,1.7071179,0.0062143323,0.008491027,-0.00033292157,26.16,-30.9,-26.58
1553846309620,1.8771113999999998,9.522031,1.7430321,0.0007165449,0.010934488000000001,0.004554,26.16,-31.619999,-26.099998
1553846309640,1.8795058,9.510059,1.7310607,0.0025491407,0.012767083,0.009440923,26.34,-31.199999,-26.82
1553846309660,1.908237,9.486116,1.7166951000000001,0.0025491407,0.011545353000000001,0.0033322698,26.519999,-30.72,-27.0
1553846309680,1.8962656000000002,9.500483000000001,1.7071179,0.0043817363,0.018875737,0.0008888089,26.22,-30.42,-26.34
1553846309700,1.8699286,9.512454,1.7071179,0.003770871,0.020097468,0.0008888089,25.74,-30.359999,-26.58
1553846309720,1.8555629,9.526819,1.7406378,0.0019382754,0.025595253,0.003943135,26.46,-31.019999,-26.519999
1553846309740,1.8483802,9.502875999999999,1.7478206000000003,0.0013274101999999999,0.014599678999999999,0.0051648653999999995,26.76,-31.08,-26.039998999999998
1553846309761,1.8627458,9.512454,1.7454262999999999,-0.0011160509,0.003604105,0.0051648653999999995,26.76,-30.72,-26.519999
1553846309780,1.8795058,9.514847999999999,1.7286664,0.003160006,-0.0031154128000000004,0.003943135,26.699999,-30.66,-26.46
1553846309801,1.8795058,9.512454,1.733455,0.0007165449,0.0023823746,-0.0027763825,26.58,-30.3,-26.76
1553846309820,1.8842942999999999,9.519637,1.7238779,0.0025491407,0.006658430999999999,-0.0009437867999999999,26.76,-30.359999,-28.26
1553846309840,1.8771113999999998,9.534002000000001,1.6903580000000002,0.0019382754,0.0078801615,-0.005830709,25.98,-31.199999,-28.14
1553846309860,1.8555629,9.517242,1.7741576000000001,-0.0029486464,0.0011606439,-0.003998113,25.92,-31.74,-27.72
1553846309880,1.9130256,9.4932995,1.7454262999999999,0.0013274101999999999,-0.0049480083,-0.0070524393,26.16,-31.08,-27.48
1553846309901,1.8747171000000002,9.474146000000001,1.7166951000000001,0.00010567969,0.0029932396,-0.00827417,26.16,-30.84,-27.3
1553846309920,1.8507744,9.522031,1.7478206000000003,0.0007165449,0.0054367009999999995,-0.004608978,26.22,-31.019999,-27.72
1553846309941,1.8579572,9.524425500000001,1.7382435,0.0007165449,0.0029932396,-0.0009437867999999999,26.279999,-30.66,-27.18
1553846309960,1.8675343999999998,9.522031,1.7382435,-0.0017269160999999998,-0.003726278,-0.0015546521,26.58,-31.199999,-27.119999
1553846309981,1.8890828000000002,9.500483000000001,1.7550035,-0.0011160509,-0.0031154128000000004,0.0008888089,26.279999,-31.26,-27.9
1553846310001,1.8723229,9.507666,1.7430321,-0.0011160509,-0.003726278,-0.0015546521,25.8,-31.08,-28.08
1553846310020,1.8866886000000003,9.498088000000001,1.7502148999999998,0.0007165449,0.0011606439,-0.0027763825,26.519999,-30.96,-28.019999
1553846310041,1.8771113999999998,9.531608,1.7190893,-0.0017269160999999998,0.009712758,-0.0027763825,26.58,-31.14,-27.06
1553846310060,1.8579572,9.517242,1.7382435,0.00010567969,0.009712758,-0.0027763825,26.279999,-31.5,-27.3
1553846310081,1.8411973999999998,9.536397000000001,1.7262721,-0.00050518557,0.012156218,-0.0021655173,26.519999,-30.84,-27.779999
1553846310100,1.8316202000000001,9.545974000000001,1.7382435,-0.006002973000000001,0.007269296999999999,-0.0027763825,26.4,-30.9,-27.66
1553846310121,1.8435916,9.512454,1.7286664,-0.007835569,0.007269296999999999,-0.003998113,25.859999,-31.08,-28.08
1553846310140,1.8364087,9.529214,1.7454262999999999,-0.007224703000000001,0.006047566,-0.0052198432,25.68,-30.599998,-27.539998999999998
1553846310160,1.8579572,9.526819,1.7621863000000002,-0.007835569,0.0023823746,-0.0070524393,25.8,-30.539998999999998,-26.88
1553846310180,1.8579572,9.510059,1.733455,-0.0053921076,0.003604105,-0.003998113,25.68,-30.119999,-26.76
1553846310200,1.8771113999999998,9.524425500000001,1.7071179,-0.010889893999999999,0.010323622,-0.0027763825,26.519999,-29.88,-27.24
1553846310220,1.8627458,9.529214,1.7454262999999999,-0.010889893999999999,0.010323622,-0.004608978,26.64,-30.72,-27.599998
1553846310240,1.8459859,9.512454,1.7573976999999998,-0.009057298,0.009712758,-0.003387248,26.279999,-30.599998,-27.84
1553846310261,1.8627458,9.522031,1.7478206000000003,-0.009668164,0.006047566,-0.0021655173,27.539998999999998,-30.48,-27.18
1553846310281,1.8747171000000002,9.481328,1.7550035,-0.008446434000000001,0.00421497,-0.0009437867999999999,27.66,-30.779999,-27.119999
1553846310300,1.8507744,9.490905999999999,1.7597919999999998,-0.006002973000000001,0.010323622,-0.0052198432,26.58,-30.119999,-27.3
1553846310321,1.8459859,9.502875999999999,1.7478206000000003,-0.006002973000000001,0.016432276000000003,-0.0027763825,25.74,-30.24,-27.359999
1553846310340,1.8316202000000001,9.512454,1.7597919999999998,-0.0029486464,0.01582141,-0.0021655173,25.619999,-30.599998,-27.539998999999998
1553846310360,1.8603516,9.514847999999999,1.7693691000000003,0.0019382754,0.014599678999999999,-0.00033292157,26.16,-30.539998999999998,-26.76
1553846310380,1.8364087,9.512454,1.7837347,0.00010567969,0.017654005,-0.003387248,25.859999,-30.9,-27.48
1553846310400,1.8292258999999997,9.505271,1.7621863000000002,-0.0029486464,0.018875737,-0.0070524393,25.8,-30.599998,-27.599998
1553846310420,1.812466,9.543579,1.7717633000000002,-0.0041703773,0.018875737,-0.006441574,26.699999,-30.119999,-27.48
1553846310441,1.8172544999999998,9.543579,1.7454262999999999,-0.0053921076,0.009712758,-0.004608978,26.22,-30.48,-27.599998
1553846310460,1.802889,9.495694,1.7933118000000001,-0.0035595119,0.006047566,-0.0076633045,26.519999,-30.119999,-26.16
1553846310481,1.812466,9.47654,1.7885233,-0.0047812425,0.006658430999999999,-0.004608978,27.42,-30.119999,-25.619999
1553846310500,1.838803,9.486116,1.7789462,0.0013274101999999999,0.00421497,-0.0094959,26.519999,-30.96,-27.3
1553846310521,1.8316202000000001,9.512454,1.802889,-0.0023377811999999998,-0.0018936823000000001,-0.0021655173,25.92,-31.26,-28.38
1553846310540,1.838803,9.514847999999999,1.8292258999999997,-0.0011160509,-0.0061697387,-0.0009437867999999999,25.92,-30.9,-28.32
1553846310560,1.8531687,9.495694,1.7717633000000002,0.006825197,0.0029932396,-0.0027763825,25.019999,-30.599998,-27.96
1553846310580,1.8555629,9.510059,1.733455,0.0043817363,0.012767083,-0.008885034,25.38,-31.14,-27.42
1553846310600,1.838803,9.536397000000001,1.7957061999999997,0.003770871,0.009712758,-0.018048013999999998,26.46,-31.199999,-27.18
1553846310620,1.802889,9.505271,1.8100717,0.003160006,-0.001282817,-0.014993688,26.22,-30.84,-27.9
1553846310640,1.7837347,9.502875999999999,1.8100717,0.0007165449,-0.00983493,-0.0094959,26.16,-30.84,-28.32
1553846310661,1.802889,9.486116,1.786129,0.0062143323,-0.0073914696,-0.004608978,26.46,-30.539998999999998,-27.84
1553846310680,1.802889,9.512454,1.7621863000000002,0.005603466999999999,0.006658430999999999,0.0021105395,27.0,-29.46,-27.359999
1553846310701,1.8435916,9.555551,1.7430321,0.003770871,0.012767083,0.003943135,27.18,-29.82,-27.3
1553846310720,1.8555629,9.574705,1.7597919999999998,0.0013274101999999999,0.017654005,0.0063865962,26.46,-30.779999,-27.72
1553846310741,1.8268316999999998,9.543579,1.8435916,0.010490389,0.025595253,0.013716978999999999,26.4,-30.24,-27.48
1553846310760,1.8244373999999999,9.500483000000001,1.8483802,0.025151156,0.03659083,0.021658228999999998,26.519999,-30.539998999999998,-27.48
1553846310780,1.8842942999999999,9.423865,1.8603516,0.034314133,0.03597996,0.02898861,26.519999,-31.439999,-27.24
1553846310800,1.9656997,9.486116,1.812466,0.046531435,0.056138515,0.030821206,26.699999,-31.019999,-27.3
1553846310820,1.9130256,9.560339,1.6831752,0.05019663,0.08179485,0.049147163,26.64,-30.66,-27.779999
1553846310840,1.7573976999999998,9.620196,1.6592325,0.03125981,0.09401216,0.08518821,26.64,-30.779999,-27.84
1553846310860,1.647261,9.636956,1.7358493000000002,0.012322985,0.086681776,0.13283572,26.64,-31.32,-27.3
1553846310880,1.7454262999999999,9.569917,1.6951466,0.0007165449,0.07507534,0.14871821,26.039998999999998,-31.679997999999998,-27.3
1553846310900,1.9465453999999998,9.445414999999999,1.6712039,0.0043817363,0.08912524,0.14016609,25.619999,-31.199999,-27.359999
1553846310920,2.1189332000000003,9.306546,1.7741576000000001,0.0074360627,0.08423832,0.09984898,26.279999,-31.38,-26.64
1553846310940,2.0878077,9.282603,1.8268316999999998,0.03370327,0.10745119,0.046092838,26.519999,-31.32,-26.46
1553846310960,1.9417567999999998,9.457385,1.8004947,0.05630528,0.12944235,0.029599477000000003,26.699999,-31.32,-27.06
1553846310980,1.802889,9.644139,1.6855695,0.056916147,0.12760974,0.027156016,26.939999,-31.92,-25.98
1553846311000,1.7406378,9.562733999999999,1.7526091000000001,0.04408798,0.09462302,0.03143207,26.76,-32.04,-26.22
1553846311020,1.8244373999999999,9.474146000000001,1.6975409,0.041033648,0.06957755,0.034486398,26.64,-31.26,-26.76
1553846311041,1.9106313000000001,9.478933999999999,1.6448668000000002,0.036757596000000003,0.060414575,0.025934285,26.519999,-30.9,-26.519999
1553846311060,1.9465453999999998,9.47654,1.5850098999999997,0.033092402,0.070799276,0.010051788,26.46,-31.32,-27.18
1553846311081,1.8459859,9.510059,1.7478206000000003,0.036757596000000003,0.0671341,-0.0070524393,26.519999,-31.019999,-26.64
1553846311100,1.9034485,9.529214,1.8004947,0.03125981,0.030482177000000003,-0.011328496,26.58,-31.439999,-25.98
1553846311121,1.977671,9.488511,1.6616267,0.018431637,0.0029932396,-0.014382822,25.8,-32.1,-25.56
1553846311140,1.9202085,9.627379,1.6448668000000002,0.0074360627,0.015210545,0.012495248999999998,25.619999,-31.199999,-26.099998
1553846311161,1.8364087,9.694419,1.5371244,-0.0017269160999999998,0.041477747,0.056477547,26.699999,-31.14,-26.76
1553846311181,1.838803,9.629773,1.6185298000000001,-0.026161525,0.04392121,0.07358177,27.539998999999998,-31.56,-27.06
1553846311200,1.8842942999999999,9.47654,1.7837347,-0.036546234,0.013377948999999998,0.066862255,27.359999,-31.199999,-25.619999
1553846311220,2.0351336,9.366403,1.7310607,-0.03227018,-0.012889257,0.044871107,26.82,-31.38,-24.9
1553846311240,2.1213273999999998,9.349642999999999,1.6783867,-0.023718065,0.004825835,0.013716978999999999,26.699999,-31.74,-25.619999
1553846311261,2.0375278000000003,9.428655000000001,1.7119064,-0.007224703000000001,0.018875737,-0.016215418,26.34,-32.16,-25.98
1553846311280,1.9441511999999999,9.462174000000001,1.7502148999999998,0.0025491407,0.018264871000000002,-0.034541376,26.58,-31.74,-26.58
1553846311300,1.838803,9.550761999999999,1.8651401,0.0007165449,-0.025717426,-0.046758678,26.76,-31.26,-26.4
1553846311321,1.9321798,9.586677,1.7478206000000003,-0.007835569,-0.054428093,-0.028432721,26.88,-31.679997999999998,-25.859999
1553846311340,1.9824595,9.550761999999999,1.6352897,-0.015776817,-0.038545597,-0.015604551999999999,26.939999,-31.56,-26.099998
1553846311360,1.960911,9.541185,1.637684,-0.017609414,-0.0073914696,-0.003998113,26.64,-31.26,-26.34
1553846311381,1.9728824,9.519637,1.7310607,-0.025550662000000002,-0.003726278,-0.0094959,26.22,-31.32,-26.34
1553846311400,1.9896424,9.462174000000001,1.7885233,-0.027994122000000003,-0.015332717,-0.014993688,26.939999,-31.14,-25.56
1553846311420,1.9537282,9.443019999999999,1.8531687,-0.028604986000000002,-0.026328294,-0.023545802,27.539998999999998,-31.08,-25.26
1553846311441,2.0231621,9.435837,1.8100717,-0.016387682,-0.025106562000000002,-0.01988061,27.119999,-31.56,-26.279999
1553846311460,2.0494993000000004,9.407105,1.7885233,-0.007224703000000001,-0.016554449,-0.020491473,26.64,-32.16,-26.82
1553846311480,2.0758362,9.45978,1.7933118000000001,0.005603466999999999,0.006658430999999999,-0.02232407,26.4,-31.679997999999998,-26.58
1553846311501,2.0854135,9.478933999999999,1.802889,0.01293385,0.0194866,-0.018658878,26.64,-31.74,-25.56
1553846311520,2.0638650000000003,9.469357,1.7550035,0.014155581,0.03659083,-0.015604551999999999,27.119999,-31.679997999999998,-25.26
1553846311541,1.9656997,9.524425500000001,1.7885233,0.01659904,0.04880813,-0.01071763,26.82,-31.56,-26.58
1553846311560,1.9393626,9.505271,1.7789462,0.019653369,0.04880813,-0.006441574,26.22,-31.74,-27.48
1553846311580,1.9321798,9.474146000000001,1.7765520000000001,0.022096828,0.042699482000000004,-0.00033292157,27.18,-31.199999,-26.699999
1553846311600,1.9345740000000002,9.483723,1.7765520000000001,0.025151156,0.04392121,0.0014996742000000002,26.76,-31.14,-26.279999
1553846311620,1.960911,9.445414999999999,1.7765520000000001,0.020875098,0.04025602,-0.003998113,26.519999,-31.38,-26.58
1553846311640,1.9537282,9.471751,1.786129,0.017209906,0.041477747,-0.00033292157,27.3,-31.56,-26.16
1553846311661,1.9273912,9.481328,1.7669748,0.022707692999999998,0.04025602,0.0008888089,27.84,-31.98,-23.82
1553846311680,1.9561224999999998,9.478933999999999,1.924997,0.030648941000000002,0.02864958,0.009440923,28.14,-32.16,-21.66
1553846311700,2.030345,9.426260000000001,1.8340145,0.045309708,0.020097468,0.013106113,27.72,-31.679997999999998,-21.42
1553846311721,2.0159793,9.433442999999999,1.7238779,0.045309708,0.026816985,0.0027214046999999996,27.66,-31.08,-21.119999
1553846311740,2.0351336,9.512454,1.6113469999999999,0.03187067,0.04880813,-0.014382822,27.9,-31.56,-21.119999
1553846311761,1.9154198,9.574705,1.733455,0.024540287999999997,0.03659083,-0.020491473,28.68,-32.16,-21.24
1553846311780,1.9130256,9.541185,1.8172544999999998,0.033092402,0.0078801615,-0.014993688,28.8,-31.98,-21.06
1553846311801,1.9513340000000001,9.47654,1.7238779,0.037368458,-0.013500122,-0.036984835,28.619999,-31.8,-20.699999
1553846311820,2.0590763,9.47654,1.5826156,0.023318559,-0.014110987,-0.07608022,27.9,-31.92,-20.58
1553846311841,1.9944308999999998,9.541185,1.5969813,0.010490389,0.014599678999999999,-0.0956279,27.66,-31.92,-20.76
1553846311860,1.8435916,9.569917,1.7286664,0.003160006,0.00421497,-0.08890838,28.26,-31.859999,-21.0
1553846311880,1.7717633000000002,9.526819,1.6616267,0.0043817363,-0.011667526000000001,-0.06813896400000001,27.599998,-32.219997,-21.18
1553846311900,1.664021,9.514847999999999,1.7310607,0.0013274101999999999,-0.017165313999999997,-0.043704353,27.84,-32.04,-20.88
1553846311920,1.7550035,9.510059,1.6903580000000002,-0.00050518557,-0.032436945,-0.025378397,28.92,-32.219997,-20.22
1553846311940,1.8076775,9.502875999999999,1.6592325,-0.009668164,-0.025717426,-0.018048013999999998,29.099998,-32.34,-19.92
1553846311960,1.8196488999999998,9.507666,1.6448668000000002,-0.007835569,-0.026328294,-0.016826283,28.68,-31.38,-20.82
1553846311980,1.8483802,9.555551,1.6281068,-0.01150076,-0.020830505,-0.020491473,28.5,-31.679997999999998,-21.48
1553846312000,1.8268316999999998,9.569917,1.6927522000000002,-0.016387682,-0.015943583,-0.015604551999999999,28.68,-32.1,-21.18
1553846312020,1.8316202000000001,9.541185,1.7095122,-0.017609414,-0.014110987,-0.013161092,28.92,-31.679997999999998,-21.18
1553846312040,1.7765520000000001,9.457385,1.7693691000000003,-0.01027903,-0.01899791,0.0069974614,28.74,-32.46,-21.06
1553846312061,1.802889,9.466963,1.6592325,-0.0011160509,-0.001282817,0.022879956,28.8,-32.579997999999996,-20.64
1553846312081,1.7933118000000001,9.565128,1.6185298000000001,0.0013274101999999999,0.01582141,0.034486398,28.92,-31.98,-20.64
1553846312100,1.8196488999999998,9.624985,1.5969813,-0.0023377811999999998,0.025595253,0.044871107,28.5,-31.92,-20.52
1553846312121,1.8890828000000002,9.632168,1.5419129999999999,-0.019442009,0.012767083,0.051590625,28.859999,-31.74,-20.4
1553846312140,1.8699286,9.543579,1.6520496999999998,-0.029215854,0.006658430999999999,0.051590625,29.4,-31.92,-20.939999
1553846312161,1.8244373999999999,9.45978,1.7621863000000002,-0.022496332999999997,-0.013500122,0.048536297,28.92,-32.64,-21.359999
1553846312180,1.8555629,9.359220500000001,1.7933118000000001,-0.013333356000000001,-0.036102135,0.03631899,27.72,-32.579997999999996,-23.82
1553846312200,1.9106313000000001,9.450203,1.7214836,0.0062143323,-0.02144137,0.02776688,27.48,-31.14,-26.16
1553846312220,1.8459859,9.610619999999999,1.7238779,0.018431637,-0.008002334,0.018603900000000003,28.26,-30.84,-25.5
1553846312240,1.8842942999999999,9.624985,1.6927522000000002,0.015377311000000001,-0.017776178,0.014327845,28.38,-31.619999,-23.939999
1553846312261,1.9010541,9.541185,1.6448668000000002,0.010490389,-0.016554449,0.008219192,28.019999,-31.98,-22.02
1553846312281,1.8866886000000003,9.500483000000001,1.6855695,0.009268658,-0.0049480083,0.003943135,27.96,-31.679997999999998,-21.359999
1553846312300,1.8651401,9.469357,1.6544438999999997,0.013544715,0.01704314,0.003943135,28.26,-31.56,-21.24
1553846312320,1.812466,9.514847999999999,1.6257126,0.014766445,0.037201695,0.0008888089,28.32,-32.04,-20.82
1553846312341,1.8507744,9.519637,1.7406378,0.020875098,0.029260445,0.003943135,28.74,-32.219997,-21.119999
1553846312360,1.8555629,9.507666,1.7454262999999999,0.022096828,0.007269296999999999,0.004554,28.439999,-31.98,-21.539998999999998
1553846312380,1.8962656000000002,9.517242,1.6664151999999999,0.020875098,0.008491027,0.0021105395,27.96,-32.16,-21.0
1553846312400,1.9202085,9.541185,1.6807808999999998,0.015377311000000001,0.009101893,-0.003998113,28.439999,-32.399998,-21.06
1553846312421,1.9321798,9.519637,1.6616267,0.015377311000000001,0.007269296999999999,-0.0015546521,28.8,-31.98,-21.3
1553846312440,1.8483802,9.531608,1.6137413,0.010490389,0.010934488000000001,-0.0009437867999999999,28.8,-31.92,-21.0
1553846312460,1.8411973999999998,9.529214,1.6879636999999998,0.005603466999999999,0.00421497,0.0021105395,28.74,-31.56,-21.24
1553846312481,1.9058428,9.510059,1.7143008000000002,0.009879523000000001,-6.108652500000001e-05,0.0033322698,28.92,-31.199999,-21.42
1553846312500,1.9273912,9.534002000000001,1.6712039,0.008657793,-0.001282817,0.00027794369999999997,27.72,-31.56,-22.5
1553846312520,1.9154198,9.538791,1.6759924,0.0019382754,0.004825835,0.0051648653999999995,26.519999,-31.38,-24.96
1553846312541,1.9226026999999999,9.524425500000001,1.620924,0.0019382754,0.015210545,0.012495248999999998,26.699999,-31.32,-26.22
1553846312560,1.9034485,9.565128,1.6281068,-0.0017269160999999998,0.020097468,0.01616044,26.519999,-30.84,-25.859999
1553846312581,1.9178141,9.57231,1.5993756000000001,-0.013333356000000001,0.026206119,0.022269092999999997,26.88,-30.48,-25.439999
1553846312600,1.8842942999999999,9.545974000000001,1.6305011999999999,-0.014555086,0.039645154,0.029599477000000003,27.359999,-30.84,-25.619999
1553846312620,1.8747171000000002,9.478933999999999,1.647261,-0.0017269160999999998,0.050029866,0.02898861,26.88,-31.019999,-25.439999
1553846312641,1.8819,9.495694,1.6759924,0.008046928,0.056138515,0.020436496999999998,26.939999,-31.439999,-25.26
1553846312660,1.8866886000000003,9.502875999999999,1.7310607,0.009879523000000001,0.040866885,0.012495248999999998,27.119999,-31.619999,-25.26
1553846312680,1.9178141,9.500483000000001,1.6688095,0.012322985,0.021319197,-0.004608978,27.18,-31.56,-25.14
1553846312700,1.8675343999999998,9.519637,1.637684,0.011101254,0.012156218,-0.011939362,27.539998999999998,-31.679997999999998,-25.019999
1553846312720,1.8411973999999998,9.560339,1.5706443,0.0043817363,0.015210545,-0.0076633045,27.06,-31.74,-25.5
1553846312740,1.8268316999999998,9.514847999999999,1.6831752,-0.00050518557,-0.001282817,-0.00033292157,26.34,-31.619999,-25.619999
1553846312760,1.8579572,9.524425500000001,1.6257126,0.00010567969,-0.003726278,0.008830056999999999,26.279999,-31.619999,-25.199999
1553846312780,1.8771113999999998,9.541185,1.6352897,-0.006002973000000001,-0.015943583,0.0051648653999999995,27.06,-31.5,-24.96
1553846312800,1.9106313000000001,9.505271,1.6592325,-0.006613838,-0.01899791,0.0027214046999999996,27.3,-31.679997999999998,-24.72
1553846312820,1.9273912,9.514847999999999,1.5850098999999997,-0.009668164,-0.017165313999999997,0.0021105395,26.88,-31.8,-25.08
1553846312840,1.9561224999999998,9.543579,1.6233183,-0.016998546,-0.01899791,0.0033322698,27.3,-31.199999,-25.199999
1553846312861,1.960911,9.483723,1.673598,-0.009668164,-0.017165313999999997,0.0008888089,27.359999,-32.1,-24.0
1553846312880,1.9417567999999998,9.447808,1.7095122,-0.008446434000000001,-0.018387043999999998,0.00027794369999999997,27.48,-33.3,-21.3
1553846312900,1.9752767,9.466963,1.6999351000000003,-0.0023377811999999998,-0.015943583,0.0021105395,28.26,-32.64,-20.16
1553846312920,1.9680939,9.522031,1.6496553,-0.0041703773,-0.014110987,0.0069974614,28.32,-32.28,-20.58
1553846312941,1.9369683000000002,9.5483675,1.6137413,-0.006613838,-0.008002334,0.005775731,27.539998999999998,-32.46,-20.939999
1553846312960,1.9058428,9.560339,1.6400781999999998,-0.007224703000000001,-0.008002334,0.004554,28.08,-32.04,-21.48
1553846312980,1.9321798,9.529214,1.6831752,-0.01272249,-0.019608773,0.0069974614,28.619999,-32.219997,-20.64
1553846313001,1.9704881999999997,9.481328,1.6999351000000003,-0.016387682,-0.019608773,0.0027214046999999996,28.56,-32.34,-20.1
1553846313020,1.9417567999999998,9.450203,1.6783867,-0.009668164,-0.010445796,-0.003387248,28.32,-32.04,-20.58
1553846313041,1.9393626,9.488511,1.7047237000000002,-0.0023377811999999998,-0.0049480083,-0.003998113,28.32,-32.16,-21.0
1553846313060,1.9226026999999999,9.510059,1.7071179,0.00010567969,-0.0055588734999999995,-0.003998113,28.8,-32.1,-20.88
1553846313080,1.9202085,9.507666,1.6807808999999998,0.0013274101999999999,-0.011667526000000001,-0.004608978,27.9,-30.599998,-23.279999
1553846313101,1.9130256,9.526819,1.6975409,-0.0029486464,-0.015943583,-0.0070524393,26.34,-29.82,-26.4
1553846313120,1.9130256,9.536397000000001,1.6855695,-0.0041703773,-0.016554449,-0.0076633045,25.98,-30.9,-26.34
1553846313141,1.8986599999999998,9.512454,1.6616267,-0.01027903,-0.011056661,-0.004608978,27.18,-30.96,-26.099998
1553846313160,1.8938714,9.500483000000001,1.6903580000000002,-0.01150076,-0.012889257,-0.005830709,27.359999,-30.84,-27.24
1553846313181,1.9058428,9.502875999999999,1.7023293999999998,-0.006613838,-0.014721853,-0.003998113,26.76,-31.56,-27.119999
1553846313200,1.924997,9.505271,1.6807808999999998,-0.009057298,-0.00983493,-0.0021655173,26.519999,-31.38,-26.46
1553846313220,1.924997,9.500483000000001,1.7406378,-0.008446434000000001,-0.003726278,-0.0021655173,26.58,-30.539998999999998,-26.76
1553846313241,1.9178141,9.505271,1.6544438999999997,-0.008446434000000001,-6.108652500000001e-05,-0.003998113,26.88,-30.48,-26.82
1553846313260,1.908237,9.541185,1.6688095,-0.009057298,-0.0025045476,-0.0076633045,27.3,-30.84,-26.279999
1553846313280,1.908237,9.541185,1.7478206000000003,-0.009668164,-0.014721853,-0.004608978,27.539998999999998,-30.24,-25.98
1553846313301,1.9393626,9.466963,1.7023293999999998,-0.007835569,-0.02144137,-0.006441574,26.82,-30.3,-27.18
1553846313320,1.9537282,9.490905999999999,1.7262721,-0.0017269160999999998,-0.0086132,-0.006441574,26.519999,-30.359999,-27.48
1553846313340,1.9561224999999998,9.498088000000001,1.7047237000000002,0.003160006,0.0029932396,-0.0094959,27.0,-30.0,-26.82
1553846313360,1.9130256,9.507666,1.7382435,0.009268658,0.012767083,-0.00827417,27.24,-30.359999,-26.22
1553846313380,1.8819,9.531608,1.6951466,0.010490389,0.009101893,-0.00827417,27.18,-30.779999,-26.039998999999998
