TimeStamp,Ax,Ay,Az,Gx,Gy,Gz,Mx,My,Mz
1554883540424,9.299078999999999,-0.99658644,2.355296,0.28868666,-0.015978966,0.025566347000000003,-21.54,39.54,21.84
1554883540444,9.41879,-1.0684125,2.1254525,0.3057309,-0.008522116,0.03195793,-21.36,39.66,21.72
1554883540464,9.303867,-1.0205284,2.4079683,0.31957933,0.007456851,0.015978966,-21.12,39.72,21.6
1554883540483,9.356541,-0.8194155000000001,2.5420437000000002,0.3685815,0.011717908999999999,-0.002130529,-20.94,39.84,21.42
1554883540503,9.332599,-0.8912416,2.4941597,0.39095205,-0.004261058,0.00958738,-20.82,39.9,21.12
1554883540524,9.390058999999999,-0.6853402,2.4462755,0.37390783,-0.014913702,0.004261058,-20.64,39.96,20.82
1554883540543,9.41879,-0.6853402,2.379238,0.34514567,-0.026631612000000002,-0.0010652645,-20.52,40.02,20.46
1554883540563,9.528922999999999,-0.7236475,2.355296,0.3270362,-0.024501082,0.0053263223,-20.4,40.08,20.1
1554883540583,9.5385,-0.5895722,2.3983915000000002,0.3057309,-0.015978966,0.0063915867,-20.34,40.02,19.74
1554883540604,9.495403999999999,-0.5895722,2.355296,0.29933932,-0.0031957934000000003,0.0010652645,-20.34,40.02,19.38
1554883540624,9.576807,-0.40761283,2.5133132999999996,0.28122982,0.012783173500000002,0.0,-20.46,40.02,19.02
1554883540643,9.504980999999999,-0.20171149,2.3744495,0.23861924,0.008522116,-0.004261058,-20.52,40.02,18.72
1554883540664,9.5385,-0.42676646,2.4462755,0.1587244,0.0010652645,-0.013848438000000001,-20.58,40.08,18.54
1554883540683,9.442732000000001,-0.31184477,2.4366987,0.06178534,-0.00958738,-0.027696876000000002,-20.64,40.08,18.36
1554883540704,9.390058999999999,-0.44592008,2.4366987,-0.012783173500000002,-0.015978966,-0.03195793,-20.7,40.08,18.12
1554883540724,9.461885,-0.6183026,2.4319102999999997,-0.07030745599999999,-0.023435817999999997,-0.037284255,-20.7,40.08,17.94
1554883540744,9.414000999999999,-0.7858967,2.5133132999999996,-0.082025364,-0.014913702,-0.04474111,-20.76,40.14,17.76
1554883540763,9.370906,-0.7044938000000001,2.5611973,-0.07243799,-0.004261058,-0.047936900000000005,-20.76,40.2,17.58
1554883540784,9.361329,-0.84335756,2.4223334999999997,-0.056459017,0.004261058,-0.051132694000000006,-20.76,40.26,17.46
1554883540804,9.299078999999999,-0.86251116,2.4893713,-0.054328485999999995,-0.0063915867,-0.049002163,-20.76,40.32,17.34
1554883540823,9.327810000000001,-0.88166475,2.4558525,-0.04474111,-0.0053263223,-0.05006743,-20.76,40.38,17.28
1554883540843,9.428367,-0.8194155000000001,2.307412,-0.023435817999999997,-0.018109497,-0.051132694000000006,-20.7,40.44,17.28
1554883540864,9.409213000000001,-0.8098387,2.4941597,0.008522116,-0.017044231,-0.04580637,-20.7,40.5,17.34
1554883540883,9.481038999999999,-0.7667431,2.6665419999999997,0.051132694000000006,-0.02130529,-0.043675844000000005,-20.64,40.56,17.4
1554883540903,9.442732000000001,-0.6997054,2.5276785,0.07137272,-0.015978966,-0.040480047000000005,-20.64,40.62,17.52
1554883540925,9.399636,-0.670975,2.484583,0.05752428,0.0031957934000000003,-0.037284255,-20.58,40.62,17.58
1554883540944,9.260772,-0.6374562,2.5851393,0.034088463,0.007456851,-0.033023197000000004,-20.58,40.62,17.7
1554883540964,9.284714,-0.623091,2.5276785,0.014913702,-0.0010652645,-0.027696876000000002,-20.58,40.56,17.76
1554883540984,9.385271000000001,-0.64703304,2.5899277,-0.008522116,-0.0053263223,-0.03089267,-20.58,40.56,17.82
1554883541004,9.327810000000001,-0.6183026,2.6473885,-0.018109497,-0.00958738,-0.040480047000000005,-20.64,40.5,17.88
1554883541023,9.423578,-0.7667431,2.5516205000000003,-0.01917476,-0.007456851,-0.046871635999999994,-20.64,40.5,17.82
1554883541043,9.356541,-0.75237787,2.5372553,-0.013848438000000001,0.0010652645,-0.046871635999999994,-20.64,40.44,17.82
1554883541063,9.370906,-0.7906850999999999,2.5276785,-0.0053263223,-0.004261058,-0.04261058,-20.58,40.44,17.76
1554883541084,9.390058999999999,-0.7428011,2.417545,-0.018109497,-0.017044231,-0.036218993,-20.46,40.38,17.76
1554883541103,9.308656,-0.75716627,2.5228900000000003,-0.027696876000000002,-0.014913702,-0.036218993,-20.46,40.38,17.76
1554883541124,9.313444,-0.86729956,2.7670987,-0.027696876000000002,-0.023435817999999997,-0.035153727999999995,-20.28,40.38,17.7
1554883541144,9.337387,-0.76195467,2.4941597,-0.023435817999999997,-0.027696876000000002,-0.034088463,-20.22,40.38,17.7
1554883541164,9.337387,-0.7428011,2.6761188999999996,-0.015978966,-0.02130529,-0.033023197000000004,-20.16,40.38,17.7
1554883541184,9.390058999999999,-0.75716627,2.5995044999999997,-0.013848438000000001,-0.03089267,-0.03195793,-20.1,40.38,17.7
1554883541203,9.380483,-0.7954735,2.7814639,-0.007456851,-0.025566347000000003,-0.033023197000000004,-20.16,40.38,17.76
1554883541223,9.260772,-0.84814596,2.5276785,0.017044231,-0.029827405,-0.04261058,-20.28,40.38,17.88
1554883541244,9.337387,-0.6853402,2.6330232999999996,0.051132694000000006,-0.03834952,-0.043675844000000005,-20.4,40.32,17.94
1554883541263,9.390058999999999,-0.88645315,2.4366987,0.07776430000000001,-0.046871635999999994,-0.047936900000000005,-20.52,40.32,18.06
1554883541285,9.390058999999999,-0.7858967,2.5372553,0.099069595,-0.041545313,-0.054328485999999995,-20.58,40.32,18.12
1554883541303,9.394848,-0.65660983,2.4702177000000005,0.12037488,-0.05006743,-0.04580637,-20.7,40.32,18.18
1554883541323,9.385271000000001,-0.670975,2.4702177000000005,0.10759171,-0.060720075,-0.040480047000000005,-20.82,40.32,18.18
1554883541344,9.385271000000001,-0.5895722,2.460641,0.07137272,-0.06178534,-0.035153727999999995,-20.88,40.26,18.06
1554883541364,9.500193,-0.7092823,2.3409307,0.054328485999999995,-0.058589544,-0.037284255,-20.88,40.26,17.94
1554883541384,9.308656,-0.6374562,2.5228900000000003,0.05219796,-0.051132694000000006,-0.049002163,-20.82,40.2,17.82
1554883541403,9.375694000000001,-0.6278794,2.4079683,0.056459017,-0.056459017,-0.041545313,-20.76,40.14,17.7
1554883541423,9.437942999999999,-0.7284359,2.355296,0.06285059999999999,-0.06285059999999999,-0.03195793,-20.7,40.08,17.58
1554883541444,9.572019000000001,-0.670975,2.307412,0.054328485999999995,-0.054328485999999995,-0.04261058,-20.64,40.02,17.46
1554883541464,9.485827,-0.6039374,2.355296,0.05006743,-0.04580637,-0.04474111,-20.64,39.96,17.34
1554883541484,9.394848,-0.6997054,2.5228900000000003,0.039414786,-0.054328485999999995,-0.039414786,-20.58,39.84,17.28
1554883541504,9.294291000000001,-0.6997054,2.297835,0.035153727999999995,-0.053263225,-0.040480047000000005,-20.52,39.78,17.28
1554883541524,9.385271000000001,-0.7140707,2.475006,0.053263225,-0.051132694000000006,-0.034088463,-20.46,39.72,17.22
1554883541543,9.385271000000001,-0.75237787,2.5228900000000003,0.10439592,-0.036218993,-0.015978966,-20.52,39.66,17.22
1554883541563,9.351752000000001,-0.75716627,2.3840263,0.128897,-0.024501082,-0.01917476,-20.52,39.66,17.16
1554883541584,9.504980999999999,-0.64703304,2.498948,0.11930962,-0.007456851,-0.026631612000000002,-20.46,39.66,17.1
1554883541604,9.433155000000001,-0.57041854,2.1637597,0.07989483,0.0031957934000000003,-0.023435817999999997,-20.46,39.66,17.1
1554883541624,9.476251,-0.5129577000000001,2.130241,0.033023197000000004,0.024501082,-0.01917476,-20.46,39.72,17.04
1554883541644,9.548077000000001,-0.52253455,2.331354,-0.015978966,0.023435817999999997,-0.017044231,-20.52,39.78,17.04
1554883541663,9.404425,-0.44113165,2.2930467,-0.010652645,0.018109497,-0.0063915867,-20.52,39.78,17.04
1554883541683,9.485827,-0.53211135,2.2786815,0.017044231,0.011717908999999999,-0.008522116,-20.52,39.84,16.98
1554883541703,9.500193,-0.43634325,2.331354,0.04261058,0.0053263223,-0.017044231,-20.58,39.9,16.98
1554883541724,9.481038999999999,-0.36930559999999996,2.2786815,0.036218993,0.0,-0.027696876000000002,-20.64,39.9,16.98
1554883541744,9.466674000000001,-0.42676646,2.3505075,-0.0010652645,-0.014913702,-0.049002163,-20.7,39.9,16.98
1554883541763,9.423578,-0.3788824,2.4319102999999997,-0.040480047000000005,-0.02876214,-0.058589544,-20.76,39.84,16.98
1554883541783,9.356541,-0.45070848,2.7096379,-0.07882957,-0.025566347000000003,-0.06391586,-20.76,39.78,16.92
1554883541804,9.390058999999999,-0.53211135,2.5755625,-0.083090626,-0.025566347000000003,-0.068176925,-20.82,39.78,16.86
1554883541824,9.390058999999999,-0.6278794,2.5037365,-0.083090626,-0.012783173500000002,-0.060720075,-20.82,39.72,16.86
1554883541844,9.524135000000001,-0.75237787,2.5755625,-0.07456851,0.002130529,-0.058589544,-20.82,39.66,16.8
1554883541864,9.442732000000001,-0.82899237,2.5276785,-0.047936900000000005,0.00958738,-0.051132694000000006,-20.82,39.66,16.8
1554883541883,9.294291000000001,-0.7428011,2.5037365,-0.012783173500000002,0.015978966,-0.035153727999999995,-20.82,39.66,16.8
1554883541903,9.26556,-0.66618663,2.331354,-0.002130529,0.02876214,-0.018109497,-20.82,39.72,16.86
1554883541923,9.519346,-0.7236475,2.2164322999999997,0.0010652645,0.04474111,0.0,-20.82,39.72,16.92
1554883541944,9.485827,-0.66139823,2.3265655,0.018109497,0.05752428,0.011717908999999999,-20.88,39.78,17.1
1554883541964,9.461885,-0.4985925,2.2691047,0.041545313,0.049002163,0.014913702,-20.88,39.84,17.22
1554883541984,9.461885,-0.42197806,2.3983915000000002,0.040480047000000005,0.034088463,0.010652645,-20.94,39.9,17.34
1554883542003,9.409213000000001,-0.39324763,2.2068555,0.02876214,0.013848438000000001,0.002130529,-20.94,39.96,17.4
1554883542023,9.471461999999999,-0.3788824,2.2164322999999997,0.0010652645,-0.012783173500000002,-0.017044231,-20.94,39.96,17.46
1554883542044,9.524135000000001,-0.44592008,2.4462755,-0.026631612000000002,-0.036218993,-0.037284255,-20.88,39.9,17.4
1554883542064,9.481038999999999,-0.53689975,2.5228900000000003,-0.027696876000000002,-0.046871635999999994,-0.058589544,-20.82,39.84,17.34
1554883542084,9.457097000000001,-0.53211135,2.7862522999999997,-0.011717908999999999,-0.04474111,-0.07137272,-20.76,39.78,17.22
1554883542104,9.466674000000001,-0.5991489999999999,2.6330232999999996,0.004261058,-0.03834952,-0.07030745599999999,-20.76,39.72,17.16
1554883542123,9.500193,-0.54647654,2.5995044999999997,0.010652645,-0.029827405,-0.060720075,-20.7,39.66,17.04
1554883542144,9.399636,-0.6853402,2.40318,0.0,-0.014913702,-0.046871635999999994,-20.64,39.6,16.92
1554883542164,9.260772,-0.7188591,2.508525,0.007456851,-0.004261058,-0.040480047000000005,-20.64,39.54,16.8
1554883542184,9.313444,-0.76195467,2.6234465,0.034088463,-0.002130529,-0.034088463,-20.64,39.54,16.74
1554883542203,9.346964,-0.694917,2.4319102999999997,0.082025364,-0.012783173500000002,-0.027696876000000002,-20.64,39.54,16.74
1554883542224,9.327810000000001,-0.6422445999999999,2.3696610000000002,0.12996227,-0.010652645,-0.02130529,-20.64,39.54,16.74
1554883542244,9.390058999999999,-0.45070848,2.345719,0.13741912,-0.013848438000000001,-0.018109497,-20.64,39.54,16.74
1554883542264,9.423578,-0.65182143,2.321777,0.11824436,-0.010652645,-0.00958738,-20.7,39.54,16.74
1554883542284,9.399636,-0.4842273,2.297835,0.09587380000000001,-0.0063915867,-0.00958738,-20.7,39.54,16.68
1554883542304,9.409213000000001,-0.44113165,2.297835,0.06924219,-0.023435817999999997,-0.00958738,-20.76,39.54,16.62
1554883542324,9.313444,-0.39324763,2.28347,0.026631612000000002,-0.03195793,-0.012783173500000002,-20.76,39.54,16.56
1554883542344,9.409213000000001,-0.3597288,2.3744495,-0.011717908999999999,-0.033023197000000004,-0.014913702,-20.76,39.54,16.5
1554883542364,9.466674000000001,-0.4794389,2.40318,-0.03834952,-0.034088463,-0.015978966,-20.82,39.54,16.44
1554883542384,9.3661175,-0.39803603,2.4893713,-0.049002163,-0.037284255,-0.022370555,-20.82,39.54,16.38
1554883542404,9.41879,-0.55605334,2.5037365,-0.03834952,-0.04580637,-0.025566347000000003,-20.82,39.54,16.32
1554883542424,9.495403999999999,-0.6135142,2.4510639,-0.022370555,-0.04474111,-0.029827405,-20.82,39.54,16.26
1554883542444,9.390058999999999,-0.7092823,2.484583,0.022370555,-0.036218993,-0.025566347000000003,-20.88,39.54,16.26
1554883542471,9.485827,-0.6997054,2.4462755,0.068176925,-0.026631612000000002,-0.014913702,-20.88,39.6,16.26
1554883542484,9.476251,-0.6183026,2.3983915000000002,0.07137272,-0.025566347000000003,-0.015978966,-20.88,39.6,16.26
1554883542504,9.385271000000001,-0.5943606,2.3265655,0.07456851,-0.03089267,-0.0053263223,-20.88,39.66,16.32
1554883542524,9.552864999999999,-0.6087258000000001,2.4223334999999997,0.06711166,-0.03195793,-0.002130529,-20.88,39.72,16.32
1554883542543,9.447519999999999,-0.56563014,2.379238,0.07243799,-0.029827405,-0.0010652645,-20.88,39.72,16.32
1554883542563,9.404425,-0.55126494,2.28347,0.08628642,-0.027696876000000002,0.0,-20.94,39.72,16.32
1554883542584,9.442732000000001,-0.4842273,2.484583,0.082025364,-0.025566347000000003,-0.0010652645,-20.94,39.72,16.32
1554883542603,9.509769,-0.39324763,2.3696610000000002,0.056459017,-0.02130529,-0.002130529,-20.88,39.66,16.32
1554883542623,9.572019000000001,-0.4938041,2.3840263,0.02130529,-0.022370555,-0.002130529,-20.88,39.6,16.32
1554883542644,9.509769,-0.4890157,2.441487,0.008522116,-0.025566347000000003,-0.0010652645,-20.88,39.54,16.26
1554883542664,9.390058999999999,-0.46507367,2.4366987,0.013848438000000001,-0.023435817999999997,-0.002130529,-20.82,39.54,16.26
1554883542684,9.346964,-0.44113165,2.331354,0.025566347000000003,-0.017044231,-0.0063915867,-20.76,39.54,16.2
1554883542704,9.461885,-0.4985925,2.3409307,0.036218993,-0.026631612000000002,-0.011717908999999999,-20.76,39.6,16.2
1554883542723,9.519346,-0.5033809,2.130241,0.033023197000000004,-0.039414786,-0.010652645,-20.7,39.66,16.14
1554883542743,9.519346,-0.5943606,2.2164322999999997,0.025566347000000003,-0.04261058,-0.008522116,-20.7,39.72,16.02
1554883542764,9.481038999999999,-0.56563014,2.4223334999999997,0.023435817999999997,-0.03834952,-0.00958738,-20.7,39.78,15.96
1554883542783,9.399636,-0.5847838000000001,2.2786815,0.03195793,-0.033023197000000004,-0.0063915867,-20.7,39.84,15.9
1554883542803,9.466674000000001,-0.6374562,2.355296,0.049002163,-0.026631612000000002,0.0,-20.7,39.72,15.84
1554883542823,9.457097000000001,-0.623091,2.441487,0.06391586,-0.024501082,0.0063915867,-20.7,39.48,15.78
1554883542843,9.437942999999999,-0.56563014,2.40318,0.054328485999999995,-0.020240024,0.00958738,-20.7,39.18,15.72
1554883542863,9.399636,-0.5081693,2.2691047,0.046871635999999994,-0.018109497,0.0053263223,-20.7,38.82,15.72
1554883542884,9.481038999999999,-0.53211135,2.3169887000000005,0.034088463,-0.026631612000000002,0.008522116,-20.7,38.46,15.66
1554883542903,9.490616000000001,-0.54647654,2.1924900000000003,0.025566347000000003,-0.033023197000000004,0.0053263223,-20.7,38.1,15.66
1554883542924,9.490616000000001,-0.670975,2.168548,0.025566347000000003,-0.035153727999999995,0.004261058,-20.7,37.8,15.6
1554883542943,9.543288,-0.6757634,2.2691047,0.026631612000000002,-0.027696876000000002,-0.0053263223,-20.7,37.56,15.6
1554883542963,9.495403999999999,-0.57041854,2.1493945,0.036218993,-0.03089267,-0.011717908999999999,-20.76,37.5,15.54
1554883542983,9.562441999999999,-0.53211135,2.1829132999999996,0.023435817999999997,-0.04474111,-0.011717908999999999,-20.76,37.62,15.48
1554883543004,9.519346,-0.5991489999999999,2.2164322999999997,-0.022370555,-0.06924219,-0.011717908999999999,-20.7,37.92,15.42
1554883543023,9.572019000000001,-0.57999533,2.1350293,-0.04261058,-0.082025364,-0.023435817999999997,-20.58,38.28,15.36
1554883543044,9.504980999999999,-0.5129577000000001,2.2786815,-0.02130529,-0.083090626,-0.037284255,-20.52,38.64,15.24
1554883543063,9.552864999999999,-0.6183026,2.3169887000000005,0.011717908999999999,-0.08628642,-0.046871635999999994,-20.34,39.0,15.18
1554883543083,9.557653,-0.54168814,2.2068555,0.017044231,-0.09161274,-0.060720075,-20.16,39.36,15.12
1554883543104,9.562441999999999,-0.4842273,2.0727801,-0.023435817999999997,-0.082025364,-0.06711166,-19.98,39.66,15.0
1554883543125,9.528922999999999,-0.7667431,1.9722236000000002,-0.07456851,-0.07350325,-0.05965481,-19.8,39.96,14.94
1554883543144,9.390058999999999,-0.6805518,2.2164322999999997,-0.10759171,-0.06178534,-0.04261058,-19.68,40.2,14.88
1554883543164,9.3661175,-0.76195467,2.2260091,-0.10546118,-0.06391586,-0.02130529,-19.62,40.32,14.82
1554883543184,9.399636,-0.84335756,2.1829132999999996,-0.099069595,-0.05219796,-0.0010652645,-19.5,40.44,14.82
1554883543205,9.452309,-0.9103952,2.1254525,-0.09161274,-0.035153727999999995,0.0063915867,-19.44,40.5,14.82
1554883543226,9.557653,-0.9103952,2.2882583,-0.06498113,-0.015978966,0.0063915867,-19.44,40.56,14.82
1554883543245,9.495403999999999,-0.8242039000000001,2.1637597,-0.018109497,0.008522116,0.007456851,-19.44,40.8,14.82
1554883543264,9.495403999999999,-0.8146270999999999,2.273893,0.022370555,0.033023197000000004,0.01917476,-19.44,40.98,14.82
1554883543284,9.490616000000001,-0.8242039000000001,2.0248961,0.026631612000000002,0.051132694000000006,0.033023197000000004,-19.44,41.16,14.82
1554883543304,9.495403999999999,-0.6278794,2.0201077,0.013848438000000001,0.06285059999999999,0.041545313,-19.38,41.34,14.82
1554883543324,9.562441999999999,-0.623091,1.9147629000000002,-0.010652645,0.060720075,0.039414786,-19.38,41.52,14.88
1554883543344,9.509769,-0.6422445999999999,1.8285716,-0.035153727999999995,0.05006743,0.024501082,-19.44,41.64,14.88
1554883543363,9.385271000000001,-0.65182143,1.9865887999999998,-0.039414786,0.02876214,0.0031957934000000003,-19.44,41.82,14.88
1554883543384,9.442732000000001,-0.6135142,1.9626468000000001,-0.02130529,-0.00958738,-0.026631612000000002,-19.5,41.94,14.88
1554883543403,9.629479,-0.670975,2.0536265,-0.011717908999999999,-0.040480047000000005,-0.046871635999999994,-19.56,41.94,14.88
1554883543423,9.653421,-0.6997054,2.2307975,-0.0063915867,-0.047936900000000005,-0.06391586,-19.56,41.88,14.88
1554883543444,9.696517,-0.7140707,2.202067,0.004261058,-0.018109497,-0.07563378,-19.62,41.88,14.88
1554883543463,9.672575,-0.7858967,2.082357,0.020240024,0.01917476,-0.07882957,-19.68,41.82,14.88
1554883543484,9.557653,-0.5991489999999999,2.3744495,0.022370555,0.056459017,-0.06924219,-19.8,41.88,14.88
1554883543504,9.610325999999999,-0.6278794,2.130241,0.0010652645,0.05752428,-0.05752428,-19.8,41.94,14.88
1554883543523,9.662998,-0.52732295,2.1493945,-0.06285059999999999,0.06604639400000001,-0.04261058,-19.86,42.0,14.88
1554883543543,9.595961,-0.52732295,2.1637597,-0.17150758,0.082025364,-0.04261058,-19.92,42.06,14.94
1554883543564,9.600749,-0.6278794,2.144606,-0.20026971,0.09587380000000001,-0.036218993,-19.98,42.06,14.88
1554883543583,9.447519999999999,-0.64703304,2.1877017000000003,-0.18642128,0.10652645,-0.051132694000000006,-19.98,42.12,14.88
1554883543604,9.361329,-0.6805518,2.154183,-0.16724652,0.101200126,-0.06285059999999999,-19.98,42.18,14.88
1554883543624,9.390058999999999,-0.670975,2.1158757,-0.14807177,0.09161274,-0.06711166,-20.04,42.18,14.88
1554883543644,9.409213000000001,-0.6757634,2.321777,-0.13102753,0.07243799,-0.07350325,-20.04,42.18,14.94
1554883543664,9.500193,-0.7332243,2.0440497,-0.11611383,0.05539375,-0.07882957,-20.04,42.18,15.06
1554883543684,9.299078999999999,-0.694917,1.9961656000000003,-0.12357068,0.043675844000000005,-0.06924219,-20.04,42.12,15.24
1554883543704,9.385271000000001,-0.7715314999999999,2.0871453,-0.12996227,0.035153727999999995,-0.06178534,-20.04,42.12,15.42
1554883543724,9.433155000000001,-0.6853402,2.1733365,-0.12996227,0.017044231,-0.05539375,-20.04,42.06,15.6
1554883543743,9.428367,-0.7236475,2.1877017000000003,-0.13209279,0.0053263223,-0.05006743,-20.04,42.0,15.78
1554883543764,9.390058999999999,-0.7380127,2.082357,-0.13528858,0.0010652645,-0.054328485999999995,-20.04,41.94,15.96
1554883543784,9.404425,-0.7380127,2.3026235,-0.14807177,-0.012783173500000002,-0.047936900000000005,-20.1,41.82,16.08
1554883543803,9.414000999999999,-0.8242039000000001,2.345719,-0.13635385,-0.025566347000000003,-0.041545313,-20.1,41.76,16.14
1554883543824,9.514558000000001,-0.83378077,2.2547395,-0.1107875,-0.023435817999999997,-0.040480047000000005,-20.1,41.7,16.2
1554883543844,9.610325999999999,-0.8098387,2.417545,-0.082025364,-0.0053263223,-0.039414786,-20.16,41.76,16.2
1554883543864,9.375694000000001,-0.7236475,2.3265655,-0.053263225,0.008522116,-0.04261058,-20.16,41.76,16.2
1554883543884,9.414000999999999,-0.7092823,2.4462755,-0.05006743,0.004261058,-0.039414786,-20.16,41.76,16.2
1554883543903,9.485827,-0.6853402,2.321777,-0.06604639400000001,0.0031957934000000003,-0.03195793,-20.22,41.88,16.26
1554883543923,9.452309,-0.8098387,2.3936029999999997,-0.082025364,0.010652645,-0.03195793,-20.22,41.94,16.26
1554883543943,9.351752000000001,-0.6997054,2.3505075,-0.07563378,0.015978966,-0.034088463,-20.28,42.0,16.38
1554883543964,9.361329,-0.694917,2.3169887000000005,-0.06391586,0.0010652645,-0.04261058,-20.28,42.12,16.5
1554883543984,9.394848,-0.6997054,2.3026235,-0.07989483,-0.018109497,-0.046871635999999994,-20.34,42.12,16.62
1554883544003,9.380483,-0.8050503000000001,2.4223334999999997,-0.094808534,-0.036218993,-0.05219796,-20.52,42.18,16.68
1554883544023,9.3661175,-0.97743285,2.3505075,-0.08735169,-0.047936900000000005,-0.051132694000000006,-20.7,42.18,16.8
1554883544044,9.504980999999999,-0.86251116,2.28347,-0.056459017,-0.04474111,-0.049002163,-20.88,42.24,16.86
1554883544064,9.481038999999999,-0.98222125,2.4941597,0.0,-0.03089267,-0.05219796,-21.06,42.3,16.92
1554883544083,9.437942999999999,-0.9199719999999999,2.3888147,0.047936900000000005,-0.02876214,-0.051132694000000006,-21.12,42.36,16.92
1554883544104,9.399636,-0.87208796,2.321777,0.03834952,-0.034088463,-0.039414786,-21.24,42.48,16.98
1554883544124,9.399636,-0.87687635,2.3600842999999996,-0.00958738,-0.049002163,-0.025566347000000003,-21.3,42.54,16.98
1554883544144,9.409213000000001,-0.98222125,2.3026235,-0.03834952,-0.05006743,-0.013848438000000001,-21.36,42.66,17.04
1554883544164,9.504980999999999,-1.0061632,2.4366987,-0.026631612000000002,-0.029827405,-0.007456851,-21.3,42.78,17.04
1554883544183,9.356541,-1.0253168,2.297835,0.017044231,-0.010652645,-0.004261058,-21.18,42.84,17.1
1554883544203,9.423578,-0.85293436,2.3505075,0.060720075,-0.0010652645,0.0,-21.06,42.9,17.16
1554883544224,9.471461999999999,-0.8194155000000001,2.2499511,0.058589544,-0.020240024,0.00958738,-21.0,43.02,17.22
1554883544244,9.428367,-0.8098387,2.235586,0.029827405,-0.041545313,0.0063915867,-21.0,43.08,17.28
1554883544264,9.437942999999999,-0.8146270999999999,2.144606,0.024501082,-0.05752428,0.0,-20.94,43.14,17.4
1554883544283,9.452309,-0.82899237,2.345719,0.053263225,-0.05752428,0.0010652645,-20.82,43.26,17.46
1554883544303,9.414000999999999,-0.83856916,2.168548,0.07882957,-0.06178534,0.0010652645,-20.76,43.32,17.46
1554883544323,9.548077000000001,-0.7667431,2.1972785,0.08841695,-0.05752428,0.013848438000000001,-20.7,43.44,17.52
1554883544344,9.519346,-0.7763199000000001,2.2403743,0.07563378,-0.058589544,0.008522116,-20.64,43.56,17.52
1554883544363,9.619903,-0.7858967,2.2068555,0.06178534,-0.06604639400000001,0.0031957934000000003,-20.52,43.62,17.52
1554883544383,9.442732000000001,-0.8050503000000001,2.1829132999999996,0.056459017,-0.05965481,-0.007456851,-20.46,43.74,17.52
1554883544404,9.481038999999999,-0.8050503000000001,2.154183,0.060720075,-0.05219796,-0.00958738,-20.4,43.86,17.46
1554883544424,9.524135000000001,-0.8050503000000001,2.2882583,0.05965481,-0.046871635999999994,-0.010652645,-20.34,43.86,17.4
1554883544444,9.629479,-0.8050503000000001,2.235586,0.06391586,-0.037284255,-0.011717908999999999,-20.34,43.86,17.4
1554883544463,9.595961,-0.82899237,2.1924900000000003,0.07030745599999999,-0.025566347000000003,-0.013848438000000001,-20.34,43.86,17.34
1554883544484,9.514558000000001,-0.82899237,2.178125,0.07989483,-0.010652645,-0.013848438000000001,-20.28,43.8,17.22
1554883544504,9.533711,-0.88166475,2.0919337,0.082025364,-0.004261058,-0.007456851,-20.28,43.8,17.16
1554883544524,9.447519999999999,-0.7092823,2.1493945,0.07563378,-0.011717908999999999,-0.0010652645,-20.28,43.8,17.04
1554883544544,9.437942999999999,-0.7858967,1.9626468000000001,0.043675844000000005,-0.025566347000000003,-0.002130529,-20.22,43.8,16.92
1554883544564,9.615114,-0.7428011,2.130241,0.035153727999999995,-0.03195793,-0.00958738,-20.16,43.8,16.86
1554883544584,9.581595,-1.0061632,2.1206641,0.06711166,-0.03089267,-0.02130529,-20.1,43.8,16.8
1554883544604,9.500193,-0.87687635,2.1829132999999996,0.12037488,-0.026631612000000002,-0.023435817999999997,-20.04,43.8,16.68
1554883544624,9.552864999999999,-0.83856916,2.0536265,0.13741912,-0.026631612000000002,-0.012783173500000002,-19.98,43.8,16.62
1554883544644,9.524135000000001,-0.7188591,2.1972785,0.13102753,-0.036218993,-0.0053263223,-19.98,43.8,16.5
1554883544663,9.586383999999999,-0.84814596,2.1398177000000005,0.10546118,-0.035153727999999995,-0.002130529,-19.92,43.74,16.44
1554883544683,9.504980999999999,-0.75716627,2.1829132999999996,0.10333065,-0.01917476,-0.012783173500000002,-19.92,43.74,16.44
1554883544704,9.524135000000001,-0.75237787,2.1350293,0.10652645,-0.013848438000000001,-0.02130529,-19.92,43.74,16.44
1554883544724,9.509769,-0.7811083000000001,2.1637597,0.09267801,-0.013848438000000001,-0.01917476,-19.92,43.74,16.38
1554883544743,9.471461999999999,-0.7715314999999999,2.0919337,0.07563378,-0.017044231,-0.012783173500000002,-19.98,43.74,16.32
1554883544763,9.581595,-0.7667431,2.0153193,0.06924219,-0.014913702,-0.007456851,-19.98,43.74,16.32
1554883544784,9.524135000000001,-0.7428011,1.9913772,0.06285059999999999,-0.011717908999999999,-0.00958738,-19.98,43.74,16.26
1554883544804,9.586383999999999,-0.66618663,2.0967221,0.05965481,-0.008522116,-0.012783173500000002,-19.92,43.74,16.08
1554883544824,9.514558000000001,-0.65660983,2.0967221,0.06391586,0.002130529,-0.022370555,-19.92,43.74,15.9
1554883544843,9.466674000000001,-0.5943606,2.1637597,0.07776430000000001,0.0031957934000000003,-0.02130529,-19.86,43.74,15.72
1554883544863,9.423578,-0.694917,2.1110873,0.080960095,-0.002130529,-0.017044231,-19.8,43.8,15.54
1554883544884,9.572019000000001,-0.6422445999999999,1.9913772,0.058589544,-0.00958738,-0.017044231,-19.68,43.8,15.36
1554883544904,9.485827,-0.65660983,1.857302,0.02130529,0.0063915867,-0.023435817999999997,-19.62,43.8,15.18
1554883544924,9.576807,-0.82899237,2.1637597,0.0010652645,0.014913702,-0.025566347000000003,-19.56,43.8,15.06
1554883544943,9.380483,-0.82899237,2.0775685,0.012783173500000002,0.012783173500000002,-0.029827405,-19.5,43.8,14.94
1554883544964,9.476251,-0.7188591,1.9913772,0.024501082,0.007456851,-0.02876214,-19.44,43.8,14.88
1554883544984,9.485827,-0.76195467,2.130241,0.017044231,-0.0031957934000000003,-0.023435817999999997,-19.38,43.8,14.88
1554883545003,9.528922999999999,-0.75237787,2.0392613,-0.004261058,-0.012783173500000002,-0.018109497,-19.38,43.8,14.88
1554883545023,9.519346,-0.7858967,1.9818004,-0.015978966,-0.013848438000000001,-0.020240024,-19.38,43.8,14.82
1554883545043,9.500193,-0.84335756,2.0632033,-0.012783173500000002,-0.0031957934000000003,-0.020240024,-19.38,43.74,14.82
1554883545063,9.509769,-0.8960299999999999,2.1733365,0.012783173500000002,0.0031957934000000003,-0.022370555,-19.44,43.74,14.82
1554883545083,9.514558000000001,-0.87687635,2.1398177000000005,0.026631612000000002,-0.002130529,-0.01917476,-19.44,43.74,14.82
1554883545104,9.528922999999999,-0.7236475,1.977012,0.013848438000000001,-0.013848438000000001,-0.023435817999999997,-19.44,43.74,14.82
1554883545124,9.543288,-0.7811083000000001,2.0679917000000003,-0.011717908999999999,-0.017044231,-0.022370555,-19.44,43.74,14.82
1554883545144,9.437942999999999,-0.85293436,2.144606,-0.013848438000000001,-0.01917476,-0.01917476,-19.5,43.74,14.82
1554883545163,9.428367,-0.8242039000000001,2.0632033,0.008522116,-0.012783173500000002,-0.018109497,-19.5,43.74,14.82
1554883545183,9.485827,-0.7140707,2.202067,0.03195793,-0.0031957934000000003,-0.010652645,-19.5,43.68,14.76
1554883545204,9.461885,-0.7763199000000001,2.1158757,0.024501082,-0.007456851,-0.011717908999999999,-19.5,43.68,14.76
1554883545224,9.504980999999999,-0.7954735,2.0727801,0.0031957934000000003,-0.002130529,-0.013848438000000001,-19.5,43.68,14.76
1554883545243,9.452309,-0.7763199000000001,2.1733365,-0.013848438000000001,0.004261058,-0.017044231,-19.44,43.68,14.7
1554883545263,9.481038999999999,-0.8146270999999999,2.178125,-0.022370555,0.010652645,-0.014913702,-19.44,43.68,14.7
1554883545284,9.514558000000001,-0.7811083000000001,2.1206641,-0.024501082,0.00958738,-0.015978966,-19.38,43.8,14.7
1554883545304,9.552864999999999,-0.8146270999999999,2.0488381,-0.026631612000000002,0.0063915867,-0.015978966,-19.38,43.86,14.64
1554883545323,9.500193,-0.6997054,2.1110873,-0.03195793,-0.008522116,-0.013848438000000001,-19.38,43.98,14.64
1554883545343,9.495403999999999,-0.8050503000000001,2.1206641,-0.029827405,-0.018109497,-0.020240024,-19.32,44.16,14.64
1554883545364,9.524135000000001,-0.7715314999999999,2.1398177000000005,-0.01917476,-0.017044231,-0.034088463,-19.32,44.34,14.64
1554883545384,9.524135000000001,-0.7763199000000001,2.154183,-0.010652645,-0.012783173500000002,-0.04261058,-19.32,44.4,14.64
1554883545404,9.457097000000001,-0.8050503000000001,2.202067,-0.015978966,-0.012783173500000002,-0.04261058,-19.32,44.46,14.64
1554883545424,9.514558000000001,-0.83856916,2.1733365,-0.014913702,-0.017044231,-0.039414786,-19.32,44.52,14.64
1554883545444,9.595961,-0.8960299999999999,2.1493945,-0.020240024,-0.013848438000000001,-0.039414786,-19.38,44.4,14.64
1554883545463,9.543288,-0.9199719999999999,2.1493945,-0.015978966,-0.008522116,-0.036218993,-19.38,44.34,14.64
1554883545484,9.528922999999999,-0.9103952,2.144606,-0.012783173500000002,-0.007456851,-0.04580637,-19.38,44.28,14.64
1554883545503,9.490616000000001,-0.8098387,2.1158757,-0.0063915867,-0.004261058,-0.046871635999999994,-19.44,44.16,14.64
1554883545523,9.471461999999999,-0.7092823,1.9913772,-0.0031957934000000003,0.0031957934000000003,-0.040480047000000005,-19.5,44.1,14.64
1554883545543,9.519346,-0.8194155000000001,2.1206641,-0.024501082,-0.002130529,-0.03195793,-19.62,43.98,14.64
1554883545563,9.428367,-0.7954735,2.082357,-0.040480047000000005,-0.035153727999999995,-0.041545313,-19.68,43.92,14.64
1554883545584,9.514558000000001,-0.87687635,2.0632033,-0.03195793,-0.05752428,-0.053263225,-19.68,43.8,14.64
1554883545604,9.533711,-0.95349085,2.0440497,0.004261058,-0.068176925,-0.07137272,-19.68,43.74,14.7
1554883545624,9.514558000000001,-0.9343372,2.0919337,0.05006743,-0.06391586,-0.07030745599999999,-19.68,43.68,14.76
1554883545643,9.437942999999999,-0.8960299999999999,2.2307975,0.06924219,-0.05006743,-0.06285059999999999,-19.74,43.56,14.76
1554883545664,9.5385,-0.7906850999999999,2.1493945,0.04474111,-0.03195793,-0.047936900000000005,-19.74,43.5,14.76
1554883545683,9.586383999999999,-0.87687635,2.1015105,-0.013848438000000001,-0.002130529,-0.03089267,-19.68,43.44,14.82
1554883545703,9.485827,-0.9199719999999999,2.178125,-0.047936900000000005,0.023435817999999997,-0.023435817999999997,-19.68,43.38,14.82
1554883545723,9.375694000000001,-0.84335756,2.3409307,-0.04261058,0.036218993,-0.012783173500000002,-19.68,43.2,14.88
1554883545743,9.428367,-0.9056068000000002,2.1637597,-0.007456851,0.047936900000000005,-0.008522116,-19.62,43.08,14.88
1554883545763,9.447519999999999,-0.7715314999999999,2.144606,0.037284255,0.047936900000000005,-0.0053263223,-19.68,42.96,14.88
1554883545783,9.519346,-0.9008184000000001,2.2068555,0.05965481,0.04474111,-0.004261058,-19.74,42.84,14.88
1554883545803,9.466674000000001,-0.76195467,2.1733365,0.06391586,0.037284255,-0.0031957934000000003,-19.74,42.66,14.88
1554883545823,9.600749,-0.82899237,1.9674352,0.054328485999999995,0.040480047000000005,0.0,-19.8,42.54,14.88
1554883545844,9.500193,-0.7428011,2.0009542000000002,0.051132694000000006,0.04261058,0.0053263223,-19.8,42.42,14.88
1554883545863,9.466674000000001,-0.7380127,1.9147629000000002,0.049002163,0.03834952,0.013848438000000001,-19.8,42.36,14.82
1554883545883,9.528922999999999,-0.65182143,2.1637597,0.029827405,0.036218993,0.010652645,-19.8,42.36,14.82
1554883545903,9.41879,-0.66139823,1.9722236000000002,0.0053263223,0.02130529,0.0031957934000000003,-19.74,42.48,14.76
1554883545924,9.409213000000001,-0.66139823,1.8764555,-0.013848438000000001,0.007456851,-0.002130529,-19.68,42.6,14.7
1554883545943,9.485827,-0.7044938000000001,2.0201077,-0.03195793,-0.0063915867,-0.015978966,-19.62,42.72,14.7
1554883545963,9.495403999999999,-0.66618663,2.1110873,-0.035153727999999995,-0.029827405,-0.029827405,-19.5,42.9,14.64
1554883545983,9.514558000000001,-0.85293436,1.929128,-0.024501082,-0.047936900000000005,-0.039414786,-19.44,43.02,14.58
1554883546003,9.581595,-0.7380127,2.2068555,-0.008522116,-0.051132694000000006,-0.05539375,-19.38,43.14,14.58
1554883546024,9.576807,-0.7858967,2.1829132999999996,0.0063915867,-0.046871635999999994,-0.056459017,-19.32,43.26,14.52
1554883546043,9.576807,-0.82899237,2.1254525,0.002130529,-0.041545313,-0.054328485999999995,-19.26,43.32,14.46
1554883546063,9.437942999999999,-0.83856916,2.3505075,0.0,-0.024501082,-0.058589544,-19.26,43.32,14.4
1554883546084,9.414000999999999,-0.86251116,2.2307975,0.013848438000000001,-0.02130529,-0.047936900000000005,-19.2,43.32,14.4
1554883546103,9.504980999999999,-0.83378077,2.355296,0.015978966,-0.024501082,-0.041545313,-19.2,43.26,14.34
1554883546123,9.466674000000001,-0.88166475,2.273893,0.025566347000000003,-0.013848438000000001,-0.043675844000000005,-19.26,43.2,14.34
1554883546144,9.481038999999999,-0.87687635,2.3744495,0.036218993,0.0,-0.03834952,-19.26,43.2,14.34
1554883546163,9.56723,-0.9008184000000001,2.1733365,0.047936900000000005,0.03195793,-0.023435817999999997,-19.26,43.2,14.34
1554883546183,9.56723,-0.7715314999999999,2.2403743,0.051132694000000006,0.06498113,-0.011717908999999999,-19.32,43.26,14.4
1554883546203,9.485827,-0.75237787,2.2260091,0.060720075,0.07669904,0.0,-19.32,43.32,14.4
1554883546224,9.442732000000001,-0.82899237,2.1877017000000003,0.049002163,0.07243799,0.013848438000000001,-19.32,43.32,14.4
1554883546244,9.490616000000001,-0.7332243,2.0296845,0.037284255,0.06924219,0.017044231,-19.32,43.38,14.34
1554883546264,9.476251,-0.6087258000000001,1.9195513,0.029827405,0.06604639400000001,0.033023197000000004,-19.32,43.44,14.28
1554883546284,9.437942999999999,-0.7428011,2.1829132999999996,-0.041545313,0.080960095,0.07882957,-19.32,43.5,14.16
1554883546303,9.476251,-0.694917,2.1733365,-0.07989483,0.07456851,0.026631612000000002,-19.32,43.56,14.04
1554883546324,9.466674000000001,-0.6853402,2.0296845,-0.08522116,0.05965481,0.029827405,-19.32,43.56,13.92
1554883546343,9.442732000000001,-0.9008184000000001,2.0009542000000002,-0.036218993,0.04580637,0.033023197000000004,-19.26,43.62,13.8
1554883546363,9.447519999999999,-0.7332243,2.0967221,0.024501082,0.033023197000000004,0.0010652645,-19.26,43.62,13.74
1554883546383,9.504980999999999,-0.6278794,1.8189948,0.027696876000000002,0.015978966,-0.0010652645,-19.2,43.68,13.74
1554883546404,9.452309,-0.57999533,1.977012,-0.011717908999999999,-0.012783173500000002,-0.014913702,-19.2,43.68,13.8
1554883546423,9.409213000000001,-0.75237787,2.0248961,-0.047936900000000005,-0.047936900000000005,-0.027696876000000002,-19.2,43.68,13.86
1554883546444,9.452309,-0.84335756,2.3505075,-0.054328485999999995,-0.07137272,-0.037284255,-19.14,43.68,13.98
1554883546464,9.572019000000001,-0.9391255999999999,2.297835,-0.011717908999999999,-0.07669904,-0.049002163,-19.08,43.68,14.04
1554883546484,9.490616000000001,-0.9008184000000001,2.2786815,0.034088463,-0.07456851,-0.06178534,-19.08,43.68,14.16
1554883546504,9.394848,-0.84814596,2.1877017000000003,0.06498113,-0.07456851,-0.07456851,-19.02,43.68,14.22
1554883546523,9.457097000000001,-0.84335756,2.1350293,0.06711166,-0.07669904,-0.06924219,-19.02,43.74,14.34
1554883546544,9.490616000000001,-0.7715314999999999,2.0775685,0.024501082,-0.07243799,-0.060720075,-18.96,43.8,14.4
1554883546564,9.447519999999999,-0.84335756,2.307412,-0.0031957934000000003,-0.06498113,-0.051132694000000006,-18.9,43.8,14.46
1554883546583,9.581595,-0.9103952,2.2786815,-0.002130529,-0.05752428,-0.046871635999999994,-18.96,43.86,14.46
1554883546603,9.56723,-0.87687635,2.154183,0.020240024,-0.034088463,-0.05006743,-19.02,43.86,14.52
1554883546623,9.514558000000001,-0.86251116,2.235586,0.02876214,-0.015978966,-0.043675844000000005,-19.08,43.86,14.52
1554883546643,9.524135000000001,-0.87687635,2.2403743,0.026631612000000002,-0.013848438000000001,-0.027696876000000002,-19.08,43.86,14.52
1554883546664,9.385271000000001,-0.8960299999999999,2.2164322999999997,0.027696876000000002,-0.007456851,-0.022370555,-19.2,43.92,14.58
1554883546684,9.533711,-0.88166475,2.1637597,0.039414786,0.0063915867,-0.0053263223,-19.26,43.92,14.52
1554883546704,9.519346,-0.9103952,1.977012,0.05006743,0.007456851,0.002130529,-19.32,43.92,14.52
1554883546724,9.471461999999999,-0.670975,2.1398177000000005,0.03195793,0.0053263223,0.004261058,-19.32,43.92,14.52
1554883546744,9.548077000000001,-0.7667431,2.0105310000000003,0.0010652645,0.007456851,0.0010652645,-19.32,43.92,14.52
1554883546764,9.514558000000001,-0.670975,1.9195513,-0.027696876000000002,0.01917476,-0.002130529,-19.26,43.98,14.46
1554883546784,9.581595,-0.84335756,2.0871453,-0.04580637,0.025566347000000003,0.002130529,-19.2,44.04,14.46
1554883546803,9.528922999999999,-0.7811083000000001,2.1350293,-0.039414786,0.03195793,0.002130529,-19.14,44.04,14.46
1554883546824,9.466674000000001,-0.8146270999999999,2.2786815,-0.027696876000000002,0.03089267,0.004261058,-19.08,44.04,14.46
1554883546844,9.423578,-0.84335756,2.1733365,-0.02130529,0.03195793,-0.002130529,-18.96,43.98,14.46
1554883546864,9.452309,-0.8098387,2.2164322999999997,-0.00958738,0.025566347000000003,-0.015978966,-18.9,43.86,14.46
1554883546884,9.500193,-0.82899237,2.1350293,-0.0031957934000000003,0.017044231,-0.01917476,-18.84,43.8,14.46
1554883546903,9.528922999999999,-0.7428011,2.1254525,-0.01917476,0.018109497,-0.025566347000000003,-18.78,43.68,14.46
1554883546924,9.500193,-0.8146270999999999,2.0967221,-0.05006743,0.017044231,-0.027696876000000002,-18.78,43.56,14.52
1554883546943,9.495403999999999,-0.7906850999999999,2.1350293,-0.07776430000000001,0.002130529,-0.033023197000000004,-18.78,43.5,14.52
1554883546963,9.509769,-0.8960299999999999,2.0775685,-0.07989483,-0.007456851,-0.04261058,-18.78,43.5,14.58
1554883546984,9.390058999999999,-0.96306765,2.2164322999999997,-0.047936900000000005,-0.024501082,-0.05965481,-18.78,43.5,14.64
1554883547003,9.476251,-0.87687635,2.2164322999999997,0.0,-0.049002163,-0.07669904,-18.84,43.5,14.7
1554883547023,9.528922999999999,-0.97743285,2.0536265,0.035153727999999995,-0.058589544,-0.08628642,-18.9,43.5,14.82
1554883547043,9.490616000000001,-0.87208796,2.297835,0.054328485999999995,-0.05965481,-0.08948222,-18.9,43.5,14.82
1554883547064,9.504980999999999,-0.7715314999999999,2.0775685,0.04580637,-0.051132694000000006,-0.07563378,-18.96,43.5,14.88
1554883547083,9.533711,-0.85293436,2.273893,0.008522116,-0.037284255,-0.06178534,-19.02,43.44,14.94
1554883547104,9.481038999999999,-0.96306765,2.1877017000000003,-0.014913702,-0.03089267,-0.060720075,-19.08,43.38,14.94
1554883547124,9.481038999999999,-0.8912416,2.297835,-0.023435817999999997,-0.018109497,-0.05219796,-19.14,43.32,14.94
1554883547143,9.457097000000001,-0.98222125,2.2068555,0.010652645,-0.004261058,-0.04261058,-19.2,43.32,14.94
1554883547163,9.437942999999999,-0.84335756,2.345719,0.049002163,0.012783173500000002,-0.035153727999999995,-19.2,43.5,14.88
1554883547183,9.447519999999999,-0.85293436,2.3169887000000005,0.05752428,0.01917476,-0.02876214,-19.26,43.56,14.88
1554883547204,9.437942999999999,-0.8912416,2.0536265,0.05752428,0.03195793,-0.013848438000000001,-19.32,43.8,14.88
1554883547223,9.562441999999999,-0.8098387,2.082357,0.041545313,0.041545313,-0.008522116,-19.32,43.98,14.88
1554883547243,9.437942999999999,-0.83378077,2.1877017000000003,0.022370555,0.047936900000000005,-0.0010652645,-19.32,44.16,14.94
1554883547264,9.476251,-0.7906850999999999,2.1254525,0.015978966,0.04261058,0.0031957934000000003,-19.26,44.34,14.94
1554883547284,9.423578,-0.8242039000000001,1.8285716,0.008522116,0.034088463,0.004261058,-19.26,44.46,14.94
1554883547304,9.5385,-0.6997054,1.8285716,-0.0031957934000000003,0.026631612000000002,0.008522116,-19.2,44.52,14.88
1554883547323,9.485827,-0.7906850999999999,2.0488381,-0.037284255,0.017044231,0.026631612000000002,-19.2,44.52,14.88
1554883547343,9.514558000000001,-0.7428011,1.9626468000000001,-0.034088463,-0.011717908999999999,-0.008522116,-19.2,44.46,14.88
1554883547364,9.56723,-0.8242039000000001,2.1206641,-0.024501082,-0.022370555,-0.00958738,-19.14,44.4,14.82
1554883547383,9.485827,-0.82899237,2.0488381,0.008522116,-0.036218993,-0.025566347000000003,-19.14,44.34,14.82
1554883547403,9.586383999999999,-0.7428011,2.1110873,0.02130529,-0.04580637,-0.034088463,-19.14,44.34,14.82
1554883547424,9.504980999999999,-0.8194155000000001,2.0775685,0.011717908999999999,-0.060720075,-0.04474111,-19.14,44.34,14.82
1554883547443,9.504980999999999,-0.7763199000000001,2.1254525,0.011717908999999999,-0.06391586,-0.05006743,-19.14,44.34,14.82
1554883547463,9.605537,-0.7811083000000001,2.2786815,0.012783173500000002,-0.06391586,-0.05006743,-19.2,44.4,14.82
1554883547484,9.504980999999999,-0.9343372,2.3409307,0.036218993,-0.06391586,-0.05006743,-19.2,44.4,14.82
1554883547504,9.552864999999999,-0.8242039000000001,2.3840263,0.05965481,-0.05539375,-0.046871635999999994,-19.2,44.34,14.82
1554883547523,9.519346,-0.86251116,2.154183,0.06711166,-0.04580637,-0.049002163,-19.2,44.28,14.82
1554883547543,9.528922999999999,-0.7811083000000001,2.2786815,0.047936900000000005,-0.035153727999999995,-0.051132694000000006,-19.2,44.22,14.82
1554883547564,9.576807,-0.8098387,2.3361422999999997,0.027696876000000002,-0.037284255,-0.05539375,-19.2,44.22,14.82
1554883547584,9.543288,-0.84335756,2.2212207000000004,0.026631612000000002,-0.02876214,-0.056459017,-19.2,44.16,14.82
1554883547604,9.476251,-0.88166475,2.3026235,0.06285059999999999,-0.017044231,-0.054328485999999995,-19.14,44.1,14.82
1554883547624,9.485827,-0.7763199000000001,2.0536265,0.111852765,-0.004261058,-0.051132694000000006,-19.14,44.04,14.82
1554883547643,9.457097000000001,-0.7044938000000001,2.0967221,0.12144015,0.004261058,-0.040480047000000005,-19.08,44.04,14.82
1554883547664,9.495403999999999,-0.6805518,2.1829132999999996,0.07030745599999999,0.007456851,-0.029827405,-19.08,43.98,14.82
1554883547684,9.303867,-0.670975,2.154183,0.0053263223,0.0031957934000000003,-0.022370555,-19.08,44.04,14.76
1554883547703,9.457097000000001,-0.7044938000000001,1.9243397,-0.03834952,0.0031957934000000003,-0.02876214,-19.02,44.04,14.76
1554883547723,9.452309,-0.86251116,1.9626468000000001,-0.05006743,0.007456851,-0.025566347000000003,-19.02,44.04,14.7
1554883547743,9.437942999999999,-0.82899237,2.1110873,-0.03089267,0.00958738,-0.022370555,-19.08,44.04,14.7
1554883547765,9.457097000000001,-0.7811083000000001,1.9339164,0.018109497,0.0063915867,-0.029827405,-19.08,44.04,14.64
1554883547784,9.476251,-0.7332243,1.9434932,0.05752428,-0.0010652645,-0.024501082,-19.14,44.04,14.64
1554883547804,9.481038999999999,-0.6757634,1.9722236000000002,0.04580637,-0.02130529,-0.01917476,-19.2,44.04,14.58
1554883547823,9.390058999999999,-0.76195467,1.9482816000000003,0.010652645,-0.035153727999999995,-0.02130529,-19.26,44.04,14.58
1554883547844,9.414000999999999,-0.6997054,1.9626468000000001,-0.020240024,-0.040480047000000005,-0.018109497,-19.26,44.04,14.52
1554883547864,9.490616000000001,-0.84814596,2.0392613,-0.027696876000000002,-0.035153727999999995,-0.024501082,-19.32,44.04,14.52
1554883547883,9.514558000000001,-0.83378077,2.0105310000000003,-0.011717908999999999,-0.049002163,-0.01917476,-19.32,44.04,14.52
1554883547904,9.428367,-0.7284359,2.1015105,0.0,-0.05006743,-0.012783173500000002,-19.32,44.04,14.46
1554883547924,9.514558000000001,-0.7715314999999999,2.082357,-0.0031957934000000003,-0.049002163,-0.012783173500000002,-19.32,43.98,14.46
1554883547945,9.500193,-0.7667431,2.1829132999999996,-0.010652645,-0.05219796,-0.014913702,-19.32,43.92,14.46
1554883547963,9.562441999999999,-0.8050503000000001,1.9818004,-0.011717908999999999,-0.053263225,-0.014913702,-19.32,43.86,14.46
1554883547984,9.581595,-0.83378077,2.2643162999999995,0.0053263223,-0.04474111,-0.017044231,-19.32,43.8,14.46
1554883548003,9.634267999999999,-0.8098387,2.3409307,0.023435817999999997,-0.039414786,-0.011717908999999999,-19.26,43.68,14.52
1554883548023,9.533711,-0.8098387,2.2643162999999995,0.040480047000000005,-0.039414786,-0.015978966,-19.26,43.62,14.52
1554883548043,9.528922999999999,-0.7332243,2.1877017000000003,0.040480047000000005,-0.027696876000000002,-0.018109497,-19.26,43.56,14.52
1554883548064,9.442732000000001,-0.7092823,2.1350293,0.034088463,-0.017044231,-0.02130529,-19.26,43.56,14.58
1554883548084,9.610325999999999,-0.82899237,2.1637597,0.0053263223,0.0,-0.029827405,-19.14,43.56,14.58
1554883548103,9.691728999999999,-0.623091,2.0632033,-0.03834952,0.01917476,-0.036218993,-19.14,43.56,14.64
1554883548123,9.730036,-0.7667431,2.2068555,-0.07350325,0.02876214,-0.04261058,-19.14,43.62,14.64
1554883548144,9.801862,-0.7906850999999999,2.331354,-0.07669904,0.03089267,-0.04261058,-19.08,43.62,14.64
1554883548165,9.782708,-0.7763199000000001,2.28347,-0.07243799,0.029827405,-0.022370555,-19.08,43.68,14.64
1554883548184,9.619903,-0.7236475,2.1398177000000005,-0.06178534,0.022370555,-0.011717908999999999,-19.08,43.68,14.64
1554883548204,9.519346,-0.8050503000000001,2.130241,-0.01917476,0.022370555,-0.012783173500000002,-19.14,43.74,14.64
1554883548223,9.279925,-0.7236475,2.2068555,0.058589544,0.022370555,-0.03195793,-19.2,43.74,14.64
1554883548243,9.184157,-0.8146270999999999,2.0871453,0.10759171,0.018109497,-0.039414786,-19.38,43.74,14.64
1554883548263,9.260772,-0.7188591,2.0536265,0.12783173,0.004261058,-0.046871635999999994,-19.44,43.74,14.64
1554883548284,9.375694000000001,-0.670975,1.8620903000000002,0.10013486,-0.007456851,-0.07243799,-19.56,43.74,14.7
1554883548303,9.380483,-0.7667431,2.0009542000000002,0.056459017,-0.013848438000000001,-0.098004326,-19.62,43.74,14.7
1554883548323,9.380483,-0.8912416,2.0105310000000003,0.027696876000000002,-0.014913702,-0.10546118,-19.68,43.74,14.7
1554883548343,9.490616000000001,-0.9343372,1.8908207,0.02876214,-0.013848438000000001,-0.098004326,-19.74,43.74,14.58
1554883548364,9.485827,-0.95827925,2.1158757,0.046871635999999994,-0.018109497,-0.08522116,-19.74,43.68,14.52
1554883548384,9.519346,-0.96785605,2.0536265,0.080960095,-0.013848438000000001,-0.06711166,-19.74,43.68,14.4
1554883548404,9.548077000000001,-0.8960299999999999,1.8189948,0.09587380000000001,-0.012783173500000002,-0.047936900000000005,-19.68,43.68,14.34
1554883548424,9.543288,-0.8050503000000001,2.0536265,0.08735169,-0.012783173500000002,-0.02130529,-19.62,43.68,14.28
1554883548444,9.509769,-0.7954735,2.144606,0.07030745599999999,-0.015978966,0.014913702,-19.62,43.68,14.16
1554883548464,9.404425,-0.6757634,1.977012,0.051132694000000006,-0.025566347000000003,0.04261058,-19.56,43.62,14.1
1554883548484,9.519346,-0.7092823,2.1637597,0.035153727999999995,-0.013848438000000001,0.05219796,-19.5,43.62,14.04
1554883548504,9.509769,-0.6278794,2.0967221,0.029827405,0.0031957934000000003,0.05006743,-19.5,43.62,14.04
1554883548524,9.557653,-0.7380127,2.0440497,0.026631612000000002,-0.0010652645,0.039414786,-19.44,43.62,14.04
1554883548544,9.600749,-0.65660983,1.8764555,0.00958738,-0.008522116,0.02130529,-19.44,43.56,14.04
1554883548564,9.629479,-0.6183026,2.1110873,-0.0053263223,-0.015978966,0.017044231,-19.44,43.44,14.04
1554883548584,9.648633,-0.694917,2.0632033,-0.002130529,-0.022370555,0.017044231,-19.38,43.38,14.04
1554883548604,9.615114,-0.6997054,2.0440497,0.018109497,-0.010652645,0.018109497,-19.38,43.26,14.04
1554883548623,9.576807,-0.52253455,2.0536265,0.056459017,0.00958738,0.014913702,-19.32,43.2,14.04
1554883548643,9.543288,-0.4985925,2.0392613,0.058589544,0.024501082,0.015978966,-19.26,43.08,14.04
1554883548664,9.500193,-0.44113165,1.9578583999999999,0.008522116,0.022370555,0.0031957934000000003,-19.2,43.02,14.04
1554883548684,9.404425,-0.44592008,2.0153193,-0.07243799,0.007456851,-0.008522116,-19.14,42.96,14.04
1554883548704,9.308656,-0.56084174,1.8477252,-0.14487597,-0.007456851,-0.027696876000000002,-19.08,42.96,14.04
1554883548724,9.466674000000001,-0.7380127,2.1877017000000003,-0.1768339,-0.024501082,-0.05752428,-18.96,42.96,13.98
1554883548743,9.504980999999999,-0.9199719999999999,2.2307975,-0.12676647,-0.029827405,-0.07030745599999999,-18.96,43.02,13.98
1554883548763,9.543288,-1.0013748,2.1829132999999996,-0.007456851,-0.03834952,-0.098004326,-18.9,43.02,13.98
1554883548784,9.543288,-0.86251116,2.168548,0.11930962,-0.054328485999999995,-0.11930962,-18.9,43.02,13.92
1554883548804,9.639056,-0.7906850999999999,2.144606,0.1438107,-0.05752428,-0.10546118,-18.84,43.02,13.92
1554883548824,9.639056,-0.84814596,2.1110873,0.12463594,-0.05752428,-0.09374327,-18.84,42.96,13.92
1554883548844,9.595961,-0.7954735,2.0536265,0.084155895,-0.04474111,-0.07243799,-18.84,42.9,13.92
1554883548864,9.615114,-0.7380127,2.307412,0.040480047000000005,-0.035153727999999995,-0.04261058,-18.84,42.84,13.86
1554883548883,9.485827,-0.82899237,2.0105310000000003,0.017044231,-0.02130529,-0.017044231,-18.84,42.72,13.86
1554883548904,9.548077000000001,-0.9295488000000001,2.144606,0.023435817999999997,-0.0010652645,-0.0053263223,-18.84,42.66,13.86
1554883548923,9.476251,-0.8242039000000001,2.0488381,0.058589544,0.018109497,-0.002130529,-18.84,42.6,13.86
1554883548943,9.409213000000001,-0.84335756,2.0536265,0.09054748,0.026631612000000002,-0.002130529,-18.84,42.54,13.86
1554883548963,9.591172,-0.6853402,1.9243397,0.08735169,0.035153727999999995,0.0,-18.84,42.48,13.8
1554883548984,9.5385,-0.6278794,1.9674352,0.046871635999999994,0.037284255,-0.002130529,-18.84,42.48,13.74
1554883549003,9.581595,-0.694917,1.9339164,-0.008522116,0.036218993,0.0010652645,-18.9,42.54,13.68
1554883549023,9.548077000000001,-0.7763199000000001,1.9865887999999998,-0.020240024,0.040480047000000005,0.011717908999999999,-18.96,42.54,13.62
1554883549044,9.447519999999999,-0.7140707,1.9243397,0.0031957934000000003,0.039414786,0.0063915867,-18.96,42.6,13.56
1554883549064,9.576807,-0.75716627,1.8716671000000003,0.051132694000000006,0.034088463,0.004261058,-19.02,42.6,13.56
1554883549084,9.509769,-0.6374562,1.9434932,0.09054748,0.017044231,-0.0053263223,-19.08,42.66,13.5
1554883549104,9.471461999999999,-0.5033809,1.7758990000000001,0.09054748,-0.002130529,-0.020240024,-19.08,42.66,13.44
1554883549124,9.476251,-0.56563014,1.8908207,0.05219796,-0.022370555,-0.026631612000000002,-19.08,42.72,13.5
1554883549143,9.500193,-0.57041854,2.0153193,0.002130529,-0.026631612000000002,-0.03089267,-19.08,42.72,13.5
1554883549164,9.595961,-0.7284359,2.0296845,-0.02876214,-0.039414786,-0.037284255,-19.02,42.6,13.5
1554883549184,9.557653,-0.75237787,2.0679917000000003,-0.015978966,-0.037284255,-0.04474111,-19.02,42.54,13.5
1554883549203,9.509769,-0.7188591,2.0536265,0.022370555,-0.02130529,-0.047936900000000005,-18.96,42.48,13.5
1554883549223,9.514558000000001,-0.6853402,2.273893,0.033023197000000004,-0.013848438000000001,-0.040480047000000005,-18.96,42.42,13.5
1554883549243,9.495403999999999,-0.6183026,2.1206641,0.007456851,-0.00958738,-0.03089267,-18.9,42.36,13.5
1554883549264,9.576807,-0.64703304,2.0440497,-0.034088463,-0.014913702,-0.034088463,-18.9,42.36,13.5
1554883549284,9.447519999999999,-0.7667431,2.1877017000000003,-0.043675844000000005,-0.008522116,-0.05006743,-18.9,42.3,13.44
1554883549304,9.500193,-0.7906850999999999,2.1924900000000003,-0.020240024,-0.0063915867,-0.056459017,-18.9,42.3,13.44
1554883549324,9.466674000000001,-0.7858967,2.2643162999999995,0.024501082,0.004261058,-0.056459017,-18.9,42.3,13.44
1554883549343,9.485827,-0.8194155000000001,1.9913772,0.053263225,0.002130529,-0.04580637,-18.9,42.36,13.44
1554883549363,9.543288,-0.57041854,1.9339164,0.04580637,0.0053263223,-0.036218993,-18.9,42.42,13.44
1554883549383,9.423578,-0.6135142,1.8908207,0.0053263223,0.007456851,-0.033023197000000004,-18.84,42.42,13.44
1554883549404,9.394848,-0.5895722,1.8285716,-0.040480047000000005,0.002130529,-0.02876214,-18.9,42.42,13.38
1554883549423,9.380483,-0.7044938000000001,1.8285716,-0.07243799,-0.010652645,-0.027696876000000002,-18.9,42.48,13.38
1554883549443,9.409213000000001,-0.7811083000000001,1.9387047999999998,-0.06391586,-0.034088463,-0.034088463,-18.9,42.48,13.38
1554883549464,9.519346,-0.9199719999999999,2.0248961,-0.01917476,-0.053263225,-0.04261058,-18.9,42.48,13.38
1554883549484,9.629479,-0.88166475,1.9482816000000003,0.03195793,-0.07243799,-0.043675844000000005,-18.9,42.48,13.32
1554883549504,9.696517,-0.75716627,2.0153193,0.068176925,-0.07243799,-0.04474111,-18.96,42.48,13.32
1554883549523,9.706094,-0.6853402,2.0153193,0.068176925,-0.04580637,-0.039414786,-19.02,42.48,13.32
1554883549543,9.624691,-0.56563014,2.2068555,0.037284255,-0.025566347000000003,-0.01917476,-19.08,42.48,13.32
1554883549564,9.605537,-0.5895722,2.0201077,-0.020240024,-0.011717908999999999,0.0010652645,-19.14,42.48,13.38
1554883549583,9.533711,-0.6087258000000001,2.154183,-0.043675844000000005,-0.018109497,0.010652645,-19.2,42.48,13.38
1554883549604,9.476251,-0.670975,2.1637597,-0.02130529,-0.029827405,-0.0010652645,-19.26,42.48,13.44
1554883549624,9.3421755,-0.6135142,1.9913772,0.007456851,-0.041545313,-0.025566347000000003,-19.26,42.48,13.44
1554883549643,9.514558000000001,-0.6278794,2.0344729999999998,0.033023197000000004,-0.043675844000000005,-0.046871635999999994,-19.26,42.48,13.56
1554883549664,9.476251,-0.56563014,2.0488381,0.049002163,-0.04580637,-0.07137272,-19.2,42.48,13.62
1554883549684,9.557653,-0.5991489999999999,1.9482816000000003,0.025566347000000003,-0.046871635999999994,-0.082025364,-19.2,42.48,13.68
1554883549704,9.615114,-0.7044938000000001,2.082357,-0.01917476,-0.049002163,-0.07350325,-19.2,42.48,13.8
1554883549724,9.619903,-0.8242039000000001,1.8142063999999998,-0.03195793,-0.049002163,-0.07456851,-19.2,42.42,13.86
1554883549744,9.591172,-0.7284359,1.881244,-0.026631612000000002,-0.04474111,-0.051132694000000006,-19.2,42.42,13.92
1554883549763,9.519346,-0.84335756,1.9482816000000003,0.0010652645,-0.03089267,-0.03834952,-19.2,42.42,13.98
1554883549784,9.639056,-0.7715314999999999,2.0009542000000002,0.049002163,-0.025566347000000003,-0.034088463,-19.2,42.42,13.98
1554883549803,9.591172,-0.5991489999999999,1.929128,0.06498113,-0.0063915867,-0.02876214,-19.2,42.42,13.98
1554883549825,9.528922999999999,-0.54168814,1.9722236000000002,0.029827405,0.002130529,-0.034088463,-19.2,42.42,13.92
1554883549843,9.519346,-0.54168814,1.9961656000000003,-0.04261058,-0.013848438000000001,-0.024501082,-19.2,42.42,13.86
1554883549864,9.5385,-0.7044938000000001,1.9003976999999999,-0.060720075,-0.024501082,-0.022370555,-19.26,42.42,13.8
1554883549884,9.481038999999999,-0.7715314999999999,1.9913772,-0.039414786,-0.03089267,-0.023435817999999997,-19.26,42.48,13.8
1554883549904,9.514558000000001,-0.7140707,2.0201077,0.020240024,-0.035153727999999995,-0.02876214,-19.26,42.48,13.74
1554883549923,9.591172,-0.6278794,1.8860323,0.06924219,-0.035153727999999995,-0.036218993,-19.26,42.54,13.68
1554883549943,9.548077000000001,-0.56563014,1.8189948,0.05965481,-0.04261058,-0.041545313,-19.32,42.54,13.68
1554883549964,9.619903,-0.45070848,1.9674352,0.026631612000000002,-0.05006743,-0.03834952,-19.32,42.54,13.68
1554883549983,9.586383999999999,-0.7044938000000001,2.0632033,0.01917476,-0.06285059999999999,-0.039414786,-19.32,42.54,13.68
1554883550004,9.634267999999999,-0.65660983,1.8381484000000001,0.049002163,-0.05752428,-0.04261058,-19.32,42.54,13.74
1554883550024,9.543288,-0.52732295,1.8908207,0.06285059999999999,-0.04261058,-0.034088463,-19.32,42.48,13.74
1554883550043,9.557653,-0.5943606,1.9674352,0.041545313,-0.03195793,-0.03195793,-19.26,42.36,13.74
1554883550063,9.528922999999999,-0.670975,1.9147629000000002,0.012783173500000002,-0.024501082,-0.033023197000000004,-19.26,42.3,13.74
1554883550084,9.548077000000001,-0.5991489999999999,1.9722236000000002,0.004261058,-0.025566347000000003,-0.04580637,-19.26,42.18,13.74
1554883550103,9.524135000000001,-0.6997054,1.9818004,0.014913702,-0.020240024,-0.051132694000000006,-19.2,42.12,13.68
1554883550123,9.543288,-0.623091,1.9339164,0.02876214,-0.018109497,-0.046871635999999994,-19.2,42.06,13.62
1554883550144,9.533711,-0.56084174,1.7232267,0.023435817999999997,-0.014913702,-0.033023197000000004,-19.2,42.0,13.62
1554883550164,9.639056,-0.57041854,1.6849195,0.0,-0.0031957934000000003,-0.01917476,-19.14,42.0,13.56
1554883550184,9.557653,-0.55605334,1.7663223000000001,-0.02130529,-0.00958738,-0.018109497,-19.14,41.94,13.56
1554883550204,9.572019000000001,-0.65660983,1.7567455,-0.033023197000000004,-0.03089267,-0.03089267,-19.14,42.0,13.56
1554883550223,9.490616000000001,-0.54647654,1.7950528000000001,-0.018109497,-0.051132694000000006,-0.03834952,-19.14,42.0,13.56
1554883550243,9.56723,-0.5943606,1.9099745,0.007456851,-0.058589544,-0.035153727999999995,-19.14,42.0,13.56
1554883550264,9.591172,-0.5943606,1.8381484000000001,0.013848438000000001,-0.058589544,-0.03195793,-19.14,42.0,13.56
1554883550284,9.581595,-0.4985925,1.8860323,-0.007456851,-0.049002163,-0.026631612000000002,-19.2,42.0,13.56
1554883550303,9.543288,-0.53211135,1.7950528000000001,-0.03195793,-0.04474111,-0.022370555,-19.26,42.0,13.62
1554883550325,9.619903,-0.6374562,1.9243397,-0.06285059999999999,-0.043675844000000005,-0.022370555,-19.26,42.06,13.74
1554883550343,9.543288,-0.6422445999999999,1.9865887999999998,-0.07563378,-0.040480047000000005,-0.027696876000000002,-19.32,42.06,13.8
1554883550363,9.557653,-0.6805518,2.0536265,-0.053263225,-0.04580637,-0.029827405,-19.38,42.06,13.92
1554883550384,9.619903,-0.6135142,1.8956091,-0.018109497,-0.041545313,-0.03089267,-19.38,42.06,13.98
1554883550403,9.667786999999999,-0.57041854,1.7854759999999998,0.027696876000000002,-0.02130529,-0.03195793,-19.38,42.06,14.1
1554883550424,9.68694,-0.5847838000000001,1.8956091,0.06498113,-0.018109497,-0.040480047000000005,-19.38,42.12,14.22
1554883550443,9.634267999999999,-0.6087258000000001,1.6897078999999997,0.07776430000000001,-0.034088463,-0.041545313,-19.32,42.12,14.34
1554883550464,9.677363,-0.54168814,1.809418,0.06604639400000001,-0.047936900000000005,-0.051132694000000006,-19.32,42.12,14.34
1554883550484,9.595961,-0.65182143,1.7088615000000003,0.03089267,-0.040480047000000005,-0.06924219,-19.32,42.12,14.4
1554883550504,9.586383999999999,-0.66139823,2.1015105,0.013848438000000001,-0.026631612000000002,-0.06604639400000001,-19.32,42.12,14.4
1554883550524,9.514558000000001,-0.623091,1.9147629000000002,0.011717908999999999,0.0053263223,-0.06178534,-19.32,42.12,14.4
1554883550543,9.509769,-0.5033809,1.7471686999999998,-0.0010652645,0.034088463,-0.04261058,-19.32,42.12,14.34
1554883550564,9.485827,-0.5991489999999999,1.6274586000000002,-0.033023197000000004,0.043675844000000005,-0.024501082,-19.38,42.12,14.34
1554883550583,9.528922999999999,-0.56563014,1.6370354,-0.058589544,0.035153727999999995,-0.008522116,-19.38,42.12,14.34
1554883550603,9.524135000000001,-0.670975,1.7136499,-0.06285059999999999,0.014913702,-0.015978966,-19.44,42.06,14.34
1554883550625,9.581595,-0.8098387,1.8046296000000002,-0.03089267,0.002130529,-0.03195793,-19.44,42.06,14.34
1554883550644,9.701305,-0.7906850999999999,1.7758990000000001,0.03834952,-0.004261058,-0.03195793,-19.5,42.0,14.34
1554883550663,9.615114,-0.7428011,1.6561891,0.09054748,0.0031957934000000003,-0.01917476,-19.5,41.94,14.34
1554883550683,9.667786999999999,-0.57999533,1.5077485000000002,0.07563378,0.00958738,-0.004261058,-19.56,41.82,14.34
1554883550704,9.624691,-0.54647654,1.5604209999999998,0.007456851,0.007456851,0.0031957934000000003,-19.56,41.76,14.34
1554883550723,9.634267999999999,-0.52732295,1.6801311,-0.037284255,-0.004261058,0.0031957934000000003,-19.56,41.7,14.34
1554883550743,9.653421,-0.5847838000000001,1.6801311,-0.056459017,-0.018109497,-0.0031957934000000003,-19.56,41.64,14.34
1554883550763,9.720459,-0.57041854,1.8237831999999998,-0.040480047000000005,-0.022370555,-0.0053263223,-19.5,41.58,14.34
1554883550784,9.758766,-0.6039374,1.7711107,-0.007456851,-0.024501082,-0.004261058,-19.5,41.58,14.34
1554883550804,9.720459,-0.56563014,1.6657659,0.02130529,-0.020240024,-0.004261058,-19.5,41.58,14.34
1554883550823,9.615114,-0.46507367,1.8189948,0.046871635999999994,-0.023435817999999997,-0.011717908999999999,-19.44,41.64,14.34
1554883550844,9.648633,-0.42197806,1.7471686999999998,0.046871635999999994,-0.034088463,-0.015978966,-19.38,41.64,14.34
1554883550864,9.552864999999999,-0.4794389,1.7328035,0.017044231,-0.043675844000000005,-0.024501082,-19.32,41.7,14.4
1554883550884,9.519346,-0.5033809,1.9961656000000003,0.004261058,-0.05539375,-0.035153727999999995,-19.2,41.7,14.4
1554883550904,9.619903,-0.4985925,1.8477252,0.011717908999999999,-0.051132694000000006,-0.060720075,-19.14,41.76,14.4
1554883550923,9.68694,-0.6135142,1.9243397,0.023435817999999997,-0.034088463,-0.07030745599999999,-19.14,41.76,14.4
1554883550943,9.682152,-0.55605334,1.9387047999999998,0.046871635999999994,-0.014913702,-0.07030745599999999,-19.08,41.76,14.4
1554883550964,9.528922999999999,-0.4890157,1.8860323,0.05965481,-0.0053263223,-0.07669904,-19.02,41.76,14.4
1554883550984,9.591172,-0.45549688,1.9195513,0.047936900000000005,-0.010652645,-0.07350325,-19.02,41.76,14.4
1554883551004,9.629479,-0.5847838000000001,1.8956091,0.034088463,-0.012783173500000002,-0.06285059999999999,-19.08,41.7,14.46
1554883551024,9.744401,-0.6374562,1.7950528000000001,0.014913702,-0.0031957934000000003,-0.06285059999999999,-19.08,41.7,14.46
1554883551044,9.624691,-0.66618663,1.7471686999999998,0.015978966,0.010652645,-0.068176925,-19.14,41.7,14.4
1554883551064,9.653421,-0.6278794,1.881244,0.020240024,0.025566347000000003,-0.05965481,-19.2,41.64,14.34
1554883551084,9.533711,-0.66618663,1.9339164,0.0063915867,0.04474111,-0.053263225,-19.26,41.64,14.28
1554883551104,9.485827,-0.6997054,1.8764555,-0.012783173500000002,0.054328485999999995,-0.043675844000000005,-19.26,41.64,14.28
1554883551124,9.586383999999999,-0.6805518,1.6705543,-0.036218993,0.05965481,-0.033023197000000004,-19.32,41.64,14.22
1554883551144,9.68694,-0.5081693,1.7088615000000003,-0.06285059999999999,0.06498113,-0.023435817999999997,-19.38,41.64,14.16
1554883551164,9.691728999999999,-0.56084174,1.8046296000000002,-0.08522116,0.05965481,-0.011717908999999999,-19.44,41.64,14.04
1554883551183,9.744401,-0.64703304,1.8764555,-0.07350325,0.051132694000000006,-0.0053263223,-19.5,41.64,14.04
1554883551203,9.56723,-0.57999533,1.7567455,-0.04261058,0.06391586,-0.008522116,-19.56,41.64,13.98
1554883551224,9.509769,-0.53689975,1.7088615000000003,-0.014913702,0.084155895,-0.017044231,-19.56,41.64,13.98
1554883551244,9.457097000000001,-0.43634325,1.7950528000000001,-0.0010652645,0.08628642,-0.025566347000000003,-19.62,41.64,13.98
1554883551264,9.495403999999999,-0.42676646,1.6801311,-0.012783173500000002,0.06285059999999999,-0.04261058,-19.62,41.58,13.98
1554883551283,9.552864999999999,-0.5129577000000001,1.6130934,-0.05965481,0.035153727999999995,-0.068176925,-19.62,41.46,14.04
1554883551304,9.524135000000001,-0.5991489999999999,1.6657659,-0.07030745599999999,0.022370555,-0.083090626,-19.62,41.4,14.1
1554883551323,9.409213000000001,-0.6805518,1.7806876,-0.05006743,0.022370555,-0.07563378,-19.62,41.4,14.1
1554883551344,9.414000999999999,-0.65182143,1.9195513,-0.029827405,0.03195793,-0.04474111,-19.62,41.34,14.16
1554883551364,9.490616000000001,-0.65660983,1.7902644,-0.015978966,0.03834952,-0.020240024,-19.62,41.28,14.16
1554883551384,9.648633,-0.75237787,1.8860323,-0.013848438000000001,0.04261058,0.0031957934000000003,-19.62,41.22,14.16
1554883551404,9.615114,-0.5895722,1.7136499,-0.01917476,0.051132694000000006,0.00958738,-19.68,41.22,14.16
1554883551423,9.524135000000001,-0.46507367,1.7136499,-0.049002163,0.053263225,0.027696876000000002,-19.68,41.28,14.16
1554883551443,9.514558000000001,-0.42676646,1.7232267,-0.11504856,0.024501082,0.035153727999999995,-19.74,41.28,14.16
1554883551464,9.543288,-0.6374562,1.7663223000000001,-0.14487597,-0.024501082,0.02130529,-19.8,41.28,14.1
1554883551484,9.639056,-0.7715314999999999,2.0440497,-0.068176925,-0.07989483,-0.011717908999999999,-19.8,41.28,14.1
1554883551504,9.677363,-0.8912416,1.977012,0.10013486,-0.10652645,-0.051132694000000006,-19.86,41.28,14.1
1554883551523,9.80665,-0.66618663,1.8620903000000002,0.25353295,-0.084155895,-0.06711166,-19.8,41.34,14.1
1554883551544,9.696517,-0.27353755,1.881244,0.2609898,-0.04261058,-0.05006743,-19.8,41.34,14.16
1554883551564,9.605537,-0.35494040000000004,1.9195513,0.15552860000000002,-0.027696876000000002,-0.026631612000000002,-19.74,41.4,14.16
1554883551583,9.519346,-0.42197806,1.9961656000000003,-0.037284255,-0.014913702,-0.004261058,-19.74,41.4,14.22
1554883551603,9.543288,-0.55126494,2.0727801,-0.15339808,-0.0063915867,-0.0010652645,-19.74,41.4,14.22
1554883551624,9.557653,-0.7140707,2.1829132999999996,-0.13635385,0.007456851,-0.002130529,-19.74,41.4,14.28
1554883551644,9.586383999999999,-0.7236475,2.1733365,-0.036218993,0.027696876000000002,-0.012783173500000002,-19.8,41.4,14.28
1554883551663,9.639056,-0.57041854,1.9003976999999999,0.06924219,0.04261058,-0.033023197000000004,-19.8,41.4,14.34
1554883551683,9.615114,-0.53211135,1.7950528000000001,0.082025364,0.043675844000000005,-0.034088463,-19.8,41.34,14.34
1554883551704,9.634267999999999,-0.623091,1.7471686999999998,0.060720075,0.023435817999999997,-0.024501082,-19.74,41.28,14.34
1554883551724,9.595961,-0.6135142,1.9722236000000002,0.041545313,0.013848438000000001,-0.023435817999999997,-19.68,41.22,14.34
1554883551743,9.610325999999999,-0.6135142,1.8620903000000002,0.05006743,0.012783173500000002,-0.018109497,-19.62,41.16,14.34
1554883551763,9.634267999999999,-0.5943606,1.7758990000000001,0.06285059999999999,0.033023197000000004,-0.010652645,-19.5,41.16,14.34
1554883551784,9.734824,-0.54647654,1.857302,0.047936900000000005,0.041545313,0.008522116,-19.38,41.1,14.34
1554883551803,9.557653,-0.40761283,1.6561891,0.0,0.047936900000000005,0.013848438000000001,-19.2,41.04,14.28
1554883551824,9.572019000000001,-0.38367084,1.6705543,-0.05539375,0.036218993,0.007456851,-19.08,41.04,14.28
1554883551844,9.56723,-0.5847838000000001,1.7423803,-0.05539375,0.015978966,-0.013848438000000001,-19.02,41.04,14.22
1554883551864,9.500193,-0.57041854,1.8142063999999998,0.0,-0.01917476,-0.051132694000000006,-18.96,41.04,14.16
1554883551884,9.466674000000001,-0.670975,1.9243397,0.08948222,-0.054328485999999995,-0.09267801,-18.96,41.04,14.16
1554883551903,9.524135000000001,-0.6039374,2.0105310000000003,0.17363810000000002,-0.07243799,-0.11930962,-18.96,41.1,14.16
1554883551924,9.615114,-0.52253455,2.0632033,0.22050974,-0.07456851,-0.12996227,-19.02,41.22,14.1
1554883551944,9.696517,-0.44113165,1.9195513,0.20559604,-0.05539375,-0.11611383,-19.08,41.28,14.1
1554883551964,9.758766,-0.5033809,2.0153193,0.1470065,-0.024501082,-0.094808534,-19.14,41.4,14.04
1554883551984,9.548077000000001,-0.46507367,2.0009542000000002,0.07350325,0.002130529,-0.07243799,-19.2,41.46,13.98
1554883552004,9.447519999999999,-0.41240123,1.9434932,-0.014913702,0.020240024,-0.049002163,-19.26,41.52,13.98
1554883552024,9.409213000000001,-0.4985925,2.0201077,-0.08948222,0.04261058,-0.036218993,-19.32,41.58,13.92
1554883552043,9.313444,-0.5129577000000001,2.0632033,-0.10439592,0.06604639400000001,-0.023435817999999997,-19.44,41.64,13.86
1554883552063,9.260772,-0.5847838000000001,1.9913772,-0.06924219,0.07669904,-0.02130529,-19.56,41.64,13.8
1554883552084,9.222465,-0.6374562,1.8668787,-0.053263225,0.07030745599999999,-0.022370555,-19.56,41.64,13.8
1554883552103,9.313444,-0.65660983,1.7950528000000001,-0.05539375,0.05006743,-0.00958738,-19.68,41.64,13.74
1554883552123,9.572019000000001,-0.6039374,1.809418,-0.06924219,0.033023197000000004,-0.004261058,-19.74,41.58,13.68
1554883552144,9.648633,-0.7092823,1.9722236000000002,-0.037284255,0.023435817999999997,-0.0010652645,-19.86,41.58,13.68
1554883552164,9.706094,-0.7763199000000001,1.8764555,0.025566347000000003,0.034088463,0.00958738,-19.86,41.58,13.68
1554883552184,9.682152,-0.4890157,1.881244,0.07882957,0.037284255,0.023435817999999997,-19.92,41.58,13.68
1554883552204,9.667786999999999,-0.350152,1.7328035,0.03834952,0.029827405,0.047936900000000005,-19.92,41.58,13.74
1554883552224,9.648633,-0.30705637,1.6944963,-0.05965481,0.004261058,0.06604639400000001,-19.92,41.58,13.74
1554883552244,9.543288,-0.29269117,1.5652093999999999,-0.16724652,-0.02130529,0.06285059999999999,-19.92,41.64,13.8
1554883552264,9.605537,-0.350152,1.7615339,-0.22370553,-0.05006743,0.054328485999999995,-19.92,41.64,13.8
1554883552284,9.629479,-0.54168814,1.8620903000000002,-0.20026971,-0.099069595,-0.015978966,-19.92,41.7,13.86
1554883552303,9.758766,-0.5847838000000001,1.929128,-0.08948222,-0.11930962,-0.08841695,-19.98,41.7,13.92
1554883552323,9.715671,-0.6135142,1.9387047999999998,0.011717908999999999,-0.12250541,-0.13209279,-19.98,41.7,13.92
1554883552344,9.504980999999999,-0.44592008,1.9003976999999999,0.05006743,-0.11504856,-0.14061491,-19.98,41.7,13.98
1554883552364,9.591172,-0.30705637,1.9195513,0.012783173500000002,-0.10759171,-0.10972224,-19.98,41.76,13.98
1554883552384,9.5385,-0.31663316,1.9339164,-0.08841695,-0.098004326,-0.058589544,-19.92,41.76,14.04
1554883552403,9.557653,-0.39803603,1.9434932,-0.18855181,-0.080960095,-0.02876214,-19.86,41.76,14.1
1554883552423,9.648633,-0.6183026,1.8429368000000002,-0.221575,-0.06178534,-0.027696876000000002,-19.8,41.82,14.16
1554883552444,9.581595,-0.5895722,2.130241,-0.18642128,-0.05006743,-0.043675844000000005,-19.74,41.88,14.28
1554883552464,9.634267999999999,-0.7140707,2.130241,-0.09267801,-0.053263225,-0.07563378,-19.68,41.88,14.4
1554883552484,9.677363,-0.6039374,2.0488381,-0.027696876000000002,-0.054328485999999995,-0.08841695,-19.62,41.94,14.52
1554883552503,9.682152,-0.5847838000000001,1.9482816000000003,0.05539375,-0.036218993,-0.08628642,-19.62,42.0,14.64
1554883552524,9.691728999999999,-0.55126494,2.0488381,0.06711166,-0.018109497,-0.07030745599999999,-19.62,41.94,14.82
1554883552543,9.725247,-0.5033809,1.8716671000000003,0.02876214,0.004261058,-0.05539375,-19.68,41.94,15.0
1554883552563,9.68694,-0.56563014,2.0296845,-0.025566347000000003,0.025566347000000003,-0.051132694000000006,-19.8,41.94,15.18
1554883552583,9.639056,-0.5943606,1.9147629000000002,-0.05752428,0.034088463,-0.05006743,-19.98,41.88,15.36
1554883552604,9.528922999999999,-0.66139823,1.929128,-0.06391586,0.041545313,-0.036218993,-20.1,41.94,15.48
1554883552623,9.500193,-0.5991489999999999,1.8956091,-0.05965481,0.046871635999999994,-0.03195793,-20.28,41.94,15.6
1554883552644,9.5385,-0.64703304,1.7663223000000001,-0.03834952,0.046871635999999994,-0.033023197000000004,-20.4,41.94,15.72
1554883552663,9.56723,-0.44113165,1.9243397,-0.022370555,0.047936900000000005,-0.03195793,-20.52,41.94,15.78
1554883552684,9.528922999999999,-0.45070848,1.7184383,-0.026631612000000002,0.03834952,-0.03089267,-20.64,41.94,15.84
1554883552704,9.528922999999999,-0.6183026,1.7711107,-0.03834952,0.023435817999999997,-0.034088463,-20.7,41.88,15.84
1554883552724,9.528922999999999,-0.5847838000000001,1.8381484000000001,-0.02876214,0.0010652645,-0.040480047000000005,-20.7,41.82,15.84
1554883552744,9.533711,-0.55126494,1.809418,-0.013848438000000001,-0.012783173500000002,-0.040480047000000005,-20.7,41.76,15.84
1554883552764,9.509769,-0.4938041,1.881244,0.008522116,-0.02130529,-0.037284255,-20.64,41.7,15.84
1554883552784,9.576807,-0.46507367,1.9147629000000002,0.008522116,-0.022370555,-0.035153727999999995,-20.64,41.58,15.84
1554883552804,9.504980999999999,-0.56563014,1.7040731,-0.015978966,-0.015978966,-0.026631612000000002,-20.64,41.52,15.84
1554883552824,9.591172,-0.5895722,1.9195513,-0.035153727999999995,-0.010652645,-0.020240024,-20.64,41.4,15.84
1554883552844,9.629479,-0.6135142,1.8477252,-0.018109497,-0.0010652645,-0.015978966,-20.64,41.4,15.9
1554883552864,9.595961,-0.52253455,1.8429368000000002,0.00958738,-0.0010652645,-0.02130529,-20.7,41.4,15.9
1554883552884,9.591172,-0.46986207,1.9434932,0.015978966,-0.007456851,-0.023435817999999997,-20.7,41.4,15.9
1554883552903,9.600749,-0.53211135,1.9003976999999999,-0.002130529,-0.01917476,-0.020240024,-20.7,41.4,15.96
1554883552924,9.600749,-0.5081693,1.7758990000000001,-0.013848438000000001,-0.024501082,-0.015978966,-20.76,41.4,15.96
1554883552944,9.572019000000001,-0.5033809,1.8429368000000002,-0.022370555,-0.013848438000000001,-0.015978966,-20.76,41.4,15.96
1554883552964,9.600749,-0.6278794,1.8285716,-0.02876214,-0.02130529,-0.020240024,-20.82,41.4,15.96
1554883552984,9.552864999999999,-0.6135142,1.881244,0.012783173500000002,-0.02876214,-0.025566347000000003,-20.82,41.4,15.96
1554883553004,9.543288,-0.55605334,1.9099745,0.053263225,-0.025566347000000003,-0.03089267,-20.82,41.4,15.96
1554883553024,9.562441999999999,-0.54647654,1.7711107,0.06604639400000001,-0.03089267,-0.029827405,-20.82,41.4,15.96
1554883553043,9.615114,-0.44113165,1.8285716,0.051132694000000006,-0.03089267,-0.022370555,-20.76,41.4,16.02
1554883553063,9.576807,-0.53211135,1.7854759999999998,0.012783173500000002,-0.025566347000000003,-0.025566347000000003,-20.76,41.4,16.08
1554883553083,9.610325999999999,-0.57041854,1.8333599999999999,-0.012783173500000002,-0.017044231,-0.020240024,-20.7,41.4,16.08
1554883553104,9.543288,-0.57999533,1.9387047999999998,-0.0063915867,-0.007456851,-0.02130529,-20.58,41.4,16.14
1554883553123,9.615114,-0.65182143,1.8908207,0.00958738,-0.007456851,-0.020240024,-20.52,41.4,16.2
1554883553144,9.634267999999999,-0.5991489999999999,1.7806876,0.03089267,-0.011717908999999999,-0.013848438000000001,-20.4,41.4,16.32
1554883553164,9.595961,-0.54647654,1.8285716,0.033023197000000004,-0.008522116,-0.015978966,-20.34,41.4,16.38
1554883553183,9.605537,-0.6183026,1.881244,0.018109497,-0.012783173500000002,-0.011717908999999999,-20.28,41.4,16.44
1554883553204,9.634267999999999,-0.5895722,1.6178818000000001,0.014913702,-0.013848438000000001,-0.015978966,-20.22,41.46,16.44
1554883553223,9.519346,-0.52253455,1.8860323,0.020240024,-0.010652645,-0.02130529,-20.22,41.46,16.44
1554883553243,9.447519999999999,-0.55126494,1.8620903000000002,0.035153727999999995,-0.00958738,-0.012783173500000002,-20.22,41.58,16.44
1554883553264,9.562441999999999,-0.54647654,1.7902644,0.03834952,-0.017044231,-0.008522116,-20.22,41.64,16.44
1554883553283,9.615114,-0.5943606,1.9674352,0.02876214,-0.018109497,-0.008522116,-20.22,41.7,16.44
1554883553304,9.615114,-0.5081693,1.8381484000000001,0.029827405,-0.004261058,-0.012783173500000002,-20.22,41.82,16.38
1554883553323,9.552864999999999,-0.45549688,1.9387047999999998,0.027696876000000002,-0.0053263223,-0.012783173500000002,-20.22,41.88,16.38
1554883553344,9.595961,-0.55605334,1.7088615000000003,0.011717908999999999,-0.008522116,-0.015978966,-20.22,41.88,16.38
1554883553364,9.557653,-0.56563014,1.7328035,-0.00958738,-0.018109497,-0.01917476,-20.22,41.88,16.38
1554883553383,9.639056,-0.4890157,1.9243397,-0.004261058,-0.01917476,-0.017044231,-20.28,41.88,16.32
1554883553403,9.643844999999999,-0.5033809,2.0296845,0.012783173500000002,-0.007456851,-0.014913702,-20.28,41.82,16.32
1554883553424,9.581595,-0.46986207,1.929128,0.029827405,-0.0031957934000000003,-0.027696876000000002,-20.28,41.82,16.26
1554883553443,9.586383999999999,-0.4842273,1.8908207,0.023435817999999997,-0.008522116,-0.025566347000000003,-20.28,41.76,16.26
1554883553463,9.677363,-0.44592008,1.7711107,-0.012783173500000002,-0.011717908999999999,-0.027696876000000002,-20.28,41.64,16.2
1554883553484,9.639056,-0.57041854,1.8764555,-0.01917476,-0.004261058,-0.027696876000000002,-20.28,41.58,16.14
1554883553504,9.572019000000001,-0.66618663,1.9243397,0.014913702,0.0031957934000000003,-0.026631612000000002,-20.28,41.58,16.14
1554883553523,9.572019000000001,-0.5081693,1.8189948,0.05006743,0.010652645,-0.033023197000000004,-20.28,41.58,16.08
1554883553544,9.591172,-0.53689975,1.7423803,0.047936900000000005,0.012783173500000002,-0.036218993,-20.28,41.58,16.08
1554883553564,9.639056,-0.4890157,1.857302,0.014913702,0.008522116,-0.040480047000000005,-20.28,41.58,16.08
1554883553584,9.662998,-0.55605334,1.7758990000000001,-0.004261058,0.002130529,-0.047936900000000005,-20.28,41.52,16.02
1554883553604,9.639056,-0.623091,1.6753427,-0.012783173500000002,0.00958738,-0.046871635999999994,-20.22,41.52,16.02
1554883553624,9.648633,-0.6278794,1.9818004,0.023435817999999997,0.01917476,-0.04580637,-20.16,41.58,15.96
1554883553644,9.56723,-0.53211135,1.8620903000000002,0.056459017,0.0063915867,-0.039414786,-20.16,41.58,15.9
1554883553664,9.533711,-0.56084174,1.7471686999999998,0.06285059999999999,0.008522116,-0.047936900000000005,-20.1,41.64,15.9
1554883553684,9.524135000000001,-0.4985925,1.7854759999999998,0.054328485999999995,0.0063915867,-0.056459017,-20.1,41.64,15.9
1554883553704,9.615114,-0.54168814,1.8620903000000002,0.041545313,0.0053263223,-0.05006743,-20.04,41.58,15.84
1554883553724,9.514558000000001,-0.56084174,1.8860323,0.01917476,0.012783173500000002,-0.04580637,-20.04,41.52,15.84
1554883553744,9.557653,-0.56084174,1.8668787,0.00958738,0.014913702,-0.05006743,-20.04,41.52,15.84
1554883553763,9.533711,-0.4985925,1.7423803,0.0,0.014913702,-0.049002163,-20.04,41.46,15.78
1554883553783,9.481038999999999,-0.5081693,1.8716671000000003,0.0063915867,0.0063915867,-0.040480047000000005,-20.04,41.4,15.72
1554883553804,9.581595,-0.6278794,1.7902644,0.0053263223,0.0010652645,-0.039414786,-20.1,41.34,15.66
1554883553823,9.533711,-0.56563014,1.8142063999999998,0.015978966,0.0063915867,-0.029827405,-20.1,41.28,15.48
1554883553843,9.557653,-0.55126494,1.8189948,0.015978966,0.0031957934000000003,-0.027696876000000002,-20.16,41.28,15.42
1554883553864,9.552864999999999,-0.52732295,1.7902644,0.013848438000000001,-0.002130529,-0.026631612000000002,-20.16,41.28,15.24
1554883553883,9.56723,-0.54168814,1.8189948,0.0031957934000000003,-0.007456851,-0.015978966,-20.16,41.28,15.12
1554883553904,9.639056,-0.57999533,1.6418238,-0.013848438000000001,-0.002130529,-0.013848438000000001,-20.22,41.28,15.06
1554883553924,9.610325999999999,-0.5129577000000001,1.8620903000000002,-0.014913702,-0.008522116,-0.02130529,-20.16,41.28,15.0
1554883553944,9.514558000000001,-0.670975,1.8333599999999999,0.0053263223,-0.011717908999999999,-0.03089267,-20.16,41.28,14.94
1554883553964,9.562441999999999,-0.6039374,1.8668787,0.03834952,-0.014913702,-0.026631612000000002,-20.16,41.28,14.94
1554883553984,9.514558000000001,-0.55126494,1.9865887999999998,0.05965481,-0.012783173500000002,-0.017044231,-20.16,41.28,14.94
1554883554003,9.56723,-0.5033809,1.8620903000000002,0.05219796,-0.011717908999999999,-0.012783173500000002,-20.1,41.28,14.94
1554883554023,9.701305,-0.4794389,1.8381484000000001,0.027696876000000002,-0.008522116,-0.010652645,-20.1,41.28,14.88
1554883554043,9.629479,-0.4794389,1.7854759999999998,0.010652645,0.0,-0.010652645,-20.16,41.28,14.88
1554883554064,9.466674000000001,-0.45070848,1.8429368000000002,0.0031957934000000003,0.008522116,-0.007456851,-20.16,41.28,14.88
1554883554084,9.572019000000001,-0.42676646,1.7471686999999998,0.013848438000000001,0.0010652645,-0.008522116,-20.16,41.22,14.94
1554883554103,9.576807,-0.43634325,1.4838065,0.024501082,0.002130529,-0.012783173500000002,-20.22,41.1,14.88
1554883554123,9.629479,-0.4842273,1.6849195,0.018109497,-0.0053263223,-0.018109497,-20.28,41.04,14.88
1554883554144,9.615114,-0.45070848,1.8046296000000002,0.0010652645,-0.015978966,-0.025566347000000003,-20.34,40.92,14.88
1554883554163,9.586383999999999,-0.46507367,1.6274586000000002,-0.014913702,-0.02130529,-0.034088463,-20.34,40.86,14.94
1554883554184,9.744401,-0.42197806,1.8046296000000002,-0.023435817999999997,-0.020240024,-0.03089267,-20.4,40.8,15.0
1554883554204,9.706094,-0.4938041,1.6705543,-0.023435817999999997,-0.022370555,-0.02876214,-20.46,40.74,15.06
1554883554224,9.600749,-0.53689975,1.7184383,-0.018109497,-0.026631612000000002,-0.033023197000000004,-20.52,40.68,15.06
1554883554244,9.600749,-0.6087258000000001,1.7663223000000001,-0.004261058,-0.03195793,-0.03834952,-20.52,40.74,15.12
1554883554264,9.653421,-0.52253455,1.7375918999999997,0.004261058,-0.029827405,-0.04261058,-20.52,40.74,15.12
1554883554284,9.639056,-0.5847838000000001,1.8285716,0.012783173500000002,-0.033023197000000004,-0.04261058,-20.52,40.74,15.06
1554883554303,9.634267999999999,-0.44592008,1.8285716,0.011717908999999999,-0.02876214,-0.037284255,-20.46,40.74,15.06
1554883554323,9.562441999999999,-0.44113165,1.7854759999999998,-0.0010652645,-0.025566347000000003,-0.034088463,-20.46,40.74,15.06
1554883554343,9.677363,-0.54647654,1.8046296000000002,-0.024501082,-0.027696876000000002,-0.035153727999999995,-20.4,40.74,15.0
1554883554363,9.595961,-0.6374562,1.9578583999999999,-0.027696876000000002,-0.027696876000000002,-0.034088463,-20.34,40.68,15.0
1554883554384,9.677363,-0.6374562,1.8668787,-0.012783173500000002,-0.01917476,-0.03195793,-20.34,40.68,14.94
1554883554404,9.605537,-0.5847838000000001,1.8620903000000002,0.012783173500000002,-0.011717908999999999,-0.03089267,-20.34,40.68,14.94
1554883554424,9.624691,-0.54168814,1.8956091,0.029827405,-0.007456851,-0.027696876000000002,-20.34,40.68,14.94
1554883554444,9.576807,-0.45549688,1.9387047999999998,0.025566347000000003,0.0,-0.02876214,-20.34,40.68,15.06
1554883554463,9.600749,-0.4842273,1.8333599999999999,0.00958738,0.004261058,-0.033023197000000004,-20.4,40.68,15.12
1554883554483,9.619903,-0.55126494,1.7950528000000001,-0.0010652645,0.008522116,-0.035153727999999995,-20.4,40.68,15.12
1554883554504,9.634267999999999,-0.5895722,1.8764555,0.0010652645,0.0031957934000000003,-0.033023197000000004,-20.4,40.68,15.18
1554883554524,9.629479,-0.52253455,1.7854759999999998,0.011717908999999999,-0.0010652645,-0.03195793,-20.46,40.74,15.24
1554883554543,9.643844999999999,-0.4938041,1.7711107,0.022370555,0.004261058,-0.027696876000000002,-20.46,40.74,15.24
1554883554563,9.672575,-0.4985925,1.9339164,0.037284255,0.015978966,-0.03195793,-20.46,40.68,15.3
1554883554584,9.634267999999999,-0.44113165,1.8956091,0.043675844000000005,0.022370555,-0.026631612000000002,-20.4,40.68,15.3
1554883554604,9.519346,-0.4985925,1.6944963,0.036218993,0.018109497,-0.022370555,-20.4,40.62,15.3
1554883554623,9.509769,-0.55605334,1.929128,0.034088463,0.017044231,-0.02130529,-20.4,40.62,15.3
1554883554643,9.648633,-0.53689975,1.7615339,0.03195793,0.011717908999999999,-0.025566347000000003,-20.34,40.5,15.3
1554883554663,9.500193,-0.46986207,1.7758990000000001,0.037284255,0.012783173500000002,-0.024501082,-20.28,40.5,15.3
1554883554684,9.619903,-0.44592008,1.8333599999999999,0.05539375,0.010652645,-0.027696876000000002,-20.28,40.44,15.24
1554883554704,9.581595,-0.39803603,1.8046296000000002,0.04261058,0.00958738,-0.03195793,-20.22,40.38,15.18
1554883554724,9.514558000000001,-0.42197806,1.8333599999999999,0.03195793,-0.004261058,-0.03195793,-20.28,40.32,15.12
1554883554744,9.662998,-0.5081693,1.7471686999999998,0.022370555,-0.008522116,-0.03089267,-20.28,40.32,15.12
1554883554763,9.667786999999999,-0.5895722,1.8285716,0.014913702,-0.008522116,-0.029827405,-20.34,40.26,15.0
1554883554784,9.576807,-0.5129577000000001,1.809418,0.024501082,-0.011717908999999999,-0.039414786,-20.4,40.32,15.0
1554883554804,9.576807,-0.4842273,1.8477252,0.039414786,-0.015978966,-0.04580637,-20.4,40.32,14.94
1554883554825,9.581595,-0.4890157,1.6897078999999997,0.049002163,-0.013848438000000001,-0.04580637,-20.46,40.38,14.94
1554883554843,9.605537,-0.5081693,1.9147629000000002,0.043675844000000005,0.0,-0.04474111,-20.46,40.38,14.94
1554883554863,9.605537,-0.53689975,1.8716671000000003,0.02876214,0.010652645,-0.035153727999999995,-20.52,40.44,14.94
1554883554883,9.591172,-0.4794389,1.6801311,0.012783173500000002,0.01917476,-0.024501082,-20.52,40.44,15.0
1554883554904,9.610325999999999,-0.45070848,1.7040731,-0.0053263223,0.020240024,-0.018109497,-20.52,40.5,15.06
1554883554925,9.543288,-0.55126494,1.7567455,-0.011717908999999999,0.012783173500000002,-0.015978966,-20.52,40.5,15.12
1554883554944,9.519346,-0.5081693,1.6370354,0.010652645,0.00958738,-0.023435817999999997,-20.52,40.56,15.18
1554883554964,9.605537,-0.4985925,1.6514006,0.025566347000000003,0.010652645,-0.027696876000000002,-20.52,40.56,15.24
1554883554983,9.591172,-0.43155485,1.6274586000000002,0.03089267,0.002130529,-0.020240024,-20.52,40.56,15.24
1554883555003,9.519346,-0.22565351,1.5412674,0.007456851,-0.004261058,-0.010652645,-20.46,40.56,15.3
1554883555023,9.557653,-0.43634325,1.632247,-0.010652645,-0.010652645,-0.010652645,-20.46,40.56,15.3
1554883555044,9.572019000000001,-0.3309984,1.7040731,-0.007456851,-0.014913702,-0.025566347000000003,-20.4,40.56,15.36
1554883555064,9.524135000000001,-0.38367084,1.7328035,0.008522116,-0.027696876000000002,-0.04474111,-20.46,40.56,15.3
1554883555084,9.576807,-0.29747957,1.7088615000000003,0.0010652645,-0.041545313,-0.04261058,-20.46,40.56,15.3
1554883555103,9.65821,-0.27353755,2.0009542000000002,-0.025566347000000003,-0.041545313,-0.043675844000000005,-20.52,40.56,15.24
1554883555123,9.734824,-0.3597288,2.0392613,-0.05219796,-0.041545313,-0.039414786,-20.58,40.56,15.24
1554883555144,9.739613,-0.38367084,2.0440497,-0.07882957,-0.035153727999999995,-0.04261058,-20.58,40.56,15.24
1554883555164,9.701305,-0.32621,1.9147629000000002,-0.08735169,-0.015978966,-0.049002163,-20.64,40.56,15.3
1554883555184,9.581595,-0.38367084,1.9865887999999998,-0.08628642,0.008522116,-0.046871635999999994,-20.64,40.5,15.3
1554883555204,9.543288,-0.44592008,1.9961656000000003,-0.06924219,0.026631612000000002,-0.047936900000000005,-20.7,40.5,15.36
1554883555223,9.586383999999999,-0.38845924,2.0440497,-0.05752428,0.03089267,-0.05539375,-20.7,40.56,15.48
1554883555244,9.504980999999999,-0.3405752,1.9674352,-0.06498113,0.025566347000000003,-0.05006743,-20.7,40.56,15.66
1554883555264,9.533711,-0.46986207,2.0153193,-0.07243799,0.022370555,-0.051132694000000006,-20.7,40.56,15.84
1554883555284,9.586383999999999,-0.4985925,1.9674352,-0.06391586,0.02130529,-0.05006743,-20.7,40.62,15.96
1554883555303,9.615114,-0.46507367,1.8620903000000002,-0.05219796,0.018109497,-0.060720075,-20.7,40.62,16.08
1554883555323,9.548077000000001,-0.55126494,1.809418,-0.041545313,0.008522116,-0.06498113,-20.76,40.56,16.2
1554883555344,9.639056,-0.5129577000000001,1.8956091,-0.022370555,-0.012783173500000002,-0.06285059999999999,-20.76,40.5,16.32
1554883555363,9.634267999999999,-0.4794389,1.9195513,0.0,-0.017044231,-0.058589544,-20.82,40.5,16.38
1554883555383,9.624691,-0.39324763,1.9578583999999999,0.008522116,-0.018109497,-0.05006743,-20.88,40.44,16.5
1554883555404,9.557653,-0.53689975,2.0440497,0.0063915867,-0.014913702,-0.049002163,-20.94,40.38,16.56
1554883555424,9.5385,-0.44113165,2.0536265,-0.014913702,-0.024501082,-0.049002163,-21.0,40.38,16.56
1554883555444,9.552864999999999,-0.6183026,2.1015105,-0.025566347000000003,-0.01917476,-0.04474111,-21.12,40.32,16.62
1554883555463,9.600749,-0.6087258000000001,1.9722236000000002,-0.015978966,0.0,-0.023435817999999997,-21.18,40.32,16.62
1554883555483,9.562441999999999,-0.5847838000000001,2.1924900000000003,0.010652645,0.029827405,-0.004261058,-21.3,40.38,16.68
1554883555503,9.5385,-0.53689975,2.1493945,0.03195793,0.06391586,0.013848438000000001,-21.36,40.44,16.68
1554883555524,9.519346,-0.40761283,1.9961656000000003,0.02876214,0.094808534,0.034088463,-21.48,40.5,16.62
1554883555543,9.437942999999999,-0.38845924,1.8429368000000002,0.0053263223,0.10013486,0.04580637,-21.48,40.5,16.62
1554883555563,9.485827,-0.30705637,2.0105310000000003,-0.015978966,0.07776430000000001,0.041545313,-21.48,40.5,16.62
1554883555584,9.552864999999999,-0.42676646,1.7854759999999998,0.002130529,0.039414786,0.024501082,-21.48,40.5,16.62
1554883555604,9.619903,-0.30705637,1.7806876,0.035153727999999995,0.010652645,0.0,-21.48,40.56,16.62
1554883555623,9.572019000000001,-0.29747957,1.8477252,0.06498113,-0.014913702,-0.020240024,-21.48,40.56,16.62
1554883555643,9.595961,-0.38845924,1.9195513,0.083090626,-0.05006743,-0.03089267,-21.42,40.56,16.62
1554883555663,9.619903,-0.32142156,1.8333599999999999,0.07882957,-0.07776430000000001,-0.041545313,-21.3,40.56,16.62
1554883555683,9.629479,-0.3309984,2.0919337,0.06711166,-0.08522116,-0.053263225,-21.18,40.56,16.62
1554883555704,9.610325999999999,-0.43155485,2.2212207000000004,0.07030745599999999,-0.06604639400000001,-0.05219796,-21.12,40.56,16.62
1554883555723,9.629479,-0.41718966,2.1158757,0.06391586,-0.04580637,-0.046871635999999994,-21.0,40.56,16.68
1554883555743,9.586383999999999,-0.3788824,2.1398177000000005,0.034088463,-0.02130529,-0.03834952,-20.94,40.62,16.62
1554883555763,9.471461999999999,-0.3645172,2.2307975,-0.015978966,-0.0031957934000000003,-0.022370555,-20.88,40.62,16.62
1554883555784,9.490616000000001,-0.5033809,2.1015105,-0.05219796,0.008522116,-0.00958738,-20.82,40.62,16.62
1554883555804,9.481038999999999,-0.47465047,2.130241,-0.034088463,0.012783173500000002,-0.00958738,-20.76,40.68,16.56
1554883555823,9.428367,-0.54168814,1.9339164,0.027696876000000002,0.027696876000000002,-0.014913702,-20.82,40.68,16.5
1554883555843,9.5385,-0.46507367,1.9434932,0.080960095,0.035153727999999995,-0.018109497,-20.82,40.74,16.5
1554883555864,9.605537,-0.44592008,1.7711107,0.09054748,0.033023197000000004,-0.012783173500000002,-20.82,40.8,16.44
1554883555884,9.509769,-0.3309984,1.929128,0.06285059999999999,0.03089267,-0.0053263223,-20.82,40.8,16.38
1554883555903,9.447519999999999,-0.39324763,1.8477252,0.015978966,0.012783173500000002,0.0,-20.82,40.8,16.32
1554883555924,9.572019000000001,-0.3645172,1.8285716,-0.015978966,0.0,0.002130529,-20.82,40.8,16.32
1554883555944,9.634267999999999,-0.45070848,1.857302,-0.012783173500000002,0.0010652645,-0.0063915867,-20.82,40.8,16.26
1554883555964,9.495403999999999,-0.43155485,1.8333599999999999,0.004261058,-0.010652645,-0.012783173500000002,-20.82,40.8,16.2
1554883555984,9.5385,-0.43155485,1.7806876,0.022370555,-0.023435817999999997,-0.018109497,-20.82,40.86,16.2
1554883556003,9.591172,-0.56563014,1.9387047999999998,0.029827405,-0.02876214,-0.013848438000000001,-20.82,40.92,16.14
1554883556023,9.519346,-0.55605334,2.0153193,0.03089267,-0.017044231,-0.002130529,-20.82,40.98,16.08
1554883556044,9.595961,-0.40761283,2.1829132999999996,0.022370555,-0.002130529,0.007456851,-20.82,41.04,16.08
1554883556064,9.514558000000001,-0.374094,2.0440497,0.0,0.022370555,0.02876214,-20.82,41.1,16.02
1554883556084,9.600749,-0.40761283,2.0440497,-0.025566347000000003,0.035153727999999995,0.041545313,-20.76,41.16,15.96
1554883556103,9.5385,-0.4985925,2.0775685,-0.03195793,0.041545313,0.035153727999999995,-20.76,41.16,15.9
1554883556124,9.572019000000001,-0.4985925,2.0344729999999998,-0.007456851,0.034088463,0.026631612000000002,-20.7,41.22,15.84
1554883556144,9.65821,-0.52732295,2.0153193,0.034088463,0.033023197000000004,0.014913702,-20.64,41.22,15.84
1554883556164,9.56723,-0.38367084,1.8285716,0.04580637,0.035153727999999995,0.014913702,-20.58,41.22,15.78
1554883556183,9.610325999999999,-0.43155485,1.8668787,0.025566347000000003,0.02876214,0.013848438000000001,-20.52,41.16,15.72
1554883556203,9.624691,-0.41718966,1.7615339,-0.004261058,0.017044231,0.00958738,-20.46,41.16,15.72
1554883556223,9.466674000000001,-0.40761283,1.8333599999999999,-0.025566347000000003,0.008522116,0.0010652645,-20.4,41.1,15.66
1554883556244,9.615114,-0.5033809,1.8860323,-0.025566347000000003,-0.007456851,-0.018109497,-20.34,41.1,15.66
1554883556263,9.528922999999999,-0.52253455,1.8429368000000002,-0.0053263223,-0.01917476,-0.036218993,-20.28,41.1,15.6
1554883556283,9.528922999999999,-0.3788824,1.9147629000000002,0.01917476,-0.036218993,-0.04580637,-20.28,41.1,15.6
1554883556304,9.533711,-0.38845924,1.881244,0.024501082,-0.05752428,-0.047936900000000005,-20.22,41.16,15.54
1554883556324,9.653421,-0.4938041,1.8429368000000002,0.010652645,-0.07776430000000001,-0.049002163,-20.16,41.16,15.54
1554883556344,9.65821,-0.46986207,1.9482816000000003,-0.007456851,-0.07989483,-0.054328485999999995,-20.16,41.22,15.48
1554883556363,9.519346,-0.52732295,2.0392613,-0.007456851,-0.084155895,-0.05965481,-20.16,41.22,15.42
1554883556384,9.504980999999999,-0.52253455,1.9434932,0.0010652645,-0.084155895,-0.06924219,-20.22,41.28,15.36
1554883556404,9.514558000000001,-0.53211135,2.130241,0.015978966,-0.08841695,-0.07350325,-20.22,41.28,15.36
1554883556423,9.562441999999999,-0.55126494,2.082357,0.03089267,-0.08735169,-0.06498113,-20.28,41.28,15.3
1554883556443,9.682152,-0.5943606,2.1206641,0.037284255,-0.083090626,-0.05965481,-20.34,41.34,15.24
1554883556464,9.691728999999999,-0.6039374,2.0919337,0.039414786,-0.060720075,-0.06178534,-20.4,41.34,15.24
1554883556483,9.509769,-0.53689975,2.2068555,0.04474111,-0.037284255,-0.053263225,-20.4,41.34,15.24
1554883556504,9.504980999999999,-0.5081693,2.1972785,0.039414786,-0.015978966,-0.03834952,-20.34,41.4,15.24
1554883556524,9.495403999999999,-0.57999533,2.0248961,0.02876214,0.0053263223,-0.020240024,-20.28,41.4,15.24
1554883556544,9.56723,-0.57999533,2.2930467,0.023435817999999997,0.020240024,-0.004261058,-20.16,41.4,15.24
1554883556563,9.466674000000001,-0.5033809,2.0248961,0.034088463,0.043675844000000005,0.008522116,-20.04,41.46,15.24
1554883556583,9.586383999999999,-0.57999533,2.0727801,0.043675844000000005,0.060720075,0.013848438000000001,-19.98,41.46,15.18
1554883556603,9.557653,-0.45549688,1.8716671000000003,0.027696876000000002,0.07776430000000001,0.022370555,-19.86,41.52,15.18
1554883556624,9.509769,-0.4985925,1.8142063999999998,0.0063915867,0.080960095,0.04261058,-19.8,41.58,15.12
1554883556644,9.490616000000001,-0.45070848,1.7615339,-0.015978966,0.06178534,0.05219796,-19.8,41.64,15.06
1554883556663,9.514558000000001,-0.4890157,1.7471686999999998,-0.00958738,0.026631612000000002,0.047936900000000005,-19.8,41.7,15.0
1554883556683,9.572019000000001,-0.4794389,1.6801311,0.020240024,-0.015978966,0.018109497,-19.74,41.76,14.94
1554883556704,9.610325999999999,-0.5033809,1.8764555,0.07456851,-0.05965481,-0.015978966,-19.74,41.82,14.88
1554883556724,9.619903,-0.5129577000000001,1.8908207,0.13848437,-0.096939065,-0.04474111,-19.68,41.88,14.82
1554883556743,9.600749,-0.5033809,1.857302,0.18109496,-0.10439592,-0.06285059999999999,-19.68,41.94,14.76
1554883556763,9.758766,-0.6087258000000001,1.9626468000000001,0.18642128,-0.09587380000000001,-0.07563378,-19.62,42.0,14.7
1554883556783,9.825804,-0.57999533,1.9865887999999998,0.16192019,-0.06604639400000001,-0.068176925,-19.62,42.0,14.64
1554883556804,9.773131,-0.5081693,2.0775685,0.080960095,-0.014913702,-0.041545313,-19.56,42.0,14.52
1554883556823,9.634267999999999,-0.57999533,1.929128,0.02130529,0.018109497,-0.026631612000000002,-19.56,42.06,14.4
1554883556844,9.629479,-0.53211135,1.9387047999999998,-0.05965481,0.05752428,0.00958738,-19.62,42.06,14.28
1554883556864,9.629479,-0.66139823,1.8668787,-0.07243799,0.06924219,0.02130529,-19.62,42.0,14.04
1554883556884,9.610325999999999,-0.7236475,1.7471686999999998,-0.024501082,0.07456851,0.0063915867,-19.62,42.0,13.86
1554883556903,9.572019000000001,-0.76195467,1.7806876,0.05539375,0.051132694000000006,-0.025566347000000003,-19.62,42.0,13.68
1554883556923,9.500193,-0.694917,1.7758990000000001,0.12250541,0.03195793,-0.058589544,-19.62,42.0,13.5
1554883556944,9.581595,-0.7763199000000001,1.5891514,0.15233281,0.013848438000000001,-0.07456851,-19.62,42.0,13.32
1554883556964,9.605537,-0.7428011,1.6274586000000002,0.14913702,0.015978966,-0.07989483,-19.62,42.06,13.2
1554883556984,9.696517,-0.7044938000000001,1.5699978,0.13102753,0.027696876000000002,-0.07776430000000001,-19.62,42.12,13.08
1554883557004,9.691728999999999,-0.7332243,1.3784616000000003,0.08735169,0.040480047000000005,-0.07989483,-19.62,42.12,13.02
1554883557024,9.725247,-0.66139823,1.3784616000000003,0.022370555,0.051132694000000006,-0.07030745599999999,-19.62,42.18,12.9
1554883557044,9.634267999999999,-0.7284359,1.3305776000000002,-0.033023197000000004,0.054328485999999995,-0.053263225,-19.62,42.24,12.78
1554883557064,9.557653,-0.7044938000000001,1.6514006,-0.07882957,0.04474111,-0.034088463,-19.62,42.24,12.6
1554883557083,9.639056,-0.85293436,1.5316905,-0.08628642,0.02876214,-0.022370555,-19.62,42.24,12.36
1554883557104,9.524135000000001,-0.9008184000000001,1.6418238,-0.04261058,0.0063915867,-0.008522116,-19.68,42.24,12.12
1554883557123,9.591172,-0.7715314999999999,1.8716671000000003,0.012783173500000002,-0.00958738,0.0,-19.68,42.24,11.88
1554883557143,9.634267999999999,-0.65660983,1.6178818000000001,0.046871635999999994,-0.025566347000000003,-0.007456851,-19.74,42.18,11.64
1554883557164,9.533711,-0.7044938000000001,1.8189948,0.053263225,-0.035153727999999995,-0.012783173500000002,-19.74,42.18,11.46
1554883557184,9.595961,-0.6278794,1.9818004,0.035153727999999995,-0.041545313,-0.015978966,-19.8,42.12,11.34
1554883557203,9.639056,-0.6183026,1.8237831999999998,0.008522116,-0.039414786,-0.015978966,-19.8,42.06,11.28
1554883557224,9.610325999999999,-0.6997054,1.977012,-0.0063915867,-0.024501082,-0.015978966,-19.86,42.0,11.34
1554883557243,9.56723,-0.6422445999999999,1.7950528000000001,-0.010652645,-0.011717908999999999,-0.020240024,-19.92,41.94,11.4
1554883557264,9.605537,-0.5943606,1.9003976999999999,-0.025566347000000003,0.004261058,-0.022370555,-19.92,41.88,11.46
1554883557283,9.643844999999999,-0.6422445999999999,1.9865887999999998,-0.058589544,0.020240024,-0.026631612000000002,-19.92,41.82,11.58
1554883557303,9.605537,-0.5991489999999999,1.7806876,-0.10013486,0.041545313,-0.024501082,-19.92,41.76,11.64
1554883557324,9.624691,-0.54647654,1.8189948,-0.15233281,0.054328485999999995,-0.024501082,-19.92,41.64,11.76
1554883557344,9.557653,-0.670975,1.9387047999999998,-0.16085494,0.047936900000000005,-0.039414786,-19.92,41.58,11.82
1554883557364,9.667786999999999,-0.64703304,1.9099745,-0.13209279,0.036218993,-0.053263225,-19.86,41.58,11.94
1554883557383,9.672575,-0.670975,1.8477252,-0.083090626,0.036218993,-0.05539375,-19.8,41.58,12.12
1554883557404,9.639056,-0.65182143,1.8046296000000002,-0.040480047000000005,0.025566347000000003,-0.05006743,-19.8,41.58,12.3
1554883557424,9.643844999999999,-0.52732295,1.8716671000000003,-0.025566347000000003,0.020240024,-0.041545313,-19.74,41.52,12.54
1554883557444,9.414000999999999,-0.52253455,1.9626468000000001,-0.034088463,0.017044231,-0.02876214,-19.68,41.52,12.66
1554883557464,9.509769,-0.56563014,1.9961656000000003,-0.03089267,0.011717908999999999,-0.026631612000000002,-19.68,41.52,12.84
1554883557483,9.519346,-0.54647654,2.130241,-0.026631612000000002,0.011717908999999999,-0.023435817999999997,-19.68,41.58,13.02
1554883557503,9.524135000000001,-0.44113165,2.0919337,-0.051132694000000006,0.03195793,-0.010652645,-19.68,41.52,13.14
1554883557523,9.533711,-0.45549688,2.0488381,-0.08948222,0.04580637,0.0031957934000000003,-19.74,41.52,13.32
1554883557544,9.591172,-0.53211135,2.2691047,-0.11824436,0.043675844000000005,0.007456851,-19.74,41.46,13.38
1554883557563,9.600749,-0.42197806,2.2307975,-0.09054748,0.039414786,0.0,-19.8,41.4,13.5
1554883557583,9.524135000000001,-0.38845924,2.202067,-0.05006743,0.040480047000000005,-0.0053263223,-19.8,41.34,13.62
1554883557604,9.552864999999999,-0.43155485,2.1877017000000003,0.0031957934000000003,0.03834952,-0.00958738,-19.86,41.22,13.8
1554883557624,9.466674000000001,-0.32142156,2.297835,0.018109497,0.037284255,-0.01917476,-19.86,41.16,13.98
1554883557643,9.56723,-0.350152,2.2547395,0.011717908999999999,0.036218993,-0.02876214,-19.92,41.04,14.1
1554883557664,9.624691,-0.38367084,2.0775685,-0.0031957934000000003,0.041545313,-0.033023197000000004,-19.92,40.92,14.22
1554883557683,9.610325999999999,-0.43155485,2.235586,-0.0053263223,0.053263225,-0.05006743,-19.92,40.8,14.34
1554883557703,9.495403999999999,-0.32621,2.3026235,-0.0031957934000000003,0.05752428,-0.06178534,-19.92,40.74,14.4
1554883557723,9.428367,-0.3357868,2.168548,0.023435817999999997,0.053263225,-0.083090626,-19.92,40.68,14.46
1554883557744,9.591172,-0.24001873,2.3361422999999997,0.029827405,0.051132694000000006,-0.08948222,-19.98,40.68,14.52
1554883557763,9.572019000000001,-0.42676646,2.3409307,0.023435817999999997,0.04261058,-0.10759171,-19.98,40.62,14.52
1554883557783,9.552864999999999,-0.3597288,2.4079683,0.015978966,0.035153727999999995,-0.112918034,-20.04,40.62,14.52
1554883557804,9.490616000000001,-0.55605334,2.345719,0.015978966,0.034088463,-0.113983296,-20.1,40.56,14.52
1554883557824,9.452309,-0.47465047,2.2786815,0.036218993,0.040480047000000005,-0.11717909,-20.1,40.56,14.52
1554883557844,9.428367,-0.47465047,2.2691047,0.05752428,0.047936900000000005,-0.111852765,-20.16,40.5,14.52
1554883557864,9.390058999999999,-0.44113165,2.3696610000000002,0.05752428,0.049002163,-0.10439592,-20.22,40.44,14.58
1554883557885,9.423578,-0.43155485,2.2643162999999995,0.036218993,0.053263225,-0.09587380000000001,-20.34,40.44,14.58
1554883557903,9.313444,-0.36930559999999996,2.3409307,0.017044231,0.05006743,-0.08841695,-20.46,40.38,14.58
1554883557923,9.227253,-0.31663316,2.1877017000000003,0.008522116,0.051132694000000006,-0.08628642,-20.52,40.32,14.52
1554883557944,9.246407000000001,-0.44592008,2.331354,0.0063915867,0.039414786,-0.083090626,-20.64,40.26,14.52
1554883557964,9.217675999999999,-0.3788824,2.0919337,0.00958738,0.029827405,-0.06924219,-20.7,40.14,14.52
1554883557983,9.351752000000001,-0.32142156,2.0536265,0.0063915867,0.017044231,-0.046871635999999994,-20.76,40.08,14.46
1554883558003,9.3182335,-0.42676646,2.1829132999999996,0.004261058,0.0063915867,-0.03195793,-20.82,39.96,14.46
1554883558025,9.404425,-0.35494040000000004,2.0632033,0.00958738,-0.018109497,-0.025566347000000003,-20.88,39.84,14.4
1554883558044,9.3421755,-0.32142156,2.1877017000000003,0.00958738,-0.035153727999999995,-0.015978966,-20.88,39.78,14.4
1554883558063,9.3661175,-0.38845924,2.1110873,0.002130529,-0.05006743,-0.0053263223,-20.94,39.72,14.34
1554883558083,9.485827,-0.3597288,2.235586,-0.0053263223,-0.06498113,0.0010652645,-21.0,39.66,14.34
1554883558104,9.461885,-0.46986207,2.4510639,0.011717908999999999,-0.07137272,0.0,-21.06,39.54,14.34
1554883558123,9.509769,-0.350152,2.3361422999999997,0.047936900000000005,-0.07776430000000001,-0.0031957934000000003,-21.12,39.6,14.4
1554883558143,9.481038999999999,-0.27832595,2.4702177000000005,0.05752428,-0.07137272,0.0,-21.18,39.6,14.4
1554883558163,9.576807,-0.20649989,2.273893,0.047936900000000005,-0.07137272,0.0053263223,-21.24,39.6,14.4
1554883558184,9.586383999999999,-0.27353755,2.3936029999999997,0.020240024,-0.054328485999999995,0.0,-21.36,39.66,14.52
1554883558204,9.591172,-0.31663316,2.4893713,-0.002130529,-0.041545313,-0.007456851,-21.42,39.66,14.58
1554883558224,9.576807,-0.29747957,2.3361422999999997,-0.008522116,-0.023435817999999997,-0.008522116,-21.42,39.66,14.58
1554883558244,9.481038999999999,-0.32621,2.3169887000000005,-0.0031957934000000003,-0.0053263223,-0.007456851,-21.42,39.66,14.64
1554883558263,9.490616000000001,-0.39803603,2.178125,-0.002130529,-0.0031957934000000003,-0.008522116,-21.42,39.72,14.7
1554883558283,9.56723,-0.36930559999999996,2.379238,-0.010652645,0.002130529,-0.017044231,-21.42,39.72,14.76
1554883558304,9.56723,-0.43155485,2.2930467,-0.026631612000000002,0.0031957934000000003,-0.027696876000000002,-21.36,39.6,14.88
1554883558324,9.437942999999999,-0.6183026,2.2212207000000004,-0.022370555,0.012783173500000002,-0.025566347000000003,-21.3,39.54,15.0
1554883558344,9.581595,-0.53689975,2.2451627,-0.014913702,0.026631612000000002,-0.018109497,-21.18,39.48,15.06
1554883558363,9.514558000000001,-0.47465047,2.0009542000000002,-0.011717908999999999,0.033023197000000004,-0.013848438000000001,-21.12,39.42,15.12
1554883558384,9.481038999999999,-0.40761283,2.0105310000000003,-0.025566347000000003,0.03195793,-0.007456851,-21.06,39.36,15.06
1554883558403,9.586383999999999,-0.4985925,2.1877017000000003,-0.033023197000000004,0.02876214,-0.004261058,-21.06,39.36,14.94
1554883558423,9.461885,-0.56084174,2.1829132999999996,-0.022370555,0.03195793,-0.002130529,-21.06,39.3,14.82
1554883558444,9.466674000000001,-0.47465047,2.0296845,-0.008522116,0.03089267,0.0,-21.12,39.24,14.58
1554883558463,9.562441999999999,-0.4985925,2.0775685,-0.0063915867,0.034088463,0.0053263223,-21.12,39.24,14.46
1554883558484,9.524135000000001,-0.44592008,2.1493945,-0.014913702,0.03195793,0.0010652645,-21.18,39.24,14.34
1554883558503,9.514558000000001,-0.55126494,2.3505075,-0.012783173500000002,0.029827405,0.002130529,-21.18,39.24,14.22
1554883558524,9.562441999999999,-0.54168814,2.2212207000000004,0.002130529,0.029827405,0.0053263223,-21.24,39.24,14.1
1554883558543,9.615114,-0.44592008,2.4366987,0.023435817999999997,0.03834952,0.010652645,-21.24,39.18,14.1
1554883558563,9.514558000000001,-0.4794389,2.235586,0.039414786,0.051132694000000006,0.011717908999999999,-21.18,39.18,14.22
1554883558584,9.471461999999999,-0.40761283,2.154183,0.029827405,0.058589544,0.011717908999999999,-21.18,39.12,14.28
1554883558604,9.433155000000001,-0.32142156,2.0153193,0.002130529,0.05752428,0.015978966,-21.12,39.12,14.34
1554883558624,9.485827,-0.45549688,2.0153193,-0.036218993,0.053263225,0.014913702,-21.06,39.06,14.4
1554883558644,9.447519999999999,-0.30705637,2.2212207000000004,-0.037284255,0.039414786,0.010652645,-21.0,39.06,14.4
1554883558663,9.557653,-0.4890157,2.2643162999999995,-0.0031957934000000003,0.026631612000000002,0.0,-20.94,39.06,14.4
1554883558683,9.65821,-0.43634325,1.9003976999999999,0.027696876000000002,0.014913702,-0.014913702,-20.88,39.0,14.4
1554883558704,9.634267999999999,-0.32142156,2.0440497,0.03195793,0.0010652645,-0.024501082,-20.88,39.0,14.4
1554883558724,9.543288,-0.350152,1.9578583999999999,0.0031957934000000003,-0.023435817999999997,-0.02876214,-20.82,39.0,14.34
1554883558744,9.399636,-0.39324763,2.0632033,-0.02130529,-0.046871635999999994,-0.033023197000000004,-20.76,38.94,14.34
1554883558763,9.495403999999999,-0.43155485,2.1733365,-0.027696876000000002,-0.056459017,-0.03834952,-20.7,38.88,14.4
1554883558784,9.495403999999999,-0.39803603,2.1206641,-0.00958738,-0.056459017,-0.047936900000000005,-20.64,38.82,14.4
1554883558804,9.5385,-0.36930559999999996,2.1972785,0.004261058,-0.06711166,-0.054328485999999995,-20.64,38.76,14.4
1554883558823,9.447519999999999,-0.3788824,1.9434932,-0.013848438000000001,-0.07137272,-0.060720075,-20.64,38.7,14.4
1554883558843,9.428367,-0.3309984,2.0392613,-0.046871635999999994,-0.07989483,-0.06924219,-20.64,38.64,14.4
1554883558864,9.528922999999999,-0.46986207,2.2068555,-0.068176925,-0.08948222,-0.07350325,-20.64,38.64,14.46
1554883558883,9.557653,-0.54168814,2.2164322999999997,-0.047936900000000005,-0.08948222,-0.07776430000000001,-20.7,38.64,14.46
1554883558905,9.586383999999999,-0.5129577000000001,2.321777,-0.013848438000000001,-0.08948222,-0.082025364,-20.7,38.64,14.52
1554883558924,9.576807,-0.54168814,2.3409307,0.0063915867,-0.07989483,-0.083090626,-20.76,38.64,14.52
1554883558944,9.557653,-0.4938041,2.202067,0.002130529,-0.06178534,-0.07776430000000001,-20.82,38.7,14.52
1554883558963,9.65821,-0.5081693,2.2451627,-0.013848438000000001,-0.039414786,-0.06711166,-20.94,38.76,14.58
1554883558985,9.710882000000002,-0.52732295,2.3744495,-0.053263225,-0.011717908999999999,-0.051132694000000006,-21.0,38.82,14.64
1554883559003,9.591172,-0.57041854,2.2643162999999995,-0.056459017,0.002130529,-0.043675844000000005,-21.06,38.82,14.64
1554883559024,9.619903,-0.6183026,2.154183,-0.036218993,0.025566347000000003,-0.02876214,-21.12,38.88,14.7
1554883559044,9.552864999999999,-0.47465047,2.2451627,-0.0031957934000000003,0.047936900000000005,-0.026631612000000002,-21.24,38.88,14.76
1554883559065,9.495403999999999,-0.5081693,1.9722236000000002,0.02130529,0.05965481,-0.023435817999999997,-21.24,38.94,14.82
1554883559083,9.500193,-0.41718966,2.1254525,0.015978966,0.07030745599999999,-0.012783173500000002,-21.3,38.94,14.88
1554883559104,9.5385,-0.4890157,2.0775685,-0.007456851,0.07243799,-0.00958738,-21.36,38.94,14.94
1554883559124,9.591172,-0.47465047,2.0967221,-0.013848438000000001,0.083090626,-0.008522116,-21.36,38.94,14.94
1554883559144,9.562441999999999,-0.43155485,2.0919337,-0.002130529,0.08841695,-0.007456851,-21.42,38.88,15.0
1554883559164,9.552864999999999,-0.374094,2.1877017000000003,0.013848438000000001,0.096939065,-0.015978966,-21.42,38.88,15.0
1554883559183,9.390058999999999,-0.3645172,1.977012,0.012783173500000002,0.111852765,-0.020240024,-21.42,38.82,15.06
1554883559204,9.404425,-0.30705637,2.331354,0.02130529,0.10013486,-0.020240024,-21.42,38.76,15.0
1554883559224,9.370906,-0.30226797,2.2691047,0.013848438000000001,0.08948222,-0.020240024,-21.36,38.76,15.0
1554883559244,9.3661175,-0.26396075,2.0009542000000002,-0.007456851,0.060720075,-0.043675844000000005,-21.36,38.7,14.94
1554883559263,9.447519999999999,-0.41718966,2.1398177000000005,-0.022370555,0.04580637,-0.05219796,-21.36,38.7,14.94
1554883559283,9.452309,-0.44592008,2.1972785,-0.033023197000000004,0.026631612000000002,-0.068176925,-21.3,38.64,14.94
1554883559304,9.548077000000001,-0.52732295,2.3265655,-0.020240024,0.004261058,-0.07243799,-21.24,38.64,14.94
1554883559323,9.533711,-0.5081693,2.178125,-0.008522116,-0.010652645,-0.07243799,-21.24,38.64,14.94
1554883559344,9.457097000000001,-0.45549688,2.2403743,0.008522116,-0.02130529,-0.07456851,-21.24,38.64,14.94
1554883559364,9.404425,-0.5943606,2.331354,0.020240024,-0.02876214,-0.06711166,-21.24,38.64,14.94
1554883559383,9.485827,-0.44592008,2.1350293,0.027696876000000002,-0.029827405,-0.05752428,-21.24,38.64,15.0
1554883559403,9.461885,-0.374094,2.3361422999999997,0.008522116,-0.033023197000000004,-0.05006743,-21.24,38.64,15.0
1554883559424,9.447519999999999,-0.47465047,2.345719,-0.01917476,-0.040480047000000005,-0.04474111,-21.24,38.7,15.06
1554883559444,9.471461999999999,-0.5129577000000001,2.28347,-0.014913702,-0.047936900000000005,-0.05219796,-21.3,38.7,15.06
1554883559464,9.3661175,-0.47465047,2.144606,0.010652645,-0.049002163,-0.049002163,-21.36,38.7,15.06
1554883559483,9.380483,-0.39803603,2.202067,0.03195793,-0.053263225,-0.046871635999999994,-21.36,38.7,15.06
1554883559504,9.299078999999999,-0.3357868,2.2547395,0.05006743,-0.07243799,-0.046871635999999994,-21.42,38.7,15.06
1554883559524,9.476251,-0.38367084,2.3361422999999997,0.06285059999999999,-0.083090626,-0.053263225,-21.42,38.7,15.06
1554883559544,9.543288,-0.43634325,2.498948,0.07030745599999999,-0.080960095,-0.06604639400000001,-21.42,38.7,15.06
1554883559564,9.490616000000001,-0.4938041,2.1877017000000003,0.07456851,-0.068176925,-0.06178534,-21.48,38.76,15.06
1554883559583,9.471461999999999,-0.39803603,2.307412,0.06391586,-0.046871635999999994,-0.027696876000000002,-21.48,38.76,15.06
1554883559604,9.528922999999999,-0.23044191,2.1350293,0.033023197000000004,-0.026631612000000002,-0.0031957934000000003,-21.54,38.76,15.06
1554883559624,9.433155000000001,-0.29747957,2.3888147,-0.0063915867,-0.014913702,0.0063915867,-21.6,38.76,15.06
1554883559643,9.557653,-0.22086509999999998,2.2307975,-0.025566347000000003,0.0010652645,0.0053263223,-21.72,38.82,15.06
1554883559663,9.490616000000001,-0.25917232,2.235586,-0.022370555,0.0063915867,0.002130529,-21.78,38.82,15.06
1554883559683,9.423578,-0.28311434,2.441487,-0.018109497,0.008522116,-0.0010652645,-21.84,38.94,15.12
1554883559704,9.442732000000001,-0.35494040000000004,2.417545,0.0,0.004261058,-0.0010652645,-21.9,39.0,15.12
1554883559724,9.514558000000001,-0.26874915,2.3600842999999996,0.026631612000000002,0.012783173500000002,-0.004261058,-21.96,39.06,15.18
1554883559743,9.433155000000001,-0.21128829999999998,2.3600842999999996,0.047936900000000005,0.01917476,-0.0053263223,-22.02,39.12,15.24
1554883559763,9.466674000000001,-0.19213470000000002,2.2403743,0.02876214,0.026631612000000002,-0.011717908999999999,-22.02,39.18,15.3
1554883559783,9.485827,-0.22565351,2.2786815,-0.007456851,0.025566347000000003,-0.023435817999999997,-22.02,39.24,15.36
1554883559804,9.452309,-0.3309984,2.3936029999999997,-0.035153727999999995,0.011717908999999999,-0.02876214,-21.96,39.3,15.42
1554883559824,9.461885,-0.350152,2.4462755,-0.040480047000000005,0.0053263223,-0.03089267,-21.96,39.3,15.48
1554883559843,9.481038999999999,-0.38845924,2.3744495,-0.03195793,0.007456851,-0.015978966,-21.9,39.24,15.54
1554883559864,9.519346,-0.38845924,2.4319102999999997,-0.024501082,0.00958738,-0.020240024,-21.78,39.18,15.6
1554883559884,9.481038999999999,-0.35494040000000004,2.3600842999999996,-0.013848438000000001,0.0010652645,-0.022370555,-21.78,39.12,15.6
1554883559903,9.490616000000001,-0.43634325,2.345719,-0.0053263223,-0.0063915867,-0.01917476,-21.72,39.12,15.6
1554883559924,9.423578,-0.3788824,2.3361422999999997,0.013848438000000001,-0.00958738,-0.013848438000000001,-21.66,39.06,15.6
1554883559943,9.476251,-0.44113165,2.2451627,0.029827405,-0.007456851,-0.007456851,-21.6,39.12,15.6
1554883559964,9.495403999999999,-0.38367084,2.3696610000000002,0.037284255,-0.0053263223,-0.013848438000000001,-21.54,39.18,15.6
1554883559984,9.509769,-0.40761283,2.4462755,0.040480047000000005,0.0063915867,-0.015978966,-21.54,39.24,15.6
1554883560003,9.409213000000001,-0.40761283,2.3169887000000005,0.034088463,0.0053263223,-0.02130529,-21.54,39.36,15.6
1554883560037,9.533711,-0.39324763,2.321777,0.03089267,0.002130529,-0.020240024,-21.48,39.54,15.54
1554883560043,9.471461999999999,-0.40761283,2.379238,0.033023197000000004,0.0010652645,-0.02130529,-21.48,39.6,15.54
1554883560064,9.600749,-0.46986207,2.2643162999999995,0.043675844000000005,0.007456851,-0.020240024,-21.48,39.72,15.48
1554883560083,9.5385,-0.36930559999999996,2.3696610000000002,0.05539375,0.012783173500000002,-0.020240024,-21.48,39.78,15.36
1554883560106,9.514558000000001,-0.35494040000000004,2.345719,0.05539375,0.02130529,-0.023435817999999997,-21.48,39.72,15.3
1554883560124,9.5385,-0.32142156,2.3361422999999997,0.03834952,0.015978966,-0.01917476,-21.54,39.42,15.18
1554883560143,9.514558000000001,-0.53689975,2.235586,0.017044231,0.007456851,-0.00958738,-21.66,39.06,15.06
1554883560164,9.423578,-0.41240123,2.3983915000000002,-0.008522116,0.008522116,-0.01917476,-21.78,38.58,15.0
1554883560183,9.457097000000001,-0.39803603,2.321777,-0.0031957934000000003,0.011717908999999999,-0.022370555,-21.9,38.1,14.88
1554883560204,9.500193,-0.44592008,2.345719,0.02130529,0.007456851,-0.035153727999999995,-22.02,37.56,14.82
1554883560223,9.437942999999999,-0.5081693,2.307412,0.04580637,-0.002130529,-0.037284255,-22.14,37.08,14.7
1554883560244,9.500193,-0.36930559999999996,2.273893,0.04580637,-0.0010652645,-0.024501082,-22.2,36.66,14.7
1554883560263,9.495403999999999,-0.5081693,2.2643162999999995,0.03089267,0.0031957934000000003,-0.014913702,-22.32,36.36,14.64
1554883560284,9.452309,-0.41718966,2.475006,0.02876214,0.010652645,-0.014913702,-22.32,36.24,14.58
1554883560305,9.375694000000001,-0.43634325,2.4702177000000005,0.036218993,0.012783173500000002,-0.022370555,-22.32,36.36,14.52
1554883560324,9.370906,-0.41718966,2.1637597,0.03195793,0.018109497,-0.015978966,-22.32,36.72,14.52
1554883560343,9.337387,-0.28311434,2.307412,0.011717908999999999,0.01917476,-0.0053263223,-22.32,37.2,14.52
1554883560364,9.504980999999999,-0.3597288,2.2307975,-0.017044231,0.024501082,0.004261058,-22.26,37.56,14.46
1554883560384,9.495403999999999,-0.3597288,2.2547395,-0.034088463,0.017044231,0.0,-22.2,37.98,14.46
1554883560403,9.356541,-0.41718966,2.130241,-0.036218993,0.015978966,-0.004261058,-22.14,38.4,14.46
1554883560423,9.390058999999999,-0.53689975,2.144606,-0.026631612000000002,0.008522116,0.002130529,-22.08,38.82,14.46
1554883560444,9.447519999999999,-0.47465047,2.3265655,-0.008522116,-0.002130529,0.008522116,-22.02,39.18,14.46
1554883560464,9.524135000000001,-0.4938041,2.4223334999999997,0.011717908999999999,-0.010652645,0.015978966,-21.9,39.36,14.52
1554883560483,9.514558000000001,-0.52253455,2.2691047,0.027696876000000002,-0.008522116,0.008522116,-21.84,39.48,14.52
1554883560503,9.495403999999999,-0.45549688,2.3361422999999997,0.025566347000000003,-0.007456851,-0.002130529,-21.78,39.48,14.52
1554883560524,9.356541,-0.40761283,2.532467,0.011717908999999999,-0.00958738,0.010652645,-21.72,39.54,14.52
1554883560544,9.514558000000001,-0.5895722,2.379238,-0.007456851,-0.004261058,0.022370555,-21.72,39.6,14.58
1554883560563,9.562441999999999,-0.57041854,2.3936029999999997,-0.007456851,0.015978966,0.034088463,-21.66,39.72,14.58
1554883560583,9.509769,-0.53689975,2.475006,0.00958738,0.040480047000000005,0.03089267,-21.66,39.84,14.58
1554883560603,9.581595,-0.55605334,2.508525,0.018109497,0.054328485999999995,0.024501082,-21.66,39.9,14.64
1554883560623,9.485827,-0.5081693,2.4366987,-0.0031957934000000003,0.047936900000000005,0.025566347000000003,-21.6,40.02,14.64
1554883560643,9.519346,-0.54168814,2.3744495,-0.011717908999999999,0.04261058,0.037284255,-21.54,40.08,14.64
1554883560663,9.524135000000001,-0.5991489999999999,2.3409307,0.004261058,0.036218993,0.037284255,-21.48,40.2,14.64
1554883560684,9.504980999999999,-0.52732295,2.297835,0.039414786,0.010652645,0.026631612000000002,-21.3,40.26,14.7
1554883560704,9.437942999999999,-0.6183026,2.273893,0.083090626,-0.0053263223,0.012783173500000002,-21.12,40.26,14.7
1554883560723,9.351752000000001,-0.52732295,2.3265655,0.11717909,-0.020240024,0.004261058,-21.0,40.26,14.7
1554883560744,9.3661175,-0.45070848,2.5228900000000003,0.12996227,-0.03195793,-0.002130529,-20.82,40.2,14.76
1554883560764,9.390058999999999,-0.55605334,2.4941597,0.12996227,-0.035153727999999995,-0.008522116,-20.64,40.14,14.76
1554883560784,9.390058999999999,-0.4985925,2.28347,0.10333065,-0.025566347000000003,-0.01917476,-20.52,40.14,14.82
1554883560804,9.404425,-0.46507367,2.3696610000000002,0.06711166,-0.012783173500000002,-0.024501082,-20.4,40.08,14.88
1554883560823,9.452309,-0.6039374,2.3505075,0.043675844000000005,-0.008522116,-0.027696876000000002,-20.28,40.08,14.88
1554883560855,9.543288,-0.5129577000000001,2.1972785,0.022370555,0.0010652645,-0.022370555,-20.22,40.08,14.94
1554883560864,9.634267999999999,-0.55126494,2.3265655,0.012783173500000002,-0.002130529,-0.02130529,-20.22,40.02,14.94
1554883560884,9.481038999999999,-0.56084174,2.3409307,0.0010652645,-0.0010652645,-0.020240024,-20.22,40.02,14.94
1554883560903,9.447519999999999,-0.44113165,2.4223334999999997,-0.0063915867,-0.004261058,-0.01917476,-20.22,40.02,14.94
1554883560923,9.457097000000001,-0.57999533,2.235586,-0.0053263223,-0.017044231,-0.020240024,-20.22,40.02,14.94
1554883560943,9.457097000000001,-0.46986207,2.3361422999999997,-0.004261058,-0.022370555,-0.02876214,-20.22,40.02,14.94
1554883560964,9.442732000000001,-0.45070848,2.5037365,0.0063915867,-0.015978966,-0.035153727999999995,-20.28,40.02,14.94
1554883560983,9.423578,-0.4890157,2.3265655,0.00958738,-0.00958738,-0.035153727999999995,-20.28,40.02,14.88
1554883561004,9.41879,-0.45070848,2.355296,0.0010652645,-0.010652645,-0.034088463,-20.28,40.02,14.76
1554883561025,9.519346,-0.5129577000000001,2.4558525,-0.036218993,-0.013848438000000001,-0.034088463,-20.28,40.02,14.64
1554883561044,9.552864999999999,-0.53689975,2.4079683,-0.04261058,-0.015978966,-0.039414786,-20.28,40.02,14.58
1554883561063,9.533711,-0.55126494,2.532467,-0.022370555,-0.00958738,-0.04580637,-20.34,40.02,14.52
1554883561084,9.471461999999999,-0.55605334,2.5133132999999996,-0.002130529,-0.015978966,-0.05006743,-20.4,40.02,14.4
1554883561104,9.399636,-0.623091,2.379238,0.013848438000000001,-0.02130529,-0.049002163,-20.46,40.02,14.28
1554883561124,9.452309,-0.6278794,2.3169887000000005,0.010652645,-0.022370555,-0.047936900000000005,-20.46,40.02,14.22
1554883561145,9.457097000000001,-0.57041854,2.4510639,-0.0010652645,-0.018109497,-0.041545313,-20.52,39.96,14.16
1554883561164,9.457097000000001,-0.6183026,2.2499511,-0.0053263223,-0.014913702,-0.033023197000000004,-20.52,39.96,14.1
1554883561183,9.528922999999999,-0.5943606,2.4941597,0.02130529,-0.012783173500000002,-0.033023197000000004,-20.58,39.96,14.1
1554883561204,9.437942999999999,-0.5991489999999999,2.441487,0.049002163,-0.011717908999999999,-0.029827405,-20.58,39.9,14.1
1554883561223,9.452309,-0.6135142,2.2547395,0.060720075,-0.014913702,-0.03195793,-20.64,39.9,14.1
1554883561243,9.423578,-0.45070848,2.3983915000000002,0.06924219,-0.014913702,-0.033023197000000004,-20.64,39.9,14.1
1554883561263,9.423578,-0.42197806,2.144606,0.06498113,-0.015978966,-0.025566347000000003,-20.64,39.84,14.16
