TimeStamp,Ax,Ay,Az,Gx,Gy,Gz,Mx,My,Mz
1554220367795,9.56723,-1.0540473,1.1534066,0.5858955,0.056459017,-0.047936900000000005,-33.72,-31.86,-43.56
1554220367816,9.504980999999999,-1.039682,1.1198878,0.5230448000000001,0.04580637,-0.05006743,-33.72,-32.34,-43.26
1554220367836,9.576807,-1.0444705,1.0576386,0.40906155,0.026631612000000002,-0.05006743,-33.78,-32.7,-43.02
1554220367855,9.591172,-1.0636241000000002,0.87089086,0.30360037,0.014913702,-0.054328485999999995,-33.78,-33.0,-42.78
1554220367875,9.533711,-1.1689690000000001,0.84216046,0.113983296,-0.0031957934000000003,-0.054328485999999995,-33.84,-33.3,-42.6
1554220367895,9.533711,-1.2551602,0.84694886,-0.008522116,-0.018109497,-0.054328485999999995,-33.84,-33.6,-42.36
1554220367916,9.600749,-1.3269863000000002,0.96665895,-0.068176925,-0.037284255,-0.056459017,-33.84,-33.9,-42.18
1554220367935,9.639056,-1.3605051000000001,1.2731166999999999,-0.06391586,-0.04474111,-0.06711166,-33.84,-34.14,-42.06
1554220367956,9.557653,-1.2216414,1.2970588,-0.03195793,-0.049002163,-0.07137272,-33.78,-34.32,-41.94
1554220367976,9.514558000000001,-1.2312181999999998,1.3305776000000002,0.0053263223,-0.05219796,-0.07030745599999999,-33.78,-34.38,-41.88
1554220367996,9.514558000000001,-1.1354501000000001,1.4263457,0.04474111,-0.06391586,-0.06498113,-33.72,-34.5,-41.82
1554220368015,9.696517,-1.1498153,1.4838065,0.07882957,-0.068176925,-0.06711166,-33.72,-34.5,-41.76
1554220368036,9.763555,-1.2072762,1.5269021,0.10226539,-0.05539375,-0.07776430000000001,-33.72,-34.5,-41.7
1554220368055,9.825804,-1.1546037,1.3210008,0.11717909,-0.039414786,-0.094808534,-33.66,-34.56,-41.58
1554220368075,9.782708,-1.1785458,1.3018471999999999,0.10333065,-0.017044231,-0.10759171,-33.66,-34.56,-41.46
1554220368095,9.696517,-1.1498153,1.3066356000000001,0.07137272,0.0010652645,-0.10546118,-33.66,-34.56,-41.46
1554220368116,9.552864999999999,-1.1833341999999998,1.2779051000000001,0.035153727999999995,0.007456851,-0.096939065,-33.72,-34.68,-41.34
1554220368136,9.56723,-1.0971429,1.2156559,-0.00958738,0.004261058,-0.083090626,-33.72,-34.74,-41.34
1554220368156,9.576807,-1.2120646000000002,1.2252326999999998,-0.03834952,0.0031957934000000003,-0.07137272,-33.78,-34.86,-41.28
1554220368176,9.619903,-1.1881226,1.134253,-0.035153727999999995,-0.0031957934000000003,-0.06391586,-33.78,-34.92,-41.28
1554220368196,9.710882000000002,-1.264737,1.1055226,-0.014913702,-0.002130529,-0.06604639400000001,-33.78,-34.98,-41.28
1554220368216,9.595961,-1.2695253999999998,1.1534066,0.034088463,0.002130529,-0.06604639400000001,-33.78,-34.98,-41.28
1554220368236,9.619903,-1.240795,1.3257892,0.08522116,0.004261058,-0.07030745599999999,-33.78,-35.04,-41.28
1554220368255,9.730036,-1.1162965,1.3305776000000002,0.128897,0.0053263223,-0.07243799,-33.78,-35.1,-41.28
1554220368276,9.605537,-0.97743285,1.3162124,0.1438107,0.023435817999999997,-0.06391586,-33.72,-35.1,-41.28
1554220368296,9.562441999999999,-0.96785605,1.3497312,0.13209279,0.029827405,-0.05006743,-33.66,-35.1,-41.34
1554220368316,9.528922999999999,-0.9056068000000002,1.3018471999999999,0.10333065,0.036218993,-0.03089267,-33.6,-35.1,-41.34
1554220368335,9.528922999999999,-0.9295488000000001,1.2826935,0.068176925,0.035153727999999995,-0.015978966,-33.6,-35.16,-41.28
1554220368355,9.548077000000001,-0.97743285,1.4646529,0.024501082,0.037284255,-0.014913702,-33.54,-35.16,-41.28
1554220368376,9.524135000000001,-1.0540473,1.4981716999999999,-0.029827405,0.054328485999999995,-0.002130529,-33.48,-35.22,-41.34
1554220368395,9.648633,-1.1785458,1.5125369,-0.043675844000000005,0.040480047000000005,0.013848438000000001,-33.42,-35.28,-41.34
1554220368415,9.624691,-1.2264298,1.3545196000000002,-0.034088463,0.03089267,-0.02876214,-33.42,-35.34,-41.34
1554220368435,9.548077000000001,-1.216853,1.4263457,-0.01917476,0.020240024,-0.04261058,-33.42,-35.34,-41.4
1554220368455,9.581595,-1.2791021999999999,1.38325,0.004261058,0.004261058,-0.03089267,-33.42,-35.34,-41.4
1554220368475,9.753978,-1.3269863000000002,1.2443863000000002,0.058589544,0.0,-0.058589544,-33.42,-35.4,-41.46
1554220368497,9.5385,-1.264737,1.311424,0.111852765,0.0,-0.07456851,-33.48,-35.4,-41.46
1554220368515,9.504980999999999,-1.192911,1.3018471999999999,0.15446335,-0.0053263223,-0.060720075,-33.48,-35.4,-41.52
1554220368535,9.461885,-1.1976993999999999,1.3688848,0.17363810000000002,-0.010652645,-0.043675844000000005,-33.42,-35.4,-41.52
1554220368557,9.5385,-1.049259,1.4646529,0.15126756,-0.015978966,-0.029827405,-33.36,-35.4,-41.52
1554220368576,9.605537,-1.1689690000000001,1.5077485000000002,0.09587380000000001,-0.015978966,-0.018109497,-33.36,-35.46,-41.46
1554220368596,9.548077000000001,-1.0827777,1.4885948999999998,0.053263225,-0.01917476,-0.011717908999999999,-33.3,-35.52,-41.46
1554220368615,9.615114,-1.1546037,1.4550761,0.024501082,-0.017044231,-0.011717908999999999,-33.3,-35.52,-41.46
1554220368636,9.514558000000001,-1.2312181999999998,1.4167688999999999,-0.002130529,-0.013848438000000001,-0.017044231,-33.24,-35.64,-41.46
1554220368656,9.457097000000001,-1.2934675,1.3688848,-0.0031957934000000003,-0.011717908999999999,-0.013848438000000001,-33.18,-35.7,-41.46
1554220368676,9.490616000000001,-1.3221979,1.4646529,0.010652645,-0.013848438000000001,-0.015978966,-33.18,-35.76,-41.46
1554220368695,9.514558000000001,-1.2695253999999998,1.4981716999999999,0.01917476,-0.013848438000000001,-0.024501082,-33.18,-35.82,-41.46
1554220368715,9.404425,-1.3844471,1.5077485000000002,0.023435817999999997,-0.011717908999999999,-0.004261058,-33.24,-35.88,-41.46
1554220368735,9.519346,-1.2455834,1.3545196000000002,0.03834952,-0.023435817999999997,0.00958738,-33.18,-35.88,-41.46
1554220368755,9.624691,-1.2791021999999999,1.3497312,0.05219796,-0.025566347000000003,0.010652645,-33.18,-35.94,-41.4
1554220368775,9.605537,-1.2982559,1.5173253,0.05752428,-0.02130529,0.0063915867,-33.24,-35.94,-41.34
1554220368796,9.710882000000002,-1.2791021999999999,1.4981716999999999,0.06924219,-0.011717908999999999,-0.0010652645,-33.24,-35.94,-41.28
1554220368816,9.639056,-1.1498153,1.4838065,0.07563378,-0.004261058,-0.002130529,-33.3,-35.88,-41.22
1554220368835,9.562441999999999,-1.2312181999999998,1.5604209999999998,0.07776430000000001,0.0031957934000000003,-0.0010652645,-33.3,-35.88,-41.1
1554220368855,9.514558000000001,-1.1162965,1.5125369,0.07350325,0.007456851,-0.002130529,-33.36,-35.88,-41.04
1554220368875,9.361329,-1.0588357,1.407192,0.06711166,0.015978966,0.0031957934000000003,-33.42,-35.88,-40.98
1554220368896,9.303867,-1.1067197,1.4885948999999998,0.056459017,0.00958738,0.034088463,-33.48,-35.94,-40.92
1554220368916,9.390058999999999,-1.1881226,1.287482,0.05539375,-0.007456851,0.041545313,-33.48,-35.94,-40.92
1554220368937,9.615114,-1.1641805,1.2108675,0.04580637,-0.029827405,0.033023197000000004,-33.54,-35.94,-40.86
1554220368956,9.763555,-1.1593921,1.4407108999999998,0.027696876000000002,-0.020240024,0.012783173500000002,-33.54,-35.94,-40.86
1554220368976,9.739613,-1.2934675,1.3880384,0.024501082,-0.012783173500000002,0.014913702,-33.54,-35.94,-40.86
1554220368996,9.964667,-1.2982559,1.3976152,0.04580637,-0.040480047000000005,-0.013848438000000001,-33.6,-35.94,-40.86
1554220369016,10.1226845,-1.264737,1.287482,0.06498113,-0.058589544,-0.04580637,-33.6,-35.94,-40.86
1554220369035,10.127473,-1.3461398999999998,1.4694413,0.08522116,-0.026631612000000002,-0.09161274,-33.6,-35.94,-40.86
1554220369056,9.868899,-1.3509283,1.4790181,0.10865697,0.029827405,-0.12357068,-33.66,-35.94,-40.86
1554220369076,9.528922999999999,-1.1593921,1.5077485000000002,0.11717909,0.08522116,-0.128897,-33.72,-35.94,-40.92
1554220369096,9.423578,-1.0588357,1.4167688999999999,0.09587380000000001,0.11504856,-0.094808534,-33.72,-35.94,-40.92
1554220369115,9.437942999999999,-0.99179804,1.4311341,0.051132694000000006,0.12463594,-0.03834952,-33.78,-35.94,-40.86
1554220369136,9.524135000000001,-0.9295488000000001,1.3449427999999999,0.0010652645,0.13315806,0.004261058,-33.78,-35.94,-40.86
1554220369155,9.514558000000001,-0.7858967,1.2348095,-0.10333065,0.1470065,0.080960095,-33.84,-35.94,-40.8
1554220369176,9.461885,-0.8050503000000001,1.3305776000000002,-0.21411815,0.14913702,0.13315806,-33.9,-36.0,-40.8
1554220369195,9.327810000000001,-0.9008184000000001,1.134253,-0.33875409999999995,0.13848437,0.16192019,-33.9,-36.0,-40.74
1554220369216,9.457097000000001,-0.88645315,1.2779051000000001,-0.45806372,0.11611383,0.15126756,-33.9,-36.0,-40.68
1554220369236,9.576807,-1.039682,1.2204443,-0.5656554,0.08735169,0.101200126,-33.84,-36.0,-40.68
1554220369256,9.677363,-1.1737574,1.3162124,-0.6530071,0.060720075,0.03089267,-33.84,-36.0,-40.74
1554220369276,9.557653,-1.3269863000000002,1.4024036,-0.70200926,0.053263225,-0.022370555,-33.84,-35.94,-40.8
1554220369296,9.619903,-1.4466964,1.5795746000000002,-0.75101143,0.043675844000000005,-0.08628642,-33.78,-35.88,-40.92
1554220369316,9.629479,-1.5855601000000001,1.2826935,-0.78083885,0.02876214,-0.128897,-33.78,-35.64,-41.1
1554220369336,9.591172,-1.7004818,1.3210008,-0.7861651999999999,0.020240024,-0.16724652,-33.78,-35.28,-41.22
1554220369356,9.634267999999999,-1.7435773999999997,1.6035166,-0.77870834,0.022370555,-0.19281286,-33.78,-34.92,-41.4
1554220369376,9.662998,-1.8201918999999998,1.6083049999999999,-0.7499462,0.027696876000000002,-0.19281286,-33.78,-34.5,-41.58
1554220369395,9.68694,-1.8537107,1.5747862,-0.7105314,0.03195793,-0.17789917,-33.78,-34.14,-41.82
1554220369415,9.591172,-1.9877859,1.6561891,-0.6295713000000001,0.05219796,-0.14913702,-33.84,-33.66,-42.06
1554220369436,9.26556,-1.8872293999999998,1.5556326,-0.52837116,0.06178534,-0.10652645,-33.84,-33.12,-42.3
1554220369456,9.227253,-1.9303252,1.5125369,-0.39734364,0.05752428,-0.027696876000000002,-33.78,-32.58,-42.54
1554220369476,9.179369,-1.8776526000000002,1.632247,-0.30466563,0.04580637,0.024501082,-33.78,-32.16,-42.78
1554220369495,9.222465,-1.8106151000000001,1.4263457,-0.25566345,0.040480047000000005,0.049002163,-33.66,-31.92,-43.02
1554220369516,9.275136999999999,-1.7770962,1.5939398,-0.19281286,0.018109497,0.07030745599999999,-33.54,-31.62,-43.26
1554220369536,9.356541,-1.8680758000000002,1.4359225,-0.14594123,0.00958738,0.06711166,-33.42,-31.38,-43.5
1554220369556,9.428367,-1.7770962,1.4885948999999998,-0.10546118,-0.002130529,0.046871635999999994,-33.3,-31.2,-43.8
1554220369575,9.409213000000001,-1.7100586,1.4263457,-0.07456851,-0.017044231,0.018109497,-33.18,-31.02,-43.98
1554220369595,9.476251,-1.7244238,1.4311341,-0.06498113,-0.02130529,-0.0010652645,-33.18,-31.02,-44.1
1554220369616,9.576807,-1.7531542000000002,1.5173253,-0.06178534,-0.025566347000000003,-0.029827405,-33.12,-31.02,-44.22
1554220369635,9.562441999999999,-1.7818846999999998,1.5269021,-0.058589544,-0.024501082,-0.051132694000000006,-33.12,-30.96,-44.34
1554220369655,9.600749,-1.7531542000000002,1.5412674,-0.049002163,-0.023435817999999997,-0.06498113,-33.24,-30.72,-44.46
1554220369676,9.600749,-1.738789,1.4215573000000001,-0.023435817999999997,-0.02130529,-0.06391586,-33.36,-30.6,-44.52
1554220369695,9.519346,-1.7962499,1.5747862,0.00958738,-0.015978966,-0.054328485999999995,-33.42,-30.48,-44.58
1554220369715,9.572019000000001,-1.7483658,1.4407108999999998,0.049002163,-0.012783173500000002,-0.041545313,-33.54,-30.36,-44.52
1554220369736,9.461885,-1.7866731,1.5508442,0.07776430000000001,-0.00958738,-0.026631612000000002,-33.6,-30.24,-44.46
1554220369755,9.591172,-1.6238673000000001,1.3066356000000001,0.096939065,-0.013848438000000001,-0.013848438000000001,-33.6,-30.12,-44.4
1554220369776,9.595961,-1.5664065,1.4311341,0.10013486,-0.011717908999999999,-0.013848438000000001,-33.6,-30.06,-44.34
1554220369795,9.595961,-1.5951369,1.4359225,0.09267801,-0.008522116,-0.01917476,-33.66,-30.0,-44.28
1554220369817,9.481038999999999,-1.5185224,1.3210008,0.07669904,-0.010652645,-0.026631612000000002,-33.66,-30.18,-44.28
1554220369836,9.576807,-1.5328877,1.3784616000000003,0.051132694000000006,-0.008522116,-0.05219796,-33.66,-30.18,-44.22
1554220369855,9.562441999999999,-1.6478093,1.2300211,0.036218993,-0.012783173500000002,-0.06498113,-33.66,-30.24,-44.22
1554220369875,9.519346,-1.6382325,1.4167688999999999,0.024501082,-0.014913702,-0.07882957,-33.72,-30.3,-44.28
1554220369896,9.471461999999999,-1.738789,1.4167688999999999,0.024501082,-0.014913702,-0.082025364,-33.72,-30.36,-44.4
1554220369915,9.447519999999999,-1.5759833,1.4981716999999999,0.039414786,-0.024501082,-0.07882957,-33.72,-30.36,-44.46
1554220369936,9.495403999999999,-1.6478093,1.407192,0.06924219,-0.041545313,-0.083090626,-33.66,-30.42,-44.52
1554220369956,9.615114,-1.7004818,1.2443863000000002,0.111852765,-0.04580637,-0.07989483,-33.66,-30.42,-44.58
1554220369975,9.696517,-1.6621746,1.38325,0.15446335,-0.04580637,-0.07456851,-33.6,-30.48,-44.64
1554220369996,9.514558000000001,-1.6430208999999998,1.4119805,0.18748654,-0.047936900000000005,-0.07669904,-33.6,-30.48,-44.64
1554220370015,9.615114,-1.5807717,1.4838065,0.22370553,-0.054328485999999995,-0.082025364,-33.54,-30.6,-44.7
1554220370036,9.624691,-1.5280992,1.4694413,0.25140239999999997,-0.05219796,-0.094808534,-33.54,-30.6,-44.64
1554220370055,9.485827,-1.5328877,1.3688848,0.2609898,-0.05006743,-0.10546118,-33.48,-30.72,-44.64
1554220370076,9.495403999999999,-1.4131776000000003,1.4215573000000001,0.257794,-0.047936900000000005,-0.11504856,-33.48,-30.84,-44.64
1554220370096,9.490616000000001,-1.3796587,1.4646529,0.24181503,-0.054328485999999995,-0.11930962,-33.48,-30.96,-44.52
1554220370115,9.452309,-1.3269863000000002,1.3688848,0.21944448,-0.05219796,-0.12250541,-33.48,-31.08,-44.4
1554220370136,9.504980999999999,-1.2982559,1.3784616000000003,0.18961707,-0.056459017,-0.113983296,-33.48,-31.14,-44.28
1554220370156,9.562441999999999,-1.3796587,1.407192,0.16831179,-0.056459017,-0.10652645,-33.48,-31.26,-44.1
1554220370176,9.514558000000001,-1.3413515,1.3018471999999999,0.14913702,-0.056459017,-0.10865697,-33.48,-31.32,-43.98
1554220370195,9.619903,-1.3269863000000002,1.3545196000000002,0.13528858,-0.06285059999999999,-0.10865697,-33.48,-31.38,-43.8
1554220370216,9.56723,-1.3221979,1.2731166999999999,0.10652645,-0.05752428,-0.1107875,-33.48,-31.44,-43.68
1554220370235,9.500193,-1.240795,1.2012907,0.082025364,-0.058589544,-0.11504856,-33.48,-31.56,-43.56
1554220370256,9.514558000000001,-1.3317747,1.4215573000000001,0.039414786,-0.06178534,-0.112918034,-33.42,-31.74,-43.5
1554220370276,9.639056,-1.3605051000000001,1.359308,0.0063915867,-0.06178534,-0.10865697,-33.42,-31.98,-43.5
1554220370296,9.581595,-1.2312181999999998,1.287482,-0.01917476,-0.05752428,-0.112918034,-33.36,-32.22,-43.5
1554220370316,9.557653,-1.4131776000000003,1.2635399,-0.03089267,-0.05219796,-0.11611383,-33.36,-32.52,-43.5
1554220370335,9.562441999999999,-1.3796587,1.3449427999999999,-0.04261058,-0.04261058,-0.10439592,-33.36,-32.76,-43.5
1554220370355,9.562441999999999,-1.6047136999999998,1.3497312,-0.022370555,-0.043675844000000005,-0.07350325,-33.36,-33.0,-43.44
1554220370376,9.495403999999999,-1.46585,1.2683283,0.039414786,-0.04580637,-0.07456851,-33.48,-33.24,-43.38
1554220370396,9.519346,-1.4131776000000003,1.1534066,0.07137272,-0.051132694000000006,-0.05752428,-33.54,-33.3,-43.32
1554220370415,9.677363,-1.3557166999999999,1.1821371,0.082025364,-0.058589544,-0.049002163,-33.66,-33.36,-43.26
1554220370435,9.619903,-1.2791021999999999,1.311424,0.082025364,-0.06285059999999999,-0.051132694000000006,-33.72,-33.36,-43.26
1554220370455,9.572019000000001,-1.2934675,1.2539631000000002,0.07243799,-0.06178534,-0.04580637,-33.78,-33.3,-43.2
1554220370476,9.562441999999999,-1.3030443,1.158195,0.05539375,-0.06178534,-0.04474111,-33.78,-33.24,-43.14
1554220370496,9.600749,-1.2838906,1.2539631000000002,0.039414786,-0.05539375,-0.05539375,-33.72,-33.12,-43.14
1554220370516,9.509769,-1.2695253999999998,1.3018471999999999,0.015978966,-0.047936900000000005,-0.056459017,-33.66,-33.06,-43.08
1554220370535,9.514558000000001,-1.2503718000000001,1.2731166999999999,-0.024501082,-0.043675844000000005,-0.05752428,-33.54,-33.0,-43.08
1554220370556,9.509769,-1.3078326999999998,1.2491747,-0.068176925,-0.039414786,-0.05965481,-33.48,-33.0,-43.02
1554220370576,9.634267999999999,-1.3892354999999998,1.3497312,-0.098004326,-0.034088463,-0.06391586,-33.48,-32.94,-43.02
1554220370596,9.662998,-1.4754268,1.4167688999999999,-0.113983296,-0.025566347000000003,-0.058589544,-33.54,-32.94,-42.96
1554220370616,9.696517,-1.6095021,1.2443863000000002,-0.098004326,-0.023435817999999997,-0.054328485999999995,-33.54,-32.88,-42.96
1554220370635,9.624691,-1.5759833,1.3784616000000003,-0.04261058,-0.017044231,-0.049002163,-33.66,-32.88,-42.96
1554220370655,9.739613,-1.6142905,1.2826935,0.049002163,-0.018109497,-0.04580637,-33.72,-32.88,-42.96
1554220370676,9.634267999999999,-1.4802152,1.2683283,0.15339808,-0.02130529,-0.04261058,-33.84,-32.88,-42.96
1554220370695,9.629479,-1.4323312,1.4790181,0.2428803,-0.025566347000000003,-0.05006743,-33.9,-32.94,-43.02
1554220370716,9.648633,-1.3126211,1.3210008,0.29294774,-0.023435817999999997,-0.05539375,-33.96,-32.94,-43.02
1554220370735,9.524135000000001,-1.3844471,1.1629834,0.29294774,-0.029827405,-0.05965481,-33.9,-33.0,-43.02
1554220370755,9.615114,-1.2503718000000001,1.1821371,0.257794,-0.026631612000000002,-0.06498113,-33.9,-33.0,-43.08
1554220370776,9.696517,-1.3078326999999998,1.1198878,0.22050974,-0.02876214,-0.07563378,-33.9,-33.12,-43.08
1554220370795,9.433155000000001,-1.2072762,1.0959458,0.20772657,-0.029827405,-0.07776430000000001,-33.84,-33.12,-43.02
1554220370816,9.576807,-1.1689690000000001,1.0911574,0.18535602,-0.035153727999999995,-0.06285059999999999,-33.78,-33.3,-42.9
1554220370836,9.682152,-1.264737,1.2012907,0.165116,-0.027696876000000002,-0.06498113,-33.78,-33.42,-42.72
1554220370856,9.65821,-1.1976993999999999,1.2348095,0.14274544,-0.023435817999999997,-0.06498113,-33.72,-33.48,-42.6
1554220370875,9.56723,-1.1689690000000001,1.2635399,0.1107875,-0.015978966,-0.053263225,-33.72,-33.78,-42.36
1554220370895,9.543288,-1.2791021999999999,1.3066356000000001,0.10439592,-0.011717908999999999,-0.043675844000000005,-33.72,-33.9,-42.24
1554220370917,9.600749,-1.2503718000000001,1.2539631000000002,0.12357068,-0.0053263223,-0.040480047000000005,-33.66,-34.14,-42.06
1554220370936,9.543288,-1.1593921,1.311424,0.14594123,0.0,-0.036218993,-33.66,-34.32,-41.88
1554220370956,9.591172,-1.192911,1.335366,0.16405073,0.0,-0.026631612000000002,-33.66,-34.44,-41.82
1554220370976,9.490616000000001,-1.2120646000000002,1.2443863000000002,0.17896444,0.004261058,-0.018109497,-33.66,-34.56,-41.76
1554220370996,9.533711,-1.1785458,1.1198878,0.18748654,-0.0031957934000000003,-0.0063915867,-33.72,-34.62,-41.76
1554220371016,9.643844999999999,-1.1593921,1.0193313,0.19387813,-0.007456851,0.0,-33.72,-34.68,-41.76
1554220371036,9.543288,-1.1354501000000001,1.0145429,0.19281286,-0.0063915867,-0.0010652645,-33.72,-34.68,-41.7
1554220371055,9.500193,-1.1210848999999998,1.1007341999999998,0.18429075,-0.010652645,0.0,-33.78,-34.74,-41.64
1554220371076,9.485827,-1.1210848999999998,1.0528502,0.16085494,-0.015978966,0.002130529,-33.78,-34.74,-41.64
1554220371096,9.629479,-1.0444705,1.0432734000000001,0.1107875,-0.022370555,0.0031957934000000003,-33.84,-34.8,-41.64
1554220371117,9.68694,-1.0827777,0.9044097,0.05219796,-0.02130529,0.0010652645,-33.9,-34.86,-41.58
1554220371136,9.667786999999999,-1.1881226,1.2491747,-0.004261058,-0.013848438000000001,0.0053263223,-33.9,-34.92,-41.58
1554220371155,9.758766,-1.1115081,1.1534066,-0.046871635999999994,-0.0053263223,0.0031957934000000003,-33.9,-34.98,-41.52
1554220371175,9.672575,-1.1593921,1.158195,-0.07137272,0.007456851,0.004261058,-33.96,-35.04,-41.46
1554220371196,9.691728999999999,-1.1258733,1.359308,-0.080960095,0.008522116,0.008522116,-33.96,-35.1,-41.46
1554220371216,9.691728999999999,-1.2120646000000002,1.2300211,-0.082025364,0.018109497,0.010652645,-34.02,-35.16,-41.4
1554220371235,9.682152,-1.2264298,1.3257892,-0.07669904,0.02130529,0.007456851,-34.02,-35.28,-41.34
1554220371257,9.648633,-1.2120646000000002,1.2204443,-0.06604639400000001,0.025566347000000003,0.0053263223,-34.02,-35.28,-41.28
1554220371275,9.605537,-1.2455834,1.2635399,-0.054328485999999995,0.027696876000000002,-0.002130529,-33.96,-35.28,-41.22
1554220371296,9.576807,-1.2934675,1.3449427999999999,-0.033023197000000004,0.03195793,-0.00958738,-33.96,-35.28,-41.22
1554220371316,9.586383999999999,-1.2743138,1.2731166999999999,-0.00958738,0.03089267,-0.013848438000000001,-33.9,-35.28,-41.16
1554220371336,9.595961,-1.2503718000000001,1.1821371,0.008522116,0.029827405,-0.018109497,-33.9,-35.16,-41.16
1554220371356,9.581595,-1.264737,1.3210008,0.014913702,0.029827405,-0.022370555,-33.9,-35.1,-41.1
1554220371375,9.548077000000001,-1.2312181999999998,1.1821371,0.011717908999999999,0.027696876000000002,-0.026631612000000002,-33.9,-34.98,-41.1
1554220371395,9.457097000000001,-1.2886791000000002,1.2300211,0.010652645,0.034088463,-0.023435817999999997,-33.9,-34.92,-41.1
1554220371416,9.471461999999999,-1.1737574,1.2587515,0.0,0.022370555,-0.017044231,-33.96,-34.8,-41.1
1554220371436,9.442732000000001,-1.2312181999999998,1.2348095,-0.024501082,0.010652645,-0.008522116,-33.96,-34.74,-41.16
1554220371456,9.610325999999999,-1.1785458,1.0576386,-0.06924219,0.002130529,0.0,-33.96,-34.68,-41.16
1554220371476,9.605537,-1.1593921,1.110311,-0.10652645,-0.00958738,-0.002130529,-33.96,-34.62,-41.22
1554220371496,9.653421,-1.192911,1.2156559,-0.12570119999999999,-0.017044231,-0.0063915867,-33.96,-34.62,-41.22
1554220371516,9.667786999999999,-1.1689690000000001,1.38325,-0.113983296,-0.03195793,-0.014913702,-33.96,-34.62,-41.28
1554220371535,9.667786999999999,-1.1881226,1.3066356000000001,-0.09267801,-0.04261058,-0.027696876000000002,-33.96,-34.62,-41.28
1554220371556,9.682152,-1.2360066,1.3305776000000002,-0.06711166,-0.039414786,-0.05219796,-33.96,-34.62,-41.28
1554220371575,9.629479,-1.3126211,1.3162124,-0.060720075,-0.043675844000000005,-0.07350325,-33.96,-34.62,-41.34
1554220371595,9.667786999999999,-1.4514848,1.2731166999999999,-0.07030745599999999,-0.041545313,-0.09161274,-34.02,-34.56,-41.34
1554220371616,9.696517,-1.4227544,1.3640964,-0.084155895,-0.040480047000000005,-0.10013486,-34.02,-34.56,-41.34
1554220371636,9.763555,-1.5185224,1.4167688999999999,-0.09161274,-0.03195793,-0.10013486,-34.08,-34.56,-41.34
1554220371655,9.706094,-1.5472529,1.4646529,-0.101200126,-0.023435817999999997,-0.099069595,-34.08,-34.56,-41.4
1554220371675,9.600749,-1.4562732,1.38325,-0.10972224,-0.011717908999999999,-0.08628642,-34.14,-34.5,-41.4
1554220371696,9.624691,-1.6142905,1.5029601000000001,-0.12250541,-0.0031957934000000003,-0.07137272,-34.14,-34.44,-41.4
1554220371716,9.619903,-1.4562732,1.3162124,-0.11611383,0.0063915867,-0.07030745599999999,-34.14,-34.38,-41.4
1554220371736,9.500193,-1.5089456,1.4359225,-0.10759171,0.03195793,-0.053263225,-34.2,-34.38,-41.4
1554220371756,9.457097000000001,-1.762731,1.4694413,-0.09161274,0.03834952,-0.008522116,-34.2,-34.32,-41.4
1554220371775,9.423578,-1.6909049999999999,1.4502877,-0.029827405,0.034088463,0.025566347000000003,-34.2,-34.32,-41.4
1554220371796,9.457097000000001,-1.5376761,1.2539631000000002,0.07989483,0.014913702,0.03195793,-34.26,-34.26,-41.4
1554220371817,9.519346,-1.5520413,1.3497312,0.18961707,0.012783173500000002,0.033023197000000004,-34.26,-34.26,-41.46
1554220371836,9.557653,-1.5664065,1.3305776000000002,0.2695119,0.004261058,0.035153727999999995,-34.26,-34.26,-41.46
1554220371856,9.643844999999999,-1.3844471,1.4407108999999998,0.32810146,0.0031957934000000003,0.023435817999999997,-34.26,-34.26,-41.52
1554220371876,9.610325999999999,-1.3509283,1.4790181,0.36751625,0.002130529,0.008522116,-34.2,-34.32,-41.58
1554220371895,9.552864999999999,-1.1546037,1.3976152,0.40053943,0.0031957934000000003,0.002130529,-34.2,-34.38,-41.64
1554220371915,9.643844999999999,-1.1115081,1.4502877,0.4250405,-0.002130529,-0.008522116,-34.14,-34.44,-41.7
1554220371936,9.68694,-1.039682,1.3976152,0.43569317,0.0010652645,-0.026631612000000002,-34.14,-34.44,-41.76
1554220371956,9.682152,-0.9199719999999999,1.1629834,0.42290998,0.0031957934000000003,-0.049002163,-34.08,-34.5,-41.76
1554220371975,9.730036,-0.8960299999999999,1.2587515,0.3749731,0.0010652645,-0.058589544,-34.08,-34.56,-41.7
1554220371995,9.734824,-0.9008184000000001,1.1055226,0.32490566,0.0,-0.06924219,-34.08,-34.62,-41.64
1554220372016,9.691728999999999,-0.95349085,1.1486181999999998,0.23861924,-0.0010652645,-0.07882957,-34.02,-34.68,-41.46
1554220372035,9.639056,-1.0157399999999999,1.158195,0.18429075,-0.010652645,-0.07350325,-34.02,-34.74,-41.34
1554220372056,9.758766,-1.039682,1.2108675,0.13741912,-0.012783173500000002,-0.07563378,-34.02,-34.74,-41.16
1554220372075,9.648633,-1.1833341999999998,1.2156559,0.113983296,-0.01917476,-0.07456851,-34.02,-34.8,-41.04
1554220372096,9.629479,-1.0348936,1.2156559,0.10972224,-0.026631612000000002,-0.068176925,-34.02,-34.86,-40.86
1554220372116,9.452309,-1.0061632,1.3162124,0.14807177,-0.04261058,-0.07243799,-34.02,-34.98,-40.74
1554220372135,9.533711,-0.98700964,1.4215573000000001,0.19174760000000002,-0.043675844000000005,-0.07776430000000001,-33.96,-35.1,-40.62
1554220372156,9.634267999999999,-0.87208796,1.3162124,0.22690132,-0.043675844000000005,-0.084155895,-33.96,-35.28,-40.62
1554220372176,9.591172,-0.82899237,1.2826935,0.21837921,-0.04580637,-0.09054748,-33.96,-35.46,-40.56
1554220372196,9.648633,-0.9103952,1.2731166999999999,0.14168017,-0.04261058,-0.08841695,-33.9,-35.7,-40.5
1554220372216,9.648633,-0.88166475,1.2252326999999998,0.025566347000000003,-0.033023197000000004,-0.08522116,-33.9,-35.88,-40.44
1554220372235,9.68694,-1.0348936,1.2587515,-0.09267801,-0.02876214,-0.08522116,-33.84,-36.0,-40.38
1554220372255,9.691728999999999,-1.0636241000000002,1.287482,-0.18855181,-0.018109497,-0.07882957,-33.84,-36.18,-40.32
1554220372276,9.634267999999999,-1.1785458,1.4502877,-0.24927188,-0.010652645,-0.07243799,-33.84,-36.3,-40.2
1554220372296,9.56723,-1.3461398999999998,1.4790181,-0.26631612,0.002130529,-0.068176925,-33.84,-36.42,-40.14
1554220372316,9.610325999999999,-1.240795,1.5077485000000002,-0.24394555,0.0010652645,-0.05752428,-33.84,-36.48,-40.08
1554220372336,9.586383999999999,-1.3652935,1.4885948999999998,-0.17576863,-0.004261058,-0.054328485999999995,-33.78,-36.48,-40.08
1554220372355,9.706094,-1.3461398999999998,1.5269021,-0.08628642,-0.002130529,-0.05539375,-33.78,-36.48,-40.08
1554220372377,9.691728999999999,-1.2312181999999998,1.5891514,0.002130529,0.002130529,-0.06711166,-33.72,-36.48,-40.14
1554220372395,9.591172,-1.3365631000000002,1.5747862,0.07882957,0.00958738,-0.06711166,-33.66,-36.48,-40.2
1554220372415,9.653421,-1.2120646000000002,1.4646529,0.12570119999999999,0.0063915867,-0.07030745599999999,-33.6,-36.48,-40.2
1554220372436,9.485827,-1.1593921,1.3545196000000002,0.15659387,0.0031957934000000003,-0.07882957,-33.6,-36.48,-40.26
1554220372455,9.56723,-1.0779893,1.3880384,0.16405073,0.0063915867,-0.07882957,-33.6,-36.42,-40.2
1554220372476,9.5385,-1.2120646000000002,1.3210008,0.14487597,0.0053263223,-0.07137272,-33.6,-36.36,-40.2
1554220372496,9.481038999999999,-1.1641805,1.3976152,0.13528858,0.0063915867,-0.06498113,-33.6,-36.36,-40.2
1554220372516,9.481038999999999,-1.1641805,1.2539631000000002,0.12570119999999999,-0.004261058,-0.051132694000000006,-33.66,-36.36,-40.08
1554220372535,9.562441999999999,-1.0540473,1.3497312,0.12996227,-0.004261058,-0.03834952,-33.72,-36.36,-40.02
1554220372556,9.595961,-1.049259,1.1486181999999998,0.128897,-0.0031957934000000003,-0.033023197000000004,-33.84,-36.36,-39.96
1554220372575,9.624691,-1.0444705,1.2731166999999999,0.12463594,-0.011717908999999999,-0.011717908999999999,-33.9,-36.36,-39.9
1554220372595,9.715671,-1.0253168,1.3736732,0.12676647,-0.015978966,-0.00958738,-33.96,-36.36,-39.9
1554220372616,9.610325999999999,-0.9343372,1.4167688999999999,0.12676647,-0.024501082,-0.026631612000000002,-33.96,-36.36,-39.9
1554220372637,9.591172,-0.88166475,1.5173253,0.08948222,-0.02876214,-0.034088463,-34.02,-36.36,-39.9
1554220372656,9.619903,-0.8960299999999999,1.335366,0.040480047000000005,-0.026631612000000002,-0.039414786,-34.02,-36.42,-39.9
1554220372676,9.600749,-0.9343372,1.3784616000000003,0.017044231,-0.02876214,-0.04580637,-33.96,-36.42,-39.84
1554220372697,9.595961,-1.0109516,1.2539631000000002,0.0053263223,-0.029827405,-0.058589544,-33.96,-36.48,-39.84
1554220372715,9.600749,-0.96785605,1.3497312,-0.0063915867,-0.026631612000000002,-0.06391586,-33.96,-36.6,-39.84
1554220372735,9.528922999999999,-1.0205284,1.335366,-0.020240024,-0.027696876000000002,-0.06285059999999999,-33.9,-36.66,-39.84
1554220372756,9.65821,-1.039682,1.3688848,-0.039414786,-0.03195793,-0.058589544,-33.9,-36.72,-39.84
1554220372776,9.562441999999999,-1.1067197,1.4311341,-0.05752428,-0.03195793,-0.051132694000000006,-33.9,-36.84,-39.84
1554220372796,9.562441999999999,-1.1115081,1.4167688999999999,-0.07350325,-0.02876214,-0.043675844000000005,-33.84,-36.84,-39.78
1554220372815,9.524135000000001,-1.0684125,1.4024036,-0.08735169,-0.026631612000000002,-0.03089267,-33.84,-36.84,-39.78
1554220372836,9.605537,-1.2503718000000001,1.3880384,-0.08522116,-0.03834952,-0.023435817999999997,-33.84,-36.84,-39.78
1554220372855,9.648633,-1.1593921,1.5125369,-0.06178534,-0.033023197000000004,-0.024501082,-33.84,-36.84,-39.78
1554220372876,9.639056,-1.1785458,1.4263457,-0.013848438000000001,-0.025566347000000003,-0.027696876000000002,-33.84,-36.78,-39.78
1554220372895,9.65821,-1.1210848999999998,1.3449427999999999,0.02876214,-0.03089267,-0.03089267,-33.84,-36.78,-39.78
1554220372916,9.715671,-1.1546037,1.4838065,0.06391586,-0.03089267,-0.03834952,-33.84,-36.72,-39.78
1554220372935,9.667786999999999,-1.1593921,1.359308,0.08948222,-0.03089267,-0.043675844000000005,-33.84,-36.66,-39.78
1554220372955,9.667786999999999,-1.1354501000000001,1.3640964,0.10013486,-0.03195793,-0.041545313,-33.9,-36.72,-39.78
1554220372976,9.696517,-1.1306617,1.2491747,0.101200126,-0.02876214,-0.035153727999999995,-33.96,-36.72,-39.72
1554220372995,9.65821,-1.1546037,1.2012907,0.09374327,-0.029827405,-0.026631612000000002,-33.96,-36.72,-39.66
1554220373015,9.576807,-1.049259,1.2970588,0.082025364,-0.034088463,-0.014913702,-33.96,-36.72,-39.66
1554220373036,9.595961,-1.1641805,1.2970588,0.07137272,-0.033023197000000004,-0.004261058,-34.02,-36.72,-39.6
1554220373056,9.576807,-1.1067197,1.1150993999999999,0.06711166,-0.034088463,0.0063915867,-34.02,-36.72,-39.54
1554220373075,9.495403999999999,-1.1833341999999998,1.134253,0.06178534,-0.035153727999999995,0.017044231,-34.08,-36.78,-39.54
1554220373095,9.552864999999999,-1.1976993999999999,1.2012907,0.06498113,-0.034088463,0.029827405,-34.08,-36.84,-39.48
1554220373115,9.524135000000001,-1.1115081,1.3018471999999999,0.07882957,-0.036218993,0.035153727999999995,-34.08,-36.84,-39.42
1554220373136,9.552864999999999,-1.2312181999999998,1.2204443,0.098004326,-0.03834952,0.04261058,-34.08,-36.84,-39.48
1554220373156,9.495403999999999,-1.0923545000000001,1.3305776000000002,0.113983296,-0.040480047000000005,0.04474111,-34.08,-36.84,-39.42
1554220373176,9.543288,-1.1258733,1.2060791000000002,0.13848437,-0.043675844000000005,0.036218993,-34.14,-36.84,-39.42
1554220373197,9.514558000000001,-1.0827777,1.0576386,0.15446335,-0.043675844000000005,0.017044231,-34.14,-36.84,-39.42
1554220373215,9.591172,-0.98222125,1.1246762,0.15339808,-0.041545313,0.002130529,-34.14,-36.84,-39.42
1554220373235,9.629479,-1.0109516,1.2108675,0.15020229,-0.04580637,-0.007456851,-34.2,-36.9,-39.42
1554220373255,9.682152,-1.0157399999999999,1.1534066,0.14061491,-0.05539375,-0.020240024,-34.2,-36.96,-39.42
1554220373276,9.562441999999999,-1.049259,1.1629834,0.13315806,-0.05752428,-0.026631612000000002,-34.26,-37.02,-39.36
1554220373295,9.591172,-0.96306765,1.062427,0.12676647,-0.06178534,-0.025566347000000003,-34.32,-37.08,-39.24
1554220373316,9.615114,-1.0684125,1.134253,0.113983296,-0.06391586,-0.023435817999999997,-34.32,-37.14,-39.12
1554220373336,9.753978,-1.0348936,1.1725603,0.10546118,-0.068176925,-0.027696876000000002,-34.38,-37.2,-38.94
1554220373356,9.753978,-1.0348936,1.1725603,0.10546118,-0.068176925,-0.027696876000000002,-34.38,-37.2,-38.94
1554220373376,9.662998,-1.0205284,1.1294646000000002,0.08628642,-0.056459017,-0.03089267,-34.44,-37.32,-38.82
1554220373396,9.65821,-1.0923545000000001,1.1773487,0.06604639400000001,-0.05219796,-0.033023197000000004,-34.44,-37.38,-38.58
1554220373415,9.691728999999999,-1.1115081,1.1198878,0.043675844000000005,-0.040480047000000005,-0.025566347000000003,-34.5,-37.38,-38.4
1554220373436,9.639056,-1.0827777,1.1486181999999998,0.012783173500000002,-0.039414786,-0.012783173500000002,-34.5,-37.38,-38.28
1554220373455,9.662998,-1.0588357,1.0911574,-0.040480047000000005,-0.03834952,0.0031957934000000003,-34.5,-37.38,-38.22
1554220373475,9.696517,-1.1115081,1.0911574,-0.09267801,-0.025566347000000003,0.015978966,-34.5,-37.5,-38.16
1554220373496,9.792285000000001,-1.1641805,1.0241197,-0.12996227,-0.018109497,0.026631612000000002,-34.5,-37.56,-38.16
1554220373516,9.639056,-1.2455834,1.0815806000000001,-0.1470065,-0.013848438000000001,0.037284255,-34.56,-37.62,-38.16
1554220373536,9.677363,-1.2551602,1.2443863000000002,-0.12570119999999999,-0.00958738,0.034088463,-34.62,-37.68,-38.16
1554220373556,9.763555,-1.1976993999999999,1.2156559,-0.09587380000000001,-0.00958738,0.023435817999999997,-34.62,-37.8,-38.16
1554220373576,9.629479,-1.1306617,1.2060791000000002,-0.060720075,-0.014913702,0.007456851,-34.68,-37.8,-38.16
1554220373596,9.600749,-1.1019313,1.1629834,-0.035153727999999995,-0.01917476,-0.014913702,-34.74,-37.74,-38.16
1554220373615,9.801862,-1.1019313,1.2491747,-0.02876214,-0.014913702,-0.035153727999999995,-34.74,-37.68,-38.22
1554220373636,9.672575,-1.192911,1.287482,-0.025566347000000003,-0.011717908999999999,-0.05219796,-34.8,-37.44,-38.22
1554220373655,9.710882000000002,-1.1689690000000001,1.0815806000000001,-0.03195793,-0.004261058,-0.06391586,-34.8,-37.26,-38.22
1554220373676,9.653421,-1.1785458,1.2635399,-0.043675844000000005,0.008522116,-0.06285059999999999,-34.74,-37.02,-38.22
1554220373695,9.610325999999999,-1.1115081,1.134253,-0.054328485999999995,0.014913702,-0.053263225,-34.74,-36.84,-38.28
1554220373716,9.572019000000001,-1.2743138,0.96665895,-0.06604639400000001,0.014913702,-0.029827405,-34.68,-36.66,-38.28
1554220373735,9.639056,-1.2791021999999999,0.99538934,-0.07563378,0.013848438000000001,-0.007456851,-34.68,-36.54,-38.34
1554220373755,9.682152,-1.216853,1.0576386,-0.08628642,0.011717908999999999,0.011717908999999999,-34.68,-36.48,-38.34
1554220373776,9.643844999999999,-1.2886791000000002,1.0959458,-0.10652645,0.014913702,0.02876214,-34.74,-36.48,-38.34
1554220373796,9.600749,-1.3413515,1.0097545,-0.12570119999999999,0.023435817999999997,0.035153727999999995,-34.8,-36.54,-38.34
1554220373815,9.739613,-1.2503718000000001,1.0480618,-0.12996227,0.012783173500000002,0.036218993,-34.8,-36.66,-38.34
1554220373836,9.739613,-1.3652935,0.95708215,-0.12357068,0.00958738,0.037284255,-34.86,-36.72,-38.34
1554220373855,9.725247,-1.3126211,1.0767921999999999,-0.112918034,0.012783173500000002,0.033023197000000004,-34.92,-36.78,-38.28
1554220373876,9.619903,-1.2695253999999998,1.0911574,-0.098004326,0.013848438000000001,0.023435817999999997,-34.98,-36.84,-38.28
1554220373896,9.524135000000001,-1.3126211,1.0959458,-0.08522116,0.013848438000000001,0.017044231,-35.04,-36.9,-38.34
1554220373916,9.509769,-1.2791021999999999,1.158195,-0.06711166,0.018109497,0.01917476,-35.04,-36.9,-38.34
1554220373935,9.543288,-1.2455834,1.2012907,-0.049002163,0.017044231,0.018109497,-35.04,-36.9,-38.4
1554220373955,9.514558000000001,-1.1881226,0.95229375,-0.049002163,0.015978966,0.014913702,-34.98,-36.84,-38.52
1554220373976,9.624691,-1.2551602,1.0720038,-0.06391586,0.015978966,0.015978966,-34.98,-36.72,-38.64
1554220373996,9.610325999999999,-1.1689690000000001,1.1773487,-0.08948222,0.02130529,0.014913702,-34.98,-36.6,-38.76
1554220374016,9.619903,-1.240795,0.9139864999999999,-0.1107875,0.024501082,0.011717908999999999,-34.98,-36.42,-38.82
1554220374036,9.634267999999999,-1.2791021999999999,1.0815806000000001,-0.13422333,0.024501082,-0.0010652645,-34.98,-36.24,-38.94
1554220374056,9.572019000000001,-1.3413515,1.1917138999999999,-0.15446335,0.02876214,-0.014913702,-34.98,-36.12,-39.0
1554220374076,9.691728999999999,-1.3796587,1.0911574,-0.16937704,0.03089267,-0.020240024,-34.98,-35.94,-39.06
1554220374099,9.730036,-1.3748703000000002,1.1534066,-0.17789917,0.035153727999999995,-0.03089267,-35.04,-35.7,-39.18
1554220374116,9.581595,-1.3844471,1.0480618,-0.17044231,0.033023197000000004,-0.034088463,-35.04,-35.64,-39.18
1554220374136,9.528922999999999,-1.4466964,1.1150993999999999,-0.15659387,0.033023197000000004,-0.029827405,-35.1,-35.46,-39.18
1554220374156,9.615114,-1.4466964,1.1150993999999999,-0.13954964,0.029827405,-0.018109497,-35.16,-35.34,-39.18
1554220374175,9.595961,-1.5233108,1.1150993999999999,-0.12996227,0.022370555,-0.013848438000000001,-35.16,-35.34,-39.18
1554220374196,9.605537,-1.4706384,1.287482,-0.10865697,0.015978966,-0.013848438000000001,-35.22,-35.28,-39.18
1554220374216,9.581595,-1.5328877,1.1246762,-0.07989483,0.011717908999999999,-0.014913702,-35.28,-35.22,-39.24
1554220374235,9.543288,-1.5568296999999998,1.1725603,-0.04474111,0.007456851,-0.01917476,-35.28,-35.16,-39.36
1554220374256,9.504980999999999,-1.5328877,1.0672153999999998,-0.022370555,0.0063915867,-0.027696876000000002,-35.28,-35.16,-39.42
1554220374277,9.461885,-1.4945803999999998,1.1629834,0.0031957934000000003,0.002130529,-0.034088463,-35.28,-35.1,-39.6
1554220374296,9.442732000000001,-1.5568296999999998,1.0911574,0.023435817999999997,0.004261058,-0.03834952,-35.22,-35.04,-39.72
1554220374316,9.466674000000001,-1.5568296999999998,1.1773487,0.034088463,0.0053263223,-0.043675844000000005,-35.22,-35.04,-39.72
1554220374335,9.581595,-1.5089456,1.1725603,0.04474111,0.008522116,-0.051132694000000006,-35.1,-34.92,-39.9
1554220374356,9.634267999999999,-1.5568296999999998,1.2300211,0.043675844000000005,0.024501082,-0.05752428,-35.04,-34.86,-39.96
1554220374376,9.615114,-1.7052702000000002,1.1773487,0.040480047000000005,0.053263225,-0.051132694000000006,-34.98,-34.86,-40.02
1554220374395,9.437942999999999,-1.6238673000000001,1.0959458,0.039414786,0.07669904,-0.039414786,-34.92,-34.8,-39.96
1554220374416,9.490616000000001,-1.5233108,0.99060094,0.024501082,0.082025364,-0.029827405,-34.92,-34.8,-39.96
1554220374436,9.562441999999999,-1.4466964,0.97623575,-0.043675844000000005,0.084155895,0.002130529,-34.86,-34.74,-39.96
1554220374455,9.730036,-1.3652935,1.0193313,-0.18216023,0.06711166,0.060720075,-34.8,-34.68,-39.96
1554220374476,9.859323,-1.5233108,1.0672153999999998,-0.26418558,0.06178534,0.07776430000000001,-34.8,-34.68,-39.96
1554220374496,9.811439,-1.5951369,1.3688848,-0.28868666,0.056459017,0.07989483,-34.74,-34.68,-39.96
1554220374516,9.710882000000002,-1.5616181,1.5269021,-0.25246766,0.05006743,0.06924219,-34.68,-34.68,-39.9
1554220374535,9.548077000000001,-1.7292121999999999,1.4550761,-0.21944448,0.043675844000000005,0.049002163,-34.62,-34.68,-39.9
1554220374556,9.461885,-1.7531542000000002,1.4215573000000001,-0.1768339,0.035153727999999995,-0.0063915867,-34.62,-34.62,-39.9
1554220374576,9.476251,-1.7340006000000001,1.5604209999999998,-0.13741912,0.043675844000000005,-0.037284255,-34.56,-34.56,-39.9
1554220374595,9.409213000000001,-1.7770962,1.4981716999999999,-0.07350325,0.046871635999999994,-0.056459017,-34.56,-34.5,-39.9
1554220374616,9.337387,-1.8393455,1.4311341,0.013848438000000001,0.051132694000000006,-0.07030745599999999,-34.5,-34.38,-39.96
1554220374636,9.337387,-1.8872293999999998,1.4598645000000001,0.07350325,0.046871635999999994,-0.07350325,-34.5,-34.26,-39.96
1554220374656,9.452309,-1.7818846999999998,1.2060791000000002,0.15020229,0.041545313,-0.06604639400000001,-34.5,-34.14,-40.02
1554220374675,9.543288,-1.6765398,1.2300211,0.18642128,0.036218993,-0.053263225,-34.56,-34.02,-40.08
1554220374696,9.581595,-1.8106151000000001,1.2108675,0.20026971,0.025566347000000003,-0.040480047000000005,-34.62,-33.96,-40.2
1554220374716,9.509769,-1.6621746,1.1007341999999998,0.19707392,0.014913702,-0.024501082,-34.62,-33.9,-40.26
1554220374735,9.595961,-1.6861166,1.0911574,0.18322548,-0.0031957934000000003,-0.011717908999999999,-34.68,-33.84,-40.26
1554220374755,9.514558000000001,-1.5041572,0.98102415,0.16618125,-0.015978966,0.0,-34.74,-33.78,-40.32
1554220374775,9.504980999999999,-1.6095021,1.2348095,0.13528858,-0.026631612000000002,0.0010652645,-34.8,-33.78,-40.38
1554220374796,9.428367,-1.5855601000000001,1.2060791000000002,0.099069595,-0.029827405,0.0,-34.86,-33.84,-40.32
1554220374816,9.519346,-1.5041572,1.2012907,0.05752428,-0.04580637,-0.0053263223,-34.92,-33.84,-40.32
1554220374836,9.552864999999999,-1.5616181,1.3018471999999999,0.0010652645,-0.04261058,-0.018109497,-34.98,-33.84,-40.38
1554220374856,9.476251,-1.5807717,1.2826935,-0.06498113,-0.036218993,-0.03195793,-34.98,-33.84,-40.38
1554220374876,9.543288,-1.6430208999999998,1.2970588,-0.12463594,-0.026631612000000002,-0.041545313,-34.98,-33.9,-40.44
1554220374895,9.595961,-1.7052702000000002,1.4550761,-0.15552860000000002,-0.023435817999999997,-0.047936900000000005,-34.98,-33.9,-40.5
1554220374916,9.524135000000001,-1.7818846999999998,1.4024036,-0.16192019,-0.015978966,-0.051132694000000006,-34.98,-33.9,-40.56
1554220374935,9.524135000000001,-1.7770962,1.407192,-0.14061491,-0.011717908999999999,-0.053263225,-34.98,-33.9,-40.68
1554220374955,9.639056,-1.7770962,1.4359225,-0.09587380000000001,-0.004261058,-0.05006743,-34.98,-33.96,-40.74
1554220374976,9.639056,-1.8728642,1.38325,-0.047936900000000005,-0.0031957934000000003,-0.040480047000000005,-34.92,-33.96,-40.8
1554220374995,9.524135000000001,-1.762731,1.4550761,-0.0063915867,0.0010652645,-0.034088463,-34.92,-34.02,-40.8
1554220375015,9.605537,-1.7818846999999998,1.2635399,0.01917476,-0.002130529,-0.024501082,-34.98,-34.02,-40.8
1554220375037,9.615114,-1.7579426,1.3018471999999999,0.026631612000000002,-0.002130529,-0.014913702,-34.98,-34.02,-40.8
1554220375056,9.514558000000001,-1.6717514,1.3162124,0.037284255,-0.002130529,-0.011717908999999999,-34.98,-34.08,-40.8
1554220375075,9.485827,-1.7435773999999997,1.2539631000000002,0.06178534,-0.0053263223,-0.017044231,-34.98,-34.08,-40.74
1554220375095,9.548077000000001,-1.7292121999999999,1.1773487,0.07776430000000001,-0.011717908999999999,-0.024501082,-34.92,-34.08,-40.68
1554220375115,9.533711,-1.7292121999999999,1.2300211,0.08628642,-0.018109497,-0.03089267,-34.92,-34.02,-40.62
1554220375135,9.533711,-1.5903485000000002,1.2156559,0.08948222,-0.020240024,-0.040480047000000005,-34.86,-34.02,-40.56
1554220375156,9.605537,-1.5280992,1.2779051000000001,0.07350325,-0.027696876000000002,-0.046871635999999994,-34.86,-34.02,-40.38
1554220375176,9.552864999999999,-1.6095021,1.2779051000000001,0.05539375,-0.02876214,-0.053263225,-34.86,-33.96,-40.32
1554220375196,9.600749,-1.6382325,1.3018471999999999,0.037284255,-0.017044231,-0.05752428,-34.8,-34.02,-40.2
1554220375216,9.524135000000001,-1.6095021,1.4263457,0.020240024,-0.013848438000000001,-0.05965481,-34.8,-34.02,-40.2
1554220375237,9.56723,-1.6765398,1.1821371,-0.0031957934000000003,-0.017044231,-0.06711166,-34.8,-34.02,-40.2
1554220375256,9.639056,-1.6430208999999998,1.335366,-0.025566347000000003,-0.013848438000000001,-0.07456851,-34.86,-34.02,-40.2
1554220375276,9.485827,-1.8010383,1.3449427999999999,-0.037284255,-0.010652645,-0.07776430000000001,-34.8,-34.08,-40.2
1554220375295,9.442732000000001,-1.7531542000000002,1.2826935,-0.041545313,-0.008522116,-0.082025364,-34.74,-34.08,-40.26
1554220375316,9.481038999999999,-1.8584990000000001,1.3210008,-0.02130529,-0.011717908999999999,-0.083090626,-34.62,-34.14,-40.32
1554220375336,9.56723,-1.7531542000000002,1.38325,0.004261058,-0.011717908999999999,-0.083090626,-34.56,-34.14,-40.38
1554220375356,9.495403999999999,-1.7340006000000001,1.311424,0.027696876000000002,-0.00958738,-0.083090626,-34.5,-34.14,-40.38
1554220375376,9.56723,-1.7196354,1.2443863000000002,0.039414786,-0.012783173500000002,-0.07669904,-34.5,-34.14,-40.38
1554220375395,9.500193,-1.7004818,1.4742297,0.051132694000000006,-0.01917476,-0.07243799,-34.44,-34.14,-40.38
1554220375416,9.533711,-1.762731,1.4359225,0.08841695,-0.022370555,-0.07989483,-34.44,-34.2,-40.32
1554220375436,9.509769,-1.7531542000000002,1.4263457,0.12250541,-0.025566347000000003,-0.08841695,-34.44,-34.2,-40.32
1554220375456,9.409213000000001,-1.6956933999999997,1.3066356000000001,0.15552860000000002,-0.024501082,-0.09374327,-34.5,-34.32,-40.32
1554220375475,9.3661175,-1.6095021,1.3210008,0.17576863,-0.024501082,-0.09587380000000001,-34.5,-34.44,-40.32
1554220375496,9.471461999999999,-1.5616181,1.287482,0.17044231,-0.026631612000000002,-0.09267801,-34.5,-34.56,-40.32
1554220375516,9.500193,-1.5664065,1.1534066,0.15659387,-0.03089267,-0.08841695,-34.56,-34.74,-40.26
1554220375536,9.595961,-1.5472529,1.2012907,0.13848437,-0.026631612000000002,-0.08841695,-34.56,-34.86,-40.26
1554220375555,9.619903,-1.4706384,1.2204443,0.12357068,-0.02876214,-0.084155895,-34.56,-34.98,-40.26
1554220375575,9.615114,-1.4945803999999998,1.0959458,0.11611383,-0.03195793,-0.080960095,-34.62,-35.04,-40.26
1554220375596,9.734824,-1.5568296999999998,1.2587515,0.12144015,-0.027696876000000002,-0.080960095,-34.62,-35.16,-40.26
1554220375615,9.648633,-1.4945803999999998,1.2539631000000002,0.12996227,-0.027696876000000002,-0.07563378,-34.62,-35.22,-40.26
1554220375635,9.572019000000001,-1.4610616,1.3257892,0.112918034,-0.025566347000000003,-0.07456851,-34.62,-35.28,-40.2
1554220375656,9.610325999999999,-1.3652935,1.4119805,0.082025364,-0.020240024,-0.07882957,-34.68,-35.34,-40.14
1554220375676,9.576807,-1.441908,1.3976152,0.051132694000000006,-0.008522116,-0.07989483,-34.62,-35.34,-40.02
1554220375695,9.543288,-1.4802152,1.4119805,0.033023197000000004,-0.002130529,-0.083090626,-34.62,-35.4,-39.84
1554220375716,9.543288,-1.3988123,1.4167688999999999,0.035153727999999995,0.0031957934000000003,-0.08948222,-34.62,-35.46,-39.6
1554220375735,9.595961,-1.3509283,1.4694413,0.047936900000000005,0.0053263223,-0.094808534,-34.62,-35.58,-39.42
1554220375757,9.552864999999999,-1.4706384,1.2779051000000001,0.07030745599999999,0.00958738,-0.10333065,-34.62,-35.7,-39.18
1554220375775,9.5385,-1.4036007,1.335366,0.08522116,0.004261058,-0.112918034,-34.62,-35.7,-39.06
1554220375796,9.519346,-1.2791021999999999,1.2587515,0.080960095,-0.0053263223,-0.11611383,-34.62,-35.7,-38.94
1554220375815,9.595961,-1.3078326999999998,1.2970588,0.07030745599999999,-0.020240024,-0.11717909,-34.62,-35.7,-38.82
1554220375835,9.514558000000001,-1.3126211,1.4215573000000001,0.07350325,-0.025566347000000003,-0.11824436,-34.62,-35.76,-38.76
1554220375856,9.624691,-1.4754268,1.5795746000000002,0.098004326,-0.041545313,-0.12463594,-34.62,-35.82,-38.88
1554220375876,9.682152,-1.3126211,1.4598645000000001,0.13635385,-0.041545313,-0.13209279,-34.62,-35.88,-38.94
1554220375895,9.543288,-1.2886791000000002,1.6561891,0.18429075,-0.043675844000000005,-0.14274544,-34.62,-36.06,-39.06
1554220375916,9.548077000000001,-1.2503718000000001,1.4359225,0.2130529,-0.04474111,-0.14487597,-34.62,-36.24,-39.06
1554220375935,9.504980999999999,-1.3126211,1.4215573000000001,0.22903186,-0.046871635999999994,-0.13954964,-34.62,-36.42,-39.12
1554220375955,9.591172,-1.1210848999999998,1.5316905,0.23009712,-0.037284255,-0.13209279,-34.62,-36.6,-39.18
1554220375976,9.610325999999999,-1.1833341999999998,1.3449427999999999,0.22583607,-0.029827405,-0.113983296,-34.62,-36.78,-39.18
1554220375995,9.528922999999999,-1.1067197,1.4885948999999998,0.21624869,-0.023435817999999997,-0.09054748,-34.56,-36.96,-39.06
1554220376015,9.471461999999999,-1.1019313,1.3162124,0.20879184,-0.01917476,-0.07137272,-34.56,-37.08,-39.0
1554220376035,9.485827,-1.1067197,1.3257892,0.20453078,-0.018109497,-0.040480047000000005,-34.56,-37.14,-38.88
1554220376055,9.581595,-0.99179804,1.1629834,0.19813919,-0.017044231,-0.01917476,-34.56,-37.14,-38.82
1554220376075,9.414000999999999,-0.87687635,1.1677719,0.16724652,-0.01917476,0.007456851,-34.5,-37.14,-38.64
1554220376096,9.423578,-0.87687635,1.2012907,0.11930962,-0.04474111,0.025566347000000003,-34.38,-37.14,-38.52
1554220376115,9.452309,-0.9247603999999999,1.1055226,0.08628642,-0.05965481,0.034088463,-34.32,-37.14,-38.4
1554220376136,9.504980999999999,-0.9103952,1.0480618,0.040480047000000005,-0.07776430000000001,0.034088463,-34.2,-37.14,-38.28
1554220376155,9.734824,-1.0444705,1.3688848,0.027696876000000002,-0.083090626,0.02130529,-34.14,-37.14,-38.22
1554220376176,9.92636,-1.0061632,1.311424,0.022370555,-0.080960095,0.0,-34.08,-37.14,-38.16
1554220376196,9.964667,-1.1162965,1.3688848,0.043675844000000005,-0.05965481,-0.039414786,-34.02,-37.14,-38.1
1554220376215,9.868899,-1.1306617,1.2587515,0.07137272,-0.046871635999999994,-0.06285059999999999,-33.96,-37.14,-38.1
1554220376235,9.648633,-1.1210848999999998,1.3210008,0.10226539,-0.02876214,-0.09267801,-33.96,-37.14,-38.04
1554220376256,9.572019000000001,-1.0588357,1.0528502,0.113983296,-0.013848438000000001,-0.11611383,-33.96,-37.14,-38.04
1554220376276,9.509769,-0.86251116,1.0049661,0.080960095,-0.00958738,-0.10972224,-33.96,-37.14,-38.04
1554220376296,9.414000999999999,-0.9056068000000002,1.062427,0.02876214,-0.00958738,-0.080960095,-33.96,-37.2,-38.04
1554220376316,9.471461999999999,-0.95349085,1.134253,-0.024501082,-0.02130529,-0.043675844000000005,-33.96,-37.2,-38.04
1554220376336,9.500193,-0.96785605,1.062427,-0.05539375,-0.022370555,-0.023435817999999997,-33.96,-37.2,-38.1
1554220376355,9.595961,-0.95827925,1.0959458,-0.082025364,-0.024501082,-0.0031957934000000003,-33.96,-37.2,-38.1
1554220376375,9.682152,-1.0348936,1.1055226,-0.09267801,-0.036218993,-0.0031957934000000003,-34.02,-37.26,-38.1
1554220376395,9.734824,-0.8912416,0.96665895,-0.112918034,-0.04261058,-0.011717908999999999,-34.08,-37.26,-38.1
1554220376415,9.662998,-1.0061632,1.0097545,-0.18109496,-0.046871635999999994,-0.020240024,-34.08,-37.32,-38.1
1554220376435,9.595961,-0.9343372,1.134253,-0.25672874,-0.054328485999999995,-0.023435817999999997,-34.14,-37.32,-38.1
1554220376455,9.56723,-1.0205284,1.1246762,-0.34194988,-0.058589544,-0.026631612000000002,-34.2,-37.38,-38.04
1554220376476,9.552864999999999,-1.1210848999999998,1.1725603,-0.40053943,-0.060720075,-0.03834952,-34.26,-37.38,-38.04
1554220376496,9.77792,-1.2934675,1.1965023000000001,-0.4282363,-0.05965481,-0.04580637,-34.32,-37.38,-38.04
1554220376515,9.739613,-1.417966,1.1917138999999999,-0.41758367,-0.05219796,-0.058589544,-34.38,-37.38,-38.04
1554220376535,9.816227,-1.4945803999999998,1.4646529,-0.36005938,-0.041545313,-0.068176925,-34.44,-37.26,-38.1
1554220376556,9.734824,-1.4754268,1.2587515,-0.2428803,-0.01917476,-0.07243799,-34.44,-37.2,-38.22
1554220376576,9.782708,-1.6095021,1.2012907,-0.10333065,-0.013848438000000001,-0.068176925,-34.44,-37.14,-38.34
1554220376596,9.610325999999999,-1.5376761,1.1725603,0.03195793,0.002130529,-0.06711166,-34.5,-37.02,-38.46
1554220376615,9.591172,-1.3844471,1.1486181999999998,0.13209279,-0.0010652645,-0.05539375,-34.56,-36.96,-38.58
1554220376635,9.562441999999999,-1.2934675,1.0432734000000001,0.17896444,-0.0063915867,-0.036218993,-34.56,-36.84,-38.64
1554220376657,9.514558000000001,-1.2072762,0.8900445,0.17044231,-0.011717908999999999,-0.013848438000000001,-34.62,-36.78,-38.76
1554220376675,9.600749,-1.0827777,1.0767921999999999,0.12570119999999999,-0.027696876000000002,0.00958738,-34.62,-36.78,-38.82
1554220376696,9.643844999999999,-1.1546037,0.9091981,0.06285059999999999,-0.03195793,0.03089267,-34.62,-36.78,-38.82
1554220376716,9.821015,-1.216853,1.0720038,0.008522116,-0.029827405,0.04261058,-34.56,-36.72,-38.82
1554220376736,9.77792,-1.2312181999999998,1.062427,0.002130529,-0.022370555,0.04261058,-34.5,-36.72,-38.82
1554220376757,9.753978,-1.2455834,0.8996213,0.018109497,-0.015978966,0.03195793,-34.44,-36.72,-38.82
1554220376775,9.782708,-1.2455834,0.9044097,0.05006743,-0.017044231,0.002130529,-34.32,-36.72,-38.76
1554220376796,9.730036,-1.240795,1.0097545,0.06178534,-0.014913702,-0.012783173500000002,-34.32,-36.72,-38.76
1554220376816,9.557653,-1.240795,1.0767921999999999,0.047936900000000005,-0.015978966,-0.03089267,-34.38,-36.78,-38.7
1554220376836,9.643844999999999,-1.1976993999999999,0.85652566,0.012783173500000002,-0.020240024,-0.03195793,-34.38,-36.78,-38.7
1554220376855,9.528922999999999,-1.2216414,0.9427169,-0.043675844000000005,-0.03195793,-0.033023197000000004,-34.56,-36.78,-38.64
1554220376876,9.519346,-1.2743138,0.97623575,-0.07350325,-0.02876214,-0.027696876000000002,-34.62,-36.84,-38.64
1554220376896,9.586383999999999,-1.3557166999999999,0.97623575,-0.082025364,-0.03195793,-0.017044231,-34.74,-36.84,-38.52
1554220376915,9.586383999999999,-1.3652935,0.9187749,-0.07882957,-0.03089267,-0.015978966,-34.8,-36.84,-38.46
1554220376936,9.56723,-1.3892354999999998,1.0097545,-0.07030745599999999,-0.03834952,-0.01917476,-34.92,-36.78,-38.4
1554220376956,9.65821,-1.3940238999999999,0.9427169,-0.06924219,-0.041545313,-0.027696876000000002,-34.98,-36.78,-38.28
1554220376975,9.768343,-1.3940238999999999,1.0097545,-0.07350325,-0.034088463,-0.03089267,-34.98,-36.78,-38.22
1554220376995,9.763555,-1.4514848,0.96187055,-0.07989483,-0.026631612000000002,-0.034088463,-34.92,-36.78,-38.1
1554220377015,9.720459,-1.4083891000000002,1.0959458,-0.09374327,-0.017044231,-0.037284255,-34.92,-36.78,-38.04
1554220377036,9.600749,-1.3748703000000002,1.1150993999999999,-0.10439592,-0.002130529,-0.02876214,-34.92,-36.78,-38.04
1554220377056,9.576807,-1.4466964,1.1534066,-0.10546118,0.0031957934000000003,-0.018109497,-34.92,-36.78,-38.04
1554220377076,9.662998,-1.5568296999999998,1.110311,-0.083090626,0.011717908999999999,-0.008522116,-34.92,-36.78,-37.98
1554220377096,9.56723,-1.4754268,1.1294646000000002,-0.046871635999999994,0.015978966,-0.0031957934000000003,-34.92,-36.84,-37.98
1554220377115,9.452309,-1.5520413,1.0241197,0.0063915867,0.01917476,0.004261058,-34.92,-36.78,-38.04
1554220377135,9.56723,-1.4323312,0.95708215,0.05752428,0.02130529,0.012783173500000002,-34.92,-36.66,-38.04
1554220377155,9.610325999999999,-1.5041572,1.0289081,0.10439592,0.02130529,0.020240024,-34.92,-36.6,-38.1
1554220377176,9.696517,-1.441908,0.9427169,0.13635385,0.017044231,0.020240024,-34.92,-36.54,-38.1
1554220377196,9.600749,-1.4466964,0.95229375,0.17896444,0.015978966,0.014913702,-34.98,-36.42,-38.16
1554220377216,9.581595,-1.441908,0.9139864999999999,0.18855181,0.015978966,0.0063915867,-34.98,-36.3,-38.22
1554220377235,9.610325999999999,-1.4371196000000002,0.97144735,0.17789917,0.013848438000000001,-0.004261058,-34.98,-36.24,-38.28
1554220377256,9.639056,-1.3030443,0.86131406,0.1470065,0.0063915867,-0.0053263223,-34.92,-36.12,-38.34
1554220377275,9.624691,-1.3988123,1.0576386,0.12250541,0.007456851,-0.007456851,-34.92,-36.06,-38.4
1554220377296,9.572019000000001,-1.3940238999999999,1.0241197,0.09054748,0.008522116,0.002130529,-34.92,-36.18,-38.4
1554220377316,9.639056,-1.3557166999999999,1.1007341999999998,0.07989483,0.011717908999999999,0.010652645,-34.92,-36.24,-38.4
1554220377336,9.624691,-1.417966,0.9427169,0.082025364,0.017044231,0.017044231,-34.92,-36.3,-38.4
1554220377356,9.624691,-1.4227544,1.1773487,0.08841695,0.023435817999999997,0.017044231,-34.98,-36.36,-38.34
1554220377375,9.68694,-1.4945803999999998,1.062427,0.08841695,0.025566347000000003,0.012783173500000002,-34.98,-36.42,-38.34
1554220377395,9.691728999999999,-1.3221979,1.0432734000000001,0.07776430000000001,0.03089267,0.002130529,-35.04,-36.54,-38.28
1554220377416,9.710882000000002,-1.3509283,1.1246762,0.060720075,0.03195793,-0.002130529,-35.04,-36.6,-38.22
1554220377436,9.749189,-1.3748703000000002,1.0528502,0.047936900000000005,0.029827405,-0.007456851,-35.04,-36.66,-38.22
1554220377456,9.629479,-1.4802152,1.0911574,0.046871635999999994,0.026631612000000002,-0.017044231,-35.1,-36.6,-38.16
1554220377476,9.619903,-1.4754268,1.1773487,0.06604639400000001,0.025566347000000003,-0.024501082,-35.1,-36.6,-38.16
1554220377496,9.586383999999999,-1.4371196000000002,1.134253,0.09161274,0.022370555,-0.03195793,-35.16,-36.54,-38.1
1554220377515,9.5385,-1.4706384,1.0432734000000001,0.111852765,0.018109497,-0.039414786,-35.16,-36.42,-37.98
1554220377535,9.543288,-1.5185224,1.0241197,0.12570119999999999,0.013848438000000001,-0.039414786,-35.1,-36.36,-37.92
1554220377555,9.576807,-1.4466964,1.0384849,0.13209279,0.0053263223,-0.039414786,-35.1,-36.24,-37.86
1554220377577,9.519346,-1.3940238999999999,0.9283517,0.13315806,0.004261058,-0.035153727999999995,-35.04,-36.12,-37.74
1554220377595,9.514558000000001,-1.3988123,0.8230068000000001,0.128897,0.002130529,-0.029827405,-34.98,-36.0,-37.68
1554220377617,9.591172,-1.489792,0.86131406,0.11824436,-0.008522116,-0.023435817999999997,-34.92,-35.94,-37.62
1554220377635,9.5385,-1.3413515,0.98102415,0.1107875,-0.014913702,-0.017044231,-34.92,-35.88,-37.56
1554220377658,9.572019000000001,-1.4227544,1.0480618,0.099069595,-0.023435817999999997,-0.008522116,-34.86,-35.88,-37.62
1554220377675,9.557653,-1.3844471,1.0672153999999998,0.09054748,-0.026631612000000002,-0.0010652645,-34.8,-36.0,-37.68
1554220377695,9.643844999999999,-1.441908,0.88046765,0.08522116,-0.034088463,-0.002130529,-34.8,-36.12,-37.68
1554220377716,9.706094,-1.3509283,1.0672153999999998,0.082025364,-0.037284255,-0.007456851,-34.8,-36.18,-37.74
1554220377735,9.763555,-1.2886791000000002,1.0911574,0.07776430000000001,-0.033023197000000004,-0.014913702,-34.8,-36.3,-37.74
1554220377756,9.701305,-1.264737,1.1821371,0.06178534,-0.034088463,-0.022370555,-34.8,-36.3,-37.8
1554220377776,9.720459,-1.3365631000000002,1.0767921999999999,0.040480047000000005,-0.033023197000000004,-0.029827405,-34.8,-36.36,-37.8
1554220377796,9.639056,-1.4514848,0.98102415,0.02130529,-0.033023197000000004,-0.04261058,-34.8,-36.36,-37.8
1554220377817,9.653421,-1.4083891000000002,1.1294646000000002,0.012783173500000002,-0.03195793,-0.05965481,-34.8,-36.36,-37.74
1554220377837,9.643844999999999,-1.3796587,1.1917138999999999,0.02130529,-0.024501082,-0.07776430000000001,-34.8,-36.36,-37.68
1554220377855,9.653421,-1.4706384,1.1677719,0.033023197000000004,-0.02130529,-0.082025364,-34.8,-36.3,-37.56
1554220377876,9.639056,-1.3988123,1.110311,0.04474111,-0.017044231,-0.08735169,-34.8,-36.3,-37.5
1554220377895,9.452309,-1.4802152,0.9475053,0.04580637,-0.010652645,-0.084155895,-34.86,-36.36,-37.44
1554220377916,9.528922999999999,-1.4131776000000003,1.0193313,0.034088463,-0.007456851,-0.06711166,-34.86,-36.42,-37.32
1554220377935,9.677363,-1.4610616,0.95229375,0.017044231,-0.012783173500000002,-0.053263225,-34.86,-36.42,-37.26
1554220377956,9.619903,-1.489792,1.0384849,-0.015978966,-0.007456851,-0.040480047000000005,-34.86,-36.48,-37.2
1554220377976,9.662998,-1.4993688,1.1055226,-0.035153727999999995,-0.0053263223,-0.033023197000000004,-34.8,-36.54,-37.14
1554220377995,9.662998,-1.4514848,0.99538934,-0.05006743,-0.0031957934000000003,-0.027696876000000002,-34.8,-36.54,-37.2
1554220378015,9.639056,-1.5472529,0.99060094,-0.033023197000000004,-0.0010652645,-0.022370555,-34.74,-36.6,-37.2
1554220378036,9.562441999999999,-1.5280992,1.1773487,-0.00958738,-0.0031957934000000003,-0.025566347000000003,-34.68,-36.66,-37.2
1554220378056,9.610325999999999,-1.513734,1.0767921999999999,0.017044231,0.0010652645,-0.023435817999999997,-34.62,-36.6,-37.2
1554220378076,9.643844999999999,-1.4323312,0.99538934,0.03195793,-0.0010652645,-0.020240024,-34.56,-36.66,-37.2
1554220378096,9.634267999999999,-1.4083891000000002,0.95229375,0.035153727999999995,-0.002130529,-0.015978966,-34.56,-36.66,-37.2
1554220378115,9.557653,-1.3557166999999999,1.0193313,0.027696876000000002,-0.002130529,-0.013848438000000001,-34.56,-36.66,-37.2
1554220378135,9.624691,-1.4371196000000002,0.95229375,0.011717908999999999,-0.007456851,-0.015978966,-34.56,-36.66,-37.2
1554220378156,9.586383999999999,-1.3557166999999999,1.0289081,-0.0053263223,-0.013848438000000001,-0.017044231,-34.62,-36.66,-37.2
1554220378175,9.619903,-1.441908,1.1007341999999998,-0.022370555,-0.014913702,-0.01917476,-34.74,-36.66,-37.2
1554220378195,9.629479,-1.4036007,1.2012907,-0.026631612000000002,-0.012783173500000002,-0.027696876000000002,-34.86,-36.72,-37.2
1554220378216,9.662998,-1.441908,1.0384849,-0.022370555,-0.013848438000000001,-0.033023197000000004,-34.98,-36.72,-37.2
1554220378236,9.586383999999999,-1.46585,1.0193313,-0.02130529,-0.00958738,-0.04261058,-35.1,-36.72,-37.2
1554220378256,9.600749,-1.46585,1.0528502,-0.017044231,-0.013848438000000001,-0.049002163,-35.16,-36.72,-37.2
1554220378276,9.572019000000001,-1.4610616,1.2300211,-0.017044231,-0.011717908999999999,-0.058589544,-35.28,-36.66,-37.2
1554220378296,9.653421,-1.4131776000000003,0.9235633,-0.007456851,-0.013848438000000001,-0.060720075,-35.34,-36.6,-37.2
1554220378316,9.533711,-1.3988123,1.0289081,-0.0031957934000000003,-0.018109497,-0.05752428,-35.4,-36.54,-37.14
1554220378336,9.557653,-1.4514848,1.0432734000000001,0.007456851,-0.024501082,-0.058589544,-35.46,-36.48,-37.14
1554220378355,9.605537,-1.4945803999999998,1.0289081,0.025566347000000003,-0.033023197000000004,-0.06178534,-35.46,-36.42,-37.14
1554220378376,9.691728999999999,-1.4466964,1.110311,0.04474111,-0.040480047000000005,-0.06285059999999999,-35.46,-36.36,-37.14
1554220378396,9.643844999999999,-1.4514848,1.0815806000000001,0.07030745599999999,-0.046871635999999994,-0.06498113,-35.46,-36.3,-37.14
1554220378415,9.471461999999999,-1.4706384,1.0959458,0.08948222,-0.049002163,-0.06604639400000001,-35.4,-36.3,-37.14
1554220378435,9.572019000000001,-1.417966,1.0432734000000001,0.10439592,-0.05219796,-0.06285059999999999,-35.4,-36.3,-37.14
1554220378456,9.691728999999999,-1.4371196000000002,1.1821371,0.11611383,-0.05752428,-0.06391586,-35.34,-36.36,-37.14
1554220378476,9.734824,-1.441908,1.0720038,0.12676647,-0.05965481,-0.07456851,-35.28,-36.36,-37.14
1554220378496,9.591172,-1.3413515,1.0289081,0.12996227,-0.054328485999999995,-0.07669904,-35.22,-36.48,-37.14
1554220378516,9.701305,-1.3126211,1.2731166999999999,0.13209279,-0.05539375,-0.07669904,-35.16,-36.54,-37.14
1554220378536,9.639056,-1.417966,1.1150993999999999,0.13741912,-0.05006743,-0.07563378,-35.16,-36.6,-37.14
1554220378555,9.691728999999999,-1.46585,1.1534066,0.14807177,-0.05219796,-0.083090626,-35.1,-36.66,-37.08
1554220378576,9.744401,-1.5376761,1.1534066,0.165116,-0.041545313,-0.09587380000000001,-35.1,-36.72,-37.02
1554220378596,9.749189,-1.4131776000000003,1.2300211,0.19281286,-0.034088463,-0.101200126,-35.1,-36.78,-36.9
1554220378616,9.639056,-1.4131776000000003,1.1629834,0.22050974,-0.024501082,-0.10546118,-35.1,-36.84,-36.84
1554220378637,9.586383999999999,-1.4706384,1.0145429,0.24501082,-0.01917476,-0.10013486,-35.04,-36.9,-36.72
1554220378656,9.586383999999999,-1.417966,1.1821371,0.257794,-0.00958738,-0.084155895,-35.1,-36.96,-36.66
1554220378675,9.615114,-1.3126211,1.0241197,0.2545982,-0.007456851,-0.06924219,-35.1,-37.08,-36.54
1554220378696,9.639056,-1.3748703000000002,1.3018471999999999,0.25246766,0.0,-0.05006743,-35.1,-37.32,-36.48
1554220378716,9.710882000000002,-1.2312181999999998,1.0720038,0.25353295,0.0031957934000000003,-0.036218993,-35.1,-37.44,-36.42
1554220378735,9.643844999999999,-1.2503718000000001,1.0815806000000001,0.26631612,0.011717908999999999,-0.022370555,-35.1,-37.86,-36.36
1554220378755,9.744401,-1.2551602,0.96665895,0.28016454,0.010652645,-0.012783173500000002,-35.1,-38.1,-36.3
1554220378776,9.763555,-1.2072762,0.96665895,0.29827404,0.011717908999999999,-0.013848438000000001,-35.1,-38.34,-36.24
1554220378797,9.77792,-1.1162965,0.95229375,0.30253512,0.011717908999999999,-0.01917476,-35.1,-38.52,-36.12
1554220378817,9.739613,-1.1115081,1.0720038,0.28975195,0.012783173500000002,-0.022370555,-35.1,-38.7,-35.94
1554220378835,9.792285000000001,-1.0588357,0.99538934,0.25885928,0.008522116,-0.026631612000000002,-35.04,-38.82,-35.82
1554220378856,9.682152,-1.0109516,0.98102415,0.22796659,0.010652645,-0.027696876000000002,-35.04,-38.88,-35.64
1554220378875,9.710882000000002,-0.97743285,0.9475053,0.19068234,0.008522116,-0.023435817999999997,-34.98,-38.88,-35.46
1554220378895,9.797073,-0.99179804,1.0145429,0.15339808,0.0053263223,-0.02130529,-34.98,-38.88,-35.34
1554220378915,9.696517,-0.99658644,1.110311,0.112918034,0.008522116,-0.020240024,-34.98,-38.88,-35.16
1554220378936,9.653421,-1.1115081,1.0815806000000001,0.10013486,0.010652645,-0.022370555,-34.98,-38.88,-35.04
1554220378956,9.768343,-1.039682,1.0767921999999999,0.101200126,0.0063915867,-0.03089267,-35.04,-38.94,-34.98
1554220378977,9.758766,-1.1162965,1.2779051000000001,0.112918034,0.013848438000000001,-0.049002163,-35.1,-38.94,-34.92
1554220378995,9.533711,-1.039682,1.1534066,0.12996227,0.012783173500000002,-0.060720075,-35.16,-39.0,-34.86
1554220379015,9.485827,-1.1306617,1.1007341999999998,0.14913702,0.013848438000000001,-0.068176925,-35.16,-39.0,-34.8
1554220379036,9.514558000000001,-1.1498153,1.0672153999999998,0.16192019,0.011717908999999999,-0.07882957,-35.22,-39.06,-34.8
1554220379056,9.471461999999999,-1.0636241000000002,1.2204443,0.17789917,0.0031957934000000003,-0.09161274,-35.28,-39.06,-34.74
1554220379075,9.572019000000001,-1.039682,1.110311,0.19387813,-0.0031957934000000003,-0.099069595,-35.28,-39.06,-34.68
1554220379095,9.600749,-1.073201,1.0289081,0.19707392,-0.0053263223,-0.10546118,-35.22,-39.06,-34.62
1554220379117,9.629479,-1.0013748,1.2156559,0.19920446,-0.002130529,-0.11504856,-35.16,-39.06,-34.5
1554220379137,9.667786999999999,-0.96306765,1.2156559,0.19068234,-0.0010652645,-0.11930962,-35.1,-39.0,-34.5
1554220379157,9.639056,-0.9247603999999999,1.0528502,0.17044231,0.007456851,-0.12037488,-34.98,-38.94,-34.44
1554220379176,9.667786999999999,-1.0013748,1.3736732,0.14594123,0.012783173500000002,-0.11930962,-34.92,-38.94,-34.44
1554220379196,9.672575,-0.9247603999999999,1.2635399,0.12144015,0.017044231,-0.10759171,-34.86,-38.94,-34.38
1554220379216,9.624691,-1.0013748,1.1725603,0.10439592,0.024501082,-0.09054748,-34.86,-39.0,-34.38
1554220379236,9.624691,-0.99179804,1.2300211,0.09054748,0.029827405,-0.07882957,-34.8,-39.12,-34.38
1554220379255,9.557653,-0.88645315,1.1917138999999999,0.08522116,0.03195793,-0.06711166,-34.8,-39.18,-34.38
1554220379275,9.524135000000001,-0.9295488000000001,1.1246762,0.082025364,0.027696876000000002,-0.056459017,-34.74,-39.3,-34.32
1554220379296,9.495403999999999,-0.98700964,1.311424,0.07243799,0.022370555,-0.05539375,-34.68,-39.54,-34.26
1554220379316,9.56723,-0.88645315,1.2204443,0.056459017,0.011717908999999999,-0.06391586,-34.68,-39.66,-34.2
1554220379335,9.500193,-0.9439139999999999,1.2300211,0.039414786,0.010652645,-0.07137272,-34.62,-39.78,-34.14
1554220379355,9.56723,-1.0205284,1.1294646000000002,0.03834952,0.0053263223,-0.082025364,-34.62,-39.84,-34.08
1554220379375,9.552864999999999,-0.9343372,1.0911574,0.03089267,0.008522116,-0.09054748,-34.62,-39.9,-34.02
1554220379396,9.557653,-0.8242039000000001,1.1773487,0.010652645,-0.0031957934000000003,-0.09267801,-34.56,-39.96,-33.96
1554220379415,9.509769,-0.95349085,1.2156559,-0.023435817999999997,-0.004261058,-0.09587380000000001,-34.56,-40.02,-33.9
1554220379436,9.514558000000001,-0.87208796,1.1821371,-0.06391586,-0.004261058,-0.08522116,-34.56,-40.02,-33.84
1554220379457,9.68694,-0.9487024,1.2587515,-0.113983296,-0.015978966,-0.07030745599999999,-34.5,-40.08,-33.78
1554220379476,9.792285000000001,-1.0157399999999999,1.4407108999999998,-0.13422333,-0.008522116,-0.06498113,-34.5,-40.08,-33.78
1554220379496,9.706094,-0.99179804,1.3545196000000002,-0.13528858,-0.004261058,-0.06285059999999999,-34.5,-40.08,-33.78
1554220379517,9.548077000000001,-1.0013748,1.2826935,-0.111852765,0.0,-0.06391586,-34.44,-40.08,-33.72
1554220379536,9.595961,-0.95827925,1.3257892,-0.09374327,0.0053263223,-0.06604639400000001,-34.44,-40.08,-33.78
1554220379556,9.557653,-1.0444705,1.2826935,-0.094808534,0.004261058,-0.06178534,-34.44,-40.08,-33.78
1554220379575,9.514558000000001,-1.0588357,1.4167688999999999,-0.10333065,0.0031957934000000003,-0.05539375,-34.5,-40.08,-33.78
1554220379595,9.615114,-1.0061632,1.3736732,-0.10972224,0.0053263223,-0.047936900000000005,-34.5,-40.14,-33.78
1554220379616,9.576807,-1.0444705,1.3880384,-0.10333065,0.012783173500000002,-0.037284255,-34.56,-40.14,-33.84
1554220379636,9.648633,-1.1162965,1.2108675,-0.05752428,0.013848438000000001,-0.024501082,-34.56,-40.14,-33.9
1554220379656,9.639056,-1.1115081,1.3688848,-0.011717908999999999,0.010652645,-0.01917476,-34.62,-40.14,-33.96
1554220379675,9.682152,-1.1354501000000001,1.3449427999999999,0.00958738,0.00958738,-0.01917476,-34.62,-40.14,-33.96
1554220379695,9.576807,-1.0444705,1.1917138999999999,0.043675844000000005,0.00958738,-0.017044231,-34.62,-40.14,-34.02
1554220379716,9.639056,-0.99179804,1.1725603,0.05965481,0.002130529,-0.015978966,-34.62,-40.14,-34.08
1554220379735,9.595961,-0.8912416,1.2348095,0.06285059999999999,-0.002130529,-0.014913702,-34.62,-40.14,-34.14
1554220379756,9.643844999999999,-0.9391255999999999,1.2060791000000002,0.058589544,-0.0031957934000000003,-0.010652645,-34.62,-40.2,-34.2
1554220379775,9.56723,-0.86251116,1.2156559,0.049002163,-0.0031957934000000003,-0.00958738,-34.62,-40.26,-34.26
1554220379796,9.528922999999999,-0.85293436,1.0911574,0.033023197000000004,-0.004261058,-0.0053263223,-34.62,-40.32,-34.26
1554220379815,9.519346,-0.8912416,1.3640964,0.00958738,-0.0063915867,-0.0031957934000000003,-34.62,-40.38,-34.32
1554220379835,9.528922999999999,-0.88645315,1.2970588,-0.022370555,-0.0063915867,-0.004261058,-34.62,-40.44,-34.32
1554220379856,9.624691,-0.84814596,1.2443863000000002,-0.053263225,-0.002130529,-0.0010652645,-34.68,-40.44,-34.32
1554220379875,9.639056,-1.0013748,1.3162124,-0.09054748,0.0,-0.0031957934000000003,-34.68,-40.44,-34.32
1554220379897,9.56723,-0.9439139999999999,1.0576386,-0.13209279,0.008522116,-0.004261058,-34.74,-40.44,-34.2
1554220379916,9.557653,-0.9008184000000001,1.2826935,-0.15552860000000002,0.00958738,0.0,-34.74,-40.38,-34.2
1554220379935,9.739613,-0.95827925,1.2012907,-0.18109496,0.00958738,0.002130529,-34.74,-40.32,-34.14
1554220379956,9.643844999999999,-0.9391255999999999,1.2108675,-0.2034655,0.014913702,-0.002130529,-34.74,-40.26,-34.08
1554220379976,9.619903,-0.96785605,1.2587515,-0.22370553,0.014913702,-0.002130529,-34.74,-40.2,-34.08
1554220379996,9.615114,-1.0444705,1.3066356000000001,-0.23435818,0.020240024,-0.0010652645,-34.68,-40.14,-34.32
1554220380016,9.572019000000001,-1.0588357,1.3497312,-0.23968449999999997,0.023435817999999997,-0.0031957934000000003,-34.68,-40.14,-34.56
1554220380036,9.629479,-1.1976993999999999,1.3257892,-0.23116238,0.035153727999999995,-0.007456851,-34.62,-40.08,-34.8
1554220380056,9.595961,-1.2120646000000002,1.4167688999999999,-0.20240025,0.05539375,-0.0010652645,-34.62,-40.02,-35.16
1554220380080,9.662998,-1.1785458,1.2204443,-0.18216023,0.060720075,0.010652645,-34.62,-40.02,-35.4
1554220380095,9.619903,-1.1258733,1.287482,-0.18109496,0.06498113,0.017044231,-34.62,-40.02,-35.52
1554220380115,9.653421,-1.1737574,1.3018471999999999,-0.18748654,0.068176925,0.026631612000000002,-34.68,-40.02,-35.76
1554220380135,9.591172,-1.2264298,1.2731166999999999,-0.18855181,0.07137272,0.036218993,-34.68,-40.2,-35.82
1554220380156,9.600749,-1.1833341999999998,1.335366,-0.19174760000000002,0.07243799,0.040480047000000005,-34.74,-40.32,-35.76
1554220380175,9.591172,-1.216853,1.1629834,-0.20453078,0.06924219,0.03834952,-34.86,-40.44,-35.64
1554220380196,9.524135000000001,-1.2072762,1.2348095,-0.21198763,0.06711166,0.03195793,-34.92,-40.5,-35.64
1554220380215,9.572019000000001,-1.2264298,1.158195,-0.20879184,0.06391586,0.017044231,-35.1,-40.62,-35.52
1554220380236,9.562441999999999,-1.1593921,1.3257892,-0.20453078,0.058589544,0.0053263223,-35.22,-40.74,-35.52
1554220380255,9.543288,-1.3317747,1.2779051000000001,-0.19600865,0.051132694000000006,0.002130529,-35.34,-40.74,-35.58
1554220380275,9.610325999999999,-1.2838906,1.2252326999999998,-0.17789917,0.05219796,-0.0063915867,-35.46,-40.8,-35.64
1554220380295,9.528922999999999,-1.2216414,1.3257892,-0.16192019,0.047936900000000005,-0.013848438000000001,-35.52,-40.68,-35.76
1554220380315,9.552864999999999,-1.3078326999999998,1.38325,-0.14594123,0.047936900000000005,-0.015978966,-35.58,-40.56,-35.88
1554220380336,9.610325999999999,-1.3365631000000002,1.5221136999999998,-0.12463594,0.05006743,-0.026631612000000002,-35.58,-40.38,-36.06
1554220380355,9.715671,-1.3796587,1.3880384,-0.09587380000000001,0.051132694000000006,-0.04261058,-35.58,-40.14,-36.18
1554220380375,9.744401,-1.4227544,1.4502877,-0.07456851,0.06498113,-0.049002163,-35.52,-39.96,-36.3
1554220380395,9.701305,-1.4514848,1.5077485000000002,-0.05965481,0.07137272,-0.049002163,-35.4,-39.84,-36.42
1554220380416,9.758766,-1.3940238999999999,1.6226702,-0.04474111,0.07989483,-0.049002163,-35.28,-39.72,-36.54
1554220380435,9.821015,-1.3796587,1.4838065,-0.022370555,0.08522116,-0.043675844000000005,-35.16,-39.54,-36.54
1554220380456,9.840169,-1.417966,1.4502877,-0.004261058,0.08841695,-0.046871635999999994,-35.04,-39.36,-36.6
1554220380475,9.825804,-1.3030443,1.5604209999999998,-0.0010652645,0.09374327,-0.046871635999999994,-34.98,-39.12,-36.6
1554220380496,9.753978,-1.3365631000000002,1.4790181,-0.002130529,0.10652645,-0.041545313,-34.86,-38.94,-36.66
1554220380516,9.782708,-1.3413515,1.5652093999999999,-0.0063915867,0.111852765,-0.039414786,-34.74,-38.82,-36.66
1554220380535,9.648633,-1.3605051000000001,1.6418238,-0.0063915867,0.10439592,-0.040480047000000005,-34.68,-38.58,-36.72
1554220380556,9.543288,-1.2838906,1.6178818000000001,0.007456851,0.098004326,-0.04261058,-34.68,-38.4,-36.72
1554220380576,9.5385,-1.2695253999999998,1.4024036,0.054328485999999995,0.07563378,-0.049002163,-34.68,-38.16,-36.72
1554220380596,9.471461999999999,-1.240795,1.5221136999999998,0.11611383,0.056459017,-0.05752428,-34.68,-37.98,-36.78
1554220380615,9.323022,-1.1976993999999999,1.5269021,0.18109496,0.034088463,-0.07137272,-34.68,-37.86,-36.78
1554220380635,9.380483,-1.1498153,1.4981716999999999,0.23861924,0.0031957934000000003,-0.08522116,-34.68,-37.8,-36.84
1554220380656,9.5385,-1.240795,1.4598645000000001,0.28336033,-0.022370555,-0.11504856,-34.68,-37.8,-36.96
1554220380676,9.390058999999999,-1.1402385,1.5125369,0.31318775,-0.03089267,-0.13528858,-34.62,-37.8,-37.08
1554220380695,9.404425,-1.1115081,1.3545196000000002,0.3206446,-0.047936900000000005,-0.15446335,-34.62,-37.8,-37.14
1554220380716,9.327810000000001,-0.99658644,1.3976152,0.29827404,-0.06604639400000001,-0.16618125,-34.62,-37.86,-37.2
1554220380736,9.399636,-0.9439139999999999,1.5173253,0.25672874,-0.080960095,-0.16405073,-34.56,-37.92,-37.26
1554220380756,9.56723,-1.039682,1.5604209999999998,0.21092236,-0.080960095,-0.15765914,-34.56,-38.04,-37.2
1554220380776,9.562441999999999,-1.0013748,1.5221136999999998,0.15978967,-0.07137272,-0.15233281,-34.56,-38.16,-37.2
1554220380795,9.509769,-1.0013748,1.6897078999999997,0.10439592,-0.05219796,-0.13209279,-34.56,-38.28,-37.02
1554220380815,9.504980999999999,-0.98700964,1.5125369,0.05219796,-0.03834952,-0.10972224,-34.5,-38.4,-36.9
1554220380837,9.533711,-1.0540473,1.6849195,0.010652645,-0.017044231,-0.08841695,-34.5,-38.58,-36.72
1554220380857,9.533711,-0.9295488000000001,1.5652093999999999,-0.03195793,0.002130529,-0.06391586,-34.5,-38.76,-36.6
1554220380877,9.595961,-0.9008184000000001,1.5795746000000002,-0.07350325,0.017044231,-0.039414786,-34.5,-38.88,-36.42
1554220380896,9.528922999999999,-0.98222125,1.5364790000000002,-0.112918034,0.037284255,-0.020240024,-34.5,-39.0,-36.36
1554220380916,9.514558000000001,-1.0253168,1.287482,-0.14061491,0.05219796,-0.004261058,-34.44,-39.06,-36.24
1554220380935,9.471461999999999,-1.1258733,1.3305776000000002,-0.16405073,0.05539375,-0.0010652645,-34.38,-39.06,-36.24
1554220380955,9.380483,-1.0013748,1.38325,-0.19387813,0.05752428,0.010652645,-34.26,-39.06,-36.24
1554220380975,9.442732000000001,-1.0779893,1.5221136999999998,-0.22370553,0.049002163,0.012783173500000002,-34.2,-39.06,-36.24
1554220380996,9.457097000000001,-0.98222125,1.5125369,-0.24607609,0.03834952,0.00958738,-34.14,-39.0,-36.3
1554220381016,9.481038999999999,-1.039682,1.6226702,-0.25885928,0.035153727999999995,0.0063915867,-34.02,-38.94,-36.36
1554220381036,9.466674000000001,-1.1067197,1.6178818000000001,-0.26205507,0.035153727999999995,-0.0031957934000000003,-34.02,-38.88,-36.42
1554220381056,9.452309,-1.1258733,1.6657659,-0.25140239999999997,0.034088463,-0.018109497,-34.08,-38.82,-36.6
1554220381075,9.428367,-1.1258733,1.6178818000000001,-0.23648871,0.029827405,-0.03089267,-34.14,-38.76,-36.72
1554220381097,9.442732000000001,-1.2695253999999998,1.6370354,-0.19281286,0.04474111,-0.046871635999999994,-34.26,-38.7,-36.9
1554220381125,9.375694000000001,-1.216853,1.6274586000000002,-0.1470065,0.054328485999999995,-0.058589544,-34.32,-38.7,-36.96
1554220381135,9.380483,-1.073201,1.6849195,-0.098004326,0.040480047000000005,-0.049002163,-34.44,-38.64,-37.08
1554220381155,9.390058999999999,-0.98700964,1.6035166,-0.12463594,0.026631612000000002,-0.037284255,-34.5,-38.64,-37.14
1554220381175,9.442732000000001,-1.0588357,1.5891514,-0.20453078,0.022370555,-0.026631612000000002,-34.62,-38.64,-37.2
1554220381196,9.41879,-1.2216414,1.6561891,-0.257794,0.0031957934000000003,-0.02876214,-34.62,-38.7,-37.2
1554220381215,9.337387,-1.3030443,1.6657659,-0.26631612,-0.0010652645,-0.02130529,-34.62,-38.7,-37.26
1554220381235,9.414000999999999,-1.2072762,1.5699978,-0.23968449999999997,-0.014913702,-0.015978966,-34.62,-38.88,-37.26
1554220381256,9.457097000000001,-1.073201,1.6609775000000002,-0.24394555,-0.014913702,-0.017044231,-34.68,-39.0,-37.38
1554220381275,9.552864999999999,-1.0540473,1.6561891,-0.29294774,-0.02130529,-0.012783173500000002,-34.68,-39.12,-37.5
1554220381295,9.68694,-1.1737574,1.6944963,-0.38456047,-0.015978966,-0.010652645,-34.68,-39.24,-37.68
1554220381316,9.739613,-1.2886791000000002,1.8142063999999998,-0.44528055,-0.0010652645,-0.014913702,-34.68,-39.24,-37.86
1554220381335,9.753978,-1.264737,2.0153193,-0.49002165,0.0063915867,-0.024501082,-34.74,-39.24,-38.04
1554220381355,9.864111,-1.2072762,1.9099745,-0.5219796,0.0010652645,-0.025566347000000003,-34.74,-39.12,-38.16
1554220381375,10.04607,-1.3748703000000002,2.0153193,-0.5219796,-0.0010652645,-0.02130529,-34.8,-39.0,-38.34
1554220381395,9.964667,-1.4802152,2.0296845,-0.47617322,0.0010652645,-0.037284255,-34.8,-38.7,-38.52
1554220381415,9.883265,-1.6861166,1.7232267,-0.39201729999999996,0.0,-0.05539375,-34.74,-38.52,-38.7
1554220381435,9.77792,-1.6861166,1.8477252,-0.28549087,0.002130529,-0.07243799,-34.8,-38.28,-38.82
1554220381456,9.624691,-1.6478093,1.8668787,-0.16724652,0.004261058,-0.09054748,-34.8,-38.04,-39.18
1554220381475,9.442732000000001,-1.6190788999999999,1.7854759999999998,-0.049002163,0.0053263223,-0.09267801,-34.8,-37.98,-39.48
1554220381495,9.495403999999999,-1.6047136999999998,1.8381484000000001,0.02130529,0.010652645,-0.09054748,-34.8,-37.98,-39.72
1554220381515,9.308656,-1.4706384,1.6035166,0.094808534,0.015978966,-0.08841695,-34.86,-38.04,-40.02
1554220381536,9.150639,-1.489792,1.6514006,0.14274544,0.012783173500000002,-0.07882957,-34.86,-38.16,-40.26
1554220381555,9.346964,-1.4227544,1.6801311,0.1768339,0.0,-0.068176925,-34.86,-38.34,-40.38
1554220381575,9.356541,-1.3988123,1.4646529,0.20985709,-0.0010652645,-0.07030745599999999,-34.92,-38.58,-40.44
1554220381596,9.303867,-1.3126211,1.4598645000000001,0.22050974,-0.007456851,-0.06498113,-34.92,-38.82,-40.44
1554220381615,9.409213000000001,-1.2886791000000002,1.4263457,0.19707392,-0.01917476,-0.060720075,-34.92,-39.12,-40.26
1554220381635,9.519346,-1.240795,1.4502877,0.14274544,-0.023435817999999997,-0.06604639400000001,-34.98,-39.36,-40.08
1554220381655,9.672575,-1.2264298,1.5699978,0.07669904,-0.023435817999999997,-0.07137272,-35.04,-39.6,-39.9
1554220381676,9.634267999999999,-1.3126211,1.5891514,0.017044231,-0.011717908999999999,-0.07243799,-35.16,-39.84,-39.72
1554220381695,9.739613,-1.2982559,1.5508442,-0.041545313,-0.0010652645,-0.07030745599999999,-35.28,-40.02,-39.6
1554220381715,9.552864999999999,-1.2743138,1.6753427,-0.096939065,0.00958738,-0.06711166,-35.46,-40.2,-39.54
1554220381735,9.528922999999999,-1.4227544,1.7040731,-0.15765914,0.020240024,-0.05965481,-35.64,-40.32,-39.54
1554220381756,9.514558000000001,-1.3844471,1.632247,-0.19068234,0.02130529,-0.054328485999999995,-35.76,-40.44,-39.48
1554220381775,9.485827,-1.5280992,1.6561891,-0.19813919,0.02130529,-0.046871635999999994,-35.82,-40.5,-39.48
1554220381795,9.399636,-1.5472529,1.7088615000000003,-0.17044231,0.01917476,-0.039414786,-35.94,-40.74,-39.48
1554220381815,9.414000999999999,-1.6238673000000001,1.5316905,-0.12463594,0.024501082,-0.033023197000000004,-36.06,-40.86,-39.42
1554220381836,9.375694000000001,-1.5089456,1.6274586000000002,-0.068176925,0.02876214,-0.027696876000000002,-36.0,-41.04,-39.48
1554220381855,9.399636,-1.513734,1.6657659,-0.007456851,0.025566347000000003,-0.026631612000000002,-36.0,-41.16,-39.48
1554220381875,9.337387,-1.4802152,1.5364790000000002,0.037284255,0.022370555,-0.02876214,-35.94,-41.28,-39.48
1554220381895,9.270349000000001,-1.3892354999999998,1.6944963,0.07882957,0.020240024,-0.023435817999999997,-35.94,-41.4,-39.48
1554220381916,9.457097000000001,-1.3652935,1.5508442,0.09587380000000001,0.00958738,-0.020240024,-35.94,-41.46,-39.48
1554220381935,9.576807,-1.2791021999999999,1.5795746000000002,0.09587380000000001,0.008522116,-0.017044231,-35.88,-41.52,-39.48
1554220381955,9.452309,-1.3365631000000002,1.5125369,0.09587380000000001,0.007456851,-0.022370555,-35.88,-41.52,-39.48
1554220381975,9.409213000000001,-1.3605051000000001,1.7088615000000003,0.10013486,0.012783173500000002,-0.01917476,-35.88,-41.52,-39.48
1554220381995,9.500193,-1.2695253999999998,1.5939398,0.10333065,0.014913702,-0.01917476,-35.82,-41.46,-39.54
1554220382015,9.485827,-1.1593921,1.5173253,0.07882957,0.014913702,-0.024501082,-35.82,-41.46,-39.54
1554220382036,9.572019000000001,-1.049259,1.5125369,0.01917476,0.012783173500000002,-0.024501082,-35.76,-41.4,-39.66
1554220382055,9.68694,-1.1546037,1.6705543,-0.082025364,0.0063915867,-0.025566347000000003,-35.7,-41.22,-39.72
1554220382076,9.730036,-1.2264298,1.6705543,-0.18535602,0.010652645,-0.03089267,-35.64,-41.04,-39.78
1554220382095,9.830592,-1.3078326999999998,1.8908207,-0.25246766,0.014913702,-0.049002163,-35.58,-40.86,-39.84
1554220382115,9.753978,-1.3892354999999998,1.584363,-0.25246766,0.002130529,-0.056459017,-35.52,-40.74,-39.84
1554220382135,9.696517,-1.5280992,1.7423803,-0.20985709,-0.01917476,-0.05006743,-35.52,-40.56,-39.9
1554220382155,9.629479,-1.6525976999999998,1.632247,-0.14807177,-0.023435817999999997,-0.06178534,-35.52,-40.38,-39.9
1554220382175,9.591172,-1.5759833,1.6705543,-0.12783173,-0.02130529,-0.06285059999999999,-35.46,-40.26,-39.9
1554220382195,9.346964,-1.5376761,1.6514006,-0.14274544,-0.025566347000000003,-0.037284255,-35.46,-40.14,-39.84
1554220382215,9.385271000000001,-1.6238673000000001,1.6801311,-0.16192019,-0.01917476,-0.020240024,-35.46,-40.02,-39.84
1554220382235,9.294291000000001,-1.6238673000000001,1.7328035,-0.1438107,-0.018109497,-0.002130529,-35.46,-39.9,-39.78
1554220382255,9.356541,-1.7100586,1.7854759999999998,-0.0063915867,-0.007456851,-0.007456851,-35.4,-39.54,-39.78
1554220382276,9.361329,-1.5568296999999998,1.9099745,0.1107875,-0.012783173500000002,-0.013848438000000001,-35.4,-39.0,-39.84
1554220382295,9.385271000000001,-1.6142905,1.7375918999999997,0.18429075,-0.0053263223,-0.02130529,-35.28,-38.52,-39.78
1554220382315,9.509769,-1.3030443,1.6609775000000002,0.26418558,-0.0053263223,-0.043675844000000005,-35.16,-38.04,-39.84
1554220382336,9.557653,-1.3413515,1.584363,0.2876214,-0.002130529,-0.05006743,-35.04,-37.56,-39.84
1554220382355,9.572019000000001,-1.3557166999999999,1.6035166,0.2727077,-0.0031957934000000003,-0.058589544,-34.8,-37.08,-39.9
1554220382376,9.725247,-1.2360066,1.5364790000000002,0.23648871,-0.0031957934000000003,-0.06711166,-34.68,-36.66,-39.9
1554220382396,9.725247,-1.2503718000000001,1.5508442,0.17896444,-0.004261058,-0.06711166,-34.5,-36.36,-39.96
1554220382415,9.739613,-1.264737,1.6226702,0.10546118,-0.007456851,-0.06285059999999999,-34.38,-36.24,-39.9
1554220382438,9.763555,-1.2838906,1.5747862,0.026631612000000002,-0.011717908999999999,-0.051132694000000006,-34.26,-36.24,-39.9
1554220382456,9.787497,-1.3652935,1.6801311,-0.051132694000000006,-0.017044231,-0.03834952,-34.2,-36.3,-39.9
1554220382475,9.753978,-1.3652935,1.5891514,-0.10333065,-0.011717908999999999,-0.027696876000000002,-34.08,-36.3,-39.84
1554220382495,9.701305,-1.4562732,1.7280151000000001,-0.10759171,-0.0053263223,-0.022370555,-34.08,-36.3,-39.78
1554220382517,9.461885,-1.5903485000000002,1.7711107,-0.07776430000000001,0.0,-0.015978966,-34.14,-36.36,-39.78
1554220382537,9.361329,-1.4802152,1.6657659,-0.00958738,0.0010652645,-0.008522116,-34.14,-36.36,-39.72
1554220382557,9.423578,-1.5280992,1.6418238,0.07350325,-0.002130529,-0.0031957934000000003,-34.14,-36.36,-39.72
1554220382577,9.327810000000001,-1.5185224,1.6849195,0.16405073,-0.0063915867,-0.007456851,-34.14,-36.36,-39.72
1554220382597,9.260772,-1.4562732,1.5077485000000002,0.26738137,-0.011717908999999999,-0.014913702,-34.14,-36.36,-39.66
1554220382616,9.303867,-1.5089456,1.5364790000000002,0.37923414,-0.014913702,-0.023435817999999997,-34.14,-36.36,-39.66
1554220382636,9.198523,-1.3940238999999999,1.2539631000000002,0.47936899999999993,-0.024501082,-0.022370555,-34.2,-36.36,-39.6
1554220382656,9.217675999999999,-1.1881226,1.2635399,0.58056915,-0.043675844000000005,-0.017044231,-34.2,-36.36,-39.6
1554220382676,9.232041,-1.1881226,1.3736732,0.6125271,-0.05752428,-0.013848438000000001,-34.2,-36.36,-39.6
1554220382695,9.289502,-1.049259,1.3162124,0.62104917,-0.07456851,-0.010652645,-34.2,-36.36,-39.54
1554220382716,9.394848,-1.0013748,1.1246762,0.5603291,-0.08628642,-0.0063915867,-34.26,-36.36,-39.48
1554220382736,9.380483,-0.88645315,1.287482,0.48682585,-0.08628642,-0.014913702,-34.26,-36.42,-39.42
1554220382756,9.485827,-0.88166475,1.2683283,0.3568636,-0.09587380000000001,-0.027696876000000002,-34.26,-36.48,-39.3
1554220382775,9.533711,-0.8912416,1.134253,0.20772657,-0.09267801,-0.02876214,-34.32,-36.66,-39.18
1554220382795,9.691728999999999,-0.83378077,1.311424,0.056459017,-0.099069595,-0.034088463,-34.32,-36.84,-39.06
1554220382816,9.77792,-0.87687635,1.4885948999999998,-0.11824436,-0.099069595,-0.04261058,-34.44,-37.2,-38.82
1554220382835,9.859323,-0.95827925,1.6274586000000002,-0.23009712,-0.08948222,-0.056459017,-34.5,-37.44,-38.64
1554220382855,9.945514,-1.1115081,1.6897078999999997,-0.314253,-0.08735169,-0.056459017,-34.56,-37.62,-38.46
1554220382875,9.825804,-1.1162965,1.5652093999999999,-0.39095205,-0.082025364,-0.05006743,-34.56,-37.8,-38.28
1554220382896,9.792285000000001,-1.2695253999999998,1.6370354,-0.46019423,-0.07563378,-0.049002163,-34.62,-37.98,-38.16
1554220382916,9.667786999999999,-1.4131776000000003,1.6226702,-0.51026165,-0.07456851,-0.041545313,-34.68,-38.1,-38.04
1554220382935,9.581595,-1.4514848,1.7232267,-0.52624065,-0.06178534,-0.027696876000000002,-34.68,-38.1,-37.98
1554220382955,9.390058999999999,-1.6286557,1.7854759999999998,-0.50173956,-0.05006743,-0.012783173500000002,-34.68,-38.1,-37.92
1554220382975,9.485827,-1.6142905,1.7663223000000001,-0.42290998,-0.047936900000000005,-0.004261058,-34.68,-38.04,-37.92
1554220382995,9.332599,-1.7914615000000003,1.5508442,-0.29294774,-0.039414786,-0.011717908999999999,-34.68,-38.04,-37.92
1554220383015,9.390058999999999,-1.6909049999999999,1.7615339,-0.11611383,-0.03089267,-0.026631612000000002,-34.68,-37.98,-37.98
1554220383036,9.385271000000001,-1.6669630000000002,1.6514006,0.07350325,-0.03195793,-0.036218993,-34.74,-37.98,-38.04
1554220383056,9.409213000000001,-1.6382325,1.4407108999999998,0.23435818,-0.040480047000000005,-0.043675844000000005,-34.74,-37.92,-38.16
1554220383075,9.457097000000001,-1.6095021,1.4502877,0.34088463,-0.046871635999999994,-0.05219796,-34.74,-37.8,-38.22
1554220383095,9.591172,-1.46585,1.4742297,0.4079963,-0.046871635999999994,-0.05539375,-34.68,-37.74,-38.28
1554220383116,9.653421,-1.3748703000000002,1.2779051000000001,0.4250405,-0.053263225,-0.049002163,-34.68,-37.68,-38.34
1554220383135,9.600749,-1.2695253999999998,1.3736732,0.39840892,-0.047936900000000005,-0.040480047000000005,-34.68,-37.62,-38.4
1554220383156,9.65821,-1.2120646000000002,1.335366,0.34514567,-0.046871635999999994,-0.03195793,-34.68,-37.56,-38.46
1554220383176,9.749189,-1.1546037,1.2012907,0.26738137,-0.051132694000000006,-0.024501082,-34.68,-37.5,-38.46
1554220383196,9.749189,-0.99179804,1.2587515,0.17363810000000002,-0.046871635999999994,-0.013848438000000001,-34.68,-37.44,-38.4
1554220383216,9.859323,-1.0109516,1.4502877,0.06178534,-0.039414786,-0.004261058,-34.68,-37.38,-38.34
1554220383235,9.816227,-1.049259,1.3784616000000003,-0.06711166,-0.02876214,0.002130529,-34.74,-37.44,-38.28
1554220383255,9.787497,-1.0636241000000002,1.4694413,-0.15765914,-0.024501082,-0.0010652645,-34.86,-37.5,-38.22
1554220383276,9.744401,-1.1067197,1.6035166,-0.28122982,-0.0031957934000000003,-0.0053263223,-34.98,-37.5,-38.1
1554220383295,9.648633,-1.3988123,1.407192,-0.34514567,0.00958738,-0.010652645,-35.1,-37.56,-38.04
1554220383316,9.600749,-1.489792,1.5173253,-0.37071204,0.015978966,-0.017044231,-35.22,-37.62,-37.92
1554220383336,9.476251,-1.4802152,1.4742297,-0.33981937,0.023435817999999997,-0.020240024,-35.28,-37.68,-37.86
1554220383356,9.414000999999999,-1.5759833,1.3449427999999999,-0.25672874,0.029827405,-0.026631612000000002,-35.34,-37.68,-37.74
1554220383376,9.423578,-1.6478093,1.2970588,-0.14061491,0.02876214,-0.034088463,-35.4,-37.68,-37.74
1554220383395,9.375694000000001,-1.5472529,1.3497312,-0.02130529,0.026631612000000002,-0.03834952,-35.4,-37.68,-37.68
1554220383415,9.481038999999999,-1.4706384,1.2539631000000002,0.06391586,0.01917476,-0.04474111,-35.4,-37.56,-37.68
1554220383436,9.519346,-1.3221979,1.3784616000000003,0.12570119999999999,0.011717908999999999,-0.05219796,-35.4,-37.44,-37.68
1554220383456,9.461885,-1.3940238999999999,1.2252326999999998,0.1587244,0.0,-0.06178534,-35.34,-37.38,-37.68
1554220383475,9.562441999999999,-1.2264298,1.0672153999999998,0.17257284,-0.0053263223,-0.06285059999999999,-35.34,-37.26,-37.8
1554220383496,9.509769,-1.1833341999999998,1.2108675,0.16831179,-0.022370555,-0.06391586,-35.28,-37.2,-37.92
1554220383516,9.557653,-1.1833341999999998,1.2779051000000001,0.16192019,-0.03089267,-0.07137272,-35.28,-37.14,-38.04
1554220383536,9.639056,-1.0588357,1.2731166999999999,0.13848437,-0.039414786,-0.07882957,-35.16,-37.08,-38.1
1554220383556,9.662998,-1.049259,1.38325,0.10439592,-0.040480047000000005,-0.08522116,-35.1,-37.08,-38.22
1554220383577,9.763555,-1.1210848999999998,1.4359225,0.02876214,-0.03834952,-0.08841695,-34.98,-37.08,-38.34
1554220383595,9.773131,-1.0253168,1.4742297,-0.040480047000000005,-0.034088463,-0.09054748,-34.86,-37.14,-38.28
1554220383616,9.892841,-1.0779893,1.4550761,-0.15233281,-0.022370555,-0.084155895,-34.8,-37.14,-38.16
1554220383635,9.825804,-1.2886791000000002,1.3640964,-0.27057716,-0.007456851,-0.06924219,-34.8,-37.14,-37.92
1554220383655,9.811439,-1.2312181999999998,1.6226702,-0.3536678,0.002130529,-0.05965481,-34.8,-37.2,-37.86
1554220383676,9.715671,-1.3652935,1.5604209999999998,-0.43995422,0.01917476,-0.047936900000000005,-34.74,-37.2,-37.68
1554220383696,9.672575,-1.5472529,1.4790181,-0.4857606,0.034088463,-0.035153727999999995,-34.86,-37.26,-37.56
1554220383715,9.572019000000001,-1.4993688,1.6561891,-0.47936899999999993,0.04580637,-0.035153727999999995,-34.86,-37.26,-37.56
1554220383735,9.543288,-1.7531542000000002,1.7040731,-0.4314321,0.054328485999999995,-0.036218993,-34.86,-37.26,-37.56
1554220383756,9.490616000000001,-1.6813281999999998,1.6035166,-0.314253,0.060720075,-0.043675844000000005,-34.92,-37.26,-37.68
1554220383776,9.500193,-1.8201918999999998,1.4790181,-0.20772657,0.06285059999999999,-0.035153727999999995,-34.98,-37.26,-37.92
1554220383796,9.471461999999999,-1.7770962,1.4885948999999998,-0.113983296,0.06498113,-0.03195793,-34.98,-37.2,-38.1
1554220383815,9.452309,-1.6956933999999997,1.3640964,-0.040480047000000005,0.060720075,-0.027696876000000002,-34.98,-37.2,-38.34
1554220383836,9.457097000000001,-1.6238673000000001,1.4550761,0.02130529,0.056459017,-0.023435817999999997,-34.98,-37.2,-38.4
1554220383855,9.500193,-1.5855601000000001,1.4694413,0.13528858,0.046871635999999994,-0.023435817999999997,-34.86,-37.14,-38.64
1554220383875,9.457097000000001,-1.4514848,1.3545196000000002,0.24181503,0.03834952,-0.025566347000000003,-34.68,-37.08,-38.82
1554220383895,9.504980999999999,-1.4036007,1.4838065,0.29933932,0.033023197000000004,-0.02876214,-34.56,-37.08,-38.94
1554220383915,9.595961,-1.2838906,1.335366,0.35260254,0.02130529,-0.033023197000000004,-34.44,-36.96,-39.0
1554220383936,9.519346,-1.240795,1.2779051000000001,0.36964676,0.012783173500000002,-0.036218993,-34.32,-36.9,-39.12
1554220383956,9.500193,-1.264737,1.3018471999999999,0.35792887,0.00958738,-0.035153727999999995,-34.32,-36.84,-39.12
1554220383976,9.457097000000001,-1.0779893,1.3449427999999999,0.26312032,0.0053263223,-0.040480047000000005,-34.26,-36.72,-39.24
1554220383995,9.548077000000001,-1.0588357,1.2491747,0.15765914,0.0,-0.037284255,-34.26,-36.66,-39.24
1554220384016,9.552864999999999,-1.1258733,1.2012907,0.03195793,-0.0031957934000000003,-0.041545313,-34.38,-36.6,-39.24
1554220384036,9.576807,-1.1498153,1.4024036,-0.084155895,0.007456851,-0.043675844000000005,-34.56,-36.6,-39.18
1554220384055,9.624691,-1.2264298,1.4215573000000001,-0.16192019,0.008522116,-0.04580637,-34.68,-36.6,-39.12
1554220384076,9.56723,-1.3509283,1.3736732,-0.2066613,0.00958738,-0.043675844000000005,-34.8,-36.66,-39.06
1554220384095,9.5385,-1.489792,1.4407108999999998,-0.22264028,0.008522116,-0.039414786,-34.86,-36.78,-39.0
1554220384116,9.548077000000001,-1.4802152,1.38325,-0.21518342,0.008522116,-0.033023197000000004,-34.92,-36.84,-38.94
1554220384135,9.548077000000001,-1.5664065,1.5747862,-0.19600865,0.0063915867,-0.023435817999999997,-34.86,-36.9,-38.88
1554220384155,9.562441999999999,-1.4610616,1.4359225,-0.16085494,0.004261058,-0.017044231,-34.86,-36.96,-38.88
1554220384176,9.557653,-1.3365631000000002,1.5556326,-0.11611383,0.010652645,-0.014913702,-34.86,-37.02,-38.82
1554220384195,9.519346,-1.4227544,1.5604209999999998,-0.05752428,0.020240024,-0.014913702,-34.8,-37.02,-38.82
1554220384215,9.591172,-1.4323312,1.5699978,0.0053263223,0.015978966,-0.018109497,-34.74,-36.96,-38.82
1554220384236,9.557653,-1.3844471,1.5316905,0.060720075,0.012783173500000002,-0.02876214,-34.68,-36.9,-38.82
1554220384256,9.639056,-1.2695253999999998,1.4024036,0.099069595,0.010652645,-0.036218993,-34.62,-36.84,-38.82
1554220384277,9.605537,-1.2982559,1.4981716999999999,0.12783173,0.004261058,-0.046871635999999994,-34.56,-36.84,-38.88
1554220384296,9.600749,-1.2503718000000001,1.335366,0.13954964,0.002130529,-0.053263225,-34.56,-36.78,-38.88
1554220384316,9.605537,-1.2886791000000002,1.2826935,0.12996227,-0.008522116,-0.058589544,-34.5,-36.72,-38.88
1554220384336,9.629479,-1.2886791000000002,1.3976152,0.096939065,-0.012783173500000002,-0.060720075,-34.44,-36.66,-38.88
1554220384356,9.682152,-1.1593921,1.3449427999999999,0.05219796,-0.015978966,-0.06178534,-34.44,-36.66,-38.82
1554220384375,9.581595,-1.216853,1.3640964,-0.0010652645,-0.01917476,-0.06391586,-34.44,-36.66,-38.82
1554220384395,9.543288,-1.240795,1.3784616000000003,-0.041545313,-0.017044231,-0.06604639400000001,-34.44,-36.66,-38.82
1554220384415,9.586383999999999,-1.1689690000000001,1.6226702,-0.07350325,-0.012783173500000002,-0.06498113,-34.44,-36.66,-38.76
1554220384436,9.533711,-1.2982559,1.6083049999999999,-0.09587380000000001,-0.011717908999999999,-0.06498113,-34.44,-36.66,-38.76
1554220384456,9.519346,-1.2551602,1.4885948999999998,-0.10652645,-0.008522116,-0.06498113,-34.44,-36.66,-38.7
1554220384476,9.56723,-1.3317747,1.38325,-0.10759171,-0.004261058,-0.06178534,-34.44,-36.72,-38.7
1554220384497,9.524135000000001,-1.3748703000000002,1.4359225,-0.096939065,-0.0063915867,-0.05965481,-34.44,-36.78,-38.76
1554220384516,9.543288,-1.4323312,1.38325,-0.07882957,0.0010652645,-0.05752428,-34.44,-36.84,-38.76
1554220384535,9.509769,-1.441908,1.4742297,-0.05006743,0.0010652645,-0.054328485999999995,-34.5,-36.96,-38.82
1554220384555,9.643844999999999,-1.4610616,1.407192,-0.040480047000000005,-0.0010652645,-0.051132694000000006,-34.5,-36.96,-38.82
1554220384577,9.619903,-1.3413515,1.3066356000000001,-0.039414786,0.004261058,-0.053263225,-34.5,-37.08,-38.88
1554220384595,9.461885,-1.3605051000000001,1.5125369,-0.037284255,0.0063915867,-0.05006743,-34.5,-37.02,-38.88
1554220384616,9.504980999999999,-1.513734,1.3688848,-0.036218993,0.0,-0.049002163,-34.5,-37.02,-38.88
1554220384635,9.466674000000001,-1.3269863000000002,1.4311341,-0.03089267,-0.0010652645,-0.054328485999999995,-34.5,-36.84,-38.88
1554220384655,9.466674000000001,-1.3269863000000002,1.2779051000000001,-0.03195793,-0.0010652645,-0.054328485999999995,-34.5,-36.84,-38.88
1554220384675,9.457097000000001,-1.3078326999999998,1.5077485000000002,-0.046871635999999994,-0.0063915867,-0.053263225,-34.5,-36.66,-38.88
1554220384695,9.476251,-1.3317747,1.3784616000000003,-0.058589544,-0.011717908999999999,-0.054328485999999995,-34.5,-36.6,-38.94
1554220384716,9.552864999999999,-1.3605051000000001,1.4119805,-0.07776430000000001,-0.017044231,-0.053263225,-34.5,-36.54,-38.94
1554220384735,9.639056,-1.3461398999999998,1.4646529,-0.09267801,-0.012783173500000002,-0.05219796,-34.5,-36.48,-38.94
1554220384756,9.552864999999999,-1.4706384,1.4646529,-0.10972224,-0.017044231,-0.047936900000000005,-34.5,-36.48,-38.94
1554220384776,9.648633,-1.3988123,1.5652093999999999,-0.12357068,-0.017044231,-0.05006743,-34.5,-36.48,-38.94
1554220384796,9.56723,-1.4323312,1.6801311,-0.12996227,-0.010652645,-0.051132694000000006,-34.5,-36.48,-38.94
1554220384816,9.600749,-1.4323312,1.6514006,-0.12144015,-0.0063915867,-0.05006743,-34.5,-36.48,-38.88
1554220384836,9.557653,-1.5807717,1.6609775000000002,-0.10013486,-0.002130529,-0.047936900000000005,-34.5,-36.48,-38.94
1554220384855,9.519346,-1.6095021,1.6897078999999997,-0.06178534,0.0053263223,-0.04261058,-34.5,-36.48,-39.0
1554220384876,9.495403999999999,-1.5807717,1.5699978,-0.020240024,0.007456851,-0.033023197000000004,-34.5,-36.48,-39.06
1554220384895,9.524135000000001,-1.5089456,1.6801311,0.013848438000000001,0.004261058,-0.024501082,-34.5,-36.48,-39.18
1554220384915,9.514558000000001,-1.4754268,1.4790181,0.03834952,0.004261058,-0.01917476,-34.44,-36.48,-39.36
1554220384936,9.605537,-1.4562732,1.3880384,0.05752428,0.002130529,-0.02130529,-34.44,-36.42,-39.48
1554220384956,9.56723,-1.4562732,1.4263457,0.06924219,0.0053263223,-0.024501082,-34.38,-36.3,-39.66
1554220384975,9.572019000000001,-1.3078326999999998,1.4119805,0.07669904,0.008522116,-0.02876214,-34.38,-36.24,-39.78
1554220384995,9.557653,-1.3126211,1.4646529,0.07243799,0.0031957934000000003,-0.036218993,-34.38,-36.18,-39.84
1554220385016,9.591172,-1.2886791000000002,1.4215573000000001,0.054328485999999995,0.0010652645,-0.039414786,-34.32,-36.12,-39.9
1554220385036,9.667786999999999,-1.3461398999999998,1.4694413,0.033023197000000004,0.0010652645,-0.04261058,-34.26,-36.12,-39.96
1554220385055,9.591172,-1.3892354999999998,1.5221136999999998,0.018109497,-0.0063915867,-0.04580637,-34.26,-36.06,-39.96
1554220385075,9.5385,-1.3126211,1.4598645000000001,0.00958738,0.0,-0.049002163,-34.26,-36.12,-39.9
1554220385096,9.548077000000001,-1.3413515,1.5029601000000001,0.0031957934000000003,-0.004261058,-0.051132694000000006,-34.26,-36.12,-39.9
1554220385116,9.543288,-1.3557166999999999,1.3736732,-0.007456851,0.0010652645,-0.053263225,-34.26,-36.18,-39.9
1554220385136,9.461885,-1.3030443,1.3784616000000003,-0.01917476,0.002130529,-0.053263225,-34.26,-36.24,-39.84
1554220385156,9.696517,-1.3030443,1.4024036,-0.034088463,-0.00958738,-0.05219796,-34.26,-36.3,-39.78
1554220385176,9.490616000000001,-1.4323312,1.3305776000000002,-0.049002163,-0.002130529,-0.056459017,-34.2,-36.36,-39.78
1554220385195,9.528922999999999,-1.489792,1.5029601000000001,-0.05006743,-0.0031957934000000003,-0.05539375,-34.2,-36.3,-39.72
1554220385215,9.519346,-1.4610616,1.4167688999999999,-0.043675844000000005,-0.0031957934000000003,-0.05006743,-34.2,-36.3,-39.72
1554220385236,9.452309,-1.6525976999999998,1.5364790000000002,-0.024501082,-0.0031957934000000003,-0.05006743,-34.2,-36.3,-39.66
1554220385255,9.524135000000001,-1.5089456,1.5316905,-0.0053263223,-0.0053263223,-0.049002163,-34.26,-36.3,-39.66
1554220385275,9.56723,-1.3652935,1.5364790000000002,0.010652645,0.0,-0.040480047000000005,-34.26,-36.3,-39.6
1554220385296,9.524135000000001,-1.3844471,1.5412674,0.037284255,-0.002130529,-0.03195793,-34.26,-36.3,-39.6
1554220385316,9.600749,-1.4036007,1.4694413,0.047936900000000005,0.0,-0.029827405,-34.26,-36.3,-39.6
1554220385335,9.572019000000001,-1.4610616,1.4981716999999999,0.07137272,0.007456851,-0.024501082,-34.32,-36.3,-39.6
1554220385356,9.624691,-1.4131776000000003,1.6226702,0.08628642,0.002130529,-0.020240024,-34.32,-36.3,-39.6
1554220385375,9.615114,-1.3940238999999999,1.3784616000000003,0.10972224,0.0031957934000000003,-0.02130529,-34.32,-36.36,-39.6
1554220385395,9.624691,-1.3748703000000002,1.5556326,0.13528858,0.002130529,-0.027696876000000002,-34.32,-36.36,-39.6
1554220385416,9.581595,-1.3892354999999998,1.3736732,0.165116,-0.0010652645,-0.03195793,-34.32,-36.42,-39.6
1554220385436,9.519346,-1.1785458,1.4646529,0.17789917,-0.0010652645,-0.036218993,-34.32,-36.42,-39.6
1554220385455,9.576807,-1.2216414,1.4359225,0.18535602,-0.00958738,-0.04261058,-34.32,-36.42,-39.6
1554220385476,9.509769,-1.2934675,1.4311341,0.18429075,-0.011717908999999999,-0.04261058,-34.32,-36.42,-39.6
1554220385496,9.595961,-1.240795,1.4598645000000001,0.18109496,-0.012783173500000002,-0.047936900000000005,-34.32,-36.42,-39.6
1554220385516,9.552864999999999,-1.1785458,1.4359225,0.17576863,-0.012783173500000002,-0.046871635999999994,-34.32,-36.36,-39.6
1554220385536,9.557653,-1.192911,1.4550761,0.16724652,-0.013848438000000001,-0.046871635999999994,-34.32,-36.36,-39.6
1554220385556,9.605537,-1.192911,1.6083049999999999,0.15552860000000002,-0.011717908999999999,-0.047936900000000005,-34.32,-36.48,-39.54
1554220385576,9.595961,-1.1785458,1.2683283,0.14061491,-0.007456851,-0.046871635999999994,-34.32,-36.6,-39.54
1554220385596,9.591172,-1.1641805,1.4550761,0.128897,-0.004261058,-0.047936900000000005,-34.32,-36.66,-39.48
1554220385615,9.557653,-1.1306617,1.4263457,0.113983296,-0.0063915867,-0.046871635999999994,-34.32,-36.78,-39.36
1554220385635,9.543288,-1.1546037,1.3880384,0.08841695,-0.0053263223,-0.04580637,-34.32,-36.9,-39.18
1554220385656,9.552864999999999,-1.1210848999999998,1.4311341,0.060720075,-0.0031957934000000003,-0.046871635999999994,-34.32,-37.02,-39.06
1554220385675,9.495403999999999,-1.1115081,1.2731166999999999,0.01917476,-0.0010652645,-0.043675844000000005,-34.32,-37.14,-38.88
1554220385695,9.471461999999999,-1.1019313,1.3880384,-0.010652645,0.0031957934000000003,-0.043675844000000005,-34.32,-37.2,-38.7
1554220385715,9.591172,-1.1354501000000001,1.4502877,-0.034088463,0.0031957934000000003,-0.04261058,-34.32,-37.2,-38.58
1554220385735,9.643844999999999,-1.2312181999999998,1.4215573000000001,-0.041545313,-0.0010652645,-0.04261058,-34.38,-37.26,-38.46
1554220385755,9.514558000000001,-1.1689690000000001,1.5221136999999998,-0.043675844000000005,0.0010652645,-0.04474111,-34.38,-37.2,-38.34
1554220385776,9.528922999999999,-1.2264298,1.4407108999999998,-0.039414786,-0.0010652645,-0.04580637,-34.38,-37.2,-38.28
1554220385795,9.68694,-1.2264298,1.5269021,-0.039414786,-0.007456851,-0.04580637,-34.38,-37.2,-38.22
1554220385816,9.572019000000001,-1.2934675,1.4646529,-0.036218993,-0.0053263223,-0.05006743,-34.38,-37.2,-38.22
1554220385836,9.557653,-1.240795,1.5316905,-0.02876214,-0.0010652645,-0.053263225,-34.38,-37.2,-38.22
1554220385856,9.586383999999999,-1.3030443,1.4981716999999999,-0.01917476,-0.0053263223,-0.049002163,-34.38,-37.26,-38.22
1554220385876,9.548077000000001,-1.1785458,1.5364790000000002,-0.0063915867,-0.0010652645,-0.05219796,-34.38,-37.26,-38.28
1554220385897,9.461885,-1.2838906,1.6274586000000002,-0.0063915867,0.002130529,-0.053263225,-34.38,-37.26,-38.34
1554220385916,9.562441999999999,-1.1881226,1.5364790000000002,-0.015978966,0.0,-0.047936900000000005,-34.32,-37.26,-38.4
1554220385936,9.509769,-1.1976993999999999,1.5699978,-0.036218993,0.0,-0.040480047000000005,-34.32,-37.26,-38.46
1554220385957,9.576807,-1.2216414,1.6035166,-0.05219796,0.0063915867,-0.033023197000000004,-34.32,-37.32,-38.58
1554220385976,9.548077000000001,-1.2838906,1.5221136999999998,-0.06391586,0.0063915867,-0.026631612000000002,-34.26,-37.32,-38.7
1554220385996,9.461885,-1.2743138,1.4502877,-0.06391586,0.012783173500000002,-0.022370555,-34.26,-37.32,-38.76
1554220386016,9.533711,-1.3078326999999998,1.5173253,-0.05752428,0.00958738,-0.018109497,-34.26,-37.38,-38.82
1554220386036,9.610325999999999,-1.3317747,1.5412674,-0.04474111,0.011717908999999999,-0.02130529,-34.26,-37.44,-38.88
1554220386056,9.504980999999999,-1.2360066,1.6944963,-0.033023197000000004,0.004261058,-0.026631612000000002,-34.26,-37.5,-38.88
1554220386075,9.610325999999999,-1.3365631000000002,1.4981716999999999,-0.018109497,0.0031957934000000003,-0.03089267,-34.32,-37.56,-38.94
1554220386095,9.557653,-1.2072762,1.5652093999999999,-0.00958738,0.0031957934000000003,-0.035153727999999995,-34.38,-37.62,-38.94
1554220386116,9.495403999999999,-1.1737574,1.4407108999999998,-0.011717908999999999,0.0010652645,-0.037284255,-34.44,-37.74,-38.88
1554220386135,9.624691,-1.2120646000000002,1.5125369,-0.02130529,-0.0010652645,-0.034088463,-34.44,-37.68,-38.88
1554220386155,9.615114,-1.2551602,1.6370354,-0.02876214,-0.0010652645,-0.034088463,-34.5,-37.62,-38.88
1554220386176,9.562441999999999,-1.2982559,1.5795746000000002,-0.039414786,-0.0063915867,-0.033023197000000004,-34.5,-37.56,-38.88
1554220386197,9.629479,-1.3365631000000002,1.6226702,-0.04474111,-0.002130529,-0.033023197000000004,-34.5,-37.44,-38.88
1554220386215,9.639056,-1.2934675,1.6035166,-0.051132694000000006,-0.0010652645,-0.03195793,-34.56,-37.26,-38.88
1554220386235,9.548077000000001,-1.3030443,1.5652093999999999,-0.053263225,0.0,-0.03195793,-34.5,-37.08,-38.88
1554220386256,9.466674000000001,-1.3940238999999999,1.5604209999999998,-0.05006743,-0.0010652645,-0.029827405,-34.5,-37.02,-38.88
1554220386275,9.495403999999999,-1.2886791000000002,1.5795746000000002,-0.034088463,0.0010652645,-0.027696876000000002,-34.44,-36.9,-38.82
1554220386295,9.504980999999999,-1.3557166999999999,1.5604209999999998,-0.020240024,0.002130529,-0.027696876000000002,-34.44,-36.9,-38.82
1554220386315,9.514558000000001,-1.3365631000000002,1.6418238,-0.0063915867,0.0,-0.027696876000000002,-34.44,-36.96,-38.82
1554220386336,9.471461999999999,-1.3030443,1.5699978,0.0,-0.0031957934000000003,-0.026631612000000002,-34.38,-37.08,-38.88
1554220386355,9.485827,-1.3652935,1.4407108999999998,0.0063915867,-0.0010652645,-0.026631612000000002,-34.38,-37.26,-38.88
1554220386375,9.56723,-1.2360066,1.6035166,0.0063915867,-0.002130529,-0.02876214,-34.44,-37.44,-38.94
1554220386396,9.557653,-1.2743138,1.5939398,0.0,0.0010652645,-0.029827405,-34.44,-37.62,-39.0
1554220386417,9.500193,-1.1976993999999999,1.6035166,-0.00958738,0.002130529,-0.03089267,-34.5,-37.8,-39.12
1554220386436,9.572019000000001,-1.2455834,1.5604209999999998,-0.012783173500000002,0.002130529,-0.03089267,-34.5,-37.86,-39.12
1554220386455,9.706094,-1.3605051000000001,1.4981716999999999,-0.024501082,-0.0031957934000000003,-0.03089267,-34.56,-38.04,-39.12
1554220386476,9.615114,-1.3221979,1.5316905,-0.03195793,-0.0031957934000000003,-0.040480047000000005,-34.62,-38.1,-39.12
1554220386495,9.552864999999999,-1.3605051000000001,1.6130934,-0.033023197000000004,-0.0031957934000000003,-0.041545313,-34.62,-38.04,-39.12
1554220386516,9.533711,-1.4083891000000002,1.5269021,-0.03195793,-0.0031957934000000003,-0.04261058,-34.62,-37.92,-39.06
1554220386535,9.452309,-1.3844471,1.6801311,-0.035153727999999995,-0.0063915867,-0.04580637,-34.62,-37.8,-39.06
1554220386555,9.485827,-1.3796587,1.5556326,-0.040480047000000005,-0.007456851,-0.046871635999999994,-34.56,-37.68,-39.0
1554220386576,9.548077000000001,-1.3605051000000001,1.6035166,-0.05752428,-0.007456851,-0.040480047000000005,-34.5,-37.56,-38.94
1554220386596,9.504980999999999,-1.3461398999999998,1.6561891,-0.068176925,-0.010652645,-0.037284255,-34.5,-37.44,-38.94
1554220386615,9.528922999999999,-1.3509283,1.4838065,-0.07350325,-0.011717908999999999,-0.03195793,-34.5,-37.38,-39.0
1554220386635,9.509769,-1.3940238999999999,1.5364790000000002,-0.07137272,-0.008522116,-0.024501082,-34.44,-37.32,-38.94
1554220386656,9.514558000000001,-1.4083891000000002,1.4215573000000001,-0.06285059999999999,-0.007456851,-0.017044231,-34.44,-37.26,-38.82
1554220386675,9.5385,-1.4227544,1.4790181,-0.051132694000000006,-0.00958738,-0.018109497,-34.44,-37.14,-38.76
1554220386695,9.490616000000001,-1.441908,1.4359225,-0.034088463,-0.008522116,-0.020240024,-34.44,-37.02,-38.7
1554220386716,9.591172,-1.3126211,1.5891514,-0.024501082,-0.008522116,-0.024501082,-34.44,-36.96,-38.64
1554220386735,9.471461999999999,-1.4227544,1.5795746000000002,-0.020240024,-0.007456851,-0.029827405,-34.38,-36.84,-38.64
1554220386756,9.624691,-1.4036007,1.4790181,-0.022370555,-0.013848438000000001,-0.03195793,-34.38,-36.72,-38.7
1554220386776,9.524135000000001,-1.3796587,1.5604209999999998,-0.034088463,-0.011717908999999999,-0.034088463,-34.32,-36.66,-38.7
1554220386795,9.615114,-1.264737,1.5221136999999998,-0.05006743,-0.007456851,-0.037284255,-34.32,-36.54,-38.76
1554220386815,9.476251,-1.3844471,1.5508442,-0.07030745599999999,-0.011717908999999999,-0.040480047000000005,-34.32,-36.42,-38.94
1554220386836,9.490616000000001,-1.3078326999999998,1.5412674,-0.084155895,-0.0063915867,-0.043675844000000005,-34.32,-36.36,-39.06
1554220386857,9.524135000000001,-1.4802152,1.5364790000000002,-0.099069595,-0.010652645,-0.04474111,-34.32,-36.3,-39.18
1554220386876,9.500193,-1.441908,1.5699978,-0.111852765,-0.013848438000000001,-0.04474111,-34.32,-36.18,-39.24
1554220386895,9.619903,-1.4610616,1.4407108999999998,-0.12144015,-0.014913702,-0.047936900000000005,-34.38,-36.12,-39.3
1554220386915,9.519346,-1.5328877,1.4550761,-0.12570119999999999,-0.014913702,-0.047936900000000005,-34.38,-36.06,-39.36
1554220386936,9.461885,-1.5041572,1.6609775000000002,-0.12783173,-0.010652645,-0.047936900000000005,-34.38,-36.06,-39.42
1554220386955,9.452309,-1.6047136999999998,1.5412674,-0.12996227,-0.011717908999999999,-0.047936900000000005,-34.38,-36.06,-39.48
1554220386975,9.514558000000001,-1.5520413,1.5795746000000002,-0.12996227,-0.01917476,-0.04580637,-34.44,-36.06,-39.6
1554220386996,9.543288,-1.5328877,1.5508442,-0.11930962,-0.012783173500000002,-0.04580637,-34.44,-36.12,-39.66
1554220387016,9.433155000000001,-1.6717514,1.4790181,-0.09587380000000001,-0.011717908999999999,-0.040480047000000005,-34.44,-36.12,-39.78
1554220387036,9.452309,-1.6478093,1.5125369,-0.07350325,-0.011717908999999999,-0.035153727999999995,-34.5,-36.12,-39.84
1554220387056,9.481038999999999,-1.6238673000000001,1.5316905,-0.04261058,-0.011717908999999999,-0.027696876000000002,-34.5,-36.12,-39.9
1554220387076,9.524135000000001,-1.5664065,1.4742297,0.0063915867,-0.00958738,-0.027696876000000002,-34.5,-36.12,-39.9
1554220387095,9.433155000000001,-1.6190788999999999,1.6561891,0.033023197000000004,-0.0053263223,-0.026631612000000002,-34.56,-36.06,-39.9
1554220387115,9.562441999999999,-1.4706384,1.632247,0.05006743,-0.004261058,-0.023435817999999997,-34.56,-36.0,-39.84
1554220387136,9.56723,-1.4227544,1.4598645000000001,0.051132694000000006,-0.0063915867,-0.022370555,-34.56,-36.0,-39.78
1554220387156,9.485827,-1.4036007,1.5795746000000002,0.04580637,0.0010652645,-0.02876214,-34.56,-35.94,-39.72
1554220387176,9.581595,-1.5233108,1.5508442,0.047936900000000005,0.002130529,-0.036218993,-34.56,-35.88,-39.72
1554220387196,9.591172,-1.46585,1.4838065,0.04580637,0.0010652645,-0.040480047000000005,-34.56,-35.88,-39.66
1554220387218,9.552864999999999,-1.4562732,1.6035166,0.03834952,0.002130529,-0.046871635999999994,-34.56,-35.88,-39.66
1554220387236,9.5385,-1.3317747,1.5125369,0.03089267,-0.0031957934000000003,-0.049002163,-34.62,-35.88,-39.66
1554220387256,9.576807,-1.3988123,1.6753427,0.014913702,-0.0053263223,-0.05006743,-34.62,-35.88,-39.66
1554220387275,9.481038999999999,-1.3892354999999998,1.5795746000000002,-0.0010652645,-0.004261058,-0.04474111,-34.62,-35.94,-39.66
1554220387295,9.600749,-1.4802152,1.4838065,-0.013848438000000001,-0.008522116,-0.04261058,-34.56,-35.94,-39.66
1554220387316,9.500193,-1.5328877,1.5699978,-0.007456851,-0.002130529,-0.040480047000000005,-34.56,-35.94,-39.72
1554220387335,9.56723,-1.4754268,1.5652093999999999,0.014913702,-0.0010652645,-0.037284255,-34.5,-35.94,-39.72
1554220387355,9.572019000000001,-1.5472529,1.6514006,0.047936900000000005,-0.002130529,-0.040480047000000005,-34.5,-35.94,-39.72
1554220387377,9.552864999999999,-1.5328877,1.5747862,0.09054748,-0.002130529,-0.046871635999999994,-34.44,-36.0,-39.66
1554220387396,9.543288,-1.5233108,1.4215573000000001,0.14168017,-0.004261058,-0.05219796,-34.44,-36.06,-39.72
1554220387415,9.552864999999999,-1.4562732,1.5556326,0.16085494,-0.0063915867,-0.05006743,-34.38,-36.18,-39.72
1554220387435,9.500193,-1.4036007,1.6130934,0.18429075,-0.0063915867,-0.05219796,-34.32,-36.24,-39.72
1554220387455,9.548077000000001,-1.3317747,1.4550761,0.18961707,-0.008522116,-0.049002163,-34.32,-36.3,-39.66
1554220387476,9.461885,-1.4131776000000003,1.407192,0.19068234,-0.00958738,-0.046871635999999994,-34.32,-36.36,-39.66
1554220387496,9.552864999999999,-1.3269863000000002,1.5316905,0.19068234,-0.008522116,-0.047936900000000005,-34.32,-36.42,-39.6
1554220387515,9.639056,-1.2838906,1.5269021,0.1768339,-0.007456851,-0.046871635999999994,-34.32,-36.48,-39.48
1554220387536,9.634267999999999,-1.2551602,1.5556326,0.14807177,-0.008522116,-0.04261058,-34.32,-36.54,-39.36
1554220387556,9.548077000000001,-1.2934675,1.4119805,0.11504856,-0.008522116,-0.04580637,-34.32,-36.54,-39.3
1554220387576,9.495403999999999,-1.2982559,1.5029601000000001,0.08735169,-0.004261058,-0.046871635999999994,-34.32,-36.54,-39.18
1554220387596,9.552864999999999,-1.264737,1.6657659,0.06498113,-0.0053263223,-0.047936900000000005,-34.38,-36.6,-39.06
1554220387615,9.509769,-1.2743138,1.4407108999999998,0.041545313,-0.004261058,-0.046871635999999994,-34.38,-36.6,-38.94
1554220387636,9.519346,-1.3509283,1.5556326,0.02130529,-0.007456851,-0.04474111,-34.44,-36.66,-38.88
1554220387656,9.524135000000001,-1.3605051000000001,1.3449427999999999,0.014913702,-0.007456851,-0.047936900000000005,-34.44,-36.66,-38.82
1554220387676,9.504980999999999,-1.2695253999999998,1.5029601000000001,0.017044231,-0.00958738,-0.051132694000000006,-34.44,-36.66,-38.82
1554220387696,9.514558000000001,-1.3748703000000002,1.4885948999999998,0.023435817999999997,-0.00958738,-0.053263225,-34.44,-36.66,-38.82
1554220387716,9.490616000000001,-1.3844471,1.4263457,0.03195793,-0.014913702,-0.054328485999999995,-34.44,-36.66,-38.82
1554220387735,9.437942999999999,-1.3221979,1.4550761,0.04261058,-0.013848438000000001,-0.05006743,-34.44,-36.72,-38.82
1554220387756,9.56723,-1.3652935,1.4407108999999998,0.049002163,-0.011717908999999999,-0.05006743,-34.44,-36.66,-38.82
1554220387776,9.528922999999999,-1.3126211,1.4981716999999999,0.053263225,-0.017044231,-0.04580637,-34.44,-36.66,-38.88
1554220387796,9.610325999999999,-1.2455834,1.4311341,0.058589544,-0.022370555,-0.043675844000000005,-34.44,-36.66,-38.82
1554220387815,9.619903,-1.3269863000000002,1.4311341,0.054328485999999995,-0.027696876000000002,-0.043675844000000005,-34.44,-36.66,-38.82
1554220387835,9.643844999999999,-1.2886791000000002,1.3976152,0.04580637,-0.015978966,-0.053263225,-34.44,-36.66,-38.82
1554220387855,9.500193,-1.1976993999999999,1.4838065,0.033023197000000004,-0.01917476,-0.058589544,-34.44,-36.66,-38.82
1554220387876,9.552864999999999,-1.2886791000000002,1.5508442,0.017044231,-0.013848438000000001,-0.06178534,-34.38,-36.66,-38.82
1554220387895,9.519346,-1.2360066,1.5077485000000002,0.010652645,-0.013848438000000001,-0.06285059999999999,-34.38,-36.66,-38.82
1554220387915,9.500193,-1.2264298,1.4838065,0.004261058,-0.01917476,-0.060720075,-34.44,-36.72,-38.76
1554220387936,9.552864999999999,-1.3317747,1.4694413,-0.0053263223,-0.022370555,-0.051132694000000006,-34.44,-36.78,-38.76
1554220387955,9.519346,-1.4131776000000003,1.4119805,-0.014913702,-0.018109497,-0.040480047000000005,-34.44,-36.78,-38.76
1554220387976,9.581595,-1.264737,1.359308,-0.03089267,-0.02130529,-0.033023197000000004,-34.56,-36.84,-38.7
1554220387995,9.481038999999999,-1.4083891000000002,1.5699978,-0.035153727999999995,-0.014913702,-0.026631612000000002,-34.56,-36.9,-38.7
1554220388016,9.548077000000001,-1.3078326999999998,1.5125369,-0.033023197000000004,-0.01917476,-0.02130529,-34.62,-36.9,-38.7
1554220388036,9.524135000000001,-1.264737,1.5173253,-0.027696876000000002,-0.013848438000000001,-0.022370555,-34.68,-36.96,-38.7
1554220388057,9.548077000000001,-1.2886791000000002,1.5939398,-0.027696876000000002,-0.011717908999999999,-0.022370555,-34.74,-36.96,-38.7
1554220388075,9.514558000000001,-1.240795,1.4263457,-0.02876214,-0.012783173500000002,-0.020240024,-34.8,-37.02,-38.7
1554220388096,9.481038999999999,-1.3126211,1.359308,-0.037284255,-0.011717908999999999,-0.01917476,-34.8,-37.08,-38.7
1554220388116,9.504980999999999,-1.3365631000000002,1.4598645000000001,-0.04580637,-0.008522116,-0.018109497,-34.8,-37.08,-38.7
1554220388136,9.572019000000001,-1.3940238999999999,1.4550761,-0.05006743,-0.0053263223,-0.014913702,-34.8,-37.08,-38.64
1554220388156,9.490616000000001,-1.3605051000000001,1.5604209999999998,-0.060720075,-0.0031957934000000003,-0.011717908999999999,-34.8,-37.02,-38.64
1554220388176,9.586383999999999,-1.3365631000000002,1.4646529,-0.07243799,-0.0010652645,-0.011717908999999999,-34.8,-36.96,-38.58
1554220388196,9.576807,-1.4036007,1.6514006,-0.083090626,0.0010652645,-0.010652645,-34.8,-36.9,-38.52
1554220388216,9.514558000000001,-1.3748703000000002,1.5173253,-0.09374327,-0.0053263223,-0.007456851,-34.8,-36.84,-38.46
1554220388235,9.466674000000001,-1.4227544,1.4167688999999999,-0.09054748,0.0010652645,-0.00958738,-34.8,-36.72,-38.46
1554220388255,9.600749,-1.5185224,1.5316905,-0.07882957,-0.0010652645,-0.007456851,-34.8,-36.66,-38.4
1554220388276,9.576807,-1.441908,1.4646529,-0.053263225,-0.0031957934000000003,-0.011717908999999999,-34.8,-36.6,-38.46
1554220388295,9.519346,-1.3940238999999999,1.5747862,-0.03089267,-0.0031957934000000003,-0.013848438000000001,-34.8,-36.66,-38.52
1554220388315,9.524135000000001,-1.4610616,1.4024036,-0.008522116,-0.0063915867,-0.018109497,-34.8,-36.78,-38.64
1554220388336,9.629479,-1.4466964,1.5125369,0.0063915867,-0.012783173500000002,-0.02130529,-34.8,-36.9,-38.76
1554220388356,9.500193,-1.3988123,1.4359225,0.017044231,-0.010652645,-0.027696876000000002,-34.8,-37.02,-38.94
1554220388376,9.552864999999999,-1.3221979,1.3736732,0.01917476,-0.0063915867,-0.03089267,-34.8,-37.08,-39.06
1554220388396,9.533711,-1.3030443,1.4550761,0.010652645,-0.008522116,-0.03195793,-34.8,-37.08,-39.24
1554220388415,9.557653,-1.3509283,1.4215573000000001,-0.0031957934000000003,-0.008522116,-0.037284255,-34.74,-37.02,-39.36
1554220388435,9.524135000000001,-1.4371196000000002,1.4407108999999998,-0.010652645,-0.0053263223,-0.036218993,-34.68,-37.02,-39.48
1554220388456,9.65821,-1.2791021999999999,1.407192,-0.020240024,-0.00958738,-0.036218993,-34.62,-36.9,-39.54
1554220388475,9.610325999999999,-1.4945803999999998,1.4167688999999999,-0.027696876000000002,-0.0053263223,-0.040480047000000005,-34.56,-36.72,-39.54
1554220388495,9.543288,-1.3317747,1.4407108999999998,-0.026631612000000002,-0.004261058,-0.040480047000000005,-34.5,-36.6,-39.54
