TimeStamp,Ax,Ay,Az,Gx,Gy,Gz,Mx,My,Mz
1554220671280,-0.61770403,-2.830545,9.116522,-0.07669904,0.025566347000000003,-0.03834952,-28.2,13.68,-43.02
1554220671301,-0.6368576,-2.8927941,9.245809,-0.02876214,0.020240024,-0.03834952,-28.26,13.68,-43.08
1554220671321,-0.62249243,-2.7874494,9.015965,0.03195793,0.00958738,-0.037284255,-28.32,13.74,-43.2
1554220671341,-0.45968673,-2.6342204,9.183558999999999,0.056459017,0.010652645,-0.033023197000000004,-28.32,13.74,-43.32
1554220671360,-0.5315128,-2.5288756,9.130887,0.033023197000000004,0.020240024,-0.034088463,-28.38,13.74,-43.44
1554220671381,-0.3878607,-2.533664,8.862736,-0.020240024,0.036218993,-0.043675844000000005,-28.38,13.8,-43.5
1554220671401,-0.30166942,-2.6581624,8.992023,-0.07350325,0.049002163,-0.047936900000000005,-28.38,13.8,-43.5
1554220671421,-0.50757074,-2.7204118,8.934562,-0.11930962,0.060720075,-0.05006743,-28.38,13.8,-43.44
1554220671441,-0.521936,-2.8832173,9.039907000000001,-0.15233281,0.06604639400000001,-0.047936900000000005,-28.32,13.8,-43.38
1554220671461,-0.5650316,-2.9981391,9.106945,-0.15126756,0.05752428,-0.05539375,-28.32,13.8,-43.32
1554220671481,-0.60812724,-3.007716,9.169194000000001,-0.14168017,0.051132694000000006,-0.056459017,-28.32,13.8,-43.26
1554220671502,-0.7230489,-3.141791,9.083003,-0.113983296,0.036218993,-0.049002163,-28.26,13.8,-43.26
1554220671521,-0.7278373,-3.1322143,9.015965,-0.07456851,0.024501082,-0.047936900000000005,-28.26,13.8,-43.26
1554220671540,-0.7517793,-3.0603882999999996,9.106945,-0.024501082,0.012783173500000002,-0.047936900000000005,-28.26,13.8,-43.26
1554220671560,-0.7661445,-2.9550436,9.111733000000001,0.011717908999999999,0.004261058,-0.041545313,-28.26,13.86,-43.38
1554220671581,-0.6895300999999999,-2.8113914,9.025542,0.017044231,0.002130529,-0.03834952,-28.26,13.86,-43.5
1554220671600,-0.7565677,-2.8209682000000003,9.097368,-0.01917476,0.0053263223,-0.040480047000000005,-28.26,13.86,-43.56
1554220671621,-0.60812724,-2.7347770000000002,8.958505,-0.07776430000000001,0.020240024,-0.043675844000000005,-28.2,13.86,-43.68
1554220671641,-0.62249243,-2.7682957999999998,8.838794,-0.12357068,0.05006743,-0.05006743,-28.14,13.86,-43.68
1554220671662,-0.60333884,-2.902371,8.881889,-0.15020229,0.07456851,-0.056459017,-28.14,13.8,-43.62
1554220671680,-0.61291564,-3.0029275,8.934562,-0.17789917,0.098004326,-0.06178534,-28.08,13.8,-43.62
1554220671700,-0.7565677,-3.0364463,8.747814,-0.21731395,0.10759171,-0.06391586,-27.96,13.74,-43.56
1554220671720,-0.59855044,-3.2423477000000003,8.834005,-0.257794,0.10652645,-0.06604639400000001,-27.9,13.68,-43.5
1554220671741,-0.6464345,-3.4290953,8.81964,-0.29188246,0.10333065,-0.07137272,-27.84,13.68,-43.44
1554220671761,-0.6751649000000001,-3.4721910000000005,8.857947,-0.29827404,0.09374327,-0.07137272,-27.78,13.62,-43.38
1554220671781,-0.78050977,-3.5583823,9.063849000000001,-0.26525086,0.07456851,-0.06711166,-27.66,13.62,-43.32
1554220671801,-0.7613561,-3.6541502,9.130887,-0.17896444,0.053263225,-0.05539375,-27.66,13.56,-43.26
1554220671821,-0.81881696,-3.5775358999999995,8.992023,-0.07137272,0.024501082,-0.043675844000000005,-27.6,13.5,-43.26
1554220671841,-0.8619126,-3.3141737,8.958505,0.0063915867,0.0,-0.036218993,-27.54,13.5,-43.32
1554220671860,-0.89543146,-3.3524809999999996,8.934562,0.04580637,-0.015978966,-0.03089267,-27.54,13.44,-43.38
1554220671880,-0.93373865,-3.117849,8.834005,0.051132694000000006,-0.03195793,-0.03089267,-27.48,13.44,-43.44
1554220671901,-0.7469909,-3.103484,8.829217,0.037284255,-0.040480047000000005,-0.02876214,-27.48,13.5,-43.56
1554220671921,-0.81881696,-3.2040405,8.996812,0.013848438000000001,-0.03834952,-0.02876214,-27.48,13.5,-43.62
1554220671941,-0.7661445,-3.1609447,8.968081,0.007456851,-0.02876214,-0.02876214,-27.48,13.62,-43.74
1554220671960,-0.6655880999999999,-3.2662897,8.901043,0.0010652645,-0.01917476,-0.033023197000000004,-27.48,13.74,-43.8
1554220671980,-0.82360536,-3.2710779999999997,8.829217,-0.025566347000000003,-0.00958738,-0.033023197000000004,-27.54,13.86,-43.86
1554220672001,-0.6799533,-3.3859997,8.800487,-0.056459017,-0.002130529,-0.03834952,-27.6,14.04,-43.8
1554220672021,-0.6464345,-3.3955764999999998,8.968081,-0.058589544,0.0031957934000000003,-0.04580637,-27.66,14.1,-43.74
1554220672040,-0.7134720999999999,-3.3620577000000003,8.886678,-0.05539375,0.008522116,-0.047936900000000005,-27.72,14.22,-43.68
1554220672060,-0.79487497,-3.3812113,8.934562,-0.051132694000000006,0.008522116,-0.049002163,-27.78,14.28,-43.68
1554220672080,-0.7182605,-3.4578260000000003,8.805275,-0.051132694000000006,0.0010652645,-0.05219796,-27.78,14.34,-43.62
1554220672100,-0.78050977,-3.3476925000000004,8.920197,-0.043675844000000005,-0.0031957934000000003,-0.054328485999999995,-27.78,14.4,-43.62
1554220672121,-0.7661445,-3.4482489999999997,9.035119,-0.01917476,-0.010652645,-0.05006743,-27.84,14.46,-43.56
1554220672141,-0.78529817,-3.3381157,8.982447,0.0010652645,-0.018109497,-0.043675844000000005,-27.78,14.46,-43.56
1554220672161,-0.8379706,-3.3237504999999996,8.891466000000001,0.002130529,-0.024501082,-0.041545313,-27.78,14.58,-43.5
1554220672181,-0.8619126,-3.3572693,8.814852,-0.0010652645,-0.036218993,-0.040480047000000005,-27.72,14.58,-43.5
1554220672200,-0.8858546,-3.4290953,8.915408,0.007456851,-0.04261058,-0.040480047000000005,-27.72,14.64,-43.5
1554220672221,-0.80924016,-3.342904,8.944139,0.024501082,-0.040480047000000005,-0.037284255,-27.66,14.64,-43.44
1554220672240,-0.8475474000000001,-3.3572693,8.886678,0.026631612000000002,-0.037284255,-0.029827405,-27.66,14.7,-43.44
1554220672260,-0.7422025,-3.2950199999999996,8.838794,0.0010652645,-0.029827405,-0.03195793,-27.66,14.64,-43.44
1554220672281,-0.6799533,-3.2806550000000003,8.814852,-0.026631612000000002,-0.025566347000000003,-0.033023197000000004,-27.66,14.58,-43.5
1554220672301,-0.6799533,-3.3907879999999997,8.867524000000001,-0.03834952,-0.022370555,-0.03089267,-27.72,14.46,-43.5
1554220672320,-0.7038953,-3.2758665000000002,9.025542,-0.029827405,-0.014913702,-0.029827405,-27.72,14.34,-43.5
1554220672340,-0.61770403,-3.4434607,8.934562,-0.018109497,-0.012783173500000002,-0.03195793,-27.72,14.28,-43.44
1554220672361,-0.7422025,-3.2758665000000002,8.810063000000001,-0.036218993,-0.011717908999999999,-0.033023197000000004,-27.72,14.16,-43.44
1554220672380,-0.6751649000000001,-3.1465794999999996,8.714295,-0.10759171,-0.020240024,-0.04261058,-27.72,14.1,-43.44
1554220672400,-0.6512229,-3.342904,8.709507,-0.20026971,-0.018109497,-0.04580637,-27.72,14.04,-43.38
1554220672421,-0.6751649000000001,-3.4434607,8.872313,-0.22477080000000002,-0.002130529,-0.058589544,-27.72,13.92,-43.38
1554220672441,-0.7086836999999999,-3.6828809000000002,8.867524000000001,-0.17150758,-0.0031957934000000003,-0.06391586,-27.72,13.92,-43.32
1554220672461,-0.7469909,-3.6349967000000003,8.901043,-0.098004326,-0.0010652645,-0.07030745599999999,-27.78,13.98,-43.32
1554220672481,-0.842759,-3.6589386,8.958505,-0.06178534,-0.0031957934000000003,-0.07137272,-27.78,13.98,-43.38
1554220672501,-0.7134720999999999,-3.6062663,8.843582000000001,-0.06924219,-0.00958738,-0.07030745599999999,-27.72,13.98,-43.44
1554220672521,-0.7517793,-3.5488055,8.709507,-0.09587380000000001,-0.015978966,-0.07456851,-27.72,14.04,-43.5
1554220672540,-0.7374141,-3.639785,8.853159,-0.11717909,-0.025566347000000003,-0.07030745599999999,-27.72,14.1,-43.62
1554220672561,-0.7661445,-3.5440169999999998,8.733449,-0.10865697,-0.02130529,-0.06285059999999999,-27.72,14.16,-43.68
1554220672581,-0.81402856,-3.6780925000000004,8.637681,-0.080960095,-0.023435817999999997,-0.05006743,-27.72,14.22,-43.74
1554220672601,-0.7422025,-3.6445735,8.719084,-0.047936900000000005,-0.025566347000000003,-0.04474111,-27.72,14.28,-43.8
1554220672621,-0.770933,-3.5535938999999996,8.608951,-0.03089267,-0.027696876000000002,-0.03834952,-27.72,14.34,-43.8
1554220672641,-0.6560113000000001,-3.6206315000000004,8.786121000000001,-0.017044231,-0.026631612000000002,-0.026631612000000002,-27.78,14.46,-43.8
1554220672661,-0.6895300999999999,-3.6685154000000004,8.953716,0.007456851,-0.02876214,-0.02130529,-27.72,14.58,-43.68
1554220672681,-0.641646,-3.5440169999999998,8.714295,0.029827405,-0.027696876000000002,-0.01917476,-27.78,14.7,-43.62
1554220672701,-0.62249243,-3.4290953,8.757391,0.023435817999999997,-0.015978966,-0.017044231,-27.78,14.82,-43.56
1554220672720,-0.61291564,-3.5104983,8.728661,-0.015978966,-0.014913702,-0.02130529,-27.78,14.94,-43.5
1554220672741,-0.5506664000000001,-3.520075,8.814852,-0.04580637,-0.008522116,-0.034088463,-27.78,15.06,-43.44
1554220672761,-0.5793968,-3.5104983,8.877101,-0.06924219,0.0063915867,-0.04474111,-27.78,15.18,-43.44
1554220672780,-0.56982,-3.7259765,8.766967999999999,-0.06498113,0.018109497,-0.04474111,-27.78,15.36,-43.38
1554220672800,-0.6607997,-3.7259765,8.872313,-0.06178534,0.023435817999999997,-0.047936900000000005,-27.84,15.36,-43.44
1554220672821,-0.62728083,-3.8121676,8.55149,-0.07243799,0.018109497,-0.05219796,-27.9,15.42,-43.5
1554220672841,-0.58897364,-3.816956,8.728661,-0.08735169,0.012783173500000002,-0.05752428,-27.9,15.42,-43.5
1554220672861,-0.7038953,-3.8456864,8.6712,-0.08628642,0.008522116,-0.05539375,-27.9,15.36,-43.56
1554220672881,-0.6655880999999999,-4.0084919999999995,8.805275,-0.06711166,0.002130529,-0.054328485999999995,-27.96,15.3,-43.56
1554220672900,-0.6703765,-3.9606082000000002,8.714295,-0.025566347000000003,0.002130529,-0.054328485999999995,-27.96,15.18,-43.56
1554220672920,-0.7661445,-3.8935703999999998,8.824428999999999,0.02130529,0.0010652645,-0.051132694000000006,-28.02,15.06,-43.62
1554220672940,-0.82360536,-3.7738605000000005,8.805275,0.049002163,-0.0010652645,-0.049002163,-28.02,14.94,-43.62
1554220672961,-0.8619126,-3.7978023999999997,8.719084,0.049002163,-0.004261058,-0.039414786,-28.02,14.88,-43.56
1554220672980,-0.7278373,-3.6349967000000003,8.786121000000001,0.037284255,-0.007456851,-0.037284255,-28.02,14.76,-43.56
1554220673001,-0.7757214,-3.5631707,8.781333,0.020240024,-0.012783173500000002,-0.03834952,-28.08,14.7,-43.56
1554220673020,-0.7757214,-3.6637269999999997,8.661622999999999,0.01917476,-0.011717908999999999,-0.039414786,-28.08,14.7,-43.5
1554220673040,-0.6751649000000001,-3.6254199000000003,8.843582000000001,0.037284255,-0.013848438000000001,-0.036218993,-28.08,14.64,-43.5
1554220673061,-0.7182605,-3.6637269999999997,8.757391,0.054328485999999995,-0.01917476,-0.034088463,-28.02,14.64,-43.5
1554220673081,-0.61770403,-3.6302083,8.786121000000001,0.05539375,-0.022370555,-0.029827405,-28.02,14.64,-43.5
1554220673101,-0.6703765,-3.6589386,8.656835000000001,0.04474111,-0.022370555,-0.02876214,-28.02,14.7,-43.5
1554220673120,-0.6943185000000001,-3.6254199000000003,8.738237,0.022370555,-0.02130529,-0.035153727999999995,-28.02,14.7,-43.44
1554220673141,-0.62249243,-3.6541502,8.81964,0.002130529,-0.014913702,-0.03834952,-28.08,14.76,-43.38
1554220673161,-0.7374141,-3.6685154000000004,8.853159,0.007456851,-0.018109497,-0.03834952,-28.08,14.76,-43.32
1554220673181,-0.63206923,-3.6445735,8.666411,0.017044231,-0.020240024,-0.037284255,-28.08,14.82,-43.26
1554220673200,-0.61770403,-3.6349967000000003,8.623316,0.007456851,-0.020240024,-0.03834952,-28.08,14.76,-43.2
1554220673221,-0.641646,-3.6733038000000002,8.719084,-0.004261058,-0.010652645,-0.03834952,-28.14,14.76,-43.14
1554220673241,-0.6703765,-3.4913447,8.81964,0.014913702,-0.012783173500000002,-0.041545313,-28.14,14.76,-43.08
1554220673260,-0.6799533,-3.6828809000000002,8.781333,0.027696876000000002,-0.007456851,-0.039414786,-28.2,14.76,-43.08
1554220673281,-0.7422025,-3.6637269999999997,8.829217,0.03089267,-0.011717908999999999,-0.03195793,-28.26,14.76,-43.08
1554220673301,-0.7469909,-3.7116113,8.728661,0.039414786,-0.0063915867,-0.025566347000000003,-28.26,14.82,-43.14
1554220673320,-0.7565677,-3.5440169999999998,8.924985000000001,0.043675844000000005,-0.004261058,-0.022370555,-28.32,14.94,-43.14
1554220673341,-0.61770403,-3.6302083,8.786121000000001,0.033023197000000004,0.0,-0.020240024,-28.32,15.0,-43.2
1554220673361,-0.6943185000000001,-3.5488055,8.738237,0.007456851,-0.0010652645,-0.024501082,-28.32,15.06,-43.26
1554220673381,-0.6991069000000001,-3.7307648999999996,8.771756,-0.015978966,-0.002130529,-0.03195793,-28.32,15.18,-43.26
1554220673400,-0.6560113000000001,-3.6206315000000004,8.656835000000001,-0.00958738,-0.0063915867,-0.03089267,-28.32,15.24,-43.26
1554220673420,-0.7038953,-3.6110547,8.872313,0.015978966,-0.011717908999999999,-0.03089267,-28.26,15.3,-43.32
1554220673441,-0.7422025,-3.6445735,8.929772999999999,0.03834952,-0.013848438000000001,-0.037284255,-28.2,15.36,-43.32
1554220673461,-0.7517793,-3.6302083,8.853159,0.051132694000000006,-0.017044231,-0.04474111,-28.08,15.36,-43.32
1554220673481,-0.6751649000000001,-3.5583823,8.814852,0.049002163,-0.013848438000000001,-0.047936900000000005,-28.02,15.3,-43.26
1554220673500,-0.6751649000000001,-3.5535938999999996,8.81964,0.03089267,-0.011717908999999999,-0.047936900000000005,-28.02,15.3,-43.26
1554220673521,-0.6368576,-3.520075,8.719084,0.004261058,-0.011717908999999999,-0.049002163,-27.96,15.3,-43.2
1554220673541,-0.6847416999999999,-3.5871127,8.747814,-0.017044231,-0.010652645,-0.04580637,-27.96,15.3,-43.2
1554220673560,-0.7374141,-3.5727474999999997,8.666411,-0.013848438000000001,-0.007456851,-0.03834952,-27.96,15.3,-43.2
1554220673580,-0.641646,-3.6637269999999997,8.800487,0.015978966,-0.014913702,-0.03089267,-27.9,15.3,-43.26
1554220673601,-0.6751649000000001,-3.6206315000000004,8.747814,0.046871635999999994,-0.020240024,-0.027696876000000002,-27.84,15.24,-43.26
1554220673621,-0.62249243,-3.615843,8.771756,0.051132694000000006,-0.01917476,-0.024501082,-27.84,15.24,-43.32
1554220673641,-0.6751649000000001,-3.5823242999999994,8.800487,0.034088463,-0.01917476,-0.02130529,-27.84,15.24,-43.32
1554220673660,-0.6607997,-3.6254199000000003,8.91062,0.011717908999999999,-0.013848438000000001,-0.025566347000000003,-27.78,15.18,-43.38
1554220673680,-0.6464345,-3.6110547,8.877101,-0.002130529,-0.0063915867,-0.034088463,-27.78,15.0,-43.44
1554220673700,-0.6703765,-3.5583823,8.944139,0.0031957934000000003,0.002130529,-0.037284255,-27.78,14.94,-43.44
1554220673720,-0.6368576,-3.4913447,8.824428999999999,0.013848438000000001,0.004261058,-0.04474111,-27.78,14.88,-43.44
1554220673741,-0.6368576,-3.5392287000000002,8.838794,0.017044231,0.0010652645,-0.046871635999999994,-27.84,14.82,-43.38
1554220673761,-0.62249243,-3.5871127,8.853159,0.022370555,-0.0053263223,-0.05006743,-27.9,14.76,-43.38
1554220673781,-0.6512229,-3.6110547,8.771756,0.025566347000000003,-0.0053263223,-0.05219796,-27.9,14.7,-43.38
1554220673801,-0.7134720999999999,-3.5679589999999997,8.944139,0.023435817999999997,-0.0031957934000000003,-0.054328485999999995,-27.96,14.7,-43.38
1554220673821,-0.7565677,-3.5727474999999997,8.838794,0.008522116,0.0010652645,-0.051132694000000006,-27.96,14.7,-43.32
1554220673840,-0.6847416999999999,-3.4913447,8.805275,-0.013848438000000001,-0.002130529,-0.049002163,-27.96,14.7,-43.32
1554220673860,-0.6799533,-3.5248635000000004,8.766967999999999,-0.025566347000000003,-0.007456851,-0.04474111,-28.02,14.76,-43.32
1554220673882,-0.7517793,-3.5488055,8.867524000000001,0.007456851,-0.008522116,-0.03834952,-28.02,14.76,-43.32
1554220673900,-0.6368576,-3.5775358999999995,8.872313,0.040480047000000005,-0.011717908999999999,-0.03195793,-28.02,14.76,-43.32
1554220673921,-0.58897364,-3.4913447,8.886678,0.06285059999999999,-0.012783173500000002,-0.02876214,-28.02,14.76,-43.32
1554220673941,-0.6895300999999999,-3.4961330000000004,8.656835000000001,0.043675844000000005,-0.00958738,-0.03089267,-28.02,14.76,-43.32
1554220673961,-0.6751649000000001,-3.4386723,8.647258,-0.0010652645,-0.008522116,-0.035153727999999995,-28.02,14.76,-43.38
1554220673981,-0.7230489,-3.5296519,8.79091,-0.034088463,-0.012783173500000002,-0.03834952,-28.02,14.82,-43.38
1554220674000,-0.6895300999999999,-3.5535938999999996,8.891466000000001,-0.018109497,-0.015978966,-0.034088463,-28.02,14.88,-43.38
1554220674020,-0.6512229,-3.6302083,8.805275,0.047936900000000005,-0.018109497,-0.03195793,-28.08,14.94,-43.38
1554220674041,-0.61770403,-3.4386723,9.006389,0.084155895,-0.02130529,-0.037284255,-28.08,14.94,-43.38
1554220674061,-0.5793968,-3.4434607,8.723872,0.07563378,-0.018109497,-0.040480047000000005,-28.08,15.0,-43.38
1554220674081,-0.5650316,-3.3812113,8.776545,0.035153727999999995,-0.00958738,-0.04261058,-28.14,15.0,-43.38
1554220674101,-0.58897364,-3.4721910000000005,8.766967999999999,-0.00958738,-0.007456851,-0.051132694000000006,-28.14,15.0,-43.38
1554220674120,-0.56982,-3.520075,8.757391,-0.035153727999999995,-0.004261058,-0.053263225,-28.2,15.0,-43.38
1554220674141,-0.61770403,-3.6733038000000002,8.776545,-0.034088463,0.002130529,-0.053263225,-28.2,15.0,-43.44
1554220674161,-0.62728083,-3.5871127,8.877101,-0.020240024,0.002130529,-0.046871635999999994,-28.26,14.94,-43.44
1554220674180,-0.6799533,-3.5440169999999998,8.728661,0.002130529,0.002130529,-0.04261058,-28.26,14.88,-43.44
1554220674201,-0.7182605,-3.4913447,8.891466000000001,0.010652645,-0.0010652645,-0.039414786,-28.32,14.82,-43.44
1554220674222,-0.6943185000000001,-3.4578260000000003,8.857947,0.00958738,-0.002130529,-0.036218993,-28.32,14.76,-43.44
1554220674241,-0.6895300999999999,-3.4578260000000003,8.805275,0.007456851,-0.0063915867,-0.041545313,-28.32,14.76,-43.44
1554220674261,-0.7326256999999999,-3.4530375,8.814852,-0.0031957934000000003,-0.008522116,-0.04580637,-28.38,14.7,-43.44
1554220674280,-0.6655880999999999,-3.5679589999999997,8.800487,-0.013848438000000001,-0.0031957934000000003,-0.046871635999999994,-28.38,14.7,-43.44
1554220674300,-0.6368576,-3.5009214999999996,8.824428999999999,-0.011717908999999999,-0.0063915867,-0.04261058,-28.32,14.7,-43.44
1554220674321,-0.641646,-3.520075,8.810063000000001,-0.002130529,-0.0053263223,-0.040480047000000005,-28.32,14.64,-43.44
1554220674341,-0.6847416999999999,-3.4626143,8.632893,0.008522116,-0.008522116,-0.034088463,-28.26,14.64,-43.38
1554220674361,-0.60333884,-3.5152867,8.733449,0.02130529,-0.011717908999999999,-0.033023197000000004,-28.26,14.64,-43.38
1554220674381,-0.6895300999999999,-3.4721910000000005,8.728661,0.029827405,-0.013848438000000001,-0.035153727999999995,-28.14,14.64,-43.38
1554220674401,-0.6512229,-3.4338839999999995,8.704719,0.02876214,-0.008522116,-0.040480047000000005,-28.14,14.7,-43.38
1554220674421,-0.641646,-3.4626143,8.886678,0.022370555,-0.011717908999999999,-0.037284255,-28.14,14.7,-43.32
1554220674440,-0.6512229,-3.4626143,8.757391,0.014913702,-0.010652645,-0.040480047000000005,-28.08,14.76,-43.32
1554220674460,-0.6751649000000001,-3.5104983,8.924985000000001,0.012783173500000002,-0.0063915867,-0.04580637,-28.14,14.82,-43.26
1554220674481,-0.6991069000000001,-3.4099417,8.877101,0.013848438000000001,-0.002130529,-0.047936900000000005,-28.14,14.82,-43.26
1554220674502,-0.56982,-3.5248635000000004,8.953716,-0.002130529,-0.004261058,-0.049002163,-28.26,14.88,-43.26
1554220674520,-0.6607997,-3.3572693,8.857947,-0.0063915867,-0.002130529,-0.047936900000000005,-28.26,14.88,-43.2
1554220674540,-0.5793968,-3.5009214999999996,8.843582000000001,-0.013848438000000001,-0.002130529,-0.046871635999999994,-28.32,14.94,-43.2
1554220674561,-0.62728083,-3.5871127,8.901043,-0.014913702,-0.0010652645,-0.040480047000000005,-28.38,14.88,-43.2
1554220674581,-0.6512229,-3.4961330000000004,8.843582000000001,-0.012783173500000002,-0.002130529,-0.041545313,-28.44,14.82,-43.14
1554220674601,-0.6655880999999999,-3.6206315000000004,8.834005,-0.0063915867,-0.0063915867,-0.036218993,-28.5,14.76,-43.14
1554220674621,-0.6655880999999999,-3.5631707,8.920197,0.011717908999999999,-0.010652645,-0.035153727999999995,-28.5,14.7,-43.14
1554220674641,-0.6703765,-3.5296519,8.944139,0.03089267,-0.0063915867,-0.036218993,-28.5,14.64,-43.14
1554220674661,-0.7757214,-3.4147300000000005,8.953716,0.02876214,-0.0063915867,-0.03834952,-28.5,14.58,-43.14
1554220674681,-0.6751649000000001,-3.4530375,8.881889,0.0063915867,-0.00958738,-0.040480047000000005,-28.5,14.52,-43.08
1554220674700,-0.59855044,-3.5966894999999997,8.733449,-0.012783173500000002,-0.00958738,-0.037284255,-28.5,14.46,-43.14
1554220674720,-0.6560113000000001,-3.5057099999999997,8.924985000000001,-0.0053263223,-0.0053263223,-0.03195793,-28.5,14.46,-43.14
1554220674740,-0.60812724,-3.4338839999999995,8.905831,0.015978966,-0.0063915867,-0.03089267,-28.44,14.46,-43.14
1554220674760,-0.6368576,-3.4147300000000005,8.800487,0.007456851,-0.0063915867,-0.03089267,-28.38,14.52,-43.2
1554220674780,-0.62728083,-3.481768,8.733449,-0.01917476,-0.0053263223,-0.025566347000000003,-28.32,14.52,-43.2
1554220674800,-0.60812724,-3.4530375,8.647258,-0.034088463,-0.0031957934000000003,-0.022370555,-28.26,14.58,-43.14
1554220674821,-0.7182605,-3.5440169999999998,8.766967999999999,-0.024501082,-0.007456851,-0.02130529,-28.2,14.58,-43.14
1554220674841,-0.6512229,-3.4578260000000003,8.81964,-0.002130529,-0.010652645,-0.012783173500000002,-28.2,14.64,-43.14
1554220674861,-0.7230489,-3.5152867,8.838794,0.018109497,-0.010652645,-0.00958738,-28.14,14.76,-43.14
1554220674881,-0.6512229,-3.5152867,8.886678,0.024501082,-0.015978966,-0.0063915867,-28.14,14.82,-43.08
1554220674900,-0.6368576,-3.4961330000000004,8.992023,0.033023197000000004,-0.010652645,-0.010652645,-28.14,14.88,-43.02
1554220674920,-0.60333884,-3.4626143,8.915408,0.020240024,-0.00958738,-0.014913702,-28.14,14.94,-43.02
1554220674941,-0.61770403,-3.5057099999999997,8.853159,0.0010652645,-0.007456851,-0.022370555,-28.08,15.0,-43.08
1554220674960,-0.7278373,-3.4338839999999995,8.79091,-0.0010652645,-0.0031957934000000003,-0.034088463,-28.08,15.06,-43.14
1554220674981,-0.6512229,-3.4626143,8.93935,0.022370555,0.0010652645,-0.043675844000000005,-28.08,15.12,-43.26
1554220675001,-0.6560113000000001,-3.4099417,8.97287,0.054328485999999995,-0.0053263223,-0.049002163,-28.02,15.18,-43.38
1554220675020,-0.6464345,-3.2710779999999997,8.79091,0.07243799,-0.0063915867,-0.054328485999999995,-28.02,15.12,-43.44
1554220675041,-0.59855044,-3.3572693,8.781333,0.06391586,-0.0031957934000000003,-0.060720075,-28.02,15.18,-43.56
1554220675061,-0.60333884,-3.3572693,9.015965,0.04474111,-0.002130529,-0.06604639400000001,-28.08,15.12,-43.62
1554220675081,-0.61770403,-3.4099417,8.786121000000001,0.020240024,0.002130529,-0.06711166,-28.08,15.06,-43.68
1554220675101,-0.6607997,-3.4386723,8.776545,-0.007456851,0.004261058,-0.06604639400000001,-28.08,15.0,-43.68
1554220675121,-0.6991069000000001,-3.4674027,8.800487,-0.02130529,-0.0010652645,-0.05965481,-28.14,15.0,-43.62
1554220675140,-0.7757214,-3.6780925000000004,8.929772999999999,0.0031957934000000003,-0.008522116,-0.060720075,-28.14,14.94,-43.56
1554220675160,-0.8331822,-3.6589386,8.953716,0.053263225,-0.02130529,-0.06178534,-28.2,14.88,-43.5
1554220675180,-0.6943185000000001,-3.6062663,8.915408,0.10333065,-0.024501082,-0.05752428,-28.2,14.82,-43.5
1554220675200,-0.60333884,-3.5296519,8.81964,0.12463594,-0.023435817999999997,-0.049002163,-28.26,14.82,-43.44
1554220675220,-0.5554548,-3.3524809999999996,8.805275,0.10972224,-0.024501082,-0.036218993,-28.26,14.76,-43.38
1554220675243,-0.6847416999999999,-3.3141737,8.924985000000001,0.09374327,-0.023435817999999997,-0.026631612000000002,-28.32,14.76,-43.38
1554220675261,-0.6607997,-3.2471360000000002,8.834005,0.09374327,-0.023435817999999997,-0.023435817999999997,-28.38,14.76,-43.38
1554220675280,-0.5746084,-3.2375592999999996,8.924985000000001,0.08735169,-0.026631612000000002,-0.025566347000000003,-28.44,14.76,-43.38
1554220675300,-0.6751649000000001,-3.1753099999999996,8.958505,0.07030745599999999,-0.024501082,-0.027696876000000002,-28.5,14.76,-43.38
1554220675321,-0.62728083,-3.2184057,9.025542,0.04580637,-0.020240024,-0.029827405,-28.56,14.76,-43.38
1554220675341,-0.641646,-3.2950199999999996,9.011177,0.039414786,-0.012783173500000002,-0.03834952,-28.62,14.82,-43.38
1554220675361,-0.62249243,-3.1657330000000004,8.93935,0.046871635999999994,-0.013848438000000001,-0.04474111,-28.62,14.82,-43.38
1554220675381,-0.5506664000000001,-3.127426,8.968081,0.03834952,-0.004261058,-0.05006743,-28.62,14.88,-43.38
1554220675401,-0.5267244000000001,-3.1561562999999997,9.006389,0.02130529,0.0,-0.051132694000000006,-28.62,14.94,-43.38
1554220675421,-0.5506664000000001,-3.1130607000000006,8.857947,-0.011717908999999999,0.002130529,-0.05539375,-28.56,14.94,-43.38
1554220675443,-0.5315128,-3.256713,8.891466000000001,-0.039414786,0.00958738,-0.05752428,-28.5,14.94,-43.38
1554220675461,-0.6368576,-3.2136172999999997,8.924985000000001,-0.046871635999999994,0.008522116,-0.05752428,-28.44,14.94,-43.38
1554220675480,-0.59855044,-3.3237504999999996,8.891466000000001,-0.04474111,0.004261058,-0.053263225,-28.38,14.94,-43.38
1554220675500,-0.6655880999999999,-3.3237504999999996,8.915408,-0.026631612000000002,0.0063915867,-0.04580637,-28.32,14.82,-43.38
1554220675522,-0.6991069000000001,-3.328539,8.977658,-0.007456851,0.004261058,-0.040480047000000005,-28.32,14.82,-43.38
1554220675541,-0.6560113000000001,-3.256713,8.901043,-0.0010652645,0.002130529,-0.035153727999999995,-28.32,14.76,-43.38
1554220675560,-0.6847416999999999,-3.3620577000000003,8.968081,-0.00958738,0.002130529,-0.033023197000000004,-28.26,14.7,-43.38
1554220675580,-0.641646,-3.2710779999999997,8.766967999999999,-0.018109497,0.0,-0.034088463,-28.26,14.7,-43.32
1554220675601,-0.58897364,-3.3381157,9.035119,-0.011717908999999999,0.0010652645,-0.034088463,-28.26,14.64,-43.32
1554220675620,-0.58897364,-3.3141737,8.920197,0.0031957934000000003,-0.0010652645,-0.03089267,-28.26,14.64,-43.32
1554220675640,-0.63206923,-3.2710779999999997,9.121310000000001,0.010652645,-0.0031957934000000003,-0.033023197000000004,-28.26,14.64,-43.32
1554220675661,-0.7230489,-3.151368,8.905831,0.0031957934000000003,0.002130529,-0.03195793,-28.26,14.7,-43.32
1554220675681,-0.6943185000000001,-3.256713,8.891466000000001,-0.00958738,0.0063915867,-0.034088463,-28.26,14.76,-43.26
1554220675701,-0.6368576,-3.3524809999999996,8.963293,-0.024501082,0.007456851,-0.036218993,-28.26,14.82,-43.26
1554220675720,-0.6943185000000001,-3.2279825,8.872313,-0.040480047000000005,0.0063915867,-0.036218993,-28.2,14.82,-43.26
1554220675740,-0.6560113000000001,-3.3237504999999996,8.963293,-0.047936900000000005,0.0031957934000000003,-0.036218993,-28.2,14.88,-43.26
1554220675760,-0.61770403,-3.328539,8.814852,-0.033023197000000004,0.0031957934000000003,-0.036218993,-28.14,14.88,-43.26
1554220675781,-0.63206923,-3.3572693,8.987235,-0.0063915867,0.0,-0.034088463,-28.14,14.88,-43.26
1554220675801,-0.6751649000000001,-3.3141737,8.829217,0.017044231,-0.002130529,-0.03195793,-28.08,14.94,-43.26
1554220675821,-0.6464345,-3.208829,8.958505,0.029827405,-0.0053263223,-0.033023197000000004,-28.08,14.94,-43.26
1554220675841,-0.61770403,-3.1848867000000003,8.905831,0.02130529,-0.004261058,-0.036218993,-28.02,14.94,-43.26
1554220675860,-0.6368576,-3.1848867000000003,8.97287,0.007456851,-0.004261058,-0.039414786,-28.02,14.94,-43.26
1554220675880,-0.641646,-3.232771,9.006389,-0.00958738,-0.0031957934000000003,-0.043675844000000005,-28.08,14.94,-43.26
1554220675900,-0.6655880999999999,-3.1657330000000004,8.93935,-0.03089267,-0.0031957934000000003,-0.047936900000000005,-28.08,14.94,-43.32
1554220675921,-0.6799533,-3.2375592999999996,8.901043,-0.056459017,0.002130529,-0.047936900000000005,-28.08,14.94,-43.32
1554220675940,-0.7278373,-3.3045970000000002,8.886678,-0.06285059999999999,0.0031957934000000003,-0.04580637,-28.08,14.94,-43.38
1554220675961,-0.7326256999999999,-3.4147300000000005,8.915408,-0.051132694000000006,0.010652645,-0.041545313,-28.14,14.94,-43.38
1554220675981,-0.6751649000000001,-3.4865562999999993,8.891466000000001,-0.034088463,0.004261058,-0.040480047000000005,-28.14,14.88,-43.38
1554220676001,-0.6655880999999999,-3.4003648999999996,8.838794,-0.025566347000000003,-0.0031957934000000003,-0.037284255,-28.14,14.88,-43.38
1554220676021,-0.641646,-3.3572693,8.901043,-0.015978966,-0.004261058,-0.033023197000000004,-28.14,14.88,-43.38
1554220676041,-0.6751649000000001,-3.4290953,8.886678,0.0,-0.004261058,-0.03089267,-28.14,14.82,-43.38
1554220676060,-0.6607997,-3.4003648999999996,8.944139,0.020240024,-0.008522116,-0.034088463,-28.14,14.82,-43.38
1554220676080,-0.7278373,-3.2279825,8.992023,0.020240024,-0.008522116,-0.035153727999999995,-28.2,14.76,-43.38
1554220676101,-0.6655880999999999,-3.2950199999999996,9.054273,0.007456851,-0.00958738,-0.035153727999999995,-28.26,14.76,-43.32
1554220676121,-0.6560113000000001,-3.2758665000000002,8.853159,-0.015978966,-0.0031957934000000003,-0.041545313,-28.26,14.82,-43.26
1554220676143,-0.6751649000000001,-3.2710779999999997,8.944139,-0.023435817999999997,-0.004261058,-0.041545313,-28.32,14.82,-43.26
1554220676161,-0.6751649000000001,-3.3189620000000004,8.881889,-0.03195793,-0.0031957934000000003,-0.039414786,-28.32,14.88,-43.2
1554220676180,-0.6847416999999999,-3.3476925000000004,9.025542,-0.03195793,-0.0063915867,-0.036218993,-28.32,14.94,-43.14
1554220676201,-0.6895300999999999,-3.4386723,8.924985000000001,-0.015978966,-0.0063915867,-0.034088463,-28.32,15.0,-43.08
1554220676221,-0.61770403,-3.3955764999999998,8.982447,-0.002130529,-0.007456851,-0.033023197000000004,-28.26,15.06,-43.08
1554220676240,-0.62249243,-3.3620577000000003,8.862736,0.0031957934000000003,-0.00958738,-0.033023197000000004,-28.2,15.06,-43.02
1554220676260,-0.62249243,-3.4147300000000005,8.800487,0.012783173500000002,-0.013848438000000001,-0.03089267,-28.2,15.12,-43.02
1554220676280,-0.60333884,-3.3620577000000003,8.762179,0.01917476,-0.014913702,-0.03089267,-28.14,15.06,-43.02
1554220676301,-0.6847416999999999,-3.3524809999999996,9.068638,0.023435817999999997,-0.015978966,-0.035153727999999995,-28.08,15.0,-43.08
1554220676321,-0.641646,-3.3955764999999998,8.814852,0.02130529,-0.013848438000000001,-0.036218993,-28.08,14.94,-43.08
1554220676341,-0.6751649000000001,-3.2950199999999996,8.996812,0.01917476,-0.015978966,-0.039414786,-28.02,14.88,-43.14
1554220676361,-0.6751649000000001,-3.3333273,8.901043,0.025566347000000003,-0.011717908999999999,-0.04261058,-28.02,14.82,-43.2
1554220676381,-0.6607997,-3.2662897,8.891466000000001,0.039414786,-0.014913702,-0.04580637,-27.96,14.76,-43.2
1554220676401,-0.641646,-3.3189620000000004,8.97287,0.053263225,-0.01917476,-0.05219796,-27.9,14.7,-43.26
1554220676420,-0.63206923,-3.2710779999999997,8.901043,0.06604639400000001,-0.020240024,-0.05752428,-27.9,14.64,-43.26
1554220676441,-0.58897364,-3.2423477000000003,8.824428999999999,0.06498113,-0.022370555,-0.058589544,-27.84,14.58,-43.2
1554220676462,-0.5793968,-3.3955764999999998,8.924985000000001,0.054328485999999995,-0.022370555,-0.05539375,-27.84,14.52,-43.2
1554220676482,-0.56982,-3.2998084999999997,8.915408,0.037284255,-0.029827405,-0.05006743,-27.84,14.46,-43.14
1554220676501,-0.6368576,-3.4195184999999997,8.805275,0.014913702,-0.033023197000000004,-0.04261058,-27.9,14.4,-43.08
1554220676520,-0.58418524,-3.3381157,8.901043,0.002130529,-0.036218993,-0.037284255,-27.96,14.34,-43.08
1554220676540,-0.59376204,-3.4003648999999996,9.020754,0.012783173500000002,-0.039414786,-0.027696876000000002,-28.08,14.28,-43.08
1554220676561,-0.6607997,-3.4051532999999994,8.97287,0.04261058,-0.037284255,-0.022370555,-28.14,14.22,-43.14
1554220676580,-0.6655880999999999,-3.342904,8.915408,0.10226539,-0.033023197000000004,-0.020240024,-28.26,14.16,-43.26
1554220676600,-0.60333884,-3.2758665000000002,8.924985000000001,0.11504856,-0.03195793,-0.020240024,-28.32,14.1,-43.32
1554220676621,-0.62249243,-3.1609447,8.934562,0.10865697,-0.026631612000000002,-0.02876214,-28.44,14.04,-43.44
1554220676641,-0.60812724,-3.127426,9.030331,0.08735169,-0.022370555,-0.035153727999999995,-28.5,14.04,-43.5
1554220676660,-0.6799533,-3.031658,9.006389,0.05539375,-0.012783173500000002,-0.04474111,-28.5,13.98,-43.62
1554220676680,-0.5746084,-2.9789855,8.901043,0.034088463,-0.0031957934000000003,-0.05006743,-28.56,14.04,-43.68
1554220676701,-0.5363011999999999,-3.0268695,8.862736,0.02130529,0.0031957934000000003,-0.054328485999999995,-28.56,14.04,-43.74
1554220676721,-0.5602431999999999,-3.0651767000000003,9.035119,0.01917476,-0.002130529,-0.06285059999999999,-28.56,14.1,-43.68
1554220676741,-0.7038953,-3.1465794999999996,8.958505,0.013848438000000001,0.0,-0.06604639400000001,-28.56,14.16,-43.68
1554220676761,-0.6607997,-3.141791,8.93935,0.012783173500000002,0.0,-0.06498113,-28.56,14.22,-43.62
1554220676781,-0.62728083,-3.1082723,8.891466000000001,0.02130529,-0.002130529,-0.06498113,-28.56,14.28,-43.62
1554220676801,-0.6847416999999999,-3.1082723,8.953716,0.029827405,-0.004261058,-0.06285059999999999,-28.56,14.34,-43.56
1554220676821,-0.62249243,-3.1992521000000003,8.905831,0.026631612000000002,-0.002130529,-0.058589544,-28.56,14.34,-43.56
1554220676841,-0.61291564,-3.0268695,8.886678,0.02130529,0.0,-0.05219796,-28.44,14.4,-43.56
1554220676861,-0.5410896,-3.1130607000000006,8.944139,0.013848438000000001,-0.0010652645,-0.049002163,-28.38,14.4,-43.5
1554220676881,-0.5315128,-3.0986955000000003,8.934562,0.008522116,0.0031957934000000003,-0.046871635999999994,-28.32,14.34,-43.44
1554220676901,-0.47884035,-3.1848867000000003,8.996812,0.004261058,0.0010652645,-0.043675844000000005,-28.26,14.34,-43.44
1554220676921,-0.50757074,-3.1609447,9.159616999999999,0.012783173500000002,0.0063915867,-0.037284255,-28.14,14.34,-43.38
1554220676941,-0.51714754,-3.1657330000000004,8.987235,0.022370555,0.008522116,-0.029827405,-28.08,14.28,-43.32
1554220676961,-0.61770403,-3.0843303,8.843582000000001,0.02130529,0.008522116,-0.027696876000000002,-28.02,14.28,-43.26
1554220676980,-0.58897364,-3.0651767000000003,9.054273,0.004261058,0.008522116,-0.02876214,-28.02,14.22,-43.26
1554220677000,-0.6751649000000001,-3.1130607000000006,9.006389,-0.017044231,0.010652645,-0.03089267,-28.02,14.22,-43.2
1554220677021,-0.6751649000000001,-3.0556,9.121310000000001,-0.024501082,0.008522116,-0.033023197000000004,-28.02,14.16,-43.2
1554220677041,-0.62728083,-3.1657330000000004,8.996812,-0.008522116,0.00958738,-0.039414786,-28.02,14.16,-43.2
1554220677061,-0.6895300999999999,-3.103484,9.015965,0.0010652645,0.002130529,-0.04580637,-28.08,14.1,-43.2
1554220677081,-0.59855044,-3.0747535,8.929772999999999,0.0031957934000000003,0.0,-0.047936900000000005,-28.08,14.1,-43.26
1554220677100,-0.61291564,-3.1609447,9.111733000000001,0.002130529,-0.002130529,-0.051132694000000006,-28.14,14.04,-43.26
1554220677120,-0.7230489,-3.232771,9.015965,0.002130529,-0.008522116,-0.053263225,-28.14,14.04,-43.26
1554220677141,-0.5506664000000001,-3.1896752999999998,8.93935,0.007456851,-0.0063915867,-0.05539375,-28.2,14.04,-43.32
1554220677161,-0.60333884,-3.117849,8.877101,0.00958738,-0.007456851,-0.056459017,-28.26,14.1,-43.32
1554220677180,-0.5506664000000001,-3.2279825,9.039907000000001,0.0031957934000000003,-0.010652645,-0.054328485999999995,-28.32,14.1,-43.32
1554220677200,-0.59855044,-3.1465794999999996,9.078215,0.0053263223,-0.013848438000000001,-0.053263225,-28.32,14.1,-43.32
1554220677220,-0.5793968,-3.2375592999999996,9.044696,0.02130529,-0.0063915867,-0.047936900000000005,-28.38,14.16,-43.26
1554220677241,-0.6464345,-3.2423477000000003,8.915408,0.041545313,-0.002130529,-0.039414786,-28.38,14.16,-43.26
1554220677261,-0.6751649000000001,-3.127426,8.992023,0.04580637,-0.0063915867,-0.035153727999999995,-28.38,14.16,-43.26
1554220677280,-0.7086836999999999,-3.2184057,8.944139,0.047936900000000005,-0.002130529,-0.029827405,-28.38,14.16,-43.26
1554220677300,-0.7134720999999999,-3.2375592999999996,8.97287,0.06178534,0.0010652645,-0.023435817999999997,-28.32,14.16,-43.26
1554220677321,-0.7661445,-3.093907,8.977658,0.07030745599999999,0.0,-0.025566347000000003,-28.26,14.16,-43.26
1554220677341,-0.641646,-3.0508115,8.982447,0.07563378,0.0,-0.03195793,-28.26,14.16,-43.32
1554220677361,-0.641646,-3.0172927000000005,8.862736,0.06391586,-0.004261058,-0.037284255,-28.2,14.16,-43.32
1554220677380,-0.6655880999999999,-2.9311013,8.934562,0.04580637,0.0010652645,-0.03834952,-28.2,14.16,-43.38
1554220677400,-0.6368576,-3.0556,9.059061,0.024501082,0.0010652645,-0.039414786,-28.14,14.16,-43.38
1554220677421,-0.56982,-3.0412347,9.154829,0.024501082,-0.0053263223,-0.04261058,-28.14,14.22,-43.44
1554220677441,-0.5506664000000001,-3.0556,9.111733000000001,0.046871635999999994,-0.013848438000000001,-0.05006743,-28.14,14.28,-43.44
1554220677460,-0.58418524,-2.9933507,9.073426,0.068176925,-0.017044231,-0.05219796,-28.14,14.28,-43.44
1554220677480,-0.56982,-2.9071592999999996,8.857947,0.07563378,-0.018109497,-0.053263225,-28.08,14.34,-43.44
1554220677501,-0.59855044,-2.878429,8.944139,0.05539375,-0.014913702,-0.058589544,-28.08,14.4,-43.44
1554220677521,-0.59376204,-2.9789855,8.987235,0.035153727999999995,-0.011717908999999999,-0.05539375,-28.08,14.46,-43.44
1554220677541,-0.5267244000000001,-2.9550436,8.992023,0.029827405,-0.0010652645,-0.05219796,-28.08,14.46,-43.44
1554220677561,-0.46926352,-2.9981391,9.030331,0.04474111,0.007456851,-0.05006743,-28.08,14.52,-43.44
1554220677583,-0.5267244000000001,-2.8880057,9.039907000000001,0.06711166,0.015978966,-0.05219796,-28.08,14.52,-43.44
1554220677601,-0.6560113000000001,-2.9406781000000004,8.920197,0.083090626,0.02130529,-0.05752428,-28.08,14.52,-43.38
1554220677621,-0.59376204,-2.9454667999999997,8.901043,0.07350325,0.020240024,-0.060720075,-28.08,14.46,-43.38
1554220677641,-0.6607997,-2.9837740000000004,8.905831,0.054328485999999995,0.014913702,-0.06498113,-28.02,14.46,-43.38
1554220677661,-0.60812724,-2.9933507,9.140464,0.036218993,0.012783173500000002,-0.06391586,-27.96,14.46,-43.38
1554220677681,-0.7278373,-2.9789855,9.011177,0.034088463,0.0053263223,-0.05965481,-27.96,14.46,-43.32
1554220677702,-0.62728083,-2.9311013,9.145252000000001,0.049002163,-0.002130529,-0.05539375,-27.9,14.4,-43.32
1554220677720,-0.6751649000000001,-2.878429,9.087791000000001,0.07669904,-0.0053263223,-0.05219796,-27.84,14.4,-43.26
1554220677740,-0.7134720999999999,-2.8113914,9.035119,0.10013486,-0.008522116,-0.047936900000000005,-27.78,14.34,-43.2
1554220677760,-0.6799533,-2.7730842,8.977658,0.10226539,-0.017044231,-0.04261058,-27.72,14.34,-43.2
1554220677781,-0.6607997,-2.782661,9.09258,0.08628642,-0.026631612000000002,-0.04261058,-27.66,14.28,-43.14
1554220677801,-0.6799533,-2.710835,9.044696,0.07456851,-0.027696876000000002,-0.04580637,-27.6,14.28,-43.08
1554220677821,-0.6512229,-2.7012582000000003,8.857947,0.06178534,-0.024501082,-0.041545313,-27.6,14.28,-43.08
1554220677841,-0.5746084,-2.7060466,9.250597,0.053263225,-0.025566347000000003,-0.037284255,-27.6,14.28,-43.08
1554220677861,-0.5410896,-2.7539306,9.269751,0.058589544,-0.02130529,-0.036218993,-27.66,14.28,-43.08
1554220677881,-0.4309563,-2.7635074,9.078215,0.082025364,-0.0063915867,-0.036218993,-27.72,14.28,-43.02
1554220677901,-0.47405192,-2.6437972000000003,9.030331,0.10652645,0.007456851,-0.03834952,-27.78,14.28,-43.08
1554220677920,-0.40701428,-2.6150667999999997,8.924985000000001,0.101200126,0.017044231,-0.041545313,-27.9,14.28,-43.2
1554220677940,-0.49320555,-2.5288756,9.097368,0.06498113,0.029827405,-0.053263225,-28.02,14.28,-43.32
1554220677961,-0.6512229,-2.6868927000000005,9.106945,0.017044231,0.037284255,-0.05965481,-28.14,14.28,-43.5
1554220677980,-0.6464345,-2.7491422,9.193136,0.012783173500000002,0.051132694000000006,-0.06178534,-28.14,14.28,-43.68
1554220678000,-0.7469909,-2.7730842,9.188348,0.03834952,0.05965481,-0.060720075,-28.2,14.22,-43.74
1554220678021,-0.79487497,-2.782661,9.044696,0.07350325,0.06604639400000001,-0.058589544,-28.14,14.16,-43.86
1554220678041,-0.6943185000000001,-2.5001452,9.126099,0.07563378,0.06391586,-0.05965481,-28.08,14.1,-43.92
1554220678061,-0.80445176,-2.5145104,8.915408,0.020240024,0.060720075,-0.060720075,-28.08,13.98,-43.92
1554220678080,-0.7517793,-2.581548,8.920197,-0.06604639400000001,0.05752428,-0.053263225,-28.02,13.92,-43.92
1554220678100,-0.6895300999999999,-2.7443538,9.121310000000001,-0.12037488,0.043675844000000005,-0.04261058,-27.96,13.8,-43.86
1554220678120,-0.7422025,-2.8736405,9.231442999999999,-0.12996227,0.033023197000000004,-0.039414786,-27.96,13.74,-43.86
1554220678141,-0.80445176,-3.0747535,9.217078,-0.10652645,0.017044231,-0.034088463,-27.96,13.62,-43.92
1554220678161,-0.8810662,-2.9167361,9.178771000000001,-0.06711166,-0.011717908999999999,-0.02876214,-27.96,13.56,-43.92
1554220678180,-0.7278373,-2.8113914,9.083003,-0.018109497,-0.034088463,-0.02876214,-27.96,13.5,-43.98
1554220678200,-0.7565677,-2.6725276,9.068638,0.03834952,-0.049002163,-0.02130529,-27.96,13.5,-43.98
1554220678221,-0.6991069000000001,-2.5911248,9.140464,0.08628642,-0.06285059999999999,-0.017044231,-27.96,13.5,-44.04
1554220678241,-0.61770403,-2.5576060000000003,8.982447,0.09374327,-0.056459017,-0.022370555,-27.96,13.5,-44.04
1554220678261,-0.6943185000000001,-2.5049335999999998,9.011177,0.08735169,-0.046871635999999994,-0.020240024,-28.02,13.56,-44.04
1554220678281,-0.6895300999999999,-2.4762032000000005,9.09258,0.07243799,-0.036218993,-0.023435817999999997,-28.02,13.62,-44.04
1554220678301,-0.770933,-2.7204118,9.035119,0.047936900000000005,-0.020240024,-0.03089267,-28.02,13.68,-43.98
1554220678321,-0.80924016,-2.8113914,9.135675,0.034088463,-0.014913702,-0.03834952,-28.02,13.74,-43.98
1554220678341,-0.6751649000000001,-2.8113914,9.116522,0.04474111,-0.013848438000000001,-0.037284255,-28.02,13.86,-43.98
1554220678361,-0.7661445,-2.9071592999999996,9.241019999999999,0.082025364,-0.02130529,-0.03195793,-28.02,13.92,-43.98
1554220678381,-0.6368576,-2.7874494,9.21229,0.10759171,-0.023435817999999997,-0.02876214,-28.02,13.98,-43.98
1554220678400,-0.7230489,-2.7156234,9.140464,0.10226539,-0.023435817999999997,-0.03195793,-28.02,14.04,-43.98
1554220678421,-0.61291564,-2.6342204,9.097368,0.07456851,-0.027696876000000002,-0.036218993,-28.02,14.1,-43.98
1554220678440,-0.5746084,-2.6629508,9.169194000000001,0.05006743,-0.03834952,-0.04580637,-27.96,14.16,-44.04
1554220678460,-0.48362875,-2.677316,9.188348,0.06498113,-0.04580637,-0.04261058,-27.96,14.16,-44.04
1554220678480,-0.5793968,-2.5240872000000003,9.332,0.10546118,-0.05752428,-0.029827405,-27.96,14.1,-44.04
1554220678501,-0.47405192,-2.4426842,9.308058,0.16298546,-0.060720075,-0.026631612000000002,-27.96,13.86,-44.04
1554220678520,-0.51714754,-2.3660697999999996,9.298480999999999,0.1768339,-0.06391586,-0.02876214,-27.9,13.74,-44.1
1554220678540,-0.45010993,-2.3373394,9.154829,0.16937704,-0.05219796,-0.035153727999999995,-27.96,13.62,-44.1
1554220678560,-0.47884035,-2.2080526000000003,9.121310000000001,0.13102753,-0.034088463,-0.041545313,-27.96,13.38,-44.16
1554220678580,-0.40222588,-2.0691888,9.188348,0.07989483,-0.024501082,-0.04474111,-28.02,13.2,-44.16
1554220678601,-0.36391866,-2.0213048,9.035119,0.033023197000000004,-0.011717908999999999,-0.054328485999999995,-28.08,13.08,-44.16
1554220678620,-0.45010993,-2.1362264,9.193136,-0.020240024,-0.0010652645,-0.056459017,-28.14,12.96,-44.16
1554220678640,-0.5315128,-2.1984756,9.279327,-0.080960095,0.0063915867,-0.06711166,-28.14,12.9,-44.16
1554220678661,-0.5746084,-2.356493,9.159616999999999,-0.13422333,0.017044231,-0.07776430000000001,-28.14,12.9,-44.16
1554220678680,-0.6847416999999999,-2.5863364,9.231442999999999,-0.16192019,0.018109497,-0.07776430000000001,-28.2,12.84,-44.1
1554220678700,-0.79008657,-2.5911248,9.236232000000001,-0.16085494,0.011717908999999999,-0.07563378,-28.2,12.72,-44.1
1554220678720,-0.79008657,-2.9071592999999996,9.154829,-0.12676647,-0.002130529,-0.07137272,-28.2,12.66,-44.1
1554220678740,-0.7661445,-2.830545,9.250597,-0.068176925,-0.018109497,-0.06178534,-28.2,12.6,-44.1
1554220678761,-0.7422025,-2.9789855,9.221867,-0.010652645,-0.01917476,-0.049002163,-28.2,12.54,-44.16
1554220678780,-0.7278373,-2.7587189999999997,9.087791000000001,0.035153727999999995,-0.024501082,-0.03195793,-28.2,12.48,-44.16
1554220678800,-0.641646,-2.6007016,9.130887,0.056459017,-0.029827405,-0.024501082,-28.14,12.42,-44.22
1554220678820,-0.62249243,-2.677316,9.226655000000001,0.05219796,-0.034088463,-0.023435817999999997,-28.14,12.42,-44.28
1554220678841,-0.6751649000000001,-2.5384523999999997,9.269751,0.047936900000000005,-0.02876214,-0.015978966,-28.14,12.42,-44.28
1554220678861,-0.6799533,-2.4666264,9.21229,0.043675844000000005,-0.023435817999999997,-0.014913702,-28.2,12.42,-44.34
1554220678881,-0.6607997,-2.4139538,9.245809,0.043675844000000005,-0.02130529,-0.012783173500000002,-28.2,12.42,-44.4
1554220678900,-0.56982,-2.4091654,9.178771000000001,0.037284255,-0.015978966,-0.00958738,-28.32,12.42,-44.4
1554220678921,-0.48362875,-2.3229742,9.173983,0.025566347000000003,-0.010652645,-0.010652645,-28.38,12.42,-44.4
1554220678940,-0.47884035,-2.5049335999999998,9.178771000000001,0.012783173500000002,-0.010652645,-0.014913702,-28.5,12.42,-44.4
1554220678961,-0.45968673,-2.4809916000000003,9.284116000000001,0.0,-0.0063915867,-0.026631612000000002,-28.5,12.42,-44.4
1554220678980,-0.4165911,-2.5384523999999997,9.193136,-0.002130529,-0.002130529,-0.03195793,-28.5,12.48,-44.4
1554220679001,-0.39743748,-2.5719712,9.21229,-0.0053263223,0.002130529,-0.025566347000000003,-28.5,12.54,-44.4
1554220679021,-0.39743748,-2.5288756,9.188348,0.0031957934000000003,-0.0010652645,-0.026631612000000002,-28.44,12.6,-44.4
1554220679041,-0.48841715,-2.4714148,9.293693,0.011717908999999999,-0.010652645,-0.033023197000000004,-28.38,12.72,-44.34
1554220679060,-0.40222588,-2.4905684,9.288903999999999,0.011717908999999999,-0.015978966,-0.03834952,-28.26,12.78,-44.34
1554220679080,-0.5506664000000001,-2.4714148,9.298480999999999,0.007456851,-0.017044231,-0.041545313,-28.14,12.84,-44.34
1554220679101,-0.62249243,-2.4378957999999997,9.09258,0.015978966,-0.023435817999999997,-0.046871635999999994,-28.02,12.9,-44.34
1554220679121,-0.5602431999999999,-2.4762032000000005,9.207500999999999,0.03195793,-0.029827405,-0.054328485999999995,-27.96,12.96,-44.28
1554220679141,-0.5506664000000001,-2.3995886000000004,9.193136,0.040480047000000005,-0.034088463,-0.056459017,-27.96,13.02,-44.28
1554220679161,-0.5315128,-2.2990322,9.221867,0.049002163,-0.033023197000000004,-0.06178534,-27.96,13.08,-44.28
1554220679181,-0.521936,-2.3660697999999996,9.231442999999999,0.049002163,-0.02876214,-0.06604639400000001,-27.96,13.14,-44.22
1554220679201,-0.5506664000000001,-2.3612813999999998,9.073426,0.041545313,-0.023435817999999997,-0.07030745599999999,-27.9,13.2,-44.22
1554220679220,-0.5506664000000001,-2.4235306,9.073426,0.037284255,-0.014913702,-0.07243799,-27.96,13.26,-44.16
1554220679240,-0.5506664000000001,-2.4187422,9.173983,0.04261058,-0.002130529,-0.07137272,-27.96,13.26,-44.16
1554220679260,-0.5315128,-2.4235306,9.264961999999999,0.040480047000000005,0.008522116,-0.06498113,-28.02,13.32,-44.1
1554220679282,-0.59855044,-2.4809916000000003,9.193136,0.036218993,0.017044231,-0.06711166,-28.08,13.38,-44.1
1554220679302,-0.6799533,-2.3900118,9.250597,0.03195793,0.01917476,-0.060720075,-28.14,13.38,-44.04
1554220679322,-0.61770403,-2.380435,9.226655000000001,0.02130529,0.020240024,-0.05965481,-28.14,13.32,-44.04
1554220679342,-0.6512229,-2.4426842,9.241019999999999,0.0031957934000000003,0.010652645,-0.054328485999999995,-28.14,13.26,-44.04
1554220679361,-0.5363011999999999,-2.4331074,9.236232000000001,-0.014913702,0.008522116,-0.05006743,-28.08,13.26,-43.98
1554220679381,-0.521936,-2.48578,9.169194000000001,-0.017044231,0.0031957934000000003,-0.05006743,-27.96,13.14,-43.98
1554220679401,-0.5363011999999999,-2.4714148,9.236232000000001,-0.007456851,-0.0053263223,-0.04580637,-27.84,13.08,-44.04
1554220679421,-0.4357447,-2.4474726,9.130887,0.0031957934000000003,-0.00958738,-0.039414786,-27.66,13.02,-44.04
1554220679441,-0.39264908,-2.4235306,9.394249,0.012783173500000002,-0.010652645,-0.036218993,-27.54,12.96,-44.04
1554220679460,-0.58418524,-2.332551,9.169194000000001,0.025566347000000003,-0.013848438000000001,-0.035153727999999995,-27.36,12.84,-44.1
1554220679481,-0.4405331,-2.332551,9.140464,0.03089267,-0.011717908999999999,-0.035153727999999995,-27.3,12.78,-44.1
1554220679500,-0.4405331,-2.2990322,9.121310000000001,0.024501082,-0.00958738,-0.037284255,-27.3,12.78,-44.1
1554220679521,-0.44532153,-2.2224178,9.159616999999999,0.013848438000000001,-0.0010652645,-0.04580637,-27.42,12.72,-44.1
1554220679540,-0.51235914,-2.3038206000000003,9.231442999999999,0.014913702,0.002130529,-0.05006743,-27.42,12.66,-44.1
1554220679561,-0.51235914,-2.236783,9.245809,0.020240024,0.004261058,-0.05752428,-27.54,12.66,-44.1
1554220679581,-0.60812724,-2.2080526000000003,9.130887,0.015978966,0.0063915867,-0.05965481,-27.6,12.66,-44.1
1554220679601,-0.61291564,-2.2224178,9.332,0.0063915867,0.007456851,-0.06604639400000001,-27.6,12.66,-44.1
1554220679620,-0.5650316,-2.2559366,9.427767999999999,-0.0010652645,0.0031957934000000003,-0.06711166,-27.6,12.66,-44.1
1554220679640,-0.62728083,-2.2798786,9.169194000000001,-0.010652645,0.004261058,-0.07137272,-27.66,12.72,-44.1
1554220679660,-0.59376204,-2.4187422,9.298480999999999,-0.011717908999999999,0.002130529,-0.07137272,-27.66,12.72,-44.16
1554220679681,-0.50757074,-2.4235306,9.106945,-0.002130529,-0.002130529,-0.06498113,-27.6,12.72,-44.22
1554220679702,-0.521936,-2.4666264,9.269751,0.007456851,-0.0010652645,-0.05752428,-27.6,12.72,-44.22
1554220679721,-0.5315128,-2.5049335999999998,9.221867,0.015978966,-0.004261058,-0.05006743,-27.6,12.66,-44.28
1554220679741,-0.48362875,-2.4474726,9.097368,0.036218993,-0.002130529,-0.04580637,-27.6,12.66,-44.34
1554220679761,-0.48841715,-2.4187422,9.097368,0.049002163,-0.004261058,-0.03834952,-27.6,12.66,-44.34
1554220679781,-0.48362875,-2.3612813999999998,9.087791000000001,0.040480047000000005,-0.0031957934000000003,-0.035153727999999995,-27.66,12.66,-44.4
1554220679801,-0.545878,-2.3612813999999998,9.145252000000001,0.022370555,-0.0031957934000000003,-0.03195793,-27.72,12.66,-44.4
1554220679820,-0.49320555,-2.3756466,9.116522,0.013848438000000001,-0.0010652645,-0.03834952,-27.72,12.66,-44.46
1554220679841,-0.50278234,-2.332551,9.169194000000001,0.0063915867,-0.004261058,-0.041545313,-27.72,12.6,-44.46
1554220679861,-0.58418524,-2.3181857999999997,9.236232000000001,-0.0063915867,-0.0063915867,-0.039414786,-27.78,12.54,-44.52
1554220679881,-0.60333884,-2.3229742,9.264961999999999,-0.014913702,-0.008522116,-0.043675844000000005,-27.84,12.54,-44.58
1554220679902,-0.59855044,-2.2463598,9.298480999999999,-0.0053263223,-0.0053263223,-0.04474111,-27.84,12.48,-44.58
1554220679920,-0.5363011999999999,-2.3469162,9.217078,0.010652645,-0.011717908999999999,-0.043675844000000005,-27.84,12.42,-44.64
1554220679940,-0.5793968,-2.3612813999999998,9.250597,0.022370555,-0.00958738,-0.04261058,-27.84,12.42,-44.7
1554220679961,-0.58897364,-2.3612813999999998,9.312846,0.034088463,-0.008522116,-0.041545313,-27.84,12.36,-44.76
1554220679980,-0.545878,-2.3181857999999997,9.087791000000001,0.034088463,-0.011717908999999999,-0.03834952,-27.84,12.36,-44.76
1554220680001,-0.521936,-2.3756466,9.245809,0.033023197000000004,-0.014913702,-0.039414786,-27.72,12.48,-44.76
1554220680020,-0.56982,-2.3181857999999997,9.389461,0.033023197000000004,-0.014913702,-0.039414786,-27.66,12.48,-44.7
1554220680051,-0.56982,-2.3181857999999997,9.389461,0.033023197000000004,-0.014913702,-0.039414786,-27.66,12.48,-44.7
1554220680064,-0.59376204,-2.2750902,9.226655000000001,0.022370555,-0.0063915867,-0.041545313,-27.6,12.54,-44.64
1554220680080,-0.5554548,-2.2559366,9.274539,0.007456851,-0.008522116,-0.04474111,-27.6,12.54,-44.64
1554220680101,-0.5506664000000001,-2.1936872000000003,9.284116000000001,-0.0010652645,-0.008522116,-0.043675844000000005,-27.66,12.42,-44.64
1554220680120,-0.46447513,-2.2319946,9.308058,-0.0053263223,-0.013848438000000001,-0.043675844000000005,-27.72,12.06,-44.64
1554220680140,-0.48362875,-2.3181857999999997,9.231442999999999,-0.007456851,-0.00958738,-0.04474111,-27.84,11.64,-44.64
1554220680161,-0.5363011999999999,-2.260725,9.293693,-0.0063915867,-0.010652645,-0.047936900000000005,-28.02,11.16,-44.64
1554220680180,-0.50278234,-2.332551,9.264961999999999,-0.0031957934000000003,-0.00958738,-0.049002163,-28.14,10.74,-44.52
1554220680201,-0.47405192,-2.3373394,9.154829,0.0,-0.007456851,-0.05006743,-28.38,10.02,-44.4
1554220680223,-0.47405192,-2.4570496,9.250597,0.0053263223,-0.002130529,-0.046871635999999994,-28.44,9.66,-44.28
1554220680240,-0.5410896,-2.380435,9.226655000000001,0.012783173500000002,0.0010652645,-0.04580637,-28.44,9.48,-44.22
1554220680260,-0.5650316,-2.4235306,9.274539,0.026631612000000002,0.004261058,-0.04261058,-28.5,9.3,-44.16
1554220680280,-0.63206923,-2.3517046,9.269751,0.03834952,0.0053263223,-0.04474111,-28.44,9.42,-44.1
1554220680300,-0.62249243,-2.3277626000000002,9.298480999999999,0.04580637,0.0010652645,-0.04474111,-28.38,9.66,-44.04
1554220680320,-0.60812724,-2.212841,9.169194000000001,0.04261058,-0.002130529,-0.04261058,-28.32,9.9,-44.04
1554220680341,-0.7038953,-2.308609,9.322422999999999,0.020240024,-0.0063915867,-0.036218993,-28.26,10.26,-44.1
1554220680361,-0.6512229,-2.2319946,9.298480999999999,-0.002130529,-0.00958738,-0.03089267,-28.2,10.68,-44.16
1554220680380,-0.5650316,-2.2224178,9.327211,-0.011717908999999999,-0.011717908999999999,-0.03089267,-28.2,11.16,-44.22
1554220680400,-0.5410896,-2.1841104,9.183558999999999,-0.024501082,-0.013848438000000001,-0.03089267,-28.14,11.58,-44.22
1554220680420,-0.45010993,-2.260725,9.130887,-0.033023197000000004,-0.014913702,-0.036218993,-28.14,11.82,-44.22
1554220680441,-0.4405331,-2.356493,9.308058,-0.040480047000000005,-0.015978966,-0.039414786,-28.08,12.12,-44.28
1554220680464,-0.4213795,-2.4474726,9.020754,-0.034088463,-0.004261058,-0.046871635999999994,-28.08,12.3,-44.28
1554220680480,-0.39743748,-2.4283189999999997,9.169194000000001,-0.014913702,-0.002130529,-0.046871635999999994,-28.02,12.42,-44.28
1554220680501,-0.48841715,-2.4139538,9.260174000000001,0.01917476,0.0010652645,-0.04580637,-28.02,12.48,-44.34
1554220680520,-0.5602431999999999,-2.236783,9.293693,0.036218993,0.0010652645,-0.04261058,-28.02,12.36,-44.34
1554220680541,-0.59376204,-2.2463598,9.269751,0.037284255,0.004261058,-0.040480047000000005,-28.02,12.3,-44.34
1554220680563,-0.59376204,-2.2080526000000003,9.250597,0.02130529,0.0010652645,-0.04474111,-28.02,12.3,-44.4
1554220680581,-0.60812724,-2.212841,9.111733000000001,0.0053263223,0.0010652645,-0.05006743,-28.08,12.3,-44.4
1554220680600,-0.5793968,-2.1362264,9.241019999999999,-0.017044231,-0.0010652645,-0.051132694000000006,-28.08,12.24,-44.4
1554220680620,-0.63206923,-2.2463598,9.159616999999999,-0.039414786,0.0010652645,-0.05219796,-28.08,12.24,-44.4
1554220680640,-0.59376204,-2.3373394,9.197925,-0.040480047000000005,-0.004261058,-0.051132694000000006,-28.08,12.24,-44.4
1554220680661,-0.63206923,-2.3852234,9.188348,-0.023435817999999997,-0.008522116,-0.047936900000000005,-28.08,12.18,-44.46
1554220680680,-0.45010993,-2.2942438,9.341577000000001,-0.0031957934000000003,-0.011717908999999999,-0.041545313,-28.08,12.18,-44.52
1554220680700,-0.5746084,-2.4187422,9.250597,0.007456851,-0.011717908999999999,-0.037284255,-28.08,12.18,-44.58
1554220680721,-0.45489833,-2.3133974,9.159616999999999,0.01917476,-0.011717908999999999,-0.036218993,-28.08,12.12,-44.58
1554220680741,-0.5267244000000001,-2.2703017999999995,9.245809,0.024501082,-0.010652645,-0.040480047000000005,-28.08,12.12,-44.58
1554220680760,-0.545878,-2.2750902,9.173983,0.02130529,-0.008522116,-0.037284255,-28.08,12.12,-44.52
1554220680780,-0.545878,-2.2703017999999995,9.173983,0.008522116,-0.0063915867,-0.037284255,-28.08,12.12,-44.52
1554220680801,-0.45489833,-2.1888987999999996,9.188348,-0.010652645,-0.007456851,-0.039414786,-28.08,12.12,-44.52
1554220680820,-0.4165911,-2.380435,9.279327,-0.014913702,-0.0053263223,-0.039414786,-28.14,12.12,-44.4
1554220680842,-0.51714754,-2.3229742,9.312846,-0.008522116,-0.0010652645,-0.03834952,-28.14,12.18,-44.34
1554220680861,-0.50278234,-2.3756466,9.293693,0.0,-0.0031957934000000003,-0.040480047000000005,-28.14,12.18,-44.28
1554220680880,-0.59376204,-2.2703017999999995,9.308058,0.007456851,-0.002130529,-0.040480047000000005,-28.14,12.18,-44.22
1554220680901,-0.51714754,-2.2703017999999995,9.183558999999999,0.004261058,-0.0063915867,-0.041545313,-28.08,12.18,-44.28
1554220680920,-0.4405331,-2.3277626000000002,9.284116000000001,-0.00958738,-0.0053263223,-0.043675844000000005,-28.08,12.18,-44.28
1554220680940,-0.5315128,-2.3756466,9.241019999999999,-0.010652645,-0.0031957934000000003,-0.043675844000000005,-28.08,12.18,-44.28
1554220680961,-0.5363011999999999,-2.2655133999999997,9.140464,-0.004261058,0.0,-0.04261058,-28.08,12.18,-44.4
1554220680981,-0.5363011999999999,-2.2224178,9.188348,-0.007456851,0.0,-0.04474111,-28.08,12.18,-44.58
1554220681001,-0.521936,-2.2319946,9.154829,-0.015978966,-0.0010652645,-0.047936900000000005,-28.08,12.18,-44.7
1554220681021,-0.48362875,-2.356493,9.250597,-0.015978966,-0.0031957934000000003,-0.046871635999999994,-28.08,12.18,-44.82
1554220681041,-0.45010993,-2.3133974,9.197925,-0.0063915867,-0.0031957934000000003,-0.04261058,-28.08,12.24,-44.88
1554220681061,-0.59376204,-2.3852234,9.078215,0.004261058,-0.0031957934000000003,-0.041545313,-28.08,12.24,-44.88
1554220681081,-0.51235914,-2.2894554,9.260174000000001,0.015978966,-0.0031957934000000003,-0.041545313,-28.08,12.24,-44.88
1554220681100,-0.60333884,-2.3038206000000003,9.279327,0.022370555,0.0010652645,-0.04580637,-28.08,12.3,-44.88
1554220681120,-0.521936,-2.3995886000000004,9.183558999999999,0.025566347000000003,0.0010652645,-0.049002163,-28.14,12.3,-44.76
1554220681144,-0.5793968,-2.3373394,9.21229,0.022370555,0.002130529,-0.046871635999999994,-28.14,12.3,-44.58
1554220681163,-0.45010993,-2.2415714,9.145252000000001,0.011717908999999999,0.002130529,-0.04261058,-28.14,12.3,-44.46
1554220681183,-0.5650316,-2.2511482000000003,9.379883999999999,0.0063915867,0.0010652645,-0.040480047000000005,-28.14,12.3,-44.4
1554220681200,-0.5363011999999999,-2.2319946,9.351153,-0.0053263223,0.008522116,-0.036218993,-28.14,12.24,-44.28
1554220681221,-0.61291564,-2.2750902,9.269751,-0.020240024,0.004261058,-0.034088463,-28.14,12.18,-44.28
1554220681241,-0.63206923,-2.2798786,9.274539,-0.029827405,-0.002130529,-0.034088463,-28.14,12.12,-44.28
1554220681260,-0.56982,-2.308609,9.116522,-0.03089267,-0.002130529,-0.035153727999999995,-28.14,12.06,-44.28
1554220681281,-0.48362875,-2.2942438,9.135675,-0.025566347000000003,-0.004261058,-0.037284255,-28.14,12.0,-44.28
1554220681300,-0.44532153,-2.4762032000000005,9.09258,-0.011717908999999999,-0.0031957934000000003,-0.040480047000000005,-28.14,11.94,-44.34
1554220681320,-0.5267244000000001,-2.4235306,9.293693,0.004261058,-0.002130529,-0.04261058,-28.14,11.82,-44.4
1554220681340,-0.61291564,-2.3756466,9.48044,0.026631612000000002,0.0031957934000000003,-0.040480047000000005,-28.14,11.82,-44.46
1554220681360,-0.545878,-2.1936872000000003,9.241019999999999,0.041545313,0.004261058,-0.04474111,-28.2,11.76,-44.52
1554220681380,-0.61291564,-2.1266496,9.154829,0.029827405,0.007456851,-0.05006743,-28.2,11.64,-44.52
1554220681400,-0.5267244000000001,-2.107496,9.207500999999999,-0.007456851,0.008522116,-0.053263225,-28.26,11.52,-44.58
1554220681421,-0.61291564,-2.1888987999999996,9.145252000000001,-0.051132694000000006,0.00958738,-0.049002163,-28.26,11.4,-44.58
1554220681440,-0.39264908,-2.3517046,9.298480999999999,-0.058589544,0.0063915867,-0.04580637,-28.26,11.22,-44.64
1554220681460,-0.59855044,-2.4331074,9.422979,-0.034088463,0.008522116,-0.04261058,-28.32,11.1,-44.64
1554220681481,-0.6368576,-2.2703017999999995,9.317635000000001,-0.014913702,-0.0053263223,-0.034088463,-28.32,10.98,-44.64
1554220681500,-0.60333884,-2.332551,9.188348,-0.011717908999999999,-0.007456851,-0.033023197000000004,-28.32,10.86,-44.58
1554220681520,-0.5410896,-2.3038206000000003,9.083003,-0.022370555,-0.008522116,-0.03195793,-28.38,10.8,-44.58
1554220681540,-0.5650316,-2.3373394,9.183558999999999,-0.040480047000000005,-0.010652645,-0.035153727999999995,-28.38,10.8,-44.58
1554220681560,-0.4261679,-2.3469162,9.140464,-0.04261058,-0.012783173500000002,-0.041545313,-28.44,10.8,-44.58
1554220681580,-0.51714754,-2.380435,9.073426,-0.043675844000000005,-0.008522116,-0.04474111,-28.44,10.86,-44.58
1554220681600,-0.5506664000000001,-2.260725,9.183558999999999,-0.04474111,-0.0063915867,-0.046871635999999994,-28.5,10.86,-44.64
1554220681620,-0.5554548,-2.3517046,9.193136,-0.041545313,-0.0031957934000000003,-0.04580637,-28.5,10.92,-44.64
1554220681640,-0.5650316,-2.308609,9.130887,-0.04261058,-0.0010652645,-0.04474111,-28.56,10.92,-44.64
1554220681660,-0.521936,-2.3277626000000002,9.389461,-0.04474111,-0.013848438000000001,-0.04474111,-28.56,10.86,-44.64
1554220681680,-0.58418524,-2.3277626000000002,9.250597,-0.037284255,-0.0063915867,-0.04261058,-28.5,10.8,-44.64
1554220681700,-0.59376204,-2.332551,9.178771000000001,-0.033023197000000004,-0.00958738,-0.04580637,-28.5,10.8,-44.64
1554220681720,-0.521936,-2.3708582000000002,9.111733000000001,-0.04261058,-0.00958738,-0.047936900000000005,-28.5,10.68,-44.58
1554220681740,-0.58418524,-2.2894554,9.217078,-0.06604639400000001,-0.00958738,-0.05006743,-28.5,10.56,-44.58
1554220681760,-0.59376204,-2.3133974,9.217078,-0.098004326,-0.00958738,-0.05219796,-28.5,10.38,-44.52
1554220681780,-0.521936,-2.4331074,9.264961999999999,-0.11504856,-0.0031957934000000003,-0.05752428,-28.5,10.26,-44.52
1554220681801,-0.4405331,-2.4714148,9.111733000000001,-0.11930962,-0.007456851,-0.058589544,-28.5,10.08,-44.58
1554220681820,-0.49320555,-2.6102784,9.269751,-0.10972224,-0.0063915867,-0.054328485999999995,-28.5,9.84,-44.58
1554220681840,-0.45489833,-2.5145104,9.164406,-0.10439592,-0.007456851,-0.049002163,-28.56,9.66,-44.58
1554220681860,-0.5267244000000001,-2.4762032000000005,9.044696,-0.101200126,-0.007456851,-0.046871635999999994,-28.62,9.36,-44.58
1554220681880,-0.5506664000000001,-2.461838,9.197925,-0.111852765,-0.007456851,-0.049002163,-28.62,9.12,-44.64
1554220681900,-0.50757074,-2.4091654,9.197925,-0.13954964,-0.004261058,-0.054328485999999995,-28.74,8.88,-44.58
1554220681920,-0.45010993,-2.48578,9.111733000000001,-0.1587244,-0.0053263223,-0.058589544,-28.74,8.82,-44.58
1554220681940,-0.521936,-2.5432408,9.226655000000001,-0.16831179,-0.002130529,-0.058589544,-28.74,8.7,-44.58
1554220681960,-0.4309563,-2.6150667999999997,9.063849000000001,-0.17044231,-0.0053263223,-0.058589544,-28.8,8.58,-44.52
1554220681980,-0.62249243,-2.7443538,9.164406,-0.15978967,-0.00958738,-0.05539375,-28.8,8.52,-44.46
1554220682000,-0.641646,-2.7347770000000002,9.039907000000001,-0.15659387,-0.0063915867,-0.056459017,-28.8,8.52,-44.4
1554220682020,-0.521936,-2.806603,9.011177,-0.165116,-0.0031957934000000003,-0.053263225,-28.8,8.64,-44.34
1554220682041,-0.5315128,-2.8975825,9.073426,-0.16298546,0.004261058,-0.05219796,-28.8,8.76,-44.34
1554220682060,-0.5746084,-2.9215245,9.135675,-0.15126756,0.0031957934000000003,-0.05539375,-28.8,8.88,-44.34
1554220682080,-0.62249243,-2.8880057,9.097368,-0.12996227,0.004261058,-0.053263225,-28.86,8.94,-44.28
1554220682100,-0.51235914,-2.9837740000000004,9.116522,-0.11717909,0.0053263223,-0.04580637,-28.92,9.06,-44.28
1554220682121,-0.48841715,-3.0747535,9.054273,-0.098004326,0.00958738,-0.039414786,-28.98,9.18,-44.28
1554220682140,-0.5267244000000001,-3.1753099999999996,9.106945,-0.060720075,0.012783173500000002,-0.03195793,-29.04,9.18,-44.28
1554220682160,-0.5267244000000001,-3.127426,8.982447,-0.010652645,0.008522116,-0.026631612000000002,-29.04,9.24,-44.34
1554220682180,-0.5506664000000001,-3.208829,9.063849000000001,0.039414786,0.004261058,-0.024501082,-29.04,9.18,-44.34
1554220682200,-0.5746084,-3.103484,9.068638,0.084155895,-0.004261058,-0.012783173500000002,-28.98,9.18,-44.34
1554220682220,-0.60333884,-3.0986955000000003,8.996812,0.11717909,-0.018109497,-0.0063915867,-28.92,9.24,-44.34
1554220682241,-0.5602431999999999,-2.9694088,9.126099,0.13102753,-0.02876214,-0.0010652645,-28.8,9.42,-44.4
1554220682260,-0.5554548,-2.9215245,9.097368,0.13422333,-0.025566347000000003,0.007456851,-28.68,9.66,-44.4
1554220682280,-0.7134720999999999,-2.7299886000000004,9.039907000000001,0.13741912,-0.03089267,0.00958738,-28.56,9.9,-44.4
1554220682300,-0.521936,-2.5623944,9.087791000000001,0.12676647,-0.036218993,0.0010652645,-28.44,10.14,-44.46
1554220682320,-0.5602431999999999,-2.4331074,9.111733000000001,0.08522116,-0.04474111,-0.012783173500000002,-28.38,10.38,-44.46
1554220682340,-0.5746084,-2.5528176,9.083003,0.05752428,-0.036218993,-0.024501082,-28.38,10.62,-44.46
1554220682360,-0.5554548,-2.5480292,9.130887,0.011717908999999999,-0.033023197000000004,-0.043675844000000005,-28.38,10.8,-44.52
1554220682380,-0.5793968,-2.5863364,9.231442999999999,-0.012783173500000002,-0.03195793,-0.056459017,-28.38,10.98,-44.52
1554220682400,-0.49799395,-2.6677392,9.159616999999999,-0.017044231,-0.02876214,-0.06498113,-28.44,10.92,-44.52
1554220682420,-0.4405331,-2.710835,9.183558999999999,-0.007456851,-0.027696876000000002,-0.06711166,-28.44,10.86,-44.52
1554220682441,-0.4357447,-2.7060466,8.996812,-0.0063915867,-0.015978966,-0.07030745599999999,-28.44,10.8,-44.52
1554220682460,-0.46926352,-2.6390088,9.054273,-0.024501082,0.002130529,-0.06498113,-28.5,10.8,-44.52
1554220682480,-0.5267244000000001,-2.7012582000000003,9.011177,-0.047936900000000005,0.013848438000000001,-0.05965481,-28.44,10.8,-44.52
1554220682500,-0.51235914,-2.7299886000000004,9.087791000000001,-0.06604639400000001,0.02130529,-0.058589544,-28.44,10.8,-44.46
1554220682520,-0.59376204,-2.8161798,8.93935,-0.07030745599999999,0.01917476,-0.049002163,-28.44,10.74,-44.46
1554220682541,-0.62249243,-2.9311013,9.140464,-0.06285059999999999,0.008522116,-0.035153727999999995,-28.44,10.74,-44.52
1554220682560,-0.51235914,-2.959832,9.035119,-0.05219796,-0.0031957934000000003,-0.022370555,-28.38,10.68,-44.58
1554220682580,-0.6368576,-3.007716,9.054273,-0.025566347000000003,-0.017044231,-0.015978966,-28.38,10.62,-44.64
1554220682600,-0.47405192,-2.8975825,9.059061,0.0031957934000000003,-0.027696876000000002,-0.014913702,-28.44,10.56,-44.76
1554220682620,-0.45010993,-2.9550436,9.226655000000001,0.036218993,-0.033023197000000004,-0.007456851,-28.44,10.5,-44.82
1554220682640,-0.48841715,-2.8401217,9.068638,0.05006743,-0.037284255,-0.008522116,-28.44,10.56,-44.94
1554220682661,-0.4165911,-2.7682957999999998,8.924985000000001,0.034088463,-0.036218993,-0.017044231,-28.44,10.56,-45.0
1554220682680,-0.44532153,-2.6916811000000003,9.083003,0.017044231,-0.027696876000000002,-0.025566347000000003,-28.44,10.62,-45.0
1554220682700,-0.51235914,-2.7252002,9.054273,0.014913702,-0.026631612000000002,-0.034088463,-28.44,10.68,-45.0
1554220682720,-0.5267244000000001,-2.7730842,9.193136,0.026631612000000002,-0.01917476,-0.040480047000000005,-28.44,10.8,-44.94
1554220682740,-0.62249243,-2.6485856,9.226655000000001,0.036218993,-0.027696876000000002,-0.04474111,-28.38,10.92,-44.88
1554220682760,-0.60812724,-2.7012582000000003,9.087791000000001,0.04474111,-0.026631612000000002,-0.051132694000000006,-28.38,11.1,-44.76
1554220682780,-0.45968673,-2.6485856,8.987235,0.035153727999999995,-0.029827405,-0.05965481,-28.32,11.22,-44.7
1554220682800,-0.5506664000000001,-2.6868927000000005,9.154829,0.015978966,-0.029827405,-0.060720075,-28.32,11.34,-44.58
1554220682820,-0.47405192,-2.7299886000000004,9.135675,0.011717908999999999,-0.03195793,-0.060720075,-28.26,11.46,-44.52
1554220682840,-0.545878,-2.7204118,9.068638,0.007456851,-0.024501082,-0.056459017,-28.2,11.58,-44.46
1554220682861,-0.50278234,-2.6964695,9.068638,0.0031957934000000003,-0.01917476,-0.05539375,-28.2,11.64,-44.46
1554220682880,-0.45968673,-2.677316,9.221867,-0.004261058,-0.022370555,-0.05539375,-28.2,11.7,-44.4
1554220682900,-0.49799395,-2.8113914,9.197925,-0.011717908999999999,-0.01917476,-0.049002163,-28.2,11.76,-44.4
1554220682920,-0.39743748,-2.8113914,9.059061,-0.014913702,-0.02130529,-0.049002163,-28.14,11.76,-44.4
1554220682940,-0.39743748,-2.7491422,9.068638,-0.018109497,-0.024501082,-0.047936900000000005,-28.14,11.82,-44.4
1554220682960,-0.4165911,-2.8209682000000003,9.183558999999999,-0.027696876000000002,-0.015978966,-0.04261058,-28.14,11.76,-44.4
1554220682980,-0.39264908,-2.8688521000000002,8.992023,-0.036218993,-0.007456851,-0.04261058,-28.14,11.76,-44.34
1554220683001,-0.37349546,-2.7587189999999997,8.93935,-0.02130529,-0.0063915867,-0.04474111,-28.2,11.7,-44.34
1554220683020,-0.39743748,-2.7922377999999997,9.039907000000001,-0.022370555,-0.0063915867,-0.039414786,-28.2,11.64,-44.28
1554220683040,-0.4213795,-2.7922377999999997,9.039907000000001,-0.025566347000000003,-0.0010652645,-0.034088463,-28.26,11.64,-44.28
1554220683060,-0.35913026,-2.8688521000000002,9.121310000000001,-0.022370555,-0.004261058,-0.03089267,-28.26,11.58,-44.28
1554220683080,-0.40222588,-2.8018146,9.327211,-0.0063915867,-0.004261058,-0.029827405,-28.26,11.58,-44.28
1554220683100,-0.4405331,-2.7778726000000002,9.221867,0.0063915867,-0.002130529,-0.02876214,-28.26,11.52,-44.28
1554220683120,-0.48841715,-2.6725276,9.068638,-0.0010652645,-0.002130529,-0.025566347000000003,-28.26,11.52,-44.34
1554220683141,-0.49799395,-2.8209682000000003,9.030331,-0.014913702,-0.010652645,-0.029827405,-28.26,11.58,-44.34
1554220683160,-0.50278234,-2.6964695,9.183558999999999,-0.018109497,-0.011717908999999999,-0.03834952,-28.32,11.58,-44.4
1554220683180,-0.48841715,-2.6916811000000003,9.087791000000001,-0.012783173500000002,-0.013848438000000001,-0.047936900000000005,-28.32,11.64,-44.46
1554220683200,-0.47405192,-2.5719712,9.030331,-0.012783173500000002,-0.013848438000000001,-0.054328485999999995,-28.32,11.64,-44.46
1554220683221,-0.4261679,-2.7060466,9.106945,-0.024501082,-0.013848438000000001,-0.05539375,-28.38,11.64,-44.52
1554220683240,-0.33997664,-2.7539306,9.145252000000001,-0.041545313,-0.007456851,-0.053263225,-28.44,11.52,-44.52
1554220683261,-0.4261679,-2.8257565,8.987235,-0.03834952,-0.0031957934000000003,-0.046871635999999994,-28.56,11.16,-44.52
1554220683280,-0.37828386,-2.8257565,9.054273,-0.025566347000000003,-0.0063915867,-0.05006743,-28.68,10.8,-44.52
1554220683300,-0.32561144,-2.7922377999999997,9.116522,-0.01917476,-0.007456851,-0.05006743,-28.8,10.44,-44.58
1554220683320,-0.38307226,-2.8161798,9.126099,-0.014913702,-0.0063915867,-0.047936900000000005,-28.86,10.02,-44.58
1554220683340,-0.2873042,-2.8257565,9.154829,-0.012783173500000002,-0.008522116,-0.046871635999999994,-29.04,9.54,-44.58
1554220683361,-0.33997664,-2.9741971,9.111733000000001,-0.012783173500000002,-0.0010652645,-0.046871635999999994,-29.1,9.06,-44.64
1554220683380,-0.45489833,-2.806603,9.054273,-0.00958738,0.0010652645,-0.04580637,-29.22,8.64,-44.64
1554220683400,-0.40701428,-2.7635074,8.977658,-0.013848438000000001,-0.0031957934000000003,-0.051132694000000006,-29.28,8.28,-44.58
1554220683420,-0.4213795,-2.8018146,9.025542,-0.022370555,-0.004261058,-0.053263225,-29.34,8.22,-44.58
1554220683440,-0.47405192,-2.8353333,9.111733000000001,-0.036218993,0.0,-0.05539375,-29.34,8.22,-44.58
1554220683461,-0.44532153,-2.8640637000000004,9.087791000000001,-0.041545313,-0.0010652645,-0.047936900000000005,-29.4,8.34,-44.52
1554220683480,-0.5650316,-2.9694088,9.035119,-0.041545313,0.0031957934000000003,-0.043675844000000005,-29.46,8.52,-44.46
1554220683500,-0.5650316,-2.9454667999999997,9.020754,-0.025566347000000003,0.004261058,-0.036218993,-29.4,8.64,-44.46
1554220683520,-0.56982,-2.9406781000000004,9.116522,-0.008522116,0.0031957934000000003,-0.03089267,-29.4,8.82,-44.4
1554220683540,-0.5602431999999999,-2.9311013,9.116522,0.010652645,-0.0063915867,-0.026631612000000002,-29.4,8.94,-44.34
1554220683561,-0.45968673,-2.8592752999999997,9.126099,0.02130529,-0.012783173500000002,-0.023435817999999997,-29.4,9.06,-44.34
1554220683580,-0.46447513,-2.8257565,9.197925,0.027696876000000002,-0.020240024,-0.01917476,-29.4,9.06,-44.34
1554220683600,-0.4309563,-2.878429,9.09258,0.025566347000000003,-0.025566347000000003,-0.023435817999999997,-29.34,8.94,-44.34
1554220683620,-0.49320555,-2.7874494,9.087791000000001,0.011717908999999999,-0.029827405,-0.025566347000000003,-29.34,8.58,-44.34
1554220683641,-0.2777274,-2.8688521000000002,9.073426,-0.0031957934000000003,-0.026631612000000002,-0.027696876000000002,-29.34,8.34,-44.28
1554220683660,-0.30645782,-2.8880057,9.087791000000001,-0.00958738,-0.02876214,-0.02876214,-29.28,8.1,-44.22
1554220683680,-0.24420857,-2.7491422,9.126099,0.011717908999999999,-0.02876214,-0.029827405,-29.28,7.74,-44.16
1554220683700,-0.31603462,-2.7778726000000002,9.164406,0.025566347000000003,-0.02130529,-0.027696876000000002,-29.34,7.62,-44.1
1554220683721,-0.41180268,-2.8257565,9.011177,0.033023197000000004,-0.020240024,-0.026631612000000002,-29.34,7.56,-44.04
1554220683740,-0.4309563,-2.7539306,9.063849000000001,0.03195793,-0.014913702,-0.033023197000000004,-29.34,7.68,-43.98
1554220683760,-0.41180268,-2.7682957999999998,9.159616999999999,0.023435817999999997,-0.013848438000000001,-0.039414786,-29.34,7.86,-43.92
1554220683780,-0.46447513,-2.7443538,9.063849000000001,0.011717908999999999,-0.014913702,-0.049002163,-29.34,8.1,-43.92
1554220683800,-0.48362875,-2.7443538,9.169194000000001,0.0031957934000000003,-0.013848438000000001,-0.056459017,-29.34,8.4,-43.92
1554220683820,-0.50278234,-2.7587189999999997,9.097368,0.0,-0.013848438000000001,-0.053263225,-29.4,8.64,-43.92
1554220683841,-0.5267244000000001,-2.7874494,9.145252000000001,0.002130529,-0.014913702,-0.049002163,-29.4,8.94,-43.92
1554220683860,-0.50757074,-2.8640637000000004,9.063849000000001,0.004261058,-0.014913702,-0.047936900000000005,-29.4,9.18,-43.92
1554220683880,-0.4165911,-2.8832173,9.015965,0.007456851,-0.026631612000000002,-0.04474111,-29.34,9.3,-43.98
1554220683900,-0.4405331,-2.8161798,9.197925,0.007456851,-0.029827405,-0.04474111,-29.34,9.36,-43.98
1554220683920,-0.32561144,-2.902371,9.159616999999999,-0.004261058,-0.025566347000000003,-0.041545313,-29.22,9.42,-44.1
1554220683940,-0.29209262,-2.7443538,9.116522,-0.008522116,-0.025566347000000003,-0.041545313,-29.1,9.48,-44.16
1554220683960,-0.33039984,-2.7443538,9.111733000000001,-0.004261058,-0.01917476,-0.037284255,-29.04,9.42,-44.22
1554220683980,-0.2825158,-2.7491422,9.054273,0.004261058,-0.018109497,-0.035153727999999995,-28.92,9.42,-44.28
1554220684000,-0.38307226,-2.7252002,8.93935,-0.0053263223,-0.018109497,-0.033023197000000004,-28.86,9.3,-44.28
1554220684020,-0.37349546,-2.6916811000000003,9.111733000000001,-0.015978966,-0.008522116,-0.037284255,-28.8,9.24,-44.34
1554220684040,-0.46447513,-2.7922377999999997,9.217078,-0.02130529,-0.0053263223,-0.040480047000000005,-28.74,9.24,-44.34
1554220684060,-0.5410896,-2.8161798,9.221867,-0.017044231,0.0010652645,-0.04580637,-28.74,9.18,-44.34
1554220684080,-0.40222588,-2.8640637000000004,9.111733000000001,-0.012783173500000002,0.008522116,-0.046871635999999994,-28.8,9.18,-44.28
1554220684100,-0.40222588,-2.8592752999999997,8.968081,-0.02876214,0.015978966,-0.053263225,-28.86,9.18,-44.22
1554220684120,-0.34476504,-2.902371,9.116522,-0.056459017,0.022370555,-0.056459017,-28.86,9.18,-44.16
1554220684141,-0.4357447,-2.9454667999999997,9.121310000000001,-0.07563378,0.024501082,-0.05965481,-28.92,9.24,-44.1
1554220684160,-0.4261679,-2.902371,9.087791000000001,-0.07563378,0.024501082,-0.05752428,-28.92,9.36,-44.04
1554220684180,-0.45489833,-3.007716,9.039907000000001,-0.041545313,0.015978966,-0.043675844000000005,-28.92,9.42,-43.92
1554220684201,-0.4261679,-2.902371,9.21229,0.0031957934000000003,0.0053263223,-0.034088463,-28.92,9.48,-43.92
1554220684220,-0.545878,-2.8353333,9.221867,0.040480047000000005,-0.0063915867,-0.025566347000000003,-28.86,9.48,-43.86
1554220684240,-0.49320555,-2.6964695,9.154829,0.04474111,-0.010652645,-0.027696876000000002,-28.86,9.54,-43.8
1554220684261,-0.4261679,-2.7539306,9.015965,0.018109497,-0.012783173500000002,-0.03195793,-28.86,9.54,-43.8
1554220684280,-0.4261679,-2.7682957999999998,8.987235,-0.007456851,-0.013848438000000001,-0.039414786,-28.92,9.36,-43.8
1554220684300,-0.30166942,-2.8401217,9.097368,-0.020240024,-0.017044231,-0.043675844000000005,-29.04,9.18,-43.8
1554220684320,-0.4309563,-2.8496985,9.039907000000001,-0.020240024,-0.011717908999999999,-0.05006743,-29.16,8.94,-43.86
1554220684341,-0.4405331,-2.9311013,9.087791000000001,-0.008522116,0.0,-0.05006743,-29.28,8.7,-43.86
1554220684360,-0.41180268,-2.9311013,9.073426,-0.002130529,0.002130529,-0.05219796,-29.4,8.34,-43.86
1554220684380,-0.39264908,-2.8975825,9.015965,-0.004261058,0.0063915867,-0.049002163,-29.52,7.98,-43.86
1554220684400,-0.41180268,-2.878429,9.21229,0.0010652645,0.011717908999999999,-0.047936900000000005,-29.64,7.5,-43.86
1554220684420,-0.38307226,-2.9358897,9.130887,0.0053263223,0.00958738,-0.049002163,-29.76,7.14,-43.86
1554220684440,-0.3878607,-2.8927941,8.987235,-0.008522116,0.008522116,-0.05006743,-29.82,6.84,-43.86
1554220684460,-0.30166942,-2.9837740000000004,9.097368,-0.02876214,0.010652645,-0.047936900000000005,-29.82,6.72,-43.86
1554220684480,-0.4213795,-2.8688521000000002,9.054273,-0.025566347000000003,0.00958738,-0.04580637,-29.76,6.84,-43.86
1554220684500,-0.4357447,-2.9215245,9.241019999999999,-0.004261058,0.0063915867,-0.040480047000000005,-29.76,7.08,-43.86
1554220684520,-0.45489833,-2.9550436,9.130887,0.02130529,-0.0063915867,-0.040480047000000005,-29.7,7.56,-43.86
1554220684540,-0.4213795,-2.8496985,9.173983,0.024501082,-0.010652645,-0.040480047000000005,-29.64,7.98,-43.86
1554220684561,-0.39743748,-2.9454667999999997,8.996812,0.017044231,-0.007456851,-0.040480047000000005,-29.64,8.4,-43.92
1554220684580,-0.39743748,-2.8927941,9.025542,0.011717908999999999,-0.004261058,-0.04580637,-29.58,8.7,-43.92
1554220684600,-0.37349546,-2.830545,9.063849000000001,0.0031957934000000003,-0.0031957934000000003,-0.049002163,-29.52,9.0,-43.86
1554220684620,-0.44532153,-2.8688521000000002,9.078215,0.004261058,0.0010652645,-0.046871635999999994,-29.52,9.12,-43.86
1554220684640,-0.46926352,-2.9311013,9.09258,0.013848438000000001,-0.0063915867,-0.039414786,-29.46,9.06,-43.86
1554220684660,-0.40701428,-2.8927941,9.169194000000001,0.01917476,-0.010652645,-0.037284255,-29.46,9.0,-43.86
1554220684681,-0.49320555,-2.926313,9.083003,0.01917476,-0.018109497,-0.037284255,-29.46,8.88,-43.92
1554220684700,-0.41180268,-2.8209682000000003,9.140464,0.02130529,-0.01917476,-0.03195793,-29.4,8.76,-43.92
1554220684720,-0.4165911,-2.8927941,9.236232000000001,0.03089267,-0.024501082,-0.03195793,-29.4,8.7,-43.92
1554220684740,-0.37349546,-2.7539306,9.097368,0.035153727999999995,-0.026631612000000002,-0.037284255,-29.4,8.64,-43.98
1554220684760,-0.4405331,-2.7730842,9.030331,0.027696876000000002,-0.022370555,-0.039414786,-29.4,8.58,-43.98
1554220684780,-0.4165911,-2.8161798,9.035119,0.01917476,-0.018109497,-0.04474111,-29.4,8.52,-44.04
1554220684800,-0.36391866,-2.902371,9.039907000000001,0.022370555,-0.015978966,-0.047936900000000005,-29.4,8.52,-44.04
1554220684821,-0.33518824,-2.8353333,9.111733000000001,0.027696876000000002,-0.008522116,-0.049002163,-29.46,8.46,-43.98
1554220684840,-0.33997664,-2.8736405,9.006389,0.024501082,-0.0063915867,-0.05006743,-29.46,8.4,-43.92
1554220684860,-0.44532153,-2.7682957999999998,9.097368,0.00958738,0.0,-0.05219796,-29.46,8.4,-43.86
1554220684880,-0.37349546,-2.8496985,9.09258,0.0,0.0063915867,-0.054328485999999995,-29.58,8.34,-43.8
1554220684901,-0.39264908,-2.8592752999999997,8.93935,-0.018109497,0.008522116,-0.05752428,-29.7,8.28,-43.74
1554220684920,-0.4261679,-2.9502552000000004,9.035119,-0.022370555,0.0063915867,-0.054328485999999995,-29.82,8.28,-43.68
1554220684940,-0.39743748,-2.8401217,9.207500999999999,-0.007456851,0.0053263223,-0.047936900000000005,-29.94,8.22,-43.68
1554220684960,-0.47884035,-2.8927941,9.121310000000001,0.015978966,-0.0031957934000000003,-0.043675844000000005,-30.06,8.1,-43.68
1554220684980,-0.41180268,-2.7778726000000002,9.126099,0.034088463,-0.007456851,-0.04261058,-30.12,8.1,-43.68
1554220685000,-0.46926352,-2.8449101000000003,9.140464,0.043675844000000005,-0.013848438000000001,-0.03834952,-30.18,8.04,-43.74
1554220685020,-0.51235914,-2.7252002,9.083003,0.041545313,-0.014913702,-0.039414786,-30.24,7.98,-43.8
1554220685040,-0.32561144,-2.7347770000000002,9.097368,0.03195793,-0.02130529,-0.039414786,-30.18,7.92,-43.86
1554220685060,-0.4165911,-2.7730842,9.111733000000001,0.02130529,-0.01917476,-0.039414786,-30.06,7.92,-43.86
1554220685080,-0.4261679,-2.7491422,9.025542,0.017044231,-0.02130529,-0.039414786,-30.0,7.98,-43.92
1554220685103,-0.34955344,-2.7730842,9.154829,0.008522116,-0.024501082,-0.041545313,-29.82,8.04,-43.98
1554220685120,-0.35434186,-2.7539306,9.078215,0.00958738,-0.022370555,-0.040480047000000005,-29.7,8.16,-43.98
1554220685140,-0.31603462,-2.7874494,9.039907000000001,0.02130529,-0.025566347000000003,-0.039414786,-29.64,8.22,-44.04
1554220685160,-0.4261679,-2.7682957999999998,9.111733000000001,0.039414786,-0.025566347000000003,-0.040480047000000005,-29.58,8.4,-44.04
1554220685180,-0.33518824,-2.7204118,9.111733000000001,0.039414786,-0.023435817999999997,-0.041545313,-29.46,8.64,-44.1
1554220685200,-0.32561144,-2.6533740000000003,9.09258,0.027696876000000002,-0.02130529,-0.04261058,-29.4,8.88,-44.1
1554220685220,-0.33039984,-2.7060466,9.140464,0.012783173500000002,-0.02130529,-0.046871635999999994,-29.34,9.12,-44.1
1554220685240,-0.26815059999999996,-2.6342204,9.207500999999999,-0.002130529,-0.020240024,-0.05006743,-29.28,9.24,-44.16
1554220685260,-0.2825158,-2.8113914,9.197925,-0.007456851,-0.02130529,-0.054328485999999995,-29.28,9.36,-44.16
1554220685280,-0.37349546,-2.7587189999999997,9.097368,-0.008522116,-0.02130529,-0.051132694000000006,-29.22,9.48,-44.16
1554220685301,-0.33039984,-2.7156234,9.078215,0.0010652645,-0.013848438000000001,-0.047936900000000005,-29.16,9.6,-44.16
1554220685321,-0.34955344,-2.7443538,9.044696,0.0063915867,-0.012783173500000002,-0.05219796,-29.04,9.78,-44.16
1554220685340,-0.33997664,-2.6916811000000003,9.083003,-0.0031957934000000003,-0.0053263223,-0.05965481,-28.98,9.84,-44.1
1554220685360,-0.36391866,-2.7874494,8.97287,-0.017044231,0.0,-0.054328485999999995,-28.92,9.9,-44.1
1554220685380,-0.30166942,-2.8257565,9.154829,-0.017044231,0.002130529,-0.053263225,-28.86,9.96,-44.04
1554220685401,-0.44532153,-2.7922377999999997,9.135675,-0.007456851,0.008522116,-0.053263225,-28.8,10.02,-43.98
1554220685420,-0.5363011999999999,-2.6198552000000004,9.245809,0.0,0.008522116,-0.05539375,-28.8,10.08,-43.92
1554220685440,-0.46447513,-2.7347770000000002,9.217078,-0.0063915867,0.0063915867,-0.053263225,-28.8,10.14,-43.8
1554220685460,-0.48841715,-2.7156234,9.111733000000001,-0.022370555,0.0,-0.047936900000000005,-28.8,10.2,-43.74
1554220685480,-0.40222588,-2.806603,8.977658,-0.029827405,-0.0063915867,-0.041545313,-28.8,10.2,-43.74
1554220685500,-0.4405331,-2.830545,9.073426,-0.017044231,-0.00958738,-0.036218993,-28.8,10.26,-43.74
1554220685521,-0.34955344,-2.8975825,9.068638,0.0031957934000000003,-0.011717908999999999,-0.036218993,-28.8,10.26,-43.74
1554220685540,-0.25378537,-2.8401217,8.996812,0.014913702,-0.012783173500000002,-0.029827405,-28.8,10.26,-43.8
1554220685560,-0.31603462,-2.8449101000000003,9.035119,0.011717908999999999,-0.007456851,-0.029827405,-28.8,10.26,-43.8
1554220685580,-0.24899697,-2.8449101000000003,9.011177,0.011717908999999999,-0.007456851,-0.029827405,-28.8,10.26,-43.86
1554220685600,-0.34476504,-2.8257565,9.159616999999999,0.00958738,-0.007456851,-0.03089267,-28.8,10.26,-43.92
1554220685621,-0.29688102,-2.7778726000000002,9.207500999999999,0.0063915867,-0.0031957934000000003,-0.033023197000000004,-28.74,10.26,-43.92
1554220685640,-0.32561144,-2.7491422,9.145252000000001,-0.0031957934000000003,-0.0010652645,-0.035153727999999995,-28.74,10.26,-43.98
1554220685660,-0.31603462,-2.7778726000000002,9.21229,-0.011717908999999999,0.0031957934000000003,-0.036218993,-28.68,10.26,-43.98
1554220685681,-0.41180268,-2.8927941,8.977658,-0.013848438000000001,0.007456851,-0.03834952,-28.68,10.26,-44.04
1554220685700,-0.39264908,-2.8018146,9.188348,-0.012783173500000002,0.0063915867,-0.040480047000000005,-28.68,10.26,-44.04
1554220685721,-0.39743748,-2.8832173,9.140464,-0.002130529,-0.002130529,-0.043675844000000005,-28.68,10.2,-44.04
1554220685740,-0.33039984,-2.830545,9.217078,0.0063915867,-0.0053263223,-0.04580637,-28.68,10.26,-44.1
1554220685760,-0.33518824,-2.878429,9.217078,0.037284255,-0.0031957934000000003,-0.036218993,-28.74,10.26,-44.1
1554220685780,-0.4165911,-2.677316,9.126099,0.06178534,-0.00958738,-0.03089267,-28.8,10.32,-44.1
1554220685800,-0.4261679,-2.6916811000000003,9.073426,0.06924219,-0.007456851,-0.033023197000000004,-28.92,10.38,-44.1
1554220685821,-0.36870706,-2.6102784,9.183558999999999,0.060720075,-0.015978966,-0.03834952,-28.98,10.44,-44.16
1554220685840,-0.37828386,-2.4762032000000005,9.111733000000001,0.039414786,-0.01917476,-0.04261058,-29.04,10.5,-44.16
1554220685860,-0.29688102,-2.5192987999999996,9.140464,0.024501082,-0.020240024,-0.049002163,-29.16,10.56,-44.16
1554220685880,-0.33518824,-2.5623944,9.217078,-0.002130529,-0.023435817999999997,-0.056459017,-29.22,10.68,-44.16
1554220685900,-0.39743748,-2.6964695,9.025542,-0.039414786,-0.01917476,-0.06285059999999999,-29.22,10.74,-44.1
1554220685921,-0.38307226,-2.8209682000000003,9.111733000000001,-0.07243799,-0.020240024,-0.058589544,-29.22,10.8,-44.04
1554220685940,-0.40701428,-2.9311013,9.207500999999999,-0.07030745599999999,-0.02130529,-0.051132694000000006,-29.22,10.86,-43.98
1554220685960,-0.35913026,-2.9550436,9.097368,-0.03195793,-0.03089267,-0.03834952,-29.16,10.92,-43.98
1554220685980,-0.4261679,-2.9741971,9.236232000000001,0.025566347000000003,-0.043675844000000005,-0.026631612000000002,-29.1,10.92,-43.92
1554220686000,-0.35913026,-2.8736405,9.083003,0.07137272,-0.06285059999999999,-0.023435817999999997,-29.04,10.98,-43.86
1554220686021,-0.30645782,-2.7587189999999997,9.039907000000001,0.07350325,-0.07243799,-0.027696876000000002,-28.98,10.98,-43.86
1554220686040,-0.2777274,-2.6868927000000005,8.958505,0.05965481,-0.068176925,-0.03089267,-28.92,10.98,-43.8
1554220686060,-0.30645782,-2.6390088,9.006389,0.03195793,-0.056459017,-0.043675844000000005,-28.86,10.92,-43.8
1554220686080,-0.30166942,-2.6390088,9.073426,-0.0053263223,-0.040480047000000005,-0.05752428,-28.86,10.92,-43.8
1554220686101,-0.22026655,-2.7491422,9.097368,-0.029827405,-0.023435817999999997,-0.06285059999999999,-28.86,10.8,-43.8
1554220686120,-0.22984336,-2.806603,9.193136,-0.026631612000000002,-0.017044231,-0.060720075,-28.92,10.74,-43.8
1554220686140,-0.22026655,-2.8161798,9.140464,-0.015978966,-0.023435817999999997,-0.05539375,-28.92,10.68,-43.8
1554220686160,-0.17717093,-2.8401217,9.293693,0.007456851,-0.034088463,-0.040480047000000005,-28.98,10.62,-43.74
1554220686181,-0.18674773,-2.8209682000000003,9.159616999999999,0.026631612000000002,-0.053263225,-0.013848438000000001,-29.04,10.62,-43.74
1554220686200,-0.22505496,-2.7012582000000003,9.274539,0.046871635999999994,-0.07243799,0.0053263223,-29.1,10.56,-43.74
1554220686221,-0.33039984,-2.6102784,9.087791000000001,0.07882957,-0.07350325,0.026631612000000002,-29.16,10.56,-43.74
1554220686240,-0.32561144,-2.6342204,9.135675,0.098004326,-0.07563378,0.043675844000000005,-29.22,10.56,-43.74
1554220686260,-0.40701428,-2.4953567999999997,9.116522,0.12357068,-0.07882957,0.05752428,-29.22,10.62,-43.74
1554220686280,-0.38307226,-2.533664,8.977658,0.13528858,-0.10226539,0.07563378,-29.28,10.68,-43.74
1554220686301,-0.36870706,-2.4666264,9.130887,0.15765914,-0.12144015,0.096939065,-29.22,10.74,-43.68
1554220686320,-0.33997664,-2.48578,9.274539,0.19174760000000002,-0.13528858,0.1107875,-29.22,10.8,-43.68
1554220686340,-0.11971009,-2.2990322,9.384672,0.21411815,-0.14061491,0.09587380000000001,-29.22,10.86,-43.62
1554220686360,-0.08140286,-2.3373394,9.327211,0.20772657,-0.14807177,0.07350325,-29.22,10.92,-43.62
1554220686380,0.08140286,-2.3038206000000003,9.169194000000001,0.18109496,-0.1438107,0.049002163,-29.28,10.92,-43.56
1554220686400,0.26336220000000005,-2.3229742,9.245809,0.15020229,-0.13848437,0.025566347000000003,-29.28,10.86,-43.5
1554220686420,0.21068975,-2.2559366,9.217078,0.12570119999999999,-0.12463594,-0.0053263223,-29.34,10.86,-43.44
1554220686440,0.19153613,-2.2750902,9.130887,0.113983296,-0.111852765,-0.03195793,-29.4,10.8,-43.38
1554220686461,0.11492168,-2.2559366,9.231442999999999,0.099069595,-0.09374327,-0.04261058,-29.46,10.74,-43.32
1554220686480,-0.019153614,-2.2463598,9.264961999999999,0.08522116,-0.07669904,-0.035153727999999995,-29.52,10.68,-43.32
1554220686500,-0.19153613,-2.1984756,9.379883999999999,0.08522116,-0.05752428,-0.011717908999999999,-29.52,10.62,-43.26
1554220686520,-0.24420857,-2.1888987999999996,9.346364999999999,0.09374327,-0.04261058,0.0031957934000000003,-29.52,10.56,-43.26
1554220686540,-0.2777274,-2.2798786,9.399037,0.099069595,-0.037284255,0.01917476,-29.52,10.56,-43.2
1554220686560,-0.24899697,-2.4139538,9.317635000000001,0.07243799,-0.041545313,0.03195793,-29.52,10.56,-43.14
1554220686581,-0.019153614,-2.4570496,9.341577000000001,0.023435817999999997,-0.04580637,0.02876214,-29.52,10.62,-43.14
1554220686600,0.02873042,-2.4474726,9.183558999999999,0.0010652645,-0.040480047000000005,0.020240024,-29.52,10.62,-43.14
1554220686620,0.10534488,-2.5384523999999997,9.09258,-0.03195793,-0.024501082,0.007456851,-29.52,10.56,-43.14
1554220686640,0.11971009,-2.677316,8.944139,-0.054328485999999995,-0.002130529,-0.010652645,-29.52,10.5,-43.08
1554220686660,0.24899697,-2.7730842,9.264961999999999,-0.046871635999999994,0.012783173500000002,-0.03089267,-29.52,10.44,-43.08
1554220686681,0.20590134,-2.6868927000000005,9.207500999999999,-0.00958738,0.018109497,-0.039414786,-29.58,10.32,-43.08
1554220686700,0.10055647,-2.6007016,9.36073,0.05006743,0.01917476,-0.02876214,-29.64,10.14,-43.02
1554220686720,0.05267244,-2.3277626000000002,9.317635000000001,0.113983296,0.012783173500000002,-0.022370555,-29.7,9.96,-43.02
1554220686740,0.019153614,-2.1266496,9.475652,0.16085494,0.0053263223,-0.017044231,-29.82,9.84,-43.02
1554220686760,-0.05267244,-1.963844,9.21229,0.18002969,0.0,-0.010652645,-29.88,9.72,-43.02
1554220686780,-0.1436521,-1.8201918999999998,9.432556,0.17363810000000002,-0.0053263223,-0.012783173500000002,-30.0,9.72,-42.96
1554220686801,-0.15801731,-1.8106151000000001,9.288903999999999,0.14168017,-0.010652645,-0.0063915867,-30.06,9.72,-42.96
1554220686820,-0.16759412,-1.7531542000000002,9.274539,0.09267801,-0.014913702,-0.02130529,-30.12,9.78,-42.96
1554220686840,-0.23463176,-1.8489223000000001,9.36073,0.03089267,-0.022370555,-0.041545313,-30.18,9.9,-43.02
1554220686860,-0.01436521,-1.9877859,9.379883999999999,0.0010652645,-0.02130529,-0.051132694000000006,-30.18,10.02,-43.08
1554220686880,0.04309563,-2.0883423999999997,9.413403,0.0,-0.020240024,-0.05965481,-30.24,10.14,-43.08
1554220686900,0.07182605,-2.212841,9.346364999999999,0.004261058,-0.02876214,-0.068176925,-30.24,10.2,-43.14
1554220686921,0.22505496,-2.3133974,9.36073,0.007456851,-0.041545313,-0.06924219,-30.18,10.26,-43.26
1554220686940,0.19632454,-2.4139538,9.111733000000001,0.013848438000000001,-0.043675844000000005,-0.068176925,-30.18,10.32,-43.32
1554220686960,0.22984336,-2.3373394,9.145252000000001,0.027696876000000002,-0.05006743,-0.05219796,-30.18,10.32,-43.38
1554220686980,0.30166942,-2.3277626000000002,9.284116000000001,0.049002163,-0.05006743,-0.046871635999999994,-30.18,10.32,-43.38
1554220687000,0.21547815,-2.2463598,9.188348,0.07563378,-0.04261058,-0.05006743,-30.12,10.26,-43.44
1554220687020,0.1388637,-2.107496,9.432556,0.10013486,-0.036218993,-0.036218993,-30.0,10.26,-43.44
1554220687041,0.019153614,-2.0069396,9.332,0.11930962,-0.025566347000000003,-0.033023197000000004,-29.94,10.26,-43.38
1554220687060,-0.07182605,-1.7579426,9.466075,0.13209279,-0.012783173500000002,-0.036218993,-29.88,10.2,-43.38
1554220687080,-0.11492168,-1.5711948999999998,9.298480999999999,0.13315806,-0.013848438000000001,-0.04580637,-29.82,10.14,-43.38
1554220687100,-0.17717093,-1.6382325,9.399037,0.08628642,-0.00958738,-0.06604639400000001,-29.7,10.08,-43.44
1554220687120,-0.07182605,-1.7579426,9.413403,0.010652645,-0.014913702,-0.08628642,-29.64,10.02,-43.44
1554220687141,0.009576807,-1.8872293999999998,9.351153,-0.06604639400000001,-0.002130529,-0.099069595,-29.58,10.02,-43.5
1554220687161,0.076614454,-2.0644004000000002,9.317635000000001,-0.10546118,0.0031957934000000003,-0.08948222,-29.58,9.96,-43.5
1554220687180,0.04309563,-2.2176294,9.197925,-0.084155895,0.0063915867,-0.07669904,-29.58,9.9,-43.5
1554220687200,0.023942016,-2.2703017999999995,9.518747,-0.023435817999999997,0.004261058,-0.068176925,-29.64,9.9,-43.56
1554220687220,0.10055647,-2.2655133999999997,9.394249,0.04580637,-0.008522116,-0.056459017,-29.7,9.84,-43.56
1554220687240,0.08140286,-2.0500352,9.269751,0.08841695,-0.0031957934000000003,-0.04580637,-29.82,9.84,-43.56
1554220687260,0.13407529999999998,-2.0260932,9.197925,0.09054748,-0.0063915867,-0.043675844000000005,-29.88,9.84,-43.5
1554220687280,0.11492168,-1.9351135,9.236232000000001,0.07456851,-0.004261058,-0.049002163,-30.0,9.9,-43.5
1554220687300,0.13407529999999998,-1.738789,9.375095,0.047936900000000005,0.004261058,-0.054328485999999995,-30.06,9.9,-43.44
1554220687320,0.13407529999999998,-1.7435773999999997,9.370307,0.02130529,0.010652645,-0.056459017,-30.12,9.96,-43.44
1554220687340,0.009576807,-1.7196354,9.288903999999999,0.0010652645,0.020240024,-0.056459017,-30.18,9.96,-43.38
1554220687360,0.02873042,-1.7483658,9.274539,-0.015978966,0.013848438000000001,-0.05752428,-30.18,9.9,-43.32
1554220687380,-0.02873042,-1.7340006000000001,9.389461,-0.026631612000000002,0.007456851,-0.05752428,-30.18,9.9,-43.32
1554220687400,0.0047884034,-1.7483658,9.322422999999999,-0.034088463,0.0031957934000000003,-0.060720075,-30.12,9.84,-43.26
1554220687420,0.04309563,-1.8201918999999998,9.327211,-0.039414786,-0.0010652645,-0.06391586,-30.12,9.84,-43.2
1554220687441,0.062249242999999996,-1.963844,9.312846,-0.047936900000000005,0.008522116,-0.06924219,-30.06,9.78,-43.2
1554220687460,-0.06703765,-1.9303252,9.327211,-0.05006743,0.008522116,-0.06498113,-30.06,9.72,-43.14
1554220687480,0.07182605,-2.0117279999999997,9.298480999999999,-0.04261058,0.018109497,-0.06178534,-30.06,9.66,-43.14
1554220687500,0.13407529999999998,-2.1362264,9.221867,-0.04261058,0.017044231,-0.06285059999999999,-30.0,9.6,-43.14
1554220687521,0.05267244,-2.1745335999999997,9.332,-0.036218993,0.02130529,-0.058589544,-30.0,9.66,-43.14
1554220687540,0.13407529999999998,-2.2798786,9.346364999999999,-0.014913702,0.017044231,-0.05006743,-30.0,9.72,-43.14
1554220687560,0.110133275,-2.1218612,9.485228999999999,0.010652645,0.010652645,-0.037284255,-30.0,9.72,-43.08
1554220687580,0.16280572,-2.1027076,9.21229,0.02130529,0.010652645,-0.033023197000000004,-30.0,9.78,-43.08
1554220687601,0.095768064,-2.0452468,9.399037,0.013848438000000001,0.0031957934000000003,-0.035153727999999995,-30.0,9.78,-43.08
1554220687620,0.15322891,-1.963844,9.351153,-0.002130529,0.0053263223,-0.041545313,-30.0,9.84,-43.08
1554220687640,0.10534488,-1.9734207,9.375095,-0.026631612000000002,0.013848438000000001,-0.05006743,-30.0,9.84,-43.08
1554220687660,0.0047884034,-1.9734207,9.308058,-0.046871635999999994,0.01917476,-0.06285059999999999,-30.0,9.84,-43.14
1554220687680,0.0,-1.9303252,9.336788,-0.05539375,0.02130529,-0.06924219,-30.0,9.78,-43.2
1554220687700,-0.05267244,-1.9877859,9.427767999999999,-0.047936900000000005,0.027696876000000002,-0.068176925,-30.0,9.78,-43.26
1554220687720,-0.062249242999999996,-2.0260932,9.341577000000001,-0.03089267,0.026631612000000002,-0.06285059999999999,-30.06,9.78,-43.26
1554220687740,-0.08140286,-1.9446903000000002,9.45171,-0.0063915867,0.022370555,-0.05219796,-30.06,9.78,-43.32
1554220687762,-0.16759412,-1.9351135,9.432556,0.012783173500000002,0.012783173500000002,-0.05006743,-30.06,9.78,-43.38
1554220687782,-0.13407529999999998,-1.8968061999999999,9.379883999999999,0.008522116,0.004261058,-0.049002163,-30.06,9.78,-43.44
1554220687800,-0.18674773,-1.8968061999999999,9.365519,-0.018109497,-0.0031957934000000003,-0.04474111,-30.06,9.78,-43.5
1554220687820,-0.076614454,-1.9446903000000002,9.379883999999999,-0.037284255,-0.007456851,-0.041545313,-30.06,9.72,-43.5
1554220687840,0.0047884034,-2.0931308,9.384672,-0.02876214,-0.014913702,-0.036218993,-30.06,9.72,-43.5
1554220687860,-0.009576807,-2.1458032000000005,9.188348,-0.012783173500000002,-0.020240024,-0.03195793,-30.06,9.66,-43.5
1554220687880,0.19153613,-2.236783,9.087791000000001,-0.0063915867,-0.017044231,-0.03089267,-30.06,9.66,-43.5
1554220687900,0.15322891,-2.1888987999999996,9.097368,0.0010652645,-0.01917476,-0.03834952,-30.0,9.6,-43.5
1554220687920,0.19153613,-2.0691888,9.126099,0.007456851,-0.008522116,-0.04580637,-30.0,9.6,-43.44
1554220687940,0.019153614,-2.0308816000000003,9.403825999999999,0.013848438000000001,0.0053263223,-0.05006743,-30.0,9.6,-43.44
1554220687960,-0.04309563,-1.8920178,9.533113,0.011717908999999999,0.010652645,-0.058589544,-30.0,9.6,-43.44
1554220687980,-0.033518825,-1.9111716,9.36073,0.00958738,0.014913702,-0.05965481,-30.0,9.66,-43.44
1554220688001,-0.023942016,-1.8680758000000002,9.614514999999999,-0.0063915867,0.012783173500000002,-0.058589544,-30.0,9.66,-43.44
1554220688020,-0.14844051,-1.8441339,9.308058,-0.03089267,0.015978966,-0.054328485999999995,-30.0,9.66,-43.44
1554220688040,-0.07182605,-1.9686323000000001,9.399037,-0.05219796,0.011717908999999999,-0.043675844000000005,-29.94,9.72,-43.44
1554220688060,-0.02873042,-2.0644004000000002,9.351153,-0.06604639400000001,0.002130529,-0.03195793,-29.94,9.78,-43.44
1554220688080,-0.01436521,-2.1218612,9.379883999999999,-0.07030745599999999,-0.00958738,-0.02876214,-29.94,9.84,-43.44
1554220688100,0.08619126,-2.2798786,9.106945,-0.058589544,-0.010652645,-0.029827405,-29.88,9.9,-43.44
1554220688121,0.12928689,-2.3277626000000002,9.09258,-0.04580637,-0.011717908999999999,-0.03195793,-29.88,9.96,-43.44
1554220688140,0.17717093,-2.3756466,9.207500999999999,-0.024501082,-0.008522116,-0.039414786,-29.82,10.02,-43.5
1554220688160,0.047884032,-2.3469162,9.121310000000001,0.00958738,-0.002130529,-0.05006743,-29.82,10.08,-43.5
1554220688180,0.076614454,-2.2080526000000003,9.059061,0.034088463,0.0053263223,-0.06285059999999999,-29.76,10.08,-43.5
1554220688200,0.090979666,-2.2176294,9.221867,0.029827405,0.01917476,-0.07563378,-29.76,10.14,-43.56
1554220688220,-0.07182605,-2.1362264,9.346364999999999,0.013848438000000001,0.03089267,-0.084155895,-29.7,10.14,-43.56
1554220688241,-0.1388637,-2.0021513,9.504382000000001,-0.002130529,0.033023197000000004,-0.08522116,-29.76,10.14,-43.56
1554220688260,-0.14844051,-1.8249803,9.461286999999999,-0.008522116,0.034088463,-0.06711166,-29.76,10.08,-43.56
1554220688280,-0.23463176,-1.9446903000000002,9.422979,-0.026631612000000002,0.029827405,-0.054328485999999995,-29.7,10.08,-43.56
1554220688300,-0.20111294,-1.8680758000000002,9.437345,-0.05006743,0.015978966,-0.043675844000000005,-29.76,10.02,-43.56
1554220688320,-0.13407529999999998,-2.0644004000000002,9.485228999999999,-0.05539375,0.010652645,-0.039414786,-29.76,10.02,-43.62
1554220688341,-0.07182605,-2.1505916000000003,9.399037,-0.027696876000000002,0.004261058,-0.036218993,-29.76,10.02,-43.62
1554220688360,-0.090979666,-2.1458032000000005,9.341577000000001,-0.002130529,-0.004261058,-0.03195793,-29.76,9.96,-43.62
1554220688380,-0.08619126,-2.212841,9.288903999999999,0.022370555,-0.01917476,-0.026631612000000002,-29.76,9.96,-43.62
1554220688400,0.0,-2.2319946,9.226655000000001,0.023435817999999997,-0.02130529,-0.03089267,-29.76,10.02,-43.62
1554220688420,0.11492168,-2.1745335999999997,9.154829,0.026631612000000002,-0.020240024,-0.03834952,-29.76,10.02,-43.68
1554220688440,-0.06703765,-2.1218612,9.269751,0.033023197000000004,-0.02130529,-0.04580637,-29.76,10.08,-43.68
1554220688460,-0.023942016,-2.1601684,9.221867,0.040480047000000005,-0.017044231,-0.05006743,-29.7,10.14,-43.68
1554220688480,0.08619126,-2.1458032000000005,9.274539,0.03089267,-0.008522116,-0.05965481,-29.7,10.26,-43.62
1554220688500,0.06703765,-2.0979192,9.269751,0.017044231,0.0031957934000000003,-0.06285059999999999,-29.7,10.32,-43.62
1554220688520,0.095768064,-2.0500352,9.284116000000001,0.013848438000000001,0.010652645,-0.06178534,-29.7,10.38,-43.62
1554220688540,-0.033518825,-2.0691888,9.322422999999999,0.014913702,0.015978966,-0.06285059999999999,-29.64,10.44,-43.62
1554220688561,-0.062249242999999996,-2.0213048,9.288903999999999,0.00958738,0.013848438000000001,-0.060720075,-29.64,10.44,-43.68
1554220688580,-0.019153614,-1.9494787,9.499594,-0.004261058,0.020240024,-0.05539375,-29.64,10.38,-43.74
1554220688600,-0.10055647,-2.0739772000000003,9.332,-0.022370555,0.018109497,-0.05539375,-29.64,10.32,-43.74
1554220688620,-0.047884032,-2.0931308,9.284116000000001,-0.033023197000000004,0.018109497,-0.056459017,-29.64,10.26,-43.8
1554220688640,-0.06703765,-2.0883423999999997,9.317635000000001,-0.026631612000000002,0.018109497,-0.056459017,-29.64,10.2,-43.86
1554220688661,-0.038307227,-2.131438,9.279327,-0.0063915867,0.00958738,-0.05539375,-29.64,10.14,-43.92
1554220688681,-0.10055647,-2.15538,9.370307,0.014913702,0.004261058,-0.053263225,-29.64,10.02,-43.92
1554220688700,0.009576807,-2.107496,9.250597,0.026631612000000002,-0.0010652645,-0.05006743,-29.64,10.02,-43.92
1554220688720,-0.05267244,-2.1841104,9.36073,0.027696876000000002,-0.002130529,-0.053263225,-29.7,9.96,-43.92
1554220688740,-0.16280572,-2.059612,9.284116000000001,0.02130529,-0.0063915867,-0.051132694000000006,-29.7,9.96,-43.86
1554220688760,-0.10534488,-1.9829974999999997,9.279327,0.012783173500000002,-0.0053263223,-0.047936900000000005,-29.7,9.96,-43.8
1554220688780,-0.090979666,-1.9590555,9.322422999999999,0.011717908999999999,-0.0031957934000000003,-0.043675844000000005,-29.7,9.9,-43.74
1554220688800,-0.08140286,-1.9829974999999997,9.461286999999999,0.01917476,-0.004261058,-0.036218993,-29.7,9.9,-43.68
1554220688820,-0.15322891,-1.9686323000000001,9.375095,0.020240024,-0.018109497,-0.034088463,-29.7,9.84,-43.68
1554220688840,-0.13407529999999998,-1.9925743000000002,9.250597,0.008522116,-0.020240024,-0.03195793,-29.76,9.84,-43.68
1554220688860,0.01436521,-2.059612,9.312846,-0.008522116,-0.020240024,-0.03195793,-29.82,9.84,-43.68
1554220688880,0.023942016,-2.1266496,9.231442999999999,-0.00958738,-0.020240024,-0.03089267,-29.82,9.78,-43.74
1554220688900,0.033518825,-2.15538,9.284116000000001,0.002130529,-0.014913702,-0.035153727999999995,-29.76,9.78,-43.74
1554220688920,-0.019153614,-2.1170728,9.221867,0.01917476,-0.004261058,-0.03834952,-29.7,9.78,-43.8
1554220688940,-0.05267244,-2.0739772000000003,9.341577000000001,0.03089267,-0.002130529,-0.043675844000000005,-29.7,9.78,-43.8
1554220688960,-0.062249242999999996,-2.0979192,9.226655000000001,0.029827405,-0.002130529,-0.051132694000000006,-29.64,9.78,-43.86
1554220688980,-0.047884032,-2.0883423999999997,9.245809,0.0063915867,0.002130529,-0.053263225,-29.58,9.78,-43.92
1554220689000,0.04309563,-2.131438,9.312846,-0.014913702,0.010652645,-0.056459017,-29.46,9.78,-43.92
1554220689021,-0.019153614,-2.179322,9.403825999999999,-0.01917476,0.018109497,-0.054328485999999995,-29.4,9.78,-43.92
1554220689040,-0.05267244,-2.0787656,9.226655000000001,-0.013848438000000001,0.026631612000000002,-0.051132694000000006,-29.34,9.78,-43.98
1554220689060,0.0047884034,-2.0308816000000003,9.260174000000001,-0.023435817999999997,0.03089267,-0.05752428,-29.4,9.84,-43.98
1554220689080,-0.05267244,-1.9590555,9.432556,-0.027696876000000002,0.027696876000000002,-0.05752428,-29.4,9.84,-44.04
1554220689100,-0.01436521,-2.0404584,9.370307,-0.03089267,0.024501082,-0.054328485999999995,-29.46,9.84,-44.04
1554220689120,-0.14844051,-1.963844,9.298480999999999,-0.034088463,0.02130529,-0.053263225,-29.46,9.9,-44.04
1554220689140,-0.11492168,-2.0165164,9.332,-0.040480047000000005,0.014913702,-0.054328485999999995,-29.46,9.9,-44.1
1554220689160,-0.04309563,-1.9015948,9.327211,-0.046871635999999994,0.010652645,-0.05539375,-29.52,9.9,-44.1
1554220689181,-0.12928689,-1.9925743000000002,9.394249,-0.039414786,0.0053263223,-0.053263225,-29.52,9.9,-44.1
1554220689200,-0.12928689,-2.1266496,9.250597,-0.037284255,-0.002130529,-0.05006743,-29.52,9.9,-44.04
1554220689220,-0.05746084,-2.1745335999999997,9.336788,-0.034088463,0.0053263223,-0.046871635999999994,-29.52,9.9,-44.04
1554220689240,-0.08140286,-2.1362264,9.336788,-0.02876214,0.0010652645,-0.043675844000000005,-29.52,9.9,-44.04
1554220689260,-0.06703765,-2.1888987999999996,9.231442999999999,-0.020240024,0.0053263223,-0.036218993,-29.52,9.84,-43.98
1554220689281,-0.11971009,-2.1170728,9.308058,-0.020240024,-0.0031957934000000003,-0.029827405,-29.52,9.78,-43.98
1554220689300,-0.15801731,-2.131438,9.312846,-0.024501082,-0.002130529,-0.03089267,-29.52,9.72,-43.92
1554220689320,-0.08619126,-2.1984756,9.312846,-0.03089267,-0.0053263223,-0.03195793,-29.52,9.66,-43.92
1554220689340,-0.01436521,-2.1458032000000005,9.241019999999999,-0.046871635999999994,-0.004261058,-0.034088463,-29.52,9.6,-43.86
1554220689360,-0.12449849,-2.15538,9.241019999999999,-0.05965481,-0.004261058,-0.040480047000000005,-29.52,9.48,-43.86
1554220689380,0.009576807,-2.2511482000000003,9.21229,-0.05965481,-0.0053263223,-0.04580637,-29.58,9.42,-43.92
1554220689401,0.07182605,-2.1410147999999998,9.111733000000001,-0.05965481,0.0,-0.056459017,-29.58,9.36,-43.86
1554220689420,0.14844051,-2.1936872000000003,9.264961999999999,-0.060720075,0.0031957934000000003,-0.06391586,-29.58,9.3,-43.92
1554220689440,0.02873042,-2.2750902,9.394249,-0.053263225,0.011717908999999999,-0.07030745599999999,-29.58,9.3,-43.92
1554220689460,-0.009576807,-2.2319946,9.351153,-0.04580637,0.023435817999999997,-0.07563378,-29.52,9.3,-43.92
1554220689480,-0.05267244,-2.1984756,9.178771000000001,-0.046871635999999994,0.02876214,-0.07989483,-29.58,9.3,-43.98
1554220689500,-0.21068975,-2.1266496,9.221867,-0.056459017,0.02876214,-0.07989483,-29.58,9.36,-43.98
1554220689521,-0.24420857,-2.1841104,9.245809,-0.07030745599999999,0.026631612000000002,-0.07563378,-29.64,9.42,-43.98
1554220689540,-0.21068975,-2.0883423999999997,9.327211,-0.08735169,0.018109497,-0.07030745599999999,-29.7,9.48,-43.92
1554220689560,-0.24899697,-2.308609,9.322422999999999,-0.08841695,0.008522116,-0.068176925,-29.7,9.54,-43.92
1554220689580,-0.25857377,-2.3900118,9.432556,-0.07350325,0.010652645,-0.05752428,-29.7,9.6,-43.86
1554220689600,-0.24899697,-2.4426842,9.264961999999999,-0.04580637,0.00958738,-0.046871635999999994,-29.7,9.66,-43.86
1554220689621,-0.2777274,-2.4666264,9.264961999999999,0.004261058,-0.0053263223,-0.036218993,-29.58,9.72,-43.86
1554220689640,-0.13407529999999998,-2.4139538,9.231442999999999,0.027696876000000002,-0.012783173500000002,-0.026631612000000002,-29.52,9.72,-43.86
1554220689661,-0.04309563,-2.332551,9.020754,0.04580637,-0.015978966,-0.022370555,-29.28,9.72,-43.92
1554220689680,-0.110133275,-2.380435,9.193136,0.051132694000000006,-0.017044231,-0.023435817999999997,-29.16,9.72,-43.98
1554220689700,-0.20590134,-2.2080526000000003,9.475652,0.06924219,-0.02130529,-0.011717908999999999,-29.1,9.72,-44.04
1554220689720,-0.17717093,-2.1745335999999997,9.399037,0.094808534,-0.033023197000000004,-0.0010652645,-29.1,9.72,-44.16
1554220689740,-0.11971009,-1.9207484000000001,9.365519,0.10333065,-0.039414786,0.0010652645,-29.1,9.72,-44.28
1554220689760,-0.047884032,-1.9829974999999997,9.039907000000001,0.07350325,-0.036218993,-0.010652645,-29.16,9.72,-44.34
1554220689780,0.062249242999999996,-2.1458032000000005,9.145252000000001,0.014913702,-0.034088463,-0.035153727999999995,-29.22,9.72,-44.34
1554220689800,0.019153614,-2.260725,9.279327,-0.024501082,-0.01917476,-0.051132694000000006,-29.34,9.66,-44.4
1554220689820,0.04309563,-2.4570496,9.231442999999999,-0.008522116,-0.002130529,-0.06285059999999999,-29.4,9.66,-44.4
1554220689840,-0.0047884034,-2.4474726,9.394249,0.026631612000000002,0.0,-0.07243799,-29.46,9.6,-44.4
1554220689860,0.0,-2.3900118,9.245809,0.06391586,0.010652645,-0.07989483,-29.46,9.6,-44.34
1554220689880,-0.1388637,-2.2750902,9.322422999999999,0.07882957,0.012783173500000002,-0.07776430000000001,-29.52,9.6,-44.28
1554220689900,-0.16759412,-2.1458032000000005,9.250597,0.07243799,0.012783173500000002,-0.07243799,-29.52,9.54,-44.16
1554220689920,-0.14844051,-2.0883423999999997,9.537901,0.06178534,0.0063915867,-0.07137272,-29.52,9.54,-44.04
1554220689941,-0.19632454,-2.1170728,9.389461,0.060720075,0.0053263223,-0.06924219,-29.52,9.54,-43.98
1554220689960,-0.20111294,-1.9829974999999997,9.427767999999999,0.06178534,-0.0031957934000000003,-0.06391586,-29.52,9.54,-43.92
1554220689980,-0.13407529999999998,-2.0931308,9.346364999999999,0.05006743,-0.008522116,-0.056459017,-29.52,9.54,-43.8
1554220690000,-0.14844051,-2.03567,9.346364999999999,0.029827405,-0.020240024,-0.05219796,-29.52,9.6,-43.74
1554220690020,-0.19632454,-2.0500352,9.241019999999999,0.025566347000000003,-0.025566347000000003,-0.043675844000000005,-29.52,9.6,-43.68
1554220690041,-0.1436521,-1.9686323000000001,9.418191,0.046871635999999994,-0.03834952,-0.03089267,-29.52,9.6,-43.74
1554220690060,-0.13407529999999998,-1.8489223000000001,9.221867,0.053263225,-0.04580637,-0.018109497,-29.52,9.6,-43.74
1554220690080,-0.1388637,-1.9063831999999998,9.288903999999999,0.035153727999999995,-0.04580637,-0.010652645,-29.58,9.66,-43.8
1554220690100,0.019153614,-1.9303252,9.312846,0.014913702,-0.049002163,-0.004261058,-29.64,9.72,-43.8
1554220690120,-0.02873042,-1.9255368000000002,9.207500999999999,-0.010652645,-0.04261058,-0.007456851,-29.64,9.72,-43.86
1554220690140,0.062249242999999996,-2.0021513,9.169194000000001,-0.043675844000000005,-0.027696876000000002,-0.007456851,-29.7,9.78,-43.92
1554220690160,0.07182605,-1.963844,9.121310000000001,-0.06924219,-0.01917476,-0.011717908999999999,-29.76,9.78,-43.86
1554220690180,-0.01436521,-2.1649568,9.126099,-0.096939065,-0.0063915867,-0.014913702,-29.76,9.78,-43.86
1554220690200,0.023942016,-2.203264,9.207500999999999,-0.11611383,-0.0053263223,-0.025566347000000003,-29.82,9.78,-43.8
1554220690220,0.0,-2.2080526000000003,9.097368,-0.1107875,-0.002130529,-0.02876214,-29.82,9.72,-43.8
1554220690240,-0.047884032,-2.212841,9.178771000000001,-0.099069595,-0.002130529,-0.023435817999999997,-29.82,9.66,-43.8
1554220690260,-0.13407529999999998,-2.4283189999999997,9.341577000000001,-0.10226539,0.0,-0.023435817999999997,-29.82,9.6,-43.8
1554220690280,-0.07182605,-2.3756466,9.494805,-0.08948222,-0.00958738,-0.034088463,-29.76,9.54,-43.8
1554220690300,-0.047884032,-2.3852234,9.432556,-0.05752428,-0.007456851,-0.034088463,-29.76,9.48,-43.74
1554220690320,-0.07182605,-2.3373394,9.370307,-0.022370555,-0.010652645,-0.027696876000000002,-29.76,9.42,-43.8
1554220690340,-0.009576807,-2.4426842,9.298480999999999,0.007456851,-0.008522116,-0.029827405,-29.82,9.36,-43.8
1554220690360,0.08619126,-2.4187422,9.312846,0.02130529,-0.0053263223,-0.03834952,-29.82,9.3,-43.8
1554220690380,0.038307227,-2.3708582000000002,9.087791000000001,0.018109497,0.010652645,-0.03834952,-29.82,9.24,-43.8
1554220690400,-0.06703765,-2.2463598,9.173983,0.007456851,0.017044231,-0.035153727999999995,-29.88,9.18,-43.74
1554220690420,-0.05746084,-2.1410147999999998,9.293693,0.002130529,0.018109497,-0.04261058,-29.88,9.12,-43.68
1554220690440,-0.15322891,-2.212841,9.21229,-0.0063915867,0.013848438000000001,-0.04261058,-29.88,9.06,-43.62
1554220690460,-0.18195933,-2.1649568,9.442133,0.0,0.0063915867,-0.043675844000000005,-29.94,9.0,-43.56
1554220690480,-0.05267244,-2.203264,9.490017,0.03195793,0.0031957934000000003,-0.037284255,-29.88,9.0,-43.5
1554220690500,-0.05267244,-2.0931308,9.288903999999999,0.049002163,0.008522116,-0.033023197000000004,-29.88,9.0,-43.5
1554220690520,-0.01436521,-2.0883423999999997,9.375095,0.01917476,0.00958738,-0.039414786,-29.88,9.06,-43.5
1554220690541,-0.009576807,-2.1218612,9.264961999999999,-0.007456851,0.018109497,-0.04474111,-29.88,9.12,-43.5
1554220690560,-0.10055647,-2.0979192,9.207500999999999,-0.02876214,0.03195793,-0.043675844000000005,-29.88,9.18,-43.56
1554220690580,-0.17238252,-2.059612,9.111733000000001,-0.06391586,0.053263225,-0.04580637,-29.88,9.24,-43.56
1554220690600,-0.14844051,-2.1888987999999996,9.375095,-0.113983296,0.041545313,-0.047936900000000005,-29.88,9.3,-43.56
1554220690620,-0.14844051,-2.3373394,9.188348,-0.11717909,0.03834952,-0.05752428,-29.94,9.36,-43.56
1554220690641,-0.24420857,-2.3756466,9.322422999999999,-0.060720075,0.036218993,-0.05752428,-29.94,9.36,-43.62
1554220690660,-0.2873042,-2.3660697999999996,9.341577000000001,0.004261058,0.036218993,-0.054328485999999995,-29.94,9.3,-43.62
1554220690680,-0.33518824,-2.4091654,9.250597,0.03195793,0.01917476,-0.04580637,-29.94,9.3,-43.62
1554220690700,-0.1436521,-2.1936872000000003,9.207500999999999,0.024501082,0.024501082,-0.040480047000000005,-29.94,9.3,-43.62
1554220690720,-0.05267244,-2.1505916000000003,9.073426,-0.0063915867,0.027696876000000002,-0.034088463,-29.94,9.3,-43.62
1554220690740,-0.11492168,-2.1505916000000003,9.197925,-0.027696876000000002,0.025566347000000003,-0.02876214,-29.94,9.24,-43.62
1554220690760,-0.18195933,-2.2703017999999995,9.312846,-0.03195793,0.015978966,-0.02130529,-29.94,9.24,-43.62
1554220690780,-0.13407529999999998,-2.4139538,9.370307,-0.013848438000000001,-0.015978966,-0.023435817999999997,-29.94,9.24,-43.56
1554220690800,-0.16280572,-2.4139538,9.566631,0.02876214,-0.020240024,-0.024501082,-29.88,9.24,-43.56
1554220690820,-0.05267244,-2.2415714,9.293693,0.07137272,-0.02130529,-0.018109497,-29.76,9.3,-43.56
1554220690840,-0.08619126,-2.2224178,9.217078,0.08522116,-0.017044231,-0.018109497,-29.7,9.3,-43.56
1554220690860,-0.10534488,-2.15538,9.121310000000001,0.07563378,-0.025566347000000003,-0.03195793,-29.64,9.36,-43.56
1554220690881,-0.033518825,-2.1362264,9.250597,0.07243799,-0.02130529,-0.04474111,-29.58,9.36,-43.56
1554220690900,-0.05267244,-2.0979192,9.308058,0.07137272,-0.015978966,-0.05219796,-29.52,9.36,-43.56
1554220690920,-0.047884032,-2.1218612,9.236232000000001,0.04474111,0.002130529,-0.058589544,-29.46,9.42,-43.56
1554220690940,-0.07182605,-2.0500352,9.221867,0.0031957934000000003,0.013848438000000001,-0.06178534,-29.46,9.42,-43.56
1554220690960,-0.095768064,-2.0691888,9.145252000000001,-0.027696876000000002,0.020240024,-0.07243799,-29.52,9.36,-43.62
1554220690980,-0.10534488,-2.1936872000000003,9.389461,-0.04474111,0.020240024,-0.07776430000000001,-29.58,9.36,-43.62
1554220691001,-0.18674773,-2.1458032000000005,9.293693,-0.051132694000000006,0.018109497,-0.07243799,-29.64,9.36,-43.68
1554220691020,-0.12928689,-2.2176294,9.293693,-0.06711166,0.026631612000000002,-0.06711166,-29.64,9.3,-43.74
1554220691040,-0.19632454,-2.2415714,9.274539,-0.07456851,0.039414786,-0.06285059999999999,-29.7,9.3,-43.74
1554220691060,-0.19632454,-2.2319946,9.274539,-0.07669904,0.046871635999999994,-0.053263225,-29.76,9.24,-43.8
1554220691080,-0.29209262,-2.203264,9.121310000000001,-0.084155895,0.049002163,-0.047936900000000005,-29.76,9.18,-43.8
1554220691100,-0.31603462,-2.3612813999999998,9.183558999999999,-0.08841695,0.035153727999999995,-0.054328485999999995,-29.7,9.18,-43.86
1554220691121,-0.35913026,-2.4570496,9.288903999999999,-0.09267801,0.015978966,-0.06711166,-29.76,9.12,-43.86
1554220691140,-0.320823,-2.5767596,9.322422999999999,-0.083090626,0.0010652645,-0.07137272,-29.76,9.12,-43.92
1554220691160,-0.24899697,-2.6629508,9.403825999999999,-0.047936900000000005,-0.0063915867,-0.07137272,-29.76,9.12,-43.92
1554220691180,-0.21547815,-2.5384523999999997,9.231442999999999,0.010652645,-0.0053263223,-0.06711166,-29.82,9.06,-43.92
1554220691200,-0.24899697,-2.48578,9.274539,0.068176925,-0.014913702,-0.054328485999999995,-29.88,9.06,-43.98
1554220691220,-0.19632454,-2.4378957999999997,9.336788,0.101200126,-0.014913702,-0.04474111,-29.88,9.0,-43.98
1554220691241,-0.14844051,-2.2511482000000003,9.279327,0.10013486,-0.017044231,-0.034088463,-29.94,8.94,-43.98
1554220691260,-0.17238252,-2.1841104,9.154829,0.09161274,-0.018109497,-0.027696876000000002,-29.94,8.88,-43.92
1554220691280,-0.11971009,-2.2559366,9.279327,0.08948222,-0.022370555,-0.023435817999999997,-29.94,8.82,-43.86
1554220691300,-0.14844051,-1.9877859,9.432556,0.09054748,-0.027696876000000002,-0.029827405,-29.94,8.76,-43.86
1554220691320,-0.16280572,-2.0213048,9.264961999999999,0.09267801,-0.03089267,-0.036218993,-29.88,8.64,-43.8
1554220691341,-0.17238252,-2.0691888,9.241019999999999,0.083090626,-0.02130529,-0.04580637,-29.82,8.58,-43.74
1554220691360,-0.23463176,-1.963844,9.21229,0.06604639400000001,-0.018109497,-0.054328485999999995,-29.82,8.52,-43.74
1554220691380,-0.17717093,-2.1410147999999998,9.260174000000001,0.02130529,-0.020240024,-0.07137272,-29.76,8.52,-43.68
1554220691401,-0.14844051,-2.212841,9.183558999999999,-0.010652645,-0.017044231,-0.083090626,-29.76,8.52,-43.68
1554220691420,-0.047884032,-2.2080526000000003,9.274539,-0.01917476,-0.022370555,-0.084155895,-29.76,8.52,-43.62
1554220691440,-0.05267244,-2.2798786,9.341577000000001,0.012783173500000002,-0.011717908999999999,-0.08628642,-29.82,8.58,-43.62
1554220691460,-0.17717093,-2.203264,9.183558999999999,0.04474111,-0.012783173500000002,-0.07989483,-29.82,8.64,-43.62
1554220691480,-0.06703765,-2.1936872000000003,9.145252000000001,0.060720075,-0.00958738,-0.06924219,-29.88,8.7,-43.62
1554220691502,-0.10055647,-2.1458032000000005,9.399037,0.06391586,-0.0053263223,-0.060720075,-29.88,8.76,-43.56
1554220691520,-0.033518825,-2.1218612,9.269751,0.04580637,-0.0063915867,-0.053263225,-29.88,8.76,-43.56
1554220691540,-0.08619126,-2.1218612,9.351153,0.023435817999999997,-0.0053263223,-0.043675844000000005,-29.88,8.76,-43.56
1554220691560,-0.095768064,-2.0883423999999997,9.183558999999999,0.00958738,-0.0010652645,-0.03834952,-29.88,8.7,-43.56
1554220691580,-0.14844051,-2.0404584,9.241019999999999,0.0063915867,-0.0053263223,-0.034088463,-29.82,8.46,-43.56
1554220691600,-0.18674773,-2.0260932,9.188348,0.0063915867,-0.0031957934000000003,-0.036218993,-29.82,8.28,-43.56
1554220691620,-0.21068975,-1.9925743000000002,9.293693,-0.002130529,-0.0010652645,-0.039414786,-29.82,8.04,-43.62
1554220691640,-0.24899697,-1.9829974999999997,9.322422999999999,-0.0063915867,0.0063915867,-0.04474111,-29.82,7.86,-43.62
1554220691660,-0.13407529999999998,-2.107496,9.308058,0.002130529,0.007456851,-0.049002163,-29.88,7.8,-43.62
1554220691680,-0.038307227,-2.1505916000000003,9.341577000000001,0.0063915867,0.015978966,-0.053263225,-29.88,7.74,-43.62
1554220691700,-0.11492168,-2.0069396,9.288903999999999,-0.0063915867,0.023435817999999997,-0.056459017,-29.94,7.68,-43.62
1554220691722,-0.033518825,-2.0931308,9.169194000000001,-0.03089267,0.027696876000000002,-0.053263225,-29.94,7.74,-43.62
1554220691740,-0.16759412,-2.059612,9.226655000000001,-0.043675844000000005,0.025566347000000003,-0.05752428,-30.0,7.92,-43.62
1554220691760,-0.15801731,-2.179322,9.250597,-0.051132694000000006,0.01917476,-0.06178534,-30.0,8.04,-43.62
1554220691780,-0.20590134,-2.2080526000000003,9.317635000000001,-0.043675844000000005,0.011717908999999999,-0.05752428,-30.0,8.22,-43.62
1554220691801,-0.12449849,-2.203264,9.375095,-0.025566347000000003,0.012783173500000002,-0.056459017,-30.0,8.28,-43.62
1554220691820,-0.19632454,-2.1936872000000003,9.293693,-0.017044231,0.00958738,-0.054328485999999995,-30.0,8.28,-43.62
1554220691840,-0.11971009,-2.1505916000000003,9.264961999999999,-0.020240024,0.010652645,-0.05539375,-30.0,8.28,-43.62
1554220691860,-0.21547815,-2.260725,9.322422999999999,-0.029827405,0.0063915867,-0.047936900000000005,-30.0,8.28,-43.62
1554220691880,-0.22026655,-2.1888987999999996,9.322422999999999,-0.023435817999999997,0.010652645,-0.04580637,-30.0,8.22,-43.62
1554220691900,-0.22505496,-2.1888987999999996,9.288903999999999,-0.007456851,0.0053263223,-0.04261058,-30.0,8.22,-43.62
1554220691921,-0.15801731,-2.179322,9.298480999999999,0.004261058,0.002130529,-0.040480047000000005,-30.0,8.28,-43.62
1554220691940,-0.25857377,-2.0739772000000003,9.221867,0.00958738,0.0010652645,-0.041545313,-30.0,8.34,-43.62
1554220691960,-0.23463176,-2.2080526000000003,9.130887,0.012783173500000002,0.004261058,-0.04474111,-29.94,8.46,-43.62
1554220691981,-0.24420857,-2.1458032000000005,9.399037,0.0010652645,-0.0053263223,-0.05006743,-29.88,8.52,-43.68
