TimeStamp,Ax,Ay,Az,Gx,Gy,Gz,Mx,My,Mz
1554220042303,6.804321300000001,-5.4881085999999994,4.7542860000000005,-0.17257284,0.4101268,-0.4282363,-44.34,-3.48,-19.92
1554220042324,6.6750345,-5.4545900000000005,4.960187400000001,-0.30892670000000005,0.45806372,-0.40586576,-44.28,-3.54,-19.86
1554220042343,6.789956,-5.3396683,5.295376,-0.36432046,0.47936899999999993,-0.38882150000000004,-44.28,-3.6,-19.86
1554220042363,6.789956,-5.3396683,5.295376,-0.36432046,0.47936899999999993,-0.38882150000000004,-44.28,-3.6,-19.86
1554220042384,6.789956,-5.3396683,5.295376,-0.36432046,0.47936899999999993,-0.38882150000000004,-44.28,-3.6,-19.86
1554220042403,6.4260373,-5.349245,5.3049526,0.039414786,0.60720074,-0.26631612,-44.34,-3.78,-19.86
1554220042424,6.1578870000000006,-5.0906715,4.8069587,0.21092236,0.5933523,-0.21837921,-44.34,-4.14,-19.92
1554220042442,6.143522,-4.875193,4.6633059999999995,0.24501082,0.5603291,-0.1768339,-44.34,-4.56,-20.16
1554220042462,5.9280434,-5.0092683,4.3903675,0.2130529,0.4825648,-0.12463594,-44.34,-5.1,-20.46
1554220042484,6.066907,-4.851251,4.490924,0.18535602,0.37923414,-0.06924219,-44.4,-5.64,-20.94
1554220042502,6.2392898,-4.918288700000001,4.3807906999999995,0.19068234,0.25246766,-0.013848438000000001,-44.4,-6.18,-21.48
1554220042522,6.244078,-4.9374423,4.5723267,0.20026971,0.12676647,0.034088463,-44.46,-6.72,-22.02
1554220042543,6.354211299999999,-4.7602715,4.648941000000001,0.1949434,-0.002130529,0.07989483,-44.46,-7.2,-22.44
1554220042562,6.483498,-5.1002483,4.4765587,0.06285059999999999,-0.10439592,0.12570119999999999,-44.52,-7.62,-22.92
1554220042582,6.4164605,-5.492897,4.759074,-0.03195793,-0.18002969,0.14061491,-44.52,-7.68,-23.34
1554220042603,6.4020953,-5.4258595000000005,4.8261123,0.04580637,-0.26844665,0.16192019,-44.58,-7.68,-23.7
1554220042623,6.3446345,-5.401917500000001,4.883573,0.07563378,-0.30466563,0.16831179,-44.58,-7.56,-23.94
1554220042644,6.3925184999999995,-5.401917500000001,4.8452660000000005,0.06498113,-0.314253,0.16831179,-44.52,-7.38,-24.0
1554220042663,6.3685765,-5.502473999999999,4.869208,0.023435817999999997,-0.29507825,0.16192019,-44.52,-7.14,-24.0
1554220042684,6.315904,-5.607819,4.7734394,-0.00958738,-0.26525086,0.1587244,-44.58,-6.9,-23.88
1554220042703,6.4068837,-5.54557,4.6393642,-0.024501082,-0.22583607,0.15339808,-44.58,-6.72,-23.82
1554220042723,6.3685765,-5.4545900000000005,4.7782279999999995,-0.039414786,-0.18535602,0.1470065,-44.58,-6.48,-23.76
1554220042743,6.459556,-5.497685400000001,4.648941000000001,-0.04261058,-0.13741912,0.13635385,-44.58,-6.24,-23.7
1554220042763,6.483498,-5.507262,4.5435963,-0.02876214,-0.08841695,0.112918034,-44.52,-6.06,-23.58
1554220042782,6.531382,-5.478532,4.524442700000001,-0.017044231,-0.04580637,0.08735169,-44.52,-5.82,-23.46
1554220042804,6.435614,-5.430648000000001,4.23235,-0.029827405,-0.010652645,0.06604639400000001,-44.52,-5.64,-23.34
1554220042824,6.4212489999999995,-5.555146700000001,4.2945995,-0.049002163,0.017044231,0.049002163,-44.52,-5.4,-23.16
1554220042843,6.4212489999999995,-5.555146700000001,4.3329067000000006,-0.05752428,0.040480047000000005,0.025566347000000003,-44.46,-5.22,-22.98
1554220042864,6.3302693,-5.6844335,4.490924,-0.05752428,0.058589544,0.002130529,-44.4,-5.04,-22.86
1554220042884,6.4643445,-5.5264163,4.4765587,-0.05965481,0.068176925,-0.020240024,-44.4,-4.92,-22.68
1554220042903,6.4499793,-5.579088700000001,4.7159786,-0.047936900000000005,0.08948222,-0.03834952,-44.46,-4.8,-22.5
1554220042923,6.363788,-5.6604915,4.5675383,-0.049002163,0.099069595,-0.051132694000000006,-44.46,-4.74,-22.32
1554220042943,6.315904,-5.579088700000001,4.586692,-0.06285059999999999,0.113983296,-0.054328485999999995,-44.46,-4.74,-22.2
1554220042963,6.3446345,-5.6030307,4.6393642,-0.058589544,0.12144015,-0.05752428,-44.52,-4.68,-22.14
1554220042984,6.26802,-5.555146700000001,4.768651,-0.04474111,0.11930962,-0.05752428,-44.46,-4.62,-22.14
1554220043002,6.2105594,-5.535993,4.7207669999999995,-0.03089267,0.1107875,-0.05752428,-44.46,-4.56,-22.2
1554220043022,6.339846,-5.5168395,4.8165355000000005,-0.014913702,0.10226539,-0.056459017,-44.34,-4.56,-22.26
1554220043043,6.349423000000001,-5.512050599999999,4.735132,-0.00958738,0.09374327,-0.054328485999999995,-44.28,-4.5,-22.32
1554220043062,6.349423000000001,-5.5168395,4.7207669999999995,-0.02876214,0.080960095,-0.05539375,-44.1,-4.38,-22.5
1554220043082,6.3685765,-5.583876999999999,4.979341000000001,-0.037284255,0.07243799,-0.05752428,-44.1,-4.38,-22.56
1554220043102,6.3829417,-5.5264163,4.979341000000001,-0.029827405,0.058589544,-0.058589544,-43.98,-4.32,-22.62
1554220043123,6.2392898,-5.54557,4.854842700000001,-0.013848438000000001,0.047936900000000005,-0.06604639400000001,-43.92,-4.32,-22.74
1554220043143,6.26802,-5.445012999999999,4.988918,-0.0031957934000000003,0.033023197000000004,-0.07137272,-43.92,-4.32,-22.8
1554220043164,6.3111157,-5.4258595000000005,4.859630999999999,0.002130529,0.023435817999999997,-0.07989483,-43.92,-4.32,-22.92
1554220043182,6.349423000000001,-5.401917500000001,4.955399,0.0,0.015978966,-0.08735169,-43.98,-4.32,-22.98
1554220043203,6.315904,-5.497685400000001,5.0320134,-0.017044231,0.017044231,-0.09374327,-43.98,-4.32,-23.04
1554220043223,6.272808599999999,-5.497685400000001,4.912303400000001,-0.025566347000000003,0.012783173500000002,-0.099069595,-44.04,-4.32,-23.1
1554220043243,6.339846,-5.48332,4.9745526,-0.0063915867,0.0053263223,-0.101200126,-44.04,-4.32,-23.16
1554220043263,6.2823853,-5.4210709999999995,5.137358,0.02130529,0.002130529,-0.10652645,-44.04,-4.32,-23.22
1554220043283,6.320692500000001,-5.3205147,5.060744000000001,0.05539375,0.007456851,-0.10865697,-44.04,-4.38,-23.28
1554220043305,6.2009826,-5.3061495,4.8261123,0.07989483,0.008522116,-0.10439592,-44.1,-4.38,-23.28
1554220043322,6.220136,-5.4114943,5.065532,0.07882957,0.0053263223,-0.10013486,-44.1,-4.38,-23.28
1554220043344,6.291962,-5.282207499999999,5.0559554,0.068176925,-0.0010652645,-0.09161274,-44.1,-4.38,-23.34
1554220043363,6.244078,-5.3779755,4.907515,0.083090626,-0.0010652645,-0.09054748,-44.1,-4.44,-23.4
1554220043383,6.2488665999999995,-5.3540335,5.065532,0.09374327,-0.004261058,-0.07776430000000001,-44.1,-4.5,-23.46
1554220043402,6.2967505,-5.349245,5.0942625999999995,0.11717909,-0.0063915867,-0.05752428,-44.1,-4.56,-23.46
1554220043422,6.244078,-5.2103815,5.060744000000001,0.13102753,-0.010652645,-0.046871635999999994,-44.1,-4.62,-23.52
1554220043442,6.2392898,-5.263054,5.01286,0.10546118,-0.023435817999999997,-0.017044231,-44.1,-4.68,-23.58
1554220043462,6.229712999999999,-5.2917843,4.988918,0.07456851,-0.037284255,0.008522116,-44.1,-4.74,-23.64
1554220043483,6.229712999999999,-5.1816510000000005,5.0320134,0.06711166,-0.051132694000000006,0.027696876000000002,-44.1,-4.74,-23.7
1554220043502,6.191406,-5.2917843,5.01286,0.07563378,-0.058589544,0.03834952,-44.1,-4.8,-23.64
1554220043522,6.2153480000000005,-5.3923407,5.175665400000001,0.094808534,-0.06604639400000001,0.04474111,-44.16,-4.8,-23.64
1554220043542,6.291962,-5.3779755,5.185242,0.111852765,-0.07456851,0.046871635999999994,-44.16,-4.86,-23.58
1554220043563,6.3302693,-5.325303,4.9027267,0.10013486,-0.07989483,0.04261058,-44.16,-4.86,-23.58
1554220043582,6.38773,-5.406706,5.075108999999999,0.07137272,-0.082025364,0.036218993,-44.16,-4.86,-23.52
1554220043602,6.4212489999999995,-5.4210709999999995,5.0942625999999995,0.06498113,-0.084155895,0.03089267,-44.22,-4.86,-23.46
1554220043623,6.4020953,-5.4545900000000005,5.0942625999999995,0.07669904,-0.07989483,0.022370555,-44.22,-4.86,-23.46
1554220043642,6.569689299999999,-5.33488,4.941033999999999,0.082025364,-0.07882957,0.008522116,-44.28,-4.86,-23.46
1554220043663,6.4164605,-5.3636102999999995,5.180454,0.082025364,-0.068176925,-0.010652645,-44.34,-4.86,-23.46
1554220043683,6.540959,-5.3683987,5.003283000000001,0.08735169,-0.053263225,-0.02876214,-44.34,-4.86,-23.46
1554220043703,6.493075,-5.3396683,4.979341000000001,0.08522116,-0.037284255,-0.04474111,-44.4,-4.86,-23.46
1554220043723,6.622362,-5.3061495,4.907515,0.07776430000000001,-0.02876214,-0.06604639400000001,-44.46,-4.86,-23.4
1554220043743,6.679823,-5.3444567,4.9027267,0.06498113,-0.008522116,-0.094808534,-44.52,-4.8,-23.34
1554220043763,6.5601125,-5.253476999999999,4.926668599999999,0.04261058,0.013848438000000001,-0.12783173,-44.52,-4.68,-23.22
1554220043783,6.564901,-5.172074299999999,4.854842700000001,0.017044231,0.024501082,-0.14487597,-44.58,-4.56,-23.16
1554220043802,6.4787097000000005,-5.1960163,4.8452660000000005,-0.03195793,0.036218993,-0.17257284,-44.58,-4.44,-23.1
1554220043822,6.4068837,-5.1002483,4.9937059999999995,-0.06711166,0.041545313,-0.18855181,-44.58,-4.32,-22.98
1554220043843,6.315904,-5.3061495,4.8165355000000005,-0.098004326,0.040480047000000005,-0.18109496,-44.58,-4.26,-22.92
1554220043862,6.1387334000000005,-5.0763063,4.6393642,-0.11611383,0.015978966,-0.18748654,-44.58,-4.2,-22.92
1554220043883,6.167464,-5.1146135,4.8261123,-0.14807177,0.01917476,-0.18961707,-44.58,-4.2,-22.98
1554220043903,6.191406,-5.2917843,5.0080714,-0.14594123,0.00958738,-0.14168017,-44.58,-4.32,-23.04
1554220043924,6.4404025,-5.286996,4.926668599999999,-0.098004326,-0.002130529,-0.12357068,-44.58,-4.5,-23.16
1554220043942,6.3063273,-5.2343235,4.9458222,-0.06178534,-0.0053263223,-0.10652645,-44.58,-4.56,-23.16
1554220043963,6.339846,-5.1529207,4.821324,-0.03089267,-0.033023197000000004,-0.08948222,-44.58,-4.8,-23.22
1554220043982,6.3302693,-5.2103815,4.7399206,-0.029827405,-0.07776430000000001,-0.053263225,-44.58,-5.1,-23.34
1554220044003,6.378153299999999,-5.21517,4.89315,-0.036218993,-0.10546118,-0.027696876000000002,-44.58,-5.22,-23.34
1554220044023,6.4212489999999995,-5.286996,4.8021703,-0.03089267,-0.12357068,-0.0063915867,-44.58,-5.4,-23.34
1554220044042,6.378153299999999,-5.2582655,4.888361499999999,-0.007456851,-0.128897,0.0031957934000000003,-44.52,-5.46,-23.34
1554220044063,6.430825700000001,-5.205593,4.835689,0.013848438000000001,-0.13102753,0.008522116,-44.52,-5.58,-23.34
1554220044083,6.445191,-5.239112,4.7878050000000005,0.017044231,-0.13102753,0.013848438000000001,-44.52,-5.64,-23.28
1554220044103,6.38773,-5.2343235,4.821324,0.00958738,-0.12570119999999999,0.014913702,-44.52,-5.64,-23.28
1554220044123,6.5218053,-5.2582655,4.7255554,0.0,-0.11611383,0.008522116,-44.52,-5.64,-23.22
1554220044144,6.622362,-5.2678423,4.7494974,-0.004261058,-0.10333065,-0.0053263223,-44.52,-5.7,-23.22
1554220044163,6.622362,-5.3061495,4.797382,-0.002130529,-0.08735169,-0.015978966,-44.52,-5.7,-23.16
1554220044182,6.5505357,-5.3300915,4.68246,0.0010652645,-0.07669904,-0.026631612000000002,-44.52,-5.7,-23.16
1554220044203,6.540959,-5.253476999999999,4.8787847,0.004261058,-0.05219796,-0.037284255,-44.52,-5.7,-23.1
1554220044223,6.564901,-5.1768627,4.8021703,0.0010652645,-0.035153727999999995,-0.046871635999999994,-44.52,-5.7,-23.1
1554220044243,6.617573299999999,-5.33488,4.7734394,-0.0031957934000000003,-0.02130529,-0.053263225,-44.52,-5.7,-23.04
1554220044263,6.5840545,-5.3779755,4.7734394,-0.010652645,-0.002130529,-0.056459017,-44.46,-5.7,-22.98
1554220044283,6.631939,-5.224746700000001,4.821324,-0.012783173500000002,0.007456851,-0.056459017,-44.46,-5.7,-22.92
1554220044302,6.517017,-5.286996,4.7016134,0.0031957934000000003,0.018109497,-0.051132694000000006,-44.4,-5.7,-22.86
1554220044323,6.540959,-5.205593,4.8069587,0.008522116,0.022370555,-0.05219796,-44.34,-5.7,-22.74
1554220044345,6.5361705,-5.248688700000001,4.7734394,0.0053263223,0.02130529,-0.047936900000000005,-44.34,-5.64,-22.68
1554220044363,6.4739213,-5.172074299999999,4.869208,-0.0063915867,0.01917476,-0.041545313,-44.34,-5.64,-22.56
1554220044383,6.517017,-5.143344,4.9984946,-0.011717908999999999,0.00958738,-0.035153727999999995,-44.34,-5.64,-22.5
1554220044403,6.531382,-5.2726307,4.7734394,0.002130529,-0.0031957934000000003,-0.02876214,-44.34,-5.58,-22.44
1554220044423,6.5601125,-5.239112,4.835689,0.014913702,-0.0053263223,-0.024501082,-44.34,-5.58,-22.44
1554220044442,6.5505357,-5.373187000000001,5.0463786,0.022370555,-0.015978966,-0.01917476,-44.34,-5.52,-22.44
1554220044463,6.5505357,-5.373187000000001,4.89315,0.043675844000000005,-0.026631612000000002,-0.018109497,-44.34,-5.52,-22.5
1554220044483,6.5218053,-5.277419,4.955399,0.06604639400000001,-0.04580637,-0.010652645,-44.34,-5.52,-22.56
1554220044503,6.497863300000001,-5.248688700000001,4.835689,0.07456851,-0.054328485999999995,-0.002130529,-44.34,-5.46,-22.62
1554220044523,6.5122285,-5.2582655,4.9506106,0.06178534,-0.07456851,0.011717908999999999,-44.34,-5.46,-22.56
1554220044543,6.469133,-5.349245,4.8404775,0.053263225,-0.09161274,0.020240024,-44.34,-5.4,-22.5
1554220044563,6.531382,-5.277419,4.8021703,0.06498113,-0.10865697,0.024501082,-44.34,-5.34,-22.44
1554220044583,6.5218053,-5.2965727,4.7925935,0.082025364,-0.12037488,0.025566347000000003,-44.4,-5.28,-22.38
1554220044603,6.5026517,-5.239112,4.821324,0.083090626,-0.13422333,0.029827405,-44.4,-5.22,-22.32
1554220044623,6.5744777,-5.286996,4.7830167,0.07776430000000001,-0.1470065,0.02876214,-44.4,-5.1,-22.26
1554220044643,6.50744,-5.3157263,4.706402,0.07243799,-0.15552860000000002,0.024501082,-44.4,-5.04,-22.14
1554220044663,6.5792660000000005,-5.310938,4.6154222,0.06178534,-0.16405073,0.01917476,-44.34,-4.98,-22.08
1554220044683,6.4787097000000005,-5.263054,4.6154222,0.04580637,-0.16192019,0.012783173500000002,-44.34,-4.92,-22.08
1554220044703,6.5792660000000005,-5.282207499999999,4.5483847,0.03834952,-0.16192019,0.004261058,-44.34,-4.92,-22.02
1554220044723,6.588842999999999,-5.3444567,4.7782279999999995,0.027696876000000002,-0.15765914,0.0063915867,-44.34,-4.86,-21.96
1554220044743,6.703765,-5.2965727,4.8261123,0.018109497,-0.15126756,0.011717908999999999,-44.28,-4.8,-21.9
1554220044763,6.794744500000001,-5.430648000000001,4.5723267,0.018109497,-0.13848437,0.0063915867,-44.28,-4.8,-21.84
1554220044783,6.655881,-5.3636102999999995,4.7542860000000005,0.023435817999999997,-0.12570119999999999,0.0031957934000000003,-44.28,-4.8,-21.72
1554220044802,6.564901,-5.3205147,4.735132,0.022370555,-0.12357068,0.0063915867,-44.22,-4.74,-21.66
1554220044823,6.5218053,-5.3157263,4.6202106,0.011717908999999999,-0.113983296,0.011717908999999999,-44.22,-4.74,-21.54
1554220044842,6.531382,-5.3636102999999995,4.577115,0.0063915867,-0.10865697,0.010652645,-44.22,-4.74,-21.48
1554220044862,6.555324000000001,-5.3396683,4.624999,0.00958738,-0.101200126,0.014913702,-44.22,-4.74,-21.3
1554220044883,6.631939,-5.286996,4.706402,0.011717908999999999,-0.09054748,0.013848438000000001,-44.22,-4.74,-21.18
1554220044903,6.655881,-5.325303,4.634576,0.012783173500000002,-0.082025364,0.00958738,-44.22,-4.68,-21.12
1554220044924,6.6415157,-5.349245,4.5819035,0.022370555,-0.07243799,-0.0010652645,-44.22,-4.68,-21.0
1554220044943,6.612785000000001,-5.282207499999999,4.5340195,0.023435817999999997,-0.06711166,-0.0053263223,-44.28,-4.62,-20.88
1554220044963,6.6941880000000005,-5.373187000000001,4.447828299999999,0.0010652645,-0.06391586,-0.00958738,-44.28,-4.56,-20.82
1554220044982,6.708553299999999,-5.3061495,4.4621935,-0.015978966,-0.06924219,-0.014913702,-44.34,-4.44,-20.76
1554220045003,6.5361705,-5.382764,4.4286747,-0.011717908999999999,-0.068176925,-0.01917476,-44.4,-4.38,-20.76
1554220045023,6.603208,-5.277419,4.5962687,0.004261058,-0.06391586,-0.022370555,-44.46,-4.26,-20.76
1554220045043,6.5840545,-5.224746700000001,4.529230999999999,0.004261058,-0.05965481,-0.023435817999999997,-44.46,-4.2,-20.76
1554220045062,6.5840545,-5.2726307,4.4957123,-0.0031957934000000003,-0.05539375,-0.02130529,-44.46,-4.14,-20.76
1554220045083,6.617573299999999,-5.3540335,4.4621935,0.0053263223,-0.047936900000000005,-0.020240024,-44.46,-4.02,-20.7
1554220045103,6.670246000000001,-5.248688700000001,4.447828299999999,0.004261058,-0.04580637,-0.015978966,-44.46,-3.96,-20.7
1554220045123,6.770802499999999,-5.3971290000000005,4.5340195,-0.0010652645,-0.043675844000000005,-0.012783173500000002,-44.4,-3.96,-20.7
1554220045143,6.6750345,-5.3540335,4.624999,-0.00958738,-0.04474111,-0.0063915867,-44.4,-3.9,-20.64
1554220045162,6.7229185,-5.4593782,4.5148660000000005,-0.013848438000000001,-0.040480047000000005,-0.0063915867,-44.4,-3.84,-20.58
1554220045182,6.799533,-5.401917500000001,4.500500700000001,-0.023435817999999997,-0.03834952,-0.008522116,-44.4,-3.78,-20.52
1554220045203,6.670246000000001,-5.406706,4.6058455,-0.020240024,-0.03089267,-0.011717908999999999,-44.4,-3.72,-20.46
1554220045223,6.655881,-5.4354362,4.4143095,-0.011717908999999999,-0.026631612000000002,-0.014913702,-44.4,-3.66,-20.34
1554220045243,6.6415157,-5.4402246,4.4526167,-0.004261058,-0.025566347000000003,-0.017044231,-44.4,-3.6,-20.22
1554220045263,6.564901,-5.4210709999999995,4.4382515,-0.002130529,-0.020240024,-0.01917476,-44.4,-3.54,-20.1
1554220045283,6.564901,-5.4114943,4.4526167,0.0,-0.01917476,-0.020240024,-44.4,-3.48,-20.04
1554220045303,6.531382,-5.3540335,4.5435963,0.01917476,-0.010652645,-0.022370555,-44.4,-3.42,-19.98
1554220045323,6.569689299999999,-5.3540335,4.280234,0.034088463,-0.0053263223,-0.020240024,-44.4,-3.36,-19.98
1554220045342,6.732495299999999,-5.325303,4.361637,0.03195793,-0.0010652645,-0.02876214,-44.34,-3.36,-19.92
1554220045363,6.742072,-5.445012999999999,4.371214,0.013848438000000001,-0.004261058,-0.029827405,-44.28,-3.36,-19.98
1554220045385,6.742072,-5.502473999999999,4.3329067000000006,-0.002130529,-0.008522116,-0.041545313,-44.22,-3.36,-19.98
1554220045404,6.742072,-5.492897,4.4717703,0.0053263223,-0.00958738,-0.046871635999999994,-44.22,-3.36,-19.98
1554220045424,6.703765,-5.468955,4.4286747,0.014913702,-0.014913702,-0.05752428,-44.22,-3.36,-20.04
1554220045443,6.732495299999999,-5.4545900000000005,4.371214,0.022370555,-0.015978966,-0.06391586,-44.22,-3.3,-20.04
1554220045463,6.655881,-5.3636102999999995,4.32333,0.023435817999999997,-0.015978966,-0.06711166,-44.22,-3.36,-20.04
1554220045483,6.5984197,-5.3444567,4.208408,0.015978966,-0.011717908999999999,-0.06604639400000001,-44.22,-3.36,-20.04
1554220045503,6.5792660000000005,-5.3779755,4.5196543,0.007456851,-0.007456851,-0.06178534,-44.22,-3.3,-20.04
1554220045523,6.569689299999999,-5.373187000000001,4.3760023,0.0,0.004261058,-0.058589544,-44.22,-3.3,-20.04
1554220045543,6.6750345,-5.4641665999999995,4.3664255,-0.00958738,0.012783173500000002,-0.054328485999999995,-44.22,-3.3,-20.04
1554220045563,6.6654577,-5.373187000000001,4.5723267,-0.014913702,0.012783173500000002,-0.05965481,-44.28,-3.3,-20.04
1554220045583,6.8091097000000005,-5.4114943,4.601057,-0.015978966,0.011717908999999999,-0.07989483,-44.28,-3.3,-20.04
1554220045602,6.9288197,-5.373187000000001,4.6776714,-0.0063915867,0.00958738,-0.10333065,-44.28,-3.3,-20.04
1554220045622,6.8426285,-5.277419,4.835689,0.011717908999999999,0.0053263223,-0.11930962,-44.28,-3.3,-20.04
1554220045642,6.8665705,-5.2917843,4.7494974,0.034088463,0.004261058,-0.12996227,-44.28,-3.24,-20.04
1554220045662,6.708553299999999,-5.172074299999999,4.6537294000000005,0.051132694000000006,0.00958738,-0.12996227,-44.28,-3.3,-19.98
1554220045683,6.612785000000001,-5.1816510000000005,4.5340195,0.05539375,0.00958738,-0.12144015,-44.34,-3.3,-19.98
1554220045703,6.655881,-5.2678423,4.6297874000000006,0.060720075,0.020240024,-0.10546118,-44.34,-3.36,-19.98
1554220045722,6.6510925,-5.406706,4.419098,0.06924219,0.020240024,-0.083090626,-44.34,-3.42,-20.04
1554220045743,6.6989765,-5.239112,4.3568487000000005,0.07030745599999999,0.024501082,-0.06924219,-44.34,-3.48,-20.04
1554220045763,6.8330517,-5.248688700000001,4.500500700000001,0.058589544,0.025566347000000003,-0.056459017,-44.34,-3.48,-20.04
1554220045783,6.823475,-5.229535,4.553173,0.046871635999999994,0.025566347000000003,-0.056459017,-44.34,-3.54,-20.16
1554220045802,6.780379300000001,-5.3683987,4.648941000000001,0.043675844000000005,0.033023197000000004,-0.06285059999999999,-44.34,-3.54,-20.22
1554220045823,6.8330517,-5.1960163,4.5148660000000005,0.04580637,0.04580637,-0.07030745599999999,-44.34,-3.6,-20.28
1554220045842,6.7372837,-5.1385555,4.44304,0.049002163,0.06498113,-0.084155895,-44.28,-3.6,-20.34
1554220045863,6.655881,-5.0763063,4.409521,0.04580637,0.07137272,-0.08948222,-44.28,-3.66,-20.4
1554220045883,6.646304,-5.09546,4.529230999999999,0.04580637,0.08841695,-0.09587380000000001,-44.34,-3.72,-20.46
1554220045902,6.6654577,-5.0427876,4.4957123,0.037284255,0.10013486,-0.10226539,-44.34,-3.78,-20.52
1554220045923,6.756437299999999,-5.1816510000000005,4.5723267,0.007456851,0.10972224,-0.10865697,-44.4,-3.84,-20.52
1554220045942,6.9048777,-5.172074299999999,4.577115,-0.020240024,0.11611383,-0.11611383,-44.46,-3.9,-20.52
1554220045962,6.943185000000001,-5.248688700000001,4.6537294000000005,-0.020240024,0.113983296,-0.12357068,-44.52,-4.08,-20.52
1554220045983,6.804321300000001,-5.143344,4.6154222,-0.013848438000000001,0.10759171,-0.12463594,-44.58,-4.2,-20.52
1554220046003,6.780379300000001,-5.109825,4.553173,-0.018109497,0.096939065,-0.12037488,-44.58,-4.32,-20.52
1554220046022,6.6989765,-5.0667295,4.5483847,-0.024501082,0.08735169,-0.11717909,-44.64,-4.38,-20.58
1554220046043,6.7612257,-5.047576,4.5723267,-0.034088463,0.06924219,-0.10226539,-44.58,-4.5,-20.58
1554220046063,6.6367273,-5.119402,4.4957123,-0.040480047000000005,0.05965481,-0.09054748,-44.52,-4.62,-20.64
1554220046083,6.6606693,-5.061941,4.7207669999999995,-0.04261058,0.056459017,-0.080960095,-44.46,-4.74,-20.82
1554220046103,6.684611299999999,-5.047576,4.8021703,-0.040480047000000005,0.05752428,-0.07563378,-44.4,-4.8,-21.0
1554220046123,6.6079965,-5.0571527000000005,4.7494974,-0.027696876000000002,0.05752428,-0.06924219,-44.34,-4.8,-21.18
1554220046143,6.6893997,-5.0236335,4.538808,-0.018109497,0.060720075,-0.068176925,-44.28,-4.86,-21.3
1554220046163,6.703765,-5.0236335,4.6297874000000006,-0.020240024,0.06285059999999999,-0.068176925,-44.28,-4.92,-21.42
1554220046183,6.732495299999999,-5.0906715,4.6680946,-0.027696876000000002,0.06711166,-0.06498113,-44.28,-4.92,-21.48
1554220046203,6.770802499999999,-5.172074299999999,4.7303440000000005,-0.036218993,0.06924219,-0.07243799,-44.22,-4.98,-21.48
1554220046223,6.8761472999999995,-5.2582655,4.7542860000000005,-0.05006743,0.07350325,-0.07243799,-44.22,-4.98,-21.48
1554220046243,6.775591,-5.239112,4.89315,-0.05965481,0.080960095,-0.07882957,-44.22,-4.98,-21.36
1554220046262,6.7468604999999995,-5.1146135,4.8069587,-0.04580637,0.082025364,-0.07989483,-44.22,-4.98,-21.3
1554220046282,6.679823,-5.1241902999999995,4.8739963,-0.026631612000000002,0.080960095,-0.080960095,-44.22,-4.98,-21.18
1554220046302,6.617573299999999,-5.085883,4.6297874000000006,-0.017044231,0.07456851,-0.07776430000000001,-44.22,-4.98,-21.12
1554220046322,6.627150500000001,-5.0763063,4.7016134,-0.026631612000000002,0.06924219,-0.07243799,-44.22,-5.04,-21.12
1554220046342,6.5265937,-5.253476999999999,4.744708999999999,-0.036218993,0.06924219,-0.068176925,-44.22,-5.1,-21.18
1554220046362,6.540959,-5.2103815,4.7925935,-0.03834952,0.06285059999999999,-0.06711166,-44.22,-5.22,-21.24
1554220046382,6.6415157,-5.253476999999999,4.6680946,-0.024501082,0.05752428,-0.06711166,-44.28,-5.46,-21.36
1554220046403,6.631939,-5.229535,4.7542860000000005,-0.017044231,0.05219796,-0.07563378,-44.28,-5.58,-21.54
1554220046422,6.6510925,-5.1960163,4.768651,-0.011717908999999999,0.047936900000000005,-0.08628642,-44.34,-5.76,-21.66
1554220046442,6.766014,-5.1241902999999995,4.7399206,-0.020240024,0.047936900000000005,-0.094808534,-44.46,-5.88,-21.72
1554220046462,6.6893997,-5.229535,4.7399206,-0.035153727999999995,0.05006743,-0.10333065,-44.46,-6.0,-21.78
1554220046482,6.6510925,-5.1241902999999995,4.7016134,-0.05539375,0.04580637,-0.111852765,-44.58,-6.12,-21.96
1554220046503,6.646304,-5.00448,4.854842700000001,-0.06498113,0.039414786,-0.11611383,-44.64,-6.12,-22.08
1554220046523,6.603208,-5.1385555,4.634576,-0.07137272,0.03089267,-0.11611383,-44.64,-6.12,-22.14
1554220046544,6.5122285,-5.0906715,4.883573,-0.07669904,0.020240024,-0.112918034,-44.64,-6.12,-22.2
1554220046563,6.5744777,-5.1624975,4.936245400000001,-0.07137272,0.013848438000000001,-0.1107875,-44.64,-6.18,-22.14
1554220046583,6.6750345,-5.047576,4.8787847,-0.054328485999999995,0.0063915867,-0.10972224,-44.58,-6.18,-22.14
1554220046603,6.5984197,-5.1385555,4.821324,-0.04261058,-0.004261058,-0.10652645,-44.58,-6.12,-22.14
1554220046622,6.6079965,-5.0427876,4.9458222,-0.03834952,-0.0063915867,-0.10333065,-44.52,-6.12,-22.14
1554220046642,6.6606693,-5.085883,4.7878050000000005,-0.036218993,-0.017044231,-0.10226539,-44.52,-6.12,-22.14
1554220046663,6.617573299999999,-5.0140567,4.854842700000001,-0.029827405,-0.018109497,-0.099069595,-44.46,-6.06,-22.14
1554220046684,6.5361705,-5.0427876,4.8165355000000005,-0.02130529,-0.023435817999999997,-0.096939065,-44.46,-6.06,-22.14
1554220046703,6.6654577,-5.0332108,4.859630999999999,-0.013848438000000001,-0.020240024,-0.09374327,-44.46,-6.0,-22.14
1554220046722,6.555324000000001,-5.0523643,4.960187400000001,-0.008522116,-0.01917476,-0.08628642,-44.46,-6.0,-22.14
1554220046742,6.531382,-4.9278655,4.8739963,-0.004261058,-0.018109497,-0.07989483,-44.46,-6.0,-22.14
1554220046763,6.593631299999999,-4.9374423,4.768651,0.0,-0.01917476,-0.06924219,-44.52,-6.0,-22.14
1554220046783,6.555324000000001,-4.908712,4.8979383,-0.0031957934000000003,-0.01917476,-0.06178534,-44.52,-6.0,-22.14
1554220046802,6.617573299999999,-5.0284224,4.8404775,-0.007456851,-0.025566347000000003,-0.05219796,-44.52,-6.0,-22.14
1554220046823,6.6510925,-5.0906715,4.912303400000001,-0.007456851,-0.029827405,-0.041545313,-44.52,-6.06,-22.14
1554220046843,6.627150500000001,-5.0571527000000005,4.8404775,-0.00958738,-0.036218993,-0.033023197000000004,-44.58,-6.18,-22.14
1554220046862,6.593631299999999,-4.894346700000001,4.9218802,0.0,-0.047936900000000005,-0.024501082,-44.52,-6.3,-22.14
1554220046883,6.6893997,-5.061941,4.8500543,0.0031957934000000003,-0.05752428,-0.018109497,-44.52,-6.48,-22.2
1554220046903,6.6989765,-5.0427876,4.7734394,-0.0031957934000000003,-0.06604639400000001,-0.0053263223,-44.46,-6.6,-22.2
1554220046923,6.6750345,-5.085883,4.8021703,0.0031957934000000003,-0.07989483,0.010652645,-44.46,-6.78,-22.2
1554220046943,6.655881,-5.0092683,4.7830167,0.01917476,-0.09161274,0.025566347000000003,-44.4,-6.9,-22.2
1554220046963,6.655881,-5.0092683,4.6537294000000005,0.029827405,-0.096939065,0.037284255,-44.4,-7.02,-22.2
1554220046983,6.588842999999999,-5.037999,4.8739963,0.029827405,-0.10439592,0.049002163,-44.4,-7.08,-22.2
1554220047002,6.770802499999999,-5.1960163,4.672883000000001,0.040480047000000005,-0.10865697,0.05539375,-44.34,-7.14,-22.14
1554220047022,6.770802499999999,-4.9518075,4.5723267,0.060720075,-0.101200126,0.05752428,-44.34,-7.08,-22.08
1554220047044,6.6989765,-5.0523643,4.634576,0.053263225,-0.10013486,0.06285059999999999,-44.34,-7.02,-21.96
1554220047062,6.684611299999999,-5.0523643,4.4765587,0.023435817999999997,-0.111852765,0.07989483,-44.28,-6.9,-21.9
1554220047084,6.6415157,-5.037999,4.4765587,0.004261058,-0.12250541,0.08841695,-44.28,-6.84,-21.78
1554220047104,6.6893997,-5.109825,4.3807906999999995,-0.0053263223,-0.13528858,0.096939065,-44.22,-6.72,-21.66
1554220047123,6.617573299999999,-5.0236335,4.4861355000000005,-0.01917476,-0.14168017,0.098004326,-44.16,-6.6,-21.6
1554220047142,6.5792660000000005,-5.0523643,4.433463,-0.029827405,-0.14594123,0.096939065,-44.1,-6.48,-21.6
1554220047164,6.7229185,-5.00448,4.6202106,-0.039414786,-0.15126756,0.08628642,-44.04,-6.06,-21.42
1554220047183,6.7229185,-5.143344,4.6202106,-0.036218993,-0.15126756,0.07989483,-43.98,-6.0,-21.48
1554220047204,6.813898,-5.2678423,4.5819035,-0.036218993,-0.14487597,0.07137272,-43.98,-5.82,-21.42
1554220047223,6.756437299999999,-5.3205147,4.524442700000001,-0.026631612000000002,-0.13954964,0.06391586,-44.04,-5.64,-21.42
1554220047243,6.8091097000000005,-5.3779755,4.5962687,-0.018109497,-0.13315806,0.060720075,-44.04,-5.52,-21.42
1554220047263,6.8809357,-5.349245,4.4861355000000005,-0.002130529,-0.12357068,0.053263225,-44.1,-5.34,-21.42
1554220047283,6.789956,-5.33488,4.5148660000000005,0.017044231,-0.11824436,0.04580637,-44.16,-5.22,-21.42
1554220047302,6.799533,-5.4354362,4.419098,0.029827405,-0.1107875,0.041545313,-44.22,-5.16,-21.42
1554220047323,6.7277070000000005,-5.349245,4.5483847,0.041545313,-0.09587380000000001,0.03834952,-44.28,-5.1,-21.36
1554220047343,6.6750345,-5.3540335,4.5196543,0.046871635999999994,-0.080960095,0.036218993,-44.34,-5.04,-21.3
1554220047363,6.8091097000000005,-5.4402246,4.4526167,0.047936900000000005,-0.06498113,0.03195793,-44.4,-4.98,-21.24
1554220047383,6.8522053,-5.430648000000001,4.5148660000000005,0.053263225,-0.04580637,0.023435817999999997,-44.4,-4.92,-21.06
1554220047402,6.766014,-5.3396683,4.696825,0.058589544,-0.024501082,0.015978966,-44.34,-4.86,-20.88
1554220047423,6.813898,-5.3300915,4.6058455,0.06285059999999999,-0.002130529,0.007456851,-44.28,-4.8,-20.64
1554220047444,6.7851677,-5.3157263,4.5196543,0.07030745599999999,0.010652645,-0.002130529,-44.28,-4.68,-20.46
1554220047464,6.7133417,-5.3540335,4.3329067000000006,0.068176925,0.020240024,-0.011717908999999999,-44.22,-4.56,-20.34
1554220047484,6.708553299999999,-5.3396683,4.4526167,0.06498113,0.025566347000000003,-0.017044231,-44.16,-4.44,-20.22
1554220047503,6.6750345,-5.3061495,4.3807906999999995,0.047936900000000005,0.02876214,-0.023435817999999997,-44.16,-4.32,-20.16
1554220047523,6.804321300000001,-5.3779755,4.2898107,0.04580637,0.023435817999999997,-0.03089267,-44.1,-4.26,-20.1
1554220047543,6.799533,-5.3540335,4.3281183,0.040480047000000005,0.014913702,-0.035153727999999995,-44.1,-4.2,-20.1
1554220047562,6.823475,-5.3157263,4.3185415,0.029827405,0.00958738,-0.041545313,-44.1,-4.14,-20.1
1554220047582,6.8091097000000005,-5.3396683,4.337695,0.022370555,0.0063915867,-0.04474111,-44.1,-4.14,-20.1
1554220047603,6.766014,-5.2965727,4.280234,0.017044231,-0.002130529,-0.043675844000000005,-44.16,-4.14,-20.1
1554220047623,6.7516490000000005,-5.2582655,4.447828299999999,0.007456851,-0.007456851,-0.041545313,-44.16,-4.26,-20.1
1554220047644,6.6606693,-5.2008047,4.4238862999999995,-0.0063915867,-0.0063915867,-0.035153727999999995,-44.22,-4.26,-20.1
1554220047663,6.646304,-5.253476999999999,4.5723267,-0.012783173500000002,-0.0031957934000000003,-0.026631612000000002,-44.22,-4.26,-20.1
1554220047684,6.5218053,-5.0810947,4.4621935,-0.018109497,0.007456851,-0.015978966,-44.16,-4.2,-20.1
1554220047703,6.631939,-5.1960163,4.4717703,-0.027696876000000002,0.015978966,-0.00958738,-44.1,-4.14,-20.04
1554220047723,6.6750345,-5.2917843,4.2898107,-0.051132694000000006,0.03089267,-0.0010652645,-44.1,-4.02,-20.04
1554220047743,6.655881,-5.2582655,4.5675383,-0.056459017,0.03834952,-0.002130529,-44.04,-3.96,-20.04
1554220047766,6.708553299999999,-5.3157263,4.4382515,-0.058589544,0.053263225,-0.013848438000000001,-43.98,-3.84,-20.04
1554220047784,6.7229185,-5.3683987,4.538808,-0.05539375,0.068176925,-0.03195793,-43.98,-3.78,-20.1
1554220047802,6.804321300000001,-5.4881085999999994,4.5196543,-0.06498113,0.07882957,-0.056459017,-43.92,-3.72,-20.1
1554220047822,6.8905125,-5.3923407,4.634576,-0.07776430000000001,0.08522116,-0.082025364,-43.92,-3.72,-20.16
1554220047843,6.7612257,-5.4498014,4.5196543,-0.10439592,0.084155895,-0.12144015,-43.98,-3.66,-20.22
1554220047863,6.8186865,-5.349245,4.6058455,-0.1107875,0.07137272,-0.14274544,-43.98,-3.66,-20.22
1554220047884,6.6893997,-5.2917843,4.7159786,-0.094808534,0.04261058,-0.14487597,-43.98,-3.66,-20.28
1554220047903,6.7277070000000005,-5.310938,4.7830167,-0.06285059999999999,0.012783173500000002,-0.13848437,-44.04,-3.72,-20.28
1554220047922,6.775591,-5.3540335,5.089474,-0.023435817999999997,-0.022370555,-0.12570119999999999,-44.04,-3.72,-20.28
1554220047942,6.828263300000001,-5.3779755,4.8787847,0.01917476,-0.04580637,-0.11611383,-44.04,-3.72,-20.28
1554220047963,6.8186865,-5.2343235,4.8500543,0.06178534,-0.054328485999999995,-0.099069595,-44.1,-3.78,-20.28
1554220047983,6.703765,-5.3061495,4.797382,0.08948222,-0.06498113,-0.082025364,-44.1,-3.78,-20.28
1554220048003,6.6989765,-5.277419,4.6202106,0.101200126,-0.07030745599999999,-0.06498113,-44.22,-3.84,-20.28
1554220048023,6.655881,-5.349245,4.553173,0.10865697,-0.068176925,-0.049002163,-44.34,-3.96,-20.28
1554220048043,6.732495299999999,-5.3636102999999995,4.5435963,0.10972224,-0.06604639400000001,-0.026631612000000002,-44.58,-4.14,-20.34
1554220048063,6.7229185,-5.3683987,4.672883000000001,0.08628642,-0.04580637,-0.010652645,-44.76,-4.32,-20.4
1554220048083,6.8186865,-5.512050599999999,4.553173,0.060720075,-0.024501082,0.002130529,-45.0,-4.5,-20.46
1554220048103,6.7277070000000005,-5.2965727,4.4765587,0.05539375,-0.0063915867,0.008522116,-45.06,-4.68,-20.52
1554220048122,6.5984197,-5.191228,4.2610803,0.05752428,-0.0031957934000000003,0.010652645,-45.18,-4.8,-20.58
1554220048143,6.564901,-5.1146135,4.174889,0.05752428,-0.007456851,0.010652645,-45.18,-4.86,-20.64
1554220048163,6.622362,-5.0571527000000005,3.9402574999999995,0.053263225,-0.012783173500000002,0.008522116,-45.12,-4.86,-20.64
1554220048183,6.517017,-5.109825,3.8684312999999997,0.025566347000000003,-0.023435817999999997,-0.0010652645,-45.0,-4.8,-20.7
1554220048202,6.5122285,-5.1385555,3.887585,-0.03195793,-0.027696876000000002,-0.0010652645,-44.82,-4.68,-20.7
1554220048222,6.564901,-5.2582655,4.246715,-0.112918034,-0.024501082,0.0010652645,-44.58,-4.56,-20.7
1554220048242,6.531382,-5.248688700000001,4.1796775,-0.13741912,-0.015978966,0.0010652645,-44.46,-4.5,-20.7
1554220048263,6.6941880000000005,-5.229535,4.4957123,-0.13635385,0.0010652645,-0.0031957934000000003,-44.4,-4.38,-20.7
1554220048282,6.603208,-5.3205147,4.481347,-0.12250541,0.029827405,-0.012783173500000002,-44.28,-4.26,-20.64
1554220048303,6.622362,-5.3779755,4.5100775,-0.12144015,0.07563378,-0.023435817999999997,-44.28,-4.2,-20.64
1554220048322,6.5984197,-5.401917500000001,4.490924,-0.12463594,0.10226539,-0.029827405,-44.28,-4.26,-20.64
1554220048343,6.6510925,-5.382764,4.529230999999999,-0.11717909,0.13635385,-0.034088463,-44.28,-4.2,-20.64
1554220048363,6.540959,-5.406706,4.4717703,-0.11504856,0.15659387,-0.036218993,-44.28,-4.2,-20.58
1554220048383,6.50744,-5.4114943,4.3999443,-0.112918034,0.16937704,-0.035153727999999995,-44.28,-4.14,-20.52
1554220048403,6.4020953,-5.310938,4.586692,-0.10972224,0.17363810000000002,-0.034088463,-44.34,-4.08,-20.52
1554220048423,6.4068837,-5.382764,4.5196543,-0.10546118,0.17257284,-0.034088463,-44.34,-4.02,-20.52
1554220048442,6.320692500000001,-5.406706,4.5100775,-0.096939065,0.16298546,-0.034088463,-44.34,-3.96,-20.58
1554220048462,6.445191,-5.4641665999999995,4.500500700000001,-0.08522116,0.14913702,-0.034088463,-44.34,-3.9,-20.58
1554220048483,6.397307,-5.3300915,4.672883000000001,-0.082025364,0.12783173,-0.03089267,-44.34,-3.9,-20.7
1554220048503,6.373365,-5.382764,4.6058455,-0.08628642,0.10333065,-0.024501082,-44.34,-3.9,-20.82
1554220048523,6.3925184999999995,-5.4545900000000005,4.8165355000000005,-0.08735169,0.07776430000000001,-0.014913702,-44.28,-3.9,-20.94
1554220048543,6.397307,-5.4258595000000005,4.8452660000000005,-0.06604639400000001,0.05219796,-0.004261058,-44.28,-3.9,-21.06
1554220048563,6.3063273,-5.4498014,4.8404775,-0.029827405,0.02876214,0.011717908999999999,-44.28,-3.9,-21.18
1554220048582,6.363788,-5.406706,4.8452660000000005,-0.0053263223,0.011717908999999999,0.02876214,-44.28,-3.9,-21.24
1554220048602,6.493075,-5.5743003,4.7830167,0.023435817999999997,0.0010652645,0.04580637,-44.28,-3.96,-21.3
1554220048624,6.4020953,-5.559935,4.759074,0.04474111,-0.008522116,0.053263225,-44.28,-3.96,-21.42
1554220048642,6.4643445,-5.7418942,4.6776714,0.07350325,-0.024501082,0.049002163,-44.34,-3.96,-21.42
1554220048662,6.497863300000001,-5.6461263,4.5962687,0.083090626,-0.035153727999999995,0.036218993,-44.34,-3.96,-21.42
1554220048682,6.531382,-5.631761,4.6920366,0.08948222,-0.043675844000000005,0.025566347000000003,-44.34,-3.96,-21.48
1554220048703,6.5265937,-5.655703,4.7542860000000005,0.09161274,-0.051132694000000006,0.013848438000000001,-44.28,-3.78,-21.48
1554220048723,6.493075,-5.6604915,4.744708999999999,0.09587380000000001,-0.05006743,0.0031957934000000003,-44.28,-3.6,-21.48
1554220048743,6.531382,-5.593454,4.5148660000000005,0.10333065,-0.043675844000000005,-0.004261058,-44.22,-3.42,-21.48
1554220048763,6.569689299999999,-5.579088700000001,4.4765587,0.101200126,-0.040480047000000005,-0.010652645,-44.16,-3.3,-21.48
1554220048783,6.4164605,-5.6700683,4.4765587,0.08841695,-0.03089267,-0.018109497,-44.16,-3.12,-21.48
1554220048802,6.4404025,-5.5407815000000005,4.529230999999999,0.06178534,-0.020240024,-0.024501082,-44.16,-2.94,-21.48
1554220048822,6.4212489999999995,-5.6509147,4.385579,0.026631612000000002,-0.008522116,-0.03089267,-44.1,-2.88,-21.48
1554220048843,6.3829417,-5.5407815000000005,4.5340195,0.011717908999999999,0.004261058,-0.04261058,-44.1,-2.88,-21.48
1554220048863,6.531382,-5.5982423,4.5100775,0.0063915867,0.017044231,-0.051132694000000006,-44.1,-2.94,-21.48
1554220048882,6.4164605,-5.478532,4.4957123,-0.007456851,0.022370555,-0.058589544,-44.1,-3.0,-21.48
1554220048902,6.354211299999999,-5.4545900000000005,4.5914803,-0.029827405,0.02876214,-0.068176925,-44.16,-3.12,-21.48
1554220048923,6.4212489999999995,-5.4545900000000005,4.538808,-0.046871635999999994,0.029827405,-0.07350325,-44.16,-3.24,-21.48
1554220048942,6.4882865,-5.502473999999999,4.6537294000000005,-0.04474111,0.03089267,-0.082025364,-44.1,-3.24,-21.48
1554220048962,6.430825700000001,-5.4114943,4.5819035,-0.03834952,0.017044231,-0.083090626,-44.1,-3.36,-21.48
1554220048983,6.3925184999999995,-5.4114943,4.706402,-0.03089267,-0.002130529,-0.07989483,-44.1,-3.36,-21.54
1554220049002,6.50744,-5.3396683,4.6680946,-0.027696876000000002,-0.017044231,-0.07137272,-44.04,-3.36,-21.6
1554220049022,6.4260373,-5.4354362,4.6297874000000006,-0.017044231,-0.033023197000000004,-0.06498113,-44.04,-3.36,-21.66
1554220049046,6.459556,-5.3875523,4.735132,-0.00958738,-0.05219796,-0.047936900000000005,-44.04,-3.36,-21.72
1554220049062,6.5026517,-5.478532,4.869208,-0.0031957934000000003,-0.058589544,-0.041545313,-43.98,-3.36,-21.72
1554220049084,6.497863300000001,-5.445012999999999,4.8021703,0.00958738,-0.06178534,-0.035153727999999995,-43.98,-3.36,-21.72
1554220049102,6.4882865,-5.3971290000000005,4.7878050000000005,0.011717908999999999,-0.05965481,-0.03089267,-43.98,-3.36,-21.72
1554220049122,6.4499793,-5.4498014,4.7399206,0.017044231,-0.054328485999999995,-0.02876214,-43.98,-3.3,-21.72
1554220049144,6.5265937,-5.4881085999999994,4.8069587,0.026631612000000002,-0.041545313,-0.033023197000000004,-44.04,-3.3,-21.6
1554220049163,6.517017,-5.507262,4.7303440000000005,0.03195793,-0.03089267,-0.03195793,-44.1,-3.3,-21.54
1554220049184,6.5792660000000005,-5.502473999999999,4.6441526,0.034088463,-0.01917476,-0.034088463,-44.1,-3.3,-21.42
1554220049202,6.5840545,-5.555146700000001,4.6297874000000006,0.034088463,-0.00958738,-0.037284255,-44.16,-3.3,-21.36
1554220049223,6.4882865,-5.502473999999999,4.5435963,0.02876214,-0.004261058,-0.037284255,-44.22,-3.3,-21.3
1554220049242,6.50744,-5.502473999999999,4.4765587,0.025566347000000003,0.0031957934000000003,-0.04261058,-44.28,-3.3,-21.3
1554220049263,6.469133,-5.3683987,4.5148660000000005,0.020240024,0.004261058,-0.04261058,-44.34,-3.3,-21.3
1554220049283,6.4499793,-5.430648000000001,4.5340195,0.018109497,0.0063915867,-0.046871635999999994,-44.34,-3.3,-21.3
1554220049303,6.469133,-5.4210709999999995,4.6441526,0.014913702,0.002130529,-0.047936900000000005,-44.4,-3.3,-21.3
1554220049323,6.5744777,-5.373187000000001,4.5723267,0.0053263223,-0.002130529,-0.054328485999999995,-44.34,-3.3,-21.3
1554220049343,6.493075,-5.502473999999999,4.4957123,0.0,-0.00958738,-0.056459017,-44.34,-3.36,-21.3
1554220049363,6.5505357,-5.4545900000000005,4.6441526,-0.004261058,-0.012783173500000002,-0.06178534,-44.34,-3.36,-21.3
1554220049382,6.5457472999999995,-5.4210709999999995,4.648941000000001,0.0010652645,-0.015978966,-0.06604639400000001,-44.28,-3.36,-21.3
1554220049405,6.5792660000000005,-5.430648000000001,4.4286747,-0.0031957934000000003,-0.022370555,-0.06498113,-44.28,-3.36,-21.3
1554220049423,6.588842999999999,-5.445012999999999,4.6393642,-0.004261058,-0.022370555,-0.06285059999999999,-44.28,-3.42,-21.3
1554220049442,6.469133,-5.4545900000000005,4.5196543,-0.0010652645,-0.024501082,-0.058589544,-44.28,-3.42,-21.24
1554220049462,6.459556,-5.406706,4.6154222,0.0031957934000000003,-0.020240024,-0.05539375,-44.22,-3.48,-21.18
1554220049483,6.6079965,-5.48332,4.696825,-0.0031957934000000003,-0.00958738,-0.051132694000000006,-44.22,-3.48,-21.12
1554220049503,6.540959,-5.5264163,4.6633059999999995,-0.004261058,-0.007456851,-0.049002163,-44.22,-3.48,-21.12
1554220049523,6.5601125,-5.468955,4.4957123,0.0031957934000000003,-0.0031957934000000003,-0.047936900000000005,-44.22,-3.42,-21.06
1554220049542,6.631939,-5.3923407,4.529230999999999,0.004261058,0.0,-0.046871635999999994,-44.22,-3.42,-21.0
1554220049562,6.603208,-5.4258595000000005,4.553173,0.004261058,-0.002130529,-0.05006743,-44.22,-3.36,-21.0
1554220049583,6.5744777,-5.401917500000001,4.4526167,0.0053263223,-0.0031957934000000003,-0.053263225,-44.22,-3.3,-21.0
1554220049602,6.5361705,-5.3683987,4.500500700000001,0.0,-0.002130529,-0.05539375,-44.22,-3.24,-21.06
1554220049622,6.5840545,-5.373187000000001,4.5819035,-0.010652645,0.0,-0.058589544,-44.22,-3.24,-21.06
1554220049642,6.5457472999999995,-5.401917500000001,4.7303440000000005,-0.013848438000000001,0.0010652645,-0.05965481,-44.22,-3.24,-21.12
1554220049663,6.540959,-5.4402246,4.6297874000000006,0.0,0.0053263223,-0.05965481,-44.16,-3.3,-21.12
1554220049683,6.5026517,-5.373187000000001,4.5340195,0.007456851,0.00958738,-0.06178534,-44.16,-3.36,-21.12
1554220049703,6.5361705,-5.286996,4.577115,0.0,0.013848438000000001,-0.06178534,-44.16,-3.42,-21.12
1554220049723,6.564901,-5.3444567,4.5196543,-0.008522116,0.015978966,-0.05965481,-44.16,-3.42,-21.12
1554220049743,6.531382,-5.3875523,4.586692,-0.011717908999999999,0.01917476,-0.05965481,-44.16,-3.48,-21.12
1554220049763,6.5792660000000005,-5.3205147,4.624999,-0.008522116,0.01917476,-0.05965481,-44.16,-3.48,-21.18
1554220049782,6.564901,-5.4402246,4.553173,0.0,0.02130529,-0.05965481,-44.16,-3.48,-21.18
1554220049803,6.531382,-5.3875523,4.553173,0.002130529,0.02130529,-0.05539375,-44.16,-3.48,-21.18
1554220049823,6.50744,-5.3875523,4.7016134,0.0010652645,0.020240024,-0.054328485999999995,-44.16,-3.48,-21.24
1554220049842,6.5026517,-5.382764,4.830900700000001,-0.002130529,0.020240024,-0.05006743,-44.16,-3.54,-21.24
1554220049863,6.459556,-5.3396683,4.5962687,-0.0010652645,0.017044231,-0.049002163,-44.16,-3.54,-21.24
1554220049882,6.555324000000001,-5.445012999999999,4.6393642,-0.0010652645,0.013848438000000001,-0.047936900000000005,-44.22,-3.6,-21.3
1554220049902,6.5457472999999995,-5.4354362,4.5100775,-0.007456851,0.012783173500000002,-0.04261058,-44.22,-3.66,-21.3
1554220049923,6.4882865,-5.2726307,4.687248,-0.010652645,0.008522116,-0.03834952,-44.22,-3.66,-21.3
1554220049942,6.5122285,-5.3636102999999995,4.648941000000001,-0.0053263223,-0.0010652645,-0.036218993,-44.28,-3.72,-21.3
1554220049963,6.497863300000001,-5.4210709999999995,4.634576,-0.010652645,-0.0053263223,-0.036218993,-44.28,-3.78,-21.3
1554220049982,6.631939,-5.468955,4.56275,-0.013848438000000001,-0.010652645,-0.034088463,-44.22,-3.78,-21.3
1554220050002,6.5122285,-5.4258595000000005,4.68246,-0.007456851,-0.014913702,-0.033023197000000004,-44.22,-3.78,-21.36
1554220050022,6.4882865,-5.430648000000001,4.8165355000000005,0.0010652645,-0.017044231,-0.034088463,-44.22,-3.78,-21.36
1554220050043,6.4787097000000005,-5.430648000000001,4.7303440000000005,0.0063915867,-0.017044231,-0.035153727999999995,-44.22,-3.78,-21.36
1554220050062,6.435614,-5.4545900000000005,4.7494974,0.0010652645,-0.015978966,-0.03834952,-44.22,-3.78,-21.36
1554220050083,6.5218053,-5.3923407,4.5819035,0.0,-0.012783173500000002,-0.03834952,-44.22,-3.78,-21.42
1554220050104,6.50744,-5.3540335,4.696825,0.00958738,-0.012783173500000002,-0.035153727999999995,-44.16,-3.78,-21.42
1554220050123,6.4404025,-5.3396683,4.5148660000000005,0.008522116,-0.020240024,-0.03195793,-44.16,-3.78,-21.42
1554220050144,6.5265937,-5.4114943,4.56275,0.008522116,-0.026631612000000002,-0.03195793,-44.16,-3.84,-21.42
1554220050162,6.411672,-5.4593782,4.68246,0.0063915867,-0.03195793,-0.03195793,-44.16,-3.84,-21.42
1554220050184,6.517017,-5.430648000000001,4.744708999999999,0.0,-0.043675844000000005,-0.02876214,-44.28,-3.84,-21.48
1554220050202,6.4882865,-5.507262,4.7399206,0.0031957934000000003,-0.046871635999999994,-0.029827405,-44.34,-3.84,-21.54
1554220050222,6.5265937,-5.373187000000001,4.735132,0.00958738,-0.056459017,-0.02876214,-44.4,-3.84,-21.6
1554220050242,6.5265937,-5.401917500000001,4.7159786,0.015978966,-0.05752428,-0.025566347000000003,-44.46,-3.84,-21.66
1554220050262,6.5026517,-5.382764,4.68246,0.015978966,-0.06285059999999999,-0.022370555,-44.52,-3.84,-21.72
1554220050282,6.5026517,-5.382764,4.5962687,0.012783173500000002,-0.06604639400000001,-0.015978966,-44.52,-3.84,-21.72
1554220050303,6.4020953,-5.373187000000001,4.6441526,0.011717908999999999,-0.068176925,-0.011717908999999999,-44.52,-3.84,-21.66
1554220050323,6.5026517,-5.406706,4.634576,0.0031957934000000003,-0.07456851,-0.0031957934000000003,-44.52,-3.78,-21.6
1554220050342,6.50744,-5.3540335,4.759074,-0.0031957934000000003,-0.07563378,0.0031957934000000003,-44.46,-3.66,-21.42
1554220050362,6.5457472999999995,-5.48332,4.4957123,0.0010652645,-0.080960095,0.0053263223,-44.4,-3.54,-21.24
1554220050382,6.603208,-5.3971290000000005,4.6202106,0.013848438000000001,-0.08522116,0.008522116,-44.28,-3.36,-21.12
1554220050403,6.603208,-5.4258595000000005,4.5675383,0.020240024,-0.08948222,0.008522116,-44.28,-3.24,-20.94
1554220050423,6.5840545,-5.3971290000000005,4.634576,0.017044231,-0.09161274,0.008522116,-44.28,-3.12,-20.88
1554220050442,6.5601125,-5.4354362,4.538808,0.015978966,-0.094808534,0.008522116,-44.28,-3.0,-20.82
1554220050463,6.555324000000001,-5.48332,4.672883000000001,0.014913702,-0.09161274,0.008522116,-44.28,-2.88,-20.82
1554220050482,6.6606693,-5.521628,4.5675383,0.011717908999999999,-0.08735169,0.0063915867,-44.28,-2.82,-20.88
1554220050502,6.5744777,-5.507262,4.744708999999999,0.008522116,-0.080960095,0.0053263223,-44.28,-2.82,-20.88
1554220050522,6.6079965,-5.555146700000001,4.5340195,0.007456851,-0.07882957,0.0031957934000000003,-44.22,-2.88,-20.88
1554220050543,6.555324000000001,-5.555146700000001,4.524442700000001,0.015978966,-0.07456851,-0.0031957934000000003,-44.22,-2.88,-20.88
1554220050563,6.6606693,-5.559935,4.4765587,0.015978966,-0.07030745599999999,-0.0063915867,-44.22,-2.94,-20.88
1554220050583,6.603208,-5.5503583,4.7399206,0.012783173500000002,-0.06391586,-0.007456851,-44.16,-3.0,-20.82
1554220050603,6.5265937,-5.4881085999999994,4.433463,0.013848438000000001,-0.058589544,-0.00958738,-44.16,-3.0,-20.76
1554220050623,6.5361705,-5.54557,4.5675383,0.027696876000000002,-0.05006743,-0.00958738,-44.16,-3.06,-20.64
1554220050643,6.531382,-5.468955,4.4621935,0.033023197000000004,-0.036218993,-0.010652645,-44.22,-3.0,-20.58
1554220050662,6.5265937,-5.382764,4.371214,0.027696876000000002,-0.027696876000000002,-0.011717908999999999,-44.28,-3.0,-20.52
1554220050682,6.5984197,-5.48332,4.44304,0.024501082,-0.025566347000000003,-0.012783173500000002,-44.34,-2.94,-20.52
1554220050702,6.593631299999999,-5.4402246,4.4717703,0.02876214,-0.023435817999999997,-0.01917476,-44.4,-2.88,-20.46
1554220050723,6.569689299999999,-5.4498014,4.4621935,0.024501082,-0.024501082,-0.023435817999999997,-44.4,-2.88,-20.4
1554220050742,6.540959,-5.502473999999999,4.433463,0.020240024,-0.02876214,-0.026631612000000002,-44.46,-2.82,-20.46
1554220050762,6.617573299999999,-5.4881085999999994,4.3664255,0.013848438000000001,-0.034088463,-0.03089267,-44.46,-2.82,-20.52
1554220050783,6.631939,-5.5407815000000005,4.385579,0.0053263223,-0.033023197000000004,-0.036218993,-44.46,-2.76,-20.52
1554220050802,6.5984197,-5.5407815000000005,4.361637,0.002130529,-0.03089267,-0.040480047000000005,-44.4,-2.76,-20.58
1554220050822,6.6510925,-5.507262,4.313753,0.011717908999999999,-0.02130529,-0.049002163,-44.34,-2.76,-20.58
1554220050843,6.517017,-5.5168395,4.5483847,0.011717908999999999,-0.011717908999999999,-0.05539375,-44.28,-2.82,-20.64
1554220050863,6.5984197,-5.559935,4.4957123,0.00958738,-0.002130529,-0.06285059999999999,-44.28,-2.82,-20.64
1554220050882,6.5744777,-5.555146700000001,4.308964700000001,0.0063915867,0.004261058,-0.07030745599999999,-44.22,-2.82,-20.64
1554220050902,6.483498,-5.583876999999999,4.4621935,0.002130529,0.02130529,-0.07669904,-44.16,-2.82,-20.58
1554220050923,6.593631299999999,-5.502473999999999,4.5100775,0.004261058,0.027696876000000002,-0.07989483,-44.16,-2.82,-20.52
1554220050942,6.5601125,-5.559935,4.490924,0.008522116,0.036218993,-0.082025364,-44.16,-2.82,-20.46
1554220050962,6.5792660000000005,-5.507262,4.409521,0.014913702,0.046871635999999994,-0.084155895,-44.22,-2.82,-20.4
1554220050982,6.5457472999999995,-5.4114943,4.6680946,0.018109497,0.049002163,-0.084155895,-44.22,-2.82,-20.34
1554220051003,6.617573299999999,-5.430648000000001,4.529230999999999,0.014913702,0.046871635999999994,-0.084155895,-44.28,-2.76,-20.28
1554220051023,6.4547677000000006,-5.4881085999999994,4.4717703,0.011717908999999999,0.056459017,-0.082025364,-44.34,-2.82,-20.22
1554220051042,6.612785000000001,-5.521628,4.529230999999999,0.008522116,0.05539375,-0.07882957,-44.34,-3.0,-20.16
1554220051062,6.531382,-5.48332,4.447828299999999,0.007456851,0.05219796,-0.07563378,-44.4,-3.18,-20.16
1554220051083,6.5122285,-5.406706,4.466982,0.0063915867,0.04580637,-0.07137272,-44.4,-3.3,-20.1
1554220051102,6.5122285,-5.3923407,4.466982,0.0053263223,0.04474111,-0.06924219,-44.4,-3.42,-20.1
1554220051123,6.50744,-5.4641665999999995,4.5483847,0.002130529,0.040480047000000005,-0.06498113,-44.4,-3.42,-20.1
1554220051142,6.5122285,-5.325303,4.5100775,0.0,0.029827405,-0.05965481,-44.4,-3.42,-20.1
1554220051163,6.684611299999999,-5.406706,4.4143095,-0.007456851,0.017044231,-0.058589544,-44.4,-3.48,-20.16
1554220051183,6.564901,-5.478532,4.4765587,-0.022370555,0.008522116,-0.056459017,-44.4,-3.36,-20.22
1554220051203,6.631939,-5.4402246,4.6633059999999995,-0.025566347000000003,0.0031957934000000003,-0.05539375,-44.4,-3.24,-20.28
1554220051223,6.617573299999999,-5.382764,4.5819035,-0.015978966,-0.00958738,-0.05219796,-44.4,-3.18,-20.34
1554220051242,6.5361705,-5.3875523,4.6058455,-0.007456851,-0.015978966,-0.043675844000000005,-44.4,-3.12,-20.4
1554220051262,6.555324000000001,-5.373187000000001,4.5483847,-0.013848438000000001,-0.027696876000000002,-0.033023197000000004,-44.34,-3.0,-20.46
1554220051283,6.445191,-5.4354362,4.6537294000000005,-0.023435817999999997,-0.037284255,-0.020240024,-44.4,-3.06,-20.52
1554220051303,6.593631299999999,-5.430648000000001,4.586692,-0.022370555,-0.046871635999999994,-0.00958738,-44.4,-3.12,-20.58
1554220051323,6.622362,-5.445012999999999,4.4717703,-0.018109497,-0.05752428,-0.0031957934000000003,-44.34,-3.12,-20.58
1554220051343,6.6941880000000005,-5.3923407,4.4621935,-0.012783173500000002,-0.058589544,-0.002130529,-44.34,-3.18,-20.58
1554220051364,6.617573299999999,-5.4114943,4.490924,-0.007456851,-0.06285059999999999,-0.004261058,-44.34,-3.18,-20.64
1554220051384,6.627150500000001,-5.401917500000001,4.538808,-0.0053263223,-0.068176925,-0.008522116,-44.4,-3.12,-20.64
1554220051403,6.655881,-5.401917500000001,4.433463,-0.008522116,-0.06498113,-0.011717908999999999,-44.4,-3.06,-20.64
1554220051423,6.6941880000000005,-5.4498014,4.4382515,-0.002130529,-0.060720075,-0.01917476,-44.46,-3.06,-20.7
1554220051443,6.627150500000001,-5.4498014,4.577115,-0.0010652645,-0.056459017,-0.024501082,-44.46,-3.06,-20.76
1554220051463,6.6606693,-5.3923407,4.5196543,0.0031957934000000003,-0.047936900000000005,-0.03089267,-44.52,-3.06,-20.76
1554220051483,6.622362,-5.4354362,4.4861355000000005,0.0010652645,-0.03834952,-0.03834952,-44.52,-3.12,-20.76
1554220051503,6.617573299999999,-5.4641665999999995,4.44304,0.0010652645,-0.027696876000000002,-0.04580637,-44.52,-3.12,-20.76
1554220051522,6.627150500000001,-5.430648000000001,4.246715,-0.0031957934000000003,-0.018109497,-0.05219796,-44.52,-3.18,-20.64
1554220051543,6.6079965,-5.478532,4.4238862999999995,-0.00958738,-0.00958738,-0.056459017,-44.46,-3.18,-20.58
1554220051564,6.655881,-5.54557,4.490924,-0.00958738,-0.0031957934000000003,-0.056459017,-44.46,-3.24,-20.52
1554220051583,6.627150500000001,-5.406706,4.409521,-0.0063915867,0.002130529,-0.060720075,-44.4,-3.24,-20.4
1554220051602,6.6415157,-5.4593782,4.5962687,-0.0053263223,0.0031957934000000003,-0.058589544,-44.4,-3.3,-20.34
1554220051623,6.5840545,-5.478532,4.419098,-0.011717908999999999,0.0053263223,-0.05539375,-44.34,-3.3,-20.28
1554220051642,6.6079965,-5.3444567,4.32333,-0.01917476,0.0031957934000000003,-0.051132694000000006,-44.34,-3.3,-20.22
1554220051662,6.670246000000001,-5.3683987,4.6633059999999995,-0.024501082,-0.002130529,-0.041545313,-44.34,-3.3,-20.16
1554220051682,6.655881,-5.3683987,4.4861355000000005,-0.014913702,-0.008522116,-0.039414786,-44.34,-3.3,-20.16
1554220051703,6.6367273,-5.4545900000000005,4.5196543,-0.002130529,-0.014913702,-0.033023197000000004,-44.28,-3.3,-20.1
1554220051723,6.631939,-5.3300915,4.5483847,0.0063915867,-0.026631612000000002,-0.027696876000000002,-44.28,-3.3,-20.04
1554220051743,6.5265937,-5.4258595000000005,4.409521,0.010652645,-0.036218993,-0.02130529,-44.22,-3.3,-20.04
1554220051763,6.5744777,-5.468955,4.433463,0.014913702,-0.04580637,-0.015978966,-44.22,-3.18,-19.98
1554220051783,6.622362,-5.54557,4.4765587,0.010652645,-0.051132694000000006,-0.010652645,-44.22,-3.06,-19.92
1554220051803,6.622362,-5.497685400000001,4.5340195,0.004261058,-0.058589544,-0.007456851,-44.16,-2.94,-19.86
1554220051823,6.5984197,-5.4258595000000005,4.601057,0.014913702,-0.05965481,-0.007456851,-44.16,-2.88,-19.86
1554220051843,6.531382,-5.3683987,4.371214,0.03089267,-0.05539375,-0.0053263223,-44.16,-2.82,-19.86
1554220051862,6.5457472999999995,-5.4354362,4.5483847,0.04261058,-0.051132694000000006,-0.0063915867,-44.16,-2.82,-19.86
1554220051882,6.612785000000001,-5.3971290000000005,4.490924,0.04580637,-0.046871635999999994,-0.008522116,-44.16,-2.76,-19.86
1554220051903,6.627150500000001,-5.521628,4.2754455,0.039414786,-0.040480047000000005,-0.008522116,-44.16,-2.76,-19.86
1554220051924,6.5601125,-5.4402246,4.4382515,0.03195793,-0.041545313,-0.0063915867,-44.16,-2.82,-19.86
1554220051942,6.655881,-5.4402246,4.2850223,0.026631612000000002,-0.03834952,-0.0053263223,-44.16,-2.88,-19.86
1554220051962,6.627150500000001,-5.4498014,4.2610803,0.025566347000000003,-0.037284255,-0.007456851,-44.1,-2.94,-19.86
1554220051983,6.646304,-5.4881085999999994,4.2754455,0.017044231,-0.034088463,-0.011717908999999999,-44.1,-2.94,-19.86
1554220052002,6.655881,-5.612607499999999,4.3760023,0.00958738,-0.024501082,-0.013848438000000001,-44.1,-2.94,-19.86
1554220052022,6.6654577,-5.478532,4.395156,0.008522116,-0.018109497,-0.01917476,-44.1,-2.88,-19.86
1554220052042,6.617573299999999,-5.4641665999999995,4.419098,0.0063915867,-0.0053263223,-0.02876214,-44.1,-2.82,-19.86
1554220052063,6.703765,-5.507262,4.44304,0.002130529,0.002130529,-0.036218993,-44.1,-2.76,-19.86
1554220052082,6.6079965,-5.54557,4.4382515,-0.004261058,0.0063915867,-0.039414786,-44.1,-2.7,-19.86
1554220052103,6.5840545,-5.445012999999999,4.371214,-0.007456851,0.00958738,-0.04261058,-44.1,-2.64,-19.86
1554220052123,6.517017,-5.497685400000001,4.3999443,-0.011717908999999999,0.008522116,-0.04261058,-44.16,-2.64,-19.86
1554220052142,6.5840545,-5.48332,4.2754455,-0.011717908999999999,0.00958738,-0.037284255,-44.16,-2.7,-19.86
1554220052163,6.6079965,-5.3875523,4.3760023,-0.011717908999999999,0.007456851,-0.035153727999999995,-44.16,-2.76,-19.92
1554220052183,6.6654577,-5.4498014,4.44304,-0.007456851,0.0053263223,-0.029827405,-44.16,-2.82,-19.92
1554220052202,6.603208,-5.4545900000000005,4.4143095,-0.008522116,-0.0010652645,-0.027696876000000002,-44.16,-2.88,-19.92
1554220052222,6.593631299999999,-5.4881085999999994,4.3903675,-0.012783173500000002,-0.008522116,-0.023435817999999997,-44.22,-3.0,-19.92
1554220052243,6.6654577,-5.445012999999999,4.481347,-0.012783173500000002,-0.00958738,-0.020240024,-44.22,-3.06,-19.92
1554220052263,6.612785000000001,-5.468955,4.2945995,-0.0063915867,-0.00958738,-0.01917476,-44.22,-3.06,-19.92
1554220052283,6.5840545,-5.4258595000000005,4.490924,-0.007456851,-0.010652645,-0.01917476,-44.16,-3.0,-19.92
1554220052303,6.6750345,-5.507262,4.270657,-0.014913702,-0.008522116,-0.018109497,-44.16,-3.0,-19.86
1554220052323,6.622362,-5.535993,4.4238862999999995,-0.020240024,-0.008522116,-0.020240024,-44.16,-2.94,-19.8
1554220052343,6.5792660000000005,-5.497685400000001,4.433463,-0.022370555,-0.010652645,-0.025566347000000003,-44.16,-2.88,-19.74
1554220052364,6.703765,-5.593454,4.5340195,-0.022370555,-0.007456851,-0.027696876000000002,-44.16,-2.76,-19.68
1554220052382,6.6750345,-5.607819,4.3903675,-0.025566347000000003,-0.007456851,-0.03195793,-44.16,-2.7,-19.62
1554220052402,6.5026517,-5.5743003,4.4957123,-0.025566347000000003,-0.0063915867,-0.036218993,-44.1,-2.7,-19.56
1554220052422,6.588842999999999,-5.507262,4.5148660000000005,-0.020240024,-0.0031957934000000003,-0.036218993,-44.1,-2.7,-19.5
1554220052443,6.612785000000001,-5.4545900000000005,4.361637,-0.018109497,-0.002130529,-0.036218993,-44.16,-2.7,-19.44
1554220052462,6.5792660000000005,-5.48332,4.4238862999999995,-0.020240024,-0.0031957934000000003,-0.036218993,-44.16,-2.7,-19.38
1554220052482,6.517017,-5.3444567,4.3281183,-0.022370555,-0.0053263223,-0.035153727999999995,-44.16,-2.7,-19.38
1554220052503,6.5792660000000005,-5.4498014,4.4143095,-0.02130529,-0.008522116,-0.03089267,-44.16,-2.76,-19.32
1554220052523,6.5840545,-5.555146700000001,4.3999443,-0.022370555,-0.00958738,-0.029827405,-44.22,-2.76,-19.32
1554220052543,6.569689299999999,-5.5743003,4.419098,-0.015978966,-0.011717908999999999,-0.03089267,-44.22,-2.76,-19.32
1554220052563,6.603208,-5.521628,4.4621935,-0.007456851,-0.012783173500000002,-0.035153727999999995,-44.22,-2.76,-19.32
1554220052583,6.617573299999999,-5.512050599999999,4.347272,-0.010652645,-0.011717908999999999,-0.039414786,-44.22,-2.76,-19.26
1554220052605,6.631939,-5.497685400000001,4.2945995,-0.00958738,-0.0063915867,-0.04474111,-44.22,-2.7,-19.26
1554220052624,6.622362,-5.593454,4.4238862999999995,-0.007456851,0.0,-0.05219796,-44.16,-2.58,-19.26
1554220052643,6.5265937,-5.559935,4.4286747,-0.008522116,0.004261058,-0.056459017,-44.16,-2.46,-19.26
1554220052665,6.5984197,-5.5647235,4.4765587,-0.00958738,0.010652645,-0.06711166,-44.1,-2.34,-19.26
1554220052683,6.5984197,-5.593454,4.419098,-0.007456851,0.00958738,-0.06604639400000001,-44.04,-2.22,-19.26
1554220052703,6.540959,-5.5647235,4.4621935,-0.0053263223,0.013848438000000001,-0.06924219,-44.04,-2.1,-19.26
1554220052723,6.631939,-5.5407815000000005,4.447828299999999,-0.004261058,0.012783173500000002,-0.06711166,-43.98,-1.98,-19.26
1554220052744,6.5122285,-5.521628,4.4238862999999995,-0.0031957934000000003,0.011717908999999999,-0.06604639400000001,-43.98,-1.86,-19.26
1554220052763,6.593631299999999,-5.5647235,4.5483847,0.002130529,0.008522116,-0.06391586,-43.98,-1.86,-19.26
1554220052782,6.617573299999999,-5.5407815000000005,4.5148660000000005,0.0063915867,0.0010652645,-0.06178534,-43.98,-1.86,-19.26
1554220052802,6.646304,-5.5168395,4.3424835,0.002130529,-0.004261058,-0.060720075,-43.92,-1.92,-19.32
1554220052824,6.6079965,-5.430648000000001,4.4143095,0.0053263223,-0.010652645,-0.05539375,-43.92,-1.98,-19.32
1554220052843,6.540959,-5.507262,4.4957123,0.004261058,-0.017044231,-0.051132694000000006,-43.92,-2.1,-19.38
1554220052863,6.531382,-5.4881085999999994,4.385579,0.0063915867,-0.024501082,-0.046871635999999994,-43.92,-2.16,-19.56
1554220052882,6.646304,-5.382764,4.3760023,0.0053263223,-0.02876214,-0.041545313,-43.86,-2.34,-19.68
1554220052903,6.6510925,-5.4498014,4.481347,0.011717908999999999,-0.034088463,-0.041545313,-43.86,-2.46,-19.8
1554220052923,6.612785000000001,-5.401917500000001,4.419098,0.011717908999999999,-0.041545313,-0.040480047000000005,-43.86,-2.58,-19.92
1554220052943,6.627150500000001,-5.502473999999999,4.3424835,0.004261058,-0.04580637,-0.03834952,-43.8,-2.76,-19.98
1554220052963,6.5792660000000005,-5.502473999999999,4.361637,-0.0031957934000000003,-0.051132694000000006,-0.03834952,-43.8,-2.88,-20.04
1554220052983,6.6079965,-5.521628,4.433463,0.010652645,-0.049002163,-0.033023197000000004,-43.86,-2.94,-20.1
1554220053002,6.5744777,-5.4593782,4.2898107,0.018109497,-0.04580637,-0.026631612000000002,-43.92,-2.94,-20.04
1554220053024,6.540959,-5.3923407,4.3281183,0.01917476,-0.039414786,-0.022370555,-43.92,-2.94,-19.98
1554220053044,6.5792660000000005,-5.3205147,4.2371383,0.014913702,-0.040480047000000005,-0.01917476,-43.98,-2.94,-19.86
1554220053062,6.517017,-5.4210709999999995,4.217984700000001,0.013848438000000001,-0.03834952,-0.011717908999999999,-43.98,-2.94,-19.68
1554220053083,6.617573299999999,-5.4593782,4.3185415,0.011717908999999999,-0.041545313,-0.007456851,-43.98,-2.94,-19.56
1554220053102,6.569689299999999,-5.4354362,4.256292,0.017044231,-0.035153727999999995,-0.0053263223,-44.04,-3.06,-19.5
1554220053122,6.631939,-5.559935,4.1222167,0.023435817999999997,-0.035153727999999995,-0.004261058,-44.04,-3.12,-19.44
1554220053142,6.703765,-5.5168395,4.256292,0.024501082,-0.029827405,-0.008522116,-43.98,-3.18,-19.44
1554220053163,6.6415157,-5.535993,4.3807906999999995,0.018109497,-0.023435817999999997,-0.010652645,-43.92,-3.3,-19.44
1554220053182,6.646304,-5.535993,4.3760023,0.014913702,-0.017044231,-0.015978966,-43.92,-3.42,-19.44
1554220053202,6.6367273,-5.5982423,4.3760023,0.018109497,0.0031957934000000003,-0.023435817999999997,-43.86,-3.54,-19.44
1554220053223,6.6989765,-5.535993,4.1844660000000005,0.015978966,0.008522116,-0.025566347000000003,-43.86,-3.54,-19.44
1554220053242,6.703765,-5.617396,4.395156,0.007456851,0.020240024,-0.03089267,-43.86,-3.54,-19.44
1554220053262,6.7133417,-5.617396,4.2850223,0.004261058,0.035153727999999995,-0.039414786,-43.92,-3.42,-19.44
1554220053283,6.6654577,-5.478532,4.4238862999999995,0.004261058,0.041545313,-0.04580637,-43.92,-3.42,-19.44
1554220053302,6.770802499999999,-5.5168395,4.4382515,0.007456851,0.054328485999999995,-0.053263225,-43.92,-3.3,-19.38
1554220053323,6.5840545,-5.4210709999999995,4.419098,0.010652645,0.06285059999999999,-0.05539375,-43.98,-3.24,-19.32
1554220053343,6.6606693,-5.3971290000000005,4.3568487000000005,0.014913702,0.06924219,-0.054328485999999995,-43.98,-3.12,-19.32
1554220053363,6.646304,-5.3779755,4.3185415,0.013848438000000001,0.07030745599999999,-0.05752428,-44.04,-3.06,-19.32
1554220053383,6.617573299999999,-5.48332,4.280234,0.00958738,0.07243799,-0.058589544,-43.98,-3.0,-19.32
1554220053403,6.569689299999999,-5.4210709999999995,4.3568487000000005,0.007456851,0.07456851,-0.05965481,-43.98,-2.82,-19.44
1554220053423,6.593631299999999,-5.512050599999999,4.3760023,0.0031957934000000003,0.07669904,-0.05965481,-43.98,-2.7,-19.56
1554220053445,6.5505357,-5.4641665999999995,4.4717703,0.0031957934000000003,0.07776430000000001,-0.060720075,-43.92,-2.58,-19.62
1554220053462,6.5984197,-5.507262,4.3999443,0.002130529,0.07989483,-0.060720075,-43.92,-2.52,-19.74
1554220053483,6.6367273,-5.492897,4.385579,-0.0010652645,0.07243799,-0.06391586,-43.86,-2.46,-19.86
1554220053503,6.7133417,-5.478532,4.500500700000001,-0.008522116,0.07243799,-0.06498113,-43.86,-2.46,-19.92
1554220053523,6.6079965,-5.559935,4.5196543,-0.01917476,0.07563378,-0.06391586,-43.86,-2.4,-19.98
1554220053543,6.703765,-5.559935,4.4382515,-0.012783173500000002,0.07350325,-0.06604639400000001,-43.86,-2.4,-20.04
1554220053563,6.588842999999999,-5.497685400000001,4.3807906999999995,-0.002130529,0.07882957,-0.06711166,-43.86,-2.4,-20.04
1554220053583,6.5984197,-5.5407815000000005,4.433463,-0.0031957934000000003,0.07669904,-0.06924219,-43.86,-2.52,-20.04
1554220053603,6.5505357,-5.502473999999999,4.3281183,-0.014913702,0.07563378,-0.07243799,-43.86,-2.58,-20.04
1554220053623,6.540959,-5.478532,4.3568487000000005,-0.025566347000000003,0.07030745599999999,-0.07456851,-43.86,-2.64,-20.04
1554220053643,6.612785000000001,-5.468955,4.4717703,-0.033023197000000004,0.06498113,-0.07776430000000001,-43.86,-2.76,-20.04
1554220053662,6.603208,-5.4641665999999995,4.409521,-0.035153727999999995,0.056459017,-0.07989483,-43.86,-2.88,-20.04
1554220053682,6.617573299999999,-5.4593782,4.4143095,-0.035153727999999995,0.04580637,-0.083090626,-43.86,-2.94,-20.04
1554220053703,6.5601125,-5.4881085999999994,4.4957123,-0.03834952,0.037284255,-0.08735169,-43.92,-3.0,-20.04
1554220053724,6.622362,-5.507262,4.529230999999999,-0.040480047000000005,0.02876214,-0.09054748,-43.92,-3.06,-20.1
1554220053742,6.631939,-5.5168395,4.553173,-0.039414786,0.022370555,-0.09054748,-43.92,-3.06,-20.1
1554220053763,6.564901,-5.4641665999999995,4.835689,-0.029827405,0.023435817999999997,-0.09161274,-43.98,-3.06,-20.16
1554220053782,6.679823,-5.492897,4.6058455,-0.025566347000000003,0.026631612000000002,-0.09054748,-43.98,-3.0,-20.28
1554220053802,6.564901,-5.497685400000001,4.577115,-0.024501082,0.027696876000000002,-0.09267801,-44.04,-2.94,-20.4
1554220053823,6.555324000000001,-5.4258595000000005,4.524442700000001,-0.020240024,0.026631612000000002,-0.09374327,-44.04,-2.88,-20.46
1554220053843,6.483498,-5.3636102999999995,4.5962687,-0.018109497,0.020240024,-0.09161274,-44.04,-2.88,-20.58
1554220053863,6.540959,-5.4354362,4.648941000000001,-0.017044231,0.014913702,-0.08841695,-44.1,-2.82,-20.7
1554220053883,6.4882865,-5.4881085999999994,4.5196543,-0.012783173500000002,0.00958738,-0.08522116,-44.1,-2.82,-20.82
1554220053903,6.569689299999999,-5.3971290000000005,4.5962687,-0.010652645,0.0053263223,-0.083090626,-44.1,-2.82,-20.88
1554220053923,6.564901,-5.406706,4.7734394,-0.013848438000000001,0.002130529,-0.080960095,-44.1,-2.82,-20.88
1554220053942,6.531382,-5.3157263,4.5483847,-0.013848438000000001,-0.004261058,-0.07669904,-44.1,-2.88,-20.88
1554220053963,6.50744,-5.3971290000000005,4.6297874000000006,-0.010652645,-0.010652645,-0.07350325,-44.16,-2.94,-20.88
1554220053983,6.5265937,-5.4402246,4.5483847,-0.007456851,-0.008522116,-0.068176925,-44.22,-2.94,-20.88
1554220054003,6.517017,-5.3779755,4.624999,-0.008522116,-0.012783173500000002,-0.06285059999999999,-44.22,-3.0,-20.82
1554220054023,6.593631299999999,-5.430648000000001,4.529230999999999,-0.002130529,-0.018109497,-0.05752428,-44.22,-3.0,-20.82
1554220054043,6.617573299999999,-5.33488,4.481347,0.004261058,-0.024501082,-0.056459017,-44.28,-3.06,-20.82
1554220054064,6.5361705,-5.3444567,4.5819035,-0.0063915867,-0.03195793,-0.05219796,-44.34,-3.18,-20.82
1554220054082,6.5505357,-5.3540335,4.5340195,-0.007456851,-0.03195793,-0.05006743,-44.34,-3.18,-20.82
1554220054103,6.569689299999999,-5.445012999999999,4.44304,0.0010652645,-0.040480047000000005,-0.04474111,-44.4,-3.42,-20.82
1554220054122,6.5792660000000005,-5.4210709999999995,4.4526167,0.011717908999999999,-0.040480047000000005,-0.040480047000000005,-44.4,-3.6,-20.82
1554220054143,6.5792660000000005,-5.2965727,4.447828299999999,0.011717908999999999,-0.040480047000000005,-0.03834952,-44.4,-3.72,-20.88
1554220054162,6.5457472999999995,-5.3157263,4.5148660000000005,0.0031957934000000003,-0.040480047000000005,-0.036218993,-44.4,-3.84,-20.88
1554220054184,6.588842999999999,-5.4210709999999995,4.5819035,0.008522116,-0.041545313,-0.034088463,-44.46,-3.9,-20.88
1554220054205,6.569689299999999,-5.4354362,4.3903675,0.010652645,-0.040480047000000005,-0.03089267,-44.46,-3.96,-20.88
1554220054223,6.5792660000000005,-5.4114943,4.529230999999999,0.010652645,-0.03834952,-0.02876214,-44.52,-4.02,-20.88
1554220054243,6.569689299999999,-5.373187000000001,4.481347,0.007456851,-0.04474111,-0.027696876000000002,-44.52,-4.02,-20.88
1554220054263,6.6510925,-5.401917500000001,4.447828299999999,0.0053263223,-0.04474111,-0.026631612000000002,-44.58,-3.96,-20.88
1554220054283,6.564901,-5.4354362,4.4238862999999995,0.0031957934000000003,-0.04580637,-0.026631612000000002,-44.64,-3.9,-20.94
1554220054303,6.646304,-5.445012999999999,4.5435963,0.0063915867,-0.041545313,-0.025566347000000003,-44.64,-3.84,-20.94
1554220054324,6.603208,-5.4210709999999995,4.500500700000001,0.010652645,-0.039414786,-0.026631612000000002,-44.64,-3.78,-20.88
1554220054342,6.5792660000000005,-5.4354362,4.56275,0.010652645,-0.036218993,-0.026631612000000002,-44.58,-3.78,-20.88
1554220054362,6.6079965,-5.4258595000000005,4.395156,0.010652645,-0.029827405,-0.024501082,-44.52,-3.72,-20.82
1554220054383,6.5265937,-5.468955,4.3329067000000006,0.0063915867,-0.02876214,-0.023435817999999997,-44.52,-3.72,-20.76
1554220054404,6.5744777,-5.4498014,4.490924,0.010652645,-0.02130529,-0.02130529,-44.46,-3.72,-20.7
1554220054422,6.6079965,-5.4402246,4.529230999999999,0.004261058,-0.02130529,-0.020240024,-44.4,-3.66,-20.58
1554220054442,6.627150500000001,-5.4641665999999995,4.500500700000001,0.002130529,-0.020240024,-0.020240024,-44.34,-3.6,-20.52
1554220054463,6.5840545,-5.430648000000001,4.672883000000001,-0.008522116,-0.01917476,-0.01917476,-44.34,-3.54,-20.52
1554220054483,6.588842999999999,-5.3875523,4.5675383,-0.022370555,-0.018109497,-0.017044231,-44.28,-3.48,-20.46
1554220054503,6.5984197,-5.4210709999999995,4.553173,-0.023435817999999997,-0.018109497,-0.015978966,-44.28,-3.54,-20.46
1554220054522,6.5744777,-5.4402246,4.500500700000001,-0.0010652645,-0.02130529,-0.013848438000000001,-44.28,-3.54,-20.46
1554220054542,6.655881,-5.48332,4.4717703,0.012783173500000002,-0.023435817999999997,-0.012783173500000002,-44.28,-3.6,-20.46
1554220054563,6.483498,-5.492897,4.3281183,0.015978966,-0.027696876000000002,-0.00958738,-44.28,-3.6,-20.46
1554220054582,6.588842999999999,-5.4354362,4.4286747,0.0053263223,-0.03195793,-0.008522116,-44.34,-3.66,-20.46
1554220054603,6.617573299999999,-5.4498014,4.3807906999999995,0.0010652645,-0.037284255,-0.008522116,-44.34,-3.72,-20.46
1554220054623,6.617573299999999,-5.4354362,4.361637,0.002130529,-0.039414786,-0.013848438000000001,-44.34,-3.72,-20.46
1554220054643,6.646304,-5.4402246,4.529230999999999,-0.002130529,-0.040480047000000005,-0.020240024,-44.34,-3.66,-20.4
1554220054662,6.531382,-5.559935,4.466982,0.0010652645,-0.039414786,-0.022370555,-44.34,-3.6,-20.34
1554220054683,6.6510925,-5.4545900000000005,4.3807906999999995,0.00958738,-0.029827405,-0.03089267,-44.34,-3.54,-20.34
1554220054703,6.5984197,-5.4498014,4.2850223,0.011717908999999999,-0.020240024,-0.036218993,-44.34,-3.48,-20.28
1554220054722,6.5601125,-5.3540335,4.409521,0.0010652645,-0.007456851,-0.04261058,-44.34,-3.36,-20.22
1554220054743,6.5361705,-5.401917500000001,4.5100775,-0.0063915867,0.002130529,-0.046871635999999994,-44.34,-3.24,-20.16
1554220054765,6.617573299999999,-5.4641665999999995,4.433463,-0.002130529,0.010652645,-0.047936900000000005,-44.28,-3.12,-20.16
1554220054782,6.5840545,-5.5168395,4.337695,-0.0031957934000000003,0.017044231,-0.05006743,-44.28,-3.06,-20.22
1554220054804,6.555324000000001,-5.521628,4.4382515,-0.0010652645,0.01917476,-0.05219796,-44.28,-2.94,-20.22
1554220054823,6.631939,-5.4354362,4.529230999999999,0.002130529,0.024501082,-0.053263225,-44.28,-2.88,-20.28
1554220054842,6.588842999999999,-5.401917500000001,4.538808,-0.0031957934000000003,0.024501082,-0.053263225,-44.22,-2.82,-20.34
1554220054863,6.655881,-5.3683987,4.5723267,-0.0053263223,0.024501082,-0.05219796,-44.22,-2.82,-20.34
1554220054883,6.569689299999999,-5.430648000000001,4.5100775,-0.0010652645,0.029827405,-0.049002163,-44.22,-2.82,-20.34
1554220054903,6.655881,-5.401917500000001,4.4861355000000005,0.008522116,0.029827405,-0.05006743,-44.22,-2.82,-20.34
1554220054923,6.540959,-5.373187000000001,4.371214,0.007456851,0.02876214,-0.049002163,-44.22,-2.88,-20.34
1554220054943,6.655881,-5.4210709999999995,4.4526167,0.0053263223,0.026631612000000002,-0.047936900000000005,-44.28,-2.88,-20.28
1554220054963,6.569689299999999,-5.3779755,4.409521,0.002130529,0.022370555,-0.04474111,-44.28,-2.94,-20.22
1554220054983,6.5840545,-5.4545900000000005,4.4957123,-0.0031957934000000003,0.017044231,-0.04261058,-44.28,-2.94,-20.16
1554220055002,6.6510925,-5.512050599999999,4.6058455,-0.007456851,0.013848438000000001,-0.040480047000000005,-44.28,-2.94,-20.1
1554220055022,6.6367273,-5.4258595000000005,4.4765587,-0.018109497,0.010652645,-0.041545313,-44.28,-2.94,-20.1
1554220055044,6.627150500000001,-5.4498014,4.5148660000000005,-0.0063915867,0.007456851,-0.03834952,-44.28,-3.0,-20.04
1554220055062,6.622362,-5.4354362,4.56275,0.004261058,0.004261058,-0.040480047000000005,-44.28,-3.0,-20.04
1554220055083,6.5361705,-5.4258595000000005,4.4382515,0.002130529,0.0053263223,-0.040480047000000005,-44.22,-3.06,-20.1
1554220055103,6.6989765,-5.430648000000001,4.385579,0.0,0.004261058,-0.04261058,-44.22,-3.06,-20.1
1554220055122,6.5457472999999995,-5.4354362,4.5196543,0.004261058,0.004261058,-0.046871635999999994,-44.22,-3.06,-20.16
1554220055144,6.531382,-5.4258595000000005,4.5819035,0.002130529,0.004261058,-0.049002163,-44.16,-3.06,-20.16
1554220055165,6.588842999999999,-5.382764,4.466982,-0.004261058,0.007456851,-0.051132694000000006,-44.16,-3.06,-20.16
1554220055184,6.555324000000001,-5.373187000000001,4.419098,-0.007456851,0.010652645,-0.053263225,-44.16,-3.06,-20.16
1554220055203,6.564901,-5.3971290000000005,4.577115,-0.0063915867,0.011717908999999999,-0.051132694000000006,-44.16,-3.06,-20.16
1554220055224,6.5984197,-5.4881085999999994,4.4286747,0.002130529,0.007456851,-0.05539375,-44.16,-3.06,-20.16
1554220055243,6.555324000000001,-5.4593782,4.4717703,-0.0031957934000000003,0.004261058,-0.058589544,-44.16,-3.06,-20.1
1554220055263,6.6606693,-5.468955,4.490924,-0.00958738,0.0053263223,-0.05539375,-44.16,-3.06,-20.1
1554220055283,6.569689299999999,-5.4593782,4.7255554,-0.002130529,0.0031957934000000003,-0.053263225,-44.16,-3.06,-20.1
1554220055303,6.6415157,-5.4354362,4.4143095,0.011717908999999999,-0.0010652645,-0.049002163,-44.16,-3.06,-20.1
1554220055322,6.5984197,-5.468955,4.6058455,0.007456851,-0.0010652645,-0.046871635999999994,-44.16,-3.06,-20.04
1554220055343,6.5218053,-5.4402246,4.481347,0.002130529,-0.0010652645,-0.04580637,-44.16,-3.06,-20.1
1554220055362,6.4787097000000005,-5.3779755,4.466982,0.010652645,-0.0063915867,-0.040480047000000005,-44.16,-3.0,-20.1
1554220055383,6.617573299999999,-5.3444567,4.4957123,0.014913702,-0.011717908999999999,-0.03834952,-44.16,-3.0,-20.16
1554220055403,6.6606693,-5.401917500000001,4.500500700000001,0.008522116,-0.015978966,-0.034088463,-44.16,-3.0,-20.22
1554220055423,6.5265937,-5.406706,4.308964700000001,-0.0053263223,-0.024501082,-0.033023197000000004,-44.16,-3.0,-20.22
1554220055442,6.622362,-5.48332,4.433463,-0.010652645,-0.034088463,-0.02876214,-44.16,-3.0,-20.28
1554220055464,6.6079965,-5.4881085999999994,4.7303440000000005,-0.008522116,-0.040480047000000005,-0.03089267,-44.16,-3.0,-20.34
1554220055483,6.679823,-5.555146700000001,4.4957123,0.0,-0.036218993,-0.033023197000000004,-44.16,-3.0,-20.4
1554220055503,6.5601125,-5.4881085999999994,4.385579,0.00958738,-0.03089267,-0.040480047000000005,-44.16,-3.0,-20.46
1554220055523,6.617573299999999,-5.507262,4.3903675,0.0063915867,-0.029827405,-0.041545313,-44.16,-3.0,-20.4
1554220055543,6.603208,-5.555146700000001,4.466982,-0.004261058,-0.024501082,-0.04261058,-44.16,-3.0,-20.4
1554220055563,6.6606693,-5.4354362,4.5914803,-0.0010652645,-0.02130529,-0.043675844000000005,-44.16,-3.0,-20.34
1554220055583,6.5265937,-5.3396683,4.4238862999999995,0.0010652645,-0.018109497,-0.04261058,-44.16,-3.0,-20.34
1554220055603,6.564901,-5.373187000000001,4.481347,0.0,-0.017044231,-0.04261058,-44.1,-3.06,-20.28
1554220055622,6.6367273,-5.445012999999999,4.4717703,-0.0031957934000000003,-0.015978966,-0.040480047000000005,-44.1,-3.06,-20.22
1554220055642,6.627150500000001,-5.497685400000001,4.419098,0.0,-0.012783173500000002,-0.040480047000000005,-44.1,-3.06,-20.22
1554220055663,6.6893997,-5.5407815000000005,4.5340195,0.007456851,-0.00958738,-0.037284255,-44.1,-3.12,-20.16
1554220055683,6.627150500000001,-5.478532,4.3281183,0.011717908999999999,-0.008522116,-0.034088463,-44.1,-3.12,-20.16
1554220055703,6.5744777,-5.445012999999999,4.634576,0.0053263223,-0.00958738,-0.033023197000000004,-44.1,-3.12,-20.16
1554220055723,6.564901,-5.373187000000001,4.524442700000001,0.0031957934000000003,-0.013848438000000001,-0.036218993,-44.1,-3.12,-20.16
1554220055743,6.540959,-5.4210709999999995,4.5100775,0.008522116,-0.013848438000000001,-0.040480047000000005,-44.1,-3.18,-20.16
1554220055763,6.5601125,-5.382764,4.553173,0.012783173500000002,-0.015978966,-0.039414786,-44.1,-3.18,-20.16
1554220055783,6.6367273,-5.325303,4.4286747,0.0063915867,-0.017044231,-0.03089267,-44.1,-3.18,-20.16
1554220055803,6.5840545,-5.382764,4.447828299999999,-0.0063915867,-0.024501082,-0.022370555,-44.16,-3.18,-20.1
1554220055823,6.569689299999999,-5.478532,4.4621935,-0.011717908999999999,-0.02876214,-0.012783173500000002,-44.22,-3.18,-20.1
1554220055843,6.6654577,-5.468955,4.538808,-0.002130529,-0.036218993,-0.011717908999999999,-44.22,-3.12,-20.1
1554220055863,6.655881,-5.401917500000001,4.4286747,-0.0010652645,-0.040480047000000005,-0.013848438000000001,-44.28,-3.12,-20.1
1554220055882,6.655881,-5.4258595000000005,4.347272,-0.007456851,-0.04474111,-0.014913702,-44.28,-3.0,-20.04
1554220055902,6.646304,-5.4402246,4.5148660000000005,-0.002130529,-0.04261058,-0.013848438000000001,-44.28,-2.94,-20.04
1554220055923,6.569689299999999,-5.48332,4.5819035,0.0,-0.037284255,-0.017044231,-44.28,-2.88,-20.04
1554220055943,6.5744777,-5.382764,4.524442700000001,-0.0063915867,-0.025566347000000003,-0.01917476,-44.28,-2.82,-20.04
1554220055963,6.622362,-5.478532,4.385579,-0.008522116,-0.012783173500000002,-0.025566347000000003,-44.22,-2.82,-19.98
1554220055983,6.622362,-5.512050599999999,4.280234,-0.0031957934000000003,0.0010652645,-0.03089267,-44.16,-2.76,-19.98
1554220056002,6.684611299999999,-5.555146700000001,4.3185415,0.0,0.014913702,-0.03834952,-44.16,-2.76,-19.92
1554220056023,6.617573299999999,-5.5503583,4.3807906999999995,0.0,0.025566347000000003,-0.04580637,-44.1,-2.82,-19.92
1554220056043,6.670246000000001,-5.4593782,4.433463,-0.0010652645,0.035153727999999995,-0.05219796,-44.1,-2.94,-19.86
1554220056062,6.646304,-5.502473999999999,4.371214,-0.007456851,0.040480047000000005,-0.060720075,-44.04,-2.94,-19.8
1554220056083,6.603208,-5.4593782,4.5148660000000005,-0.014913702,0.053263225,-0.06711166,-44.04,-3.0,-19.8
1554220056103,6.622362,-5.4258595000000005,4.7016134,-0.015978966,0.060720075,-0.07350325,-44.1,-3.0,-19.8
1554220056122,6.5744777,-5.373187000000001,4.706402,-0.0031957934000000003,0.07350325,-0.07882957,-44.1,-3.0,-19.8
1554220056143,6.5984197,-5.4593782,4.696825,0.010652645,0.080960095,-0.083090626,-44.1,-3.0,-19.86
1554220056162,6.6510925,-5.4498014,4.768651,0.018109497,0.084155895,-0.083090626,-44.1,-2.94,-19.86
1554220056183,6.6367273,-5.4402246,4.821324,0.029827405,0.07989483,-0.07989483,-44.04,-3.0,-19.92
1554220056203,6.5505357,-5.282207499999999,4.6393642,0.039414786,0.07456851,-0.07776430000000001,-44.04,-3.0,-19.92
1554220056222,6.4787097000000005,-5.33488,4.5819035,0.04261058,0.060720075,-0.07030745599999999,-43.98,-3.06,-19.98
1554220056242,6.445191,-5.239112,4.5914803,0.043675844000000005,0.04580637,-0.06178534,-43.98,-3.06,-20.04
1554220056263,6.469133,-5.1768627,4.601057,0.041545313,0.024501082,-0.056459017,-43.92,-3.12,-20.1
1554220056283,6.469133,-5.2103815,4.586692,0.04474111,0.0031957934000000003,-0.043675844000000005,-43.86,-3.18,-20.1
1554220056302,6.555324000000001,-5.2678423,4.4717703,0.04580637,-0.02130529,-0.03089267,-43.92,-3.24,-20.16
1554220056323,6.5601125,-5.224746700000001,4.4526167,0.036218993,-0.03089267,-0.023435817999999997,-43.92,-3.24,-20.22
1554220056343,6.540959,-5.2917843,4.3807906999999995,0.029827405,-0.04474111,-0.017044231,-43.98,-3.3,-20.22
1554220056362,6.5457472999999995,-5.3396683,4.5196543,0.020240024,-0.049002163,-0.00958738,-44.04,-3.3,-20.28
1554220056383,6.603208,-5.401917500000001,4.5340195,0.013848438000000001,-0.05006743,-0.0063915867,-44.1,-3.3,-20.28
1554220056402,6.631939,-5.239112,4.5340195,0.015978966,-0.040480047000000005,-0.0053263223,-44.16,-3.3,-20.34
1554220056423,6.588842999999999,-5.4114943,4.4765587,0.012783173500000002,-0.029827405,-0.004261058,-44.16,-3.3,-20.34
1554220056442,6.5792660000000005,-5.373187000000001,4.5100775,0.0063915867,-0.015978966,-0.0063915867,-44.22,-3.24,-20.34
1554220056463,6.612785000000001,-5.430648000000001,4.5962687,0.002130529,0.002130529,-0.012783173500000002,-44.16,-3.24,-20.34
1554220056482,6.7277070000000005,-5.5407815000000005,4.4957123,-0.0010652645,0.015978966,-0.027696876000000002,-44.16,-3.18,-20.34
1554220056503,6.6893997,-5.4593782,4.524442700000001,-0.018109497,0.02876214,-0.039414786,-44.16,-3.18,-20.34
1554220056523,6.708553299999999,-5.4210709999999995,4.5723267,-0.027696876000000002,0.037284255,-0.046871635999999994,-44.16,-3.12,-20.4
1554220056543,6.5744777,-5.468955,4.4526167,-0.02130529,0.049002163,-0.05219796,-44.16,-3.12,-20.4
1554220056563,6.617573299999999,-5.48332,4.5962687,-0.017044231,0.056459017,-0.056459017,-44.16,-3.12,-20.46
1554220056583,6.540959,-5.3444567,4.634576,-0.02130529,0.06285059999999999,-0.058589544,-44.1,-3.12,-20.52
1554220056603,6.5457472999999995,-5.4641665999999995,4.706402,-0.025566347000000003,0.06285059999999999,-0.05752428,-44.1,-3.18,-20.58
1554220056622,6.4882865,-5.4545900000000005,4.586692,-0.014913702,0.060720075,-0.05539375,-44.1,-3.18,-20.64
1554220056642,6.531382,-5.4258595000000005,4.524442700000001,-0.0053263223,0.056459017,-0.05219796,-44.1,-3.24,-20.7
1554220056663,6.555324000000001,-5.3971290000000005,4.419098,-0.004261058,0.049002163,-0.047936900000000005,-44.1,-3.24,-20.76
1554220056682,6.6079965,-5.401917500000001,4.553173,-0.010652645,0.03195793,-0.043675844000000005,-44.1,-3.24,-20.76
1554220056704,6.5601125,-5.468955,4.3999443,-0.017044231,0.011717908999999999,-0.03834952,-44.1,-3.3,-20.82
1554220056722,6.5457472999999995,-5.430648000000001,4.4621935,-0.023435817999999997,-0.0031957934000000003,-0.035153727999999995,-44.1,-3.3,-20.82
1554220056745,6.593631299999999,-5.4114943,4.6154222,-0.023435817999999997,-0.00958738,-0.036218993,-44.1,-3.3,-20.82
1554220056764,6.6415157,-5.4402246,4.3903675,-0.017044231,-0.013848438000000001,-0.037284255,-44.16,-3.3,-20.82
1554220056782,6.5122285,-5.502473999999999,4.524442700000001,-0.013848438000000001,-0.007456851,-0.039414786,-44.16,-3.36,-20.82
1554220056802,6.50744,-5.4210709999999995,4.601057,-0.011717908999999999,-0.002130529,-0.040480047000000005,-44.16,-3.48,-20.82
1554220056823,6.445191,-5.3875523,4.5723267,-0.008522116,0.00958738,-0.04261058,-44.16,-3.6,-20.82
1554220056842,6.588842999999999,-5.445012999999999,4.5340195,-0.008522116,0.00958738,-0.040480047000000005,-44.22,-3.78,-20.82
1554220056862,6.531382,-5.502473999999999,4.4621935,-0.0063915867,0.013848438000000001,-0.043675844000000005,-44.22,-3.96,-20.82
1554220056882,6.5505357,-5.4114943,4.490924,-0.004261058,0.017044231,-0.04474111,-44.28,-4.14,-20.82
1554220056904,6.612785000000001,-5.48332,4.524442700000001,-0.004261058,0.02130529,-0.046871635999999994,-44.28,-4.2,-20.82
1554220056923,6.6606693,-5.4354362,4.5723267,-0.0063915867,0.01917476,-0.04474111,-44.34,-4.26,-20.82
1554220056943,6.555324000000001,-5.478532,4.624999,-0.007456851,0.02130529,-0.04474111,-44.4,-4.2,-20.82
1554220056963,6.531382,-5.468955,4.601057,-0.0063915867,0.02130529,-0.04261058,-44.4,-4.2,-20.82
1554220056982,6.493075,-5.430648000000001,4.624999,-0.007456851,0.023435817999999997,-0.040480047000000005,-44.46,-3.96,-20.88
1554220057003,6.4499793,-5.4593782,4.5100775,0.0,0.020240024,-0.039414786,-44.46,-3.78,-20.88
1554220057022,6.493075,-5.497685400000001,4.553173,0.0,0.023435817999999997,-0.037284255,-44.46,-3.6,-20.88
1554220057043,6.569689299999999,-5.492897,4.529230999999999,0.0,0.023435817999999997,-0.036218993,-44.46,-3.48,-20.88
1554220057063,6.4260373,-5.445012999999999,4.553173,-0.011717908999999999,0.024501082,-0.03834952,-44.46,-3.36,-20.88
1554220057082,6.4643445,-5.3636102999999995,4.433463,-0.014913702,0.027696876000000002,-0.034088463,-44.46,-3.36,-20.88
1554220057102,6.483498,-5.512050599999999,4.601057,-0.012783173500000002,0.023435817999999997,-0.035153727999999995,-44.4,-3.36,-20.94
1554220057123,6.531382,-5.4498014,4.5675383,-0.018109497,0.025566347000000003,-0.03834952,-44.4,-3.48,-21.06
1554220057142,6.445191,-5.4498014,4.553173,-0.03195793,0.024501082,-0.037284255,-44.4,-3.6,-21.12
1554220057162,6.517017,-5.512050599999999,4.538808,-0.03834952,0.023435817999999997,-0.036218993,-44.4,-3.78,-21.24
1554220057182,6.5122285,-5.4593782,4.56275,-0.02876214,0.03089267,-0.035153727999999995,-44.4,-3.9,-21.3
1554220057203,6.3589997,-5.502473999999999,4.56275,-0.024501082,0.035153727999999995,-0.03834952,-44.4,-4.02,-21.42
1554220057222,6.4068837,-5.4402246,4.634576,-0.025566347000000003,0.040480047000000005,-0.037284255,-44.34,-4.08,-21.48
1554220057243,6.469133,-5.4402246,4.7016134,-0.03089267,0.04580637,-0.036218993,-44.34,-4.08,-21.54
1554220057263,6.50744,-5.5695120000000005,4.5962687,-0.025566347000000003,0.043675844000000005,-0.036218993,-44.28,-4.08,-21.6
1554220057282,6.4882865,-5.430648000000001,4.744708999999999,-0.023435817999999997,0.041545313,-0.035153727999999995,-44.28,-3.96,-21.54
1554220057303,6.4068837,-5.4881085999999994,4.6058455,-0.025566347000000003,0.036218993,-0.033023197000000004,-44.28,-3.84,-21.48
1554220057322,6.4068837,-5.5168395,4.6297874000000006,-0.02876214,0.027696876000000002,-0.034088463,-44.28,-3.66,-21.48
1554220057342,6.430825700000001,-5.507262,4.6202106,-0.034088463,0.02130529,-0.03089267,-44.28,-3.48,-21.42
1554220057363,6.4404025,-5.507262,4.8261123,-0.035153727999999995,0.01917476,-0.026631612000000002,-44.28,-3.42,-21.36
1554220057382,6.3685765,-5.555146700000001,4.7925935,-0.025566347000000003,0.012783173500000002,-0.022370555,-44.28,-3.36,-21.36
1554220057402,6.397307,-5.497685400000001,4.735132,-0.015978966,0.0063915867,-0.02130529,-44.28,-3.36,-21.36
1554220057423,6.459556,-5.5503583,4.5962687,-0.011717908999999999,0.0,-0.018109497,-44.34,-3.3,-21.36
1554220057443,6.430825700000001,-5.655703,4.6202106,-0.015978966,-0.011717908999999999,-0.013848438000000001,-44.34,-3.3,-21.36
1554220057463,6.469133,-5.468955,4.7542860000000005,-0.013848438000000001,-0.015978966,-0.008522116,-44.34,-3.36,-21.3
1554220057482,6.469133,-5.6365495,4.672883000000001,-0.008522116,-0.023435817999999997,-0.0063915867,-44.34,-3.36,-21.3
1554220057504,6.363788,-5.5647235,4.706402,-0.0010652645,-0.023435817999999997,-0.0063915867,-44.34,-3.42,-21.3
1554220057522,6.373365,-5.593454,4.6680946,0.0063915867,-0.025566347000000003,-0.004261058,-44.34,-3.36,-21.3
1554220057543,6.4499793,-5.607819,4.6633059999999995,0.010652645,-0.022370555,-0.004261058,-44.34,-3.36,-21.3
1554220057565,6.4499793,-5.679645,4.7734394,0.01917476,-0.022370555,-0.00958738,-44.34,-3.36,-21.3
1554220057583,6.5265937,-5.617396,4.7925935,0.04261058,-0.014913702,-0.017044231,-44.28,-3.3,-21.3
1554220057603,6.4882865,-5.521628,4.687248,0.05219796,-0.011717908999999999,-0.026631612000000002,-44.28,-3.3,-21.3
1554220057624,6.4499793,-5.54557,4.624999,0.04580637,-0.012783173500000002,-0.037284255,-44.28,-3.24,-21.3
1554220057643,6.531382,-5.5503583,4.586692,0.051132694000000006,-0.011717908999999999,-0.047936900000000005,-44.28,-3.18,-21.3
1554220057663,6.531382,-5.5264163,4.586692,0.05006743,-0.008522116,-0.05965481,-44.28,-3.06,-21.3
1554220057684,6.3829417,-5.507262,4.385579,0.027696876000000002,-0.0063915867,-0.06285059999999999,-44.22,-2.88,-21.3
1554220057703,6.4068837,-5.4114943,4.3329067000000006,0.0053263223,-0.0053263223,-0.06498113,-44.22,-2.82,-21.3
1554220057724,6.272808599999999,-5.430648000000001,4.5196543,-0.02130529,-0.007456851,-0.06178534,-44.28,-2.7,-21.3
1554220057743,6.4212489999999995,-5.3923407,4.553173,-0.02876214,-0.010652645,-0.060720075,-44.28,-2.58,-21.24
1554220057763,6.411672,-5.445012999999999,4.759074,-0.041545313,-0.018109497,-0.058589544,-44.28,-2.52,-21.24
1554220057783,6.469133,-5.502473999999999,4.706402,-0.054328485999999995,-0.02130529,-0.056459017,-44.34,-2.46,-21.18
1554220057802,6.483498,-5.5647235,4.7255554,-0.05752428,-0.01917476,-0.054328485999999995,-44.34,-2.46,-21.18
1554220057824,6.4020953,-5.583876999999999,4.7925935,-0.04580637,-0.018109497,-0.05219796,-44.34,-2.52,-21.12
1554220057844,6.4260373,-5.5743003,4.696825,-0.035153727999999995,-0.017044231,-0.05006743,-44.34,-2.58,-21.06
1554220057862,6.4260373,-5.617396,4.835689,-0.025566347000000003,-0.011717908999999999,-0.047936900000000005,-44.34,-2.58,-21.0
1554220057883,6.411672,-5.4545900000000005,4.7255554,-0.01917476,-0.015978966,-0.04580637,-44.34,-2.64,-21.0
1554220057903,6.3925184999999995,-5.497685400000001,4.6154222,-0.01917476,-0.02130529,-0.039414786,-44.28,-2.76,-21.0
1554220057923,6.38773,-5.535993,4.466982,-0.025566347000000003,-0.025566347000000003,-0.035153727999999995,-44.28,-2.82,-20.94
1554220057942,6.4164605,-5.502473999999999,4.4861355000000005,-0.03089267,-0.035153727999999995,-0.033023197000000004,-44.28,-2.88,-20.94
1554220057963,6.4068837,-5.507262,4.4957123,-0.03089267,-0.040480047000000005,-0.033023197000000004,-44.22,-3.0,-20.94
1554220057982,6.4882865,-5.5264163,4.5148660000000005,-0.035153727999999995,-0.046871635999999994,-0.035153727999999995,-44.22,-3.0,-20.94
1554220058003,6.5026517,-5.559935,4.624999,-0.037284255,-0.05006743,-0.036218993,-44.22,-3.06,-20.94
1554220058022,6.4643445,-5.5264163,4.433463,-0.037284255,-0.049002163,-0.039414786,-44.22,-3.06,-20.94
1554220058043,6.493075,-5.4641665999999995,4.586692,-0.035153727999999995,-0.049002163,-0.043675844000000005,-44.16,-3.06,-20.94
1554220058063,6.4212489999999995,-5.5407815000000005,4.524442700000001,-0.034088463,-0.04474111,-0.047936900000000005,-44.16,-3.06,-20.94
1554220058083,6.4212489999999995,-5.502473999999999,4.5819035,-0.03195793,-0.040480047000000005,-0.054328485999999995,-44.16,-3.06,-20.94
1554220058102,6.469133,-5.507262,4.648941000000001,-0.026631612000000002,-0.035153727999999995,-0.053263225,-44.16,-3.0,-20.94
1554220058123,6.4547677000000006,-5.5743003,4.6154222,-0.025566347000000003,-0.035153727999999995,-0.054328485999999995,-44.16,-3.0,-21.0
1554220058143,6.4260373,-5.535993,4.672883000000001,-0.020240024,-0.033023197000000004,-0.054328485999999995,-44.16,-2.94,-21.0
1554220058162,6.569689299999999,-5.4641665999999995,4.5962687,-0.010652645,-0.027696876000000002,-0.056459017,-44.16,-2.88,-21.06
1554220058183,6.50744,-5.4545900000000005,4.4621935,-0.00958738,-0.027696876000000002,-0.053263225,-44.16,-2.82,-21.06
1554220058203,6.445191,-5.593454,4.5675383,-0.007456851,-0.024501082,-0.054328485999999995,-44.16,-2.82,-21.12
1554220058223,6.4739213,-5.559935,4.6680946,-0.0053263223,-0.018109497,-0.05539375,-44.16,-2.88,-21.12
1554220058243,6.493075,-5.535993,4.6393642,-0.002130529,-0.012783173500000002,-0.05539375,-44.16,-2.88,-21.18
1554220058263,6.5840545,-5.5264163,4.6680946,0.0031957934000000003,-0.0031957934000000003,-0.05539375,-44.16,-2.88,-21.18
1554220058283,6.4739213,-5.583876999999999,4.5435963,0.0063915867,0.0053263223,-0.053263225,-44.1,-2.94,-21.18
1554220058303,6.5265937,-5.5982423,4.6920366,0.012783173500000002,0.014913702,-0.05006743,-44.16,-3.0,-21.12
1554220058323,6.445191,-5.507262,4.7016134,0.020240024,0.025566347000000003,-0.047936900000000005,-44.16,-3.06,-21.18
1554220058344,6.5218053,-5.502473999999999,4.6393642,0.02876214,0.033023197000000004,-0.04474111,-44.16,-3.06,-21.18
1554220058364,6.5505357,-5.478532,4.6680946,0.034088463,0.03195793,-0.04580637,-44.22,-3.12,-21.18
1554220058382,6.4882865,-5.5168395,4.768651,0.034088463,0.03089267,-0.04474111,-44.28,-3.12,-21.18
1554220058405,6.531382,-5.612607499999999,4.7878050000000005,0.027696876000000002,0.024501082,-0.036218993,-44.28,-3.18,-21.18
1554220058423,6.5505357,-5.4354362,4.8165355000000005,0.033023197000000004,0.026631612000000002,-0.03089267,-44.28,-3.18,-21.18
1554220058443,6.4260373,-5.4641665999999995,4.821324,0.053263225,0.020240024,-0.01917476,-44.34,-3.18,-21.18
1554220058463,6.4787097000000005,-5.382764,4.696825,0.06711166,0.015978966,-0.014913702,-44.34,-3.18,-21.24
1554220058483,6.339846,-5.3540335,4.7494974,0.07137272,0.012783173500000002,-0.011717908999999999,-44.34,-3.12,-21.24
1554220058503,6.378153299999999,-5.3540335,4.68246,0.07243799,0.010652645,-0.010652645,-44.34,-3.12,-21.24
1554220058523,6.291962,-5.277419,4.553173,0.06498113,0.0031957934000000003,-0.013848438000000001,-44.28,-3.06,-21.24
1554220058545,6.325481,-5.277419,4.395156,0.056459017,0.0,-0.023435817999999997,-44.28,-2.94,-21.24
1554220058563,6.4212489999999995,-5.253476999999999,4.4238862999999995,0.058589544,-0.011717908999999999,-0.03195793,-44.28,-2.88,-21.3
1554220058582,6.3925184999999995,-5.248688700000001,4.5196543,0.05006743,-0.017044231,-0.040480047000000005,-44.34,-2.88,-21.3
1554220058604,6.430825700000001,-5.282207499999999,4.347272,0.025566347000000003,-0.029827405,-0.05006743,-44.34,-2.82,-21.3
1554220058623,6.564901,-5.2917843,4.371214,0.0031957934000000003,-0.036218993,-0.058589544,-44.34,-2.82,-21.3
1554220058645,6.5744777,-5.48332,4.524442700000001,-0.007456851,-0.041545313,-0.06924219,-44.34,-2.82,-21.3
1554220058664,6.5505357,-5.4545900000000005,4.601057,-0.0063915867,-0.04474111,-0.07456851,-44.34,-2.82,-21.24
1554220058682,6.459556,-5.5503583,4.44304,-0.0053263223,-0.04474111,-0.07563378,-44.34,-2.82,-21.3
1554220058702,6.4787097000000005,-5.373187000000001,4.6633059999999995,-0.008522116,-0.04261058,-0.07456851,-44.34,-2.88,-21.3
1554220058723,6.631939,-5.3683987,4.56275,-0.011717908999999999,-0.040480047000000005,-0.07137272,-44.28,-2.88,-21.24
1554220058742,6.4643445,-5.468955,4.6202106,-0.012783173500000002,-0.035153727999999995,-0.068176925,-44.28,-2.94,-21.24
1554220058762,6.531382,-5.4881085999999994,4.696825,-0.00958738,-0.025566347000000003,-0.06498113,-44.28,-3.0,-21.24
1554220058783,6.603208,-5.492897,4.7878050000000005,-0.002130529,-0.007456851,-0.068176925,-44.28,-3.0,-21.18
1554220058803,6.517017,-5.497685400000001,4.7830167,0.0053263223,0.010652645,-0.07243799,-44.28,-3.06,-21.18
1554220058822,6.603208,-5.507262,4.648941000000001,0.007456851,0.02130529,-0.07882957,-44.34,-3.12,-21.12
1554220058843,6.622362,-5.5168395,4.8500543,0.010652645,0.041545313,-0.08522116,-44.34,-3.18,-21.12
1554220058862,6.540959,-5.593454,4.7542860000000005,0.013848438000000001,0.056459017,-0.08948222,-44.4,-3.24,-21.12
1554220058883,6.4643445,-5.507262,4.68246,0.017044231,0.06178534,-0.08735169,-44.46,-3.3,-21.06
1554220058902,6.5505357,-5.3971290000000005,4.5483847,0.020240024,0.06604639400000001,-0.08628642,-44.52,-3.3,-21.0
1554220058922,6.569689299999999,-5.3875523,4.553173,0.017044231,0.06711166,-0.08735169,-44.58,-3.36,-21.0
1554220058943,6.4787097000000005,-5.4114943,4.586692,0.010652645,0.060720075,-0.08628642,-44.58,-3.36,-20.94
1554220058963,6.430825700000001,-5.382764,4.5675383,0.008522116,0.05219796,-0.09161274,-44.58,-3.42,-20.88
1554220058983,6.4787097000000005,-5.325303,4.6154222,0.012783173500000002,0.040480047000000005,-0.09587380000000001,-44.58,-3.36,-20.88
1554220059003,6.5265937,-5.3779755,4.529230999999999,0.004261058,0.03089267,-0.096939065,-44.58,-3.42,-20.82
1554220059022,6.4068837,-5.3157263,4.6058455,0.004261058,0.024501082,-0.096939065,-44.58,-3.42,-20.88
1554220059043,6.4164605,-5.3540335,4.6680946,0.008522116,0.020240024,-0.08735169,-44.58,-3.48,-20.94
1554220059063,6.4212489999999995,-5.3923407,4.5914803,0.007456851,0.015978966,-0.082025364,-44.58,-3.54,-21.06
1554220059083,6.3829417,-5.2678423,4.6297874000000006,0.0,0.010652645,-0.07563378,-44.52,-3.66,-21.18
1554220059103,6.349423000000001,-5.382764,4.6202106,-0.004261058,0.008522116,-0.06924219,-44.52,-3.72,-21.3
1554220059124,6.4404025,-5.3971290000000005,4.481347,-0.0010652645,0.0031957934000000003,-0.058589544,-44.46,-3.78,-21.42
1554220059143,6.603208,-5.4641665999999995,4.624999,-0.0031957934000000003,-0.00958738,-0.04474111,-44.46,-3.84,-21.54
1554220059163,6.5457472999999995,-5.3683987,4.5962687,-0.004261058,-0.008522116,-0.04261058,-44.46,-3.84,-21.54
1554220059184,6.5505357,-5.3157263,4.5914803,-0.0053263223,-0.010652645,-0.043675844000000005,-44.46,-3.78,-21.54
1554220059202,6.517017,-5.3396683,4.7542860000000005,-0.010652645,-0.007456851,-0.04580637,-44.46,-3.72,-21.48
1554220059223,6.469133,-5.3636102999999995,4.8021703,-0.007456851,0.0053263223,-0.05006743,-44.46,-3.72,-21.42
1554220059243,6.50744,-5.3683987,4.854842700000001,0.0010652645,0.014913702,-0.053263225,-44.46,-3.72,-21.42
1554220059262,6.5265937,-5.325303,4.8069587,0.011717908999999999,0.03089267,-0.051132694000000006,-44.46,-3.84,-21.42
1554220059283,6.5361705,-5.3300915,4.7878050000000005,0.014913702,0.039414786,-0.049002163,-44.52,-3.96,-21.48
1554220059303,6.497863300000001,-5.33488,4.7494974,0.020240024,0.047936900000000005,-0.047936900000000005,-44.52,-4.14,-21.48
1554220059322,6.5361705,-5.3061495,4.8069587,0.026631612000000002,0.051132694000000006,-0.046871635999999994,-44.52,-4.26,-21.6
1554220059343,6.588842999999999,-5.310938,4.8404775,0.029827405,0.05539375,-0.04580637,-44.52,-4.38,-21.6
1554220059363,6.5505357,-5.2917843,4.759074,0.026631612000000002,0.051132694000000006,-0.049002163,-44.52,-4.5,-21.6
1554220059382,6.411672,-5.3923407,4.7542860000000005,0.03089267,0.046871635999999994,-0.047936900000000005,-44.52,-4.56,-21.66
1554220059402,6.517017,-5.373187000000001,4.6633059999999995,0.034088463,0.039414786,-0.04474111,-44.58,-4.5,-21.66
1554220059423,6.5122285,-5.325303,4.6537294000000005,0.037284255,0.03089267,-0.04261058,-44.58,-4.5,-21.66
1554220059443,6.540959,-5.2917843,4.759074,0.033023197000000004,0.026631612000000002,-0.03834952,-44.64,-4.44,-21.66
1554220059463,6.6367273,-5.349245,4.706402,0.022370555,0.015978966,-0.034088463,-44.7,-4.38,-21.66
1554220059482,6.4882865,-5.229535,4.6202106,0.015978966,0.017044231,-0.034088463,-44.7,-4.38,-21.66
1554220059502,6.50744,-5.373187000000001,4.6393642,0.015978966,0.017044231,-0.027696876000000002,-44.7,-4.32,-21.66
1554220059522,6.430825700000001,-5.286996,4.5962687,0.011717908999999999,0.018109497,-0.026631612000000002,-44.64,-4.26,-21.72
1554220059543,6.5601125,-5.4210709999999995,4.7878050000000005,0.004261058,0.025566347000000003,-0.029827405,-44.64,-4.26,-21.72
1554220059563,6.4164605,-5.3540335,4.768651,-0.0010652645,0.025566347000000003,-0.037284255,-44.58,-4.2,-21.72
1554220059583,6.603208,-5.3779755,4.7542860000000005,-0.007456851,0.027696876000000002,-0.049002163,-44.52,-4.14,-21.78
1554220059603,6.531382,-5.3779755,4.797382,-0.024501082,0.02876214,-0.05752428,-44.46,-4.14,-21.78
1554220059623,6.493075,-5.382764,4.9218802,-0.02876214,0.029827405,-0.06178534,-44.46,-4.14,-21.84
1554220059643,6.5744777,-5.3971290000000005,4.9506106,-0.018109497,0.02876214,-0.07030745599999999,-44.4,-4.08,-21.84
1554220059663,6.5792660000000005,-5.253476999999999,4.9745526,-0.017044231,0.022370555,-0.07350325,-44.34,-4.08,-21.84
1554220059683,6.445191,-5.248688700000001,5.003283000000001,-0.015978966,0.023435817999999997,-0.07776430000000001,-44.34,-4.08,-21.84
1554220059704,6.3685765,-5.172074299999999,5.0511669999999995,-0.00958738,0.02130529,-0.07776430000000001,-44.34,-4.02,-21.84
1554220059723,6.4164605,-5.229535,4.979341000000001,0.0063915867,0.025566347000000003,-0.07030745599999999,-44.34,-4.02,-21.84
1554220059742,6.4164605,-5.263054,4.8165355000000005,0.014913702,0.01917476,-0.06285059999999999,-44.34,-4.02,-21.78
1554220059763,6.4164605,-5.2917843,4.988918,0.020240024,0.008522116,-0.05539375,-44.34,-3.96,-21.78
1554220059783,6.445191,-5.248688700000001,4.941033999999999,0.025566347000000003,0.0053263223,-0.051132694000000006,-44.34,-3.96,-21.78
1554220059802,6.4882865,-5.2343235,5.0942625999999995,0.026631612000000002,0.0,-0.046871635999999994,-44.34,-3.96,-21.78
1554220059822,6.445191,-5.2917843,5.1996074,0.033023197000000004,-0.0010652645,-0.04474111,-44.34,-3.96,-21.78
1554220059842,6.5505357,-5.224746700000001,5.175665400000001,0.043675844000000005,0.008522116,-0.04261058,-44.28,-3.96,-21.78
1554220059862,6.445191,-5.2343235,5.027225,0.058589544,0.007456851,-0.040480047000000005,-44.28,-4.02,-21.84
1554220059882,6.3446345,-5.191228,5.0942625999999995,0.06924219,0.014913702,-0.037284255,-44.28,-4.08,-21.84
1554220059904,6.291962,-5.0906715,5.060744000000001,0.07776430000000001,0.011717908999999999,-0.034088463,-44.28,-4.08,-21.9
1554220059923,6.3589997,-5.148132299999999,4.8021703,0.09054748,0.011717908999999999,-0.035153727999999995,-44.28,-4.14,-21.9
1554220059943,6.3350577,-4.9422307,4.8404775,0.094808534,0.00958738,-0.034088463,-44.28,-4.14,-21.96
1554220059962,6.378153299999999,-5.0284224,5.060744000000001,0.08841695,0.0010652645,-0.041545313,-44.34,-4.14,-22.02
1554220059982,6.50744,-5.172074299999999,4.830900700000001,0.08735169,-0.004261058,-0.047936900000000005,-44.34,-4.2,-22.02
1554220060002,6.4739213,-5.1241902999999995,4.9506106,0.08735169,-0.013848438000000001,-0.049002163,-44.34,-4.2,-22.08
1554220060023,6.4547677000000006,-5.191228,4.912303400000001,0.084155895,-0.024501082,-0.049002163,-44.4,-4.2,-22.2
1554220060044,6.4164605,-5.1768627,4.979341000000001,0.096939065,-0.03834952,-0.039414786,-44.4,-4.14,-22.32
1554220060062,6.435614,-5.047576,4.9218802,0.10226539,-0.05006743,-0.033023197000000004,-44.4,-4.14,-22.32
1554220060083,6.459556,-5.133767,4.7878050000000005,0.10013486,-0.06498113,-0.022370555,-44.4,-4.14,-22.38
1554220060103,6.4260373,-5.109825,4.9984946,0.101200126,-0.080960095,-0.013848438000000001,-44.46,-4.14,-22.38
1554220060123,6.50744,-5.148132299999999,4.7303440000000005,0.101200126,-0.09161274,-0.004261058,-44.46,-4.08,-22.38
1554220060143,6.4739213,-5.172074299999999,5.0080714,0.096939065,-0.101200126,0.011717908999999999,-44.46,-4.08,-22.38
1554220060164,6.617573299999999,-5.105036699999999,4.9218802,0.098004326,-0.10652645,0.01917476,-44.46,-4.08,-22.32
1554220060183,6.5457472999999995,-5.1768627,5.0224366,0.10439592,-0.10759171,0.01917476,-44.52,-4.02,-22.26
1554220060203,6.4547677000000006,-5.172074299999999,4.8979383,0.10546118,-0.10652645,0.015978966,-44.58,-3.96,-22.2
1554220060223,6.5026517,-5.1241902999999995,4.926668599999999,0.099069595,-0.10013486,0.01917476,-44.58,-3.96,-22.14
1554220060243,6.483498,-5.1768627,4.9841294000000005,0.10333065,-0.098004326,0.02130529,-44.64,-3.96,-22.08
1554220060265,6.459556,-5.1146135,4.969764,0.111852765,-0.09161274,0.01917476,-44.64,-3.9,-22.02
1554220060283,6.517017,-5.0140567,4.89315,0.10333065,-0.08628642,0.013848438000000001,-44.64,-3.9,-21.96
1554220060303,6.5218053,-5.0763063,4.8404775,0.09267801,-0.083090626,0.013848438000000001,-44.58,-3.84,-21.9
1554220060323,6.4787097000000005,-5.085883,4.7925935,0.096939065,-0.082025364,0.013848438000000001,-44.52,-3.84,-21.84
1554220060343,6.4499793,-4.994903,4.8787847,0.10546118,-0.08628642,0.015978966,-44.4,-3.78,-21.78
1554220060363,6.5984197,-5.0523643,4.8500543,0.10865697,-0.09267801,0.024501082,-44.28,-3.78,-21.72
1554220060384,6.5744777,-5.119402,4.5962687,0.10759171,-0.10226539,0.03195793,-44.16,-3.66,-21.66
1554220060404,6.612785000000001,-5.1146135,4.586692,0.09374327,-0.11611383,0.041545313,-44.1,-3.6,-21.66
1554220060423,6.6654577,-5.1385555,4.768651,0.07776430000000001,-0.12250541,0.041545313,-44.04,-3.48,-21.66
1554220060443,6.631939,-5.1960163,4.7830167,0.06178534,-0.11824436,0.040480047000000005,-43.98,-3.36,-21.6
1554220060462,6.71813,-5.2199583,4.8787847,0.054328485999999995,-0.11717909,0.035153727999999995,-43.92,-3.24,-21.6
1554220060483,6.742072,-5.248688700000001,4.7878050000000005,0.053263225,-0.1107875,0.033023197000000004,-43.92,-3.12,-21.54
1554220060503,6.670246000000001,-5.277419,4.648941000000001,0.051132694000000006,-0.09374327,0.024501082,-43.92,-3.06,-21.48
1554220060522,6.6750345,-5.2582655,4.821324,0.047936900000000005,-0.080960095,0.018109497,-43.92,-3.0,-21.36
1554220060542,6.6654577,-5.224746700000001,4.768651,0.04261058,-0.06604639400000001,0.014913702,-43.86,-2.94,-21.3
1554220060563,6.6989765,-5.148132299999999,4.9458222,0.036218993,-0.04474111,0.0031957934000000003,-43.8,-2.76,-21.18
1554220060582,6.679823,-5.1768627,4.912303400000001,0.034088463,-0.024501082,-0.0063915867,-43.8,-2.7,-21.12
1554220060604,6.631939,-5.282207499999999,4.821324,0.03195793,-0.008522116,-0.020240024,-43.74,-2.58,-21.0
1554220060625,6.6367273,-5.1816510000000005,4.797382,0.03089267,0.007456851,-0.035153727999999995,-43.74,-2.46,-20.94
1554220060643,6.612785000000001,-5.21517,4.7494974,0.034088463,0.017044231,-0.049002163,-43.8,-2.4,-20.94
1554220060666,6.5840545,-5.0810947,4.797382,0.029827405,0.029827405,-0.058589544,-43.8,-2.34,-20.88
1554220060683,6.5792660000000005,-5.0810947,4.8069587,0.02130529,0.034088463,-0.06711166,-43.8,-2.28,-20.88
1554220060703,6.517017,-5.0810947,4.8165355000000005,0.02130529,0.036218993,-0.068176925,-43.86,-2.28,-20.88
1554220060723,6.5601125,-5.0906715,4.7782279999999995,0.02130529,0.037284255,-0.06924219,-43.98,-2.34,-20.88
1554220060743,6.670246000000001,-5.0332108,4.7494974,0.014913702,0.035153727999999995,-0.06924219,-44.04,-2.4,-20.88
1554220060763,6.588842999999999,-4.994903,4.634576,0.011717908999999999,0.033023197000000004,-0.07030745599999999,-44.1,-2.46,-20.82
1554220060783,6.5505357,-5.061941,4.744708999999999,-0.002130529,0.02876214,-0.07030745599999999,-44.16,-2.52,-20.82
1554220060803,6.564901,-5.061941,4.7830167,-0.014913702,0.023435817999999997,-0.068176925,-44.16,-2.52,-20.82
1554220060824,6.5840545,-5.0332108,4.8452660000000005,-0.015978966,0.020240024,-0.06711166,-44.22,-2.58,-20.82
1554220060843,6.612785000000001,-5.1624975,4.912303400000001,-0.02130529,0.017044231,-0.06711166,-44.22,-2.58,-20.82
1554220060863,6.588842999999999,-5.0667295,4.8739963,-0.034088463,0.020240024,-0.06498113,-44.28,-2.64,-20.82
1554220060883,6.5505357,-5.0763063,4.969764,-0.03195793,0.025566347000000003,-0.06604639400000001,-44.28,-2.64,-20.76
1554220060903,6.5361705,-5.119402,5.060744000000001,-0.023435817999999997,0.034088463,-0.06178534,-44.28,-2.64,-20.7
1554220060923,6.5265937,-5.0667295,4.931457,-0.020240024,0.040480047000000005,-0.05752428,-44.28,-2.7,-20.64
1554220060943,6.517017,-5.1385555,4.9841294000000005,-0.026631612000000002,0.051132694000000006,-0.053263225,-44.28,-2.7,-20.58
1554220060963,6.4643445,-5.143344,4.9841294000000005,-0.025566347000000003,0.056459017,-0.04474111,-44.28,-2.7,-20.52
1554220060983,6.5457472999999995,-5.1529207,5.0224366,-0.01917476,0.05965481,-0.041545313,-44.28,-2.7,-20.46
1554220061002,6.569689299999999,-5.0667295,4.830900700000001,-0.017044231,0.05006743,-0.034088463,-44.28,-2.7,-20.46
1554220061022,6.5026517,-5.0763063,4.960187400000001,-0.015978966,0.041545313,-0.02876214,-44.28,-2.7,-20.4
1554220061042,6.493075,-5.0906715,4.9841294000000005,-0.01917476,0.025566347000000003,-0.025566347000000003,-44.28,-2.7,-20.4
1554220061063,6.4739213,-5.0667295,4.8739963,-0.020240024,0.013848438000000001,-0.020240024,-44.22,-2.7,-20.4
1554220061083,6.4643445,-5.133767,4.7399206,-0.022370555,0.002130529,-0.013848438000000001,-44.22,-2.7,-20.46
1554220061103,6.373365,-5.0140567,4.9841294000000005,-0.01917476,-0.0031957934000000003,-0.007456851,-44.22,-2.7,-20.52
1554220061122,6.4212489999999995,-5.09546,5.0846860000000005,-0.013848438000000001,-0.010652645,0.0010652645,-44.22,-2.76,-20.58
1554220061142,6.4643445,-5.133767,5.1038394,-0.015978966,-0.015978966,0.008522116,-44.22,-2.82,-20.64
1554220061163,6.4068837,-5.133767,5.01286,-0.014913702,-0.020240024,0.014913702,-44.22,-2.82,-20.76
1554220061183,6.5218053,-5.0906715,5.122993,-0.008522116,-0.02876214,0.018109497,-44.28,-2.88,-20.82
1554220061203,6.4739213,-5.0810947,5.0559554,-0.004261058,-0.034088463,0.02130529,-44.28,-2.94,-20.88
1554220061223,6.445191,-5.167286,4.9841294000000005,-0.0063915867,-0.04580637,0.02876214,-44.34,-3.0,-20.94
1554220061243,6.430825700000001,-5.1385555,4.9218802,-0.0053263223,-0.05219796,0.03195793,-44.34,-3.0,-21.0
1554220061263,6.4499793,-5.148132299999999,5.027225,-0.0010652645,-0.058589544,0.03195793,-44.4,-3.0,-21.0
1554220061282,6.4260373,-5.191228,5.04159,0.004261058,-0.06498113,0.034088463,-44.4,-3.0,-21.0
1554220061302,6.497863300000001,-5.1146135,4.8787847,0.011717908999999999,-0.06711166,0.036218993,-44.4,-2.94,-20.94
1554220061322,6.5265937,-5.191228,4.936245400000001,0.015978966,-0.068176925,0.037284255,-44.4,-2.94,-20.94
1554220061343,6.497863300000001,-5.1768627,4.89315,0.022370555,-0.06924219,0.037284255,-44.4,-2.82,-20.88
1554220061362,6.4404025,-5.1529207,5.0511669999999995,0.023435817999999997,-0.068176925,0.037284255,-44.4,-2.7,-20.82
1554220061382,6.4739213,-5.105036699999999,4.9027267,0.027696876000000002,-0.06391586,0.03834952,-44.4,-2.58,-20.82
1554220061402,6.5265937,-5.2199583,4.9506106,0.033023197000000004,-0.06178534,0.036218993,-44.34,-2.46,-20.76
1554220061423,6.50744,-5.2008047,4.931457,0.036218993,-0.056459017,0.034088463,-44.34,-2.4,-20.76
1554220061443,6.4499793,-5.21517,4.9218802,0.035153727999999995,-0.054328485999999995,0.029827405,-44.34,-2.28,-20.76
1554220061463,6.5026517,-5.2582655,4.8739963,0.033023197000000004,-0.053263225,0.025566347000000003,-44.34,-2.16,-20.76
1554220061483,6.531382,-5.239112,4.8261123,0.04261058,-0.05539375,0.018109497,-44.34,-2.04,-20.76
1554220061503,6.5361705,-5.191228,4.9027267,0.039414786,-0.058589544,0.010652645,-44.28,-1.92,-20.76
1554220061523,6.5265937,-5.239112,4.8165355000000005,0.023435817999999997,-0.06391586,0.0031957934000000003,-44.28,-1.86,-20.76
1554220061543,6.5265937,-5.2008047,4.7830167,0.015978966,-0.07350325,-0.0031957934000000003,-44.28,-1.74,-20.7
1554220061563,6.4404025,-5.2582655,4.883573,0.015978966,-0.07989483,-0.0063915867,-44.22,-1.68,-20.58
1554220061583,6.4787097000000005,-5.167286,4.960187400000001,0.0063915867,-0.08735169,-0.00958738,-44.22,-1.62,-20.46
1554220061602,6.4164605,-5.3061495,4.8021703,0.002130529,-0.09587380000000001,-0.007456851,-44.22,-1.56,-20.4
1554220061623,6.4260373,-5.2965727,4.7159786,0.012783173500000002,-0.10759171,-0.0010652645,-44.16,-1.5,-20.22
1554220061643,6.540959,-5.191228,4.7255554,0.018109497,-0.12037488,0.004261058,-44.1,-1.5,-20.16
1554220061663,6.612785000000001,-5.3636102999999995,4.553173,0.0053263223,-0.13102753,0.011717908999999999,-44.04,-1.44,-20.04
1554220061683,6.622362,-5.3540335,4.586692,-0.020240024,-0.14061491,0.011717908999999999,-43.98,-1.44,-19.92
1554220061703,6.732495299999999,-5.3875523,4.538808,-0.04580637,-0.15126756,0.010652645,-43.92,-1.38,-19.86
1554220061723,6.646304,-5.4545900000000005,4.624999,-0.06924219,-0.15233281,0.0053263223,-43.86,-1.38,-19.92
1554220061743,6.7229185,-5.535993,4.706402,-0.080960095,-0.14168017,-0.0031957934000000003,-43.8,-1.32,-19.86
1554220061763,6.684611299999999,-5.5264163,4.768651,-0.08948222,-0.12463594,-0.022370555,-43.74,-1.32,-19.86
1554220061783,6.6654577,-5.430648000000001,4.735132,-0.083090626,-0.10652645,-0.040480047000000005,-43.74,-1.26,-19.86
1554220061803,6.5218053,-5.4114943,4.706402,-0.084155895,-0.07350325,-0.058589544,-43.8,-1.26,-19.8
1554220061823,6.5265937,-5.3779755,4.5483847,-0.101200126,-0.040480047000000005,-0.07243799,-43.86,-1.26,-19.8
1554220061843,6.497863300000001,-5.430648000000001,4.6297874000000006,-0.10439592,-0.012783173500000002,-0.07989483,-43.92,-1.2,-19.8
1554220061863,6.5601125,-5.3636102999999995,4.577115,-0.10439592,0.010652645,-0.08948222,-43.98,-1.2,-19.74
1554220061882,6.564901,-5.3779755,4.4957123,-0.112918034,0.024501082,-0.094808534,-44.04,-1.14,-19.68
1554220061902,6.531382,-5.3923407,4.490924,-0.12037488,0.02876214,-0.10333065,-44.04,-1.14,-19.68
1554220061923,6.6654577,-5.349245,4.529230999999999,-0.113983296,0.027696876000000002,-0.112918034,-44.04,-1.08,-19.56
1554220061943,6.564901,-5.3923407,4.524442700000001,-0.1107875,0.023435817999999997,-0.11930962,-44.04,-1.08,-19.44
1554220061962,6.6606693,-5.3396683,4.68246,-0.1107875,0.020240024,-0.12250541,-43.98,-1.02,-19.38
1554220061984,6.5984197,-5.3971290000000005,4.672883000000001,-0.112918034,0.025566347000000003,-0.12037488,-43.92,-1.08,-19.32
1554220062003,6.5361705,-5.2965727,4.7925935,-0.111852765,0.02876214,-0.12037488,-43.92,-1.08,-19.32
1554220062023,6.6079965,-5.33488,4.8261123,-0.10865697,0.039414786,-0.12144015,-43.86,-1.26,-19.26
1554220062044,6.6079965,-5.3540335,4.7878050000000005,-0.098004326,0.051132694000000006,-0.12250541,-43.92,-1.32,-19.2
1554220062063,6.564901,-5.33488,4.7782279999999995,-0.08948222,0.06178534,-0.12357068,-43.98,-1.38,-19.2
1554220062083,6.612785000000001,-5.3636102999999995,4.735132,-0.07776430000000001,0.07669904,-0.12570119999999999,-44.1,-1.56,-19.26
1554220062103,6.588842999999999,-5.478532,4.8069587,-0.07456851,0.08841695,-0.12357068,-44.16,-1.62,-19.26
1554220062124,6.5984197,-5.401917500000001,4.7159786,-0.07882957,0.10013486,-0.12144015,-44.22,-1.68,-19.32
1554220062143,6.5457472999999995,-5.478532,4.8021703,-0.07669904,0.111852765,-0.11717909,-44.34,-1.74,-19.38
1554220062165,6.627150500000001,-5.468955,4.6393642,-0.06178534,0.11611383,-0.11930962,-44.4,-1.86,-19.44
1554220062183,6.6079965,-5.382764,4.5196543,-0.058589544,0.11717909,-0.12250541,-44.46,-1.86,-19.44
1554220062203,6.50744,-5.3875523,4.7255554,-0.06178534,0.111852765,-0.12250541,-44.46,-1.92,-19.5
1554220062222,6.5218053,-5.229535,4.6920366,-0.053263225,0.10546118,-0.12144015,-44.46,-1.98,-19.5
1554220062243,6.445191,-5.21517,4.6058455,-0.04474111,0.099069595,-0.12144015,-44.4,-2.1,-19.56
1554220062265,6.5505357,-5.3061495,4.6920366,-0.054328485999999995,0.08948222,-0.12463594,-44.4,-2.16,-19.62
1554220062282,6.4547677000000006,-5.2103815,4.4957123,-0.06498113,0.07882957,-0.12570119999999999,-44.4,-2.22,-19.62
1554220062304,6.555324000000001,-5.325303,4.6202106,-0.07243799,0.060720075,-0.12250541,-44.4,-2.28,-19.68
1554220062323,6.555324000000001,-5.286996,4.5196543,-0.06604639400000001,0.04261058,-0.12676647,-44.4,-2.34,-19.74
1554220062343,6.517017,-5.382764,4.5196543,-0.07137272,0.03089267,-0.12570119999999999,-44.4,-2.4,-19.8
1554220062363,6.5840545,-5.3396683,4.586692,-0.07776430000000001,0.018109497,-0.12463594,-44.4,-2.52,-19.86
1554220062383,6.50744,-5.349245,4.4621935,-0.07243799,0.007456851,-0.12357068,-44.4,-2.64,-19.92
1554220062403,6.483498,-5.263054,4.6297874000000006,-0.07030745599999999,0.0031957934000000003,-0.11930962,-44.4,-2.76,-19.98
1554220062422,6.4164605,-5.1960163,4.8021703,-0.068176925,0.008522116,-0.11504856,-44.4,-2.88,-19.98
1554220062442,6.517017,-5.4210709999999995,4.768651,-0.051132694000000006,0.017044231,-0.10865697,-44.34,-3.0,-19.98
1554220062463,6.5840545,-5.310938,4.7255554,-0.037284255,0.027696876000000002,-0.10226539,-44.4,-3.12,-20.04
1554220062483,6.603208,-5.3396683,4.821324,-0.03089267,0.033023197000000004,-0.09267801,-44.34,-3.24,-20.04
1554220062503,6.50744,-5.3396683,4.7399206,-0.01917476,0.035153727999999995,-0.08522116,-44.28,-3.36,-20.1
1554220062523,6.5505357,-5.1960163,4.797382,-0.004261058,0.03195793,-0.07563378,-44.22,-3.42,-20.16
1554220062544,6.555324000000001,-5.21517,4.6441526,0.0031957934000000003,0.025566347000000003,-0.06604639400000001,-44.22,-3.48,-20.16
1554220062563,6.555324000000001,-5.1241902999999995,4.7830167,0.011717908999999999,0.012783173500000002,-0.056459017,-44.16,-3.48,-20.16
1554220062583,6.5984197,-5.205593,4.6776714,0.020240024,-0.004261058,-0.04474111,-44.1,-3.54,-20.22
1554220062603,6.4643445,-5.21517,4.5962687,0.02130529,-0.022370555,-0.03195793,-44.1,-3.54,-20.28
1554220062624,6.497863300000001,-5.172074299999999,4.5483847,0.020240024,-0.036218993,-0.020240024,-44.04,-3.48,-20.28
1554220062643,6.531382,-5.21517,4.768651,0.015978966,-0.05219796,-0.00958738,-43.98,-3.48,-20.28
1554220062662,6.603208,-5.2726307,4.7159786,0.023435817999999997,-0.06285059999999999,0.002130529,-43.98,-3.48,-20.28
1554220062683,6.5265937,-5.2582655,4.7542860000000005,0.035153727999999995,-0.06924219,0.010652645,-43.98,-3.42,-20.28
1554220062703,6.5840545,-5.2678423,4.601057,0.04261058,-0.07563378,0.013848438000000001,-43.98,-3.42,-20.28
1554220062722,6.646304,-5.2726307,4.624999,0.05219796,-0.07563378,0.024501082,-43.98,-3.42,-20.28
1554220062744,6.646304,-5.2678423,4.586692,0.049002163,-0.07776430000000001,0.035153727999999995,-43.98,-3.48,-20.28
1554220062762,6.6893997,-5.4114943,4.6154222,0.056459017,-0.082025364,0.04261058,-43.92,-3.54,-20.34
1554220062782,6.670246000000001,-5.33488,4.696825,0.05965481,-0.07563378,0.047936900000000005,-43.86,-3.6,-20.34
1554220062803,6.6367273,-5.3300915,4.553173,0.06285059999999999,-0.07456851,0.05006743,-43.8,-3.72,-20.28
1554220062822,6.627150500000001,-5.310938,4.6058455,0.07669904,-0.07669904,0.05752428,-43.74,-3.72,-20.28
1554220062843,6.6415157,-5.3683987,4.6393642,0.08948222,-0.082025364,0.058589544,-43.68,-3.78,-20.28
1554220062862,6.631939,-5.4210709999999995,4.5675383,0.08522116,-0.09054748,0.06178534,-43.62,-3.78,-20.22
1554220062883,6.6415157,-5.4402246,4.6154222,0.080960095,-0.10226539,0.068176925,-43.62,-3.66,-20.16
1554220062903,6.631939,-5.2726307,4.6154222,0.09374327,-0.11504856,0.07243799,-43.56,-3.6,-20.16
1554220062923,6.6415157,-5.3779755,4.4861355000000005,0.10759171,-0.12570119999999999,0.07563378,-43.62,-3.48,-20.1
1554220062942,6.631939,-5.2582655,4.4861355000000005,0.10546118,-0.13528858,0.07989483,-43.62,-3.36,-20.1
1554220062964,6.531382,-5.3444567,4.3664255,0.10226539,-0.1470065,0.08735169,-43.74,-3.24,-20.1
1554220062983,6.612785000000001,-5.4258595000000005,4.361637,0.10652645,-0.15126756,0.09054748,-43.74,-3.06,-20.04
1554220063003,6.588842999999999,-5.4210709999999995,4.4382515,0.10865697,-0.16085494,0.09374327,-43.8,-2.94,-20.04
1554220063022,6.6367273,-5.4545900000000005,4.44304,0.10013486,-0.17044231,0.096939065,-43.86,-2.76,-19.98
1554220063042,6.6606693,-5.3875523,4.347272,0.09054748,-0.1768339,0.099069595,-43.92,-2.7,-19.92
1554220063064,6.6654577,-5.492897,4.280234,0.08948222,-0.18109496,0.10013486,-43.98,-2.58,-19.86
1554220063082,6.5984197,-5.492897,4.385579,0.08948222,-0.18109496,0.10013486,-44.04,-2.46,-19.8
1554220063102,6.6750345,-5.521628,4.433463,0.080960095,-0.17576863,0.09587380000000001,-44.04,-2.28,-19.74
1554220063123,6.617573299999999,-5.521628,4.2850223,0.07669904,-0.17150758,0.08522116,-44.04,-2.1,-19.68
1554220063144,6.6941880000000005,-5.612607499999999,4.270657,0.060720075,-0.16405073,0.07669904,-44.04,-1.86,-19.56
1554220063163,6.6893997,-5.6030307,4.217984700000001,0.058589544,-0.16085494,0.07137272,-44.04,-1.62,-19.5
1554220063183,6.6941880000000005,-5.521628,4.1461587,0.04261058,-0.15339808,0.06604639400000001,-44.04,-1.44,-19.32
1554220063203,6.6750345,-5.5982423,4.2850223,0.026631612000000002,-0.1438107,0.056459017,-44.1,-1.2,-19.14
1554220063223,6.6510925,-5.6461263,4.347272,0.022370555,-0.12570119999999999,0.046871635999999994,-44.1,-1.02,-18.96
1554220063242,6.6989765,-5.612607499999999,4.4238862999999995,0.027696876000000002,-0.112918034,0.03834952,-44.1,-0.84,-18.78
1554220063262,6.6415157,-5.5503583,4.2898107,0.03089267,-0.10226539,0.02876214,-44.1,-0.72,-18.6
1554220063282,6.670246000000001,-5.593454,4.246715,0.033023197000000004,-0.08841695,0.01917476,-44.1,-0.6,-18.42
1554220063303,6.627150500000001,-5.5168395,4.1317935,0.03089267,-0.07456851,0.011717908999999999,-44.1,-0.6,-18.24
1554220063322,6.679823,-5.4545900000000005,4.1413703,0.022370555,-0.068176925,0.0010652645,-44.04,-0.6,-18.12
1554220063342,6.6606693,-5.4881085999999994,4.256292,0.015978966,-0.05752428,-0.0010652645,-44.04,-0.54,-18.06
1554220063363,6.6606693,-5.5695120000000005,4.170100700000001,0.010652645,-0.046871635999999994,-0.011717908999999999,-43.98,-0.54,-18.06
1554220063382,6.71813,-5.468955,4.2036195,0.0031957934000000003,-0.039414786,-0.01917476,-43.92,-0.54,-18.06
1554220063404,6.7277070000000005,-5.54557,4.1317935,-0.00958738,-0.029827405,-0.025566347000000003,-43.86,-0.54,-18.0
1554220063423,6.7229185,-5.6030307,4.1796775,-0.012783173500000002,-0.02130529,-0.033023197000000004,-43.86,-0.54,-18.0
