TimeStamp,Ax,Ay,Az,Gx,Gy,Gz,Mx,My,Mz
1554886630099,9.667786999999999,-0.66618663,0.6697779,0.21731395,0.02876214,-0.013848438000000001,-24.84,-37.26,-42.6
1554886630119,9.758766,-0.64703304,0.5117606,0.2130529,0.034088463,-0.0063915867,-24.84,-37.5,-42.6
1554886630140,9.849746000000001,-0.53689975,0.54527944,0.20985709,0.047936900000000005,-0.0063915867,-24.84,-37.74,-42.6
1554886630160,9.797073,-0.54168814,0.43035775,0.20240025,0.058589544,-0.004261058,-24.84,-37.98,-42.66
1554886630180,9.883265,-0.53211135,0.39683893,0.20026971,0.05965481,-0.0031957934000000003,-24.9,-38.22,-42.72
1554886630201,9.753978,-0.42676646,0.38726214,0.19068234,0.046871635999999994,-0.0031957934000000003,-24.9,-38.34,-42.72
1554886630219,9.667786999999999,-0.4985925,0.45908818,0.1768339,0.039414786,0.0,-24.9,-38.4,-42.78
1554886630240,9.744401,-0.36930559999999996,0.46387658,0.1587244,0.014913702,0.004261058,-24.9,-38.46,-42.78
1554886630260,9.763555,-0.3788824,0.3633201,0.13528858,-0.008522116,0.002130529,-24.96,-38.52,-42.78
1554886630280,9.849746000000001,-0.28311434,0.3776853,0.11930962,-0.025566347000000003,-0.008522116,-25.02,-38.58,-42.78
1554886630299,9.773131,-0.350152,0.3633201,0.11504856,-0.036218993,-0.022370555,-25.02,-38.64,-42.78
1554886630319,9.648633,-0.41718966,0.41599256,0.11717909,-0.04580637,-0.037284255,-25.02,-38.76,-42.72
1554886630339,9.883265,-0.38367084,0.7032967,0.11717909,-0.06391586,-0.05006743,-25.02,-39.0,-42.72
1554886630360,9.80665,-0.41718966,0.64583594,0.111852765,-0.054328485999999995,-0.05006743,-25.02,-39.24,-42.72
1554886630380,9.878476,-0.45549688,0.66498953,0.099069595,-0.034088463,-0.034088463,-25.02,-39.42,-42.66
1554886630400,10.007763,-0.4985925,0.7272388000000001,0.07563378,-0.008522116,-0.018109497,-24.96,-39.6,-42.66
1554886630419,9.868899,-0.42676646,0.6745663000000001,0.035153727999999995,0.014913702,0.002130529,-24.9,-39.78,-42.72
1554886630440,9.744401,-0.28311434,0.56443304,-0.013848438000000001,0.041545313,0.035153727999999995,-24.9,-39.96,-42.72
1554886630460,9.744401,-0.25917232,0.6123171,-0.06604639400000001,0.06285059999999999,0.068176925,-24.84,-40.14,-42.72
1554886630479,9.725247,-0.3357868,0.41599256,-0.12996227,0.07137272,0.080960095,-24.78,-40.2,-42.72
1554886630500,9.648633,-0.28311434,0.6841431,-0.18535602,0.06604639400000001,0.05965481,-24.72,-40.2,-42.72
1554886630520,9.653421,-0.45549688,0.46866497,-0.20772657,0.054328485999999995,0.036218993,-24.66,-40.2,-42.72
1554886630540,9.830592,-0.41718966,0.43993455,-0.20133498,0.05219796,0.025566347000000003,-24.6,-40.2,-42.72
1554886630560,9.811439,-0.46986207,0.5021838,-0.18109496,0.04474111,0.017044231,-24.54,-40.14,-42.72
1554886630580,9.701305,-0.42197806,0.46866497,-0.15978967,0.027696876000000002,0.00958738,-24.54,-40.08,-42.72
1554886630600,9.77792,-0.40761283,0.44951138,-0.15339808,0.0031957934000000003,0.0031957934000000003,-24.54,-40.08,-42.78
1554886630619,9.749189,-0.53689975,0.45908818,-0.16085494,-0.020240024,0.0,-24.54,-40.02,-42.84
1554886630639,9.907207000000001,-0.55605334,0.57400984,-0.17363810000000002,-0.034088463,-0.0031957934000000003,-24.54,-39.96,-42.84
1554886630660,9.89763,-0.6183026,0.6123171,-0.19174760000000002,-0.039414786,-0.012783173500000002,-24.6,-39.9,-42.9
1554886630680,9.969456,-0.6087258000000001,0.789488,-0.2034655,-0.040480047000000005,-0.02130529,-24.6,-39.78,-42.96
1554886630699,9.983821,-0.6135142,0.65062433,-0.20026971,-0.041545313,-0.022370555,-24.6,-39.66,-43.02
1554886630720,9.950302,-0.76195467,0.64583594,-0.19174760000000002,-0.051132694000000006,-0.02876214,-24.66,-39.54,-43.08
1554886630740,9.888053,-0.7811083000000001,0.7846996,-0.17150758,-0.047936900000000005,-0.040480047000000005,-24.72,-39.42,-43.08
1554886630760,9.782708,-0.7715314999999999,0.6314706999999999,-0.14594123,-0.034088463,-0.043675844000000005,-24.72,-39.3,-43.02
1554886630780,9.763555,-0.8242039000000001,0.81343,-0.11824436,-0.020240024,-0.043675844000000005,-24.72,-39.24,-42.96
1554886630800,9.701305,-0.83378077,0.8086416000000001,-0.096939065,-0.0063915867,-0.04261058,-24.72,-39.18,-42.9
1554886630820,9.629479,-0.7380127,0.6171055000000001,-0.099069595,0.015978966,-0.036218993,-24.78,-39.06,-42.78
1554886630839,9.634267999999999,-0.7667431,0.7032967,-0.11930962,0.022370555,-0.03089267,-24.78,-39.0,-42.72
1554886630860,9.701305,-0.75237787,0.5979519,-0.16724652,0.02876214,-0.022370555,-24.78,-38.82,-42.6
1554886630879,9.730036,-0.75716627,0.66498953,-0.20133498,0.03195793,-0.018109497,-24.78,-38.58,-42.54
1554886630900,9.696517,-0.86251116,0.7368156,-0.22370553,0.035153727999999995,-0.007456851,-24.78,-38.28,-42.42
1554886630920,9.662998,-0.86251116,0.6985083000000001,-0.21092236,0.026631612000000002,0.008522116,-24.78,-38.1,-42.42
1554886630940,9.744401,-0.8242039000000001,0.6218939,-0.17363810000000002,0.007456851,0.0063915867,-24.78,-37.92,-42.42
1554886630959,9.77792,-0.7667431,0.6027403,-0.128897,-0.0053263223,-0.00958738,-24.72,-37.74,-42.42
1554886630980,9.753978,-0.82899237,0.7272388000000001,-0.08841695,-0.011717908999999999,-0.026631612000000002,-24.72,-37.56,-42.42
1554886631000,9.734824,-0.75237787,0.7032967,-0.06711166,-0.0053263223,-0.040480047000000005,-24.72,-37.44,-42.42
1554886631019,9.667786999999999,-0.6805518,0.5979519,-0.06604639400000001,-0.007456851,-0.047936900000000005,-24.72,-37.44,-42.42
1554886631039,9.677363,-0.75716627,0.65541273,-0.06924219,-0.008522116,-0.056459017,-24.72,-37.38,-42.42
1554886631060,9.706094,-0.8960299999999999,0.85652566,-0.06391586,-0.012783173500000002,-0.058589544,-24.72,-37.32,-42.42
1554886631080,9.734824,-0.87208796,0.66020113,-0.040480047000000005,-0.020240024,-0.056459017,-24.72,-37.26,-42.42
1554886631099,9.768343,-0.83856916,0.6745663000000001,-0.01917476,-0.01917476,-0.053263225,-24.66,-37.2,-42.42
1554886631120,9.768343,-0.9199719999999999,0.5117606,-0.00958738,-0.012783173500000002,-0.051132694000000006,-24.66,-37.14,-42.36
1554886631139,9.744401,-0.86251116,0.7224503999999999,-0.008522116,-0.0053263223,-0.041545313,-24.66,-37.08,-42.36
1554886631160,9.849746000000001,-0.9056068000000002,0.6075286999999999,-0.011717908999999999,-0.011717908999999999,-0.026631612000000002,-24.6,-37.02,-42.3
1554886631180,9.706094,-0.88166475,0.54049104,-0.015978966,-0.018109497,-0.008522116,-24.6,-36.96,-42.3
1554886631200,9.849746000000001,-0.9056068000000002,0.5117606,-0.015978966,-0.02130529,0.00958738,-24.6,-36.96,-42.24
1554886631219,9.80665,-0.96306765,0.56443304,0.0010652645,-0.025566347000000003,0.023435817999999997,-24.66,-36.96,-42.24
1554886631240,9.662998,-0.96306765,0.7080852,0.037284255,-0.02876214,0.03195793,-24.66,-36.96,-42.24
1554886631259,9.753978,-0.7954735,0.52133745,0.06711166,-0.022370555,0.035153727999999995,-24.72,-36.96,-42.24
1554886631279,9.821015,-0.86251116,0.32501290000000005,0.07456851,-0.018109497,0.03089267,-24.78,-36.9,-42.24
1554886631300,9.68694,-0.6853402,0.5117606,0.07563378,-0.01917476,0.020240024,-24.78,-36.84,-42.3
1554886631319,9.825804,-0.7236475,0.56922144,0.07989483,-0.023435817999999997,0.013848438000000001,-24.84,-36.78,-42.24
1554886631339,9.811439,-0.6853402,0.65062433,0.080960095,-0.015978966,0.002130529,-24.9,-36.78,-42.24
1554886631359,9.801862,-0.6422445999999999,0.55485624,0.080960095,-0.014913702,-0.0063915867,-24.96,-36.78,-42.24
1554886631380,9.844957,-0.65182143,0.6171055000000001,0.080960095,-0.015978966,-0.011717908999999999,-24.96,-36.84,-42.24
1554886631399,9.753978,-0.57041854,0.6314706999999999,0.07669904,-0.018109497,-0.01917476,-25.02,-36.9,-42.18
1554886631419,9.916783,-0.6374562,0.46387658,0.07137272,-0.0063915867,-0.02876214,-25.02,-36.96,-42.18
1554886631439,9.854534,-0.6853402,0.55964464,0.060720075,0.0,-0.041545313,-25.02,-37.08,-42.18
1554886631460,9.730036,-0.64703304,0.53091425,0.04580637,0.0,-0.05006743,-25.02,-37.2,-42.18
1554886631479,9.744401,-0.6278794,0.5117606,0.033023197000000004,-0.002130529,-0.053263225,-25.02,-37.38,-42.18
1554886631500,9.701305,-0.7906850999999999,0.55964464,0.023435817999999997,0.007456851,-0.047936900000000005,-25.02,-37.5,-42.18
1554886631520,9.758766,-0.7954735,0.53091425,0.014913702,0.008522116,-0.036218993,-25.02,-37.56,-42.24
1554886631539,9.825804,-0.75716627,0.6410475,0.014913702,0.007456851,-0.02876214,-24.96,-37.62,-42.24
1554886631559,9.753978,-0.87208796,0.6362591,0.011717908999999999,0.0053263223,-0.02876214,-24.9,-37.56,-42.3
1554886631579,9.672575,-0.84814596,0.55006784,0.01917476,0.00958738,-0.024501082,-24.9,-37.5,-42.3
1554886631600,9.844957,-0.87208796,0.6410475,0.03089267,0.015978966,-0.008522116,-24.84,-37.38,-42.42
1554886631620,9.801862,-0.7906850999999999,0.43993455,0.02876214,0.017044231,0.0,-24.84,-37.32,-42.48
1554886631639,9.80665,-0.7811083000000001,0.5069722,0.012783173500000002,0.02130529,0.002130529,-24.84,-37.32,-42.48
1554886631660,9.77792,-0.694917,0.3681085,-0.007456851,0.012783173500000002,0.0063915867,-24.78,-37.26,-42.54
1554886631679,9.811439,-0.8146270999999999,0.47824179999999994,-0.0063915867,0.0063915867,0.008522116,-24.84,-37.2,-42.54
1554886631699,9.715671,-0.7380127,0.57400984,-0.002130529,0.0063915867,0.008522116,-24.84,-37.26,-42.48
1554886631720,9.730036,-0.7811083000000001,0.5931635000000001,0.013848438000000001,0.0,-0.0031957934000000003,-24.78,-37.32,-42.42
1554886631740,9.77792,-0.7380127,0.64583594,0.026631612000000002,-0.00958738,-0.00958738,-24.78,-37.32,-42.36
1554886631760,9.77792,-0.7236475,0.53570265,0.027696876000000002,-0.012783173500000002,-0.010652645,-24.78,-37.38,-42.3
1554886631780,9.844957,-0.7715314999999999,0.6745663000000001,0.022370555,-0.012783173500000002,-0.017044231,-24.72,-37.38,-42.3
1554886631800,9.768343,-0.7332243,0.6314706999999999,0.008522116,-0.007456851,-0.020240024,-24.72,-37.38,-42.24
1554886631819,9.725247,-0.75237787,0.6410475,-0.0063915867,-0.011717908999999999,-0.02130529,-24.66,-37.38,-42.18
1554886631840,9.730036,-0.6853402,0.5883751,-0.02130529,-0.011717908999999999,-0.026631612000000002,-24.66,-37.32,-42.24
1554886631860,9.801862,-0.83856916,0.6362591,-0.035153727999999995,-0.010652645,-0.026631612000000002,-24.66,-37.2,-42.24
1554886631880,9.797073,-0.75237787,0.5931635000000001,-0.046871635999999994,-0.012783173500000002,-0.02876214,-24.72,-37.2,-42.24
1554886631900,9.768343,-0.83856916,0.5883751,-0.04474111,-0.011717908999999999,-0.03089267,-24.72,-37.14,-42.24
1554886631920,9.883265,-0.84814596,0.66020113,-0.029827405,-0.015978966,-0.033023197000000004,-24.78,-37.02,-42.24
1554886631940,9.835381,-0.84335756,0.55006784,-0.014913702,-0.012783173500000002,-0.039414786,-24.78,-36.96,-42.3
1554886631960,9.725247,-0.9103952,0.6314706999999999,-0.0010652645,-0.008522116,-0.04474111,-24.78,-36.96,-42.3
1554886631980,9.801862,-0.85293436,0.53570265,0.018109497,-0.008522116,-0.04580637,-24.84,-36.9,-42.3
1554886631999,9.792285000000001,-0.7811083000000001,0.47824179999999994,0.018109497,-0.010652645,-0.04474111,-24.78,-36.9,-42.3
1554886632020,9.734824,-0.7236475,0.6027403,0.018109497,-0.00958738,-0.043675844000000005,-24.78,-36.96,-42.36
1554886632039,9.68694,-0.7906850999999999,0.5069722,0.014913702,-0.004261058,-0.03834952,-24.72,-37.02,-42.36
1554886632059,9.696517,-0.7954735,0.7080852,0.011717908999999999,-0.0063915867,-0.03089267,-24.72,-37.02,-42.36
1554886632080,9.825804,-0.85293436,0.5021838,0.008522116,-0.010652645,-0.018109497,-24.66,-37.08,-42.36
1554886632099,9.753978,-0.8146270999999999,0.6362591,0.0063915867,-0.00958738,-0.010652645,-24.66,-37.08,-42.36
1554886632119,9.792285000000001,-0.8242039000000001,0.65062433,0.010652645,-0.004261058,-0.0010652645,-24.6,-37.08,-42.36
1554886632139,9.696517,-0.83856916,0.66498953,0.008522116,0.0063915867,0.004261058,-24.6,-37.14,-42.36
1554886632159,9.811439,-0.7811083000000001,0.7368156,0.0010652645,0.011717908999999999,0.004261058,-24.6,-37.08,-42.36
1554886632180,9.80665,-0.82899237,0.55485624,-0.017044231,0.022370555,0.0,-24.6,-37.08,-42.36
1554886632200,9.864111,-0.82899237,0.6218939,-0.036218993,0.03195793,-0.0031957934000000003,-24.66,-37.08,-42.36
1554886632220,9.715671,-0.8050503000000001,0.64583594,-0.039414786,0.035153727999999995,-0.0010652645,-24.66,-37.02,-42.36
1554886632239,9.701305,-0.7858967,0.56922144,-0.023435817999999997,0.02876214,0.007456851,-24.66,-37.02,-42.3
1554886632260,9.77792,-0.8050503000000001,0.47824179999999994,-0.008522116,0.02130529,0.007456851,-24.66,-37.02,-42.3
1554886632280,9.830592,-0.6805518,0.6218939,-0.0010652645,0.015978966,-0.002130529,-24.66,-37.02,-42.3
1554886632300,9.706094,-0.7044938000000001,0.5069722,0.008522116,0.00958738,-0.012783173500000002,-24.72,-37.02,-42.3
1554886632320,9.720459,-0.66618663,0.48303019999999997,0.020240024,0.0031957934000000003,-0.023435817999999997,-24.78,-37.02,-42.24
1554886632339,9.854534,-0.7906850999999999,0.66020113,0.01917476,-0.002130529,-0.03195793,-24.84,-37.02,-42.24
1554886632360,9.811439,-0.76195467,0.5835866999999999,0.018109497,-0.0053263223,-0.035153727999999995,-24.84,-36.96,-42.24
1554886632380,9.763555,-0.75716627,0.53570265,0.014913702,-0.0031957934000000003,-0.03195793,-24.9,-36.96,-42.24
1554886632399,9.725247,-0.7140707,0.7751228,0.010652645,-0.0063915867,-0.03089267,-24.9,-36.96,-42.18
1554886632419,9.725247,-0.88645315,0.66020113,0.00958738,-0.00958738,-0.03089267,-24.96,-36.96,-42.18
1554886632440,9.883265,-0.8194155000000001,0.6314706999999999,0.0053263223,-0.008522116,-0.036218993,-25.02,-37.02,-42.18
1554886632459,9.916783,-0.83378077,0.741604,-0.00958738,-0.007456851,-0.037284255,-25.02,-37.02,-42.12
1554886632480,9.849746000000001,-0.9056068000000002,0.76075757,-0.013848438000000001,-0.011717908999999999,-0.046871635999999994,-24.96,-37.02,-42.12
1554886632499,10.031705,-0.9439139999999999,0.76075757,-0.00958738,-0.012783173500000002,-0.046871635999999994,-24.96,-36.96,-42.12
1554886632519,10.012551,-0.85293436,0.6841431,0.0,-0.002130529,-0.04580637,-24.9,-36.96,-42.12
1554886632539,9.749189,-0.86729956,0.7846996,0.0063915867,0.02876214,-0.02876214,-24.9,-36.96,-42.18
1554886632559,9.677363,-0.8194155000000001,0.66020113,0.010652645,0.037284255,-0.015978966,-24.9,-36.96,-42.18
1554886632580,9.600749,-0.88166475,0.6123171,0.010652645,0.041545313,-0.010652645,-24.9,-36.96,-42.18
1554886632600,9.519346,-0.86251116,0.6171055000000001,0.011717908999999999,0.03089267,-0.01917476,-24.84,-36.9,-42.18
1554886632620,9.629479,-0.84814596,0.75118077,0.018109497,0.023435817999999997,-0.02876214,-24.84,-36.9,-42.24
1554886632639,9.629479,-0.8194155000000001,0.47824179999999994,0.03834952,0.024501082,-0.029827405,-24.84,-36.9,-42.24
1554886632659,9.65821,-0.86251116,0.66020113,0.058589544,0.026631612000000002,-0.026631612000000002,-24.84,-36.9,-42.24
1554886632679,9.768343,-0.7284359,0.56443304,0.08628642,0.01917476,-0.018109497,-24.84,-36.96,-42.24
1554886632699,9.80665,-0.7667431,0.49739540000000004,0.10546118,0.004261058,-0.014913702,-24.78,-36.96,-42.3
1554886632719,9.763555,-0.7140707,0.5931635000000001,0.113983296,-0.010652645,-0.014913702,-24.78,-36.96,-42.36
1554886632739,9.682152,-0.6853402,0.56443304,0.1107875,-0.020240024,-0.017044231,-24.72,-37.02,-42.42
1554886632760,9.634267999999999,-0.65660983,0.6410475,0.10652645,-0.02876214,-0.018109497,-24.72,-37.02,-42.42
1554886632780,9.634267999999999,-0.65182143,0.717662,0.101200126,-0.03089267,-0.017044231,-24.72,-37.02,-42.48
1554886632799,9.763555,-0.6997054,0.7128736,0.08522116,-0.027696876000000002,-0.018109497,-24.72,-37.02,-42.54
1554886632820,9.792285000000001,-0.7380127,0.7751228,0.054328485999999995,-0.025566347000000003,-0.023435817999999997,-24.72,-36.96,-42.54
1554886632839,9.758766,-0.57041854,0.75118077,0.024501082,-0.015978966,-0.02130529,-24.72,-36.9,-42.6
1554886632860,9.68694,-0.6805518,0.95229375,0.002130529,-0.014913702,-0.017044231,-24.78,-36.84,-42.6
1554886632880,9.710882000000002,-0.7811083000000001,0.83737206,-0.007456851,-0.011717908999999999,-0.017044231,-24.78,-36.84,-42.6
1554886632900,9.734824,-0.7667431,0.789488,-0.0031957934000000003,-0.004261058,-0.014913702,-24.78,-36.78,-42.54
1554886632920,9.77792,-0.7858967,0.6985083000000001,0.011717908999999999,-0.004261058,-0.013848438000000001,-24.72,-36.72,-42.54
1554886632940,9.734824,-0.7332243,0.56443304,0.029827405,-0.0053263223,-0.01917476,-24.72,-36.66,-42.54
1554886632960,9.768343,-0.8960299999999999,0.57400984,0.03834952,-0.008522116,-0.027696876000000002,-24.72,-36.66,-42.54
1554886632980,9.739613,-0.7906850999999999,0.5069722,0.03834952,-0.011717908999999999,-0.03195793,-24.72,-36.66,-42.54
1554886632999,9.811439,-0.75237787,0.55485624,0.041545313,-0.017044231,-0.027696876000000002,-24.72,-36.66,-42.54
1554886633019,9.864111,-0.8146270999999999,0.64583594,0.03834952,-0.023435817999999997,-0.01917476,-24.66,-36.66,-42.54
1554886633040,9.840169,-0.7667431,0.47824179999999994,0.034088463,-0.029827405,-0.012783173500000002,-24.66,-36.66,-42.54
1554886633060,9.758766,-0.83378077,0.5835866999999999,0.034088463,-0.036218993,-0.0063915867,-24.66,-36.66,-42.6
1554886633080,9.92636,-0.8146270999999999,0.6985083000000001,0.037284255,-0.040480047000000005,-0.004261058,-24.66,-36.66,-42.6
1554886633100,9.940725,-0.7428011,0.84694886,0.03195793,-0.037284255,-0.0031957934000000003,-24.66,-36.66,-42.54
1554886633120,9.878476,-0.87687635,0.7846996,0.018109497,-0.03834952,-0.0053263223,-24.66,-36.66,-42.54
1554886633140,9.835381,-0.87208796,0.6937199000000001,0.011717908999999999,-0.040480047000000005,-0.004261058,-24.6,-36.66,-42.48
1554886633160,9.844957,-0.86729956,0.66020113,0.00958738,-0.037284255,0.0,-24.6,-36.66,-42.48
1554886633180,9.715671,-0.75716627,0.8038531999999999,0.0063915867,-0.024501082,0.0010652645,-24.54,-36.72,-42.42
1554886633200,9.768343,-0.7332243,0.6985083000000001,-0.015978966,-0.008522116,-0.007456851,-24.54,-36.72,-42.42
1554886633220,9.734824,-0.82899237,0.74639237,-0.03834952,0.007456851,-0.02876214,-24.54,-36.72,-42.36
1554886633240,9.749189,-0.7428011,0.7272388000000001,-0.039414786,0.018109497,-0.03089267,-24.54,-36.72,-42.36
1554886633260,9.706094,-0.86251116,0.55006784,-0.035153727999999995,0.024501082,-0.02130529,-24.54,-36.72,-42.36
1554886633279,9.701305,-0.8912416,0.75118077,-0.03089267,0.01917476,-0.015978966,-24.6,-36.78,-42.48
1554886633300,9.768343,-0.82899237,0.6027403,-0.010652645,-0.004261058,-0.010652645,-24.6,-36.78,-42.6
1554886633319,9.672575,-0.76195467,0.5021838,0.020240024,-0.011717908999999999,-0.017044231,-24.66,-36.78,-42.72
1554886633340,9.720459,-0.7906850999999999,0.45908818,0.047936900000000005,-0.012783173500000002,-0.034088463,-24.66,-36.84,-42.84
1554886633359,9.720459,-0.7811083000000001,0.46866497,0.06498113,-0.015978966,-0.05006743,-24.72,-36.96,-42.96
1554886633380,9.773131,-0.7284359,0.54527944,0.060720075,-0.024501082,-0.060720075,-24.72,-37.14,-43.08
1554886633399,9.734824,-0.7428011,0.64583594,0.04261058,-0.033023197000000004,-0.058589544,-24.72,-37.26,-43.14
1554886633419,9.730036,-0.7380127,0.53091425,0.027696876000000002,-0.040480047000000005,-0.056459017,-24.78,-37.32,-43.08
1554886633440,9.797073,-0.8912416,0.5835866999999999,0.015978966,-0.047936900000000005,-0.05006743,-24.84,-37.56,-42.96
1554886633459,9.792285000000001,-0.9199719999999999,0.66498953,0.013848438000000001,-0.053263225,-0.046871635999999994,-24.84,-37.62,-42.84
1554886633480,9.801862,-0.88645315,0.6075286999999999,0.015978966,-0.051132694000000006,-0.043675844000000005,-24.84,-37.62,-42.78
1554886633500,9.816227,-0.7763199000000001,0.65062433,0.02876214,-0.037284255,-0.039414786,-24.9,-37.68,-42.54
1554886633520,9.768343,-0.6853402,0.7272388000000001,0.03195793,-0.026631612000000002,-0.03834952,-24.9,-37.68,-42.42
1554886633539,9.677363,-0.9056068000000002,0.7080852,0.036218993,-0.026631612000000002,-0.043675844000000005,-24.9,-37.62,-42.3
1554886633560,9.763555,-0.87687635,0.6697779,0.043675844000000005,-0.022370555,-0.046871635999999994,-24.9,-37.56,-42.24
1554886633580,9.80665,-0.7715314999999999,0.6171055000000001,0.041545313,-0.0063915867,-0.034088463,-24.96,-37.5,-42.3
1554886633600,9.811439,-0.87208796,0.65541273,0.035153727999999995,0.0053263223,-0.029827405,-24.96,-37.5,-42.3
1554886633620,9.749189,-0.88645315,0.56922144,0.02130529,0.00958738,-0.027696876000000002,-24.96,-37.5,-42.3
1554886633640,9.758766,-0.9199719999999999,0.49739540000000004,0.014913702,0.008522116,-0.026631612000000002,-24.96,-37.56,-42.3
1554886633659,9.696517,-0.7906850999999999,0.54527944,0.011717908999999999,0.013848438000000001,-0.012783173500000002,-24.96,-37.56,-42.3
1554886633680,9.77792,-0.8960299999999999,0.7224503999999999,0.008522116,0.015978966,0.0010652645,-24.96,-37.56,-42.3
1554886633699,9.773131,-0.84814596,0.6410475,0.0053263223,0.014913702,0.008522116,-24.96,-37.56,-42.3
1554886633720,9.710882000000002,-0.82899237,0.57400984,-0.004261058,0.012783173500000002,0.023435817999999997,-24.9,-37.56,-42.36
1554886633740,9.892841,-0.8098387,0.6218939,-0.018109497,0.020240024,0.040480047000000005,-24.9,-37.56,-42.3
1554886633760,9.907207000000001,-0.84814596,0.65541273,-0.03834952,0.037284255,0.05006743,-24.9,-37.56,-42.3
1554886633779,9.945514,-0.85293436,0.66498953,-0.05539375,0.041545313,0.05219796,-24.84,-37.56,-42.3
1554886633799,9.931149000000001,-0.7906850999999999,0.7128736,-0.07350325,0.037284255,0.051132694000000006,-24.84,-37.56,-42.3
1554886633820,9.77792,-0.7188591,0.789488,-0.07456851,0.03089267,0.047936900000000005,-24.78,-37.56,-42.3
1554886633839,9.835381,-0.84814596,0.7751228,-0.06498113,0.026631612000000002,0.037284255,-24.72,-37.56,-42.3
1554886633860,9.792285000000001,-0.7763199000000001,0.717662,-0.047936900000000005,0.022370555,0.013848438000000001,-24.66,-37.56,-42.3
1554886633880,9.739613,-0.8960299999999999,0.7272388000000001,-0.02876214,0.02876214,-0.0063915867,-24.6,-37.5,-42.3
1554886633900,9.696517,-0.8194155000000001,0.6697779,-0.0031957934000000003,0.034088463,-0.018109497,-24.54,-37.5,-42.3
1554886633920,9.524135000000001,-0.8194155000000001,0.76554596,0.014913702,0.04261058,-0.027696876000000002,-24.48,-37.44,-42.3
1554886633939,9.610325999999999,-0.84814596,0.66020113,0.014913702,0.043675844000000005,-0.036218993,-24.48,-37.44,-42.3
1554886633960,9.524135000000001,-0.7332243,0.6937199000000001,-0.011717908999999999,0.040480047000000005,-0.05006743,-24.48,-37.38,-42.36
1554886633980,9.639056,-0.84335756,0.57400984,-0.039414786,0.023435817999999997,-0.068176925,-24.48,-37.38,-42.36
1554886634000,9.677363,-0.83378077,0.4878186,-0.051132694000000006,0.008522116,-0.07989483,-24.48,-37.38,-42.36
1554886634020,9.768343,-0.83856916,0.40641573,-0.039414786,0.002130529,-0.082025364,-24.54,-37.32,-42.36
1554886634039,9.710882000000002,-0.95349085,0.66498953,-0.012783173500000002,-0.00958738,-0.07456851,-24.6,-37.38,-42.36
1554886634059,9.667786999999999,-0.86729956,0.6218939,0.026631612000000002,-0.03089267,-0.07243799,-24.66,-37.38,-42.36
1554886634079,9.763555,-0.9343372,0.6218939,0.05219796,-0.053263225,-0.07989483,-24.72,-37.32,-42.36
1554886634100,9.878476,-0.9103952,0.45908818,0.07030745599999999,-0.06285059999999999,-0.09161274,-24.78,-37.32,-42.3
1554886634121,9.92636,-0.75716627,0.54049104,0.07989483,-0.049002163,-0.08735169,-24.84,-37.32,-42.3
1554886634140,9.734824,-0.7332243,0.56443304,0.06391586,-0.036218993,-0.07137272,-24.9,-37.26,-42.3
1554886634159,9.701305,-0.64703304,0.83737206,0.040480047000000005,-0.04261058,-0.058589544,-24.9,-37.26,-42.24
1554886634180,9.667786999999999,-0.8050503000000001,0.7224503999999999,-0.018109497,-0.07243799,-0.05219796,-24.9,-37.26,-42.24
1554886634200,9.744401,-0.8242039000000001,0.6985083000000001,-0.047936900000000005,-0.07776430000000001,-0.05539375,-24.9,-37.32,-42.24
1554886634219,9.634267999999999,-0.82899237,0.82779527,-0.06178534,-0.06178534,-0.06178534,-24.9,-37.32,-42.24
1554886634240,9.639056,-0.7954735,0.83737206,-0.060720075,-0.027696876000000002,-0.06604639400000001,-24.9,-37.38,-42.24
1554886634260,9.763555,-1.0205284,1.0289081,-0.054328485999999995,-0.015978966,-0.08948222,-24.96,-37.38,-42.3
1554886634279,9.835381,-1.0157399999999999,0.8230068000000001,-0.03195793,-0.012783173500000002,-0.10226539,-24.96,-37.38,-42.3
1554886634299,9.849746000000001,-1.0013748,0.76075757,0.012783173500000002,0.004261058,-0.09054748,-25.02,-37.38,-42.36
1554886634320,9.883265,-0.88645315,0.86610246,0.033023197000000004,0.03834952,-0.054328485999999995,-25.02,-37.38,-42.36
1554886634340,9.65821,-0.95349085,0.65541273,0.035153727999999995,0.053263225,-0.033023197000000004,-25.08,-37.32,-42.36
1554886634360,9.763555,-0.8960299999999999,0.6171055000000001,0.02876214,0.056459017,-0.03089267,-25.08,-37.26,-42.36
1554886634380,9.734824,-0.9103952,0.6075286999999999,0.022370555,0.035153727999999995,-0.049002163,-25.08,-37.2,-42.3
1554886634400,9.773131,-0.8912416,0.6218939,0.02876214,0.015978966,-0.06924219,-25.08,-37.14,-42.3
1554886634420,9.739613,-0.8194155000000001,0.49739540000000004,0.03195793,0.027696876000000002,-0.07030745599999999,-25.08,-37.08,-42.24
1554886634440,9.653421,-0.7044938000000001,0.5883751,0.040480047000000005,0.05219796,-0.041545313,-25.02,-37.08,-42.24
1554886634460,9.715671,-0.7092823,0.65062433,0.046871635999999994,0.034088463,0.017044231,-24.96,-37.02,-42.24
1554886634481,9.753978,-0.6422445999999999,0.6410475,0.046871635999999994,0.0063915867,0.035153727999999995,-24.84,-37.02,-42.24
1554886634500,9.701305,-0.5081693,0.6123171,0.043675844000000005,-0.020240024,0.04261058,-24.72,-36.96,-42.24
1554886634519,9.734824,-0.5129577000000001,0.66020113,0.03089267,-0.03195793,0.036218993,-24.6,-36.96,-42.3
1554886634540,9.753978,-0.5129577000000001,0.65062433,0.008522116,-0.03834952,0.008522116,-24.54,-36.96,-42.36
1554886634560,9.749189,-0.5081693,0.85173726,-0.0053263223,-0.047936900000000005,-0.010652645,-24.42,-36.96,-42.36
1554886634580,9.825804,-0.53211135,0.6123171,-0.015978966,-0.05006743,-0.026631612000000002,-24.36,-37.02,-42.42
1554886634600,9.816227,-0.53211135,0.6362591,-0.011717908999999999,-0.039414786,-0.036218993,-24.3,-37.02,-42.42
1554886634619,9.773131,-0.7044938000000001,0.6841431,0.0010652645,-0.034088463,-0.037284255,-24.36,-37.08,-42.42
1554886634640,9.725247,-0.7236475,0.75118077,0.008522116,-0.04261058,-0.04580637,-24.42,-37.14,-42.42
1554886634660,9.854534,-0.56084174,0.6937199000000001,0.0010652645,-0.046871635999999994,-0.06604639400000001,-24.42,-37.14,-42.48
1554886634679,9.811439,-0.6039374,0.6937199000000001,-0.023435817999999997,-0.036218993,-0.07563378,-24.48,-37.2,-42.48
1554886634700,9.797073,-0.64703304,0.7224503999999999,-0.05219796,-0.025566347000000003,-0.07669904,-24.54,-37.26,-42.42
1554886634720,9.830592,-0.7380127,0.8230068000000001,-0.06924219,-0.020240024,-0.07137272,-24.54,-37.26,-42.42
1554886634739,9.883265,-0.7858967,0.84694886,-0.07776430000000001,-0.011717908999999999,-0.06604639400000001,-24.54,-37.32,-42.36
1554886634760,9.883265,-0.8146270999999999,0.789488,-0.07882957,-0.002130529,-0.053263225,-24.54,-37.32,-42.36
1554886634780,9.758766,-0.84335756,0.84216046,-0.07456851,0.00958738,-0.037284255,-24.54,-37.38,-42.36
1554886634800,9.816227,-0.86729956,0.6985083000000001,-0.06711166,0.015978966,-0.027696876000000002,-24.6,-37.38,-42.36
1554886634820,9.782708,-0.9056068000000002,0.8038531999999999,-0.05752428,0.017044231,-0.024501082,-24.6,-37.44,-42.3
1554886634840,9.677363,-0.86251116,0.64583594,-0.041545313,0.025566347000000003,-0.02130529,-24.66,-37.44,-42.3
1554886634860,9.68694,-0.7858967,0.6745663000000001,-0.01917476,0.033023197000000004,-0.0063915867,-24.66,-37.44,-42.24
1554886634879,9.739613,-0.7140707,0.55485624,-0.010652645,0.036218993,0.008522116,-24.66,-37.38,-42.3
1554886634900,9.696517,-0.86251116,0.6362591,-0.010652645,0.02876214,0.007456851,-24.66,-37.38,-42.3
1554886634919,9.682152,-0.694917,0.49260699999999996,-0.0010652645,0.00958738,-0.008522116,-24.66,-37.44,-42.3
1554886634939,9.696517,-0.7428011,0.4878186,0.036218993,-0.012783173500000002,-0.011717908999999999,-24.66,-37.44,-42.24
1554886634960,9.758766,-0.7380127,0.3824737,0.084155895,-0.027696876000000002,-0.013848438000000001,-24.66,-37.44,-42.24
1554886634981,9.730036,-0.6422445999999999,0.46387658,0.12676647,-0.040480047000000005,-0.017044231,-24.6,-37.5,-42.18
1554886635000,9.725247,-0.5991489999999999,0.5165489999999999,0.16192019,-0.06285059999999999,-0.020240024,-24.6,-37.5,-42.18
1554886635020,9.758766,-0.623091,0.54049104,0.18216023,-0.09374327,-0.03195793,-24.6,-37.44,-42.12
1554886635040,9.825804,-0.623091,0.8086416000000001,0.19281286,-0.12250541,-0.058589544,-24.6,-37.44,-42.12
1554886635060,9.883265,-0.7140707,0.6841431,0.19068234,-0.12570119999999999,-0.082025364,-24.6,-37.38,-42.06
1554886635080,9.744401,-0.64703304,0.56443304,0.16085494,-0.10546118,-0.08735169,-24.6,-37.38,-42.06
1554886635099,9.749189,-0.54647654,0.7942764,0.12250541,-0.068176925,-0.07350325,-24.66,-37.32,-42.06
1554886635120,9.77792,-0.6422445999999999,0.84216046,0.06604639400000001,-0.056459017,-0.049002163,-24.66,-37.32,-42.12
1554886635140,9.907207000000001,-0.7188591,0.9091981,0.033023197000000004,-0.060720075,-0.04580637,-24.66,-37.38,-42.12
1554886635160,9.888053,-0.6278794,0.7080852,-0.0010652645,-0.043675844000000005,-0.04261058,-24.72,-37.5,-42.18
1554886635180,9.854534,-0.6805518,0.86610246,-0.004261058,-0.011717908999999999,-0.027696876000000002,-24.78,-37.62,-42.24
1554886635200,9.830592,-0.7380127,0.741604,-0.0031957934000000003,0.018109497,-0.013848438000000001,-24.72,-37.74,-42.3
1554886635220,9.797073,-0.6997054,0.6745663000000001,-0.017044231,0.033023197000000004,-0.017044231,-24.72,-37.8,-42.42
1554886635240,9.787497,-0.7380127,0.45908818,-0.026631612000000002,0.033023197000000004,-0.020240024,-24.72,-37.86,-42.48
1554886635260,9.801862,-0.7811083000000001,0.53091425,-0.026631612000000002,0.029827405,-0.013848438000000001,-24.72,-37.98,-42.54
1554886635279,9.844957,-0.75237787,0.6027403,-0.011717908999999999,0.03089267,-0.0053263223,-24.66,-37.92,-42.54
1554886635299,9.763555,-0.7763199000000001,0.55964464,0.0010652645,0.037284255,0.004261058,-24.66,-37.92,-42.54
1554886635319,9.720459,-0.65660983,0.52133745,-0.002130529,0.034088463,0.018109497,-24.6,-37.92,-42.48
1554886635340,9.749189,-0.7428011,0.5117606,-0.015978966,0.02130529,0.03089267,-24.6,-37.86,-42.36
1554886635359,9.677363,-0.7380127,0.49739540000000004,-0.040480047000000005,0.008522116,0.034088463,-24.66,-37.86,-42.24
1554886635379,9.68694,-0.66139823,0.5117606,-0.06711166,-0.008522116,0.03089267,-24.66,-37.86,-42.12
1554886635400,9.610325999999999,-0.64703304,0.6410475,-0.054328485999999995,-0.018109497,0.02876214,-24.72,-37.8,-42.06
1554886635420,9.677363,-0.8242039000000001,0.6314706999999999,0.010652645,-0.034088463,0.03089267,-24.78,-37.8,-42.0
1554886635439,9.830592,-0.8242039000000001,0.5883751,0.053263225,-0.034088463,0.013848438000000001,-24.84,-37.8,-41.94
1554886635460,9.730036,-0.65660983,0.52133745,0.09161274,-0.018109497,0.0031957934000000003,-24.84,-37.8,-41.94
1554886635480,9.753978,-0.52732295,0.6410475,0.07137272,-0.017044231,0.007456851,-24.84,-37.68,-42.0
1554886635500,9.902417999999999,-0.4985925,0.76554596,0.03089267,-0.017044231,0.0031957934000000003,-24.84,-37.62,-42.12
1554886635520,9.830592,-0.41718966,0.49260699999999996,-0.015978966,-0.013848438000000001,0.0031957934000000003,-24.84,-37.56,-42.24
1554886635539,9.749189,-0.5129577000000001,0.49739540000000004,-0.049002163,-0.011717908999999999,-0.0010652645,-24.84,-37.44,-42.36
1554886635559,9.696517,-0.55605334,0.6745663000000001,-0.05752428,-0.022370555,-0.023435817999999997,-24.84,-37.38,-42.42
1554886635580,9.696517,-0.7044938000000001,0.52133745,-0.04580637,-0.039414786,-0.06604639400000001,-24.84,-37.26,-42.48
1554886635600,9.696517,-0.694917,0.44951138,-0.04261058,-0.036218993,-0.112918034,-24.78,-37.2,-42.42
1554886635620,9.768343,-0.670975,0.49260699999999996,-0.043675844000000005,-0.01917476,-0.128897,-24.78,-37.14,-42.36
1554886635640,9.873688000000001,-0.6278794,0.65062433,-0.05219796,-0.008522116,-0.10865697,-24.72,-37.14,-42.3
1554886635660,9.840169,-0.75237787,0.66498953,-0.068176925,-0.01917476,-0.08735169,-24.72,-37.14,-42.18
1554886635679,9.792285000000001,-0.7715314999999999,0.7272388000000001,-0.083090626,-0.03195793,-0.07137272,-24.66,-37.14,-42.12
1554886635699,9.873688000000001,-0.75716627,0.38726214,-0.08735169,-0.03195793,-0.049002163,-24.66,-37.2,-42.06
1554886635719,9.89763,-0.8098387,0.5165489999999999,-0.083090626,-0.01917476,-0.026631612000000002,-24.66,-37.26,-42.0
1554886635740,9.782708,-0.8242039000000001,0.57400984,-0.07776430000000001,-0.008522116,-0.017044231,-24.6,-37.26,-41.94
1554886635759,9.615114,-0.7954735,0.54049104,-0.06604639400000001,-0.010652645,-0.017044231,-24.6,-37.32,-41.94
1554886635780,9.720459,-0.84814596,0.55006784,-0.04474111,-0.02130529,-0.02130529,-24.66,-37.38,-42.0
1554886635800,9.725247,-0.8050503000000001,0.5165489999999999,-0.01917476,-0.017044231,-0.02130529,-24.66,-37.38,-42.06
1554886635819,9.682152,-0.84814596,0.55964464,0.015978966,-0.010652645,-0.022370555,-24.66,-37.38,-42.12
1554886635840,9.730036,-0.7811083000000001,0.52133745,0.049002163,-0.00958738,-0.018109497,-24.72,-37.32,-42.12
1554886635859,9.701305,-0.7140707,0.43514615,0.07030745599999999,-0.013848438000000001,-0.013848438000000001,-24.72,-37.32,-42.12
1554886635880,9.844957,-0.6183026,0.42078096,0.07243799,-0.023435817999999997,-0.018109497,-24.78,-37.26,-42.12
1554886635900,9.888053,-0.6278794,0.6218939,0.05752428,-0.03089267,-0.020240024,-24.78,-37.2,-42.12
1554886635919,9.844957,-0.66139823,0.5165489999999999,0.026631612000000002,-0.029827405,-0.022370555,-24.84,-37.2,-42.18
1554886635940,9.830592,-0.6087258000000001,0.56922144,-0.010652645,-0.023435817999999997,-0.020240024,-24.84,-37.14,-42.18
1554886635960,9.883265,-0.6997054,0.7272388000000001,-0.029827405,-0.017044231,-0.01917476,-24.84,-37.08,-42.18
1554886635979,9.797073,-0.6757634,0.6362591,-0.025566347000000003,-0.011717908999999999,-0.022370555,-24.84,-37.08,-42.18
1554886635999,9.787497,-0.76195467,0.65541273,-0.014913702,-0.011717908999999999,-0.029827405,-24.84,-37.08,-42.18
1554886636020,9.835381,-0.75716627,0.66020113,0.0063915867,-0.002130529,-0.040480047000000005,-24.84,-37.08,-42.18
1554886636039,9.89763,-0.7380127,0.7224503999999999,0.007456851,0.011717908999999999,-0.04580637,-24.84,-37.08,-42.18
1554886636060,9.758766,-0.7811083000000001,0.5883751,-0.0031957934000000003,0.033023197000000004,-0.041545313,-24.84,-37.08,-42.18
1554886636079,9.792285000000001,-0.7332243,0.48303019999999997,-0.004261058,0.03195793,-0.03089267,-24.84,-37.08,-42.18
1554886636099,9.763555,-0.7428011,0.53091425,0.004261058,0.022370555,-0.029827405,-24.9,-37.14,-42.18
1554886636121,9.782708,-0.8194155000000001,0.54527944,0.02876214,0.013848438000000001,-0.029827405,-24.9,-37.14,-42.18
1554886636140,9.859323,-0.8146270999999999,0.41599256,0.053263225,0.008522116,-0.02876214,-24.9,-37.14,-42.24
1554886636160,9.696517,-0.82899237,0.43514615,0.080960095,0.008522116,-0.020240024,-24.9,-37.14,-42.3
1554886636180,9.739613,-0.8194155000000001,0.3776853,0.08628642,0.008522116,-0.015978966,-24.9,-37.14,-42.3
1554886636199,9.677363,-0.8242039000000001,0.5979519,0.08841695,0.0053263223,-0.004261058,-24.9,-37.14,-42.36
1554886636219,9.825804,-0.7763199000000001,0.56443304,0.08735169,-0.0010652645,0.010652645,-24.96,-37.2,-42.36
1554886636240,9.768343,-0.6805518,0.52133745,0.07669904,0.008522116,0.025566347000000003,-24.96,-37.2,-42.42
1554886636260,9.801862,-0.65182143,0.49260699999999996,0.060720075,0.02130529,0.034088463,-24.96,-37.26,-42.42
1554886636280,9.816227,-0.5991489999999999,0.6027403,0.04474111,0.02876214,0.036218993,-24.96,-37.26,-42.42
1554886636299,9.816227,-0.54647654,0.46866497,0.03089267,0.029827405,0.037284255,-24.96,-37.32,-42.42
1554886636320,9.753978,-0.6039374,0.52133745,0.011717908999999999,0.03195793,0.033023197000000004,-24.96,-37.32,-42.42
1554886636340,9.797073,-0.53211135,0.53091425,-0.00958738,0.027696876000000002,0.024501082,-24.96,-37.32,-42.42
1554886636360,9.758766,-0.5129577000000001,0.52133745,-0.029827405,0.025566347000000003,0.018109497,-24.96,-37.32,-42.42
1554886636379,9.787497,-0.5991489999999999,0.5117606,-0.040480047000000005,0.00958738,0.008522116,-24.96,-37.32,-42.48
1554886636399,9.715671,-0.56563014,0.46387658,-0.047936900000000005,0.0,-0.00958738,-25.02,-37.38,-42.48
1554886636419,9.648633,-0.6757634,0.5069722,-0.049002163,-0.01917476,-0.02876214,-25.14,-37.44,-42.48
1554886636440,9.672575,-0.6997054,0.76554596,-0.036218993,-0.027696876000000002,-0.040480047000000005,-25.2,-37.56,-42.54
1554886636459,9.787497,-0.6997054,0.39683893,-0.036218993,-0.033023197000000004,-0.051132694000000006,-25.32,-37.68,-42.54
1554886636479,9.706094,-0.7715314999999999,0.65541273,-0.04474111,-0.027696876000000002,-0.06285059999999999,-25.44,-37.8,-42.54
1554886636499,9.849746000000001,-0.7092823,0.6123171,-0.05539375,-0.02130529,-0.06498113,-25.5,-37.98,-42.54
1554886636519,9.868899,-0.7954735,0.717662,-0.06391586,-0.01917476,-0.060720075,-25.56,-38.1,-42.48
1554886636539,9.830592,-0.8194155000000001,0.5835866999999999,-0.07243799,-0.014913702,-0.05539375,-25.68,-38.28,-42.36
1554886636559,9.691728999999999,-0.8242039000000001,0.6985083000000001,-0.083090626,-0.007456851,-0.051132694000000006,-25.74,-38.34,-42.3
1554886636579,9.840169,-0.8242039000000001,0.65541273,-0.08628642,0.004261058,-0.04580637,-25.74,-38.46,-42.24
1554886636599,9.773131,-0.9056068000000002,0.6362591,-0.082025364,0.011717908999999999,-0.036218993,-25.74,-38.52,-42.18
1554886636619,9.691728999999999,-0.8912416,0.65541273,-0.07350325,0.017044231,-0.027696876000000002,-25.74,-38.64,-42.12
1554886636640,9.773131,-0.9199719999999999,0.76554596,-0.06391586,0.018109497,-0.022370555,-25.8,-38.76,-42.06
1554886636659,9.706094,-0.9439139999999999,0.7703344,-0.051132694000000006,0.014913702,-0.02130529,-25.8,-38.76,-42.0
1554886636679,9.662998,-1.0205284,0.6314706999999999,-0.020240024,0.011717908999999999,-0.024501082,-25.8,-38.76,-42.06
1554886636700,9.821015,-0.9199719999999999,0.48303019999999997,0.020240024,0.0053263223,-0.029827405,-25.62,-38.76,-42.12
1554886636719,9.691728999999999,-0.9008184000000001,0.7272388000000001,0.051132694000000006,0.0031957934000000003,-0.04261058,-25.44,-38.64,-42.12
1554886636740,9.677363,-0.84335756,0.66020113,0.06498113,-0.0053263223,-0.04261058,-25.32,-38.52,-42.18
1554886636759,9.68694,-0.87208796,0.6362591,0.07030745599999999,-0.014913702,-0.03834952,-25.14,-38.4,-42.24
1554886636780,9.763555,-0.7715314999999999,0.7032967,0.082025364,-0.023435817999999997,-0.04261058,-25.02,-38.16,-42.3
1554886636799,9.825804,-0.88166475,0.6985083000000001,0.094808534,-0.023435817999999997,-0.05752428,-24.96,-37.98,-42.36
1554886636819,9.706094,-0.9056068000000002,0.49739540000000004,0.11504856,-0.017044231,-0.06391586,-24.84,-37.8,-42.42
1554886636839,9.744401,-0.7763199000000001,0.7128736,0.12996227,-0.0063915867,-0.05965481,-24.78,-37.68,-42.42
1554886636859,9.782708,-0.6757634,0.6075286999999999,0.12144015,-0.0031957934000000003,-0.051132694000000006,-24.78,-37.62,-42.48
1554886636880,9.883265,-0.7667431,0.76554596,0.096939065,0.002130529,-0.033023197000000004,-24.84,-37.62,-42.54
1554886636899,9.959878999999999,-0.7188591,0.5835866999999999,0.06924219,0.0,-0.00958738,-24.9,-37.56,-42.54
1554886636920,9.902417999999999,-0.75237787,0.6314706999999999,0.043675844000000005,0.004261058,0.015978966,-24.9,-37.62,-42.6
1554886636939,9.840169,-0.7188591,0.6745663000000001,0.015978966,0.011717908999999999,0.03195793,-24.84,-37.62,-42.6
1554886636959,9.77792,-0.6805518,0.7032967,-0.0063915867,0.027696876000000002,0.040480047000000005,-24.78,-37.68,-42.6
1554886636980,9.667786999999999,-0.65660983,0.5979519,-0.015978966,0.037284255,0.039414786,-24.72,-37.68,-42.6
1554886637000,9.634267999999999,-0.6805518,0.55006784,-0.017044231,0.04261058,0.026631612000000002,-24.66,-37.74,-42.54
1554886637020,9.691728999999999,-0.6183026,0.6123171,-0.00958738,0.036218993,0.014913702,-24.6,-37.74,-42.48
1554886637039,9.821015,-0.623091,0.6075286999999999,0.004261058,0.025566347000000003,-0.0010652645,-24.54,-37.74,-42.48
1554886637059,9.77792,-0.6374562,0.52133745,0.026631612000000002,0.020240024,-0.012783173500000002,-24.48,-37.74,-42.42
1554886637080,9.840169,-0.6135142,0.49260699999999996,0.041545313,0.014913702,-0.022370555,-24.48,-37.74,-42.36
1554886637100,9.715671,-0.6278794,0.6410475,0.034088463,0.012783173500000002,-0.026631612000000002,-24.42,-37.74,-42.3
1554886637119,9.859323,-0.5991489999999999,0.6171055000000001,0.01917476,0.004261058,-0.03195793,-24.48,-37.74,-42.24
1554886637140,9.739613,-0.6757634,0.7080852,0.0053263223,-0.00958738,-0.03834952,-24.54,-37.74,-42.24
1554886637160,9.730036,-0.6422445999999999,0.5979519,-0.010652645,-0.022370555,-0.049002163,-24.54,-37.8,-42.18
1554886637179,9.811439,-0.6805518,0.7368156,-0.011717908999999999,-0.02876214,-0.06604639400000001,-24.6,-37.8,-42.18
1554886637199,9.629479,-0.84814596,0.76554596,-0.0063915867,-0.025566347000000003,-0.07243799,-24.66,-37.74,-42.18
1554886637219,9.634267999999999,-0.84814596,0.6841431,0.004261058,-0.012783173500000002,-0.068176925,-24.72,-37.74,-42.18
1554886637240,9.830592,-0.86251116,0.8230068000000001,0.0031957934000000003,0.0031957934000000003,-0.05006743,-24.78,-37.74,-42.12
1554886637260,9.811439,-0.9247603999999999,0.74639237,-0.013848438000000001,0.012783173500000002,-0.025566347000000003,-24.84,-37.74,-42.18
1554886637280,9.801862,-0.95349085,0.6218939,-0.03089267,0.01917476,-0.0053263223,-24.84,-37.68,-42.18
1554886637300,9.639056,-0.7906850999999999,0.76554596,-0.04580637,0.040480047000000005,0.026631612000000002,-24.84,-37.68,-42.18
1554886637319,9.672575,-0.83856916,0.56922144,-0.05752428,0.05219796,0.056459017,-24.84,-37.62,-42.18
1554886637340,9.787497,-0.7715314999999999,0.5021838,-0.07776430000000001,0.049002163,0.06391586,-24.78,-37.56,-42.24
1554886637359,9.782708,-0.7332243,0.46387658,-0.10013486,0.035153727999999995,0.051132694000000006,-24.72,-37.56,-42.24
1554886637379,9.773131,-0.75237787,0.5835866999999999,-0.10865697,0.017044231,0.036218993,-24.66,-37.56,-42.24
1554886637400,9.610325999999999,-0.87687635,0.53091425,-0.06924219,0.007456851,0.024501082,-24.66,-37.56,-42.3
1554886637419,9.734824,-0.85293436,0.46387658,-0.008522116,0.0053263223,0.01917476,-24.66,-37.5,-42.3
1554886637439,9.749189,-0.7188591,0.6745663000000001,0.033023197000000004,0.010652645,0.013848438000000001,-24.72,-37.5,-42.3
1554886637460,9.610325999999999,-0.6997054,0.5835866999999999,0.04261058,-0.0010652645,0.0053263223,-24.72,-37.44,-42.3
1554886637480,9.672575,-0.7092823,0.49739540000000004,0.029827405,-0.03089267,-0.007456851,-24.78,-37.38,-42.3
1554886637500,9.672575,-0.7044938000000001,0.46387658,0.011717908999999999,-0.05965481,-0.023435817999999997,-24.78,-37.32,-42.3
1554886637520,9.720459,-0.7284359,0.76554596,0.002130529,-0.06178534,-0.035153727999999995,-24.78,-37.2,-42.3
1554886637540,9.763555,-0.84335756,0.7703344,0.012783173500000002,-0.053263225,-0.043675844000000005,-24.84,-37.14,-42.3
1554886637559,9.763555,-0.75237787,0.7846996,0.03195793,-0.043675844000000005,-0.053263225,-24.78,-37.08,-42.3
1554886637580,9.868899,-0.83856916,0.8086416000000001,0.046871635999999994,-0.03089267,-0.07030745599999999,-24.72,-36.96,-42.3
1554886637600,9.868899,-0.87208796,0.65062433,0.040480047000000005,-0.01917476,-0.07563378,-24.66,-36.9,-42.3
1554886637619,9.902417999999999,-0.88166475,0.66498953,0.023435817999999997,0.007456851,-0.07456851,-24.66,-36.9,-42.24
1554886637640,9.701305,-0.8146270999999999,0.65062433,-0.0031957934000000003,0.02130529,-0.047936900000000005,-24.6,-36.84,-42.24
1554886637660,9.763555,-0.9103952,0.7990648,-0.017044231,0.0031957934000000003,-0.02876214,-24.6,-36.84,-42.24
1554886637680,9.734824,-0.99658644,0.66020113,-0.025566347000000003,-0.012783173500000002,-0.01917476,-24.6,-36.84,-42.24
1554886637700,9.734824,-1.0061632,0.6697779,-0.026631612000000002,-0.025566347000000003,-0.023435817999999997,-24.6,-36.84,-42.24
1554886637720,9.797073,-1.0540473,0.65062433,-0.007456851,-0.02130529,-0.027696876000000002,-24.6,-36.78,-42.24
1554886637740,9.706094,-1.0253168,0.7080852,0.010652645,-0.012783173500000002,-0.033023197000000004,-24.6,-36.72,-42.24
1554886637761,9.725247,-0.9343372,0.7032967,0.026631612000000002,-0.011717908999999999,-0.03834952,-24.54,-36.6,-42.24
1554886637780,9.696517,-1.0444705,0.6697779,0.04474111,-0.020240024,-0.03195793,-24.54,-36.54,-42.18
1554886637799,9.758766,-1.0061632,0.66498953,0.06924219,-0.026631612000000002,-0.01917476,-24.54,-36.48,-42.18
1554886637819,9.80665,-1.0157399999999999,0.53570265,0.09374327,-0.026631612000000002,-0.011717908999999999,-24.54,-36.42,-42.18
1554886637839,9.797073,-0.8912416,0.53570265,0.1107875,-0.020240024,-0.007456851,-24.6,-36.42,-42.18
1554886637860,9.792285000000001,-0.7428011,0.6745663000000001,0.10972224,-0.014913702,0.002130529,-24.6,-36.42,-42.24
1554886637879,9.840169,-0.7858967,0.6171055000000001,0.096939065,-0.018109497,0.0063915867,-24.66,-36.42,-42.24
1554886637900,9.787497,-0.7667431,0.6745663000000001,0.07669904,-0.023435817999999997,0.004261058,-24.66,-36.54,-42.3
1554886637919,9.77792,-0.7284359,0.74639237,0.058589544,-0.02130529,-0.002130529,-24.66,-36.66,-42.36
1554886637939,9.749189,-0.7380127,0.5883751,0.053263225,-0.023435817999999997,-0.008522116,-24.66,-36.72,-42.42
1554886637960,9.68694,-0.6805518,0.66020113,0.049002163,-0.013848438000000001,-0.008522116,-24.66,-36.78,-42.48
1554886637980,9.77792,-0.6997054,0.65062433,0.040480047000000005,-0.011717908999999999,-0.010652645,-24.66,-36.84,-42.54
1554886638000,9.749189,-0.66139823,0.7224503999999999,0.03089267,-0.007456851,-0.020240024,-24.66,-36.9,-42.6
1554886638020,9.773131,-0.76195467,0.76075757,0.024501082,-0.002130529,-0.03195793,-24.6,-36.9,-42.6
1554886638039,9.811439,-0.7428011,0.7080852,0.023435817999999997,0.0031957934000000003,-0.04261058,-24.66,-36.96,-42.6
1554886638059,9.782708,-0.8194155000000001,0.6745663000000001,0.026631612000000002,0.00958738,-0.04261058,-24.66,-37.08,-42.48
1554886638079,9.773131,-0.7715314999999999,0.6075286999999999,0.01917476,0.018109497,-0.03834952,-24.66,-37.14,-42.36
1554886638100,9.825804,-0.8146270999999999,0.55006784,0.0,0.012783173500000002,-0.03089267,-24.66,-37.2,-42.3
1554886638121,9.763555,-0.7858967,0.5931635000000001,-0.01917476,0.004261058,-0.024501082,-24.66,-37.26,-42.18
1554886638141,9.792285000000001,-0.8098387,0.6889314999999999,-0.018109497,-0.007456851,-0.018109497,-24.6,-37.32,-42.06
1554886638161,9.768343,-0.83856916,0.5835866999999999,-0.002130529,-0.007456851,-0.015978966,-24.6,-37.38,-41.94
1554886638181,9.753978,-0.83378077,0.6937199000000001,0.024501082,-0.0010652645,-0.023435817999999997,-24.6,-37.44,-41.88
1554886638201,9.763555,-0.7715314999999999,0.6937199000000001,0.034088463,-0.002130529,-0.027696876000000002,-24.6,-37.38,-41.88
1554886638220,9.710882000000002,-0.7284359,0.6218939,0.03195793,-0.0063915867,-0.03195793,-24.6,-37.38,-41.94
1554886638240,9.801862,-0.7954735,0.7368156,0.008522116,-0.010652645,-0.037284255,-24.66,-37.32,-42.0
1554886638260,9.840169,-0.7906850999999999,0.5883751,-0.008522116,-0.007456851,-0.040480047000000005,-24.66,-37.26,-42.06
1554886638280,9.739613,-0.7715314999999999,0.7942764,-0.015978966,-0.0010652645,-0.037284255,-24.66,-37.2,-42.12
1554886638300,9.773131,-0.9343372,0.7751228,-0.011717908999999999,-0.0010652645,-0.03834952,-24.66,-37.14,-42.18
1554886638320,9.682152,-0.7284359,0.7368156,-0.007456851,-0.002130529,-0.043675844000000005,-24.66,-37.08,-42.24
1554886638340,9.773131,-0.7954735,0.789488,-0.0053263223,0.002130529,-0.046871635999999994,-24.66,-37.02,-42.3
1554886638360,9.739613,-0.82899237,0.6697779,-0.004261058,0.0053263223,-0.04580637,-24.6,-37.02,-42.36
1554886638379,9.682152,-0.87208796,0.6362591,-0.004261058,0.004261058,-0.039414786,-24.6,-37.02,-42.42
1554886638399,9.801862,-0.83378077,0.6171055000000001,-0.0063915867,-0.0063915867,-0.034088463,-24.54,-37.02,-42.42
1554886638420,9.734824,-0.9056068000000002,0.6171055000000001,0.002130529,-0.014913702,-0.027696876000000002,-24.54,-37.02,-42.42
1554886638439,9.643844999999999,-0.9103952,0.6410475,0.014913702,-0.017044231,-0.01917476,-24.54,-37.08,-42.42
1554886638459,9.706094,-0.86251116,0.66020113,0.025566347000000003,-0.020240024,-0.015978966,-24.6,-37.08,-42.42
1554886638480,9.662998,-0.8194155000000001,0.7224503999999999,0.029827405,-0.03089267,-0.01917476,-24.6,-37.14,-42.54
1554886638499,9.648633,-0.75716627,0.8230068000000001,0.027696876000000002,-0.041545313,-0.023435817999999997,-24.6,-37.14,-42.54
1554886638521,9.715671,-0.82899237,0.7368156,0.025566347000000003,-0.04261058,-0.022370555,-24.6,-37.2,-42.6
1554886638541,9.730036,-0.7811083000000001,0.7272388000000001,0.027696876000000002,-0.029827405,-0.013848438000000001,-24.6,-37.2,-42.66
1554886638561,9.849746000000001,-0.7811083000000001,0.6123171,0.027696876000000002,-0.022370555,-0.013848438000000001,-24.6,-37.2,-42.6
1554886638581,9.825804,-0.7428011,0.6841431,0.02130529,-0.018109497,-0.020240024,-24.66,-37.2,-42.6
1554886638600,9.691728999999999,-0.82899237,0.64583594,0.023435817999999997,-0.014913702,-0.022370555,-24.66,-37.26,-42.54
1554886638620,9.696517,-0.7140707,0.6410475,0.018109497,-0.02876214,-0.01917476,-24.66,-37.26,-42.48
1554886638640,9.873688000000001,-0.75716627,0.6937199000000001,0.008522116,-0.039414786,-0.022370555,-24.66,-37.26,-42.42
1554886638660,9.844957,-0.7811083000000001,0.57400984,0.0053263223,-0.036218993,-0.029827405,-24.72,-37.26,-42.36
1554886638679,9.854534,-0.8050503000000001,0.7368156,0.0,-0.025566347000000003,-0.026631612000000002,-24.72,-37.32,-42.3
1554886638699,9.825804,-0.7188591,0.6027403,-0.008522116,-0.023435817999999997,-0.017044231,-24.72,-37.32,-42.24
1554886638720,9.825804,-0.7954735,0.54049104,-0.024501082,-0.012783173500000002,-0.004261058,-24.72,-37.38,-42.3
1554886638740,9.811439,-0.7044938000000001,0.47824179999999994,-0.033023197000000004,-0.012783173500000002,0.002130529,-24.72,-37.38,-42.3
1554886638760,9.744401,-0.6278794,0.57400984,-0.035153727999999995,-0.017044231,0.0031957934000000003,-24.72,-37.44,-42.3
1554886638780,9.80665,-0.7715314999999999,0.56922144,-0.035153727999999995,-0.01917476,0.0063915867,-24.72,-37.44,-42.3
1554886638800,9.490616000000001,-0.5943606,0.6075286999999999,-0.033023197000000004,-0.010652645,0.0063915867,-24.72,-37.44,-42.3
1554886638820,9.744401,-0.6183026,0.5835866999999999,-0.039414786,-0.029827405,0.004261058,-24.72,-37.38,-42.36
1554886638843,9.753978,-0.84814596,0.7846996,-0.03089267,-0.04474111,-0.018109497,-24.72,-37.38,-42.36
1554886638860,9.840169,-0.7380127,0.6123171,-0.00958738,-0.058589544,-0.035153727999999995,-24.72,-37.32,-42.3
1554886638880,9.782708,-0.64703304,0.39205053,0.011717908999999999,-0.036218993,-0.054328485999999995,-24.72,-37.26,-42.3
1554886638900,9.763555,-0.6853402,0.54527944,0.018109497,-0.025566347000000003,-0.043675844000000005,-24.72,-37.2,-42.3
1554886638921,9.725247,-0.7954735,0.54527944,0.010652645,-0.046871635999999994,-0.05539375,-24.72,-37.2,-42.3
1554886638939,9.691728999999999,-0.7715314999999999,0.6123171,0.004261058,-0.06391586,-0.083090626,-24.72,-37.14,-42.3
1554886638960,9.730036,-0.8050503000000001,0.6171055000000001,0.0031957934000000003,-0.054328485999999995,-0.08628642,-24.72,-37.14,-42.24
1554886638979,9.878476,-0.9295488000000001,0.86131406,0.0053263223,-0.022370555,-0.083090626,-24.78,-37.14,-42.24
1554886638999,9.864111,-0.9008184000000001,0.8086416000000001,-0.0063915867,0.0053263223,-0.07669904,-24.78,-37.2,-42.24
1554886639021,9.840169,-0.95349085,0.7080852,-0.04261058,0.029827405,-0.053263225,-24.78,-37.32,-42.24
1554886639042,9.77792,-0.86729956,0.66498953,-0.09267801,0.054328485999999995,-0.008522116,-24.78,-37.38,-42.24
1554886639061,9.883265,-0.83378077,0.75118077,-0.14061491,0.056459017,0.034088463,-24.78,-37.44,-42.24
1554886639081,9.988609,-0.96785605,0.5883751,-0.17896444,0.049002163,0.058589544,-24.78,-37.5,-42.24
1554886639101,9.763555,-0.9343372,0.40641573,-0.19281286,0.04580637,0.07456851,-24.78,-37.44,-42.24
1554886639121,9.763555,-0.9391255999999999,0.55485624,-0.17470337,0.034088463,0.09161274,-24.78,-37.26,-42.24
1554886639141,9.653421,-0.9056068000000002,0.43514615,-0.16085494,0.02130529,0.10439592,-24.78,-37.14,-42.18
1554886639160,9.677363,-0.9391255999999999,0.31543607,-0.17150758,0.007456851,0.09374327,-24.72,-36.96,-42.12
1554886639180,9.739613,-1.0444705,0.5021838,-0.16937704,-0.002130529,0.07669904,-24.66,-36.72,-42.06
1554886639200,9.768343,-1.1737574,0.6410475,-0.11824436,-0.022370555,0.058589544,-24.66,-36.54,-42.06
1554886639220,9.797073,-1.192911,0.7032967,-0.004261058,-0.054328485999999995,0.03195793,-24.6,-36.36,-41.94
1554886639240,9.706094,-1.1019313,0.6027403,0.17896444,-0.06285059999999999,0.0053263223,-24.54,-36.12,-41.82
1554886639260,9.667786999999999,-1.0779893,0.6027403,0.31105720000000003,-0.047936900000000005,-0.004261058,-24.54,-36.06,-41.76
1554886639280,9.68694,-0.98222125,0.6985083000000001,0.39734364,-0.02876214,-0.014913702,-24.54,-36.06,-41.7
1554886639299,9.672575,-0.87208796,0.56922144,0.41971418,-0.026631612000000002,-0.04261058,-24.6,-36.06,-41.64
1554886639320,9.653421,-0.87208796,0.6218939,0.36645097,-0.035153727999999995,-0.098004326,-24.6,-36.06,-41.64
1554886639340,9.854534,-0.82899237,0.3633201,0.27483824,-0.03834952,-0.14061491,-24.66,-36.18,-41.7
1554886639360,9.888053,-0.9295488000000001,0.39683893,0.18216023,-0.029827405,-0.15339808,-24.66,-36.3,-41.76
1554886639379,9.907207000000001,-0.8194155000000001,0.6410475,0.128897,-0.02876214,-0.14168017,-24.72,-36.42,-41.88
1554886639400,9.892841,-0.9008184000000001,0.55964464,0.07137272,-0.03834952,-0.1107875,-24.78,-36.54,-41.94
1554886639420,9.782708,-0.96306765,0.6937199000000001,0.056459017,-0.046871635999999994,-0.084155895,-24.78,-36.72,-42.06
1554886639440,9.854534,-0.96306765,0.5165489999999999,0.06498113,-0.041545313,-0.047936900000000005,-24.84,-36.84,-42.12
1554886639459,9.753978,-0.87208796,0.54049104,0.06604639400000001,-0.022370555,-0.014913702,-24.84,-36.96,-42.24
1554886639480,9.734824,-0.9439139999999999,0.55485624,0.04474111,-0.0010652645,0.004261058,-24.9,-37.08,-42.3
1554886639500,9.744401,-0.9199719999999999,0.7703344,0.023435817999999997,0.0,0.02130529,-24.9,-37.08,-42.36
1554886639519,9.792285000000001,-0.9056068000000002,0.6171055000000001,0.01917476,-0.002130529,0.03195793,-24.96,-37.14,-42.36
1554886639540,9.768343,-0.87208796,0.5021838,0.024501082,0.002130529,0.035153727999999995,-24.96,-37.14,-42.36
1554886639559,9.792285000000001,-0.83856916,0.5069722,0.035153727999999995,0.017044231,0.036218993,-24.96,-37.2,-42.36
1554886639580,9.830592,-0.8146270999999999,0.49260699999999996,0.046871635999999994,0.022370555,0.039414786,-24.96,-37.2,-42.42
1554886639600,9.720459,-0.7811083000000001,0.54527944,0.05539375,0.01917476,0.03834952,-24.96,-37.26,-42.48
1554886639620,9.816227,-0.6757634,0.48303019999999997,0.07350325,0.0053263223,0.034088463,-24.96,-37.32,-42.48
1554886639639,9.792285000000001,-0.7858967,0.41120413,0.080960095,-0.0053263223,0.027696876000000002,-24.9,-37.38,-42.54
1554886639660,9.710882000000002,-0.7140707,0.43993455,0.09374327,-0.012783173500000002,0.013848438000000001,-24.9,-37.44,-42.54
1554886639680,9.672575,-0.694917,0.5069722,0.10333065,-0.01917476,0.007456851,-24.9,-37.44,-42.6
1554886639699,9.720459,-0.65660983,0.6218939,0.096939065,-0.026631612000000002,-0.002130529,-24.9,-37.5,-42.6
1554886639720,9.691728999999999,-0.6183026,0.5883751,0.07563378,-0.024501082,-0.012783173500000002,-24.84,-37.56,-42.6
1554886639740,9.77792,-0.6087258000000001,0.5117606,0.03834952,-0.017044231,-0.024501082,-24.84,-37.56,-42.66
1554886639760,9.835381,-0.6422445999999999,0.52133745,0.002130529,-0.0063915867,-0.039414786,-24.84,-37.62,-42.66
1554886639780,9.835381,-0.6853402,0.3585317,-0.026631612000000002,-0.0010652645,-0.05219796,-24.84,-37.62,-42.66
1554886639800,9.706094,-0.7332243,0.55964464,-0.040480047000000005,-0.0010652645,-0.06604639400000001,-24.84,-37.74,-42.72
1554886639819,9.821015,-0.7906850999999999,0.53091425,-0.04474111,-0.004261058,-0.07882957,-24.84,-37.86,-42.72
1554886639839,9.739613,-0.83856916,0.5883751,-0.043675844000000005,-0.00958738,-0.08628642,-24.9,-37.92,-42.72
1554886639860,9.801862,-0.8242039000000001,0.5021838,-0.040480047000000005,-0.014913702,-0.08841695,-24.9,-37.98,-42.72
1554886639879,9.682152,-0.86729956,0.6171055000000001,-0.046871635999999994,-0.002130529,-0.084155895,-24.96,-38.04,-42.72
1554886639900,9.734824,-0.9103952,0.75118077,-0.053263225,0.0,-0.07563378,-24.96,-38.04,-42.66
1554886639920,9.744401,-1.0157399999999999,0.6937199000000001,-0.056459017,-0.0031957934000000003,-0.06711166,-25.02,-38.04,-42.66
1554886639940,9.696517,-0.96785605,0.4878186,-0.06178534,-0.00958738,-0.06498113,-25.02,-38.1,-42.6
1554886639960,9.710882000000002,-1.0779893,0.5069722,-0.07350325,-0.02130529,-0.06604639400000001,-25.02,-37.98,-42.6
1554886639981,9.753978,-1.073201,0.5883751,-0.06178534,-0.022370555,-0.06285059999999999,-25.02,-37.98,-42.54
1554886640000,9.782708,-1.073201,0.54527944,-0.034088463,-0.014913702,-0.054328485999999995,-25.02,-37.92,-42.54
1554886640019,9.734824,-1.1258733,0.6841431,0.0010652645,-0.010652645,-0.05219796,-25.02,-37.86,-42.48
1554886640040,9.725247,-1.049259,0.6362591,0.035153727999999995,-0.014913702,-0.04261058,-25.02,-37.8,-42.36
1554886640059,9.758766,-0.98700964,0.7128736,0.06604639400000001,-0.024501082,-0.03195793,-25.02,-37.8,-42.3
1554886640080,9.773131,-1.1019313,0.44951138,0.09587380000000001,-0.025566347000000003,-0.024501082,-25.02,-37.74,-42.18
1554886640099,9.835381,-1.0444705,0.6171055000000001,0.12570119999999999,-0.007456851,-0.013848438000000001,-25.02,-37.74,-42.12
1554886640120,9.744401,-0.87687635,0.6841431,0.14487597,0.011717908999999999,0.00958738,-25.02,-37.74,-42.06
1554886640140,9.753978,-0.9199719999999999,0.56922144,0.14807177,0.008522116,0.03195793,-25.08,-37.68,-41.94
1554886640160,9.768343,-0.9008184000000001,0.49739540000000004,0.14487597,0.002130529,0.04261058,-25.08,-37.68,-41.88
1554886640180,9.744401,-0.84814596,0.34895490000000007,0.13848437,-0.0053263223,0.03834952,-25.08,-37.62,-41.88
1554886640200,9.792285000000001,-0.7906850999999999,0.43035775,0.12996227,-0.0031957934000000003,0.03834952,-25.14,-37.68,-41.94
1554886640219,9.77792,-0.6805518,0.41599256,0.10972224,0.008522116,0.041545313,-25.14,-37.74,-42.0
1554886640239,9.758766,-0.6135142,0.5931635000000001,0.083090626,0.0063915867,0.04580637,-25.14,-37.86,-42.12
1554886640260,9.825804,-0.6997054,0.6985083000000001,0.07989483,-0.007456851,0.040480047000000005,-25.14,-37.86,-42.24
1554886640280,9.749189,-0.5991489999999999,0.5117606,0.09161274,-0.020240024,0.027696876000000002,-25.14,-37.92,-42.36
1554886640300,9.706094,-0.64703304,0.64583594,0.10333065,-0.017044231,0.014913702,-25.14,-38.04,-42.54
1554886640320,9.768343,-0.6997054,0.54049104,0.10865697,-0.010652645,-0.0031957934000000003,-25.14,-38.1,-42.6
1554886640340,9.706094,-0.66618663,0.49260699999999996,0.09267801,-0.007456851,-0.020240024,-25.14,-38.28,-42.72
1554886640359,9.878476,-0.65182143,0.6218939,0.058589544,-0.007456851,-0.043675844000000005,-25.14,-38.4,-42.84
1554886640379,9.816227,-0.66139823,0.54049104,0.025566347000000003,-0.008522116,-0.05539375,-25.14,-38.46,-42.9
1554886640400,9.763555,-0.7332243,0.6171055000000001,-0.007456851,0.0010652645,-0.053263225,-25.14,-38.58,-42.9
1554886640419,9.720459,-0.6805518,0.6123171,-0.04474111,0.007456851,-0.047936900000000005,-25.14,-38.64,-42.96
1554886640439,9.662998,-0.8242039000000001,0.5979519,-0.082025364,0.0063915867,-0.049002163,-25.14,-38.7,-42.96
1554886640459,9.706094,-0.83378077,0.46866497,-0.10865697,-0.002130529,-0.053263225,-25.14,-38.76,-42.9
1554886640480,9.907207000000001,-0.87687635,0.55964464,-0.11717909,0.0,-0.060720075,-25.2,-38.82,-42.9
1554886640500,10.036493,-0.9439139999999999,0.3585317,-0.1107875,-0.0031957934000000003,-0.07243799,-25.2,-38.76,-42.9
1554886640519,9.835381,-0.9343372,0.43993455,-0.08735169,0.0031957934000000003,-0.080960095,-25.2,-38.7,-42.9
1554886640539,9.749189,-0.9199719999999999,0.5117606,-0.07669904,0.017044231,-0.06924219,-25.2,-38.7,-42.9
1554886640560,9.653421,-0.9343372,0.52133745,-0.054328485999999995,0.012783173500000002,-0.053263225,-25.2,-38.64,-42.84
1554886640579,9.65821,-1.0253168,0.6889314999999999,-0.033023197000000004,-0.002130529,-0.04261058,-25.14,-38.58,-42.84
1554886640600,9.639056,-0.97743285,0.55006784,-0.01917476,-0.01917476,-0.04261058,-25.14,-38.58,-42.78
1554886640620,9.77792,-0.8912416,0.6171055000000001,-0.041545313,0.0,-0.037284255,-25.02,-38.58,-42.78
1554886640639,9.730036,-0.95349085,0.7751228,-0.07776430000000001,0.026631612000000002,-0.0031957934000000003,-24.96,-38.52,-42.78
1554886640660,9.77792,-0.95349085,0.75596917,-0.09054748,0.03089267,0.03089267,-24.9,-38.46,-42.72
1554886640680,9.730036,-1.0013748,0.6841431,-0.07137272,0.020240024,0.043675844000000005,-24.78,-38.4,-42.72
1554886640700,9.715671,-0.98700964,0.6027403,-0.027696876000000002,0.004261058,0.033023197000000004,-24.72,-38.34,-42.72
1554886640719,9.672575,-0.86729956,0.6218939,0.008522116,0.0063915867,0.018109497,-24.66,-38.28,-42.72
1554886640740,9.624691,-0.83378077,0.40162733,0.025566347000000003,0.012783173500000002,0.010652645,-24.66,-38.16,-42.72
1554886640759,9.65821,-0.85293436,0.7080852,0.015978966,0.002130529,-0.0010652645,-24.6,-38.1,-42.72
1554886640780,9.682152,-0.8912416,0.6123171,0.007456851,-0.007456851,-0.025566347000000003,-24.66,-38.04,-42.66
1554886640800,9.792285000000001,-0.9056068000000002,0.56922144,0.020240024,-0.03195793,-0.015978966,-24.78,-37.98,-42.66
1554886640819,9.773131,-0.87687635,0.5931635000000001,0.06391586,-0.036218993,-0.037284255,-24.9,-37.92,-42.66
1554886640840,9.749189,-0.83378077,0.48303019999999997,0.084155895,-0.043675844000000005,-0.043675844000000005,-25.02,-37.86,-42.66
1554886640860,9.744401,-0.7332243,0.7224503999999999,0.058589544,-0.07243799,-0.029827405,-25.08,-37.86,-42.6
1554886640879,9.763555,-0.83856916,0.83737206,0.0,-0.08522116,-0.025566347000000003,-25.2,-37.86,-42.6
1554886640900,9.691728999999999,-0.97743285,0.97144735,-0.06711166,-0.06285059999999999,-0.026631612000000002,-25.32,-37.86,-42.48
1554886640920,9.763555,-0.9487024,0.7032967,-0.10226539,-0.02876214,-0.01917476,-25.38,-37.86,-42.42
1554886640939,9.797073,-0.99658644,0.7703344,-0.10333065,0.0,-0.015978966,-25.32,-37.86,-42.36
1554886640959,9.744401,-1.0061632,0.6745663000000001,-0.07989483,0.017044231,-0.017044231,-25.14,-37.92,-42.3
1554886640980,9.749189,-1.1067197,0.5835866999999999,-0.05539375,0.033023197000000004,-0.011717908999999999,-25.02,-37.92,-42.24
1554886641000,9.739613,-1.0444705,0.3633201,-0.027696876000000002,0.03195793,-0.0053263223,-24.9,-37.98,-42.18
1554886641020,9.734824,-1.0444705,0.45908818,-0.0010652645,0.022370555,0.0,-24.84,-37.98,-42.12
1554886641039,9.792285000000001,-0.99179804,0.26276365,0.015978966,0.007456851,-0.007456851,-24.72,-37.98,-42.12
1554886641060,9.878476,-1.039682,0.30585927,0.01917476,-0.01917476,-0.004261058,-24.66,-38.04,-42.12
1554886641079,9.801862,-0.9487024,0.42078096,0.023435817999999997,-0.034088463,-0.0053263223,-24.66,-38.04,-42.12
1554886641101,9.68694,-1.073201,0.6123171,0.058589544,-0.053263225,-0.011717908999999999,-24.66,-38.1,-42.18
1554886641119,9.643844999999999,-1.039682,0.56443304,0.128897,-0.053263225,-0.01917476,-24.66,-37.98,-42.24
1554886641139,9.648633,-0.88166475,0.75118077,0.16618125,-0.040480047000000005,-0.015978966,-24.66,-37.92,-42.3
1554886641159,9.821015,-0.87687635,0.6027403,0.14807177,-0.026631612000000002,-0.008522116,-24.66,-37.92,-42.36
1554886641180,9.907207000000001,-0.84335756,0.54527944,0.083090626,-0.008522116,-0.004261058,-24.6,-37.92,-42.42
1554886641199,9.763555,-0.7858967,0.53091425,0.008522116,0.008522116,0.008522116,-24.6,-37.92,-42.48
1554886641219,9.77792,-0.84335756,0.5931635000000001,-0.025566347000000003,0.017044231,0.020240024,-24.6,-37.92,-42.48
1554886641239,9.768343,-0.87208796,0.53091425,-0.02876214,0.012783173500000002,0.020240024,-24.54,-37.92,-42.54
1554886641260,9.840169,-0.88645315,0.47824179999999994,-0.013848438000000001,0.012783173500000002,0.0053263223,-24.54,-37.92,-42.54
1554886641280,9.691728999999999,-0.8194155000000001,0.3824737,0.01917476,0.011717908999999999,-0.02130529,-24.54,-37.98,-42.54
1554886641299,9.758766,-0.8050503000000001,0.55485624,0.04474111,0.0,-0.035153727999999995,-24.6,-38.04,-42.6
1554886641319,9.682152,-0.7954735,0.53570265,0.056459017,-0.018109497,-0.056459017,-24.6,-38.04,-42.6
1554886641340,9.696517,-0.88645315,0.53091425,0.05219796,-0.024501082,-0.06391586,-24.66,-38.04,-42.6
1554886641359,9.662998,-0.8960299999999999,0.5931635000000001,0.035153727999999995,-0.02876214,-0.056459017,-24.72,-37.98,-42.6
1554886641380,9.691728999999999,-0.95349085,0.55006784,0.012783173500000002,-0.022370555,-0.04261058,-24.72,-37.98,-42.6
1554886641400,9.911995,-0.95827925,0.6171055000000001,-0.013848438000000001,-0.013848438000000001,-0.03195793,-24.78,-37.98,-42.6
1554886641420,9.959878999999999,-0.88166475,0.57400984,-0.036218993,-0.007456851,-0.022370555,-24.78,-37.92,-42.6
1554886641439,9.821015,-0.86729956,0.49739540000000004,-0.04580637,0.008522116,-0.007456851,-24.78,-37.92,-42.6
1554886641459,9.753978,-0.9008184000000001,0.6314706999999999,-0.039414786,0.00958738,0.004261058,-24.78,-37.98,-42.6
1554886641480,9.753978,-0.99179804,0.56922144,-0.024501082,-0.002130529,-0.0063915867,-24.78,-37.98,-42.6
1554886641499,9.801862,-0.88166475,0.53091425,-0.010652645,-0.018109497,-0.03834952,-24.78,-38.04,-42.6
1554886641520,9.715671,-0.9008184000000001,0.48303019999999997,-0.004261058,-0.020240024,-0.06391586,-24.78,-38.1,-42.6
1554886641540,9.734824,-0.9199719999999999,0.42078096,-0.0031957934000000003,-0.013848438000000001,-0.068176925,-24.78,-38.16,-42.6
1554886641559,9.68694,-0.9487024,0.45429978,-0.014913702,-0.012783173500000002,-0.06178534,-24.78,-38.22,-42.6
1554886641580,9.667786999999999,-0.9487024,0.6841431,-0.026631612000000002,-0.023435817999999997,-0.053263225,-24.84,-38.28,-42.6
1554886641602,9.797073,-0.9391255999999999,0.54049104,-0.024501082,-0.029827405,-0.043675844000000005,-24.84,-38.34,-42.6
1554886641620,9.768343,-0.98700964,0.6075286999999999,-0.007456851,-0.03089267,-0.036218993,-24.9,-38.28,-42.6
1554886641639,9.825804,-0.9439139999999999,0.55964464,0.008522116,-0.022370555,-0.034088463,-24.9,-38.28,-42.6
1554886641659,9.80665,-0.98700964,0.49739540000000004,0.024501082,-0.01917476,-0.034088463,-24.96,-38.28,-42.6
1554886641680,9.801862,-0.96785605,0.6314706999999999,0.03089267,-0.018109497,-0.029827405,-24.96,-38.16,-42.6
1554886641700,9.68694,-1.073201,0.53091425,0.025566347000000003,-0.015978966,-0.015978966,-24.96,-38.04,-42.6
1554886641720,9.696517,-1.0205284,0.48303019999999997,0.017044231,-0.00958738,-0.011717908999999999,-24.96,-37.98,-42.54
1554886641740,9.65821,-1.1067197,0.66498953,0.022370555,-0.008522116,-0.010652645,-24.9,-37.86,-42.54
1554886641760,9.715671,-1.0348936,0.56443304,0.039414786,-0.0010652645,-0.012783173500000002,-24.84,-37.8,-42.54
1554886641780,9.797073,-1.0205284,0.55485624,0.06178534,0.0031957934000000003,-0.012783173500000002,-24.84,-37.68,-42.48
1554886641799,9.706094,-0.9343372,0.49739540000000004,0.082025364,0.0063915867,-0.008522116,-24.84,-37.62,-42.48
1554886641819,9.787497,-0.9439139999999999,0.55485624,0.08522116,0.00958738,0.0053263223,-24.9,-37.62,-42.48
1554886641839,9.849746000000001,-0.87687635,0.52133745,0.07669904,0.008522116,0.017044231,-24.9,-37.68,-42.48
1554886641859,9.864111,-0.9439139999999999,0.5069722,0.07030745599999999,0.0031957934000000003,0.020240024,-24.9,-37.68,-42.48
1554886641880,9.940725,-1.0157399999999999,0.56443304,0.083090626,-0.0063915867,0.014913702,-24.96,-37.74,-42.54
1554886641900,9.950302,-0.8242039000000001,0.57400984,0.10759171,-0.008522116,0.0010652645,-24.96,-37.8,-42.54
1554886641920,9.911995,-0.9103952,0.44472298,0.13422333,0.0010652645,-0.010652645,-25.02,-37.86,-42.48
1554886641940,9.80665,-0.8960299999999999,0.57400984,0.13848437,0.007456851,-0.01917476,-25.02,-37.92,-42.48
1554886641960,9.835381,-0.8050503000000001,0.6027403,0.12144015,0.012783173500000002,-0.012783173500000002,-25.08,-38.04,-42.48
1554886641979,9.730036,-0.7380127,0.7368156,0.083090626,0.022370555,0.004261058,-25.08,-38.1,-42.42
1554886641999,9.710882000000002,-0.7284359,0.45429978,0.036218993,0.027696876000000002,0.011717908999999999,-25.08,-38.16,-42.42
1554886642021,9.648633,-0.7332243,0.53570265,-0.004261058,0.026631612000000002,0.014913702,-25.02,-38.22,-42.48
1554886642040,9.557653,-0.7284359,0.48303019999999997,-0.02130529,0.02130529,0.011717908999999999,-25.02,-38.22,-42.54
1554886642059,9.404425,-0.7906850999999999,0.28191724,-0.014913702,0.0053263223,0.0,-25.02,-38.28,-42.6
1554886642081,9.591172,-0.84814596,0.21487960000000003,0.002130529,-0.022370555,-0.029827405,-24.96,-38.28,-42.66
1554886642100,9.720459,-0.8194155000000001,0.5165489999999999,0.036218993,-0.054328485999999995,-0.08628642,-24.96,-38.28,-42.72
1554886642120,9.931149000000001,-0.9056068000000002,0.32501290000000005,0.101200126,-0.084155895,-0.14061491,-24.9,-38.28,-42.84
1554886642140,9.916783,-0.8960299999999999,0.3345897,0.12570119999999999,-0.07776430000000001,-0.16085494,-24.9,-38.28,-42.9
1554886642159,9.92636,-0.9056068000000002,0.43035775,0.113983296,-0.06711166,-0.16298546,-24.9,-38.4,-42.9
1554886642179,9.931149000000001,-1.0253168,0.44472298,0.07030745599999999,-0.056459017,-0.15339808,-24.9,-38.46,-42.9
1554886642200,9.907207000000001,-1.0827777,0.741604,0.023435817999999997,-0.06391586,-0.12676647,-24.9,-38.52,-42.9
1554886642220,9.878476,-1.0923545000000001,0.6841431,-0.00958738,-0.06391586,-0.09161274,-24.9,-38.58,-42.9
1554886642240,9.892841,-1.1354501000000001,0.7703344,-0.020240024,-0.04261058,-0.047936900000000005,-24.96,-38.64,-42.84
1554886642259,9.902417999999999,-1.1737574,0.75118077,-0.029827405,-0.013848438000000001,-0.00958738,-24.96,-38.76,-42.84
1554886642279,9.739613,-1.1258733,0.84694886,-0.026631612000000002,0.0031957934000000003,0.011717908999999999,-24.96,-38.82,-42.78
1554886642300,9.911995,-1.2120646000000002,0.8230068000000001,-0.020240024,0.020240024,0.036218993,-24.96,-38.82,-42.78
1554886642319,9.888053,-1.216853,0.6937199000000001,0.0,0.036218993,0.041545313,-24.96,-38.76,-42.78
1554886642339,9.892841,-1.1162965,0.741604,0.029827405,0.06285059999999999,0.043675844000000005,-24.96,-38.7,-42.78
1554886642360,9.773131,-1.0061632,0.6697779,0.046871635999999994,0.08841695,0.054328485999999995,-24.96,-38.64,-42.72
1554886642380,9.634267999999999,-0.98700964,0.55964464,0.054328485999999995,0.08948222,0.07350325,-24.96,-38.58,-42.72
1554886642399,9.662998,-0.9199719999999999,0.46387658,0.05539375,0.06604639400000001,0.08522116,-24.96,-38.52,-42.72
1554886642420,9.629479,-0.9295488000000001,0.46387658,0.056459017,0.03834952,0.084155895,-24.96,-38.46,-42.72
1554886642439,9.639056,-0.9343372,0.6362591,0.07563378,0.017044231,0.07776430000000001,-25.02,-38.4,-42.72
1554886642460,9.639056,-0.9199719999999999,0.30585927,0.11611383,-0.0053263223,0.068176925,-25.02,-38.4,-42.66
1554886642480,9.830592,-0.85293436,0.3824737,0.15233281,-0.010652645,0.05006743,-25.08,-38.4,-42.66
1554886642500,9.821015,-0.7954735,0.3345897,0.18109496,-0.018109497,0.015978966,-25.14,-38.46,-42.66
1554886642520,9.749189,-0.7140707,0.5069722,0.19281286,-0.020240024,-0.00958738,-25.14,-38.52,-42.66
1554886642540,9.844957,-0.6853402,0.42078096,0.18748654,-0.02876214,-0.034088463,-25.14,-38.58,-42.66
1554886642560,9.89763,-0.7428011,0.43035775,0.16298546,-0.029827405,-0.06391586,-25.14,-38.64,-42.66
1554886642580,9.969456,-0.7332243,0.5979519,0.12996227,-0.025566347000000003,-0.084155895,-25.14,-38.7,-42.66
1554886642600,9.816227,-0.7284359,0.789488,0.1107875,-0.023435817999999997,-0.10013486,-25.08,-38.76,-42.66
1554886642620,9.753978,-0.7188591,0.741604,0.10226539,-0.0063915867,-0.1107875,-25.02,-38.82,-42.72
1554886642640,9.643844999999999,-0.8194155000000001,0.789488,0.08948222,0.0063915867,-0.12037488,-24.96,-38.88,-42.72
1554886642660,9.485827,-0.7906850999999999,0.7751228,0.060720075,0.007456851,-0.128897,-24.9,-38.88,-42.78
1554886642679,9.433155000000001,-0.9343372,0.87089086,0.013848438000000001,0.002130529,-0.13528858,-24.84,-38.94,-42.84
1554886642700,9.481038999999999,-1.0013748,0.7080852,-0.027696876000000002,0.0053263223,-0.12783173,-24.78,-39.0,-42.9
1554886642720,9.500193,-1.1737574,0.6937199000000001,-0.035153727999999995,0.012783173500000002,-0.11611383,-24.78,-39.0,-42.96
1554886642740,9.600749,-1.2312181999999998,0.6218939,-0.01917476,0.023435817999999997,-0.10333065,-24.78,-39.06,-43.02
1554886642759,9.734824,-1.1737574,0.6985083000000001,0.008522116,0.023435817999999997,-0.082025364,-24.72,-39.06,-43.02
1554886642780,9.868899,-1.216853,0.64583594,0.07030745599999999,0.017044231,-0.041545313,-24.72,-39.12,-43.02
1554886642800,9.888053,-1.2934675,0.6171055000000001,0.113983296,-0.002130529,-0.012783173500000002,-24.72,-39.12,-43.02
1554886642820,9.892841,-1.1641805,0.6745663000000001,0.14487597,-0.017044231,0.0063915867,-24.66,-39.18,-43.02
1554886642840,9.902417999999999,-1.1833341999999998,0.53091425,0.15978967,-0.008522116,0.06178534,-24.66,-39.24,-43.02
1554886642860,9.868899,-1.039682,0.5835866999999999,0.14061491,0.015978966,0.10652645,-24.66,-39.3,-43.02
1554886642880,9.811439,-1.0540473,0.57400984,0.12570119999999999,0.024501082,0.15126756,-24.66,-39.42,-43.02
1554886642901,9.749189,-0.97743285,0.53570265,0.11611383,0.0010652645,0.1768339,-24.66,-39.48,-43.02
1554886642920,9.624691,-0.83378077,0.5883751,0.13315806,-0.027696876000000002,0.17363810000000002,-24.66,-39.54,-43.08
1554886642939,9.749189,-0.9343372,0.53570265,0.15978967,-0.04474111,0.15020229,-24.66,-39.6,-43.14
1554886642960,9.643844999999999,-0.7092823,0.54527944,0.18961707,-0.035153727999999995,0.10865697,-24.66,-39.66,-43.2
1554886642979,9.725247,-0.6997054,0.6937199000000001,0.21518342,-0.03089267,0.094808534,-24.66,-39.72,-43.2
1554886643000,9.753978,-0.5943606,0.6123171,0.24181503,-0.027696876000000002,0.07989483,-24.66,-39.72,-43.26
1554886643019,9.706094,-0.57041854,0.6937199000000001,0.24927188,-0.036218993,0.060720075,-24.66,-39.72,-43.2
1554886643040,9.811439,-0.7092823,0.6027403,0.2428803,-0.049002163,0.04261058,-24.66,-39.72,-43.2
1554886643060,9.782708,-0.6183026,0.3393781,0.24074976,-0.06178534,0.047936900000000005,-24.66,-39.84,-43.14
1554886643080,9.868899,-0.75237787,0.40162733,0.23009712,-0.07456851,0.056459017,-24.66,-39.9,-43.14
1554886643100,9.868899,-0.87687635,0.48303019999999997,0.19920446,-0.099069595,0.04261058,-24.6,-40.02,-43.08
1554886643120,9.610325999999999,-0.7188591,0.5835866999999999,0.15659387,-0.111852765,0.0010652645,-24.6,-40.2,-43.08
1554886643140,9.524135000000001,-0.9056068000000002,0.7224503999999999,0.10546118,-0.096939065,-0.04474111,-24.54,-40.32,-43.02
1554886643160,9.500193,-0.85293436,0.75118077,0.03089267,-0.060720075,-0.07669904,-24.48,-40.5,-43.02
1554886643180,9.840169,-1.0013748,0.7032967,-0.05752428,-0.03089267,-0.094808534,-24.48,-40.68,-43.02
1554886643200,9.92636,-1.1593921,0.7942764,-0.14274544,-0.017044231,-0.11504856,-24.42,-40.8,-43.08
1554886643219,9.883265,-1.1306617,0.75118077,-0.18002969,-0.015978966,-0.10972224,-24.42,-40.86,-43.08
1554886643239,9.782708,-1.0923545000000001,0.66020113,-0.17470337,-0.00958738,-0.07989483,-24.48,-40.92,-43.14
1554886643259,9.859323,-1.1546037,0.65062433,-0.15233281,0.011717908999999999,-0.056459017,-24.54,-40.92,-43.2
1554886643281,9.80665,-1.1115081,0.6314706999999999,-0.13954964,0.033023197000000004,-0.040480047000000005,-24.66,-40.92,-43.26
1554886643299,9.873688000000001,-1.1689690000000001,0.56443304,-0.12144015,0.027696876000000002,-0.036218993,-24.72,-40.86,-43.32
1554886643321,9.648633,-1.2072762,0.6075286999999999,-0.09161274,0.013848438000000001,-0.043675844000000005,-24.78,-40.86,-43.44
1554886643340,9.629479,-1.2120646000000002,0.48303019999999997,-0.047936900000000005,0.010652645,-0.05006743,-24.84,-40.8,-43.5
1554886643361,9.734824,-1.1546037,0.45429978,-0.007456851,0.022370555,-0.051132694000000006,-24.9,-40.68,-43.56
1554886643380,9.734824,-1.0109516,0.32501290000000005,-0.010652645,0.034088463,-0.049002163,-24.96,-40.62,-43.62
1554886643400,9.797073,-0.99179804,0.39683893,-0.04474111,0.020240024,-0.04261058,-24.96,-40.62,-43.56
1554886643420,9.854534,-0.86729956,0.5883751,-0.08841695,0.0,-0.024501082,-24.96,-40.56,-43.5
1554886643440,9.868899,-0.9008184000000001,0.43514615,-0.11611383,-0.01917476,-0.008522116,-24.96,-40.56,-43.5
1554886643460,9.753978,-1.049259,0.5883751,-0.113983296,-0.034088463,-0.00958738,-24.96,-40.56,-43.44
1554886643480,9.782708,-0.9295488000000001,0.6362591,-0.08735169,-0.03834952,-0.013848438000000001,-24.96,-40.5,-43.44
1554886643499,9.854534,-0.86251116,0.56443304,-0.06711166,-0.03834952,-0.025566347000000003,-24.96,-40.5,-43.32
1554886643519,9.715671,-0.88645315,0.7080852,-0.07882957,-0.026631612000000002,-0.040480047000000005,-24.96,-40.5,-43.32
1554886643540,9.763555,-0.83856916,0.7368156,-0.113983296,-0.010652645,-0.053263225,-24.96,-40.44,-43.2
1554886643559,9.801862,-1.0061632,0.7080852,-0.13209279,0.0,-0.06285059999999999,-24.96,-40.38,-43.2
1554886643580,9.911995,-1.0684125,0.66498953,-0.13209279,0.004261058,-0.07563378,-24.9,-40.38,-43.14
1554886643600,9.821015,-1.0636241000000002,0.56922144,-0.11717909,0.01917476,-0.08735169,-24.78,-40.32,-43.14
1554886643620,9.763555,-1.049259,0.64583594,-0.09161274,0.037284255,-0.094808534,-24.72,-40.32,-43.08
1554886643639,9.672575,-1.1354501000000001,0.6841431,-0.07456851,0.033023197000000004,-0.10013486,-24.72,-40.26,-43.02
1554886643659,9.68694,-1.0779893,0.7272388000000001,-0.033023197000000004,0.0053263223,-0.12037488,-24.72,-40.2,-43.02
1554886643681,9.667786999999999,-1.1498153,0.717662,0.010652645,-0.018109497,-0.1438107,-24.72,-40.08,-43.02
1554886643700,9.605537,-1.0540473,0.40162733,0.051132694000000006,-0.056459017,-0.17257284,-24.72,-40.02,-43.02
1554886643720,9.562441999999999,-1.0779893,0.40162733,0.07456851,-0.060720075,-0.1768339,-24.78,-39.96,-43.02
1554886643742,9.672575,-1.2072762,0.6697779,0.10013486,-0.04580637,-0.15339808,-24.78,-39.9,-43.02
1554886643760,9.677363,-1.2120646000000002,0.6841431,0.14594123,-0.025566347000000003,-0.12463594,-24.9,-39.78,-43.02
1554886643780,9.696517,-1.1258733,0.6123171,0.13741912,-0.011717908999999999,-0.10439592,-24.96,-39.72,-43.02
1554886643799,9.682152,-1.0253168,0.6218939,0.10226539,-0.00958738,-0.06711166,-25.02,-39.66,-43.14
1554886643819,9.868899,-1.0684125,0.7128736,0.083090626,-0.026631612000000002,-0.024501082,-25.02,-39.66,-43.26
1554886643839,10.127473,-1.2360066,0.66020113,0.08948222,-0.024501082,0.008522116,-25.02,-39.72,-43.32
1554886643860,10.036493,-0.98700964,0.56443304,0.12037488,-0.002130529,0.026631612000000002,-25.02,-39.84,-43.44
1554886643880,10.04607,-1.0157399999999999,0.52133745,0.14168017,0.017044231,0.04580637,-25.02,-39.96,-43.5
1554886643899,9.892841,-0.76195467,0.66020113,0.16085494,0.041545313,0.08948222,-25.02,-40.08,-43.56
1554886643919,9.844957,-0.7763199000000001,0.5883751,0.15765914,0.03834952,0.101200126,-25.08,-40.2,-43.62
1554886643940,9.744401,-0.7332243,0.5979519,0.14168017,0.02130529,0.10546118,-25.08,-40.32,-43.68
1554886643959,9.816227,-0.66618663,0.38726214,0.11717909,0.017044231,0.111852765,-25.08,-40.5,-43.62
1554886643979,9.691728999999999,-0.52253455,0.40641573,0.06178534,0.024501082,0.11717909,-25.08,-40.62,-43.56
1554886644000,9.500193,-0.52253455,0.3633201,-0.008522116,0.03834952,0.111852765,-25.14,-40.68,-43.5
1554886644020,9.615114,-0.6422445999999999,0.44472298,-0.040480047000000005,0.033023197000000004,0.098004326,-25.14,-40.74,-43.5
1554886644040,9.653421,-0.7715314999999999,0.3824737,-0.023435817999999997,0.004261058,0.06285059999999999,-25.14,-40.8,-43.44
1554886644060,9.80665,-0.7140707,0.49739540000000004,0.029827405,-0.022370555,0.014913702,-25.08,-40.8,-43.44
1554886644080,9.873688000000001,-0.7140707,0.24361002,0.084155895,-0.025566347000000003,-0.03089267,-25.02,-40.86,-43.38
1554886644100,9.797073,-0.55126494,0.43035775,0.1107875,-0.022370555,-0.060720075,-25.02,-40.92,-43.38
1554886644120,9.830592,-0.55605334,0.57400984,0.08948222,-0.023435817999999997,-0.06391586,-24.96,-40.98,-43.38
1554886644140,9.739613,-0.66139823,0.6841431,0.037284255,-0.03089267,-0.060720075,-24.9,-41.04,-43.32
1554886644159,9.854534,-0.6374562,0.5883751,-0.02876214,-0.033023197000000004,-0.058589544,-24.84,-41.04,-43.32
1554886644180,9.782708,-0.64703304,0.6697779,-0.099069595,-0.02130529,-0.06391586,-24.78,-41.04,-43.32
1554886644201,9.787497,-0.7284359,0.7128736,-0.15978967,-0.002130529,-0.07137272,-24.78,-41.1,-43.26
1554886644220,9.80665,-0.9056068000000002,0.6745663000000001,-0.19068234,0.007456851,-0.08841695,-24.78,-41.1,-43.26
1554886644240,9.77792,-0.88166475,0.84694886,-0.19600865,0.011717908999999999,-0.10013486,-24.72,-41.1,-43.26
1554886644260,9.667786999999999,-0.85293436,0.75118077,-0.18216023,0.012783173500000002,-0.111852765,-24.72,-41.04,-43.26
1554886644280,9.739613,-0.96785605,0.6027403,-0.16405073,0.007456851,-0.11824436,-24.72,-40.98,-43.2
1554886644300,9.600749,-1.0540473,0.6314706999999999,-0.13315806,0.007456851,-0.128897,-24.72,-40.92,-43.26
1554886644320,9.615114,-1.0444705,0.52133745,-0.10972224,0.00958738,-0.13315806,-24.72,-40.92,-43.26
1554886644339,9.591172,-1.1115081,0.4878186,-0.08735169,0.011717908999999999,-0.13315806,-24.72,-40.86,-43.26
1554886644359,9.634267999999999,-1.1546037,0.5021838,-0.07137272,0.0063915867,-0.13102753,-24.72,-40.8,-43.32
1554886644380,9.65821,-1.073201,0.49260699999999996,-0.06285059999999999,-0.0031957934000000003,-0.12144015,-24.72,-40.74,-43.32
1554886644400,9.787497,-1.1306617,0.45429978,-0.05965481,-0.018109497,-0.09267801,-24.78,-40.62,-43.38
1554886644420,9.840169,-1.1354501000000001,0.43993455,-0.05752428,-0.01917476,-0.05965481,-24.78,-40.5,-43.32
1554886644440,9.816227,-1.0348936,0.57400984,-0.047936900000000005,-0.029827405,-0.02876214,-24.78,-40.44,-43.32
1554886644459,9.859323,-1.1067197,0.6314706999999999,-0.024501082,-0.03834952,0.014913702,-24.84,-40.32,-43.26
1554886644480,9.940725,-1.073201,0.56443304,0.013848438000000001,-0.039414786,0.056459017,-24.84,-40.14,-43.2
1554886644500,9.868899,-1.0061632,0.54049104,0.03089267,-0.03089267,0.07776430000000001,-24.78,-40.02,-43.14
1554886644519,9.792285000000001,-0.9008184000000001,0.5931635000000001,0.03195793,-0.027696876000000002,0.08735169,-24.78,-39.96,-43.08
1554886644540,9.758766,-0.8242039000000001,0.5069722,0.017044231,-0.027696876000000002,0.096939065,-24.78,-39.78,-43.08
1554886644560,9.734824,-0.83856916,0.45908818,-0.0031957934000000003,-0.029827405,0.09587380000000001,-24.78,-39.78,-43.02
1554886644580,9.753978,-0.7715314999999999,0.74639237,-0.018109497,-0.02876214,0.080960095,-24.84,-39.78,-43.02
1554886644600,9.801862,-0.7858967,0.6314706999999999,-0.01917476,-0.023435817999999997,0.054328485999999995,-24.84,-39.78,-43.02
1554886644620,9.758766,-0.83378077,0.40162733,-0.012783173500000002,-0.013848438000000001,0.024501082,-24.84,-39.84,-43.02
1554886644640,9.682152,-0.76195467,0.54049104,-0.0053263223,-0.012783173500000002,-0.007456851,-24.84,-39.84,-43.02
1554886644659,9.801862,-0.8146270999999999,0.53091425,-0.0031957934000000003,-0.012783173500000002,-0.039414786,-24.84,-39.9,-42.96
1554886644680,9.830592,-0.7906850999999999,0.47824179999999994,-0.0031957934000000003,-0.014913702,-0.06178534,-24.84,-39.9,-42.96
1554886644700,9.821015,-0.82899237,0.5931635000000001,-0.0063915867,-0.015978966,-0.07243799,-24.84,-39.96,-42.9
1554886644720,9.710882000000002,-0.98700964,0.5069722,-0.004261058,-0.024501082,-0.07776430000000001,-24.78,-40.02,-42.9
1554886644739,9.753978,-1.0157399999999999,0.56443304,0.004261058,-0.022370555,-0.07882957,-24.78,-40.08,-42.9
1554886644759,9.811439,-0.87208796,0.5835866999999999,0.013848438000000001,-0.011717908999999999,-0.07137272,-24.72,-40.14,-42.9
1554886644780,9.763555,-0.9295488000000001,0.55964464,0.014913702,0.0,-0.05219796,-24.72,-40.2,-42.9
1554886644800,9.758766,-0.9056068000000002,0.54049104,-0.002130529,0.011717908999999999,-0.029827405,-24.66,-40.26,-42.9
1554886644819,9.763555,-0.9199719999999999,0.56922144,-0.015978966,0.013848438000000001,-0.015978966,-24.66,-40.32,-42.9
1554886644839,9.763555,-0.8050503000000001,0.65541273,-0.03089267,0.015978966,-0.002130529,-24.66,-40.38,-42.9
1554886644860,9.763555,-0.95349085,0.40641573,-0.02876214,0.0063915867,0.002130529,-24.66,-40.44,-42.9
1554886644880,9.749189,-0.96306765,0.49739540000000004,-0.008522116,0.0063915867,-0.00958738,-24.72,-40.38,-42.9
1554886644900,9.744401,-0.9199719999999999,0.45429978,0.022370555,0.004261058,-0.025566347000000003,-24.72,-40.38,-42.96
1554886644919,9.749189,-0.9343372,0.3441665,0.05965481,-0.0031957934000000003,-0.035153727999999995,-24.78,-40.38,-43.02
1554886644939,9.763555,-0.9487024,0.6075286999999999,0.094808534,-0.018109497,-0.043675844000000005,-24.78,-40.32,-43.02
1554886644959,9.768343,-0.95349085,0.45908818,0.12570119999999999,-0.03195793,-0.051132694000000006,-24.84,-40.32,-43.08
1554886644980,9.844957,-0.9247603999999999,0.3776853,0.13848437,-0.03195793,-0.05006743,-24.84,-40.26,-43.14
1554886644999,9.758766,-0.7954735,0.46387658,0.11930962,-0.023435817999999997,-0.03834952,-24.84,-40.2,-43.14
1554886645020,9.691728999999999,-0.7954735,0.45429978,0.06391586,-0.008522116,-0.017044231,-24.84,-40.2,-43.2
1554886645040,9.744401,-0.87687635,0.6889314999999999,0.00958738,-0.011717908999999999,0.0010652645,-24.84,-40.2,-43.2
1554886645060,9.667786999999999,-0.8960299999999999,0.55485624,-0.023435817999999997,-0.023435817999999997,0.0053263223,-24.84,-40.2,-43.2
1554886645080,9.763555,-0.84335756,0.75596917,-0.026631612000000002,-0.024501082,0.0010652645,-24.84,-40.2,-43.2
1554886645099,9.840169,-0.8194155000000001,0.5069722,-0.01917476,-0.004261058,-0.00958738,-24.84,-40.2,-43.2
1554886645120,9.888053,-0.75716627,0.66020113,-0.018109497,0.022370555,-0.020240024,-24.84,-40.26,-43.14
1554886645140,9.840169,-0.7811083000000001,0.5979519,-0.03195793,0.033023197000000004,-0.025566347000000003,-24.84,-40.32,-43.08
1554886645160,9.840169,-0.7906850999999999,0.6171055000000001,-0.05965481,0.037284255,-0.029827405,-24.84,-40.32,-43.08
1554886645180,9.868899,-0.9008184000000001,0.49739540000000004,-0.08735169,0.039414786,-0.03089267,-24.84,-40.38,-43.02
1554886645200,9.730036,-0.88645315,0.5883751,-0.10439592,0.039414786,-0.033023197000000004,-24.78,-40.38,-43.02
1554886645222,9.749189,-0.9391255999999999,0.49260699999999996,-0.09374327,0.033023197000000004,-0.03089267,-24.72,-40.32,-42.96
1554886645239,9.672575,-1.0588357,0.55006784,-0.080960095,0.027696876000000002,-0.03089267,-24.72,-40.26,-42.96
1554886645260,9.68694,-1.1833341999999998,0.53570265,-0.05752428,0.014913702,-0.03195793,-24.66,-40.26,-42.96
1554886645279,9.792285000000001,-1.0779893,0.6314706999999999,-0.014913702,0.0010652645,-0.035153727999999995,-24.66,-40.2,-42.9
1554886645300,9.801862,-1.1115081,0.46866497,0.024501082,-0.0063915867,-0.034088463,-24.66,-40.2,-42.96
1554886645319,9.763555,-0.9103952,0.6745663000000001,0.036218993,0.0,-0.025566347000000003,-24.66,-40.14,-43.02
1554886645340,9.739613,-0.9487024,0.55006784,0.022370555,0.00958738,-0.007456851,-24.72,-40.08,-43.02
1554886645360,9.749189,-0.9439139999999999,0.75118077,0.007456851,0.0031957934000000003,0.00958738,-24.72,-40.08,-43.08
1554886645379,9.701305,-1.0348936,0.7272388000000001,0.007456851,-0.010652645,0.0063915867,-24.78,-40.02,-43.14
1554886645400,9.80665,-1.0348936,0.47824179999999994,0.03089267,-0.00958738,-0.004261058,-24.84,-40.02,-43.14
1554886645420,9.763555,-1.0684125,0.6937199000000001,0.053263225,0.010652645,-0.004261058,-24.84,-40.02,-43.14
1554886645440,9.643844999999999,-0.9487024,0.56922144,0.07669904,0.037284255,0.013848438000000001,-24.9,-39.96,-43.14
1554886645460,9.706094,-0.9295488000000001,0.6889314999999999,0.07030745599999999,0.040480047000000005,0.029827405,-24.96,-39.9,-43.14
1554886645480,9.744401,-0.97743285,0.6171055000000001,0.047936900000000005,0.025566347000000003,0.03834952,-24.96,-39.9,-43.08
1554886645499,9.835381,-0.84335756,0.47824179999999994,0.024501082,0.012783173500000002,0.029827405,-24.96,-39.9,-43.02
1554886645520,9.811439,-0.9247603999999999,0.39683893,0.013848438000000001,0.017044231,0.027696876000000002,-24.96,-39.9,-42.96
1554886645540,9.753978,-0.96306765,0.56443304,0.017044231,0.025566347000000003,0.027696876000000002,-24.96,-39.9,-42.9
1554886645559,9.816227,-0.9487024,0.66498953,0.027696876000000002,0.020240024,0.025566347000000003,-24.96,-39.96,-42.9
1554886645579,9.773131,-0.9199719999999999,0.65062433,0.035153727999999995,-0.0010652645,0.017044231,-24.9,-39.96,-42.9
1554886645601,9.749189,-0.87687635,0.6410475,0.05006743,-0.0053263223,0.010652645,-24.9,-40.02,-42.9
1554886645620,9.734824,-0.82899237,0.47824179999999994,0.07350325,0.0053263223,0.013848438000000001,-24.84,-40.02,-42.9
1554886645640,9.715671,-0.7044938000000001,0.717662,0.083090626,0.007456851,0.015978966,-24.78,-40.02,-42.9
1554886645659,9.615114,-0.75716627,0.54049104,0.06604639400000001,-0.002130529,0.0053263223,-24.78,-40.02,-42.9
1554886645679,9.615114,-0.7044938000000001,0.6171055000000001,0.033023197000000004,-0.017044231,-0.007456851,-24.72,-40.02,-42.9
1554886645700,9.696517,-0.7428011,0.52133745,0.0010652645,-0.022370555,-0.022370555,-24.66,-40.02,-42.9
1554886645719,9.835381,-0.7332243,0.75118077,-0.036218993,-0.022370555,-0.05006743,-24.66,-40.02,-42.9
1554886645739,9.849746000000001,-0.86251116,0.6171055000000001,-0.07563378,-0.013848438000000001,-0.07776430000000001,-24.6,-39.96,-42.9
1554886645760,9.844957,-0.84814596,0.6123171,-0.10333065,0.0,-0.08735169,-24.6,-39.96,-42.9
1554886645779,9.907207000000001,-1.0157399999999999,0.66498953,-0.10972224,0.008522116,-0.08522116,-24.6,-39.9,-42.9
1554886645799,9.907207000000001,-1.049259,0.66498953,-0.12357068,0.01917476,-0.06604639400000001,-24.6,-39.84,-42.9
1554886645821,9.739613,-0.9247603999999999,0.6171055000000001,-0.1587244,0.024501082,-0.047936900000000005,-24.66,-39.84,-42.84
1554886645841,9.667786999999999,-0.88166475,0.6745663000000001,-0.21518342,0.036218993,-0.011717908999999999,-24.66,-39.78,-42.84
1554886645859,9.643844999999999,-0.9487024,0.6697779,-0.27696875,0.03834952,0.018109497,-24.66,-39.72,-42.78
1554886645880,9.65821,-1.0588357,0.7751228,-0.314253,0.02876214,0.02876214,-24.66,-39.66,-42.78
1554886645900,9.557653,-1.0588357,0.66020113,-0.31212249999999997,0.022370555,0.01917476,-24.66,-39.54,-42.72
1554886645920,9.662998,-1.1067197,0.6697779,-0.2695119,0.014913702,0.002130529,-24.66,-39.48,-42.66
1554886645940,9.595961,-1.2072762,0.5069722,-0.21944448,0.014913702,-0.01917476,-24.66,-39.36,-42.66
1554886645960,9.710882000000002,-1.2216414,0.4878186,-0.18429075,0.00958738,-0.043675844000000005,-24.66,-39.24,-42.66
1554886645980,9.734824,-1.192911,0.5069722,-0.15552860000000002,-0.002130529,-0.06285059999999999,-24.66,-39.0,-42.66
1554886646000,9.849746000000001,-1.2838906,0.57400984,-0.12037488,-0.02130529,-0.07669904,-24.66,-38.82,-42.66
1554886646019,9.80665,-1.3557166999999999,0.4878186,-0.07989483,-0.040480047000000005,-0.080960095,-24.66,-38.64,-42.66
1554886646039,9.859323,-1.3509283,0.4878186,-0.026631612000000002,-0.05006743,-0.07776430000000001,-24.66,-38.46,-42.66
1554886646060,9.706094,-1.417966,0.64583594,0.02876214,-0.05539375,-0.07456851,-24.66,-38.28,-42.66
1554886646079,9.677363,-1.4323312,0.6410475,0.07882957,-0.056459017,-0.068176925,-24.6,-38.1,-42.66
1554886646099,9.739613,-1.3652935,0.6985083000000001,0.12676647,-0.05539375,-0.05965481,-24.54,-38.04,-42.66
1554886646121,9.773131,-1.2695253999999998,0.789488,0.16405073,-0.047936900000000005,-0.049002163,-24.54,-38.04,-42.66
1554886646140,9.68694,-1.2264298,0.6889314999999999,0.18429075,-0.02876214,-0.037284255,-24.48,-38.04,-42.66
1554886646160,9.801862,-1.216853,0.6362591,0.19281286,-0.01917476,-0.017044231,-24.48,-38.1,-42.72
1554886646180,9.878476,-1.0923545000000001,0.7080852,0.19387813,-0.007456851,0.004261058,-24.48,-38.16,-42.72
1554886646200,9.825804,-1.1641805,0.6745663000000001,0.18216023,0.0031957934000000003,0.024501082,-24.42,-38.22,-42.72
1554886646219,9.773131,-0.98700964,0.6123171,0.16405073,0.012783173500000002,0.039414786,-24.48,-38.34,-42.66
1554886646240,9.701305,-0.99658644,0.6218939,0.14913702,0.012783173500000002,0.047936900000000005,-24.48,-38.4,-42.66
1554886646260,9.701305,-0.87208796,0.3585317,0.12783173,0.012783173500000002,0.05539375,-24.54,-38.52,-42.6
1554886646280,9.720459,-0.8242039000000001,0.49260699999999996,0.10652645,0.007456851,0.053263225,-24.54,-38.58,-42.54
1554886646300,9.624691,-0.86251116,0.43993455,0.09054748,-0.0031957934000000003,0.047936900000000005,-24.54,-38.7,-42.54
1554886646320,9.773131,-0.8242039000000001,0.57400984,0.083090626,-0.025566347000000003,0.037284255,-24.54,-38.82,-42.48
1554886646340,9.840169,-0.88645315,0.24361002,0.083090626,-0.035153727999999995,0.017044231,-24.54,-38.94,-42.48
1554886646360,9.782708,-0.87687635,0.44951138,0.08841695,-0.04474111,-0.0063915867,-24.54,-39.06,-42.48
1554886646380,9.797073,-0.83378077,0.46387658,0.09587380000000001,-0.046871635999999994,-0.03089267,-24.54,-39.18,-42.54
1554886646399,9.758766,-0.84814596,0.5931635000000001,0.09267801,-0.047936900000000005,-0.04580637,-24.54,-39.18,-42.54
1554886646420,9.749189,-0.84335756,0.6745663000000001,0.068176925,-0.053263225,-0.06924219,-24.48,-39.18,-42.6
1554886646439,9.734824,-0.84814596,0.741604,0.039414786,-0.053263225,-0.082025364,-24.54,-39.18,-42.66
1554886646460,9.744401,-0.8960299999999999,0.717662,0.0053263223,-0.036218993,-0.082025364,-24.54,-39.12,-42.72
1554886646479,9.792285000000001,-1.0013748,0.8086416000000001,-0.014913702,-0.023435817999999997,-0.07882957,-24.6,-39.06,-42.78
1554886646500,9.753978,-1.0205284,0.84216046,-0.040480047000000005,0.002130529,-0.07137272,-24.66,-39.06,-42.84
1554886646520,9.610325999999999,-1.1498153,0.6697779,-0.05006743,0.013848438000000001,-0.06711166,-24.66,-39.0,-42.96
1554886646540,9.605537,-1.1976993999999999,0.5979519,-0.049002163,0.014913702,-0.06498113,-24.66,-39.0,-43.02
1554886646559,9.677363,-1.1402385,0.6697779,-0.037284255,0.010652645,-0.07137272,-24.66,-39.0,-43.08
1554886646580,9.691728999999999,-1.1737574,0.55964464,-0.015978966,0.0053263223,-0.07776430000000001,-24.72,-39.0,-43.08
1554886646599,9.672575,-1.2886791000000002,0.4878186,0.00958738,-0.008522116,-0.084155895,-24.66,-39.0,-43.08
1554886646620,9.749189,-1.2743138,0.47824179999999994,0.04261058,-0.025566347000000003,-0.083090626,-24.66,-39.06,-43.02
1554886646640,9.792285000000001,-1.192911,0.38726214,0.07669904,-0.04261058,-0.07243799,-24.6,-39.06,-43.02
1554886646659,9.830592,-1.192911,0.45908818,0.10759171,-0.056459017,-0.054328485999999995,-24.66,-39.18,-42.96
1554886646680,9.902417999999999,-1.2072762,0.47824179999999994,0.13209279,-0.068176925,-0.02876214,-24.66,-39.3,-42.9
1554886646699,9.840169,-1.1019313,0.6218939,0.13741912,-0.06924219,-0.0063915867,-24.72,-39.42,-42.84
1554886646720,9.77792,-1.049259,0.5931635000000001,0.12676647,-0.06711166,0.011717908999999999,-24.72,-39.54,-42.9
1554886646740,9.77792,-1.0348936,0.7272388000000001,0.10546118,-0.06285059999999999,0.024501082,-24.78,-39.66,-42.9
1554886646760,9.763555,-0.9103952,0.53570265,0.080960095,-0.05539375,0.034088463,-24.84,-39.78,-42.96
1554886646780,9.840169,-0.8912416,0.66498953,0.058589544,-0.035153727999999995,0.041545313,-24.84,-39.84,-42.96
1554886646800,9.80665,-0.86729956,0.7846996,0.037284255,-0.020240024,0.04474111,-24.9,-39.9,-42.96
1554886646819,9.763555,-0.87687635,0.7128736,0.023435817999999997,-0.010652645,0.04261058,-24.84,-39.9,-43.02
1554886646840,9.801862,-0.8960299999999999,0.46387658,0.018109497,-0.0031957934000000003,0.036218993,-24.84,-39.9,-43.02
1554886646860,9.797073,-0.83378077,0.49739540000000004,0.018109497,0.0031957934000000003,0.027696876000000002,-24.84,-39.84,-43.02
1554886646881,9.782708,-0.96306765,0.44951138,0.014913702,0.0053263223,0.017044231,-24.84,-39.78,-42.96
1554886646899,9.80665,-0.9391255999999999,0.6410475,0.0063915867,0.0031957934000000003,0.004261058,-24.84,-39.72,-42.96
1554886646920,9.892841,-1.0348936,0.54049104,0.0,-0.0031957934000000003,-0.007456851,-24.78,-39.66,-42.9
1554886646940,10.007763,-0.95349085,0.5069722,0.004261058,0.0053263223,-0.015978966,-24.72,-39.66,-42.9
1554886646960,9.931149000000001,-0.9295488000000001,0.43993455,-0.0031957934000000003,0.027696876000000002,-0.018109497,-24.72,-39.66,-42.9
1554886646979,9.68694,-0.8050503000000001,0.41120413,-0.023435817999999997,0.046871635999999994,-0.012783173500000002,-24.72,-39.6,-42.9
1554886647000,9.375694000000001,-0.82899237,0.5069722,-0.07350325,0.053263225,-0.0010652645,-24.72,-39.6,-42.9
1554886647020,9.490616000000001,-0.97743285,0.43035775,-0.10652645,0.03089267,-0.008522116,-24.72,-39.6,-42.9
1554886647040,9.576807,-1.0157399999999999,0.5979519,-0.13102753,0.002130529,-0.034088463,-24.72,-39.66,-42.96
1554886647060,9.68694,-1.0061632,0.56922144,-0.11504856,-0.011717908999999999,-0.054328485999999995,-24.72,-39.66,-43.08
1554886647079,9.624691,-1.0636241000000002,0.43993455,-0.06178534,-0.0053263223,-0.06711166,-24.72,-39.66,-43.14
1554886647100,9.763555,-1.039682,0.5117606,-0.03195793,-0.0010652645,-0.07882957,-24.66,-39.66,-43.14
1554886647120,9.648633,-1.039682,0.46387658,-0.01917476,-0.014913702,-0.08841695,-24.66,-39.6,-43.2
1554886647140,9.787497,-1.1210848999999998,0.6027403,-0.01917476,-0.036218993,-0.08628642,-24.66,-39.54,-43.26
1554886647159,9.883265,-1.1737574,0.7032967,-0.026631612000000002,-0.03834952,-0.07350325,-24.6,-39.54,-43.26
1554886647179,9.844957,-1.2120646000000002,0.8182184,-0.023435817999999997,-0.022370555,-0.06285059999999999,-24.66,-39.48,-43.26
1554886647199,9.859323,-1.1641805,0.8038531999999999,-0.020240024,-0.0031957934000000003,-0.04580637,-24.66,-39.42,-43.26
1554886647219,9.854534,-1.1402385,0.75596917,-0.022370555,0.012783173500000002,-0.03089267,-24.66,-39.42,-43.2
1554886647239,9.768343,-1.1402385,0.6314706999999999,-0.04474111,0.022370555,-0.007456851,-24.72,-39.42,-43.14
1554886647260,9.77792,-1.1498153,0.56443304,-0.06391586,0.023435817999999997,0.0,-24.72,-39.42,-43.08
1554886647280,9.825804,-1.2982559,0.6985083000000001,-0.049002163,0.026631612000000002,0.0,-24.72,-39.42,-43.02
1554886647300,9.80665,-1.1641805,0.5117606,-0.01917476,0.036218993,0.004261058,-24.72,-39.42,-43.02
1554886647320,9.797073,-1.1115081,0.43514615,0.012783173500000002,0.053263225,0.013848438000000001,-24.72,-39.42,-42.96
1554886647339,9.792285000000001,-1.0540473,0.55485624,0.010652645,0.053263225,0.020240024,-24.72,-39.48,-42.96
1554886647360,9.710882000000002,-1.0540473,0.54049104,-0.0063915867,0.03089267,0.011717908999999999,-24.66,-39.42,-42.96
1554886647380,9.581595,-0.9391255999999999,0.44951138,-0.011717908999999999,0.024501082,0.004261058,-24.66,-39.42,-42.9
1554886647400,9.610325999999999,-0.8912416,0.49739540000000004,-0.008522116,0.025566347000000003,0.0063915867,-24.6,-39.36,-42.9
1554886647419,9.504980999999999,-1.073201,0.6123171,0.015978966,0.013848438000000001,-0.002130529,-24.54,-39.36,-42.9
1554886647440,9.591172,-1.0109516,0.56443304,0.037284255,-0.00958738,-0.027696876000000002,-24.54,-39.3,-42.9
1554886647460,9.643844999999999,-1.0444705,0.6027403,0.06604639400000001,-0.041545313,-0.06285059999999999,-24.48,-39.24,-42.84
1554886647479,9.753978,-1.073201,0.55964464,0.10759171,-0.056459017,-0.08628642,-24.48,-39.24,-42.78
1554886647500,9.763555,-1.2120646000000002,0.53091425,0.15552860000000002,-0.036218993,-0.096939065,-24.42,-39.18,-42.78
1554886647519,9.710882000000002,-1.0779893,0.5931635000000001,0.17470337,0.0010652645,-0.07350325,-24.42,-39.18,-42.72
1554886647540,9.763555,-1.0444705,0.6075286999999999,0.13422333,0.012783173500000002,-0.037284255,-24.42,-39.18,-42.72
1554886647559,9.739613,-1.1498153,0.87089086,0.06285059999999999,0.0,-0.018109497,-24.48,-39.18,-42.78
1554886647579,9.744401,-1.0444705,0.6362591,-0.008522116,-0.0031957934000000003,0.011717908999999999,-24.48,-39.18,-42.84
1554886647600,9.945514,-1.0109516,0.5165489999999999,-0.03834952,0.03195793,0.05539375,-24.48,-39.24,-42.84
1554886647620,9.749189,-1.1737574,0.6218939,-0.03834952,0.053263225,0.096939065,-24.54,-39.24,-42.96
1554886647640,9.816227,-1.1306617,0.6027403,-0.035153727999999995,0.035153727999999995,0.098004326,-24.66,-39.3,-43.02
1554886647660,9.80665,-1.0061632,0.44472298,-0.023435817999999997,0.00958738,0.06924219,-24.78,-39.36,-43.08
1554886647679,9.739613,-0.86729956,0.38726214,-0.0031957934000000003,0.00958738,0.07456851,-24.84,-39.42,-43.14
1554886647699,9.672575,-0.9199719999999999,0.26276365,0.035153727999999995,0.013848438000000001,0.07456851,-24.9,-39.42,-43.26
1554886647720,9.600749,-0.7811083000000001,0.3298013,0.058589544,-0.0063915867,0.06924219,-24.96,-39.42,-43.26
1554886647740,9.562441999999999,-0.7906850999999999,0.53091425,0.06391586,-0.039414786,0.043675844000000005,-25.02,-39.42,-43.2
1554886647760,9.730036,-0.65660983,0.5979519,0.060720075,-0.07137272,0.004261058,-25.08,-39.36,-43.2
1554886647779,9.801862,-0.7044938000000001,0.5931635000000001,0.053263225,-0.083090626,-0.040480047000000005,-25.08,-39.3,-43.14
1554886647799,9.950302,-0.7236475,0.65062433,0.03195793,-0.07669904,-0.083090626,-25.02,-39.3,-43.14
1554886647820,9.902417999999999,-0.84814596,0.8230068000000001,-0.00958738,-0.054328485999999995,-0.11717909,-24.9,-39.24,-43.08
1554886647840,9.80665,-0.7332243,0.8086416000000001,-0.05539375,-0.036218993,-0.12250541,-24.78,-39.18,-43.08
1554886647861,9.797073,-0.9103952,0.8948328999999999,-0.10439592,-0.00958738,-0.10972224,-24.66,-39.18,-43.02
1554886647880,9.811439,-0.9199719999999999,0.7751228,-0.16937704,0.007456851,-0.10546118,-24.6,-39.18,-43.02
1554886647900,9.552864999999999,-0.9056068000000002,0.6027403,-0.21518342,-0.007456851,-0.10972224,-24.48,-39.18,-43.02
1554886647920,9.648633,-1.1115081,0.6410475,-0.2130529,-0.0053263223,-0.09161274,-24.42,-39.24,-42.96
1554886647940,9.734824,-1.1689690000000001,0.52133745,-0.18109496,0.00958738,-0.1107875,-24.42,-39.24,-42.96
1554886647959,9.610325999999999,-1.1976993999999999,0.54049104,-0.14807177,0.01917476,-0.13741912,-24.42,-39.24,-42.96
1554886647980,9.600749,-1.2360066,0.49739540000000004,-0.12996227,0.00958738,-0.16085494,-24.48,-39.3,-42.96
1554886648000,9.706094,-1.3221979,0.55006784,-0.12570119999999999,-0.01917476,-0.16831179,-24.6,-39.3,-42.96
1554886648019,9.797073,-1.3413515,0.6985083000000001,-0.10439592,-0.03834952,-0.16831179,-24.66,-39.3,-42.96
1554886648039,9.720459,-1.4227544,0.75118077,-0.058589544,-0.043675844000000005,-0.14913702,-24.72,-39.3,-42.9
1554886648059,9.734824,-1.4706384,0.4878186,-0.010652645,-0.027696876000000002,-0.10759171,-24.78,-39.24,-42.9
1554886648079,9.682152,-1.2982559,0.75118077,0.018109497,-0.010652645,-0.054328485999999995,-24.78,-39.24,-42.84
1554886648099,9.77792,-1.264737,0.56443304,0.008522116,-0.008522116,-0.0031957934000000003,-24.78,-39.18,-42.84
1554886648120,9.682152,-1.2934675,0.5117606,-0.00958738,-0.020240024,0.034088463,-24.78,-39.18,-42.78
1554886648140,9.77792,-1.2743138,0.717662,-0.0010652645,-0.024501082,0.05752428,-24.78,-39.12,-42.78
1554886648159,9.878476,-1.2264298,0.64583594,0.041545313,-0.024501082,0.05219796,-24.78,-39.12,-42.72
1554886648179,9.964667,-1.2551602,0.57400984,0.112918034,-0.012783173500000002,0.03195793,-24.78,-39.06,-42.72
1554886648199,9.902417999999999,-1.1689690000000001,0.66020113,0.19281286,-0.004261058,0.00958738,-24.84,-39.06,-42.72
1554886648220,9.89763,-1.0253168,0.6697779,0.25353295,0.0010652645,0.0031957934000000003,-24.84,-39.0,-42.72
1554886648240,9.849746000000001,-0.8912416,0.6745663000000001,0.27377295,0.00958738,0.011717908999999999,-24.84,-38.94,-42.72
1554886648260,9.830592,-0.8098387,0.6027403,0.27057716,0.013848438000000001,0.013848438000000001,-24.96,-38.94,-42.72
1554886648280,9.739613,-0.7858967,0.55485624,0.24820662,0.02130529,0.02130529,-24.96,-38.94,-42.72
1554886648299,9.749189,-0.7763199000000001,0.47824179999999994,0.221575,0.023435817999999997,0.020240024,-25.02,-38.94,-42.78
1554886648319,9.730036,-0.75716627,0.6410475,0.18748654,0.00958738,0.015978966,-25.08,-39.0,-42.84
1554886648339,9.701305,-0.7715314999999999,0.6027403,0.16724652,0.007456851,0.010652645,-25.08,-39.06,-42.9
1554886648359,9.763555,-0.7188591,0.5883751,0.12996227,0.010652645,0.0,-25.14,-39.12,-43.02
1554886648380,9.691728999999999,-0.66618663,0.4878186,0.07776430000000001,0.027696876000000002,-0.00958738,-25.14,-39.18,-43.14
1554886648400,9.758766,-0.83378077,0.4878186,0.035153727999999995,0.033023197000000004,-0.020240024,-25.2,-39.3,-43.2
1554886648420,9.710882000000002,-0.8098387,0.66498953,0.002130529,0.023435817999999997,-0.03834952,-25.14,-39.42,-43.26
1554886648439,9.720459,-0.86729956,0.44472298,-0.00958738,0.011717908999999999,-0.05539375,-25.14,-39.54,-43.32
1554886648460,9.825804,-0.9391255999999999,0.5931635000000001,-0.010652645,0.0053263223,-0.068176925,-25.14,-39.6,-43.38
1554886648480,9.821015,-0.8960299999999999,0.39205053,-0.0010652645,0.0063915867,-0.07243799,-25.08,-39.66,-43.32
1554886648500,9.739613,-0.9439139999999999,0.741604,0.008522116,0.0063915867,-0.07243799,-25.08,-39.66,-43.26
1554886648519,9.816227,-0.87687635,0.45908818,0.00958738,0.0031957934000000003,-0.068176925,-25.08,-39.72,-43.14
1554886648539,9.888053,-0.96306765,0.57400984,0.002130529,0.007456851,-0.058589544,-25.02,-39.78,-43.08
1554886648560,9.763555,-0.95827925,0.57400984,-0.01917476,0.007456851,-0.05006743,-25.02,-39.78,-42.96
1554886648579,9.758766,-0.9008184000000001,0.75118077,-0.049002163,0.011717908999999999,-0.040480047000000005,-25.02,-39.84,-42.9
1554886648600,9.763555,-0.9103952,0.717662,-0.082025364,0.013848438000000001,-0.035153727999999995,-25.08,-39.9,-42.84
1554886648619,9.720459,-1.0157399999999999,0.49260699999999996,-0.10546118,0.020240024,-0.029827405,-25.08,-39.9,-42.78
1554886648639,9.696517,-0.9247603999999999,0.65541273,-0.101200126,0.02130529,-0.025566347000000003,-25.08,-39.96,-42.78
1554886648660,9.749189,-0.96306765,0.789488,-0.08522116,0.022370555,-0.022370555,-25.02,-40.02,-42.72
1554886648680,9.682152,-1.0348936,0.7368156,-0.06498113,0.024501082,-0.025566347000000003,-24.96,-40.08,-42.78
1554886648700,9.720459,-1.049259,0.48303019999999997,-0.051132694000000006,0.027696876000000002,-0.027696876000000002,-24.84,-40.08,-42.84
1554886648719,9.773131,-0.83856916,0.5979519,-0.053263225,0.029827405,-0.03089267,-24.72,-40.14,-42.9
1554886648740,9.835381,-0.9391255999999999,0.57400984,-0.07776430000000001,0.029827405,-0.035153727999999995,-24.72,-40.14,-42.96
1554886648760,9.715671,-0.8098387,0.6075286999999999,-0.112918034,0.023435817999999997,-0.034088463,-24.6,-40.14,-43.02
1554886648779,9.701305,-0.88166475,0.741604,-0.13741912,0.00958738,-0.033023197000000004,-24.54,-40.08,-43.08
1554886648799,9.763555,-1.0205284,0.53570265,-0.12463594,-0.014913702,-0.037284255,-24.54,-40.02,-43.08
1554886648819,9.811439,-0.9343372,0.6697779,-0.08841695,-0.02130529,-0.05219796,-24.54,-39.96,-43.08
1554886648840,9.725247,-0.99179804,0.6745663000000001,-0.05006743,-0.010652645,-0.06711166,-24.54,-39.96,-43.08
1554886648859,9.730036,-0.82899237,0.84216046,-0.026631612000000002,-0.00958738,-0.07030745599999999,-24.6,-39.9,-43.02
1554886648880,9.720459,-0.95827925,0.7942764,-0.03195793,-0.017044231,-0.07030745599999999,-24.6,-39.84,-42.96
1554886648900,9.682152,-0.97743285,0.82779527,-0.056459017,-0.022370555,-0.07137272,-24.6,-39.78,-42.9
1554886648920,9.797073,-0.98222125,0.81343,-0.07882957,-0.013848438000000001,-0.07243799,-24.6,-39.72,-42.84
1554886648940,9.730036,-1.039682,0.85173726,-0.09267801,0.0063915867,-0.06178534,-24.6,-39.66,-42.84
1554886648960,9.749189,-1.049259,0.8230068000000001,-0.09161274,0.017044231,-0.051132694000000006,-24.6,-39.6,-42.9
1554886648979,9.739613,-1.0444705,0.7224503999999999,-0.08628642,0.023435817999999997,-0.043675844000000005,-24.54,-39.54,-42.9
1554886649000,9.639056,-0.98222125,0.6937199000000001,-0.07243799,0.024501082,-0.029827405,-24.54,-39.48,-42.96
1554886649020,9.595961,-0.99179804,0.6314706999999999,-0.056459017,0.013848438000000001,-0.023435817999999997,-24.54,-39.42,-43.08
1554886649040,9.634267999999999,-1.0109516,0.6218939,-0.03089267,-0.004261058,-0.023435817999999997,-24.54,-39.36,-43.14
1554886649060,9.619903,-1.0109516,0.6314706999999999,-0.011717908999999999,-0.02130529,-0.03195793,-24.54,-39.36,-43.26
1554886649079,9.706094,-0.9487024,0.6410475,0.0,-0.037284255,-0.041545313,-24.54,-39.36,-43.32
1554886649100,9.706094,-0.95349085,0.7272388000000001,0.012783173500000002,-0.05219796,-0.041545313,-24.48,-39.36,-43.32
1554886649119,9.600749,-0.98700964,0.5931635000000001,0.011717908999999999,-0.053263225,-0.040480047000000005,-24.48,-39.36,-43.38
1554886649140,9.552864999999999,-0.8912416,0.6937199000000001,0.007456851,-0.06498113,-0.03834952,-24.54,-39.36,-43.38
1554886649159,9.629479,-0.95349085,0.7224503999999999,0.00958738,-0.07456851,-0.040480047000000005,-24.54,-39.36,-43.32
1554886649179,9.605537,-1.0061632,0.86131406,0.02130529,-0.082025364,-0.05539375,-24.54,-39.36,-43.26
1554886649200,9.682152,-1.0109516,0.7368156,0.04474111,-0.07350325,-0.07456851,-24.54,-39.42,-43.14
1554886649220,9.610325999999999,-1.0684125,0.8182184,0.06391586,-0.053263225,-0.080960095,-24.6,-39.42,-43.08
1554886649240,9.667786999999999,-1.0588357,0.717662,0.06711166,-0.04261058,-0.07563378,-24.6,-39.42,-43.02
1554886649259,9.753978,-1.1689690000000001,0.5931635000000001,0.046871635999999994,-0.05219796,-0.060720075,-24.6,-39.42,-42.96
1554886649279,9.844957,-1.1546037,0.741604,0.036218993,-0.06498113,-0.05006743,-24.6,-39.42,-42.96
1554886649300,10.002974499999999,-1.2838906,0.66020113,0.04580637,-0.06391586,-0.037284255,-24.6,-39.42,-42.96
1554886649320,10.108319,-1.2072762,0.5931635000000001,0.082025364,-0.04474111,-0.02130529,-24.6,-39.42,-42.96
1554886649340,10.194510000000001,-1.1881226,0.47824179999999994,0.12463594,-0.01917476,0.0,-24.6,-39.42,-42.9
1554886649360,10.1226845,-1.192911,0.66020113,0.16724652,-0.017044231,0.015978966,-24.6,-39.42,-42.9
1554886649381,10.0748005,-1.0684125,0.7128736,0.20453078,-0.03089267,0.013848438000000001,-24.6,-39.36,-42.96
1554886649400,9.849746000000001,-0.98700964,0.6937199000000001,0.24394555,-0.03195793,0.011717908999999999,-24.6,-39.3,-42.96
1554886649419,9.572019000000001,-0.8146270999999999,0.5165489999999999,0.2727077,0.002130529,0.027696876000000002,-24.6,-39.24,-42.96
1554886649440,9.346964,-0.85293436,0.44951138,0.2790993,0.023435817999999997,0.05539375,-24.66,-39.24,-42.96
1554886649460,9.232041,-0.7428011,0.38726214,0.26525086,0.0063915867,0.068176925,-24.66,-39.24,-42.96
1554886649479,9.279925,-0.7763199000000001,0.54049104,0.24181503,-0.03834952,0.053263225,-24.66,-39.24,-42.96
1554886649499,9.433155000000001,-0.7332243,0.3537433,0.23329292,-0.07882957,0.020240024,-24.6,-39.3,-42.96
1554886649521,9.562441999999999,-0.82899237,0.43035775,0.257794,-0.083090626,-0.014913702,-24.54,-39.42,-42.96
1554886649539,9.773131,-0.66139823,0.28191724,0.28868666,-0.06711166,-0.043675844000000005,-24.48,-39.54,-42.96
1554886649560,9.911995,-0.7858967,0.34895490000000007,0.31212249999999997,-0.06498113,-0.058589544,-24.42,-39.72,-42.96
1554886649580,9.840169,-0.6039374,0.31064767,0.30466563,-0.08522116,-0.06178534,-24.36,-39.9,-42.96
1554886649599,9.844957,-0.66139823,0.28191724,0.28122982,-0.10759171,-0.053263225,-24.3,-40.14,-42.96
1554886649619,9.825804,-0.6278794,0.3441665,0.23222765,-0.11611383,-0.043675844000000005,-24.3,-40.32,-43.02
1554886649640,9.730036,-0.55126494,0.3633201,0.15765914,-0.12037488,-0.026631612000000002,-24.36,-40.5,-43.08
1554886649659,9.787497,-0.6135142,0.41120413,0.07456851,-0.13102753,-0.014913702,-24.42,-40.68,-43.14
1554886649679,9.89763,-0.7954735,0.56922144,-0.002130529,-0.13528858,-0.011717908999999999,-24.48,-40.86,-43.2
1554886649700,10.026916499999999,-0.83856916,0.57400984,-0.05006743,-0.112918034,-0.015978966,-24.54,-41.04,-43.2
1554886649720,10.079589,-0.75237787,0.53091425,-0.06711166,-0.06604639400000001,-0.023435817999999997,-24.66,-41.16,-43.26
1554886649740,9.974244,-0.8050503000000001,0.54527944,-0.07456851,-0.02130529,-0.023435817999999997,-24.72,-41.28,-43.32
1554886649760,9.988609,-0.83378077,0.6841431,-0.083090626,0.0063915867,-0.023435817999999997,-24.84,-41.34,-43.32
1554886649780,9.911995,-0.8146270999999999,0.57400984,-0.09267801,0.01917476,-0.01917476,-25.02,-41.4,-43.38
1554886649800,10.017339999999999,-0.8194155000000001,0.64583594,-0.08628642,0.025566347000000003,-0.022370555,-25.14,-41.4,-43.38
1554886649819,9.844957,-0.83378077,0.5117606,-0.06178534,0.034088463,-0.034088463,-25.26,-41.4,-43.38
1554886649839,9.787497,-0.86251116,0.6362591,-0.01917476,0.046871635999999994,-0.047936900000000005,-25.38,-41.4,-43.38
1554886649859,9.715671,-0.8960299999999999,0.5117606,0.037284255,0.06285059999999999,-0.060720075,-25.44,-41.34,-43.32
1554886649879,9.720459,-0.8194155000000001,0.5165489999999999,0.096939065,0.068176925,-0.07350325,-25.5,-41.28,-43.32
1554886649900,9.773131,-0.8242039000000001,0.40162733,0.1470065,0.068176925,-0.07776430000000001,-25.5,-41.22,-43.32
1554886649919,9.706094,-0.670975,0.3298013,0.14594123,0.07243799,-0.07776430000000001,-25.5,-41.16,-43.32
1554886649939,9.696517,-0.6183026,0.13826515,0.11717909,0.07563378,-0.08522116,-25.5,-41.16,-43.32
1554886649960,9.68694,-0.7092823,0.20530279,0.07456851,0.068176925,-0.07350325,-25.44,-41.28,-43.32
1554886649980,9.639056,-0.7236475,0.27712885,0.041545313,0.056459017,-0.06924219,-25.32,-41.4,-43.32
1554886650000,9.576807,-0.670975,0.28191724,0.004261058,0.027696876000000002,-0.07243799,-25.26,-41.52,-43.32
1554886650020,9.591172,-0.7715314999999999,0.20530279,-0.023435817999999997,0.0010652645,-0.06178534,-25.26,-41.7,-43.32
1554886650040,9.629479,-0.7140707,0.21487960000000003,-0.034088463,-0.03089267,-0.049002163,-25.26,-41.88,-43.26
1554886650059,9.634267999999999,-0.7954735,0.43993455,-0.02876214,-0.05965481,-0.035153727999999995,-25.2,-42.0,-43.26
1554886650079,9.696517,-0.8098387,0.3441665,-0.01917476,-0.084155895,-0.033023197000000004,-25.2,-42.06,-43.32
1554886650099,9.710882000000002,-0.86251116,0.34895490000000007,0.002130529,-0.098004326,-0.036218993,-25.2,-42.06,-43.32
1554886650121,9.840169,-0.8098387,0.53570265,0.03834952,-0.11504856,-0.040480047000000005,-25.2,-42.06,-43.32
1554886650139,9.911995,-0.7332243,0.55964464,0.06285059999999999,-0.113983296,-0.049002163,-25.2,-42.0,-43.38
1554886650161,9.969456,-0.75716627,0.43993455,0.054328485999999995,-0.098004326,-0.06285059999999999,-25.2,-41.94,-43.44
1554886650180,10.007763,-0.8098387,0.64583594,0.027696876000000002,-0.07456851,-0.07669904,-25.26,-41.94,-43.5
1554886650200,9.969456,-0.7428011,0.8038531999999999,0.002130529,-0.046871635999999994,-0.080960095,-25.26,-41.88,-43.56
1554886650220,9.89763,-0.5991489999999999,0.66498953,-0.051132694000000006,-0.008522116,-0.07030745599999999,-25.2,-41.88,-43.56
1554886650240,9.902417999999999,-0.65182143,0.53570265,-0.13102753,0.03089267,-0.05219796,-25.2,-41.88,-43.62
1554886650259,9.667786999999999,-0.7428011,0.64583594,-0.20026971,0.054328485999999995,-0.037284255,-25.2,-41.88,-43.62
1554886650280,9.696517,-0.85293436,0.65062433,-0.21198763,0.054328485999999995,-0.014913702,-25.2,-41.88,-43.62
1554886650300,9.753978,-0.7715314999999999,0.6123171,-0.17470337,0.051132694000000006,0.0031957934000000003,-25.2,-41.88,-43.62
1554886650319,9.629479,-0.75716627,0.38726214,-0.14168017,0.06391586,0.012783173500000002,-25.2,-41.88,-43.62
1554886650339,9.605537,-0.7667431,0.44951138,-0.15233281,0.08628642,0.012783173500000002,-25.2,-41.88,-43.62
1554886650359,9.619903,-0.6278794,0.52133745,-0.19281286,0.09267801,0.017044231,-25.2,-41.76,-43.56
1554886650380,9.715671,-0.7667431,0.46866497,-0.21837921,0.07776430000000001,0.026631612000000002,-25.2,-41.7,-43.5
1554886650400,9.715671,-0.7811083000000001,0.3633201,-0.20133498,0.056459017,0.03195793,-25.2,-41.64,-43.44
1554886650419,9.667786999999999,-0.9199719999999999,0.41599256,-0.13635385,0.034088463,0.026631612000000002,-25.26,-41.58,-43.38
1554886650439,9.710882000000002,-0.9008184000000001,0.43514615,-0.039414786,0.008522116,0.011717908999999999,-25.26,-41.52,-43.32
1554886650460,9.840169,-0.7763199000000001,0.39205053,0.04580637,-0.008522116,-0.008522116,-25.32,-41.46,-43.32
1554886650479,9.763555,-0.8098387,0.29149407,0.099069595,-0.01917476,-0.027696876000000002,-25.32,-41.34,-43.26
1554886650499,9.744401,-0.6278794,0.31064767,0.11824436,-0.03089267,-0.034088463,-25.26,-41.1,-43.2
1554886650520,9.725247,-0.66139823,0.3393781,0.096939065,-0.05219796,-0.033023197000000004,-25.2,-40.98,-43.2
1554886650539,9.821015,-0.6757634,0.3776853,0.06711166,-0.07137272,-0.037284255,-25.14,-40.92,-43.2
1554886650560,9.907207000000001,-0.6278794,0.49260699999999996,0.012783173500000002,-0.08628642,-0.037284255,-25.02,-40.68,-43.2
1554886650580,9.902417999999999,-0.64703304,0.5931635000000001,-0.03089267,-0.07669904,-0.03834952,-24.9,-40.56,-43.26
1554886650600,9.988609,-0.6374562,0.65062433,-0.05752428,-0.049002163,-0.049002163,-24.84,-40.38,-43.32
1554886650620,9.911995,-0.7906850999999999,0.6075286999999999,-0.060720075,-0.020240024,-0.053263225,-24.72,-40.32,-43.32
1554886650641,9.864111,-0.65660983,0.47824179999999994,-0.043675844000000005,0.00958738,-0.047936900000000005,-24.66,-40.38,-43.38
1554886650660,9.92636,-0.6278794,0.44951138,-0.040480047000000005,0.022370555,-0.03834952,-24.66,-40.44,-43.38
1554886650680,9.782708,-0.6087258000000001,0.5883751,-0.05539375,0.024501082,-0.037284255,-24.72,-40.56,-43.44
1554886650699,9.864111,-0.6374562,0.5835866999999999,-0.068176925,0.022370555,-0.049002163,-24.78,-40.68,-43.44
1554886650720,9.739613,-0.57999533,0.39205053,-0.07030745599999999,0.02130529,-0.06391586,-24.78,-40.8,-43.44
1554886650740,9.749189,-0.623091,0.3824737,-0.051132694000000006,0.018109497,-0.07563378,-24.84,-40.92,-43.38
1554886650760,9.768343,-0.82899237,0.45429978,-0.024501082,0.012783173500000002,-0.09374327,-24.84,-40.98,-43.32
1554886650780,9.782708,-0.7667431,0.41120413,0.0031957934000000003,0.0063915867,-0.112918034,-24.84,-40.98,-43.26
1554886650799,9.801862,-0.7092823,0.41120413,0.012783173500000002,0.007456851,-0.10333065,-24.9,-40.92,-43.14
1554886650819,9.768343,-0.7380127,0.3537433,0.011717908999999999,0.013848438000000001,-0.07989483,-24.9,-40.8,-43.14
1554886650839,9.744401,-0.85293436,0.5117606,-0.02130529,0.014913702,-0.05752428,-24.9,-40.74,-43.08
1554886650860,9.77792,-0.76195467,0.5165489999999999,-0.035153727999999995,0.011717908999999999,-0.05006743,-24.9,-40.62,-43.02
1554886650879,9.77792,-0.8098387,0.31064767,-0.051132694000000006,0.007456851,-0.037284255,-24.9,-40.5,-43.02
1554886650900,9.65821,-0.88166475,0.54049104,-0.05219796,0.0053263223,-0.022370555,-24.9,-40.44,-42.96
1554886650920,9.763555,-0.84335756,0.5165489999999999,-0.04261058,0.007456851,-0.018109497,-24.9,-40.44,-42.96
1554886650940,9.758766,-0.83378077,0.5979519,-0.03195793,0.008522116,-0.017044231,-24.9,-40.44,-42.96
1554886650959,9.706094,-0.8146270999999999,0.5979519,-0.029827405,0.0053263223,-0.017044231,-24.96,-40.44,-42.96
1554886650980,9.691728999999999,-0.6757634,0.40162733,-0.03089267,0.010652645,-0.00958738,-24.96,-40.38,-42.96
1554886650999,9.639056,-0.7236475,0.43035775,-0.034088463,0.012783173500000002,0.0,-24.96,-40.38,-43.02
1554886651020,9.715671,-0.670975,0.54049104,-0.034088463,0.015978966,0.0063915867,-24.96,-40.38,-43.02
1554886651040,9.739613,-0.65182143,0.4878186,-0.034088463,0.011717908999999999,0.007456851,-24.84,-40.38,-43.02
1554886651060,9.763555,-0.6183026,0.3393781,-0.036218993,0.013848438000000001,0.008522116,-24.78,-40.38,-43.02
1554886651080,9.768343,-0.694917,0.3633201,-0.04261058,0.002130529,0.0031957934000000003,-24.66,-40.38,-43.02
1554886651100,9.758766,-0.694917,0.48303019999999997,-0.034088463,-0.015978966,-0.008522116,-24.6,-40.38,-43.02
1554886651120,9.792285000000001,-0.6422445999999999,0.43514615,-0.018109497,-0.027696876000000002,-0.022370555,-24.54,-40.32,-43.08
