TimeStamp,Ax,Ay,Az,Gx,Gy,Gz,Mx,My,Mz
1554885778509,6.3111157,-7.173627000000001,1.4598645000000001,0.0010652645,0.07030745599999999,-0.018109497,3.24,21.48,-7.56
1554885778529,6.325481,-7.015609700000001,1.4838065,-0.002130529,0.05965481,-0.010652645,3.3,21.48,-7.5
1554885778548,6.1626754,-6.8528037,1.7423803,-0.013848438000000001,0.05006743,0.004261058,3.3,21.48,-7.5
1554885778570,6.05733,-6.675633,1.4694413,-0.0053263223,0.033023197000000004,0.034088463,3.42,21.42,-7.44
1554885778589,5.9567738,-6.618172,1.4646529,-0.008522116,0.02876214,0.06391586,3.42,21.42,-7.44
1554885778608,6.5122285,-6.9581485,0.76075757,-0.047936900000000005,0.09161274,0.084155895,3.48,21.42,-7.32
1554885778629,6.301539,-7.3220673,0.95229375,-0.10546118,0.15552860000000002,0.043675844000000005,3.54,21.42,-7.32
1554885778648,6.339846,-7.6764092,1.4215573000000001,-0.18429075,0.16618125,0.033023197000000004,3.54,21.42,-7.32
1554885778669,6.6510925,-8.5862055,1.9195513,-0.22050974,0.08841695,0.015978966,3.6,21.36,-7.26
1554885778688,6.5744777,-8.581417,2.2499511,-0.17044231,0.026631612000000002,-0.007456851,3.6,21.36,-7.26
1554885778709,6.3685765,-7.973290400000001,2.154183,0.04580637,-0.043675844000000005,-0.05752428,3.72,21.42,-7.2
1554885778728,6.1578870000000006,-7.2167225,1.7328035,0.1768339,-0.06924219,-0.06391586,3.78,21.42,-7.2
1554885778749,6.2009826,-6.977302000000001,1.4838065,0.15978967,-0.07137272,-0.058589544,3.84,21.42,-7.14
1554885778769,6.0333879999999995,-6.905475999999999,1.4694413,0.10226539,-0.06178534,-0.054328485999999995,3.9,21.48,-7.14
1554885778789,6.3302693,-7.044339999999999,1.4742297,0.053263225,-0.06285059999999999,-0.03834952,3.96,21.48,-7.08
1554885778808,6.3350577,-7.3460092999999995,1.5173253,0.007456851,-0.07030745599999999,-0.039414786,4.08,21.48,-7.02
1554885778828,6.3589997,-7.5327573,1.5029601000000001,0.007456851,-0.07243799,-0.05006743,4.14,21.48,-6.96
1554885778848,6.339846,-7.374739599999999,1.359308,0.024501082,-0.07030745599999999,-0.06285059999999999,4.2,21.54,-6.96
1554885778869,6.3302693,-7.2741833,1.2539631000000002,0.04474111,-0.06711166,-0.07030745599999999,4.2,21.6,-6.9
1554885778888,6.3063273,-7.2023573,1.2156559,0.051132694000000006,-0.053263225,-0.06924219,4.26,21.6,-6.84
1554885778908,6.2967505,-7.1065892999999996,1.1917138999999999,0.033023197000000004,-0.04261058,-0.06604639400000001,4.26,21.6,-6.84
1554885778929,6.301539,-7.0587053,1.3018471999999999,-0.037284255,-0.015978966,-0.06391586,4.26,21.66,-6.84
1554885778949,6.469133,-7.211933999999999,1.407192,-0.06178534,0.004261058,-0.058589544,4.26,21.66,-6.84
1554885778969,6.430825700000001,-7.3843164,1.5269021,-0.05539375,0.015978966,-0.06604639400000001,4.2,21.66,-6.84
1554885778989,6.5457472999999995,-7.4322004,1.7184383,-0.02130529,0.010652645,-0.07137272,4.14,21.66,-6.84
1554885779012,6.4643445,-7.3124905,1.5077485000000002,0.012783173500000002,0.0031957934000000003,-0.07882957,4.08,21.6,-6.84
1554885779028,6.4164605,-7.1353197,1.2683283,0.039414786,-0.0010652645,-0.09161274,4.02,21.54,-6.84
1554885779049,6.363788,-7.1448965,1.2443863000000002,0.023435817999999997,-0.00958738,-0.09161274,3.96,21.54,-6.9
1554885779070,6.3685765,-7.015609700000001,1.2156559,-0.01917476,-0.012783173500000002,-0.09054748,3.96,21.48,-6.9
1554885779089,6.1866174,-6.9437833,1.3257892,-0.03834952,-0.00958738,-0.084155895,3.9,21.42,-6.84
1554885779109,6.1578870000000006,-6.699575,1.4885948999999998,-0.026631612000000002,-0.0053263223,-0.05965481,3.9,21.36,-6.9
1554885779128,6.114791,-6.6469026,1.3736732,-0.011717908999999999,0.0053263223,-0.020240024,3.9,21.3,-6.96
1554885779148,6.220136,-6.680421400000001,1.359308,-0.018109497,0.029827405,0.007456851,3.9,21.3,-7.02
1554885779169,6.2823853,-6.881533999999999,1.3736732,-0.06178534,0.06604639400000001,0.025566347000000003,3.9,21.36,-7.08
1554885779189,6.593631299999999,-7.566275999999999,0.9283517,-0.12570119999999999,0.098004326,0.002130529,3.84,21.42,-7.08
1554885779209,6.8809357,-8.370728,1.1294646000000002,-0.16724652,0.128897,-0.027696876000000002,3.84,21.48,-7.14
1554885779229,6.9048777,-8.45213,1.4550761,-0.07563378,0.098004326,-0.06498113,3.78,21.54,-7.08
1554885779249,6.71813,-7.6189485,1.0097545,0.058589544,0.056459017,-0.09161274,3.78,21.66,-7.08
1554885779269,6.627150500000001,-7.0634937,0.8996213,0.08522116,0.033023197000000004,-0.111852765,3.78,21.78,-7.02
1554885779288,6.2967505,-6.666056,0.95708215,-0.01917476,0.025566347000000003,-0.14807177,3.78,21.84,-6.96
1554885779308,6.0764837,-6.4218473,1.0959458,-0.099069595,0.01917476,-0.12783173,3.78,21.9,-6.9
1554885779329,6.1387334000000005,-6.4601545,1.2491747,-0.15126756,0.020240024,-0.07030745599999999,3.78,21.96,-6.84
1554885779349,6.2392898,-6.570288000000001,1.3305776000000002,-0.21411815,0.02130529,-0.035153727999999995,3.78,21.96,-6.78
1554885779369,6.325481,-7.0012445,1.5221136999999998,-0.2545982,0.035153727999999995,-0.007456851,3.84,21.96,-6.78
1554885779388,6.4164605,-7.3220673,1.6753427,-0.22583607,0.05006743,-0.007456851,3.84,22.02,-6.78
1554885779410,6.459556,-7.599794999999999,1.4550761,-0.14274544,0.04474111,-0.010652645,3.9,22.08,-6.78
1554885779429,6.655881,-7.5327573,1.4646529,-0.07669904,0.037284255,-0.018109497,3.96,22.08,-6.78
1554885779449,6.564901,-7.3364325,1.3449427999999999,-0.041545313,0.05539375,-0.046871635999999994,4.02,22.14,-6.78
1554885779469,6.493075,-7.140108000000001,1.3976152,-0.04580637,0.058589544,-0.058589544,4.02,22.2,-6.78
1554885779488,6.435614,-7.0251865,1.1677719,-0.07882957,0.07030745599999999,-0.054328485999999995,4.08,22.26,-6.72
1554885779508,6.435614,-6.9677253,1.2252326999999998,-0.099069595,0.080960095,-0.039414786,4.08,22.26,-6.72
1554885779528,6.2967505,-7.116166000000001,1.287482,-0.113983296,0.113983296,-0.01917476,4.08,22.32,-6.66
1554885779549,6.354211299999999,-6.962936999999999,1.1965023000000001,-0.112918034,0.1438107,0.008522116,4.02,22.32,-6.66
1554885779569,6.272808599999999,-7.015609700000001,1.3305776000000002,-0.07456851,0.18002969,0.03089267,3.96,22.26,-6.6
1554885779588,6.4068837,-7.1592617,1.5747862,-0.07350325,0.16618125,0.043675844000000005,3.9,22.26,-6.54
1554885779608,6.5265937,-7.379528,1.6801311,-0.11824436,0.13528858,0.03089267,3.84,22.2,-6.48
1554885779629,6.4068837,-7.5758529999999995,2.1206641,-0.10439592,0.10972224,-0.0063915867,3.78,22.2,-6.36
1554885779648,6.430825700000001,-7.480085000000001,2.0488381,-0.049002163,0.09161274,-0.027696876000000002,3.72,22.2,-6.3
1554885779669,6.3350577,-7.3268557,1.7806876,0.018109497,0.080960095,-0.043675844000000005,3.72,22.2,-6.18
1554885779689,6.1818290000000005,-7.2167225,1.5747862,0.049002163,0.07776430000000001,-0.05219796,3.66,22.2,-6.06
1554885779709,6.2249246,-7.140108000000001,1.5939398,0.053263225,0.07563378,-0.054328485999999995,3.66,22.2,-5.94
1554885779729,6.397307,-7.2167225,1.4550761,0.035153727999999995,0.06391586,-0.043675844000000005,3.72,22.2,-5.88
1554885779748,6.4212489999999995,-7.154473299999999,1.4311341,-0.0031957934000000003,0.068176925,-0.037284255,3.72,22.26,-5.76
1554885779768,6.5026517,-7.3220673,1.4646529,-0.020240024,0.07137272,-0.039414786,3.78,22.2,-5.76
1554885779788,6.3446345,-7.2885485,1.5125369,-0.010652645,0.07030745599999999,-0.039414786,3.78,22.2,-5.76
1554885779809,6.315904,-7.16405,1.4502877,0.0031957934000000003,0.06285059999999999,-0.047936900000000005,3.84,22.08,-5.76
1554885779830,6.26802,-7.16405,1.6514006,-0.00958738,0.056459017,-0.049002163,3.84,22.02,-5.76
1554885779849,6.244078,-7.1927805,1.7806876,-0.02130529,0.04580637,-0.05006743,3.9,21.96,-5.82
1554885779869,6.339846,-7.2406645,1.7375918999999997,-0.0031957934000000003,0.035153727999999995,-0.035153727999999995,3.9,21.9,-5.82
1554885779888,6.3063273,-7.3603745,1.8429368000000002,0.012783173500000002,0.03089267,-0.03195793,3.96,21.9,-5.88
1554885779909,6.315904,-7.2646065,1.8142063999999998,0.037284255,0.018109497,-0.026631612000000002,4.02,21.96,-5.88
1554885779929,6.272808599999999,-7.1927805,1.7423803,0.068176925,0.004261058,-0.020240024,4.08,22.02,-5.88
1554885779948,6.167464,-7.1975690000000005,1.6609775000000002,0.07243799,-0.010652645,-0.012783173500000002,4.14,22.08,-5.88
1554885779968,6.2823853,-7.101800999999999,1.4885948999999998,0.06604639400000001,-0.02130529,-0.011717908999999999,4.2,22.2,-5.94
1554885779989,6.291962,-7.173627000000001,1.5316905,0.07030745599999999,-0.02876214,-0.0010652645,4.26,22.32,-5.88
1554885780009,6.3589997,-7.2071457,1.4550761,0.07882957,-0.039414786,0.0010652645,4.32,22.44,-5.88
1554885780028,6.253655,-7.2741833,1.5173253,0.07776430000000001,-0.043675844000000005,0.0,4.32,22.5,-5.88
1554885780049,6.2632318,-7.173627000000001,1.6418238,0.07243799,-0.047936900000000005,0.0010652645,4.38,22.5,-5.88
1554885780069,6.3350577,-7.231087700000001,1.5699978,0.07030745599999999,-0.05752428,0.008522116,4.38,22.56,-5.88
1554885780088,6.301539,-7.231087700000001,1.5939398,0.06178534,-0.05219796,0.0063915867,4.32,22.44,-5.88
1554885780108,6.277597,-7.231087700000001,1.5029601000000001,0.07350325,-0.05006743,0.010652645,4.32,22.26,-5.88
1554885780128,6.315904,-7.1975690000000005,1.5125369,0.082025364,-0.04474111,0.012783173500000002,4.32,21.96,-5.88
1554885780148,6.325481,-7.2502413,1.6226702,0.07243799,-0.049002163,0.011717908999999999,4.32,21.66,-5.88
1554885780168,6.3063273,-7.3029137,1.5652093999999999,0.06285059999999999,-0.053263225,0.008522116,4.14,21.0,-5.94
1554885780188,6.2967505,-7.398681599999999,1.4215573000000001,0.06285059999999999,-0.05219796,0.0031957934000000003,3.9,20.46,-5.94
1554885780209,6.325481,-7.3364325,1.3066356000000001,0.058589544,-0.054328485999999995,0.0010652645,3.66,19.98,-6.0
1554885780229,6.3350577,-7.307702000000001,1.38325,0.053263225,-0.056459017,-0.0031957934000000003,3.48,19.56,-6.06
1554885780248,6.2632318,-7.2215110000000005,1.4311341,0.056459017,-0.06285059999999999,-0.007456851,3.3,19.26,-6.06
1554885780268,6.244078,-7.211933999999999,1.359308,0.054328485999999995,-0.06285059999999999,-0.0053263223,3.24,19.14,-6.06
1554885780288,6.349423000000001,-7.2215110000000005,1.4119805,0.02130529,-0.05752428,-0.010652645,3.06,19.14,-6.18
1554885780308,6.253655,-7.3268557,1.4550761,0.015978966,-0.05539375,-0.00958738,3.06,19.26,-6.24
1554885780328,6.2584434,-7.374739599999999,1.4598645000000001,0.024501082,-0.05006743,-0.013848438000000001,3.06,19.38,-6.24
1554885780348,6.244078,-7.2646065,1.4550761,0.033023197000000004,-0.040480047000000005,-0.013848438000000001,3.18,19.62,-6.3
1554885780368,6.244078,-7.283760000000001,1.5699978,0.03089267,-0.027696876000000002,-0.011717908999999999,3.54,20.04,-6.24
1554885780389,6.277597,-7.3938932,1.4550761,0.034088463,-0.00958738,-0.013848438000000001,3.66,20.34,-6.24
1554885780409,6.2584434,-7.2262993,1.5221136999999998,0.043675844000000005,-0.0053263223,-0.015978966,3.78,20.58,-6.12
1554885780429,6.301539,-7.3029137,1.3784616000000003,0.051132694000000006,0.0031957934000000003,-0.018109497,3.9,20.76,-6.06
1554885780449,6.363788,-7.1592617,1.5508442,0.041545313,0.00958738,-0.023435817999999997,3.96,20.94,-6.0
1554885780469,6.2345014,-7.3124905,1.6561891,0.05539375,0.012783173500000002,-0.029827405,4.02,21.12,-5.94
1554885780489,6.3589997,-7.317278999999999,1.7232267,0.06711166,0.010652645,-0.024501082,4.02,21.24,-5.94
1554885780509,6.2967505,-7.331644,1.7136499,0.05752428,0.0053263223,-0.025566347000000003,4.08,21.36,-5.88
1554885780528,6.220136,-7.173627000000001,1.6178818000000001,0.06285059999999999,-0.0031957934000000003,-0.026631612000000002,4.14,21.54,-5.88
1554885780548,6.291962,-7.317278999999999,1.6514006,0.07776430000000001,-0.007456851,-0.027696876000000002,4.2,21.66,-5.94
1554885780568,6.3063273,-7.2215110000000005,1.6944963,0.082025364,-0.02130529,-0.026631612000000002,4.32,21.72,-6.0
1554885780588,6.3111157,-7.1448965,1.5795746000000002,0.07030745599999999,-0.02876214,-0.025566347000000003,4.38,21.78,-6.0
1554885780609,6.3111157,-7.2262993,1.5652093999999999,0.039414786,-0.036218993,-0.015978966,4.44,21.78,-6.0
1554885780629,6.2488665999999995,-7.269394999999999,1.584363,0.024501082,-0.03834952,-0.014913702,4.5,21.78,-6.0
1554885780648,6.2249246,-7.3460092999999995,1.6944963,0.025566347000000003,-0.047936900000000005,-0.007456851,4.5,21.78,-6.0
1554885780668,6.2392898,-7.3124905,1.5364790000000002,0.027696876000000002,-0.053263225,-0.0053263223,4.56,21.78,-5.94
1554885780689,6.2345014,-7.3268557,1.6849195,0.04261058,-0.06604639400000001,-0.0031957934000000003,4.56,21.78,-5.94
1554885780709,6.291962,-7.2789717000000005,1.6944963,0.060720075,-0.07563378,0.0010652645,4.62,21.78,-5.94
1554885780729,6.2488665999999995,-7.259817999999999,1.6418238,0.06391586,-0.07563378,0.002130529,4.62,21.78,-5.88
1554885780748,6.272808599999999,-7.2262993,1.6083049999999999,0.054328485999999995,-0.07563378,0.004261058,4.62,21.78,-5.88
1554885780768,6.2632318,-7.3124905,1.5221136999999998,0.04580637,-0.068176925,0.0053263223,4.56,21.78,-5.88
1554885780788,6.2249246,-7.3268557,1.5077485000000002,0.043675844000000005,-0.058589544,0.0031957934000000003,4.56,21.78,-5.82
1554885780809,6.26802,-7.4322004,1.4790181,0.056459017,-0.051132694000000006,0.0,4.5,21.78,-5.82
1554885780828,6.2392898,-7.3364325,1.6801311,0.06924219,-0.041545313,-0.007456851,4.44,21.84,-5.82
1554885780849,6.291962,-7.2789717000000005,1.4885948999999998,0.06498113,-0.035153727999999995,-0.0063915867,4.44,21.84,-5.88
1554885780868,6.291962,-7.3029137,1.4119805,0.054328485999999995,-0.024501082,-0.00958738,4.44,21.84,-5.88
1554885780889,6.253655,-7.2167225,1.4598645000000001,0.04474111,-0.02130529,-0.0053263223,4.38,21.84,-5.88
1554885780909,6.196194,-7.2215110000000005,1.4550761,0.017044231,-0.013848438000000001,-0.007456851,4.38,21.9,-5.94
1554885780929,6.2057709999999995,-7.3603745,1.5891514,0.0063915867,-0.008522116,-0.0053263223,4.38,21.9,-5.94
1554885780949,6.2345014,-7.355586,1.5316905,0.013848438000000001,-0.00958738,-0.004261058,4.38,21.9,-6.0
1554885780969,6.244078,-7.365163000000001,1.6561891,0.023435817999999997,-0.014913702,-0.007456851,4.38,21.9,-6.0
1554885780988,6.2057709999999995,-7.355586,1.5029601000000001,0.029827405,-0.015978966,-0.014913702,4.38,21.9,-6.06
1554885781009,6.196194,-7.2885485,1.4167688999999999,0.029827405,-0.012783173500000002,-0.013848438000000001,4.38,21.84,-6.12
1554885781029,6.2345014,-7.2741833,1.4885948999999998,0.03089267,-0.008522116,-0.014913702,4.38,21.84,-6.18
1554885781049,6.1578870000000006,-7.2981253,1.4742297,0.01917476,-0.012783173500000002,-0.008522116,4.38,21.78,-6.18
1554885781069,6.191406,-7.2981253,1.6657659,0.0053263223,-0.01917476,-0.014913702,4.38,21.72,-6.24
1554885781088,6.301539,-7.317278999999999,1.6035166,0.0031957934000000003,-0.020240024,-0.011717908999999999,4.38,21.66,-6.3
1554885781109,6.2392898,-7.3938932,1.6657659,0.004261058,-0.023435817999999997,-0.013848438000000001,4.44,21.48,-6.42
1554885781128,6.26802,-7.283760000000001,1.4981716999999999,0.00958738,-0.022370555,-0.014913702,4.44,21.48,-6.42
1554885781150,6.315904,-7.2885485,1.5699978,0.00958738,-0.029827405,-0.017044231,4.44,21.3,-6.42
1554885781169,6.3063273,-7.307702000000001,1.5029601000000001,0.0,-0.03089267,-0.02130529,4.44,21.3,-6.42
1554885781188,6.2632318,-7.211933999999999,1.7471686999999998,-0.011717908999999999,-0.034088463,-0.029827405,4.5,21.18,-6.3
1554885781209,6.244078,-7.422623599999999,1.5604209999999998,-0.004261058,-0.037284255,-0.033023197000000004,4.5,21.12,-6.12
1554885781229,6.1626754,-7.2981253,1.6849195,-0.0010652645,-0.035153727999999995,-0.036218993,4.5,21.06,-6.0
1554885781248,6.2632318,-7.4322004,1.5269021,0.012783173500000002,-0.035153727999999995,-0.037284255,4.5,21.06,-5.94
1554885781269,6.196194,-7.3843164,1.5221136999999998,0.027696876000000002,-0.029827405,-0.034088463,4.5,21.06,-5.7
1554885781289,6.133945,-7.355586,1.5699978,0.024501082,-0.022370555,-0.03195793,4.5,21.12,-5.64
1554885781308,6.2392898,-7.211933999999999,1.6083049999999999,0.027696876000000002,-0.011717908999999999,-0.02876214,4.5,21.12,-5.58
1554885781329,6.133945,-7.231087700000001,1.6418238,0.035153727999999995,0.0031957934000000003,-0.023435817999999997,4.56,21.18,-5.58
1554885781348,6.253655,-7.2071457,1.6178818000000001,0.03089267,0.0053263223,-0.017044231,4.62,21.18,-5.64
1554885781369,6.272808599999999,-7.355586,1.5604209999999998,0.025566347000000003,0.0063915867,-0.012783173500000002,4.68,21.18,-5.76
1554885781388,6.1866174,-7.259817999999999,1.6849195,0.036218993,0.011717908999999999,-0.008522116,4.74,21.24,-5.82
1554885781408,6.191406,-7.3124905,1.6130934,0.041545313,0.00958738,-0.004261058,4.8,21.24,-5.88
1554885781429,6.2823853,-7.1975690000000005,1.6226702,0.040480047000000005,0.008522116,-0.0031957934000000003,4.86,21.24,-5.88
1554885781448,6.1626754,-7.2406645,1.6083049999999999,0.041545313,0.0063915867,0.0031957934000000003,4.92,21.24,-5.94
1554885781468,6.26802,-7.269394999999999,1.4838065,0.025566347000000003,0.0,-0.0010652645,4.92,21.3,-5.94
1554885781489,6.2488665999999995,-7.398681599999999,1.7375918999999997,0.020240024,-0.00958738,0.0010652645,4.98,21.36,-5.94
1554885781508,6.2009826,-7.3938932,1.7280151000000001,0.033023197000000004,-0.015978966,0.0,4.98,21.36,-5.94
1554885781529,6.2249246,-7.4034699999999996,1.7806876,0.06498113,-0.03089267,-0.004261058,4.92,21.36,-5.94
1554885781549,6.220136,-7.341221000000001,1.5556326,0.09161274,-0.039414786,-0.0053263223,4.92,21.3,-5.88
1554885781571,6.105214,-7.2406645,1.6609775000000002,0.068176925,-0.05219796,-0.0010652645,4.92,21.18,-5.88
1554885781588,6.1530986,-7.2071457,1.584363,0.046871635999999994,-0.049002163,-0.0053263223,4.86,21.06,-5.88
1554885781608,6.191406,-7.3124905,1.5795746000000002,0.03834952,-0.046871635999999994,-0.0031957934000000003,4.86,20.88,-5.94
1554885781628,6.1770406,-7.441777,1.5939398,0.03834952,-0.036218993,-0.0053263223,4.8,20.7,-5.94
1554885781649,6.1530986,-7.3699512,1.7663223000000001,0.037284255,-0.034088463,-0.007456851,4.8,20.52,-5.94
1554885781669,6.172251999999999,-7.389105000000001,1.6753427,0.05006743,-0.029827405,-0.010652645,4.74,20.34,-5.94
1554885781688,6.2105594,-7.355586,1.7088615000000003,0.06285059999999999,-0.024501082,-0.00958738,4.74,20.28,-6.06
1554885781708,6.2392898,-7.317278999999999,1.4646529,0.053263225,-0.018109497,-0.012783173500000002,4.68,20.16,-6.18
1554885781729,6.196194,-7.2023573,1.4311341,0.026631612000000002,-0.015978966,-0.015978966,4.68,20.22,-6.24
1554885781749,6.229712999999999,-7.2981253,1.407192,-0.011717908999999999,-0.012783173500000002,-0.017044231,4.74,20.34,-6.3
1554885781769,6.1578870000000006,-7.3699512,1.7663223000000001,-0.01917476,-0.015978966,-0.023435817999999997,4.74,20.46,-6.42
1554885781789,6.105214,-7.3938932,1.6561891,-0.002130529,-0.017044231,-0.027696876000000002,4.74,20.58,-6.48
1554885781808,6.277597,-7.379528,1.6849195,0.014913702,-0.023435817999999997,-0.03089267,4.8,20.7,-6.54
1554885781828,6.2057709999999995,-7.365163000000001,1.7088615000000003,0.01917476,-0.026631612000000002,-0.033023197000000004,4.8,20.76,-6.6
1554885781849,6.229712999999999,-7.3029137,1.6226702,0.015978966,-0.026631612000000002,-0.034088463,4.8,20.88,-6.6
1554885781869,6.2345014,-7.341221000000001,1.6801311,0.017044231,-0.025566347000000003,-0.036218993,4.8,21.0,-6.54
1554885781888,6.2249246,-7.2406645,1.6801311,0.012783173500000002,-0.04474111,-0.043675844000000005,4.86,21.0,-6.48
1554885781909,6.2823853,-7.341221000000001,1.632247,0.011717908999999999,-0.05219796,-0.053263225,4.92,21.0,-6.36
1554885781929,6.320692500000001,-7.4322004,1.5891514,0.010652645,-0.035153727999999995,-0.06285059999999999,4.98,21.0,-6.24
1554885781949,6.1626754,-7.4992385,1.4407108999999998,0.013848438000000001,-0.0031957934000000003,-0.07563378,5.04,21.06,-6.18
1554885781969,6.2105594,-7.3364325,1.5221136999999998,0.010652645,0.024501082,-0.07030745599999999,5.1,21.06,-6.12
1554885781988,6.2009826,-7.16405,1.4407108999999998,-0.008522116,0.033023197000000004,-0.054328485999999995,5.16,21.06,-6.06
1554885782008,6.277597,-7.1879919999999995,1.6609775000000002,-0.034088463,0.039414786,-0.051132694000000006,5.22,21.12,-6.0
1554885782029,6.2345014,-7.2454529999999995,1.6705543,-0.035153727999999995,0.043675844000000005,-0.049002163,5.16,21.12,-6.06
1554885782049,6.1530986,-7.1353197,2.0296845,-0.03089267,0.043675844000000005,-0.04580637,5.1,21.12,-6.12
1554885782069,6.2057709999999995,-7.2454529999999995,1.8142063999999998,-0.029827405,0.037284255,-0.04474111,5.1,21.06,-6.18
1554885782088,6.1195793,-7.307702000000001,1.6705543,-0.026631612000000002,0.03834952,-0.041545313,5.04,21.06,-6.24
1554885782109,6.2823853,-7.3124905,1.6609775000000002,-0.020240024,0.039414786,-0.036218993,4.92,21.06,-6.42
1554885782129,6.0956373,-7.2646065,1.7806876,-0.014913702,0.041545313,-0.034088463,4.92,21.0,-6.48
1554885782149,6.196194,-7.2454529999999995,1.809418,-0.03089267,0.043675844000000005,-0.039414786,4.86,21.0,-6.48
1554885782169,6.143522,-7.417835,1.8477252,-0.047936900000000005,0.040480047000000005,-0.03834952,4.86,21.0,-6.54
1554885782189,6.172251999999999,-7.417835,1.7232267,-0.036218993,0.03195793,-0.043675844000000005,4.86,21.0,-6.54
1554885782209,6.1530986,-7.365163000000001,1.7854759999999998,-0.002130529,0.027696876000000002,-0.046871635999999994,4.86,21.0,-6.54
1554885782229,6.042965000000001,-7.2071457,1.7232267,0.012783173500000002,0.022370555,-0.043675844000000005,4.86,21.0,-6.54
1554885782249,6.133945,-7.178415299999999,1.6657659,-0.004261058,0.018109497,-0.051132694000000006,4.92,21.0,-6.48
1554885782269,6.2057709999999995,-7.3268557,1.7375918999999997,-0.017044231,0.015978966,-0.05219796,4.92,21.0,-6.42
1554885782290,6.253655,-7.389105000000001,1.6897078999999997,-0.01917476,0.00958738,-0.05752428,4.92,21.06,-6.36
1554885782308,6.2057709999999995,-7.317278999999999,1.7758990000000001,-0.012783173500000002,0.0063915867,-0.05965481,4.92,21.18,-6.24
1554885782330,6.167464,-7.413047,1.7567455,0.004261058,0.0063915867,-0.05539375,4.92,21.24,-6.18
1554885782349,6.1866174,-7.154473299999999,1.6753427,0.020240024,0.004261058,-0.046871635999999994,4.86,21.36,-6.12
1554885782368,6.2153480000000005,-7.149685000000001,1.7280151000000001,0.014913702,0.004261058,-0.039414786,4.8,21.42,-6.06
1554885782389,6.2105594,-7.2741833,1.7615339,-0.004261058,-0.0010652645,-0.039414786,4.8,21.48,-6.06
1554885782409,6.253655,-7.341221000000001,1.8477252,-0.007456851,-0.00958738,-0.040480047000000005,4.74,21.54,-6.06
1554885782429,6.1578870000000006,-7.269394999999999,1.809418,0.0031957934000000003,-0.011717908999999999,-0.04261058,4.74,21.54,-6.06
1554885782448,6.2249246,-7.2167225,1.6753427,0.018109497,-0.015978966,-0.040480047000000005,4.68,21.48,-6.12
1554885782468,6.244078,-7.178415299999999,1.6897078999999997,0.020240024,-0.020240024,-0.040480047000000005,4.62,21.24,-6.12
1554885782489,6.315904,-7.2406645,1.6801311,0.0,-0.024501082,-0.040480047000000005,4.62,21.12,-6.12
1554885782509,6.315904,-7.269394999999999,1.6849195,-0.004261058,-0.022370555,-0.041545313,4.62,20.94,-6.12
1554885782529,6.2632318,-7.269394999999999,1.7328035,0.00958738,-0.022370555,-0.039414786,4.56,20.88,-6.12
1554885782550,6.253655,-7.2741833,1.7806876,0.018109497,-0.017044231,-0.041545313,4.5,20.82,-6.12
1554885782570,6.2153480000000005,-7.173627000000001,1.6226702,0.013848438000000001,-0.011717908999999999,-0.041545313,4.44,20.76,-6.12
1554885782588,6.325481,-7.2167225,1.584363,0.013848438000000001,-0.00958738,-0.040480047000000005,4.44,20.76,-6.12
1554885782609,6.2823853,-7.2502413,1.6370354,0.013848438000000001,-0.002130529,-0.043675844000000005,4.38,20.76,-6.12
1554885782629,6.1578870000000006,-7.1927805,1.6274586000000002,0.004261058,0.0031957934000000003,-0.04580637,4.32,20.82,-6.12
1554885782649,6.2967505,-7.2454529999999995,1.7184383,-0.0031957934000000003,0.0031957934000000003,-0.040480047000000005,4.26,20.88,-6.06
1554885782669,6.2488665999999995,-7.307702000000001,1.7758990000000001,-0.0031957934000000003,0.0053263223,-0.041545313,4.26,20.94,-6.06
1554885782689,6.277597,-7.2023573,1.6897078999999997,0.017044231,0.008522116,-0.043675844000000005,4.26,21.0,-6.06
1554885782709,6.220136,-7.154473299999999,1.5795746000000002,0.017044231,0.008522116,-0.041545313,4.32,21.0,-6.06
1554885782729,6.2105594,-7.231087700000001,1.6897078999999997,0.014913702,0.010652645,-0.039414786,4.32,21.12,-6.06
1554885782749,6.3111157,-7.1975690000000005,1.7232267,0.007456851,0.012783173500000002,-0.035153727999999995,4.38,21.18,-6.06
1554885782768,6.339846,-7.255029700000001,1.6897078999999997,0.011717908999999999,0.013848438000000001,-0.039414786,4.5,21.24,-6.0
1554885782790,6.2392898,-7.173627000000001,1.8716671000000003,0.015978966,0.012783173500000002,-0.040480047000000005,4.5,21.24,-6.0
1554885782808,6.244078,-7.178415299999999,1.5652093999999999,0.023435817999999997,0.014913702,-0.040480047000000005,4.56,21.12,-6.0
1554885782830,6.3302693,-7.1305312999999995,1.6514006,0.008522116,0.015978966,-0.04261058,4.56,21.06,-6.0
1554885782848,6.1578870000000006,-7.3029137,1.8142063999999998,-0.004261058,0.014913702,-0.041545313,4.56,21.0,-6.0
1554885782868,6.2823853,-7.2789717000000005,1.6226702,-0.0031957934000000003,0.008522116,-0.037284255,4.62,20.94,-6.0
1554885782888,6.220136,-7.307702000000001,1.6178818000000001,-0.0063915867,0.00958738,-0.034088463,4.62,20.82,-6.0
1554885782908,6.315904,-7.154473299999999,1.8908207,0.0063915867,0.007456851,-0.034088463,4.56,20.76,-6.0
1554885782928,6.2823853,-7.1688385,1.6609775000000002,0.015978966,0.0063915867,-0.03195793,4.5,20.7,-5.94
1554885782948,6.2632318,-7.2215110000000005,1.7232267,0.013848438000000001,-0.0031957934000000003,-0.037284255,4.5,20.7,-5.94
1554885782969,6.2823853,-7.2981253,1.8381484000000001,0.010652645,-0.007456851,-0.036218993,4.44,20.82,-5.94
1554885782988,6.2488665999999995,-7.2646065,1.7663223000000001,0.015978966,-0.015978966,-0.033023197000000004,4.38,20.88,-5.94
1554885783008,6.378153299999999,-7.231087700000001,1.5412674,0.0063915867,-0.022370555,-0.03195793,4.38,20.94,-5.94
1554885783028,6.2823853,-7.178415299999999,1.7232267,-0.0031957934000000003,-0.024501082,-0.03195793,4.32,20.94,-5.88
1554885783049,6.301539,-7.1927805,1.6801311,0.0031957934000000003,-0.02130529,-0.029827405,4.32,21.06,-5.94
1554885783070,6.2823853,-7.1209545,1.6849195,0.004261058,-0.018109497,-0.026631612000000002,4.32,21.12,-5.94
1554885783090,6.2345014,-7.331644,1.6801311,0.0,-0.014913702,-0.024501082,4.32,21.24,-5.94
1554885783109,6.2584434,-7.211933999999999,1.7711107,-0.002130529,-0.014913702,-0.023435817999999997,4.32,21.3,-5.94
1554885783128,6.220136,-7.2885485,1.7328035,0.00958738,-0.010652645,-0.01917476,4.38,21.36,-5.94
1554885783151,6.2105594,-7.259817999999999,1.6609775000000002,0.008522116,-0.008522116,-0.020240024,4.38,21.42,-5.94
1554885783172,6.2823853,-7.1975690000000005,1.6418238,0.010652645,-0.007456851,-0.02130529,4.38,21.48,-5.94
1554885783189,6.26802,-7.255029700000001,1.584363,0.004261058,-0.007456851,-0.020240024,4.38,21.48,-5.94
1554885783209,6.38773,-7.2789717000000005,1.5891514,-0.0053263223,-0.011717908999999999,-0.023435817999999997,4.38,21.48,-5.94
1554885783228,6.291962,-7.255029700000001,1.8046296000000002,0.002130529,-0.010652645,-0.027696876000000002,4.38,21.42,-5.88
1554885783248,6.244078,-7.2502413,1.632247,0.002130529,-0.017044231,-0.02876214,4.44,21.42,-5.82
1554885783268,6.196194,-7.173627000000001,1.7136499,-0.0053263223,-0.013848438000000001,-0.026631612000000002,4.44,21.36,-5.82
1554885783289,6.229712999999999,-7.16405,1.632247,-0.0031957934000000003,-0.010652645,-0.02130529,4.44,21.36,-5.76
1554885783309,6.253655,-7.2646065,1.8764555,0.015978966,0.0,-0.020240024,4.44,21.36,-5.76
1554885783328,6.3446345,-7.1879919999999995,1.7280151000000001,0.02130529,-0.004261058,-0.020240024,4.44,21.3,-5.76
1554885783348,6.277597,-7.4322004,1.5939398,0.022370555,-0.0010652645,-0.023435817999999997,4.44,21.3,-5.76
1554885783369,6.272808599999999,-7.2741833,1.6561891,0.02876214,-0.004261058,-0.023435817999999997,4.5,21.36,-5.82
1554885783389,6.2632318,-7.173627000000001,1.5316905,0.023435817999999997,-0.002130529,-0.026631612000000002,4.5,21.36,-5.82
1554885783409,6.220136,-7.269394999999999,1.6274586000000002,0.017044231,0.0,-0.03089267,4.5,21.42,-5.88
1554885783429,6.2488665999999995,-7.2454529999999995,1.7040731,0.00958738,-0.0053263223,-0.029827405,4.56,21.36,-5.88
1554885783449,6.277597,-7.2646065,1.6514006,0.013848438000000001,-0.00958738,-0.03089267,4.56,21.36,-5.88
1554885783469,6.26802,-7.283760000000001,1.6035166,0.022370555,-0.0053263223,-0.026631612000000002,4.62,21.3,-5.88
1554885783489,6.272808599999999,-7.2262993,1.7088615000000003,0.02130529,-0.002130529,-0.025566347000000003,4.62,21.24,-5.88
1554885783509,6.2823853,-7.2215110000000005,1.7902644,0.013848438000000001,-0.0031957934000000003,-0.024501082,4.62,21.18,-5.88
1554885783529,6.196194,-7.2646065,1.8142063999999998,0.0063915867,-0.0010652645,-0.020240024,4.56,21.12,-5.88
1554885783548,6.229712999999999,-7.2741833,1.8237831999999998,0.0053263223,-0.002130529,-0.022370555,4.56,21.06,-5.88
1554885783568,6.2345014,-7.1975690000000005,1.7758990000000001,0.013848438000000001,-0.0010652645,-0.023435817999999997,4.5,21.0,-5.94
1554885783588,6.38773,-7.1688385,1.5364790000000002,0.01917476,-0.0010652645,-0.024501082,4.5,21.0,-5.94
1554885783609,6.2967505,-7.2741833,1.6226702,0.011717908999999999,0.0031957934000000003,-0.020240024,4.44,20.94,-5.94
1554885783630,6.3063273,-7.355586,1.7902644,0.004261058,0.0010652645,-0.020240024,4.44,20.94,-6.0
1554885783648,6.244078,-7.374739599999999,1.6944963,0.018109497,-0.002130529,-0.022370555,4.38,20.94,-6.0
1554885783669,6.2345014,-7.259817999999999,1.6561891,0.020240024,-0.0010652645,-0.02130529,4.38,20.94,-6.0
1554885783689,6.26802,-7.154473299999999,1.8333599999999999,0.012783173500000002,-0.0031957934000000003,-0.022370555,4.38,20.94,-6.0
1554885783709,6.3350577,-7.2023573,1.7663223000000001,0.022370555,-0.002130529,-0.020240024,4.38,20.94,-6.0
1554885783728,6.229712999999999,-7.317278999999999,1.632247,0.026631612000000002,-0.007456851,-0.020240024,4.38,21.0,-5.94
1554885783748,6.2249246,-7.255029700000001,1.6801311,0.022370555,-0.0063915867,-0.02130529,4.38,21.0,-5.88
1554885783768,6.129156,-7.2502413,1.632247,0.01917476,-0.0010652645,-0.020240024,4.38,21.0,-5.88
1554885783791,6.2105594,-7.259817999999999,1.7423803,0.017044231,-0.002130529,-0.018109497,4.38,21.0,-5.88
1554885783809,6.2345014,-7.307702000000001,1.6418238,0.01917476,0.002130529,-0.018109497,4.38,21.0,-5.88
1554885783828,6.2488665999999995,-7.231087700000001,1.6849195,0.023435817999999997,0.0010652645,-0.017044231,4.38,21.0,-5.94
1554885783848,6.2057709999999995,-7.317278999999999,1.5173253,0.012783173500000002,0.0010652645,-0.017044231,4.38,21.0,-5.94
1554885783869,6.3063273,-7.173627000000001,1.7375918999999997,0.0053263223,0.0010652645,-0.01917476,4.38,21.0,-6.0
1554885783889,6.229712999999999,-7.3268557,1.7040731,0.011717908999999999,-0.002130529,-0.01917476,4.44,21.0,-6.06
1554885783909,6.272808599999999,-7.2741833,1.8046296000000002,0.02130529,-0.0031957934000000003,-0.022370555,4.44,21.0,-6.06
1554885783929,6.2823853,-7.2215110000000005,1.7567455,0.02130529,-0.0063915867,-0.024501082,4.44,21.0,-6.12
1554885783949,6.220136,-7.140108000000001,1.7232267,0.017044231,-0.0063915867,-0.023435817999999997,4.44,21.06,-6.12
1554885783969,6.2392898,-7.2981253,1.7471686999999998,0.007456851,-0.017044231,-0.02130529,4.44,21.06,-6.12
1554885783989,6.3446345,-7.413047,1.7567455,0.002130529,-0.018109497,-0.025566347000000003,4.5,21.06,-6.12
1554885784009,6.2823853,-7.307702000000001,1.7806876,0.013848438000000001,-0.022370555,-0.026631612000000002,4.5,21.12,-6.12
1554885784029,6.2249246,-7.365163000000001,1.6561891,0.017044231,-0.020240024,-0.03089267,4.5,21.12,-6.12
1554885784048,6.229712999999999,-7.259817999999999,1.6035166,0.01917476,-0.02130529,-0.03834952,4.56,21.12,-6.12
1554885784068,6.3350577,-7.2981253,1.7375918999999997,0.02130529,-0.022370555,-0.03834952,4.56,21.18,-6.12
1554885784088,6.253655,-7.149685000000001,1.7423803,0.013848438000000001,-0.020240024,-0.041545313,4.56,21.18,-6.06
1554885784109,6.272808599999999,-7.211933999999999,1.7280151000000001,0.002130529,-0.013848438000000001,-0.040480047000000005,4.56,21.18,-6.06
1554885784129,6.1626754,-7.2981253,1.9099745,0.0010652645,-0.008522116,-0.040480047000000005,4.56,21.24,-6.06
1554885784149,6.291962,-7.255029700000001,1.7806876,0.008522116,-0.008522116,-0.037284255,4.56,21.24,-6.06
1554885784168,6.191406,-7.2741833,1.7758990000000001,0.025566347000000003,-0.0031957934000000003,-0.03834952,4.56,21.24,-6.06
1554885784188,6.2871737,-7.2406645,1.5556326,0.02130529,-0.004261058,-0.03834952,4.56,21.24,-6.06
1554885784209,6.3111157,-7.269394999999999,1.6561891,0.0063915867,-0.0031957934000000003,-0.04261058,4.56,21.24,-6.06
1554885784230,6.301539,-7.1592617,1.6514006,-0.004261058,-0.0031957934000000003,-0.046871635999999994,4.56,21.24,-6.06
1554885784250,6.3302693,-7.2454529999999995,1.8477252,-0.014913702,-0.0031957934000000003,-0.04580637,4.56,21.24,-6.06
1554885784269,6.1243677000000005,-7.211933999999999,1.9147629000000002,-0.00958738,0.002130529,-0.043675844000000005,4.56,21.24,-6.06
1554885784289,6.2153480000000005,-7.3029137,1.977012,-0.002130529,0.004261058,-0.04261058,4.56,21.24,-6.06
1554885784309,6.363788,-7.283760000000001,1.7758990000000001,0.007456851,0.007456851,-0.040480047000000005,4.56,21.24,-6.12
1554885784329,6.2345014,-7.2646065,1.7950528000000001,0.00958738,0.008522116,-0.040480047000000005,4.56,21.24,-6.12
1554885784349,6.3446345,-7.374739599999999,1.857302,0.014913702,0.008522116,-0.041545313,4.56,21.24,-6.12
1554885784369,6.2632318,-7.2646065,1.7854759999999998,0.020240024,0.004261058,-0.04474111,4.56,21.24,-6.18
1554885784388,6.291962,-7.16405,1.6609775000000002,0.011717908999999999,0.0063915867,-0.046871635999999994,4.56,21.24,-6.18
1554885784409,6.253655,-7.1305312999999995,1.6226702,-0.0010652645,0.007456851,-0.047936900000000005,4.56,21.24,-6.18
1554885784429,6.2823853,-7.1975690000000005,1.6226702,-0.014913702,0.00958738,-0.043675844000000005,4.56,21.24,-6.24
1554885784448,6.2967505,-7.307702000000001,1.9387047999999998,-0.02876214,0.0053263223,-0.046871635999999994,4.56,21.24,-6.24
1554885784469,6.2584434,-7.341221000000001,2.0153193,-0.0053263223,0.008522116,-0.05006743,4.56,21.24,-6.3
1554885784488,6.2823853,-7.116166000000001,1.8046296000000002,0.024501082,0.012783173500000002,-0.046871635999999994,4.56,21.3,-6.3
1554885784509,6.2249246,-7.1448965,1.7663223000000001,0.03195793,0.012783173500000002,-0.04474111,4.56,21.3,-6.36
1554885784529,6.2345014,-7.0826473,1.7758990000000001,0.020240024,0.014913702,-0.041545313,4.56,21.36,-6.42
1554885784548,6.272808599999999,-7.1305312999999995,1.809418,0.013848438000000001,0.011717908999999999,-0.039414786,4.5,21.36,-6.42
1554885784568,6.277597,-7.2071457,1.6514006,0.0053263223,0.008522116,-0.039414786,4.5,21.42,-6.42
1554885784589,6.339846,-7.2167225,1.857302,0.008522116,0.0053263223,-0.041545313,4.44,21.42,-6.42
1554885784609,6.325481,-7.1305312999999995,1.881244,0.018109497,0.0031957934000000003,-0.04261058,4.44,21.42,-6.36
1554885784629,6.2823853,-7.1448965,1.9482816000000003,0.025566347000000003,0.007456851,-0.04261058,4.44,21.42,-6.36
1554885784648,6.2392898,-7.16405,1.8046296000000002,0.02130529,0.0010652645,-0.041545313,4.44,21.36,-6.3
1554885784669,6.2009826,-7.3268557,1.6178818000000001,0.010652645,0.004261058,-0.041545313,4.44,21.3,-6.24
1554885784689,6.3111157,-7.2167225,1.6705543,0.024501082,0.0053263223,-0.039414786,4.44,21.24,-6.24
1554885784708,6.325481,-7.2262993,1.7471686999999998,0.023435817999999997,0.0010652645,-0.040480047000000005,4.44,21.18,-6.24
1554885784728,6.272808599999999,-7.077858999999999,1.7088615000000003,0.00958738,0.004261058,-0.04261058,4.5,21.12,-6.24
1554885784749,6.320692500000001,-7.2646065,1.8477252,-0.004261058,0.0010652645,-0.043675844000000005,4.44,21.06,-6.3
1554885784769,6.301539,-7.1975690000000005,1.9961656000000003,0.010652645,0.0,-0.043675844000000005,4.44,21.0,-6.3
1554885784789,6.244078,-7.1688385,1.8908207,0.03195793,-0.002130529,-0.043675844000000005,4.44,21.0,-6.36
1554885784809,6.2871737,-7.116166000000001,1.7758990000000001,0.041545313,0.0031957934000000003,-0.049002163,4.44,21.0,-6.42
1554885784828,6.3589997,-7.1065892999999996,1.9147629000000002,0.049002163,0.012783173500000002,-0.047936900000000005,4.38,20.94,-6.48
1554885784848,6.3446345,-7.154473299999999,2.0009542000000002,0.06924219,0.022370555,-0.05752428,4.38,20.94,-6.48
1554885784869,6.3589997,-7.140108000000001,1.6609775000000002,0.07776430000000001,0.017044231,-0.051132694000000006,4.38,20.94,-6.48
1554885784889,6.354211299999999,-7.178415299999999,1.8668787,0.03834952,0.007456851,-0.053263225,4.38,20.94,-6.48
1554885784909,6.3446345,-7.1975690000000005,1.809418,0.0010652645,0.0,-0.05219796,4.38,20.94,-6.54
1554885784928,6.363788,-7.231087700000001,1.6753427,-0.0010652645,-0.0053263223,-0.051132694000000006,4.38,20.88,-6.54
1554885784949,6.2823853,-7.0826473,1.8285716,0.015978966,-0.007456851,-0.049002163,4.38,20.88,-6.54
1554885784969,6.244078,-7.101800999999999,1.9243397,0.012783173500000002,-0.00958738,-0.04474111,4.38,20.88,-6.54
1554885784989,6.1818290000000005,-7.0587053,2.1158757,0.00958738,-0.007456851,-0.039414786,4.38,20.88,-6.54
1554885785009,6.1770406,-7.1879919999999995,1.9099745,0.008522116,-0.00958738,-0.03195793,4.38,20.88,-6.54
1554885785029,6.325481,-7.259817999999999,1.8429368000000002,0.004261058,-0.007456851,-0.024501082,4.38,20.88,-6.54
1554885785049,6.411672,-7.2646065,1.8908207,0.00958738,-0.011717908999999999,-0.022370555,4.32,20.88,-6.54
1554885785069,6.435614,-7.178415299999999,1.8860323,0.010652645,-0.01917476,-0.027696876000000002,4.32,20.94,-6.6
1554885785089,6.315904,-7.1209545,1.7280151000000001,0.017044231,-0.020240024,-0.037284255,4.32,21.0,-6.6
1554885785108,6.3685765,-7.0587053,1.8429368000000002,0.017044231,-0.022370555,-0.040480047000000005,4.32,21.0,-6.6
1554885785128,6.2584434,-7.1305312999999995,1.6801311,0.008522116,-0.02130529,-0.036218993,4.32,21.12,-6.66
1554885785148,6.3925184999999995,-7.0251865,1.8333599999999999,-0.0010652645,-0.020240024,-0.03195793,4.32,21.18,-6.72
1554885785169,6.3350577,-7.2454529999999995,1.9865887999999998,0.002130529,-0.011717908999999999,-0.03195793,4.32,21.24,-6.78
1554885785189,6.2871737,-7.1879919999999995,1.8956091,0.015978966,-0.0031957934000000003,-0.034088463,4.32,21.3,-6.78
1554885785209,6.354211299999999,-7.173627000000001,1.9099745,0.023435817999999997,0.007456851,-0.035153727999999995,4.32,21.36,-6.84
1554885785229,6.349423000000001,-7.1209545,1.9482816000000003,0.024501082,0.012783173500000002,-0.035153727999999995,4.32,21.36,-6.84
1554885785249,6.291962,-7.116166000000001,1.8285716,0.017044231,0.023435817999999997,-0.036218993,4.26,21.36,-6.9
1554885785268,6.3446345,-7.0634937,1.8237831999999998,0.008522116,0.027696876000000002,-0.034088463,4.26,21.3,-6.96
1554885785288,6.354211299999999,-7.0634937,1.7950528000000001,-0.002130529,0.027696876000000002,-0.03089267,4.2,21.3,-6.96
1554885785308,6.38773,-7.149685000000001,1.977012,-0.0010652645,0.02876214,-0.035153727999999995,4.14,21.24,-6.96
1554885785329,6.291962,-7.1065892999999996,1.7758990000000001,0.0,0.03089267,-0.036218993,4.14,21.18,-6.96
1554885785349,6.26802,-7.101800999999999,1.7232267,-0.010652645,0.027696876000000002,-0.03834952,4.14,21.18,-6.96
1554885785369,6.315904,-7.178415299999999,1.7375918999999997,-0.023435817999999997,0.022370555,-0.039414786,4.14,21.12,-6.96
1554885785388,6.315904,-7.053917,1.8333599999999999,-0.023435817999999997,0.013848438000000001,-0.037284255,4.14,21.12,-6.96
1554885785408,6.3685765,-7.1353197,1.857302,-0.01917476,0.010652645,-0.035153727999999995,4.14,21.12,-6.9
1554885785428,6.4260373,-7.140108000000001,1.8237831999999998,-0.015978966,0.0010652645,-0.03089267,4.2,21.18,-6.9
1554885785448,6.4260373,-7.16405,1.977012,-0.022370555,0.0010652645,-0.036218993,4.26,21.18,-6.9
1554885785469,6.3925184999999995,-7.154473299999999,1.9099745,-0.025566347000000003,0.0063915867,-0.037284255,4.26,21.18,-6.9
1554885785488,6.397307,-7.178415299999999,1.8716671000000003,-0.027696876000000002,0.007456851,-0.04261058,4.26,21.18,-6.9
1554885785508,6.4404025,-7.1592617,1.8620903000000002,-0.015978966,0.011717908999999999,-0.05219796,4.26,21.12,-6.9
1554885785529,6.3925184999999995,-7.1592617,1.8429368000000002,-0.00958738,0.018109497,-0.056459017,4.26,21.12,-6.84
1554885785549,6.373365,-7.053917,1.7567455,-0.022370555,0.026631612000000002,-0.058589544,4.26,21.12,-6.84
1554885785569,6.3446345,-7.149685000000001,1.809418,-0.03834952,0.03834952,-0.05965481,4.32,21.12,-6.84
1554885785589,6.3589997,-7.101800999999999,1.8046296000000002,-0.04580637,0.041545313,-0.058589544,4.32,21.12,-6.78
1554885785609,6.38773,-7.0347633,1.8620903000000002,-0.041545313,0.05006743,-0.056459017,4.32,21.12,-6.72
1554885785629,6.3446345,-7.0730705,1.8046296000000002,-0.056459017,0.049002163,-0.047936900000000005,4.38,21.12,-6.72
1554885785649,6.4068837,-7.101800999999999,1.7854759999999998,-0.07243799,0.04580637,-0.047936900000000005,4.38,21.12,-6.66
1554885785668,6.3829417,-7.173627000000001,1.7902644,-0.06285059999999999,0.054328485999999995,-0.053263225,4.38,21.12,-6.66
1554885785688,6.4404025,-7.0251865,1.9003976999999999,-0.054328485999999995,0.05219796,-0.05752428,4.44,21.18,-6.66
1554885785709,6.411672,-7.0251865,1.8477252,-0.054328485999999995,0.054328485999999995,-0.06604639400000001,4.44,21.18,-6.66
1554885785729,6.435614,-7.173627000000001,1.7758990000000001,-0.05965481,0.047936900000000005,-0.06391586,4.5,21.24,-6.66
1554885785748,6.4068837,-7.1927805,1.9195513,-0.056459017,0.037284255,-0.06604639400000001,4.5,21.3,-6.72
1554885785769,6.4499793,-7.053917,1.9626468000000001,-0.05006743,0.036218993,-0.06498113,4.44,21.3,-6.72
1554885785788,6.378153299999999,-7.0826473,1.8764555,-0.03195793,0.03089267,-0.06604639400000001,4.44,21.36,-6.78
1554885785809,6.320692500000001,-7.0347633,1.8189948,-0.022370555,0.03089267,-0.06178534,4.38,21.36,-6.78
1554885785829,6.26802,-6.9198413,1.8046296000000002,-0.035153727999999995,0.036218993,-0.05539375,4.32,21.42,-6.84
1554885785849,6.3111157,-6.986878999999999,2.0201077,-0.05965481,0.041545313,-0.05006743,4.26,21.42,-6.84
1554885785868,6.272808599999999,-7.0826473,1.9195513,-0.053263225,0.049002163,-0.04474111,4.26,21.48,-6.84
1554885785892,6.301539,-7.092224000000001,1.9243397,-0.040480047000000005,0.051132694000000006,-0.03834952,4.2,21.6,-6.9
1554885785909,6.272808599999999,-7.053917,2.0009542000000002,-0.029827405,0.05219796,-0.03089267,4.14,21.72,-6.84
1554885785928,6.3589997,-7.1209545,1.9482816000000003,-0.02130529,0.054328485999999995,-0.02130529,4.14,21.84,-6.78
1554885785952,6.325481,-7.116166000000001,1.8333599999999999,-0.020240024,0.04580637,-0.015978966,4.08,22.02,-6.72
1554885785969,6.291962,-7.006033,1.857302,-0.022370555,0.043675844000000005,-0.0063915867,4.08,22.08,-6.72
1554885785988,6.325481,-7.0587053,1.8237831999999998,-0.012783173500000002,0.02876214,0.0,4.08,22.2,-6.66
1554885786008,6.3589997,-7.0587053,1.9865887999999998,0.0063915867,0.015978966,0.0063915867,4.08,22.32,-6.6
1554885786030,6.3350577,-7.0251865,1.9818004,0.0053263223,0.002130529,0.008522116,4.08,22.32,-6.6
1554885786049,6.411672,-6.9820905,1.9961656000000003,0.0010652645,-0.013848438000000001,0.0053263223,4.08,22.26,-6.54
1554885786069,6.339846,-7.1448965,1.9339164,0.007456851,-0.017044231,0.0010652645,4.08,22.2,-6.48
1554885786089,6.3446345,-7.2262993,2.0440497,0.033023197000000004,-0.025566347000000003,-0.0031957934000000003,4.08,22.14,-6.48
1554885786109,6.3302693,-7.020397999999999,1.9243397,0.047936900000000005,-0.01917476,-0.0053263223,4.14,22.08,-6.48
1554885786129,6.244078,-7.020397999999999,1.7902644,0.040480047000000005,-0.015978966,-0.0010652645,4.2,22.08,-6.42
1554885786148,6.220136,-7.1113777,2.0105310000000003,0.020240024,-0.00958738,0.0031957934000000003,4.26,22.08,-6.42
1554885786169,6.272808599999999,-7.1448965,1.9099745,0.014913702,-0.010652645,0.007456851,4.32,22.08,-6.42
1554885786189,6.2823853,-7.1592617,1.8764555,0.015978966,-0.00958738,0.011717908999999999,4.32,22.02,-6.36
1554885786209,6.3063273,-7.116166000000001,1.809418,0.024501082,-0.014913702,0.010652645,4.32,22.02,-6.36
1554885786229,6.2823853,-7.1879919999999995,1.7902644,0.027696876000000002,-0.020240024,0.011717908999999999,4.38,22.02,-6.36
1554885786248,6.3925184999999995,-7.178415299999999,1.8956091,0.024501082,-0.026631612000000002,0.014913702,4.38,22.02,-6.36
1554885786269,6.315904,-7.0874357,1.9722236000000002,0.02876214,-0.026631612000000002,0.017044231,4.38,21.96,-6.36
1554885786289,6.2488665999999995,-7.2454529999999995,1.8956091,0.03089267,-0.03089267,0.018109497,4.38,21.96,-6.36
1554885786310,6.2967505,-7.231087700000001,2.0871453,0.049002163,-0.02876214,0.014913702,4.44,21.96,-6.36
1554885786329,6.26802,-7.2262993,1.8860323,0.068176925,-0.039414786,0.014913702,4.5,21.9,-6.36
1554885786349,6.315904,-7.231087700000001,1.7806876,0.07243799,-0.043675844000000005,0.017044231,4.56,21.9,-6.42
1554885786369,6.3302693,-7.1209545,1.7375918999999997,0.05539375,-0.05006743,0.017044231,4.56,21.9,-6.42
1554885786389,6.3925184999999995,-7.1688385,1.7375918999999997,0.041545313,-0.04580637,0.011717908999999999,4.62,21.9,-6.42
1554885786409,6.2823853,-7.2406645,1.9626468000000001,0.03195793,-0.046871635999999994,0.008522116,4.68,21.84,-6.42
1554885786429,6.2105594,-7.1448965,1.9003976999999999,0.037284255,-0.04474111,0.0010652645,4.68,21.78,-6.48
1554885786448,6.2632318,-7.269394999999999,1.9099745,0.051132694000000006,-0.04261058,-0.002130529,4.74,21.78,-6.48
1554885786468,6.2153480000000005,-7.259817999999999,1.9913772,0.04261058,-0.037284255,-0.002130529,4.74,21.72,-6.48
1554885786489,6.253655,-7.283760000000001,1.9003976999999999,0.033023197000000004,-0.026631612000000002,0.0010652645,4.68,21.66,-6.54
1554885786509,6.220136,-7.2262993,1.7471686999999998,0.033023197000000004,-0.017044231,0.004261058,4.68,21.66,-6.6
1554885786529,6.191406,-7.2167225,1.7423803,0.049002163,-0.010652645,0.002130529,4.68,21.6,-6.66
1554885786549,6.167464,-7.1448965,1.8142063999999998,0.05219796,-0.004261058,0.0010652645,4.68,21.54,-6.66
1554885786569,6.220136,-7.149685000000001,1.9195513,0.043675844000000005,0.002130529,0.0,4.62,21.48,-6.66
1554885786588,6.143522,-7.255029700000001,1.7902644,0.029827405,0.007456851,0.0,4.62,21.42,-6.66
1554885786609,6.133945,-7.231087700000001,1.8477252,0.02876214,0.010652645,0.002130529,4.62,21.36,-6.66
1554885786629,6.2345014,-7.2023573,1.9626468000000001,0.029827405,0.008522116,0.004261058,4.62,21.3,-6.66
1554885786648,6.196194,-7.2454529999999995,1.8620903000000002,0.036218993,0.008522116,0.0053263223,4.62,21.18,-6.66
1554885786668,6.244078,-7.211933999999999,1.8046296000000002,0.049002163,0.0063915867,0.008522116,4.68,21.12,-6.66
1554885786688,6.2392898,-7.2071457,1.7950528000000001,0.04474111,0.00958738,0.004261058,4.68,21.06,-6.6
1554885786709,6.2105594,-7.341221000000001,1.8189948,0.018109497,0.008522116,0.002130529,4.74,21.0,-6.6
1554885786729,6.1866174,-7.422623599999999,1.9865887999999998,0.0053263223,0.013848438000000001,-0.0010652645,4.86,20.94,-6.6
1554885786750,6.1770406,-7.3938932,2.0488381,0.007456851,0.013848438000000001,-0.00958738,4.92,20.94,-6.66
1554885786768,6.191406,-7.2741833,1.8764555,0.010652645,0.014913702,-0.012783173500000002,4.98,20.94,-6.66
1554885786789,6.1626754,-7.1879919999999995,1.7902644,0.011717908999999999,0.00958738,-0.014913702,5.04,20.88,-6.66
1554885786808,6.2105594,-7.178415299999999,1.9195513,0.010652645,0.007456851,-0.02130529,5.04,20.82,-6.66
1554885786829,6.220136,-7.16405,1.8908207,0.0010652645,0.0053263223,-0.025566347000000003,5.04,20.76,-6.66
1554885786848,6.253655,-7.3220673,1.8429368000000002,-0.018109497,0.0031957934000000003,-0.03195793,5.04,20.58,-6.66
1554885786869,6.2105594,-7.317278999999999,1.8381484000000001,-0.027696876000000002,0.013848438000000001,-0.033023197000000004,4.92,20.46,-6.72
1554885786888,6.2392898,-7.283760000000001,2.0009542000000002,-0.025566347000000003,0.013848438000000001,-0.03834952,4.86,20.34,-6.72
1554885786909,6.2584434,-7.2406645,1.7567455,-0.023435817999999997,0.014913702,-0.041545313,4.74,20.22,-6.72
1554885786929,6.2392898,-7.269394999999999,1.7280151000000001,-0.03089267,0.013848438000000001,-0.047936900000000005,4.68,20.1,-6.72
1554885786949,6.277597,-7.2454529999999995,1.8046296000000002,-0.03834952,0.014913702,-0.047936900000000005,4.56,20.04,-6.72
1554885786969,6.196194,-7.2741833,2.0919337,-0.041545313,0.020240024,-0.05006743,4.5,20.1,-6.66
1554885786988,6.2105594,-7.1592617,2.0344729999999998,-0.046871635999999994,0.026631612000000002,-0.05219796,4.5,20.22,-6.66
1554885787008,6.229712999999999,-7.3029137,1.9003976999999999,-0.04474111,0.03089267,-0.05539375,4.5,20.4,-6.6
1554885787028,6.1195793,-7.269394999999999,1.9961656000000003,-0.034088463,0.03834952,-0.05539375,4.5,20.58,-6.54
1554885787049,6.2153480000000005,-7.255029700000001,1.8477252,-0.020240024,0.037284255,-0.051132694000000006,4.5,20.82,-6.48
1554885787069,6.2057709999999995,-7.2071457,1.977012,-0.023435817999999997,0.035153727999999995,-0.053263225,4.5,21.0,-6.42
1554885787089,6.1578870000000006,-7.3220673,1.9099745,-0.022370555,0.036218993,-0.053263225,4.5,21.06,-6.36
1554885787109,6.220136,-7.2071457,2.0871453,-0.020240024,0.03195793,-0.05219796,4.5,21.12,-6.36
1554885787128,6.196194,-7.1879919999999995,1.9722236000000002,-0.01917476,0.029827405,-0.051132694000000006,4.56,21.06,-6.36
1554885787149,6.2392898,-7.1927805,1.9578583999999999,-0.02876214,0.027696876000000002,-0.05219796,4.56,21.06,-6.36
1554885787169,6.1770406,-7.2502413,2.0488381,-0.024501082,0.023435817999999997,-0.043675844000000005,4.5,21.06,-6.36
1554885787189,6.1770406,-7.2262993,2.1015105,-0.013848438000000001,0.01917476,-0.039414786,4.5,21.0,-6.36
1554885787209,6.196194,-7.211933999999999,2.0201077,0.0010652645,0.014913702,-0.035153727999999995,4.5,21.0,-6.36
1554885787230,6.114791,-7.1305312999999995,2.0679917000000003,0.007456851,0.011717908999999999,-0.034088463,4.5,21.0,-6.36
1554885787250,6.2105594,-7.2215110000000005,2.0009542000000002,-0.010652645,0.010652645,-0.03195793,4.56,21.0,-6.36
1554885787270,6.2105594,-7.1975690000000005,2.154183,-0.0010652645,0.012783173500000002,-0.025566347000000003,4.62,21.0,-6.36
1554885787290,6.2009826,-7.2454529999999995,2.0919337,0.0,0.008522116,-0.026631612000000002,4.62,21.06,-6.42
1554885787309,6.167464,-7.2981253,1.929128,0.0,0.0,-0.025566347000000003,4.68,21.06,-6.42
1554885787329,6.2009826,-7.211933999999999,2.0632033,0.0063915867,0.002130529,-0.026631612000000002,4.74,21.12,-6.36
1554885787349,6.1818290000000005,-7.2071457,2.0009542000000002,0.013848438000000001,0.0031957934000000003,-0.027696876000000002,4.8,21.12,-6.36
1554885787369,6.1578870000000006,-7.173627000000001,2.0248961,0.007456851,0.002130529,-0.025566347000000003,4.86,21.18,-6.3
1554885787388,6.1243677000000005,-7.211933999999999,2.0440497,0.00958738,0.002130529,-0.020240024,4.92,21.24,-6.24
1554885787408,6.1818290000000005,-7.2885485,1.9578583999999999,0.011717908999999999,0.002130529,-0.014913702,4.92,21.24,-6.24
1554885787429,6.2105594,-7.3124905,2.0775685,0.023435817999999997,-0.0031957934000000003,-0.010652645,4.86,21.3,-6.18
1554885787448,6.2105594,-7.2741833,1.9387047999999998,0.033023197000000004,-0.004261058,-0.011717908999999999,4.86,21.3,-6.18
1554885787469,6.1818290000000005,-7.149685000000001,1.9387047999999998,0.04261058,-0.0053263223,-0.018109497,4.86,21.3,-6.12
1554885787489,6.1387334000000005,-7.2215110000000005,1.9195513,0.036218993,-0.011717908999999999,-0.022370555,4.8,21.36,-6.12
1554885787509,6.1387334000000005,-7.2741833,1.8477252,0.027696876000000002,-0.013848438000000001,-0.02130529,4.74,21.48,-6.12
1554885787528,6.196194,-7.1927805,2.0105310000000003,0.025566347000000003,-0.01917476,-0.018109497,4.74,21.54,-6.12
1554885787548,6.2153480000000005,-7.2215110000000005,1.9961656000000003,0.023435817999999997,-0.01917476,-0.017044231,4.68,21.6,-6.12
1554885787569,6.2153480000000005,-7.317278999999999,1.9818004,0.02876214,-0.023435817999999997,-0.01917476,4.62,21.72,-6.12
1554885787589,6.1626754,-7.2502413,1.8908207,0.03834952,-0.025566347000000003,-0.020240024,4.62,21.78,-6.12
1554885787609,6.2392898,-7.173627000000001,1.8046296000000002,0.034088463,-0.027696876000000002,-0.023435817999999997,4.62,21.84,-6.12
1554885787629,6.1387334000000005,-7.2646065,1.8333599999999999,0.022370555,-0.026631612000000002,-0.023435817999999997,4.62,21.9,-6.12
1554885787649,6.133945,-7.1592617,1.7615339,0.017044231,-0.02876214,-0.024501082,4.62,21.9,-6.12
1554885787669,6.1530986,-7.2789717000000005,1.9626468000000001,0.015978966,-0.026631612000000002,-0.024501082,4.62,21.84,-6.12
1554885787688,6.100425700000001,-7.3029137,1.9865887999999998,0.018109497,-0.027696876000000002,-0.025566347000000003,4.62,21.84,-6.12
1554885787708,6.196194,-7.2406645,1.9913772,0.026631612000000002,-0.027696876000000002,-0.026631612000000002,4.68,21.78,-6.18
1554885787730,6.26802,-7.3220673,1.8429368000000002,0.024501082,-0.025566347000000003,-0.025566347000000003,4.74,21.78,-6.18
1554885787750,6.2392898,-7.211933999999999,1.8477252,0.015978966,-0.020240024,-0.03195793,4.74,21.72,-6.24
1554885787769,6.2249246,-7.2502413,1.9195513,0.012783173500000002,-0.017044231,-0.033023197000000004,4.8,21.72,-6.24
1554885787789,6.1866174,-7.2215110000000005,1.7711107,0.012783173500000002,-0.015978966,-0.036218993,4.86,21.66,-6.3
1554885787809,6.1770406,-7.2454529999999995,1.9147629000000002,0.013848438000000001,-0.013848438000000001,-0.034088463,4.86,21.6,-6.3
1554885787829,6.1818290000000005,-7.255029700000001,1.8333599999999999,0.012783173500000002,-0.008522116,-0.033023197000000004,4.92,21.54,-6.3
1554885787849,6.196194,-7.2741833,2.0392613,0.004261058,-0.007456851,-0.033023197000000004,4.98,21.48,-6.3
1554885787869,6.2392898,-7.3029137,1.9482816000000003,-0.0010652645,-0.004261058,-0.035153727999999995,4.98,21.42,-6.36
1554885787889,6.1866174,-7.317278999999999,1.9865887999999998,0.007456851,0.002130529,-0.035153727999999995,4.98,21.42,-6.36
1554885787908,6.167464,-7.2262993,1.9147629000000002,0.014913702,0.0,-0.035153727999999995,5.04,21.36,-6.36
1554885787928,6.100425700000001,-7.2406645,1.9674352,0.014913702,-0.004261058,-0.03195793,5.04,21.3,-6.36
1554885787949,6.277597,-7.2023573,1.9099745,-0.002130529,-0.0010652645,-0.027696876000000002,5.04,21.3,-6.36
1554885787969,6.143522,-7.2406645,1.9003976999999999,-0.011717908999999999,-0.002130529,-0.025566347000000003,5.04,21.3,-6.36
1554885787989,6.1626754,-7.2262993,1.9913772,-0.010652645,-0.008522116,-0.02130529,4.98,21.3,-6.36
1554885788009,6.105214,-7.231087700000001,2.0679917000000003,-0.0063915867,-0.008522116,-0.02130529,4.92,21.24,-6.36
1554885788029,6.253655,-7.2262993,1.9339164,0.0,-0.011717908999999999,-0.02130529,4.86,21.3,-6.36
1554885788048,6.2009826,-7.178415299999999,1.8668787,0.0010652645,-0.012783173500000002,-0.01917476,4.8,21.36,-6.36
1554885788068,6.3063273,-7.2167225,2.0009542000000002,0.0010652645,-0.012783173500000002,-0.013848438000000001,4.74,21.42,-6.36
1554885788088,6.2153480000000005,-7.116166000000001,1.8764555,0.0053263223,-0.014913702,-0.01917476,4.68,21.48,-6.36
1554885788109,6.1530986,-7.1448965,1.8860323,0.002130529,-0.018109497,-0.015978966,4.62,21.48,-6.3
1554885788128,6.196194,-7.255029700000001,2.0296845,-0.0031957934000000003,-0.02130529,-0.01917476,4.56,21.3,-6.3
1554885788148,6.1483099999999995,-7.1975690000000005,2.0201077,-0.0053263223,-0.02130529,-0.02130529,4.62,21.18,-6.24
1554885788168,6.2057709999999995,-7.283760000000001,1.9578583999999999,-0.012783173500000002,-0.02130529,-0.025566347000000003,4.68,21.06,-6.3
1554885788189,6.272808599999999,-7.2023573,2.0153193,-0.004261058,-0.01917476,-0.035153727999999995,4.74,20.88,-6.3
1554885788208,6.2345014,-7.2406645,1.9339164,0.00958738,-0.020240024,-0.034088463,4.74,20.7,-6.3
1554885788229,6.129156,-7.1688385,1.8956091,0.0053263223,-0.02130529,-0.033023197000000004,4.8,20.58,-6.3
1554885788249,6.129156,-7.140108000000001,1.8956091,0.004261058,-0.02130529,-0.033023197000000004,4.86,20.46,-6.3
1554885788269,6.1387334000000005,-7.2215110000000005,1.9482816000000003,0.010652645,-0.015978966,-0.027696876000000002,4.86,20.46,-6.36
1554885788289,6.1866174,-7.1975690000000005,1.9195513,0.007456851,-0.015978966,-0.026631612000000002,4.86,20.58,-6.36
1554885788309,6.244078,-7.2406645,2.0727801,0.002130529,-0.018109497,-0.026631612000000002,4.86,20.7,-6.36
1554885788328,6.0860605,-7.1879919999999995,1.929128,0.013848438000000001,-0.013848438000000001,-0.024501082,4.86,20.82,-6.36
1554885788348,6.1818290000000005,-7.2789717000000005,1.9195513,0.017044231,-0.013848438000000001,-0.02130529,4.92,20.94,-6.3
1554885788369,6.167464,-7.2406645,2.0105310000000003,0.014913702,-0.008522116,-0.018109497,4.98,21.0,-6.3
1554885788389,6.172251999999999,-7.16405,1.9818004,0.020240024,-0.008522116,-0.017044231,5.04,21.06,-6.3
1554885788409,6.1483099999999995,-7.283760000000001,1.9961656000000003,0.03195793,-0.00958738,-0.013848438000000001,5.04,21.06,-6.36
1554885788429,6.143522,-7.1879919999999995,1.7663223000000001,0.025566347000000003,-0.00958738,-0.014913702,5.1,21.0,-6.36
1554885788449,6.26802,-7.269394999999999,1.881244,0.014913702,-0.011717908999999999,-0.014913702,5.16,21.0,-6.36
1554885788469,6.244078,-7.2023573,1.8956091,0.013848438000000001,-0.011717908999999999,-0.014913702,5.22,21.0,-6.42
1554885788489,6.1626754,-7.173627000000001,1.7902644,0.007456851,-0.012783173500000002,-0.013848438000000001,5.28,21.0,-6.42
1554885788509,6.133945,-7.2406645,2.0440497,0.007456851,-0.013848438000000001,-0.015978966,5.28,21.0,-6.42
1554885788528,6.1387334000000005,-7.2215110000000005,1.9722236000000002,0.004261058,-0.015978966,-0.018109497,5.28,21.0,-6.42
1554885788550,6.2823853,-7.255029700000001,1.977012,0.004261058,-0.014913702,-0.015978966,5.28,21.0,-6.42
1554885788570,6.191406,-7.231087700000001,1.9818004,0.014913702,-0.012783173500000002,-0.02130529,5.22,20.94,-6.42
1554885788590,6.129156,-7.259817999999999,1.9626468000000001,0.022370555,-0.010652645,-0.01917476,5.22,20.94,-6.36
1554885788609,6.0956373,-7.2071457,1.8285716,0.010652645,-0.011717908999999999,-0.017044231,5.22,20.94,-6.3
1554885788629,6.172251999999999,-7.255029700000001,1.9003976999999999,0.002130529,-0.011717908999999999,-0.011717908999999999,5.22,20.94,-6.3
1554885788649,6.191406,-7.2167225,1.9722236000000002,0.0010652645,-0.007456851,-0.011717908999999999,5.22,20.94,-6.24
1554885788669,6.100425700000001,-7.231087700000001,1.9195513,0.0010652645,-0.008522116,-0.010652645,5.16,20.94,-6.24
1554885788689,6.2057709999999995,-7.2262993,2.0153193,-0.002130529,-0.0053263223,-0.012783173500000002,5.16,21.0,-6.3
1554885788708,6.100425700000001,-7.3029137,1.9961656000000003,-0.004261058,-0.0010652645,-0.012783173500000002,5.16,20.94,-6.36
1554885788729,6.114791,-7.3460092999999995,2.0775685,-0.0031957934000000003,0.0053263223,-0.013848438000000001,5.1,20.94,-6.42
1554885788749,6.1483099999999995,-7.2406645,2.0009542000000002,0.0063915867,0.0063915867,-0.012783173500000002,5.1,20.94,-6.48
1554885788768,6.1818290000000005,-7.2741833,1.9147629000000002,0.0063915867,0.007456851,-0.015978966,5.1,20.94,-6.6
1554885788788,6.1100025,-7.2406645,1.8956091,0.0053263223,0.008522116,-0.015978966,5.1,20.94,-6.66
1554885788809,6.2009826,-7.2023573,1.9387047999999998,0.002130529,0.004261058,-0.018109497,5.04,20.94,-6.72
1554885788829,6.1483099999999995,-7.2023573,1.9626468000000001,-0.002130529,0.0063915867,-0.020240024,5.04,20.94,-6.72
1554885788848,6.1483099999999995,-7.2023573,1.8477252,-0.020240024,0.0063915867,-0.022370555,5.04,21.0,-6.72
1554885788869,6.1866174,-7.3029137,1.9818004,-0.020240024,0.0063915867,-0.023435817999999997,5.04,21.0,-6.72
1554885788889,6.167464,-7.307702000000001,2.0919337,-0.010652645,0.0053263223,-0.02130529,4.98,21.06,-6.72
1554885788909,6.0764837,-7.2215110000000005,1.9434932,0.0010652645,0.004261058,-0.020240024,4.98,21.12,-6.66
1554885788928,6.1578870000000006,-7.2981253,1.9147629000000002,0.0063915867,0.004261058,-0.02130529,4.98,21.12,-6.66
1554885788948,6.1626754,-7.2885485,1.7280151000000001,-0.002130529,-0.0031957934000000003,-0.018109497,4.98,21.12,-6.66
1554885788970,6.1818290000000005,-7.2981253,1.8046296000000002,-0.010652645,-0.008522116,-0.024501082,4.98,21.18,-6.66
1554885788990,6.1818290000000005,-7.1975690000000005,1.9482816000000003,-0.00958738,-0.008522116,-0.026631612000000002,5.04,21.18,-6.6
1554885789009,6.1866174,-7.259817999999999,1.9147629000000002,-0.00958738,-0.00958738,-0.027696876000000002,5.04,21.18,-6.6
1554885789029,6.133945,-7.2454529999999995,1.9387047999999998,-0.020240024,-0.008522116,-0.029827405,5.1,21.18,-6.48
1554885789049,6.1578870000000006,-7.2885485,2.0775685,-0.00958738,-0.0031957934000000003,-0.03195793,5.1,21.18,-6.42
1554885789069,6.1866174,-7.307702000000001,2.0727801,0.002130529,-0.0063915867,-0.03195793,5.1,21.12,-6.36
1554885789089,6.172251999999999,-7.2262993,1.9865887999999998,0.011717908999999999,-0.0053263223,-0.03834952,5.1,21.12,-6.3
1554885789109,6.042965000000001,-7.1975690000000005,1.8429368000000002,0.010652645,-0.0010652645,-0.040480047000000005,5.1,21.12,-6.18
1554885789129,6.1387334000000005,-7.2502413,1.8237831999999998,0.004261058,0.0031957934000000003,-0.043675844000000005,5.16,21.12,-6.12
1554885789148,6.133945,-7.211933999999999,2.0296845,-0.011717908999999999,0.0031957934000000003,-0.03834952,5.16,21.12,-6.12
1554885789169,6.2009826,-7.2885485,2.0679917000000003,-0.010652645,0.0010652645,-0.03834952,5.16,21.12,-6.18
1554885789189,6.167464,-7.211933999999999,2.202067,-0.004261058,0.002130529,-0.040480047000000005,5.16,21.12,-6.24
1554885789208,6.100425700000001,-7.283760000000001,2.0536265,0.0010652645,0.0010652645,-0.040480047000000005,5.16,21.12,-6.3
1554885789228,6.1483099999999995,-7.3364325,1.929128,0.008522116,-0.0010652645,-0.041545313,5.16,21.06,-6.42
1554885789249,6.2392898,-7.2262993,1.7663223000000001,0.027696876000000002,-0.0063915867,-0.037284255,5.16,21.12,-6.48
1554885789269,6.1578870000000006,-7.2071457,1.7854759999999998,0.033023197000000004,-0.011717908999999999,-0.039414786,5.1,21.18,-6.54
1554885789288,6.1578870000000006,-7.2023573,2.0344729999999998,0.01917476,-0.014913702,-0.039414786,5.1,21.24,-6.54
1554885789309,6.129156,-7.2023573,1.8668787,0.012783173500000002,-0.020240024,-0.036218993,5.04,21.3,-6.6
1554885789328,6.172251999999999,-7.1448965,1.8620903000000002,0.012783173500000002,-0.02130529,-0.037284255,5.04,21.3,-6.6
1554885789348,6.172251999999999,-7.269394999999999,1.9387047999999998,0.012783173500000002,-0.01917476,-0.033023197000000004,5.04,21.36,-6.6
1554885789369,6.1387334000000005,-7.1927805,1.8908207,-0.0010652645,-0.014913702,-0.034088463,5.04,21.42,-6.54
1554885789388,6.2009826,-7.2789717000000005,1.9243397,0.0,-0.012783173500000002,-0.034088463,5.04,21.36,-6.54
1554885789409,6.2057709999999995,-7.2406645,1.977012,0.0031957934000000003,-0.011717908999999999,-0.035153727999999995,5.04,21.24,-6.48
1554885789429,6.220136,-7.173627000000001,1.8908207,0.00958738,-0.015978966,-0.034088463,5.04,21.18,-6.42
1554885789449,6.1866174,-7.2981253,1.8189948,0.011717908999999999,-0.015978966,-0.033023197000000004,4.98,21.12,-6.3
1554885789469,6.191406,-7.2502413,1.6944963,0.0063915867,-0.017044231,-0.02876214,4.98,21.12,-6.24
1554885789490,6.167464,-7.2646065,1.8142063999999998,0.007456851,-0.01917476,-0.03195793,4.98,21.12,-6.18
1554885789509,6.191406,-7.2741833,1.9482816000000003,0.007456851,-0.01917476,-0.034088463,4.98,21.12,-6.12
1554885789529,6.2632318,-7.231087700000001,1.8237831999999998,0.002130529,-0.022370555,-0.035153727999999995,4.92,21.12,-6.06
1554885789548,6.1100025,-7.2262993,1.9578583999999999,0.0053263223,-0.020240024,-0.03195793,4.86,21.18,-6.06
1554885789568,6.196194,-7.2502413,1.9578583999999999,0.0031957934000000003,-0.017044231,-0.03195793,4.86,21.24,-6.06
1554885789588,6.2345014,-7.2262993,1.8860323,-0.0010652645,-0.017044231,-0.03089267,4.8,21.3,-6.06
1554885789609,6.196194,-7.211933999999999,1.8764555,-0.0031957934000000003,-0.012783173500000002,-0.03195793,4.74,21.36,-6.06
1554885789628,6.1818290000000005,-7.1879919999999995,1.8189948,-0.002130529,-0.012783173500000002,-0.034088463,4.74,21.42,-6.12
1554885789651,6.1578870000000006,-7.3124905,1.9482816000000003,-0.004261058,-0.00958738,-0.03089267,4.8,21.42,-6.12
1554885789669,6.2057709999999995,-7.3268557,1.9003976999999999,-0.004261058,-0.008522116,-0.02876214,4.92,21.48,-6.18
1554885789688,6.196194,-7.2071457,1.8285716,-0.0031957934000000003,-0.004261058,-0.025566347000000003,4.98,21.48,-6.18
1554885789709,6.1483099999999995,-7.2454529999999995,2.0153193,0.0,-0.002130529,-0.025566347000000003,5.1,21.48,-6.18
1554885789729,6.1243677000000005,-7.2406645,1.7902644,0.002130529,-0.0063915867,-0.026631612000000002,5.16,21.48,-6.18
1554885789749,6.1866174,-7.2646065,1.8716671000000003,0.0010652645,-0.004261058,-0.024501082,5.22,21.48,-6.18
1554885789768,6.0860605,-7.259817999999999,1.7615339,0.004261058,-0.002130529,-0.025566347000000003,5.34,21.42,-6.18
1554885789788,6.114791,-7.3268557,1.7711107,0.012783173500000002,-0.002130529,-0.026631612000000002,5.4,21.42,-6.18
1554885789809,6.1195793,-7.1975690000000005,1.8668787,0.0031957934000000003,0.0010652645,-0.024501082,5.4,21.42,-6.18
1554885789829,6.066907,-7.2646065,2.0153193,0.0010652645,0.007456851,-0.027696876000000002,5.4,21.42,-6.18
1554885789849,6.1626754,-7.2789717000000005,1.9195513,0.0053263223,0.007456851,-0.025566347000000003,5.4,21.42,-6.18
1554885789869,6.1770406,-7.307702000000001,1.881244,0.008522116,0.0053263223,-0.026631612000000002,5.4,21.3,-6.18
1554885789888,6.1578870000000006,-7.2502413,1.929128,0.00958738,0.0063915867,-0.022370555,5.4,21.24,-6.12
1554885789908,6.220136,-7.3364325,2.0392613,0.00958738,0.007456851,-0.022370555,5.34,21.12,-6.12
1554885789929,6.1530986,-7.3364325,2.0009542000000002,0.012783173500000002,0.0,-0.026631612000000002,5.34,21.0,-6.12
1554885789950,6.105214,-7.2167225,2.0440497,0.023435817999999997,-0.0031957934000000003,-0.024501082,5.34,20.88,-6.06
1554885789970,6.0956373,-7.2262993,1.7423803,0.024501082,-0.012783173500000002,-0.02130529,5.34,20.76,-6.06
1554885789988,6.172251999999999,-7.2502413,1.8620903000000002,0.022370555,-0.013848438000000001,-0.02130529,5.34,20.7,-6.06
1554885790008,6.1387334000000005,-7.2502413,1.8477252,0.01917476,-0.013848438000000001,-0.01917476,5.34,20.7,-6.0
1554885790028,6.172251999999999,-7.2071457,1.8764555,0.00958738,-0.014913702,-0.017044231,5.34,20.82,-6.0
1554885790049,6.1578870000000006,-7.2215110000000005,1.9913772,0.013848438000000001,-0.010652645,-0.02130529,5.28,20.88,-6.0
1554885790069,6.0764837,-7.2981253,1.9626468000000001,0.022370555,-0.0063915867,-0.020240024,5.28,20.94,-6.0
1554885790089,6.114791,-7.3029137,2.0105310000000003,0.026631612000000002,-0.002130529,-0.01917476,5.22,21.06,-6.0
1554885790108,6.1578870000000006,-7.2167225,1.8285716,0.024501082,0.007456851,-0.017044231,5.16,21.12,-6.0
1554885790128,6.272808599999999,-7.307702000000001,2.0248961,0.011717908999999999,0.008522116,-0.018109497,5.1,21.18,-6.06
1554885790149,6.26802,-7.355586,1.9003976999999999,0.0,0.00958738,-0.022370555,5.04,21.18,-6.06
1554885790169,6.196194,-7.374739599999999,1.9674352,0.011717908999999999,0.007456851,-0.02876214,5.04,21.18,-6.06
1554885790189,6.1866174,-7.3268557,1.8429368000000002,0.020240024,0.004261058,-0.03089267,4.98,21.18,-6.06
1554885790208,6.129156,-7.2789717000000005,2.0440497,0.022370555,0.0031957934000000003,-0.03089267,4.98,21.18,-6.12
1554885790228,6.1578870000000006,-7.1592617,1.7663223000000001,0.012783173500000002,-0.007456851,-0.029827405,4.98,21.18,-6.12
1554885790249,6.1100025,-7.2502413,1.929128,0.008522116,-0.012783173500000002,-0.026631612000000002,4.98,21.18,-6.12
1554885790269,6.1578870000000006,-7.3699512,1.8142063999999998,0.0031957934000000003,-0.020240024,-0.026631612000000002,4.92,21.18,-6.12
1554885790289,6.172251999999999,-7.255029700000001,1.9626468000000001,0.0053263223,-0.02876214,-0.029827405,4.92,21.12,-6.12
1554885790308,6.1195793,-7.2646065,1.9674352,0.012783173500000002,-0.03195793,-0.02876214,4.92,21.12,-6.12
1554885790328,6.1578870000000006,-7.2981253,2.0344729999999998,0.015978966,-0.036218993,-0.033023197000000004,4.92,21.12,-6.12
1554885790349,6.1818290000000005,-7.3603745,2.0392613,0.017044231,-0.039414786,-0.034088463,4.92,21.12,-6.18
1554885790369,6.272808599999999,-7.3699512,2.0009542000000002,0.020240024,-0.039414786,-0.03089267,4.86,21.18,-6.24
1554885790388,6.277597,-7.3364325,2.0392613,0.025566347000000003,-0.041545313,-0.036218993,4.86,21.18,-6.3
1554885790408,6.2057709999999995,-7.1927805,1.7854759999999998,0.03089267,-0.043675844000000005,-0.037284255,4.92,21.18,-6.42
1554885790429,6.172251999999999,-7.1879919999999995,1.8333599999999999,0.025566347000000003,-0.04580637,-0.036218993,4.92,21.18,-6.48
1554885790449,6.244078,-7.053917,1.7806876,0.011717908999999999,-0.046871635999999994,-0.035153727999999995,4.92,21.18,-6.54
1554885790469,6.1818290000000005,-7.3460092999999995,2.0105310000000003,0.0010652645,-0.043675844000000005,-0.035153727999999995,4.98,21.18,-6.6
1554885790488,6.2488665999999995,-7.3220673,1.9626468000000001,0.0053263223,-0.040480047000000005,-0.037284255,4.98,21.18,-6.6
1554885790508,6.2823853,-7.2741833,1.8237831999999998,0.012783173500000002,-0.033023197000000004,-0.03834952,5.04,21.18,-6.6
1554885790529,6.1866174,-7.269394999999999,1.8477252,0.023435817999999997,-0.026631612000000002,-0.03834952,5.04,21.18,-6.6
1554885790549,6.133945,-7.2023573,1.7758990000000001,0.018109497,-0.022370555,-0.035153727999999995,5.04,21.18,-6.6
1554885790569,6.2009826,-7.2454529999999995,1.7854759999999998,-0.0053263223,-0.015978966,-0.03195793,5.04,21.18,-6.6
1554885790589,6.196194,-7.4034699999999996,2.0248961,-0.018109497,-0.010652645,-0.03195793,5.04,21.18,-6.54
1554885790609,6.220136,-7.379528,2.1254525,0.0,-0.00958738,-0.034088463,5.04,21.18,-6.54
1554885790628,6.2249246,-7.2071457,2.0153193,0.022370555,-0.00958738,-0.035153727999999995,5.04,21.24,-6.54
1554885790648,6.1770406,-7.2262993,1.9578583999999999,0.018109497,-0.0031957934000000003,-0.036218993,5.04,21.24,-6.6
1554885790669,6.1866174,-7.3220673,1.8429368000000002,0.015978966,0.0,-0.03195793,5.04,21.24,-6.6
1554885790689,6.1243677000000005,-7.2023573,1.7854759999999998,0.018109497,0.0,-0.03089267,5.04,21.24,-6.66
1554885790709,6.129156,-7.1879919999999995,1.7758990000000001,0.013848438000000001,0.0010652645,-0.029827405,5.04,21.3,-6.66
1554885790729,6.1243677000000005,-7.2502413,1.8189948,0.014913702,0.0,-0.02876214,5.04,21.3,-6.66
1554885790749,6.2584434,-7.2406645,1.929128,0.011717908999999999,-0.004261058,-0.02876214,5.04,21.3,-6.66
1554885790768,6.244078,-7.1353197,1.9865887999999998,0.014913702,-0.0010652645,-0.03089267,5.04,21.3,-6.66
1554885790788,6.229712999999999,-7.211933999999999,1.9147629000000002,0.0063915867,0.0,-0.033023197000000004,5.04,21.24,-6.66
1554885790809,6.129156,-7.269394999999999,1.8668787,0.0010652645,-0.0010652645,-0.03089267,5.04,21.18,-6.6
1554885790829,6.220136,-7.2789717000000005,1.9434932,0.0010652645,-0.002130529,-0.03195793,5.04,21.12,-6.54
1554885790849,6.2392898,-7.2023573,1.8668787,0.024501082,-0.004261058,-0.035153727999999995,4.98,21.12,-6.48
1554885790869,6.1770406,-7.2023573,1.8189948,0.027696876000000002,0.0,-0.036218993,4.98,21.12,-6.42
1554885790889,6.1626754,-7.2454529999999995,1.8381484000000001,0.00958738,0.0031957934000000003,-0.037284255,4.98,21.18,-6.42
1554885790908,6.191406,-7.1879919999999995,1.857302,0.0,0.0031957934000000003,-0.039414786,4.98,21.24,-6.36
1554885790928,6.2823853,-7.269394999999999,1.9003976999999999,-0.0053263223,0.008522116,-0.041545313,4.98,21.3,-6.3
1554885790949,6.1578870000000006,-7.2215110000000005,2.0296845,-0.007456851,0.015978966,-0.04261058,4.98,21.42,-6.42
1554885790969,6.133945,-7.3220673,1.9003976999999999,-0.0053263223,0.015978966,-0.043675844000000005,4.98,21.48,-6.48
1554885790989,6.2153480000000005,-7.3220673,1.9099745,0.0010652645,0.013848438000000001,-0.043675844000000005,4.98,21.54,-6.54
1554885791009,6.253655,-7.2071457,1.8908207,0.00958738,0.017044231,-0.04474111,4.98,21.6,-6.6
1554885791029,6.220136,-7.2502413,1.929128,0.012783173500000002,0.018109497,-0.043675844000000005,5.04,21.54,-6.66
1554885791048,6.1866174,-7.2789717000000005,1.9195513,0.004261058,0.017044231,-0.04261058,5.1,21.48,-6.66
1554885791068,6.1866174,-7.2454529999999995,1.9099745,-0.0010652645,0.018109497,-0.040480047000000005,5.1,21.42,-6.72
1554885791089,6.26802,-7.2789717000000005,1.9626468000000001,-0.010652645,0.018109497,-0.039414786,5.16,21.3,-6.78
1554885791110,6.1530986,-7.1065892999999996,1.9818004,-0.004261058,0.018109497,-0.04261058,5.22,21.18,-6.72
1554885791129,6.1626754,-7.341221000000001,1.8956091,-0.0031957934000000003,0.017044231,-0.041545313,5.28,21.12,-6.72
1554885791149,6.172251999999999,-7.231087700000001,1.9434932,0.0010652645,0.014913702,-0.041545313,5.28,21.06,-6.66
1554885791169,6.2105594,-7.2406645,1.8333599999999999,0.008522116,0.018109497,-0.03834952,5.34,20.94,-6.66
1554885791188,6.129156,-7.116166000000001,1.9818004,0.010652645,0.013848438000000001,-0.036218993,5.28,20.94,-6.66
1554885791208,6.196194,-7.154473299999999,1.881244,0.002130529,0.012783173500000002,-0.034088463,5.22,21.0,-6.6
1554885791231,6.2105594,-7.2406645,1.8429368000000002,-0.004261058,0.015978966,-0.035153727999999995,5.16,21.0,-6.6
1554885791248,6.2105594,-7.2406645,1.8429368000000002,-0.004261058,0.015978966,-0.035153727999999995,5.16,21.0,-6.6
1554885791268,6.229712999999999,-7.1065892999999996,1.7950528000000001,0.023435817999999997,0.010652645,-0.035153727999999995,4.98,21.06,-6.6
1554885791288,6.1243677000000005,-7.0634937,1.8333599999999999,0.00958738,0.00958738,-0.035153727999999995,4.8,21.12,-6.54
1554885791309,6.172251999999999,-7.173627000000001,1.8333599999999999,-0.02130529,0.0053263223,-0.027696876000000002,4.74,21.12,-6.54
1554885791328,6.1626754,-7.283760000000001,1.9003976999999999,-0.03834952,0.010652645,-0.027696876000000002,4.68,21.12,-6.54
1554885791349,6.2249246,-7.3938932,2.1206641,-0.03195793,0.0053263223,-0.02876214,4.62,21.12,-6.54
1554885791368,6.2584434,-7.178415299999999,1.7615339,-0.014913702,0.008522116,-0.035153727999999995,4.56,21.12,-6.54
1554885791388,6.2153480000000005,-7.2167225,1.8477252,-0.010652645,0.007456851,-0.037284255,4.62,21.06,-6.54
1554885791409,6.220136,-7.2215110000000005,1.9674352,-0.027696876000000002,0.007456851,-0.040480047000000005,4.68,21.06,-6.54
1554885791429,6.373365,-7.2789717000000005,1.9003976999999999,-0.034088463,0.010652645,-0.04580637,4.8,21.06,-6.54
1554885791448,6.220136,-7.2646065,1.9099745,-0.022370555,0.018109497,-0.047936900000000005,4.86,21.06,-6.54
1554885791469,6.2584434,-7.140108000000001,2.0153193,-0.01917476,0.02876214,-0.049002163,4.98,21.12,-6.48
1554885791489,6.2584434,-7.1448965,2.0536265,-0.015978966,0.04261058,-0.049002163,5.04,21.18,-6.42
1554885791509,6.2871737,-7.178415299999999,2.0201077,-0.018109497,0.051132694000000006,-0.043675844000000005,5.04,21.18,-6.42
1554885791529,6.1770406,-7.1879919999999995,2.168548,-0.020240024,0.05752428,-0.04261058,5.1,21.3,-6.36
1554885791549,6.167464,-7.317278999999999,2.1206641,-0.024501082,0.05965481,-0.040480047000000005,5.1,21.36,-6.3
1554885791569,6.253655,-7.2981253,1.8477252,-0.00958738,0.05006743,-0.03834952,5.1,21.36,-6.3
1554885791589,6.2584434,-7.101800999999999,2.1158757,-0.002130529,0.04261058,-0.03834952,5.1,21.42,-6.24
1554885791608,6.2057709999999995,-7.149685000000001,1.9195513,-0.015978966,0.034088463,-0.034088463,5.1,21.48,-6.24
1554885791628,6.2392898,-7.0826473,2.0296845,-0.039414786,0.020240024,-0.039414786,5.1,21.54,-6.3
1554885791648,6.1626754,-7.255029700000001,1.9195513,-0.043675844000000005,0.010652645,-0.039414786,5.1,21.6,-6.3
1554885791669,6.1483099999999995,-7.2454529999999995,1.9961656000000003,-0.03834952,0.002130529,-0.037284255,5.1,21.6,-6.36
1554885791689,6.2009826,-7.3124905,1.9722236000000002,-0.025566347000000003,0.0010652645,-0.035153727999999995,5.1,21.6,-6.36
1554885791708,6.229712999999999,-7.154473299999999,2.1493945,-0.02130529,0.002130529,-0.03195793,5.1,21.6,-6.42
1554885791728,6.2871737,-7.3220673,1.9003976999999999,-0.012783173500000002,0.0053263223,-0.03089267,5.16,21.6,-6.36
1554885791748,6.301539,-7.2981253,1.9434932,-0.008522116,0.011717908999999999,-0.02876214,5.16,21.54,-6.36
1554885791769,6.26802,-7.173627000000001,1.9482816000000003,-0.002130529,0.013848438000000001,-0.03089267,5.16,21.54,-6.36
1554885791791,6.3063273,-7.0491285,1.8237831999999998,-0.015978966,0.014913702,-0.03834952,5.16,21.54,-6.36
1554885791809,6.1866174,-7.16405,1.9387047999999998,-0.02876214,0.014913702,-0.040480047000000005,5.16,21.48,-6.36
1554885791828,6.2823853,-7.255029700000001,1.9387047999999998,-0.037284255,0.015978966,-0.043675844000000005,5.1,21.48,-6.36
1554885791850,6.2057709999999995,-7.231087700000001,1.8620903000000002,-0.033023197000000004,0.018109497,-0.04580637,5.1,21.42,-6.42
1554885791868,6.2009826,-7.1688385,1.977012,-0.025566347000000003,0.014913702,-0.04261058,5.1,21.42,-6.48
1554885791888,6.1387334000000005,-7.1353197,2.0105310000000003,-0.03195793,0.014913702,-0.039414786,5.04,21.42,-6.54
1554885791909,6.191406,-7.140108000000001,2.144606,-0.033023197000000004,0.015978966,-0.033023197000000004,4.98,21.42,-6.54
1554885791928,6.2345014,-7.2406645,2.0919337,-0.020240024,0.011717908999999999,-0.03089267,4.98,21.3,-6.6
1554885791949,6.2153480000000005,-7.2023573,2.1158757,0.0031957934000000003,0.013848438000000001,-0.03195793,4.92,21.24,-6.6
1554885791968,6.220136,-7.029975,2.1110873,0.011717908999999999,0.0053263223,-0.03089267,4.92,21.12,-6.66
1554885791988,6.191406,-7.1353197,1.929128,0.002130529,0.0010652645,-0.026631612000000002,4.92,21.06,-6.66
1554885792009,6.2584434,-7.140108000000001,2.0967221,-0.0063915867,-0.0031957934000000003,-0.023435817999999997,4.92,20.94,-6.6
1554885792029,6.2249246,-7.1927805,2.0632033,0.0010652645,-0.00958738,-0.025566347000000003,4.92,20.88,-6.54
1554885792049,6.244078,-7.211933999999999,2.0344729999999998,0.017044231,-0.008522116,-0.025566347000000003,4.92,20.82,-6.48
1554885792069,6.2632318,-7.211933999999999,1.9195513,0.020240024,-0.012783173500000002,-0.023435817999999997,4.92,20.76,-6.36
1554885792089,6.1626754,-7.231087700000001,1.8764555,0.01917476,-0.012783173500000002,-0.023435817999999997,4.86,20.76,-6.24
1554885792109,6.1866174,-7.1448965,2.0201077,0.02130529,-0.011717908999999999,-0.025566347000000003,4.8,20.76,-6.18
1554885792129,6.26802,-7.154473299999999,1.9913772,0.015978966,-0.00958738,-0.027696876000000002,4.74,20.82,-6.06
1554885792149,6.172251999999999,-7.211933999999999,2.0248961,0.012783173500000002,-0.011717908999999999,-0.026631612000000002,4.74,20.88,-6.0
1554885792169,6.1818290000000005,-7.211933999999999,2.0871453,0.01917476,-0.017044231,-0.024501082,4.74,20.94,-6.0
1554885792189,6.244078,-7.154473299999999,1.8956091,0.024501082,-0.02130529,-0.02130529,4.74,21.06,-5.94
1554885792209,6.2345014,-7.154473299999999,2.0727801,0.022370555,-0.026631612000000002,-0.015978966,4.8,21.24,-6.0
1554885792228,6.2153480000000005,-7.2071457,1.9674352,0.022370555,-0.034088463,-0.014913702,4.86,21.42,-6.0
1554885792248,6.301539,-7.2071457,1.9147629000000002,0.024501082,-0.039414786,-0.011717908999999999,4.98,21.6,-6.06
1554885792269,6.196194,-7.173627000000001,1.9913772,0.025566347000000003,-0.04261058,-0.015978966,5.04,21.72,-6.06
1554885792289,6.244078,-7.2023573,1.9961656000000003,0.02876214,-0.046871635999999994,-0.015978966,5.1,21.84,-6.06
1554885792309,6.2345014,-7.1353197,2.1206641,0.022370555,-0.05006743,-0.014913702,5.16,21.84,-6.06
1554885792329,6.1483099999999995,-7.1975690000000005,2.0248961,0.03195793,-0.05219796,-0.013848438000000001,5.22,21.84,-6.0
1554885792348,6.1100025,-7.231087700000001,2.0440497,0.04261058,-0.054328485999999995,-0.008522116,5.16,21.78,-6.0
1554885792368,6.2057709999999995,-7.2071457,1.977012,0.05539375,-0.056459017,-0.0031957934000000003,5.1,21.66,-5.94
1554885792389,6.2153480000000005,-7.1975690000000005,1.9913772,0.06498113,-0.060720075,0.0,5.04,21.6,-5.94
1554885792409,6.2345014,-7.283760000000001,1.8908207,0.07137272,-0.06178534,0.0010652645,5.04,21.48,-6.0
1554885792428,6.2249246,-7.211933999999999,1.9099745,0.068176925,-0.06391586,-0.0010652645,4.98,21.42,-6.0
1554885792448,6.1530986,-7.2215110000000005,1.9722236000000002,0.06924219,-0.06604639400000001,0.002130529,4.98,21.36,-6.0
1554885792469,6.100425700000001,-7.2981253,1.7711107,0.06711166,-0.06391586,0.0031957934000000003,4.92,21.42,-6.0
1554885792489,6.100425700000001,-7.2502413,1.9961656000000003,0.07669904,-0.06391586,0.0063915867,4.92,21.42,-6.0
1554885792509,6.114791,-7.173627000000001,1.8860323,0.08522116,-0.06285059999999999,0.013848438000000001,4.92,21.42,-6.0
1554885792529,6.1578870000000006,-7.2262993,1.8764555,0.080960095,-0.060720075,0.017044231,4.86,21.42,-6.0
1554885792549,6.172251999999999,-7.2646065,1.8381484000000001,0.07137272,-0.058589544,0.020240024,4.86,21.42,-6.0
1554885792568,6.1626754,-7.3460092999999995,1.9961656000000003,0.07989483,-0.058589544,0.015978966,4.86,21.48,-6.0
1554885792588,6.1818290000000005,-7.317278999999999,1.9961656000000003,0.080960095,-0.05219796,0.018109497,4.86,21.48,-6.0
1554885792609,6.1243677000000005,-7.374739599999999,1.977012,0.07350325,-0.05219796,0.013848438000000001,4.86,21.48,-6.06
1554885792629,6.100425700000001,-7.2502413,1.6849195,0.07882957,-0.060720075,0.017044231,4.86,21.42,-6.06
1554885792649,6.081272,-7.1879919999999995,1.7567455,0.07137272,-0.06285059999999999,0.020240024,4.92,21.36,-6.06
1554885792668,6.172251999999999,-7.2741833,1.809418,0.06178534,-0.060720075,0.02130529,4.92,21.3,-6.06
1554885792689,6.172251999999999,-7.2262993,1.9387047999999998,0.051132694000000006,-0.06178534,0.02130529,4.98,21.24,-6.12
1554885792709,6.191406,-7.3220673,1.857302,0.040480047000000005,-0.06285059999999999,0.020240024,4.98,21.18,-6.18
1554885792729,6.1578870000000006,-7.2885485,1.9674352,0.023435817999999997,-0.06178534,0.010652645,5.04,21.06,-6.24
1554885792749,6.1100025,-7.398681599999999,2.1350293,0.035153727999999995,-0.060720075,0.007456851,5.04,21.0,-6.3
1554885792769,5.990292500000001,-7.365163000000001,1.8716671000000003,0.049002163,-0.05539375,0.0063915867,5.04,20.88,-6.36
1554885792789,6.066907,-7.417835,1.8956091,0.058589544,-0.058589544,0.0063915867,5.04,20.88,-6.42
1554885792809,6.1770406,-7.317278999999999,1.7902644,0.06391586,-0.058589544,0.010652645,5.1,20.88,-6.54
1554885792829,6.2057709999999995,-7.283760000000001,1.8908207,0.054328485999999995,-0.053263225,0.00958738,5.1,20.82,-6.6
1554885792850,6.2823853,-7.2981253,1.7663223000000001,0.033023197000000004,-0.047936900000000005,0.002130529,5.16,20.82,-6.66
1554885792868,6.172251999999999,-7.2789717000000005,1.8716671000000003,0.02130529,-0.039414786,-0.007456851,5.16,20.76,-6.72
1554885792889,6.0956373,-7.269394999999999,1.9818004,0.02130529,-0.035153727999999995,-0.013848438000000001,5.16,20.76,-6.72
1554885792909,6.133945,-7.3460092999999995,1.8716671000000003,0.018109497,-0.025566347000000003,-0.012783173500000002,5.22,20.76,-6.78
1554885792929,6.0333879999999995,-7.398681599999999,1.9674352,0.02130529,-0.018109497,-0.013848438000000001,5.22,20.82,-6.78
1554885792949,6.0908489999999995,-7.2981253,1.7040731,0.02876214,-0.010652645,-0.008522116,5.28,20.82,-6.78
1554885792969,6.1387334000000005,-7.3460092999999995,1.7711107,0.015978966,-0.002130529,-0.012783173500000002,5.28,20.82,-6.78
1554885792989,6.2823853,-7.389105000000001,1.8908207,0.00958738,0.0,-0.015978966,5.22,20.82,-6.78
1554885793009,6.2057709999999995,-7.317278999999999,1.8429368000000002,0.010652645,0.004261058,-0.01917476,5.22,20.88,-6.78
1554885793029,6.0908489999999995,-7.3699512,1.8046296000000002,0.008522116,0.0063915867,-0.02876214,5.22,20.88,-6.78
1554885793049,6.0764837,-7.3124905,1.9099745,0.008522116,0.004261058,-0.02876214,5.16,20.94,-6.78
1554885793068,6.0525417,-7.269394999999999,1.9674352,0.0010652645,0.002130529,-0.033023197000000004,5.16,20.94,-6.78
1554885793088,6.042965000000001,-7.2981253,1.7471686999999998,-0.004261058,0.004261058,-0.03089267,5.1,20.94,-6.78
1554885793108,6.1578870000000006,-7.3124905,2.0488381,-0.00958738,0.004261058,-0.03089267,5.1,21.0,-6.72
1554885793130,6.1195793,-7.259817999999999,2.0488381,-0.015978966,0.007456851,-0.026631612000000002,5.04,21.06,-6.72
1554885793148,6.100425700000001,-7.2981253,1.9387047999999998,-0.010652645,0.010652645,-0.02876214,5.04,21.06,-6.72
1554885793168,6.1195793,-7.331644,1.8764555,-0.0063915867,0.012783173500000002,-0.02876214,5.04,21.12,-6.72
1554885793189,6.1243677000000005,-7.2454529999999995,1.9195513,-0.013848438000000001,0.015978966,-0.034088463,5.04,21.18,-6.66
1554885793210,6.0716953,-7.307702000000001,1.8046296000000002,-0.014913702,0.017044231,-0.036218993,5.04,21.24,-6.66
1554885793229,6.1483099999999995,-7.2789717000000005,1.9674352,-0.026631612000000002,0.017044231,-0.03834952,5.04,21.3,-6.6
1554885793249,5.971139,-7.307702000000001,1.9243397,-0.03089267,0.014913702,-0.036218993,5.04,21.3,-6.54
1554885793269,6.143522,-7.417835,2.0153193,-0.040480047000000005,0.024501082,-0.035153727999999995,5.04,21.3,-6.48
1554885793288,6.0908489999999995,-7.4322004,2.082357,-0.034088463,0.024501082,-0.035153727999999995,5.04,21.3,-6.48
1554885793308,6.1530986,-7.2502413,1.9482816000000003,-0.0053263223,0.023435817999999997,-0.036218993,5.1,21.3,-6.42
1554885793329,6.1243677000000005,-7.2502413,1.9339164,0.0063915867,0.023435817999999997,-0.039414786,5.1,21.24,-6.42
1554885793349,6.0046577,-7.140108000000001,1.8285716,-0.014913702,0.025566347000000003,-0.040480047000000005,5.1,21.24,-6.42
1554885793368,6.066907,-7.2502413,1.8764555,-0.029827405,0.027696876000000002,-0.034088463,5.1,21.24,-6.42
1554885793389,5.985504,-7.2741833,2.0201077,-0.035153727999999995,0.026631612000000002,-0.034088463,5.1,21.18,-6.48
1554885793408,6.105214,-7.3268557,2.0536265,-0.037284255,0.026631612000000002,-0.033023197000000004,5.1,21.12,-6.54
1554885793429,6.1195793,-7.3699512,2.1924900000000003,-0.034088463,0.026631612000000002,-0.033023197000000004,5.16,21.12,-6.54
1554885793448,6.0333879999999995,-7.2646065,1.9913772,-0.024501082,0.02876214,-0.029827405,5.16,21.12,-6.6
1554885793469,6.100425700000001,-7.374739599999999,2.2212207000000004,-0.014913702,0.026631612000000002,-0.029827405,5.16,21.06,-6.54
1554885793488,6.0716953,-7.2885485,2.1493945,-0.011717908999999999,0.01917476,-0.029827405,5.16,21.06,-6.54
1554885793508,6.1195793,-7.2981253,2.0009542000000002,-0.017044231,0.017044231,-0.026631612000000002,5.1,21.06,-6.54
1554885793529,6.047753299999999,-7.341221000000001,2.0344729999999998,-0.008522116,0.00958738,-0.025566347000000003,5.1,21.06,-6.54
1554885793548,6.0621184999999995,-7.2262993,1.9913772,0.0,0.007456851,-0.024501082,5.1,21.12,-6.54
1554885793568,6.047753299999999,-7.341221000000001,1.9674352,0.0053263223,0.0,-0.025566347000000003,5.16,21.12,-6.54
1554885793589,6.081272,-7.2215110000000005,2.0105310000000003,0.0010652645,-0.004261058,-0.026631612000000002,5.16,21.12,-6.48
1554885793609,6.0333879999999995,-7.2071457,2.1015105,-0.010652645,-0.0053263223,-0.023435817999999997,5.16,21.12,-6.42
1554885793631,6.0333879999999995,-7.269394999999999,2.1350293,-0.011717908999999999,-0.004261058,-0.025566347000000003,5.16,21.12,-6.42
1554885793648,6.0716953,-7.3603745,2.0248961,0.0010652645,-0.008522116,-0.023435817999999997,5.22,21.06,-6.42
1554885793669,5.9998693,-7.317278999999999,1.9674352,0.010652645,-0.00958738,-0.022370555,5.22,21.0,-6.42
1554885793688,6.0908489999999995,-7.317278999999999,1.8908207,0.014913702,-0.013848438000000001,-0.020240024,5.28,20.94,-6.36
1554885793709,6.1243677000000005,-7.259817999999999,1.7328035,0.0031957934000000003,-0.010652645,-0.020240024,5.28,20.94,-6.36
1554885793729,6.1195793,-7.2789717000000005,2.0296845,-0.008522116,-0.010652645,-0.01917476,5.28,20.88,-6.36
1554885793749,6.042965000000001,-7.341221000000001,1.9913772,-0.012783173500000002,-0.00958738,-0.020240024,5.28,20.88,-6.42
1554885793769,6.05733,-7.3460092999999995,2.0392613,-0.0053263223,-0.010652645,-0.020240024,5.34,20.82,-6.42
1554885793789,6.0381765,-7.3460092999999995,1.9099745,0.01917476,-0.010652645,-0.01917476,5.34,20.82,-6.48
1554885793809,6.0285997,-7.2981253,1.9722236000000002,0.03089267,-0.013848438000000001,-0.01917476,5.4,20.82,-6.48
1554885793829,6.1626754,-7.2646065,1.9722236000000002,0.018109497,-0.014913702,-0.015978966,5.4,20.88,-6.48
1554885793849,6.1770406,-7.3460092999999995,1.881244,-0.0063915867,-0.013848438000000001,-0.014913702,5.4,20.88,-6.48
1554885793869,6.047753299999999,-7.4274119999999995,1.8716671000000003,-0.020240024,-0.014913702,-0.017044231,5.4,20.82,-6.42
1554885793888,6.2057709999999995,-7.398681599999999,2.0536265,-0.024501082,-0.020240024,-0.020240024,5.4,20.82,-6.36
1554885793909,6.0764837,-7.3220673,2.0871453,-0.010652645,-0.029827405,-0.02876214,5.46,20.82,-6.36
1554885793929,6.0716953,-7.2741833,1.929128,-0.004261058,-0.036218993,-0.027696876000000002,5.46,20.88,-6.3
1554885793949,5.9807158,-7.2885485,1.9243397,-0.012783173500000002,-0.034088463,-0.02876214,5.46,20.94,-6.24
1554885793969,6.0621184999999995,-7.283760000000001,1.9865887999999998,-0.015978966,-0.03834952,-0.02876214,5.46,20.94,-6.18
1554885793989,6.009446,-7.3364325,1.881244,-0.00958738,-0.04474111,-0.026631612000000002,5.46,21.0,-6.18
1554885794009,5.995081,-7.436989,1.7663223000000001,-0.012783173500000002,-0.04580637,-0.024501082,5.46,21.06,-6.12
1554885794029,5.951985400000001,-7.398681599999999,1.8956091,-0.013848438000000001,-0.04580637,-0.024501082,5.46,21.12,-6.18
1554885794048,5.9998693,-7.3364325,2.0105310000000003,-0.0053263223,-0.047936900000000005,-0.020240024,5.46,21.18,-6.18
1554885794069,5.990292500000001,-7.3364325,1.8956091,0.018109497,-0.049002163,-0.02130529,5.52,21.24,-6.24
1554885794089,5.995081,-7.3220673,1.9195513,0.03089267,-0.041545313,-0.01917476,5.52,21.3,-6.24
1554885794109,6.05733,-7.422623599999999,1.8237831999999998,0.026631612000000002,-0.037284255,-0.013848438000000001,5.58,21.3,-6.18
1554885794128,6.0333879999999995,-7.4322004,1.8668787,0.033023197000000004,-0.034088463,-0.008522116,5.64,21.3,-6.18
1554885794148,6.0621184999999995,-7.4561424,1.7471686999999998,0.039414786,-0.033023197000000004,-0.0053263223,5.64,21.24,-6.18
1554885794169,6.0381765,-7.3220673,1.7854759999999998,0.036218993,-0.027696876000000002,-0.004261058,5.7,21.18,-6.18
1554885794188,6.3111157,-7.2789717000000005,1.8668787,0.025566347000000003,-0.023435817999999997,-0.0031957934000000003,5.7,21.12,-6.12
1554885794208,6.172251999999999,-7.3268557,1.9243397,0.017044231,-0.017044231,-0.013848438000000001,5.64,21.06,-6.06
1554885794228,6.105214,-7.355586,1.8764555,0.018109497,-0.008522116,-0.023435817999999997,5.58,21.0,-6.06
1554885794249,6.114791,-7.365163000000001,1.9387047999999998,0.025566347000000003,-0.002130529,-0.026631612000000002,5.46,20.94,-6.06
1554885794269,6.114791,-7.3029137,1.5939398,0.022370555,0.008522116,-0.02876214,5.4,20.94,-6.06
1554885794289,6.05733,-7.2646065,1.7663223000000001,0.011717908999999999,0.02130529,-0.025566347000000003,5.34,20.88,-6.12
1554885794308,6.0716953,-7.3124905,1.7184383,-0.015978966,0.03089267,-0.024501082,5.28,20.88,-6.12
1554885794328,6.0860605,-7.307702000000001,1.6035166,-0.03089267,0.036218993,-0.024501082,5.22,20.88,-6.12
1554885794349,6.1530986,-7.3364325,1.6609775000000002,-0.03089267,0.039414786,-0.026631612000000002,5.22,20.88,-6.12
1554885794369,6.191406,-7.413047,1.9865887999999998,-0.034088463,0.03834952,-0.02876214,5.22,20.88,-6.18
1554885794389,6.0333879999999995,-7.2981253,2.0105310000000003,-0.033023197000000004,0.037284255,-0.034088463,5.22,20.94,-6.18
1554885794408,5.8945246,-7.436989,1.9099745,-0.022370555,0.034088463,-0.033023197000000004,5.34,20.94,-6.18
1554885794429,6.009446,-7.3268557,1.8908207,-0.013848438000000001,0.03195793,-0.029827405,5.4,20.94,-6.18
1554885794449,6.0525417,-7.2502413,1.8429368000000002,-0.007456851,0.034088463,-0.023435817999999997,5.46,20.94,-6.18
1554885794469,6.0525417,-7.178415299999999,1.809418,-0.008522116,0.033023197000000004,-0.022370555,5.46,21.0,-6.12
1554885794488,6.1195793,-7.3699512,2.0919337,-0.017044231,0.035153727999999995,-0.023435817999999997,5.52,21.0,-6.12
1554885794508,6.0908489999999995,-7.417835,1.8764555,-0.01917476,0.037284255,-0.026631612000000002,5.52,21.0,-6.12
1554885794529,6.0908489999999995,-7.4705076,1.8620903000000002,-0.011717908999999999,0.039414786,-0.03089267,5.58,21.0,-6.12
1554885794549,6.0621184999999995,-7.3603745,2.0009542000000002,-0.004261058,0.040480047000000005,-0.034088463,5.58,21.0,-6.18
1554885794569,6.0908489999999995,-7.417835,1.9003976999999999,0.0010652645,0.034088463,-0.035153727999999995,5.58,21.06,-6.18
1554885794589,6.0525417,-7.374739599999999,1.8908207,0.010652645,0.029827405,-0.039414786,5.58,21.06,-6.18
1554885794608,6.100425700000001,-7.341221000000001,1.9339164,0.02130529,0.01917476,-0.039414786,5.64,21.18,-6.18
1554885794628,6.100425700000001,-7.2885485,1.7950528000000001,0.02130529,0.012783173500000002,-0.041545313,5.64,21.24,-6.24
1554885794648,6.0908489999999995,-7.3220673,1.8046296000000002,0.015978966,0.011717908999999999,-0.043675844000000005,5.64,21.36,-6.24
1554885794668,5.93762,-7.283760000000001,1.8956091,-0.0010652645,0.00958738,-0.041545313,5.7,21.42,-6.24
1554885794688,5.990292500000001,-7.3699512,2.0440497,-0.004261058,0.007456851,-0.03834952,5.7,21.48,-6.24
1554885794709,5.985504,-7.3699512,2.0775685,0.007456851,0.0010652645,-0.036218993,5.7,21.54,-6.18
1554885794728,6.0142345,-7.3220673,1.929128,0.027696876000000002,0.0010652645,-0.035153727999999995,5.76,21.6,-6.18
1554885794748,6.100425700000001,-7.2789717000000005,1.8381484000000001,0.037284255,-0.0010652645,-0.03089267,5.76,21.54,-6.18
1554885794769,6.0525417,-7.231087700000001,1.8620903000000002,0.026631612000000002,0.0010652645,-0.034088463,5.76,21.48,-6.12
1554885794789,6.1578870000000006,-7.307702000000001,1.9818004,0.0053263223,-0.0010652645,-0.035153727999999995,5.82,21.42,-6.12
1554885794809,6.081272,-7.389105000000001,1.9818004,-0.004261058,-0.0010652645,-0.04261058,5.82,21.36,-6.06
1554885794829,6.1770406,-7.475296000000001,2.130241,0.00958738,0.0,-0.04474111,5.82,21.24,-6.06
1554885794848,6.0333879999999995,-7.3268557,2.0727801,0.033023197000000004,0.002130529,-0.049002163,5.82,21.18,-6.06
1554885794869,6.042965000000001,-7.2789717000000005,2.0440497,0.05006743,0.002130529,-0.049002163,5.82,21.12,-6.06
1554885794889,6.0381765,-7.3124905,1.8142063999999998,0.046871635999999994,0.0,-0.04474111,5.82,21.06,-6.06
1554885794909,6.143522,-7.2454529999999995,1.9818004,0.029827405,0.0053263223,-0.04580637,5.76,21.06,-6.06
1554885794929,6.0142345,-7.341221000000001,1.881244,0.017044231,0.004261058,-0.04580637,5.76,21.06,-6.12
1554885794949,6.05733,-7.2071457,2.0009542000000002,0.014913702,0.004261058,-0.04474111,5.76,21.12,-6.18
1554885794969,6.0046577,-7.3220673,2.0296845,0.015978966,0.0031957934000000003,-0.040480047000000005,5.76,21.12,-6.18
1554885794989,6.047753299999999,-7.2406645,2.1158757,0.015978966,-0.0031957934000000003,-0.037284255,5.76,21.12,-6.24
1554885795010,6.0908489999999995,-7.355586,2.1733365,0.017044231,-0.00958738,-0.03834952,5.76,21.18,-6.24
1554885795028,6.129156,-7.317278999999999,2.0296845,0.018109497,-0.015978966,-0.037284255,5.76,21.18,-6.3
1554885795049,6.1578870000000006,-7.331644,2.0009542000000002,0.026631612000000002,-0.025566347000000003,-0.037284255,5.76,21.18,-6.3
1554885795070,6.0333879999999995,-7.389105000000001,1.9195513,0.025566347000000003,-0.026631612000000002,-0.041545313,5.7,21.24,-6.3
1554885795089,6.196194,-7.341221000000001,1.9147629000000002,0.012783173500000002,-0.034088463,-0.043675844000000005,5.7,21.24,-6.24
1554885795108,6.1195793,-7.231087700000001,1.7663223000000001,0.0053263223,-0.034088463,-0.05006743,5.64,21.24,-6.18
1554885795128,6.0908489999999995,-7.3460092999999995,1.7758990000000001,-0.002130529,-0.03195793,-0.05219796,5.64,21.3,-6.12
1554885795149,6.05733,-7.3220673,1.9195513,-0.004261058,-0.023435817999999997,-0.05219796,5.58,21.3,-6.06
1554885795168,6.1483099999999995,-7.2981253,1.9099745,-0.008522116,-0.015978966,-0.047936900000000005,5.58,21.3,-6.0
1554885795188,6.0908489999999995,-7.283760000000001,2.0775685,-0.013848438000000001,-0.00958738,-0.04580637,5.52,21.3,-5.94
1554885795210,6.2249246,-7.1209545,2.0919337,-0.018109497,-0.0010652645,-0.04474111,5.46,21.3,-5.94
1554885795229,6.172251999999999,-7.211933999999999,1.9195513,-0.022370555,-0.0010652645,-0.05006743,5.46,21.24,-5.94
1554885795248,6.105214,-7.2646065,1.9243397,-0.024501082,0.007456851,-0.05006743,5.46,21.18,-5.88
1554885795268,6.1770406,-7.2789717000000005,1.9865887999999998,-0.017044231,0.014913702,-0.043675844000000005,5.4,21.18,-5.94
1554885795289,6.191406,-7.2741833,1.7567455,-0.018109497,0.020240024,-0.040480047000000005,5.4,21.18,-5.94
1554885795308,6.1578870000000006,-7.2167225,1.8764555,-0.02130529,0.02130529,-0.041545313,5.4,21.12,-5.94
1554885795329,6.2249246,-7.2167225,2.0201077,-0.02130529,0.022370555,-0.041545313,5.46,21.12,-5.94
1554885795350,6.129156,-7.2789717000000005,2.0153193,-0.022370555,0.025566347000000003,-0.043675844000000005,5.52,21.18,-5.94
1554885795370,6.105214,-7.307702000000001,1.9147629000000002,-0.017044231,0.027696876000000002,-0.046871635999999994,5.52,21.18,-5.88
1554885795389,6.1195793,-7.3220673,2.0727801,-0.00958738,0.02876214,-0.05006743,5.58,21.24,-5.88
1554885795409,6.133945,-7.3029137,2.0105310000000003,0.0031957934000000003,0.036218993,-0.047936900000000005,5.58,21.3,-5.88
1554885795429,6.0908489999999995,-7.1688385,2.0392613,0.008522116,0.04261058,-0.04580637,5.64,21.3,-5.88
1554885795448,6.042965000000001,-7.1879919999999995,1.8764555,0.0053263223,0.05006743,-0.04580637,5.64,21.36,-5.88
1554885795469,6.143522,-7.2167225,1.9339164,-0.004261058,0.053263225,-0.03834952,5.64,21.36,-5.88
1554885795488,6.0860605,-7.140108000000001,1.7232267,-0.00958738,0.053263225,-0.035153727999999995,5.64,21.42,-5.88
1554885795509,6.143522,-7.2262993,1.8764555,-0.024501082,0.047936900000000005,-0.03089267,5.58,21.42,-5.94
1554885795529,6.1195793,-7.2406645,1.881244,-0.029827405,0.041545313,-0.035153727999999995,5.52,21.42,-6.0
1554885795548,6.1195793,-7.2981253,2.1829132999999996,-0.00958738,0.03089267,-0.036218993,5.46,21.48,-6.0
1554885795569,6.081272,-7.3029137,2.0727801,0.0031957934000000003,0.024501082,-0.03195793,5.46,21.48,-6.06
1554885795589,5.961562000000001,-7.259817999999999,2.0105310000000003,0.00958738,0.01917476,-0.02876214,5.46,21.42,-6.12
1554885795610,6.0333879999999995,-7.283760000000001,1.9626468000000001,0.011717908999999999,0.010652645,-0.020240024,5.46,21.36,-6.12
1554885795628,6.066907,-7.2885485,1.977012,0.010652645,-0.0010652645,-0.01917476,5.4,21.3,-6.12
1554885795650,6.172251999999999,-7.2981253,1.8716671000000003,0.015978966,-0.0053263223,-0.01917476,5.4,21.24,-6.12
1554885795669,6.1578870000000006,-7.283760000000001,2.0727801,0.01917476,-0.0053263223,-0.025566347000000003,5.4,21.18,-6.12
1554885795689,6.114791,-7.365163000000001,2.0296845,0.018109497,-0.0063915867,-0.025566347000000003,5.34,21.12,-6.12
1554885795709,6.0764837,-7.2789717000000005,1.9243397,0.020240024,-0.0053263223,-0.025566347000000003,5.34,21.12,-6.12
1554885795729,6.1530986,-7.2741833,2.0392613,0.018109497,0.0031957934000000003,-0.02130529,5.28,21.06,-6.06
1554885795750,6.1387334000000005,-7.341221000000001,1.9099745,0.012783173500000002,0.008522116,-0.022370555,5.22,21.12,-6.0
1554885795768,6.1530986,-7.4274119999999995,2.144606,0.013848438000000001,0.008522116,-0.022370555,5.22,21.12,-6.0
1554885795789,6.129156,-7.2885485,1.9865887999999998,0.02876214,0.008522116,-0.026631612000000002,5.22,21.18,-5.94
1554885795809,6.0333879999999995,-7.307702000000001,1.9434932,0.03089267,0.004261058,-0.02876214,5.22,21.18,-5.94
1554885795829,6.1100025,-7.2215110000000005,1.9003976999999999,0.024501082,0.004261058,-0.025566347000000003,5.22,21.24,-5.88
1554885795849,6.023811299999999,-7.331644,1.9961656000000003,0.017044231,0.0031957934000000003,-0.027696876000000002,5.28,21.24,-5.88
1554885795869,6.129156,-7.3699512,2.0536265,0.012783173500000002,-0.0010652645,-0.025566347000000003,5.28,21.24,-5.82
1554885795889,6.042965000000001,-7.317278999999999,2.0153193,0.012783173500000002,-0.004261058,-0.023435817999999997,5.34,21.24,-5.82
1554885795909,6.0908489999999995,-7.3603745,2.0296845,0.010652645,-0.007456851,-0.023435817999999997,5.4,21.24,-5.82
1554885795929,6.129156,-7.259817999999999,1.9913772,0.015978966,-0.0063915867,-0.023435817999999997,5.46,21.24,-5.82
1554885795948,6.167464,-7.211933999999999,2.0153193,0.020240024,-0.011717908999999999,-0.022370555,5.52,21.24,-5.82
1554885795969,6.100425700000001,-7.3220673,1.9147629000000002,0.018109497,-0.017044231,-0.025566347000000003,5.52,21.24,-5.82
1554885795988,6.042965000000001,-7.2646065,1.9674352,0.011717908999999999,-0.018109497,-0.029827405,5.52,21.18,-5.82
1554885796009,6.0621184999999995,-7.3699512,2.0919337,0.0053263223,-0.023435817999999997,-0.035153727999999995,5.52,21.18,-5.82
1554885796029,6.100425700000001,-7.283760000000001,2.1398177000000005,-0.0010652645,-0.02130529,-0.035153727999999995,5.52,21.12,-5.82
1554885796049,6.066907,-7.341221000000001,2.0201077,0.012783173500000002,-0.020240024,-0.03195793,5.52,21.12,-5.88
1554885796068,6.1818290000000005,-7.173627000000001,1.8429368000000002,0.012783173500000002,-0.01917476,-0.03089267,5.52,21.06,-5.88
1554885796088,6.1578870000000006,-7.1975690000000005,1.8620903000000002,0.0053263223,-0.017044231,-0.034088463,5.58,21.06,-5.88
1554885796109,6.143522,-7.3029137,1.8764555,-0.004261058,-0.012783173500000002,-0.036218993,5.58,21.0,-5.94
1554885796129,6.0525417,-7.331644,1.9434932,-0.012783173500000002,-0.008522116,-0.040480047000000005,5.64,21.0,-5.94
1554885796148,6.1578870000000006,-7.365163000000001,1.9243397,-0.0063915867,-0.0053263223,-0.039414786,5.64,21.0,-5.94
1554885796169,6.1243677000000005,-7.374739599999999,1.9434932,0.0,0.0,-0.039414786,5.7,21.0,-6.0
1554885796189,6.1100025,-7.231087700000001,2.1015105,0.0,0.0010652645,-0.03834952,5.7,21.0,-6.0
1554885796209,6.0956373,-7.255029700000001,2.0344729999999998,0.00958738,0.002130529,-0.037284255,5.76,20.94,-6.06
1554885796229,6.1578870000000006,-7.140108000000001,2.0967221,0.014913702,0.002130529,-0.034088463,5.76,20.94,-6.06
1554885796249,6.1578870000000006,-7.1688385,2.0201077,0.0063915867,0.0063915867,-0.036218993,5.76,20.94,-6.12
1554885796268,6.1387334000000005,-7.307702000000001,2.0009542000000002,-0.0010652645,0.004261058,-0.040480047000000005,5.7,20.94,-6.12
1554885796288,6.1243677000000005,-7.365163000000001,1.9674352,0.008522116,0.0063915867,-0.041545313,5.7,20.94,-6.12
1554885796309,6.1195793,-7.3220673,1.9195513,0.018109497,0.0031957934000000003,-0.03834952,5.64,20.94,-6.12
1554885796328,6.143522,-7.3220673,1.9243397,0.018109497,-0.0010652645,-0.035153727999999995,5.64,20.94,-6.12
1554885796349,6.133945,-7.231087700000001,2.0296845,0.015978966,0.0010652645,-0.034088463,5.58,20.94,-6.12
1554885796369,6.143522,-7.3029137,2.2164322999999997,0.00958738,-0.0031957934000000003,-0.035153727999999995,5.58,21.0,-6.12
1554885796389,6.0716953,-7.1592617,2.0679917000000003,0.011717908999999999,-0.00958738,-0.036218993,5.52,21.06,-6.12
1554885796409,6.066907,-7.2454529999999995,2.0201077,0.018109497,-0.00958738,-0.03195793,5.46,21.12,-6.12
1554885796428,6.066907,-7.2885485,2.0632033,0.013848438000000001,-0.00958738,-0.03089267,5.46,21.18,-6.12
1554885796448,6.114791,-7.3364325,2.178125,0.013848438000000001,-0.007456851,-0.027696876000000002,5.46,21.24,-6.12
1554885796469,6.066907,-7.3843164,2.0919337,0.018109497,-0.002130529,-0.026631612000000002,5.4,21.36,-6.12
1554885796489,6.1243677000000005,-7.269394999999999,1.9339164,0.014913702,-0.002130529,-0.025566347000000003,5.4,21.48,-6.12
1554885796509,6.167464,-7.173627000000001,1.8285716,0.014913702,-0.0010652645,-0.027696876000000002,5.4,21.6,-6.12
1554885796528,6.1100025,-7.1879919999999995,2.0440497,0.0063915867,0.002130529,-0.027696876000000002,5.4,21.66,-6.12
1554885796548,6.1626754,-7.231087700000001,2.0919337,0.0053263223,0.004261058,-0.029827405,5.4,21.72,-6.12
1554885796569,6.129156,-7.365163000000001,1.857302,0.002130529,0.004261058,-0.026631612000000002,5.4,21.78,-6.12
1554885796588,6.1100025,-7.259817999999999,2.0344729999999998,0.0031957934000000003,0.0053263223,-0.02876214,5.46,21.84,-6.12
1554885796609,6.220136,-7.2406645,2.0679917000000003,-0.002130529,0.008522116,-0.02876214,5.52,21.84,-6.12
1554885796629,6.1195793,-7.2406645,2.0009542000000002,-0.008522116,0.00958738,-0.03195793,5.52,21.78,-6.06
1554885796648,6.1818290000000005,-7.3029137,1.9626468000000001,-0.004261058,0.0053263223,-0.02876214,5.52,21.78,-6.06
1554885796669,6.167464,-7.2215110000000005,2.0296845,0.011717908999999999,0.0010652645,-0.026631612000000002,5.64,21.72,-5.94
1554885796689,6.167464,-7.2167225,2.0105310000000003,0.007456851,0.0,-0.02876214,5.64,21.66,-5.88
1554885796709,6.1100025,-7.1927805,2.0727801,-0.01917476,0.002130529,-0.029827405,5.64,21.66,-5.88
1554885796729,6.0621184999999995,-7.2981253,2.0632033,-0.01917476,0.0031957934000000003,-0.026631612000000002,5.64,21.66,-5.82
1554885796749,6.1578870000000006,-7.3699512,2.0679917000000003,-0.002130529,0.0063915867,-0.025566347000000003,5.64,21.66,-5.76
1554885796768,6.0716953,-7.173627000000001,2.1206641,0.0,0.008522116,-0.02876214,5.58,21.66,-5.7
1554885796788,6.1387334000000005,-7.255029700000001,2.0679917000000003,-0.002130529,0.012783173500000002,-0.02876214,5.58,21.6,-5.7
1554885796809,6.1578870000000006,-7.317278999999999,2.0679917000000003,-0.0010652645,0.013848438000000001,-0.027696876000000002,5.58,21.6,-5.7
1554885796829,6.042965000000001,-7.2262993,2.0967221,0.004261058,0.01917476,-0.029827405,5.52,21.6,-5.7
1554885796849,6.0764837,-7.259817999999999,2.0296845,-0.004261058,0.020240024,-0.02876214,5.52,21.6,-5.7
1554885796869,6.0525417,-7.3699512,2.0775685,-0.011717908999999999,0.018109497,-0.029827405,5.46,21.54,-5.7
1554885796889,6.1387334000000005,-7.307702000000001,2.0536265,0.0,0.013848438000000001,-0.027696876000000002,5.46,21.48,-5.7
1554885796908,6.0764837,-7.269394999999999,2.0871453,0.010652645,0.007456851,-0.023435817999999997,5.46,21.48,-5.64
1554885796929,6.042965000000001,-7.3268557,1.929128,0.004261058,0.004261058,-0.023435817999999997,5.46,21.42,-5.64
1554885796948,6.1195793,-7.231087700000001,2.0871453,-0.002130529,0.0,-0.023435817999999997,5.52,21.42,-5.64
1554885796968,6.0716953,-7.3029137,2.082357,0.0063915867,0.0,-0.024501082,5.52,21.36,-5.7
1554885796989,6.129156,-7.2646065,2.0392613,0.0063915867,-0.002130529,-0.023435817999999997,5.52,21.24,-5.76
1554885797008,6.0716953,-7.2646065,1.9387047999999998,0.011717908999999999,-0.0010652645,-0.020240024,5.58,21.24,-5.82
1554885797031,6.1770406,-7.3460092999999995,2.1206641,0.0053263223,-0.0010652645,-0.014913702,5.58,21.18,-5.88
1554885797048,6.0860605,-7.2981253,2.154183,-0.0031957934000000003,-0.002130529,-0.012783173500000002,5.58,21.12,-5.94
1554885797069,6.1243677000000005,-7.374739599999999,1.8142063999999998,-0.026631612000000002,-0.0010652645,-0.014913702,5.58,21.06,-6.0
1554885797088,6.129156,-7.2023573,2.1015105,-0.020240024,0.004261058,-0.02130529,5.58,21.06,-6.06
1554885797108,6.0860605,-7.2646065,2.0248961,-0.013848438000000001,0.007456851,-0.02876214,5.52,21.0,-6.06
1554885797129,5.9807158,-7.355586,2.202067,-0.020240024,0.0031957934000000003,-0.03089267,5.52,21.0,-6.06
1554885797149,6.047753299999999,-7.3699512,2.1254525,-0.018109497,0.004261058,-0.026631612000000002,5.52,21.0,-6.06
1554885797168,6.0621184999999995,-7.374739599999999,1.929128,0.0063915867,0.002130529,-0.018109497,5.46,21.0,-6.0
1554885797189,6.0716953,-7.3220673,2.1829132999999996,0.012783173500000002,-0.0031957934000000003,-0.018109497,5.52,21.06,-6.0
1554885797209,6.114791,-7.307702000000001,2.1398177000000005,0.00958738,-0.0053263223,-0.018109497,5.52,21.0,-5.94
1554885797229,6.1866174,-7.3699512,2.0919337,0.008522116,-0.008522116,-0.023435817999999997,5.52,21.0,-5.94
1554885797249,6.1195793,-7.211933999999999,2.0344729999999998,0.007456851,-0.010652645,-0.027696876000000002,5.52,21.0,-5.94
1554885797269,6.0333879999999995,-7.269394999999999,2.130241,-0.002130529,-0.008522116,-0.029827405,5.52,21.0,-5.94
1554885797289,5.971139,-7.3364325,2.1254525,0.004261058,-0.00958738,-0.029827405,5.52,21.0,-5.94
1554885797309,6.0860605,-7.365163000000001,2.0392613,0.008522116,-0.00958738,-0.026631612000000002,5.46,21.0,-5.94
1554885797329,6.0333879999999995,-7.3460092999999995,1.9865887999999998,0.022370555,-0.013848438000000001,-0.029827405,5.46,21.0,-5.94
1554885797349,6.047753299999999,-7.3268557,1.9961656000000003,0.039414786,-0.017044231,-0.026631612000000002,5.4,21.0,-5.94
1554885797368,6.042965000000001,-7.2215110000000005,1.8860323,0.027696876000000002,-0.018109497,-0.024501082,5.4,21.0,-6.0
1554885797388,6.05733,-7.2454529999999995,2.1637597,0.0063915867,-0.022370555,-0.024501082,5.34,21.0,-6.0
1554885797409,6.047753299999999,-7.3029137,2.0105310000000003,0.007456851,-0.02130529,-0.024501082,5.28,21.0,-6.0
1554885797429,6.047753299999999,-7.317278999999999,2.202067,0.01917476,-0.017044231,-0.024501082,5.28,21.06,-6.0
1554885797449,6.114791,-7.307702000000001,2.0296845,0.03089267,-0.014913702,-0.024501082,5.28,21.06,-6.0
1554885797468,6.1483099999999995,-7.211933999999999,1.7423803,0.03089267,-0.0053263223,-0.022370555,5.34,21.06,-6.0
1554885797488,6.167464,-7.1448965,2.0248961,0.013848438000000001,0.0010652645,-0.023435817999999997,5.34,21.06,-6.0
1554885797509,6.0716953,-7.2023573,1.9434932,-0.004261058,0.007456851,-0.02876214,5.34,21.06,-5.94
1554885797529,6.105214,-7.2741833,2.0919337,-0.010652645,0.011717908999999999,-0.029827405,5.34,21.06,-5.94
1554885797549,6.129156,-7.2981253,2.178125,-0.002130529,0.011717908999999999,-0.026631612000000002,5.34,21.06,-5.94
1554885797568,6.1530986,-7.3843164,2.1398177000000005,0.008522116,0.011717908999999999,-0.029827405,5.4,21.06,-5.94
1554885797589,6.0956373,-7.2167225,2.178125,0.008522116,0.0053263223,-0.027696876000000002,5.4,21.06,-5.94
1554885797608,6.0381765,-7.2741833,1.9674352,0.0053263223,0.0,-0.029827405,5.4,21.06,-5.94
1554885797629,6.0333879999999995,-7.3124905,2.1206641,0.0031957934000000003,-0.0010652645,-0.024501082,5.4,21.12,-5.94
1554885797649,6.0716953,-7.3220673,2.0967221,0.002130529,-0.0031957934000000003,-0.025566347000000003,5.46,21.12,-5.94
1554885797669,6.0333879999999995,-7.389105000000001,2.0919337,0.00958738,-0.00958738,-0.024501082,5.46,21.12,-5.88
1554885797688,6.05733,-7.331644,2.0679917000000003,0.014913702,-0.011717908999999999,-0.020240024,5.46,21.12,-5.88
1554885797709,6.0525417,-7.259817999999999,2.0632033,0.018109497,-0.011717908999999999,-0.02130529,5.46,21.12,-5.88
1554885797728,6.0333879999999995,-7.2741833,1.9818004,0.017044231,-0.013848438000000001,-0.01917476,5.52,21.18,-5.88
1554885797749,6.100425700000001,-7.379528,1.977012,0.00958738,-0.012783173500000002,-0.01917476,5.52,21.18,-5.82
1554885797769,6.1530986,-7.3364325,1.9147629000000002,0.008522116,-0.014913702,-0.01917476,5.52,21.12,-5.76
1554885797789,6.1243677000000005,-7.2406645,2.1015105,0.00958738,-0.011717908999999999,-0.02130529,5.46,21.12,-5.76
1554885797809,6.0860605,-7.255029700000001,1.9913772,0.007456851,-0.008522116,-0.022370555,5.46,21.12,-5.76
1554885797828,6.1243677000000005,-7.331644,1.9913772,0.0063915867,-0.0053263223,-0.022370555,5.46,21.12,-5.82
1554885797848,6.081272,-7.2981253,2.1924900000000003,0.002130529,-0.004261058,-0.022370555,5.52,21.18,-5.76
1554885797868,6.081272,-7.283760000000001,2.2643162999999995,-0.0053263223,-0.004261058,-0.026631612000000002,5.52,21.18,-5.76
1554885797888,5.995081,-7.2789717000000005,1.9913772,-0.008522116,-0.0010652645,-0.02876214,5.58,21.18,-5.76
1554885797909,6.05733,-7.2741833,2.0153193,-0.004261058,0.0010652645,-0.033023197000000004,5.58,21.18,-5.82
1554885797929,6.0381765,-7.2646065,2.082357,-0.007456851,0.002130529,-0.034088463,5.58,21.18,-5.82
1554885797949,5.971139,-7.3938932,2.0919337,-0.00958738,-0.0010652645,-0.03195793,5.64,21.18,-5.82
1554885797969,6.0333879999999995,-7.4992385,2.1398177000000005,-0.0010652645,-0.0031957934000000003,-0.027696876000000002,5.58,21.18,-5.88
1554885797989,6.1387334000000005,-7.398681599999999,2.0919337,0.024501082,-0.0053263223,-0.022370555,5.46,21.18,-5.88
1554885798009,6.0764837,-7.1927805,1.9818004,0.04261058,-0.0053263223,-0.024501082,5.46,21.18,-5.94
1554885798029,6.129156,-7.0587053,1.9147629000000002,0.03089267,-0.007456851,-0.02876214,5.4,21.12,-5.94
1554885798049,6.047753299999999,-7.3268557,1.9961656000000003,0.007456851,-0.010652645,-0.03195793,5.34,21.12,-6.0
1554885798069,6.1100025,-7.4274119999999995,2.0248961,0.002130529,-0.007456851,-0.036218993,5.28,21.12,-6.06
1554885798088,6.196194,-7.317278999999999,1.9961656000000003,0.0031957934000000003,-0.0063915867,-0.037284255,5.22,21.18,-6.06
1554885798108,6.081272,-7.374739599999999,2.1829132999999996,0.0,-0.0010652645,-0.035153727999999995,5.22,21.12,-6.12
1554885798129,6.0046577,-7.259817999999999,2.1829132999999996,-0.008522116,0.008522116,-0.034088463,5.28,21.12,-6.18
1554885798148,6.0621184999999995,-7.2262993,2.130241,-0.004261058,0.008522116,-0.03195793,5.34,21.12,-6.24
1554885798168,6.05733,-7.2885485,2.0392613,-0.004261058,0.010652645,-0.034088463,5.34,21.12,-6.24
1554885798188,6.0621184999999995,-7.3220673,2.0009542000000002,-0.008522116,0.00958738,-0.029827405,5.34,21.12,-6.24
1554885798209,6.105214,-7.2885485,2.1015105,0.0010652645,0.007456851,-0.02876214,5.34,21.06,-6.24
1554885798229,6.0525417,-7.2741833,1.9626468000000001,0.00958738,0.0031957934000000003,-0.02876214,5.46,21.06,-6.18
1554885798249,6.0764837,-7.2215110000000005,2.1350293,0.002130529,0.0010652645,-0.029827405,5.46,21.06,-6.12
1554885798268,6.0333879999999995,-7.3124905,2.0727801,-0.0053263223,-0.002130529,-0.033023197000000004,5.52,21.06,-6.06
1554885798289,6.0764837,-7.3268557,2.2068555,0.0063915867,-0.0053263223,-0.029827405,5.58,21.06,-5.94
1554885798308,5.9184665999999995,-7.3029137,2.0967221,0.017044231,-0.007456851,-0.026631612000000002,5.7,21.18,-5.82
1554885798328,6.047753299999999,-7.3699512,2.168548,0.02130529,-0.012783173500000002,-0.02130529,5.76,21.24,-5.7
1554885798348,6.0333879999999995,-7.317278999999999,1.9003976999999999,0.023435817999999997,-0.018109497,-0.01917476,5.82,21.36,-5.64
1554885798369,6.019023000000001,-7.2454529999999995,2.0967221,0.024501082,-0.022370555,-0.017044231,5.88,21.42,-5.58
1554885798389,6.1626754,-7.2406645,1.9434932,0.020240024,-0.02130529,-0.018109497,5.82,21.54,-5.52
1554885798409,6.081272,-7.173627000000001,2.0632033,0.008522116,-0.02130529,-0.017044231,5.82,21.54,-5.58
1554885798428,6.0621184999999995,-7.2885485,2.0919337,0.0010652645,-0.01917476,-0.020240024,5.82,21.54,-5.58
1554885798448,6.0908489999999995,-7.3699512,2.0248961,-0.011717908999999999,-0.015978966,-0.022370555,5.76,21.48,-5.64
1554885798468,6.133945,-7.355586,2.0248961,-0.00958738,-0.014913702,-0.024501082,5.76,21.42,-5.64
1554885798489,6.0621184999999995,-7.3699512,2.0679917000000003,-0.008522116,-0.011717908999999999,-0.027696876000000002,5.76,21.36,-5.64
1554885798509,6.129156,-7.3364325,2.0871453,-0.007456851,-0.007456851,-0.026631612000000002,5.76,21.24,-5.7
1554885798528,6.0956373,-7.2789717000000005,2.0296845,-0.0031957934000000003,-0.00958738,-0.026631612000000002,5.76,21.18,-5.7
1554885798548,6.081272,-7.317278999999999,1.9578583999999999,-0.007456851,-0.00958738,-0.026631612000000002,5.76,21.12,-5.7
1554885798568,6.081272,-7.3460092999999995,2.0440497,-0.0063915867,-0.00958738,-0.026631612000000002,5.76,21.12,-5.7
1554885798589,6.0716953,-7.2454529999999995,2.1829132999999996,0.0010652645,-0.0063915867,-0.026631612000000002,5.76,21.06,-5.76
1554885798609,6.05733,-7.379528,2.1015105,0.0063915867,-0.008522116,-0.024501082,5.76,21.06,-5.76
1554885798629,6.0956373,-7.307702000000001,1.9913772,0.015978966,-0.011717908999999999,-0.024501082,5.76,21.12,-5.82
1554885798649,6.0764837,-7.3699512,2.130241,0.022370555,-0.014913702,-0.029827405,5.76,21.18,-5.88
1554885798668,6.105214,-7.3220673,2.0201077,0.022370555,-0.013848438000000001,-0.033023197000000004,5.76,21.24,-5.94
1554885798688,6.100425700000001,-7.355586,2.0440497,0.0010652645,-0.007456851,-0.035153727999999995,5.76,21.3,-6.0
1554885798709,6.114791,-7.2071457,2.0488381,0.002130529,-0.008522116,-0.036218993,5.76,21.36,-6.06
1554885798729,6.0525417,-7.2885485,1.9913772,0.00958738,-0.002130529,-0.037284255,5.76,21.48,-6.12
1554885798748,6.0525417,-7.2167225,2.273893,0.0,-0.0010652645,-0.033023197000000004,5.76,21.54,-6.12
1554885798768,6.1243677000000005,-7.2885485,1.8237831999999998,-0.007456851,0.002130529,-0.03834952,5.82,21.6,-6.12
1554885798789,6.114791,-7.259817999999999,2.144606,-0.007456851,0.0063915867,-0.03834952,5.82,21.54,-6.12
1554885798809,6.1578870000000006,-7.307702000000001,2.0679917000000003,-0.00958738,0.0053263223,-0.036218993,5.82,21.42,-6.18
1554885798829,6.0716953,-7.317278999999999,2.0967221,-0.015978966,0.008522116,-0.03195793,5.82,21.3,-6.12
1554885798848,6.0333879999999995,-7.398681599999999,1.9913772,-0.0063915867,0.008522116,-0.03195793,5.82,21.24,-6.12
1554885798868,6.143522,-7.2167225,2.0344729999999998,-0.004261058,0.00958738,-0.03089267,5.76,21.12,-6.06
1554885798889,6.1483099999999995,-7.1927805,2.130241,-0.007456851,0.012783173500000002,-0.033023197000000004,5.7,21.0,-6.0
1554885798909,6.133945,-7.2454529999999995,2.1158757,-0.010652645,0.00958738,-0.036218993,5.7,20.94,-6.0
1554885798929,6.105214,-7.4034699999999996,2.0392613,-0.008522116,0.0053263223,-0.036218993,5.64,20.88,-5.94
1554885798948,6.0860605,-7.355586,2.0344729999999998,0.0,0.002130529,-0.035153727999999995,5.58,20.88,-5.94
1554885798969,6.105214,-7.269394999999999,1.9482816000000003,0.00958738,-0.0010652645,-0.034088463,5.58,20.88,-5.88
1554885798989,6.0716953,-7.3124905,1.977012,0.0063915867,-0.0053263223,-0.033023197000000004,5.52,20.88,-5.88
1554885799010,6.0525417,-7.2406645,2.0248961,0.007456851,-0.00958738,-0.034088463,5.52,20.88,-5.88
1554885799030,6.081272,-7.255029700000001,1.9913772,0.0053263223,-0.012783173500000002,-0.035153727999999995,5.52,20.94,-5.88
1554885799049,6.047753299999999,-7.2981253,1.8956091,0.0053263223,-0.013848438000000001,-0.033023197000000004,5.52,20.94,-5.88
1554885799069,6.0285997,-7.3124905,1.9003976999999999,0.008522116,-0.011717908999999999,-0.03089267,5.58,20.94,-5.88
1554885799089,6.0525417,-7.341221000000001,2.0679917000000003,0.007456851,-0.011717908999999999,-0.027696876000000002,5.7,20.94,-5.82
1554885799109,6.066907,-7.2981253,2.0632033,0.015978966,-0.007456851,-0.02876214,5.76,20.94,-5.82
1554885799128,6.066907,-7.355586,1.9913772,0.020240024,-0.004261058,-0.025566347000000003,5.88,21.0,-5.76
1554885799148,6.05733,-7.2789717000000005,1.8716671000000003,0.00958738,-0.0010652645,-0.025566347000000003,5.94,21.0,-5.7
1554885799169,6.0716953,-7.3603745,2.1350293,-0.012783173500000002,0.002130529,-0.023435817999999997,5.94,21.0,-5.64
1554885799188,6.0333879999999995,-7.2789717000000005,1.9339164,-0.010652645,0.0063915867,-0.02876214,5.94,21.06,-5.64
1554885799209,6.05733,-7.2885485,2.0009542000000002,-0.004261058,0.0063915867,-0.03195793,5.94,21.12,-5.58
1554885799229,6.0860605,-7.283760000000001,1.9482816000000003,-0.007456851,0.0031957934000000003,-0.02876214,5.94,21.12,-5.52
1554885799249,5.995081,-7.389105000000001,2.0679917000000003,-0.007456851,0.002130529,-0.03089267,5.88,21.24,-5.58
1554885799270,6.0764837,-7.3268557,2.1254525,0.008522116,-0.0031957934000000003,-0.026631612000000002,5.82,21.3,-5.7
1554885799289,6.0860605,-7.2406645,2.1924900000000003,0.007456851,-0.0063915867,-0.027696876000000002,5.82,21.36,-5.82
1554885799309,6.042965000000001,-7.317278999999999,2.0536265,0.0063915867,-0.010652645,-0.02876214,5.82,21.42,-6.0
1554885799328,5.9567738,-7.4322004,2.1398177000000005,0.011717908999999999,-0.015978966,-0.024501082,5.88,21.48,-6.12
1554885799348,6.081272,-7.355586,2.0201077,0.027696876000000002,-0.02130529,-0.023435817999999997,5.88,21.54,-6.24
