TimeStamp,Ax,Ay,Az,Gx,Gy,Gz,Mx,My,Mz
1554219781444,-1.091756,-8.418612,3.5811272000000005,0.15659387,-0.06711166,-0.15339808,-28.08,42.72,-13.32
1554219781464,-1.1109096,-8.567052,3.6721067,-0.0031957934000000003,-0.029827405,-0.1768339,-28.02,42.78,-13.44
1554219781485,-0.9768343,-8.744224,3.6625300000000003,-0.033023197000000004,-0.004261058,-0.16937704,-28.02,42.9,-13.56
1554219781504,-1.0821792,-8.787319,3.4566288,-0.023435817999999997,0.027696876000000002,-0.13848437,-27.96,42.96,-13.74
1554219781525,-1.0295067,-8.772953999999999,3.6433763999999997,-0.0010652645,0.034088463,-0.14168017,-27.96,43.02,-13.86
1554219781544,-1.1587936,-8.849568,3.6577415,-0.0010652645,0.047936900000000005,-0.14807177,-27.9,43.02,-14.04
1554219781564,-1.1013328000000002,-8.796896,3.743933,-0.024501082,0.05539375,-0.1438107,-27.9,43.02,-14.1
1554219781584,-1.0486604,-8.782531,3.614646,-0.07243799,0.06391586,-0.1438107,-27.84,43.02,-14.16
1554219781605,-1.091756,-9.017161999999999,3.8492777,-0.11824436,0.06498113,-0.15339808,-27.84,42.96,-14.22
1554219781624,-1.043872,-9.208698,3.8971617,-0.12144015,0.06391586,-0.15126756,-27.84,42.9,-14.28
1554219781644,-1.043872,-9.184756,3.8780080999999997,-0.06711166,0.07669904,-0.14274544,-27.78,42.84,-14.28
1554219781665,-1.1156979999999999,-9.026739,3.7870286,-0.0063915867,0.09054748,-0.12996227,-27.78,42.84,-14.22
1554219781685,-1.1252748,-8.873510000000001,3.6098576,0.035153727999999995,0.101200126,-0.11504856,-27.78,42.78,-14.22
1554219781705,-1.163582,-8.907029,3.6433763999999997,0.024501082,0.10546118,-0.10546118,-27.78,42.72,-14.22
1554219781725,-1.2066777,-8.796896,3.5045127999999997,-0.013848438000000001,0.113983296,-0.099069595,-27.78,42.66,-14.22
1554219781745,-1.283292,-8.796896,3.6050692000000004,-0.040480047000000005,0.11717909,-0.08735169,-27.84,42.66,-14.22
1554219781766,-1.283292,-8.839992,3.6816837999999996,-0.035153727999999995,0.11717909,-0.07030745599999999,-27.9,42.6,-14.22
1554219781786,-1.2593501,-8.839992,3.4231097999999998,-0.017044231,0.112918034,-0.058589544,-27.96,42.6,-14.22
1554219781804,-1.1971009,-8.768166,3.4278982000000005,-0.0010652645,0.10439592,-0.049002163,-28.02,42.54,-14.28
1554219781825,-1.1156979999999999,-8.610147,3.413533,0.008522116,0.09587380000000001,-0.04261058,-28.2,42.3,-14.28
1554219781844,-1.0486604,-8.567052,3.5332432000000003,0.004261058,0.08841695,-0.040480047000000005,-28.26,42.24,-14.34
1554219781866,-0.9672575000000001,-8.557475,3.4039562000000005,-0.024501082,0.08522116,-0.053263225,-28.32,42.12,-14.34
1554219781885,-0.92416185,-8.581417,3.3608606,-0.07669904,0.080960095,-0.07456851,-28.44,42.0,-14.4
1554219781904,-0.90979666,-8.849568,3.3895910000000002,-0.13209279,0.07350325,-0.09161274,-28.5,41.88,-14.4
1554219781924,-0.81402856,-8.950125,3.4518404,-0.16298546,0.068176925,-0.10013486,-28.56,41.76,-14.4
1554219781945,-1.067814,-9.055469500000001,3.4757824,-0.14913702,0.06178534,-0.10226539,-28.62,41.64,-14.4
1554219781964,-0.9864110999999999,-9.194333,3.470994,-0.12783173,0.056459017,-0.101200126,-28.62,41.58,-14.34
1554219781984,-0.94331545,-9.045893,3.5093012000000003,-0.08628642,0.047936900000000005,-0.10652645,-28.56,41.7,-14.28
1554219782005,-0.91937345,-9.065046,3.5811272000000005,-0.07350325,0.03834952,-0.11504856,-28.56,41.7,-14.16
1554219782026,-0.9911995000000001,-8.978855000000001,3.3273417999999997,-0.07669904,0.03195793,-0.12357068,-28.62,41.76,-14.1
1554219782044,-0.9768343,-9.012374000000001,3.3704373999999997,-0.07882957,0.012783173500000002,-0.13422333,-28.62,41.82,-14.1
1554219782066,-1.0007763,-9.0794115,3.2650926,-0.07243799,-0.010652645,-0.13954964,-28.62,41.88,-14.1
1554219782086,-1.067814,-9.0842,3.4566288,-0.06391586,-0.018109497,-0.1438107,-28.62,41.88,-14.16
1554219782104,-1.0630256,-9.146449,3.293823,-0.041545313,-0.029827405,-0.1438107,-28.62,41.94,-14.16
1554219782124,-1.0486604,-9.141661000000001,3.4422636,-0.026631612000000002,-0.034088463,-0.12996227,-28.62,41.88,-14.16
1554219782145,-1.2306197,-9.11293,3.4518404,-0.02876214,-0.026631612000000002,-0.10759171,-28.62,41.82,-14.22
1554219782164,-1.1300632,-9.088988,3.4039562000000005,-0.03195793,-0.022370555,-0.083090626,-28.74,41.76,-14.28
1554219782184,-1.1444284,-9.132083999999999,3.3081882000000005,-0.03195793,-0.012783173500000002,-0.06391586,-28.86,41.7,-14.34
1554219782205,-1.2976573999999998,-8.96449,3.2411506,-0.014913702,0.0053263223,-0.03195793,-28.98,41.58,-14.34
1554219782224,-1.2497733,-9.055469500000001,3.1118636000000004,-0.008522116,0.0053263223,-0.01917476,-29.1,41.46,-14.34
1554219782244,-1.2258313,-9.041103999999999,3.2507273999999997,-0.011717908999999999,0.0053263223,-0.0063915867,-29.22,41.4,-14.28
1554219782264,-1.13964,-8.993219999999999,3.2555158,-0.023435817999999997,-0.0010652645,0.004261058,-29.34,41.34,-14.28
1554219782285,-0.9672575000000001,-9.1033535,3.3512837999999996,-0.026631612000000002,-0.013848438000000001,0.00958738,-29.46,41.28,-14.28
1554219782304,-0.90500826,-9.132083999999999,3.3081882000000005,-0.010652645,-0.013848438000000001,-0.0010652645,-29.58,41.22,-14.28
1554219782325,-0.7757214,-9.007586,3.3369186,0.0031957934000000003,-0.02130529,-0.014913702,-29.58,41.22,-14.22
1554219782345,-0.7038953,-9.021951,3.221997,0.0053263223,-0.020240024,-0.034088463,-29.52,41.22,-14.22
1554219782365,-0.6703765,-9.122507,3.1501707999999997,-0.004261058,-0.025566347000000003,-0.05965481,-29.46,41.22,-14.16
1554219782384,-0.78050977,-9.0794115,3.2076318,-0.004261058,-0.024501082,-0.068176925,-29.4,41.22,-14.16
1554219782404,-0.81881696,-9.0794115,3.0735563999999997,-0.015978966,-0.01917476,-0.07243799,-29.34,41.22,-14.1
1554219782425,-0.8379706,-8.897452000000001,3.0879216,-0.039414786,-0.012783173500000002,-0.07669904,-29.34,41.22,-14.1
1554219782445,-0.9672575000000001,-8.940548,3.116652,-0.06285059999999999,-0.014913702,-0.07776430000000001,-29.28,41.28,-14.04
1554219782464,-0.93852705,-9.0794115,3.1070752,-0.101200126,-0.02130529,-0.082025364,-29.28,41.28,-14.04
1554219782484,-0.89543146,-9.021951,3.1070752,-0.14807177,-0.02876214,-0.08735169,-29.28,41.28,-13.98
1554219782504,-0.92895025,-9.108141999999999,3.1741127999999996,-0.1768339,-0.035153727999999995,-0.09374327,-29.28,41.28,-13.98
1554219782524,-1.0055646999999999,-9.266159,3.2555158,-0.17470337,-0.04474111,-0.09587380000000001,-29.28,41.28,-13.98
1554219782544,-0.8714894,-9.213486999999999,3.3033997999999998,-0.16192019,-0.043675844000000005,-0.09161274,-29.28,41.28,-13.98
1554219782566,-0.92416185,-9.160814,3.2363622000000003,-0.1107875,-0.034088463,-0.07669904,-29.28,41.28,-13.98
1554219782585,-0.8858546,-9.012374000000001,3.2124202,-0.10226539,-0.034088463,-0.07350325,-29.34,41.28,-13.98
1554219782605,-0.8379706,-8.907029,3.2603042,-0.11717909,-0.034088463,-0.06604639400000001,-29.34,41.28,-13.98
1554219782624,-0.9864110999999999,-8.835203,3.2267854,-0.13422333,-0.02876214,-0.06604639400000001,-29.28,41.28,-13.92
1554219782646,-0.78050977,-8.796896,3.245939,-0.15765914,-0.017044231,-0.07456851,-29.28,41.22,-13.92
1554219782665,-0.89064306,-8.93576,3.116652,-0.1587244,0.0063915867,-0.080960095,-29.22,41.1,-13.86
1554219782684,-0.82360536,-8.978855000000001,3.1118636000000004,-0.15020229,0.025566347000000003,-0.08841695,-29.22,40.92,-13.8
1554219782705,-0.8858546,-9.041103999999999,2.9107506,-0.13848437,0.034088463,-0.10013486,-29.22,40.62,-13.62
1554219782724,-0.91937345,-9.227852,3.0113072,-0.1438107,0.029827405,-0.1107875,-29.28,40.26,-13.5
1554219782744,-0.8379706,-9.314043,2.9059622000000003,-0.13528858,0.03195793,-0.11930962,-29.34,39.96,-13.38
1554219782765,-0.91458505,-9.304466,2.8772318,-0.1107875,0.020240024,-0.12037488,-29.4,39.6,-13.26
1554219782784,-0.8379706,-9.304466,2.8341362,-0.080960095,0.014913702,-0.10972224,-29.58,39.3,-13.08
1554219782804,-0.8283938,-9.376292,2.7670987,-0.051132694000000006,0.018109497,-0.09267801,-29.7,39.12,-12.96
1554219782825,-0.81402856,-9.242217,2.9346926,-0.026631612000000002,0.02876214,-0.08522116,-29.82,39.06,-12.84
1554219782845,-0.80924016,-9.194333,2.819771,-0.03195793,0.03089267,-0.08628642,-29.94,39.12,-12.72
1554219782865,-0.7374141,-9.304466,2.8485014,-0.05539375,0.035153727999999995,-0.08735169,-30.0,39.3,-12.66
1554219782885,-0.7374141,-9.280524,2.8868085999999997,-0.06604639400000001,0.04261058,-0.084155895,-30.06,39.48,-12.6
1554219782905,-0.8379706,-9.314043,2.9394810000000002,-0.05539375,0.039414786,-0.07776430000000001,-30.12,39.66,-12.54
1554219782924,-0.81402856,-9.381081,2.9346926,-0.03089267,0.034088463,-0.06711166,-30.12,39.84,-12.48
1554219782945,-0.82360536,-9.218275,2.9346926,-0.012783173500000002,0.026631612000000002,-0.06285059999999999,-30.06,40.02,-12.48
1554219782964,-0.79966336,-9.304466,2.8772318,-0.0053263223,0.011717908999999999,-0.06711166,-30.06,40.08,-12.42
1554219782985,-0.8523358,-9.266159,2.9299042,-0.010652645,0.0031957934000000003,-0.06391586,-30.06,40.02,-12.42
1554219783004,-0.8714894,-9.342773,2.915539,-0.0063915867,-0.007456851,-0.05752428,-30.06,39.96,-12.36
1554219783024,-0.81881696,-9.328408,2.8389246,0.023435817999999997,-0.011717908999999999,-0.04474111,-30.06,39.84,-12.36
1554219783044,-0.8283938,-9.223063,2.7575218999999995,0.04580637,-0.0063915867,-0.03834952,-30.06,39.66,-12.36
1554219783064,-0.79966336,-9.227852,2.843713,0.051132694000000006,-0.0053263223,-0.033023197000000004,-30.12,39.54,-12.36
1554219783084,-0.770933,-9.261371,2.867655,0.05219796,-0.004261058,-0.027696876000000002,-30.12,39.42,-12.36
1554219783104,-0.80445176,-9.165602999999999,2.8820202,0.05539375,-0.00958738,-0.015978966,-30.12,39.36,-12.36
1554219783124,-0.7422025,-9.093777000000001,2.9011737999999996,0.06391586,-0.0010652645,-0.00958738,-30.18,39.24,-12.36
1554219783145,-0.6991069000000001,-9.160814,2.7910407000000004,0.07137272,-0.002130529,-0.007456851,-30.18,39.18,-12.42
1554219783165,-0.8379706,-9.122507,3.0160956000000003,0.07137272,-0.011717908999999999,-0.0063915867,-30.18,39.12,-12.48
1554219783184,-0.78529817,-9.1512375,2.7814639,0.06391586,-0.018109497,-0.011717908999999999,-30.24,39.12,-12.54
1554219783204,-0.7469909,-9.1512375,2.8389246,0.056459017,-0.035153727999999995,-0.017044231,-30.24,39.12,-12.66
1554219783224,-0.81402856,-9.141661000000001,2.8628666000000003,0.06178534,-0.043675844000000005,-0.017044231,-30.24,39.06,-12.78
1554219783244,-0.82360536,-9.194333,2.7766755,0.058589544,-0.06285059999999999,-0.018109497,-30.3,39.06,-12.84
1554219783264,-0.8331822,-9.184756,2.9634232999999996,0.056459017,-0.080960095,-0.018109497,-30.36,38.94,-12.96
1554219783284,-0.8858546,-9.098564999999999,2.8868085999999997,0.07137272,-0.09374327,-0.00958738,-30.42,38.88,-13.02
1554219783305,-0.79008657,-9.069835000000001,2.8054059,0.07669904,-0.10439592,-0.0053263223,-30.48,38.82,-13.08
1554219783325,-0.63206923,-9.160814,2.915539,0.054328485999999995,-0.10226539,-0.01917476,-30.54,38.7,-13.14
1554219783345,-0.770933,-9.11293,2.8389246,0.027696876000000002,-0.101200126,-0.023435817999999997,-30.6,38.64,-13.14
1554219783365,-0.770933,-9.294889,3.0591912,0.015978966,-0.10226539,-0.017044231,-30.72,38.52,-13.08
1554219783385,-0.6847416999999999,-9.314043,3.1358056,0.023435817999999997,-0.09587380000000001,-0.017044231,-30.72,38.34,-13.02
1554219783404,-0.7613561,-9.179967999999999,2.9442697,0.033023197000000004,-0.094808534,-0.012783173500000002,-30.72,38.16,-12.96
1554219783425,-0.7613561,-9.266159,3.0496144,0.03834952,-0.094808534,-0.017044231,-30.72,37.86,-12.9
1554219783444,-0.78050977,-9.179967999999999,2.891597,0.041545313,-0.096939065,-0.018109497,-30.72,37.8,-12.9
1554219783464,-0.6751649000000001,-9.223063,3.0065188,0.049002163,-0.09054748,-0.022370555,-30.72,37.56,-12.84
1554219783485,-0.7469909,-9.156025999999999,2.9921536,0.05752428,-0.094808534,-0.027696876000000002,-30.72,37.2,-12.84
1554219783504,-0.7182605,-9.0842,2.8341362,0.05965481,-0.09374327,-0.026631612000000002,-30.78,37.02,-12.84
1554219783524,-0.79487497,-9.036316000000001,2.843713,0.06604639400000001,-0.09054748,-0.025566347000000003,-30.9,36.66,-12.84
1554219783547,-0.8810662,-9.065046,2.28347,0.05965481,-0.08948222,-0.029827405,-31.02,36.42,-12.84
1554219783564,-0.4165911,-9.179967999999999,3.3560722000000003,0.046871635999999994,-0.082025364,-0.024501082,-31.2,36.18,-12.78
1554219783585,-0.7469909,-8.849568,3.5523968,0.041545313,-0.07563378,-0.025566347000000003,-31.32,36.0,-12.78
1554219783604,-0.79008657,-9.141661000000001,2.0632033,0.033023197000000004,-0.06391586,-0.02876214,-31.44,35.76,-12.78
1554219783624,-0.2825158,-9.093777000000001,4.4143095,0.022370555,-0.056459017,-0.035153727999999995,-31.56,35.58,-12.72
1554219783644,-0.8762778,-8.954913000000001,2.1733365,0.025566347000000003,-0.04580637,-0.04261058,-31.62,35.52,-12.72
1554219783664,-0.35913026,-9.314043,2.9634232999999996,0.018109497,-0.037284255,-0.05006743,-31.62,35.52,-12.78
1554219783685,-0.5506664000000001,-9.021951,3.7966053,0.00958738,-0.027696876000000002,-0.05539375,-31.62,35.58,-12.78
1554219783704,-0.90500826,-9.11293,1.9961656000000003,0.013848438000000001,-0.02130529,-0.05965481,-31.56,35.7,-12.78
1554219783725,-0.45489833,-9.213486999999999,4.0695443,0.018109497,-0.014913702,-0.06391586,-31.5,35.88,-12.84
1554219783744,-0.92416185,-8.854357,3.0591912,0.014913702,-0.004261058,-0.06391586,-31.5,36.0,-12.84
1554219783764,-0.6560113000000001,-9.1512375,2.4702177000000005,-0.004261058,0.002130529,-0.05965481,-31.44,36.12,-12.78
1554219783785,-0.545878,-8.96449,3.8827964999999995,-0.02130529,0.008522116,-0.060720075,-31.44,36.12,-12.72
1554219783804,-0.8379706,-9.055469500000001,2.7527334999999997,-0.02876214,0.013848438000000001,-0.06498113,-31.44,36.06,-12.66
1554219783825,-0.7134720999999999,-9.266159,3.3464954,-0.040480047000000005,0.00958738,-0.06604639400000001,-31.44,36.0,-12.66
1554219783844,-0.8379706,-9.132083999999999,2.8532897999999998,-0.03834952,0.0010652645,-0.05752428,-31.44,35.94,-12.66
1554219783865,-0.770933,-9.223063,3.3129766000000003,-0.017044231,-0.008522116,-0.05006743,-31.44,35.82,-12.6
1554219783884,-0.8475474000000001,-9.165602999999999,2.9730000000000003,0.011717908999999999,-0.017044231,-0.04474111,-31.44,35.76,-12.6
1554219783904,-0.7134720999999999,-9.074622999999999,3.2028434,0.022370555,-0.023435817999999997,-0.040480047000000005,-31.38,35.76,-12.6
1554219783924,-0.6895300999999999,-8.998009,3.1214404,0.015978966,-0.034088463,-0.036218993,-31.38,35.94,-12.6
1554219783945,-0.641646,-9.098564999999999,3.068768,0.0053263223,-0.039414786,-0.041545313,-31.38,36.24,-12.66
1554219783964,-0.6560113000000001,-9.122507,3.1262288,0.007456851,-0.043675844000000005,-0.043675844000000005,-31.26,36.6,-12.66
1554219783985,-0.6368576,-9.189544999999999,3.0735563999999997,0.004261058,-0.04474111,-0.043675844000000005,-31.14,36.96,-12.66
1554219784004,-0.59855044,-9.160814,3.317765,0.0053263223,-0.046871635999999994,-0.04261058,-31.02,37.26,-12.72
1554219784024,-0.7086836999999999,-9.170391,2.8868085999999997,-0.002130529,-0.04580637,-0.04474111,-30.84,37.56,-12.78
1554219784045,-0.47405192,-9.194333,3.8492777,-0.014913702,-0.046871635999999994,-0.041545313,-30.72,37.74,-12.78
1554219784064,-0.90021986,-9.045893,2.0009542000000002,-0.020240024,-0.05006743,-0.036218993,-30.6,37.86,-12.84
1554219784084,-0.47884035,-9.385869,3.9498343,-0.01917476,-0.047936900000000005,-0.035153727999999995,-30.42,37.92,-12.84
1554219784104,-1.0199299000000002,-9.069835000000001,2.0105310000000003,-0.012783173500000002,-0.049002163,-0.033023197000000004,-30.36,38.1,-12.84
1554219784125,-0.7565677,-9.270947,2.3744495,0.010652645,-0.049002163,-0.023435817999999997,-30.3,38.4,-12.78
1554219784145,-0.39743748,-9.160814,4.371214,0.03089267,-0.05006743,-0.02130529,-30.24,38.7,-12.66
1554219784165,-0.8714894,-9.122507,2.0632033,0.036218993,-0.046871635999999994,-0.022370555,-30.24,39.06,-12.6
1554219784185,-0.4213795,-9.256582,4.0934862999999995,0.03089267,-0.05006743,-0.022370555,-30.18,39.36,-12.48
1554219784204,-0.90500826,-8.96449,2.9586349,0.026631612000000002,-0.053263225,-0.024501082,-30.12,39.66,-12.42
1554219784224,-0.5363011999999999,-9.132083999999999,2.460641,0.022370555,-0.05539375,-0.025566347000000003,-30.06,40.02,-12.36
1554219784244,-0.38307226,-9.0842,4.1653123,0.018109497,-0.053263225,-0.027696876000000002,-29.94,40.26,-12.36
1554219784265,-0.866701,-9.069835000000001,1.881244,0.008522116,-0.05539375,-0.024501082,-29.82,40.38,-12.36
1554219784285,-0.29688102,-9.11293,3.8109705000000003,0.0010652645,-0.05539375,-0.026631612000000002,-29.7,40.38,-12.36
1554219784305,-0.7565677,-8.940548,2.7335799,-0.0053263223,-0.046871635999999994,-0.033023197000000004,-29.58,40.32,-12.42
1554219784324,-0.49799395,-9.194333,3.470994,-0.017044231,-0.04261058,-0.037284255,-29.52,40.26,-12.48
1554219784345,-0.6751649000000001,-9.108141999999999,3.0017304,-0.02130529,-0.04261058,-0.039414786,-29.46,40.26,-12.42
1554219784365,-0.58418524,-9.251794,3.317765,-0.0031957934000000003,-0.043675844000000005,-0.035153727999999995,-29.4,40.2,-12.42
1554219784385,-0.6655880999999999,-9.247005,3.2507273999999997,0.033023197000000004,-0.043675844000000005,-0.03834952,-29.34,40.2,-12.36
1554219784404,-0.5267244000000001,-9.0794115,3.3800142,0.068176925,-0.04261058,-0.033023197000000004,-29.34,40.2,-12.3
1554219784425,-0.521936,-9.045893,3.2603042,0.082025364,-0.04261058,-0.026631612000000002,-29.34,40.26,-12.24
1554219784444,-0.41180268,-9.007586,3.0974984,0.06604639400000001,-0.037284255,-0.029827405,-29.28,40.32,-12.24
1554219784464,-0.44532153,-9.069835000000001,3.1932666000000003,0.049002163,-0.025566347000000003,-0.02876214,-29.28,40.38,-12.24
1554219784485,-0.5554548,-9.093777000000001,3.1597476,0.039414786,-0.012783173500000002,-0.024501082,-29.34,40.44,-12.24
1554219784504,-0.50757074,-8.974067,3.1597476,0.02876214,0.002130529,-0.026631612000000002,-29.34,40.5,-12.3
1554219784524,-0.45010993,-9.041103999999999,3.1501707999999997,0.0063915867,0.018109497,-0.02876214,-29.28,40.56,-12.3
1554219784547,-0.5602431999999999,-9.088988,3.2603042,-0.010652645,0.026631612000000002,-0.029827405,-29.28,40.62,-12.3
1554219784564,-0.5746084,-9.11293,3.341707,-0.008522116,0.02876214,-0.03195793,-29.28,40.62,-12.3
1554219784585,-0.50757074,-9.108141999999999,3.2650926,0.0053263223,0.029827405,-0.037284255,-29.28,40.62,-12.3
1554219784605,-0.6512229,-9.036316000000001,3.4231097999999998,0.013848438000000001,0.03195793,-0.039414786,-29.28,40.62,-12.3
1554219784625,-0.61291564,-9.11293,3.3895910000000002,0.033023197000000004,0.027696876000000002,-0.04261058,-29.28,40.62,-12.3
1554219784644,-0.6799533,-9.098564999999999,3.2746694,0.04474111,0.03089267,-0.047936900000000005,-29.28,40.62,-12.36
1554219784665,-0.6895300999999999,-9.199121,3.2076318,0.04580637,0.02876214,-0.051132694000000006,-29.28,40.62,-12.36
1554219784684,-0.6560113000000001,-9.041103999999999,3.1836896,0.043675844000000005,0.026631612000000002,-0.05539375,-29.28,40.56,-12.36
1554219784705,-0.6847416999999999,-9.098564999999999,3.2172085999999998,0.041545313,0.02876214,-0.05539375,-29.28,40.56,-12.42
1554219784724,-0.6464345,-9.069835000000001,3.3273417999999997,0.04261058,0.03195793,-0.05219796,-29.28,40.62,-12.48
1554219784744,-0.6464345,-8.993219999999999,3.2603042,0.039414786,0.033023197000000004,-0.051132694000000006,-29.28,40.62,-12.6
1554219784765,-0.6751649000000001,-9.0315275,3.3273417999999997,0.033023197000000004,0.033023197000000004,-0.053263225,-29.28,40.68,-12.66
1554219784784,-0.61770403,-8.988432000000001,3.2124202,0.02876214,0.03834952,-0.053263225,-29.28,40.68,-12.72
1554219784804,-0.6895300999999999,-9.1512375,3.3752258,0.024501082,0.03834952,-0.049002163,-29.28,40.68,-12.78
1554219784825,-0.60333884,-9.132083999999999,3.3895910000000002,0.034088463,0.039414786,-0.047936900000000005,-29.34,40.74,-12.84
1554219784844,-0.6464345,-9.074622999999999,3.221997,0.05219796,0.04474111,-0.053263225,-29.4,40.74,-12.9
1554219784865,-0.641646,-9.055469500000001,3.3369186,0.05219796,0.037284255,-0.06498113,-29.46,40.74,-12.96
1554219784885,-0.6512229,-9.0842,3.1836896,0.040480047000000005,0.037284255,-0.07137272,-29.52,40.74,-12.96
1554219784904,-0.7038953,-9.012374000000001,3.3273417999999997,0.02130529,0.033023197000000004,-0.07350325,-29.58,40.74,-12.96
1554219784925,-0.6751649000000001,-9.0794115,3.317765,0.01917476,0.023435817999999997,-0.07776430000000001,-29.58,40.74,-12.96
1554219784945,-0.7374141,-9.055469500000001,3.2363622000000003,0.02876214,0.017044231,-0.07776430000000001,-29.64,40.68,-12.9
1554219784965,-0.7038953,-9.1272955,3.2698810000000003,0.041545313,0.008522116,-0.07030745599999999,-29.7,40.68,-12.9
1554219784985,-0.7565677,-9.093777000000001,3.3081882000000005,0.05006743,0.0053263223,-0.06391586,-29.76,40.68,-12.9
1554219785004,-0.7230489,-8.969278,3.317765,0.03834952,0.007456851,-0.060720075,-29.76,40.68,-13.02
1554219785025,-0.7517793,-9.11293,3.3081882000000005,0.024501082,0.008522116,-0.054328485999999995,-29.76,40.68,-13.08
1554219785045,-0.7134720999999999,-9.074622999999999,3.3560722000000003,0.018109497,0.007456851,-0.049002163,-29.7,40.68,-13.2
1554219785065,-0.6464345,-9.017161999999999,3.2986114,0.020240024,0.0053263223,-0.04261058,-29.7,40.68,-13.32
1554219785086,-0.60812724,-9.074622999999999,3.3512837999999996,0.018109497,0.004261058,-0.04261058,-29.64,40.74,-13.44
1554219785106,-0.6799533,-9.0842,3.3608606,0.002130529,-0.0010652645,-0.043675844000000005,-29.64,40.74,-13.5
1554219785125,-0.545878,-9.0315275,3.3704373999999997,-0.0031957934000000003,-0.0010652645,-0.037284255,-29.64,40.74,-13.5
1554219785145,-0.60812724,-9.045893,3.2890346,0.010652645,0.0010652645,-0.03089267,-29.58,40.74,-13.56
1554219785165,-0.62249243,-9.045893,3.3273417999999997,0.027696876000000002,0.0053263223,-0.023435817999999997,-29.58,40.8,-13.56
1554219785185,-0.5650316,-9.041103999999999,3.293823,0.03195793,0.011717908999999999,-0.020240024,-29.58,40.8,-13.56
1554219785204,-0.58897364,-9.065046,3.3608606,0.010652645,0.02130529,-0.022370555,-29.58,40.8,-13.5
1554219785224,-0.5793968,-8.993219999999999,3.2890346,-0.008522116,0.02876214,-0.02130529,-29.58,40.8,-13.44
1554219785244,-0.545878,-9.065046,3.3608606,-0.007456851,0.035153727999999995,-0.023435817999999997,-29.64,40.8,-13.38
1554219785265,-0.47884035,-9.012374000000001,3.317765,0.0,0.039414786,-0.024501082,-29.64,40.8,-13.32
1554219785287,-0.5410896,-9.0315275,3.3129766000000003,0.0031957934000000003,0.047936900000000005,-0.025566347000000003,-29.64,40.8,-13.32
1554219785305,-0.5506664000000001,-9.074622999999999,3.3464954,0.002130529,0.051132694000000006,-0.026631612000000002,-29.7,40.8,-13.26
1554219785324,-0.5650316,-9.017161999999999,3.3369186,0.002130529,0.056459017,-0.03089267,-29.7,40.8,-13.26
1554219785344,-0.6607997,-9.069835000000001,3.3704373999999997,-0.002130529,0.06178534,-0.035153727999999995,-29.76,40.8,-13.2
1554219785365,-0.6847416999999999,-9.141661000000001,3.365649,0.0031957934000000003,0.06391586,-0.035153727999999995,-29.82,40.8,-13.14
1554219785385,-0.7278373,-9.160814,3.3704373999999997,0.023435817999999997,0.06604639400000001,-0.03089267,-29.82,40.8,-13.14
1554219785405,-0.6991069000000001,-9.108141999999999,3.3560722000000003,0.046871635999999994,0.06498113,-0.035153727999999995,-29.82,40.8,-13.14
1554219785424,-0.7038953,-9.021951,3.3129766000000003,0.05752428,0.06498113,-0.03834952,-29.82,40.8,-13.2
1554219785444,-0.6703765,-8.926183,3.3560722000000003,0.047936900000000005,0.05752428,-0.036218993,-29.82,40.8,-13.2
1554219785465,-0.6895300999999999,-8.954913000000001,3.4326867999999995,0.03834952,0.05219796,-0.04580637,-29.76,40.8,-13.2
1554219785486,-0.770933,-8.902241,3.4183214,0.026631612000000002,0.049002163,-0.056459017,-29.76,40.86,-13.26
1554219785504,-0.7230489,-9.036316000000001,3.3560722000000003,0.015978966,0.041545313,-0.05752428,-29.7,40.86,-13.32
1554219785524,-0.8331822,-9.036316000000001,3.2603042,0.004261058,0.033023197000000004,-0.053263225,-29.7,40.86,-13.38
1554219785544,-0.79966336,-9.132083999999999,3.413533,0.0010652645,0.01917476,-0.053263225,-29.76,40.92,-13.56
1554219785565,-0.81402856,-9.074622999999999,3.4997244,0.018109497,0.014913702,-0.04261058,-29.76,40.92,-13.68
1554219785586,-0.8714894,-9.017161999999999,3.4757824,0.035153727999999995,0.0063915867,-0.03834952,-29.76,40.92,-13.8
1554219785604,-0.866701,-8.983644,3.4039562000000005,0.036218993,-0.002130529,-0.029827405,-29.76,40.92,-13.92
1554219785624,-0.8858546,-9.050680999999999,3.4039562000000005,0.033023197000000004,-0.008522116,-0.027696876000000002,-29.76,40.92,-14.04
1554219785644,-0.8571242,-8.96449,3.4087446000000003,0.02876214,-0.012783173500000002,-0.029827405,-29.76,40.86,-14.16
1554219785664,-0.79966336,-8.983644,3.413533,0.03195793,-0.018109497,-0.023435817999999997,-29.7,40.86,-14.22
1554219785685,-0.770933,-8.93576,3.4278982000000005,0.036218993,-0.02130529,-0.02130529,-29.64,40.86,-14.22
1554219785704,-0.7278373,-8.993219999999999,3.3752258,0.03089267,-0.024501082,-0.025566347000000003,-29.64,40.86,-14.22
1554219785725,-0.7517793,-8.921394,3.3895910000000002,0.020240024,-0.03089267,-0.026631612000000002,-29.58,40.86,-14.16
1554219785745,-0.79008657,-8.959702,3.3369186,0.018109497,-0.034088463,-0.024501082,-29.58,40.92,-14.1
1554219785765,-0.6895300999999999,-9.017161999999999,3.3560722000000003,0.017044231,-0.033023197000000004,-0.023435817999999997,-29.58,40.92,-14.1
1554219785784,-0.78050977,-8.835203,3.5476084,0.010652645,-0.03089267,-0.022370555,-29.52,40.92,-14.04
1554219785804,-0.6512229,-8.916606,3.3225534,0.002130529,-0.024501082,-0.025566347000000003,-29.58,40.92,-14.04
1554219785825,-0.6847416999999999,-8.926183,3.5619736000000004,-0.013848438000000001,-0.018109497,-0.025566347000000003,-29.58,40.92,-14.04
1554219785845,-0.7517793,-8.897452000000001,3.5093012000000003,-0.022370555,-0.010652645,-0.024501082,-29.58,40.92,-14.04
1554219785864,-0.63206923,-8.897452000000001,3.5332432000000003,-0.02876214,-0.0053263223,-0.027696876000000002,-29.58,40.92,-14.04
1554219785885,-0.62728083,-9.017161999999999,3.5811272000000005,-0.02130529,-0.002130529,-0.03089267,-29.52,40.92,-14.1
1554219785905,-0.7469909,-8.974067,3.4422636,-0.014913702,0.008522116,-0.03195793,-29.52,40.92,-14.1
1554219785925,-0.6847416999999999,-9.007586,3.5523968,-0.010652645,0.012783173500000002,-0.036218993,-29.52,40.86,-14.16
1554219785944,-0.7517793,-8.988432000000001,3.3991678,-0.008522116,0.015978966,-0.03834952,-29.46,40.86,-14.16
1554219785965,-0.6847416999999999,-9.012374000000001,3.4614172,-0.008522116,0.01917476,-0.04261058,-29.46,40.86,-14.16
1554219785985,-0.7565677,-9.036316000000001,3.470994,-0.002130529,0.022370555,-0.047936900000000005,-29.4,40.86,-14.16
1554219786004,-0.62249243,-8.921394,3.4087446000000003,0.0,0.02130529,-0.05006743,-29.4,40.86,-14.16
1554219786026,-0.7134720999999999,-8.907029,3.447052,-0.002130529,0.024501082,-0.051132694000000006,-29.4,40.92,-14.16
1554219786044,-0.7278373,-9.041103999999999,3.5093012000000003,-0.0031957934000000003,0.029827405,-0.05219796,-29.4,40.92,-14.16
1554219786064,-0.7757214,-8.907029,3.54282,-0.0010652645,0.03089267,-0.053263225,-29.4,40.98,-14.1
1554219786085,-0.8283938,-8.902241,3.5523968,-0.0053263223,0.03089267,-0.05752428,-29.46,41.04,-14.04
1554219786105,-0.8523358,-8.926183,3.2794578000000003,-0.018109497,0.029827405,-0.053263225,-29.58,41.1,-13.98
1554219786124,-0.842759,-8.974067,3.4183214,-0.020240024,0.026631612000000002,-0.049002163,-29.64,41.16,-13.92
1554219786144,-0.8523358,-8.978855000000001,3.470994,-0.018109497,0.025566347000000003,-0.053263225,-29.7,41.16,-13.86
1554219786165,-0.8858546,-8.954913000000001,3.3704373999999997,-0.029827405,0.020240024,-0.05219796,-29.76,41.16,-13.86
1554219786185,-0.8762778,-9.026739,3.2794578000000003,-0.039414786,0.013848438000000001,-0.041545313,-29.88,41.16,-13.8
1554219786205,-0.8714894,-9.050680999999999,3.2650926,-0.027696876000000002,0.007456851,-0.035153727999999995,-29.88,41.1,-13.8
1554219786225,-0.8283938,-8.978855000000001,3.3752258,-0.0053263223,0.002130529,-0.02876214,-29.94,41.04,-13.8
1554219786245,-0.7661445,-8.950125,3.4566288,0.007456851,0.004261058,-0.025566347000000003,-29.94,40.86,-13.86
1554219786265,-0.81881696,-8.878299,3.4614172,0.002130529,0.010652645,-0.023435817999999997,-29.94,40.68,-13.92
1554219786285,-0.79487497,-8.849568,3.4518404,-0.012783173500000002,0.014913702,-0.027696876000000002,-29.88,40.62,-13.98
1554219786304,-0.7086836999999999,-8.907029,3.3991678,-0.047936900000000005,0.020240024,-0.035153727999999995,-29.88,40.56,-13.98
1554219786326,-0.545878,-8.96449,3.4231097999999998,-0.08735169,0.025566347000000003,-0.035153727999999995,-29.82,40.44,-14.1
1554219786345,-0.63206923,-9.194333,3.4231097999999998,-0.09587380000000001,0.037284255,-0.040480047000000005,-29.76,40.38,-14.16
1554219786364,-0.6751649000000001,-9.170391,3.5571851999999997,-0.083090626,0.05219796,-0.053263225,-29.7,40.38,-14.22
1554219786385,-0.7038953,-9.314043,3.3991678,-0.05006743,0.06391586,-0.053263225,-29.7,40.38,-14.22
1554219786405,-0.81881696,-9.199121,3.494936,-0.0053263223,0.07456851,-0.051132694000000006,-29.64,40.44,-14.22
1554219786425,-0.94331545,-9.132083999999999,3.5332432000000003,0.03834952,0.083090626,-0.047936900000000005,-29.58,40.5,-14.28
1554219786445,-0.91458505,-9.012374000000001,3.494936,0.05219796,0.082025364,-0.05006743,-29.52,40.62,-14.28
1554219786464,-0.89543146,-8.921394,3.3608606,0.054328485999999995,0.08735169,-0.046871635999999994,-29.46,40.68,-14.28
1554219786484,-0.9528923,-8.873510000000001,3.4805707999999997,0.041545313,0.083090626,-0.05006743,-29.4,40.68,-14.28
1554219786505,-0.89543146,-8.868722,3.341707,0.010652645,0.07456851,-0.056459017,-29.4,40.74,-14.28
1554219786525,-0.9624690999999999,-8.930971000000001,3.2507273999999997,-0.025566347000000003,0.06711166,-0.06178534,-29.4,40.8,-14.28
1554219786544,-0.94331545,-9.021951,3.3225534,-0.041545313,0.05965481,-0.06285059999999999,-29.46,40.8,-14.28
1554219786564,-0.842759,-9.021951,3.3225534,-0.040480047000000005,0.056459017,-0.060720075,-29.52,40.8,-14.28
1554219786585,-0.82360536,-9.017161999999999,3.2794578000000003,-0.027696876000000002,0.04580637,-0.056459017,-29.64,40.74,-14.34
1554219786604,-0.79966336,-9.0842,3.2363622000000003,-0.025566347000000003,0.035153727999999995,-0.056459017,-29.7,40.62,-14.4
1554219786624,-0.8619126,-9.007586,3.3608606,-0.036218993,0.02876214,-0.06178534,-29.82,40.5,-14.4
1554219786645,-0.78529817,-9.026739,3.1932666000000003,-0.047936900000000005,0.017044231,-0.068176925,-29.88,40.44,-14.46
1554219786666,-0.90500826,-9.050680999999999,3.2986114,-0.06178534,-0.002130529,-0.07989483,-29.94,40.32,-14.46
1554219786684,-0.89543146,-9.218275,3.4662056000000003,-0.05539375,-0.010652645,-0.07989483,-30.0,40.26,-14.46
1554219786705,-0.81881696,-9.251794,3.3895910000000002,-0.02876214,-0.018109497,-0.07456851,-30.0,40.2,-14.34
1554219786724,-0.82360536,-9.179967999999999,3.413533,0.013848438000000001,-0.018109497,-0.06178534,-30.0,40.14,-14.28
1554219786744,-0.93852705,-9.1512375,3.2746694,0.043675844000000005,-0.023435817999999997,-0.047936900000000005,-30.0,40.14,-14.22
1554219786765,-0.81881696,-8.921394,3.3081882000000005,0.051132694000000006,-0.025566347000000003,-0.041545313,-30.0,40.14,-14.16
1554219786785,-0.80924016,-8.911817999999998,3.1597476,0.027696876000000002,-0.024501082,-0.051132694000000006,-30.0,40.14,-14.16
1554219786804,-0.7565677,-8.96449,3.3991678,-0.022370555,-0.03195793,-0.060720075,-30.0,40.08,-14.16
1554219786825,-0.81881696,-9.179967999999999,3.3033997999999998,-0.056459017,-0.03089267,-0.06391586,-30.0,40.08,-14.16
1554219786845,-0.79966336,-9.194333,3.3991678,-0.03834952,-0.034088463,-0.05965481,-30.0,40.14,-14.16
1554219786864,-0.78050977,-9.242217,3.4422636,0.010652645,-0.040480047000000005,-0.046871635999999994,-30.0,40.14,-14.22
1554219786885,-0.7086836999999999,-9.108141999999999,3.5619736000000004,0.07456851,-0.034088463,-0.03834952,-30.06,40.14,-14.28
1554219786905,-0.7182605,-9.026739,3.4805707999999997,0.14487597,-0.023435817999999997,-0.03834952,-30.12,40.2,-14.34
1554219786924,-0.5602431999999999,-8.81605,3.4231097999999998,0.15446335,-0.018109497,-0.051132694000000006,-30.06,40.2,-14.34
1554219786944,-0.6655880999999999,-8.758589,3.365649,0.10972224,-0.011717908999999999,-0.068176925,-30.06,40.32,-14.34
1554219786965,-0.6607997,-8.84478,3.3895910000000002,0.043675844000000005,-0.0031957934000000003,-0.05752428,-30.06,40.44,-14.34
1554219786985,-0.62249243,-8.758589,3.4757824,0.0053263223,0.002130529,-0.06498113,-30.0,40.5,-14.34
1554219787005,-0.61770403,-8.863934,3.470994,-0.012783173500000002,0.007456851,-0.07030745599999999,-30.0,40.56,-14.34
1554219787025,-0.7038953,-8.940548,3.2986114,-0.034088463,0.018109497,-0.06711166,-29.88,40.62,-14.34
1554219787045,-0.7326256999999999,-9.012374000000001,3.2890346,-0.04474111,0.020240024,-0.06604639400000001,-29.82,40.68,-14.4
1554219787064,-0.6943185000000001,-9.021951,3.4997244,-0.04580637,0.01917476,-0.06924219,-29.7,40.74,-14.4
1554219787085,-0.7278373,-8.993219999999999,3.4231097999999998,-0.04474111,0.018109497,-0.06711166,-29.7,40.8,-14.46
1554219787105,-0.62249243,-9.045893,3.4566288,-0.041545313,0.015978966,-0.068176925,-29.64,40.8,-14.46
1554219787125,-0.6560113000000001,-8.983644,3.4422636,-0.037284255,0.017044231,-0.07030745599999999,-29.58,40.74,-14.46
1554219787144,-0.62728083,-9.050680999999999,3.4805707999999997,-0.03089267,0.010652645,-0.07137272,-29.58,40.68,-14.52
1554219787164,-0.6799533,-9.074622999999999,3.3943794,-0.020240024,0.00958738,-0.07456851,-29.58,40.68,-14.52
1554219787184,-0.641646,-9.026739,3.4614172,0.0031957934000000003,0.0031957934000000003,-0.07563378,-29.58,40.62,-14.52
1554219787205,-0.62249243,-9.036316000000001,3.4662056000000003,0.013848438000000001,0.010652645,-0.07563378,-29.58,40.62,-14.52
1554219787226,-0.6560113000000001,-9.050680999999999,3.4231097999999998,0.0063915867,0.013848438000000001,-0.07989483,-29.64,40.56,-14.58
1554219787244,-0.6799533,-9.0794115,3.3273417999999997,-0.0053263223,0.01917476,-0.07669904,-29.7,40.56,-14.58
1554219787264,-0.5315128,-8.988432000000001,3.341707,-0.013848438000000001,0.027696876000000002,-0.07776430000000001,-29.76,40.5,-14.58
1554219787285,-0.6991069000000001,-9.012374000000001,3.3560722000000003,-0.018109497,0.029827405,-0.083090626,-29.82,40.44,-14.58
1554219787305,-0.61770403,-8.998009,3.3704373999999997,-0.027696876000000002,0.029827405,-0.08735169,-29.88,40.32,-14.64
1554219787324,-0.62249243,-9.160814,3.3081882000000005,-0.027696876000000002,0.027696876000000002,-0.08841695,-29.94,40.26,-14.64
1554219787344,-0.5554548,-9.065046,3.4183214,-0.025566347000000003,0.023435817999999997,-0.09374327,-30.0,40.14,-14.64
1554219787365,-0.6655880999999999,-9.026739,3.365649,0.0,0.024501082,-0.083090626,-30.06,40.02,-14.64
1554219787384,-0.62728083,-9.093777000000001,3.4326867999999995,0.015978966,0.025566347000000003,-0.07456851,-30.06,39.9,-14.64
1554219787404,-0.521936,-8.978855000000001,3.3895910000000002,0.014913702,0.023435817999999997,-0.06924219,-30.12,39.84,-14.64
1554219787424,-0.5267244000000001,-8.921394,3.3512837999999996,-0.0063915867,0.03089267,-0.07350325,-30.12,39.78,-14.64
1554219787444,-0.49320555,-8.983644,3.3225534,-0.033023197000000004,0.03089267,-0.07989483,-30.12,39.9,-14.58
1554219787465,-0.59376204,-9.132083999999999,3.3129766000000003,-0.040480047000000005,0.03089267,-0.07563378,-30.12,39.96,-14.58
1554219787485,-0.59376204,-9.132083999999999,3.4183214,-0.02876214,0.03089267,-0.07137272,-30.18,40.02,-14.58
1554219787505,-0.6512229,-9.208698,3.3608606,0.0031957934000000003,0.035153727999999995,-0.06604639400000001,-30.18,40.08,-14.58
1554219787524,-0.6464345,-9.069835000000001,3.3033997999999998,0.03089267,0.03089267,-0.060720075,-30.24,40.14,-14.64
1554219787545,-0.5315128,-8.969278,3.3608606,0.03089267,0.029827405,-0.058589544,-30.3,40.2,-14.76
1554219787565,-0.6368576,-8.954913000000001,3.2555158,0.008522116,0.025566347000000003,-0.05752428,-30.36,40.2,-14.82
1554219787585,-0.51235914,-8.988432000000001,3.3704373999999997,-0.008522116,0.01917476,-0.05752428,-30.42,40.14,-14.94
1554219787604,-0.5410896,-8.974067,3.317765,-0.013848438000000001,0.020240024,-0.05965481,-30.54,40.14,-15.06
1554219787625,-0.58897364,-8.983644,3.3704373999999997,-0.0031957934000000003,0.024501082,-0.05219796,-30.6,40.08,-15.12
1554219787646,-0.6560113000000001,-9.007586,3.4614172,0.008522116,0.025566347000000003,-0.049002163,-30.72,40.02,-15.18
1554219787664,-0.6607997,-8.988432000000001,3.3704373999999997,0.008522116,0.024501082,-0.043675844000000005,-30.84,40.02,-15.24
1554219787686,-0.58418524,-9.069835000000001,3.3800142,0.0010652645,0.024501082,-0.043675844000000005,-30.84,39.96,-15.24
1554219787705,-0.6368576,-8.993219999999999,3.3800142,-0.011717908999999999,0.02130529,-0.04261058,-30.78,40.02,-15.18
1554219787725,-0.5793968,-9.045893,3.4231097999999998,-0.014913702,0.024501082,-0.039414786,-30.78,40.02,-15.06
1554219787744,-0.5793968,-9.0794115,3.2650926,-0.008522116,0.018109497,-0.035153727999999995,-30.66,40.02,-15.0
1554219787765,-0.61770403,-9.012374000000001,3.3273417999999997,0.0053263223,0.00958738,-0.033023197000000004,-30.6,40.02,-14.94
1554219787785,-0.59376204,-9.050680999999999,3.4422636,0.0063915867,0.0,-0.036218993,-30.54,40.02,-14.88
1554219787805,-0.6847416999999999,-9.036316000000001,3.2507273999999997,-0.00958738,-0.002130529,-0.036218993,-30.48,40.02,-14.82
1554219787824,-0.7086836999999999,-9.11293,3.3081882000000005,-0.011717908999999999,-0.0053263223,-0.034088463,-30.42,40.02,-14.76
1554219787845,-0.78529817,-9.093777000000001,3.3895910000000002,0.0053263223,-0.008522116,-0.024501082,-30.36,40.02,-14.7
1554219787864,-0.7182605,-9.141661000000001,3.4422636,0.02130529,-0.007456851,-0.01917476,-30.42,40.02,-14.7
1554219787884,-0.7422025,-9.098564999999999,3.4039562000000005,0.026631612000000002,-0.007456851,-0.018109497,-30.42,40.02,-14.7
1554219787904,-0.6512229,-9.055469500000001,3.4039562000000005,0.025566347000000003,-0.011717908999999999,-0.010652645,-30.48,40.02,-14.64
1554219787924,-0.62249243,-8.978855000000001,3.5236663999999998,0.02130529,-0.010652645,-0.010652645,-30.54,39.96,-14.64
1554219787945,-0.6847416999999999,-8.988432000000001,3.3560722000000003,0.02876214,-0.007456851,-0.011717908999999999,-30.54,39.9,-14.58
1554219787965,-0.6512229,-9.050680999999999,3.4326867999999995,0.03834952,-0.0063915867,-0.013848438000000001,-30.54,39.9,-14.64
1554219787984,-0.6751649000000001,-8.868722,3.4278982000000005,0.043675844000000005,-0.0010652645,-0.015978966,-30.54,39.9,-14.64
1554219788005,-0.63206923,-8.978855000000001,3.3464954,0.046871635999999994,0.0053263223,-0.013848438000000001,-30.48,39.84,-14.7
1554219788025,-0.61291564,-8.806473,3.5140896,0.046871635999999994,0.008522116,-0.02130529,-30.48,39.78,-14.76
1554219788045,-0.62728083,-8.983644,3.2890346,0.026631612000000002,0.013848438000000001,-0.03834952,-30.42,39.78,-14.82
1554219788065,-0.63206923,-9.045893,3.317765,-0.0031957934000000003,0.00958738,-0.04580637,-30.42,39.72,-14.88
1554219788085,-0.770933,-9.141661000000001,3.3991678,-0.007456851,0.010652645,-0.037284255,-30.36,39.78,-14.94
1554219788105,-0.7326256999999999,-9.108141999999999,3.3560722000000003,0.010652645,0.0031957934000000003,-0.03834952,-30.3,39.78,-15.0
1554219788125,-0.6847416999999999,-9.041103999999999,3.2267854,0.036218993,0.0,-0.03089267,-30.3,39.78,-15.06
1554219788145,-0.7422025,-8.868722,3.317765,0.040480047000000005,-0.007456851,-0.027696876000000002,-30.3,39.84,-15.06
1554219788165,-0.6751649000000001,-8.883087,3.4614172,0.03089267,-0.011717908999999999,-0.03089267,-30.3,39.84,-15.06
1554219788185,-0.6464345,-8.921394,3.3560722000000003,0.015978966,-0.012783173500000002,-0.029827405,-30.3,39.9,-15.06
1554219788204,-0.6751649000000001,-9.007586,3.5859156000000003,0.017044231,-0.008522116,-0.025566347000000003,-30.36,39.9,-15.0
1554219788224,-0.60812724,-8.916606,3.4278982000000005,0.026631612000000002,0.0,-0.022370555,-30.36,39.9,-15.0
1554219788245,-0.641646,-9.017161999999999,3.4662056000000003,0.01917476,0.010652645,-0.024501082,-30.42,39.96,-14.94
1554219788264,-0.60333884,-9.0842,3.4326867999999995,0.00958738,0.015978966,-0.02130529,-30.42,40.02,-14.94
1554219788284,-0.6847416999999999,-9.055469500000001,3.3943794,0.004261058,0.017044231,-0.027696876000000002,-30.42,40.02,-14.94
1554219788305,-0.7517793,-9.213486999999999,3.566762,0.004261058,0.014913702,-0.03195793,-30.42,40.08,-14.94
1554219788325,-0.7613561,-9.050680999999999,3.4662056000000003,0.0063915867,0.014913702,-0.03195793,-30.42,40.08,-14.94
1554219788344,-0.7517793,-9.11293,3.5523968,0.024501082,0.010652645,-0.029827405,-30.42,40.14,-15.0
1554219788364,-0.6751649000000001,-9.11293,3.3608606,0.039414786,0.0053263223,-0.02876214,-30.36,40.14,-15.0
1554219788385,-0.7613561,-9.0842,3.5571851999999997,0.06285059999999999,0.0010652645,-0.025566347000000003,-30.3,40.2,-15.0
1554219788404,-0.79487497,-9.122507,3.3991678,0.07456851,-0.00958738,-0.017044231,-30.3,40.14,-15.06
1554219788424,-0.7565677,-8.93576,3.4566288,0.07776430000000001,-0.007456851,-0.011717908999999999,-30.24,40.14,-15.06
1554219788445,-0.7086836999999999,-8.921394,3.6050692000000004,0.06391586,-0.0053263223,-0.013848438000000001,-30.24,40.08,-15.06
1554219788466,-0.7469909,-8.988432000000001,3.3943794,0.043675844000000005,-0.0063915867,-0.017044231,-30.24,40.08,-15.06
1554219788484,-0.6847416999999999,-9.017161999999999,3.494936,0.029827405,-0.010652645,-0.017044231,-30.24,40.02,-15.12
1554219788504,-0.61291564,-9.065046,3.5715504,0.033023197000000004,-0.0063915867,-0.0063915867,-30.24,40.02,-15.12
1554219788526,-0.6655880999999999,-8.978855000000001,3.6337996,0.047936900000000005,-0.0053263223,0.004261058,-30.3,40.02,-15.12
1554219788545,-0.6655880999999999,-9.0315275,3.4039562000000005,0.049002163,-0.002130529,0.004261058,-30.3,40.02,-15.18
1554219788565,-0.7469909,-9.055469500000001,3.5284547999999996,0.046871635999999994,0.0053263223,0.0,-30.3,40.02,-15.24
1554219788584,-0.6703765,-8.93576,3.5476084,0.033023197000000004,0.007456851,0.007456851,-30.3,40.02,-15.24
1554219788605,-0.6943185000000001,-8.749011999999999,3.5811272000000005,0.04261058,0.015978966,0.025566347000000003,-30.3,40.08,-15.3
1554219788624,-0.6607997,-8.710705,3.6816837999999996,0.041545313,0.02876214,0.02130529,-30.3,40.08,-15.36
1554219788644,-0.78529817,-8.634089,3.5811272000000005,-0.010652645,0.03195793,0.011717908999999999,-30.24,40.08,-15.36
1554219788665,-0.7565677,-8.768166,3.5045127999999997,-0.060720075,0.037284255,0.013848438000000001,-30.24,40.08,-15.36
1554219788684,-0.80445176,-8.926183,3.6768951000000003,-0.11504856,0.047936900000000005,0.012783173500000002,-30.18,40.02,-15.36
1554219788704,-0.770933,-8.974067,3.7487214,-0.10972224,0.053263225,0.017044231,-30.12,40.02,-15.42
1554219788724,-0.89064306,-9.156025999999999,3.7726634,-0.09161274,0.056459017,0.01917476,-30.12,40.02,-15.48
1554219788744,-0.81402856,-9.141661000000001,3.7582982000000005,-0.068176925,0.05006743,0.015978966,-30.12,39.96,-15.54
1554219788764,-0.7565677,-9.1512375,3.6050692000000004,-0.015978966,0.054328485999999995,0.024501082,-30.12,39.96,-15.6
1554219788785,-0.7038953,-8.950125,3.566762,0.039414786,0.05752428,0.027696876000000002,-30.12,39.96,-15.66
1554219788804,-0.6847416999999999,-8.993219999999999,3.3943794,0.05965481,0.06285059999999999,0.022370555,-30.12,40.02,-15.72
1554219788825,-0.7469909,-8.849568,3.317765,0.041545313,0.06711166,0.010652645,-30.12,40.14,-15.78
1554219788844,-0.7374141,-8.835203,3.3225534,0.02130529,0.068176925,0.0,-30.12,40.26,-15.84
1554219788864,-0.9672575000000001,-8.806473,3.4901476000000002,0.011717908999999999,0.06924219,-0.015978966,-30.12,40.38,-15.84
1554219788884,-1.0055646999999999,-8.796896,3.3464954,0.0053263223,0.06285059999999999,-0.02130529,-30.06,40.5,-15.78
1554219788909,-1.0055646999999999,-8.835203,3.4087446000000003,-0.008522116,0.06178534,-0.014913702,-30.06,40.62,-15.78
1554219788925,-1.0390834999999998,-8.93576,3.4901476000000002,-0.017044231,0.05752428,-0.014913702,-30.06,40.74,-15.78
1554219788946,-1.1109096,-8.854357,3.365649,-0.026631612000000002,0.056459017,-0.011717908999999999,-30.06,40.8,-15.78
1554219788966,-1.0103531,-8.988432000000001,3.3225534,-0.029827405,0.054328485999999995,-0.0053263223,-30.0,40.86,-15.78
1554219788985,-1.1348516000000002,-8.978855000000001,3.5523968,-0.039414786,0.049002163,-0.0031957934000000003,-30.0,40.86,-15.78
1554219789005,-1.0821792,-8.998009,3.6481647000000006,-0.046871635999999994,0.037284255,-0.00958738,-29.94,40.86,-15.78
1554219789024,-1.0582372,-9.132083999999999,3.5715504,-0.041545313,0.033023197000000004,-0.00958738,-29.88,40.86,-15.78
1554219789044,-1.0055646999999999,-9.0842,3.6002807999999997,-0.013848438000000001,0.02130529,-0.0031957934000000003,-29.82,40.86,-15.78
1554219789064,-1.0247183000000002,-9.074622999999999,3.447052,0.02130529,0.0063915867,0.0,-29.76,40.86,-15.84
1554219789085,-1.1540052,-8.974067,3.5284547999999996,0.04261058,-0.010652645,0.004261058,-29.76,40.86,-15.84
1554219789104,-1.067814,-9.021951,3.470994,0.03834952,-0.014913702,0.0010652645,-29.7,40.86,-15.78
1554219789125,-1.1013328000000002,-8.993219999999999,3.518878,0.029827405,-0.017044231,0.0010652645,-29.7,40.92,-15.78
1554219789145,-1.13964,-8.81605,3.447052,0.04580637,-0.015978966,0.029827405,-29.64,40.98,-15.78
1554219789165,-1.067814,-8.686762,3.4757824,0.068176925,-0.011717908999999999,0.04474111,-29.64,41.1,-15.78
1554219789185,-1.0342950999999998,-8.681973,3.3895910000000002,0.058589544,-0.0031957934000000003,0.047936900000000005,-29.64,41.16,-15.84
1554219789205,-1.1540052,-8.658031,3.5715504,0.011717908999999999,-0.004261058,0.043675844000000005,-29.64,41.22,-15.84
1554219789224,-1.1348516000000002,-8.739435,3.6290112,-0.06711166,0.010652645,0.03834952,-29.64,41.28,-15.9
1554219789245,-1.0582372,-8.883087,3.7582982000000005,-0.09587380000000001,0.015978966,0.036218993,-29.58,41.34,-15.9
1554219789265,-1.1252748,-8.993219999999999,3.7295678,-0.10226539,0.025566347000000003,0.037284255,-29.58,41.4,-15.9
1554219789285,-1.2210428999999998,-9.017161999999999,3.6577415,-0.11824436,0.035153727999999995,0.034088463,-29.58,41.4,-15.96
1554219789305,-1.2258313,-9.165602999999999,3.6673183,-0.11611383,0.040480047000000005,0.040480047000000005,-29.52,41.4,-15.96
1554219789325,-1.316811,-9.294889,3.6002807999999997,-0.08628642,0.05006743,0.058589544,-29.52,41.4,-15.96
1554219789346,-1.4077905000000002,-9.0315275,3.4326867999999995,-0.05219796,0.053263225,0.06498113,-29.46,41.4,-15.96
1554219789364,-1.4030021000000001,-8.835203,3.3895910000000002,-0.037284255,0.05219796,0.06498113,-29.34,41.4,-15.9
1554219789386,-1.364695,-8.72507,3.198055,-0.041545313,0.049002163,0.056459017,-29.28,41.46,-15.84
1554219789406,-1.3694833999999998,-8.523956,3.198055,-0.05539375,0.040480047000000005,0.036218993,-29.22,41.52,-15.78
1554219789425,-1.3694833999999998,-8.629301,3.1741127999999996,-0.07350325,0.025566347000000003,0.01917476,-29.16,41.58,-15.78
1554219789445,-1.4269443000000002,-8.567052,2.9442697,-0.09161274,0.024501082,0.00958738,-29.1,41.76,-15.72
1554219789465,-1.4317327,-8.5622635,3.0496144,-0.11824436,0.01917476,-0.004261058,-29.1,41.88,-15.66
1554219789486,-1.5275006000000002,-8.485649,3.0160956000000003,-0.14913702,0.014913702,-0.01917476,-29.04,42.06,-15.6
1554219789505,-1.3790601,-8.7538,2.9346926,-0.17470337,0.011717908999999999,-0.026631612000000002,-29.04,42.18,-15.54
1554219789525,-1.4748282,-8.854357,3.068768,-0.22264028,0.007456851,-0.035153727999999995,-29.04,42.36,-15.54
1554219789544,-1.541866,-8.974067,3.1022868,-0.23329292,0.008522116,-0.035153727999999995,-28.98,42.42,-15.54
1554219789564,-1.6472107,-9.242217,3.2650926,-0.23968449999999997,0.013848438000000001,-0.023435817999999997,-28.98,42.54,-15.48
1554219789585,-1.6424223000000002,-9.227852,3.3129766000000003,-0.21944448,0.013848438000000001,-0.013848438000000001,-28.98,42.48,-15.48
1554219789604,-1.5179238000000002,-9.385869,3.2794578000000003,-0.17044231,0.013848438000000001,-0.0063915867,-28.98,42.42,-15.48
1554219789624,-1.4030021000000001,-9.409811,3.3608606,-0.12357068,0.00958738,-0.008522116,-28.98,42.36,-15.42
1554219789644,-1.3934253,-9.395446000000002,3.2172085999999998,-0.083090626,0.0063915867,-0.018109497,-28.98,42.24,-15.42
1554219789665,-1.4796166000000002,-9.419388,3.1358056,-0.051132694000000006,0.0053263223,-0.017044231,-28.98,42.24,-15.36
1554219789684,-1.3886370000000001,-9.304466,3.1214404,0.00958738,0.012783173500000002,-0.017044231,-28.98,42.12,-15.3
1554219789705,-1.4221559,-8.988432000000001,3.1741127999999996,0.05006743,0.022370555,-0.027696876000000002,-28.92,42.12,-15.24
1554219789733,-1.292869,-8.892664,3.1022868,0.053263225,0.03089267,-0.04261058,-28.92,42.06,-15.12
1554219789745,-1.3120226000000001,-8.959702,3.020884,0.037284255,0.037284255,-0.058589544,-28.92,42.12,-14.94
1554219789764,-1.3503298000000001,-9.0315275,3.0974984,0.022370555,0.05219796,-0.07776430000000001,-28.92,42.18,-14.7
1554219789786,-1.412579,-9.021951,2.9634232999999996,0.022370555,0.060720075,-0.09054748,-28.92,42.18,-14.52
1554219789805,-1.4460978999999998,-8.993219999999999,3.0974984,0.034088463,0.06604639400000001,-0.09267801,-28.92,42.24,-14.34
1554219789825,-1.5035586,-9.017161999999999,2.9394810000000002,0.03195793,0.068176925,-0.094808534,-28.86,42.24,-14.22
1554219789845,-1.412579,-8.998009,2.9107506,0.024501082,0.06178534,-0.099069595,-28.8,42.18,-14.22
1554219789864,-1.4939818,-9.007586,3.044826,0.011717908999999999,0.05006743,-0.10333065,-28.68,42.12,-14.28
1554219789884,-1.484405,-8.998009,2.9394810000000002,-0.004261058,0.039414786,-0.10546118,-28.56,42.06,-14.4
1554219789904,-1.3934253,-9.136872,2.690484,-0.026631612000000002,0.023435817999999997,-0.10226539,-28.5,41.94,-14.58
1554219789926,-1.4269443000000002,-9.165602999999999,2.9011737999999996,-0.040480047000000005,0.002130529,-0.09267801,-28.38,41.82,-14.76
1554219789945,-1.4891934,-9.1272955,2.9059622000000003,-0.034088463,-0.008522116,-0.083090626,-28.32,41.76,-14.88
1554219789965,-1.4700398000000001,-9.1272955,3.0400376000000002,-0.013848438000000001,-0.02130529,-0.07243799,-28.26,41.7,-15.0
1554219789984,-1.4413095,-9.141661000000001,2.9538465,0.0063915867,-0.024501082,-0.06285059999999999,-28.26,41.7,-15.06
1554219790004,-1.3120226000000001,-9.1033535,3.0065188,0.03089267,-0.022370555,-0.05539375,-28.32,41.7,-15.06
1554219790024,-1.2976573999999998,-9.11293,2.9394810000000002,0.039414786,-0.014913702,-0.05219796,-28.38,41.7,-14.94
1554219790045,-1.2210428999999998,-9.0842,3.0352492,0.029827405,0.0010652645,-0.05219796,-28.44,41.76,-14.88
1554219790065,-1.2258313,-9.0794115,2.8341362,0.014913702,0.013848438000000001,-0.05219796,-28.56,41.82,-14.76
1554219790084,-1.2114661,-9.093777000000001,3.0639796,0.004261058,0.026631612000000002,-0.058589544,-28.74,41.88,-14.7
1554219790105,-1.1348516000000002,-9.160814,3.0879216,0.0031957934000000003,0.036218993,-0.06498113,-28.86,41.94,-14.7
1554219790125,-1.1923125,-9.156025999999999,3.116652,0.010652645,0.047936900000000005,-0.07030745599999999,-28.92,41.94,-14.7
1554219790145,-1.0486604,-9.146449,3.1118636000000004,0.014913702,0.05006743,-0.07243799,-29.04,41.94,-14.7
1554219790165,-1.1492168,-9.184756,3.198055,0.01917476,0.054328485999999995,-0.07456851,-29.16,41.94,-14.76
1554219790185,-1.1587936,-9.213486999999999,3.1836896,0.022370555,0.056459017,-0.07456851,-29.22,41.88,-14.76
1554219790205,-1.1971009,-9.122507,3.2172085999999998,0.020240024,0.058589544,-0.07456851,-29.28,41.88,-14.76
1554219790224,-1.163582,-9.141661000000001,3.0352492,0.020240024,0.05539375,-0.07456851,-29.28,41.82,-14.82
1554219790246,-1.2018893,-9.194333,2.9873652,0.022370555,0.05539375,-0.07563378,-29.28,41.82,-14.88
1554219790265,-1.2258313,-9.11293,3.0160956000000003,0.026631612000000002,0.058589544,-0.07137272,-29.28,41.82,-14.94
1554219790285,-1.2401965,-8.988432000000001,3.020884,0.03834952,0.05752428,-0.06604639400000001,-29.28,41.76,-14.94
1554219790305,-1.2976573999999998,-8.959702,2.843713,0.037284255,0.060720075,-0.06604639400000001,-29.28,41.7,-15.0
1554219790325,-1.2162545,-9.026739,3.0113072,0.01917476,0.06391586,-0.07456851,-29.22,41.7,-15.0
1554219790345,-1.2066777,-9.069835000000001,3.0113072,0.0010652645,0.060720075,-0.07882957,-29.22,41.64,-15.06
1554219790365,-1.2737153,-9.093777000000001,2.9873652,-0.0010652645,0.06391586,-0.07563378,-29.16,41.64,-15.12
1554219790385,-1.1300632,-9.069835000000001,3.0113072,-0.004261058,0.06711166,-0.07563378,-29.16,41.64,-15.12
1554219790405,-1.2737153,-9.041103999999999,3.0113072,-0.010652645,0.06711166,-0.07563378,-29.1,41.58,-15.18
1554219790424,-1.2306197,-9.0315275,3.020884,-0.015978966,0.06711166,-0.07243799,-29.1,41.52,-15.24
1554219790445,-1.0821792,-8.954913000000001,3.09271,-0.024501082,0.07030745599999999,-0.07456851,-29.1,41.52,-15.24
1554219790464,-1.1731589,-8.93576,2.9825767999999995,-0.043675844000000005,0.07669904,-0.07350325,-29.04,41.46,-15.3
1554219790485,-1.163582,-9.0315275,2.9059622000000003,-0.07776430000000001,0.07563378,-0.07669904,-29.1,41.4,-15.36
1554219790504,-1.1252748,-9.041103999999999,2.9203273999999997,-0.10226539,0.07669904,-0.07776430000000001,-29.1,41.4,-15.36
1554219790524,-1.091756,-9.108141999999999,2.9107506,-0.10759171,0.07563378,-0.07882957,-29.16,41.4,-15.42
1554219790544,-1.0821792,-9.199121,2.8101943,-0.07989483,0.07030745599999999,-0.07137272,-29.22,41.34,-15.42
1554219790564,-1.0965444,-9.199121,2.949058,-0.07669904,0.06391586,-0.06604639400000001,-29.22,41.34,-15.42
1554219790585,-1.2066777,-9.199121,2.9059622000000003,-0.08841695,0.06178534,-0.049002163,-29.28,41.34,-15.36
1554219790605,-1.1156979999999999,-9.1272955,3.0352492,-0.08735169,0.06178534,-0.036218993,-29.28,41.34,-15.36
1554219790624,-1.1156979999999999,-9.065046,3.068768,-0.07350325,0.058589544,-0.029827405,-29.28,41.28,-15.3
1554219790644,-1.0869676000000001,-9.165602999999999,2.9634232999999996,-0.06604639400000001,0.05752428,-0.024501082,-29.34,41.28,-15.24
1554219790665,-1.0199299000000002,-9.132083999999999,2.9538465,-0.06711166,0.05219796,-0.018109497,-29.34,41.28,-15.18
1554219790685,-0.93373865,-9.0794115,3.0974984,-0.06498113,0.043675844000000005,-0.018109497,-29.4,41.28,-15.12
1554219790705,-0.9959879,-9.20391,3.1214404,-0.046871635999999994,0.034088463,-0.024501082,-29.46,41.28,-15.0
1554219790725,-0.8762778,-9.275736,3.2986114,-0.047936900000000005,0.01917476,-0.03834952,-29.46,41.28,-15.0
1554219790745,-0.8810662,-9.376292,3.1741127999999996,-0.047936900000000005,0.0,-0.046871635999999994,-29.52,41.28,-14.94
1554219790764,-0.8475474000000001,-9.476849000000001,3.2986114,-0.025566347000000003,-0.020240024,-0.060720075,-29.52,41.28,-14.94
1554219790785,-0.90500826,-9.596559,3.0113072,0.004261058,-0.035153727999999995,-0.083090626,-29.58,41.22,-14.88
1554219790804,-0.93373865,-9.673173,2.9921536,0.03089267,-0.051132694000000006,-0.09587380000000001,-29.58,41.16,-14.94
1554219790824,-0.90979666,-9.697116000000001,2.8868085999999997,0.07030745599999999,-0.06498113,-0.08841695,-29.58,41.1,-14.94
1554219790845,-1.0390834999999998,-9.47206,2.819771,0.10546118,-0.06604639400000001,-0.06285059999999999,-29.58,40.98,-15.06
1554219790864,-0.9768343,-9.44333,2.9921536,0.08628642,-0.07243799,-0.06178534,-29.64,40.86,-15.12
1554219790885,-1.0055646999999999,-9.342773,2.8963853999999998,0.02876214,-0.07350325,-0.083090626,-29.64,40.74,-15.18
1554219790904,-0.9959879,-9.275736,2.8485014,-0.027696876000000002,-0.060720075,-0.09054748,-29.64,40.62,-15.24
1554219790925,-0.9816226999999998,-9.337985,2.8293478,-0.054328485999999995,-0.049002163,-0.08948222,-29.64,40.5,-15.3
1554219790945,-1.0295067,-9.242217,2.9969419999999998,-0.068176925,-0.037284255,-0.09267801,-29.64,40.44,-15.3
1554219790964,-0.9911995000000001,-9.179967999999999,2.8628666000000003,-0.08841695,-0.026631612000000002,-0.10439592,-29.7,40.38,-15.36
1554219790985,-1.0199299000000002,-9.1033535,2.7287915000000003,-0.11930962,-0.01917476,-0.12144015,-29.7,40.44,-15.36
1554219791005,-1.1731589,-9.199121,2.8006175,-0.14913702,-0.01917476,-0.13102753,-29.76,40.5,-15.36
1554219791025,-1.3024458,-9.1512375,2.7814639,-0.1587244,-0.029827405,-0.10759171,-29.82,40.56,-15.36
1554219791045,-1.283292,-9.170391,2.7910407000000004,-0.15339808,-0.05965481,-0.08735169,-29.82,40.62,-15.36
1554219791065,-1.4413095,-9.136872,2.6282349,-0.12570119999999999,-0.10652645,-0.084155895,-29.88,40.74,-15.36
1554219791085,-1.436521,-8.978855000000001,2.5803509,-0.060720075,-0.15765914,-0.053263225,-29.94,40.8,-15.36
1554219791105,-1.5562311000000002,-8.710705,2.40318,0.018109497,-0.18961707,0.0,-30.0,40.8,-15.36
1554219791124,-1.6519991000000003,-8.313267,2.4079683,0.06604639400000001,-0.19813919,0.06391586,-30.12,40.86,-15.3
1554219791144,-1.5945383,-8.236652000000001,2.307412,0.083090626,-0.20026971,0.07243799,-30.24,40.86,-15.24
1554219791165,-1.5514427,-8.437764999999999,2.1733365,0.02130529,-0.18642128,0.020240024,-30.36,40.86,-15.12
1554219791185,-1.661576,-8.734647,2.441487,-0.094808534,-0.17150758,-0.024501082,-30.48,40.86,-15.0
1554219791205,-1.4604629999999998,-9.361927,2.690484,-0.16192019,-0.16298546,-0.02876214,-30.54,40.8,-14.88
1554219791225,-1.2497733,-9.6923275,2.6952724,-0.13954964,-0.1470065,-0.0031957934000000003,-30.6,40.8,-14.76
1554219791244,-0.79966336,-9.730635000000001,2.6569653,-0.058589544,-0.11930962,0.024501082,-30.6,40.8,-14.64
1554219791264,-0.50757074,-9.500791,2.8485014,0.036218993,-0.082025364,0.034088463,-30.48,40.8,-14.52
1554219791284,-0.33518824,-9.20391,2.7575218999999995,0.096939065,-0.047936900000000005,0.022370555,-30.3,40.8,-14.46
1554219791304,-0.2873042,-8.883087,2.8054059,0.084155895,-0.0053263223,-0.008522116,-30.12,40.8,-14.4
1554219791326,-0.49799395,-8.715492999999999,3.0496144,-0.011717908999999999,0.05006743,-0.06285059999999999,-29.82,40.8,-14.34
1554219791344,-0.6943185000000001,-8.883087,2.915539,-0.082025364,0.080960095,-0.101200126,-29.76,40.74,-14.34
1554219791365,-1.2306197,-9.376292,2.9107506,-0.18961707,0.14487597,-0.15339808,-29.58,40.74,-14.28
1554219791384,-1.5035586,-9.725846,2.9011737999999996,-0.21944448,0.17470337,-0.15446335,-29.52,40.74,-14.22
1554219791405,-1.484405,-9.807249,2.8293478,-0.17363810000000002,0.20133498,-0.128897,-29.58,40.74,-14.22
1554219791425,-1.5801731,-10.008362,2.690484,-0.07456851,0.22264028,-0.094808534,-29.64,40.74,-14.16
1554219791445,-1.4987701999999998,-9.721058,2.5372553,0.00958738,0.24074976,-0.06285059999999999,-29.64,40.74,-14.16
1554219791465,-1.5227122,-9.462483,2.4702177000000005,0.047936900000000005,0.24820662,-0.02876214,-29.7,40.68,-14.1
1554219791485,-1.6950948000000001,-9.227852,2.379238,0.05219796,0.25033715,-0.0010652645,-29.7,40.68,-14.1
1554219791504,-1.6950948000000001,-9.11293,2.2307975,0.039414786,0.23968449999999997,0.01917476,-29.7,40.68,-14.04
1554219791524,-1.8914193,-9.108141999999999,2.3169887000000005,0.0010652645,0.20559604,0.03834952,-29.64,40.62,-14.04
1554219791545,-1.8962077000000002,-9.007586,2.2403743,-0.04474111,0.15978967,0.054328485999999995,-29.64,40.56,-14.04
1554219791564,-1.8914193,-9.036316000000001,2.3265655,-0.07350325,0.10865697,0.07350325,-29.64,40.56,-13.98
1554219791585,-1.8818424999999999,-9.012374000000001,2.2260091,-0.06924219,0.06498113,0.101200126,-29.58,40.5,-14.04
1554219791605,-1.7860744999999998,-9.017161999999999,2.1350293,-0.07563378,0.02876214,0.12357068,-29.64,40.44,-14.04
1554219791624,-1.8052281000000003,-9.055469500000001,2.0392613,-0.13209279,-0.004261058,0.13209279,-29.64,40.44,-14.1
1554219791645,-1.7190368000000003,-9.069835000000001,2.1493945,-0.18216023,-0.023435817999999997,0.13954964,-29.7,40.38,-14.1
1554219791664,-1.8004397,-9.208698,2.235586,-0.19813919,-0.037284255,0.14807177,-29.76,40.38,-14.16
1554219791684,-1.7142484,-9.285313,2.321777,-0.18109496,-0.04474111,0.15233281,-29.82,40.44,-14.22
1554219791704,-1.7860744999999998,-9.280524,2.2882583,-0.16192019,-0.049002163,0.15659387,-29.82,40.56,-14.28
1554219791724,-1.8339584999999998,-9.156025999999999,2.2164322999999997,-0.11930962,-0.039414786,0.17363810000000002,-29.7,40.68,-14.34
1554219791745,-1.8435352999999999,-9.184756,2.273893,-0.10865697,-0.035153727999999995,0.17789917,-29.64,40.8,-14.34
1554219791765,-1.8052281000000003,-9.184756,2.1877017000000003,-0.12250541,-0.022370555,0.16937704,-29.46,40.98,-14.34
1554219791784,-1.7669207999999998,-9.261371,2.3409307,-0.13528858,-0.0053263223,0.16192019,-29.34,41.16,-14.4
1554219791805,-1.6519991000000003,-9.294889,2.3600842999999996,-0.13635385,0.011717908999999999,0.15020229,-29.22,41.28,-14.4
1554219791825,-1.5945383,-9.529521,2.2786815,-0.128897,0.033023197000000004,0.13209279,-29.1,41.46,-14.4
1554219791844,-1.5801731,-9.577405,2.235586,-0.13528858,0.053263225,0.11717909,-28.98,41.58,-14.4
1554219791864,-1.5035586,-9.615712,2.4462755,-0.11824436,0.07243799,0.101200126,-28.92,41.64,-14.4
1554219791885,-1.4891934,-9.448118,2.3983915000000002,-0.07456851,0.08948222,0.08735169,-28.92,41.7,-14.34
1554219791904,-1.4891934,-9.318831,2.307412,-0.035153727999999995,0.10439592,0.07030745599999999,-28.86,41.7,-14.34
1554219791924,-1.436521,-9.189544999999999,2.0201077,-0.029827405,0.11611383,0.046871635999999994,-28.8,41.76,-14.22
1554219791945,-1.5610195,-9.227852,2.1733365,-0.04261058,0.12357068,0.014913702,-28.74,41.82,-14.16
1554219791966,-1.6232687,-9.136872,2.1493945,-0.056459017,0.13422333,-0.015978966,-28.68,41.88,-14.1
1554219791985,-1.8195933000000002,-9.136872,2.1015105,-0.07776430000000001,0.13635385,-0.039414786,-28.56,41.94,-14.04
1554219792005,-1.8770541,-9.213486999999999,2.0248961,-0.09054748,0.13848437,-0.053263225,-28.44,42.06,-13.98
1554219792025,-1.9201498,-9.136872,1.8620903000000002,-0.09054748,0.14168017,-0.053263225,-28.38,42.12,-13.92
1554219792045,-2.0925324,-9.184756,1.9195513,-0.09587380000000001,0.15020229,-0.053263225,-28.26,42.18,-13.86
1554219792065,-2.0829554,-9.218275,1.9961656000000003,-0.09267801,0.15020229,-0.049002163,-28.26,42.3,-13.8
1554219792084,-2.1930888,-9.213486999999999,1.9961656000000003,-0.082025364,0.15126756,-0.040480047000000005,-28.2,42.3,-13.8
1554219792105,-2.255338,-9.280524,2.0201077,-0.083090626,0.14913702,-0.034088463,-28.2,42.36,-13.74
1554219792125,-2.2649147999999997,-9.438541,2.0248961,-0.083090626,0.15126756,-0.026631612000000002,-28.26,42.36,-13.74
1554219792145,-2.2744915,-9.361927,1.7758990000000001,-0.07989483,0.1438107,-0.01917476,-28.26,42.36,-13.68
1554219792165,-2.1978772,-9.428965,2.0105310000000003,-0.07350325,0.13209279,-0.014913702,-28.2,42.3,-13.68
1554219792184,-2.183512,-9.376292,1.9243397,-0.05752428,0.11824436,-0.014913702,-28.2,42.3,-13.62
1554219792204,-2.2266076,-9.433753,1.8908207,-0.040480047000000005,0.10226539,-0.007456851,-28.2,42.24,-13.62
1554219792224,-2.2170308,-9.32362,1.8956091,-0.01917476,0.08841695,-0.0010652645,-28.14,42.24,-13.62
1554219792245,-2.1164744,-9.318831,1.9195513,-0.00958738,0.07137272,-0.007456851,-28.14,42.24,-13.62
1554219792265,-2.1643584,-9.318831,1.9099745,-0.022370555,0.056459017,-0.017044231,-28.14,42.3,-13.62
1554219792284,-2.1499932,-9.385869,2.0153193,-0.039414786,0.04261058,-0.027696876000000002,-28.14,42.36,-13.62
1554219792304,-2.1212628,-9.395446000000002,2.0009542000000002,-0.017044231,0.027696876000000002,-0.023435817999999997,-28.14,42.42,-13.56
1554219792325,-2.0590134,-9.247005,1.7806876,0.004261058,0.020240024,-0.01917476,-28.14,42.48,-13.5
1554219792345,-2.0781669999999997,-9.227852,1.8333599999999999,-0.0053263223,0.013848438000000001,-0.022370555,-28.14,42.54,-13.5
1554219792365,-2.0590134,-9.275736,1.8668787,-0.02876214,0.017044231,-0.024501082,-28.14,42.6,-13.5
1554219792385,-2.0829554,-9.227852,1.8046296000000002,-0.039414786,0.020240024,-0.01917476,-28.14,42.66,-13.5
1554219792406,-2.0638018,-9.32362,1.7567455,-0.04474111,0.03089267,-0.015978966,-28.2,42.72,-13.44
1554219792424,-2.111686,-9.361927,1.9818004,-0.05219796,0.03834952,-0.011717908999999999,-28.14,42.66,-13.44
1554219792446,-2.0494366000000004,-9.251794,2.0871453,-0.046871635999999994,0.05219796,-0.00958738,-28.14,42.66,-13.44
1554219792464,-2.0159178,-9.256582,1.8668787,-0.04261058,0.06391586,-0.015978966,-28.14,42.6,-13.5
1554219792484,-1.9345150000000002,-9.309255,1.9434932,-0.043675844000000005,0.07563378,-0.02130529,-28.14,42.54,-13.5
1554219792505,-1.9105729999999999,-9.328408,1.7806876,-0.02876214,0.08948222,-0.025566347000000003,-28.14,42.48,-13.5
1554219792525,-1.9536686,-9.270947,1.8237831999999998,-0.025566347000000003,0.096939065,-0.02876214,-28.14,42.42,-13.5
1554219792544,-1.9967641999999999,-9.275736,1.6130934,-0.03195793,0.094808534,-0.029827405,-28.14,42.36,-13.56
1554219792565,-2.0829554,-9.270947,1.6753427,-0.058589544,0.094808534,-0.036218993,-28.14,42.36,-13.56
1554219792585,-2.1212628,-9.247005,1.6944963,-0.051132694000000006,0.09054748,-0.041545313,-28.14,42.3,-13.56
1554219792606,-2.1739352000000003,-9.328408,1.8381484000000001,-0.040480047000000005,0.080960095,-0.051132694000000006,-28.08,42.24,-13.56
1554219792625,-2.2074540000000002,-9.251794,1.5795746000000002,-0.046871635999999994,0.07563378,-0.05752428,-28.08,42.24,-13.56
1554219792644,-2.2505496,-9.342773,1.6514006,-0.05965481,0.06285059999999999,-0.07030745599999999,-28.08,42.24,-13.56
1554219792665,-2.3798366,-9.529521,1.6849195,-0.05752428,0.046871635999999994,-0.07776430000000001,-28.08,42.18,-13.62
1554219792685,-2.27928,-9.539098,1.7806876,-0.033023197000000004,0.03089267,-0.07243799,-28.08,42.12,-13.62
1554219792704,-2.2744915,-9.486425,1.6705543,-0.007456851,0.01917476,-0.06498113,-28.08,42.06,-13.68
1554219792725,-2.2074540000000002,-9.414599,1.6178818000000001,0.010652645,0.00958738,-0.058589544,-28.08,42.06,-13.68
1554219792745,-2.1691467999999996,-9.405023,1.7232267,0.014913702,0.0010652645,-0.046871635999999994,-28.08,42.0,-13.74
1554219792768,-2.1404164,-9.223063,1.6083049999999999,0.01917476,-0.0053263223,-0.039414786,-28.08,41.94,-13.74
1554219792784,-2.087744,-9.309255,1.6705543,0.01917476,-0.007456851,-0.034088463,-28.08,41.94,-13.8
1554219792805,-2.0781669999999997,-9.275736,1.6083049999999999,0.014913702,-0.014913702,-0.027696876000000002,-28.08,41.88,-13.8
1554219792825,-2.0159178,-9.285313,1.5795746000000002,0.002130529,-0.020240024,-0.029827405,-28.08,41.88,-13.8
1554219792846,-2.0015526,-9.247005,1.5747862,-0.007456851,-0.02130529,-0.029827405,-28.08,41.88,-13.8
1554219792865,-2.1643584,-9.285313,1.6274586000000002,-0.011717908999999999,-0.027696876000000002,-0.022370555,-28.08,41.88,-13.8
1554219792885,-2.1068976000000004,-9.414599,1.5699978,-0.008522116,-0.026631612000000002,-0.022370555,-28.14,41.94,-13.8
1554219792904,-2.135628,-9.448118,1.7184383,-0.012783173500000002,-0.025566347000000003,-0.024501082,-28.14,42.0,-13.8
1554219792924,-2.2649147999999997,-9.395446000000002,1.7232267,-0.002130529,-0.026631612000000002,-0.020240024,-28.14,42.06,-13.8
1554219792945,-2.2266076,-9.529521,1.6035166,0.011717908999999999,-0.027696876000000002,-0.012783173500000002,-28.2,42.18,-13.8
1554219792965,-2.2122424,-9.424176,1.6561891,0.018109497,-0.02876214,-0.010652645,-28.2,42.24,-13.8
1554219792986,-2.2074540000000002,-9.390657000000001,1.6705543,0.02876214,-0.024501082,-0.0010652645,-28.2,42.36,-13.8
1554219793005,-2.15957,-9.35235,1.6705543,0.049002163,-0.02130529,0.0063915867,-28.2,42.42,-13.8
1554219793025,-2.0446482,-9.242217,1.6849195,0.049002163,-0.015978966,0.007456851,-28.2,42.42,-13.8
1554219793045,-2.1308396000000003,-9.337985,1.6418238,0.026631612000000002,-0.00958738,0.008522116,-28.2,42.42,-13.8
1554219793064,-2.0638018,-9.309255,1.7088615000000003,0.015978966,-0.002130529,0.0063915867,-28.2,42.42,-13.74
1554219793085,-2.0398598000000003,-9.318831,1.7375918999999997,0.026631612000000002,0.0063915867,0.0063915867,-28.14,42.36,-13.74
1554219793105,-2.1643584,-9.328408,1.7328035,0.03195793,0.010652645,0.00958738,-28.14,42.3,-13.68
1554219793124,-2.1260512,-9.333197,1.7232267,0.01917476,0.020240024,0.0031957934000000003,-28.14,42.3,-13.68
1554219793145,-2.15957,-9.304466,1.7136499,0.02130529,0.023435817999999997,-0.002130529,-28.14,42.36,-13.62
1554219793165,-2.087744,-9.342773,1.7615339,0.02130529,0.03089267,-0.008522116,-28.08,42.42,-13.62
1554219793185,-2.0638018,-9.247005,1.7806876,0.015978966,0.043675844000000005,-0.013848438000000001,-28.02,42.54,-13.56
1554219793205,-2.135628,-9.270947,1.8668787,0.013848438000000001,0.054328485999999995,-0.014913702,-27.96,42.66,-13.56
1554219793224,-2.183512,-9.242217,1.7471686999999998,0.012783173500000002,0.06178534,-0.020240024,-27.84,42.78,-13.56
1554219793244,-2.1499932,-9.299678,1.7136499,0.00958738,0.06498113,-0.026631612000000002,-27.84,42.84,-13.56
1554219793265,-2.2266076,-9.294889,1.8668787,0.0010652645,0.06498113,-0.029827405,-27.66,43.02,-13.56
1554219793285,-2.2074540000000002,-9.261371,1.6801311,-0.004261058,0.05965481,-0.03834952,-27.6,43.08,-13.56
1554219793305,-2.183512,-9.218275,1.6753427,-0.004261058,0.05539375,-0.040480047000000005,-27.54,43.14,-13.56
1554219793325,-2.2601264,-9.309255,1.6514006,-0.0063915867,0.049002163,-0.039414786,-27.54,43.2,-13.56
1554219793348,-2.2074540000000002,-9.328408,1.8046296000000002,-0.0053263223,0.047936900000000005,-0.040480047000000005,-27.54,43.2,-13.62
1554219793364,-2.2744915,-9.227852,1.6897078999999997,-0.0053263223,0.046871635999999994,-0.040480047000000005,-27.54,43.2,-13.62
1554219793384,-2.1930888,-9.314043,1.7136499,-0.00958738,0.053263225,-0.039414786,-27.6,43.2,-13.68
1554219793404,-2.2170308,-9.227852,1.809418,-0.014913702,0.05539375,-0.03834952,-27.6,43.14,-13.68
1554219793425,-2.2266076,-9.199121,1.7280151000000001,-0.011717908999999999,0.054328485999999995,-0.039414786,-27.66,43.08,-13.74
1554219793444,-2.1308396000000003,-9.242217,1.584363,-0.017044231,0.05752428,-0.047936900000000005,-27.72,43.02,-13.74
1554219793465,-2.2170308,-9.247005,1.6705543,-0.03834952,0.056459017,-0.06285059999999999,-27.78,42.96,-13.8
1554219793484,-2.2074540000000002,-9.366715,1.6657659,-0.04261058,0.049002163,-0.06391586,-27.78,42.9,-13.86
1554219793505,-2.2457612,-9.44333,1.6083049999999999,-0.03089267,0.040480047000000005,-0.06178534,-27.84,42.84,-13.92
1554219793525,-2.2744915,-9.419388,1.6753427,-0.00958738,0.034088463,-0.05752428,-27.9,42.84,-13.98
1554219793544,-2.183512,-9.314043,1.6609775000000002,0.008522116,0.026631612000000002,-0.05539375,-27.9,42.9,-14.04
1554219793564,-2.255338,-9.160814,1.6370354,0.008522116,0.015978966,-0.056459017,-27.9,42.96,-14.04
1554219793585,-2.2649147999999997,-9.223063,1.5508442,-0.00958738,0.00958738,-0.05965481,-27.9,43.02,-14.1
1554219793604,-2.2122424,-9.242217,1.4981716999999999,-0.025566347000000003,0.0,-0.06498113,-27.9,43.08,-14.1
1554219793625,-2.3319526,-9.361927,1.6561891,-0.027696876000000002,-0.008522116,-0.06711166,-27.9,43.14,-14.16
1554219793645,-2.1978772,-9.333197,1.5269021,-0.023435817999999997,-0.022370555,-0.06178534,-27.9,43.08,-14.16
1554219793664,-2.2313959999999997,-9.366715,1.6561891,-0.012783173500000002,-0.03089267,-0.05752428,-27.9,43.02,-14.1
1554219793684,-2.3080103,-9.314043,1.5412674,-0.010652645,-0.04261058,-0.056459017,-27.9,42.9,-14.1
1554219793704,-2.27928,-9.266159,1.4646529,-0.011717908999999999,-0.053263225,-0.05219796,-27.84,42.78,-14.04
1554219793725,-2.2361843999999995,-9.424176,1.7232267,-0.00958738,-0.06604639400000001,-0.051132694000000006,-27.9,42.6,-13.98
1554219793744,-2.2601264,-9.333197,1.6944963,-0.004261058,-0.07243799,-0.046871635999999994,-27.9,42.48,-13.98
1554219793764,-2.2457612,-9.448118,1.7328035,0.0,-0.07456851,-0.046871635999999994,-27.96,42.3,-13.92
1554219793784,-2.2122424,-9.299678,1.6370354,-0.004261058,-0.080960095,-0.041545313,-28.02,42.12,-13.86
1554219793805,-2.183512,-9.371504,1.8142063999999998,0.0010652645,-0.083090626,-0.043675844000000005,-28.14,42.06,-13.86
1554219793824,-2.2697031,-9.376292,1.7328035,0.004261058,-0.08522116,-0.049002163,-28.2,42.0,-13.86
1554219793844,-2.2505496,-9.299678,1.632247,0.00958738,-0.094808534,-0.047936900000000005,-28.32,41.82,-13.8
1554219793864,-2.2457612,-9.35235,1.5652093999999999,0.013848438000000001,-0.09587380000000001,-0.05006743,-28.44,41.7,-13.86
1554219793885,-2.2361843999999995,-9.433753,1.6274586000000002,0.014913702,-0.09587380000000001,-0.05006743,-28.5,41.64,-13.86
1554219793907,-2.2457612,-9.35235,1.7328035,0.018109497,-0.09267801,-0.049002163,-28.56,41.58,-13.86
1554219793924,-2.1883004,-9.328408,1.6609775000000002,0.018109497,-0.08735169,-0.05006743,-28.62,41.52,-13.92
1554219793945,-2.1691467999999996,-9.333197,1.8237831999999998,0.012783173500000002,-0.080960095,-0.053263225,-28.68,41.52,-13.98
1554219793964,-2.2361843999999995,-9.371504,1.7232267,0.012783173500000002,-0.07989483,-0.051132694000000006,-28.68,41.46,-14.04
1554219793985,-2.135628,-9.304466,1.5747862,0.015978966,-0.07137272,-0.04580637,-28.68,41.46,-14.04
1554219794004,-2.1883004,-9.309255,1.7232267,0.01917476,-0.07137272,-0.046871635999999994,-28.62,41.46,-14.04
1554219794024,-2.1691467999999996,-9.318831,1.8429368000000002,0.011717908999999999,-0.06711166,-0.05219796,-28.62,41.46,-14.04
1554219794045,-2.183512,-9.328408,1.7375918999999997,0.018109497,-0.056459017,-0.060720075,-28.5,41.46,-14.04
1554219794064,-2.0733786,-9.237428999999999,1.6274586000000002,0.023435817999999997,-0.056459017,-0.06285059999999999,-28.44,41.46,-13.98
1554219794084,-2.0446482,-9.266159,1.8237831999999998,0.018109497,-0.04580637,-0.05965481,-28.44,41.46,-13.98
1554219794105,-2.0446482,-9.309255,1.9003976999999999,0.01917476,-0.035153727999999995,-0.06178534,-28.5,41.4,-13.92
1554219794124,-2.0590134,-9.251794,1.8860323,0.029827405,-0.027696876000000002,-0.05965481,-28.56,41.4,-13.92
1554219794145,-2.1212628,-9.098564999999999,1.7950528000000001,0.03195793,-0.025566347000000003,-0.06604639400000001,-28.62,41.4,-13.86
1554219794164,-2.111686,-9.242217,1.6753427,0.023435817999999997,-0.023435817999999997,-0.07456851,-28.62,41.34,-13.86
1554219794185,-2.1547816,-9.170391,1.6130934,0.013848438000000001,-0.02130529,-0.082025364,-28.68,41.34,-13.86
1554219794205,-2.1739352000000003,-9.294889,1.7040731,0.007456851,-0.015978966,-0.083090626,-28.74,41.34,-13.86
1554219794224,-2.1787236,-9.328408,1.8142063999999998,0.002130529,-0.004261058,-0.080960095,-28.8,41.4,-13.8
1554219794244,-2.15957,-9.357139,1.7615339,0.0,-0.002130529,-0.07669904,-28.8,41.46,-13.8
1554219794265,-2.1021092,-9.275736,1.8477252,-0.0031957934000000003,-0.0010652645,-0.07243799,-28.68,41.64,-13.8
1554219794284,-2.15957,-9.376292,1.8381484000000001,0.002130529,0.0010652645,-0.06711166,-28.62,41.76,-13.74
1554219794304,-2.2026656000000004,-9.318831,1.7806876,0.0053263223,-0.002130529,-0.06178534,-28.5,41.94,-13.74
1554219794325,-2.1643584,-9.266159,1.8142063999999998,0.004261058,-0.0063915867,-0.06391586,-28.44,42.12,-13.74
1554219794344,-2.1068976000000004,-9.213486999999999,1.8333599999999999,0.002130529,-0.013848438000000001,-0.06498113,-28.38,42.3,-13.74
1554219794364,-1.9536686,-9.304466,1.9339164,0.004261058,-0.022370555,-0.06498113,-28.32,42.48,-13.74
1554219794385,-2.0398598000000003,-9.32362,1.7567455,0.0,-0.029827405,-0.07137272,-28.26,42.54,-13.68
1554219794405,-2.0302830000000003,-9.266159,1.7663223000000001,-0.004261058,-0.033023197000000004,-0.068176925,-28.2,42.6,-13.68
1554219794425,-2.0159178,-9.20391,1.6418238,-0.010652645,-0.035153727999999995,-0.06924219,-28.14,42.6,-13.68
1554219794445,-2.0494366000000004,-9.366715,1.9339164,-0.014913702,-0.034088463,-0.07030745599999999,-28.14,42.54,-13.68
1554219794465,-2.0973208,-9.385869,1.7902644,-0.018109497,-0.03089267,-0.068176925,-28.14,42.48,-13.68
1554219794485,-1.9632453999999997,-9.390657000000001,1.6609775000000002,-0.023435817999999997,-0.03089267,-0.06604639400000001,-28.14,42.42,-13.68
1554219794504,-1.9871874,-9.357139,1.857302,-0.03195793,-0.02876214,-0.07030745599999999,-28.2,42.36,-13.68
1554219794526,-1.9728221999999997,-9.467272,1.8237831999999998,-0.027696876000000002,-0.024501082,-0.06924219,-28.2,42.24,-13.68
1554219794546,-1.8962077000000002,-9.309255,1.9387047999999998,-0.022370555,-0.017044231,-0.06711166,-28.2,42.24,-13.68
1554219794565,-1.9393034,-9.304466,1.8189948,-0.018109497,-0.015978966,-0.06178534,-28.2,42.18,-13.68
1554219794585,-1.9201498,-9.275736,1.8716671000000003,-0.015978966,-0.012783173500000002,-0.06285059999999999,-28.26,42.12,-13.68
1554219794605,-1.9249381999999997,-9.256582,1.7375918999999997,-0.023435817999999997,-0.012783173500000002,-0.06604639400000001,-28.26,42.06,-13.68
1554219794625,-1.9249381999999997,-9.261371,1.809418,-0.036218993,-0.012783173500000002,-0.07350325,-28.32,42.06,-13.68
1554219794644,-1.9823990000000002,-9.381081,1.7758990000000001,-0.04474111,-0.015978966,-0.07989483,-28.32,42.06,-13.68
1554219794664,-1.9680338,-9.366715,1.5891514,-0.04261058,-0.02130529,-0.07563378,-28.32,42.12,-13.68
1554219794685,-2.0207062,-9.476849000000001,1.8285716,-0.034088463,-0.025566347000000003,-0.068176925,-28.32,42.12,-13.68
1554219794705,-1.9776106,-9.381081,1.6705543,-0.023435817999999997,-0.026631612000000002,-0.06711166,-28.38,42.12,-13.68
1554219794724,-1.9728221999999997,-9.428965,1.6609775000000002,-0.018109497,-0.025566347000000003,-0.06391586,-28.38,42.06,-13.62
1554219794744,-2.0302830000000003,-9.44333,1.7615339,-0.03089267,-0.025566347000000003,-0.058589544,-28.32,42.0,-13.62
1554219794765,-1.9776106,-9.405023,1.6801311,-0.026631612000000002,-0.022370555,-0.056459017,-28.32,42.0,-13.62
1554219794784,-1.9009962,-9.385869,1.7615339,-0.0031957934000000003,-0.02130529,-0.051132694000000006,-28.26,42.0,-13.56
1554219794804,-1.9823990000000002,-9.328408,1.8189948,0.0053263223,-0.018109497,-0.05006743,-28.26,41.94,-13.56
1554219794824,-1.8531121,-9.314043,1.7471686999999998,0.002130529,-0.022370555,-0.05219796,-28.2,41.94,-13.56
1554219794845,-1.9967641999999999,-9.280524,1.857302,0.01917476,-0.022370555,-0.05539375,-28.08,41.94,-13.56
1554219794864,-1.8962077000000002,-9.32362,1.8189948,0.012783173500000002,-0.033023197000000004,-0.054328485999999995,-28.08,41.94,-13.56
1554219794886,-1.9345150000000002,-9.419388,1.881244,-0.002130529,-0.034088463,-0.051132694000000006,-28.02,41.94,-13.56
1554219794905,-1.9967641999999999,-9.428965,1.7950528000000001,0.014913702,-0.033023197000000004,-0.046871635999999994,-27.96,41.94,-13.56
1554219794925,-1.9105729999999999,-9.333197,1.632247,0.03089267,-0.034088463,-0.039414786,-27.96,41.88,-13.56
1554219794946,-1.8531121,-9.270947,1.5939398,0.018109497,-0.025566347000000003,-0.04580637,-27.96,41.88,-13.5
1554219794964,-1.8435352999999999,-9.328408,1.7232267,0.00958738,-0.01917476,-0.047936900000000005,-27.96,41.82,-13.5
1554219794985,-1.8722657,-9.314043,1.6849195,0.008522116,-0.011717908999999999,-0.046871635999999994,-27.96,41.82,-13.44
1554219795005,-1.9345150000000002,-9.342773,1.8333599999999999,0.015978966,-0.008522116,-0.047936900000000005,-28.02,41.76,-13.44
1554219795024,-1.8674773,-9.280524,1.6849195,0.013848438000000001,-0.008522116,-0.05006743,-28.08,41.76,-13.38
1554219795045,-1.8626889,-9.448118,1.7663223000000001,0.011717908999999999,-0.0063915867,-0.05752428,-28.08,41.76,-13.32
1554219795065,-1.8626889,-9.381081,1.6849195,0.017044231,-0.008522116,-0.06178534,-28.2,41.76,-13.32
1554219795084,-1.9967641999999999,-9.366715,1.8860323,0.02876214,-0.014913702,-0.06285059999999999,-28.32,41.76,-13.26
1554219795105,-2.0111293999999997,-9.376292,1.7471686999999998,0.03089267,-0.015978966,-0.06391586,-28.44,41.76,-13.2
1554219795124,-1.9393034,-9.428965,1.9147629000000002,0.023435817999999997,-0.017044231,-0.06604639400000001,-28.56,41.76,-13.2
1554219795144,-1.8818424999999999,-9.438541,1.7232267,0.029827405,-0.02130529,-0.06391586,-28.68,41.82,-13.26
1554219795164,-1.9488802,-9.395446000000002,1.8620903000000002,0.034088463,-0.024501082,-0.06391586,-28.8,41.88,-13.26
1554219795184,-1.9057846,-9.333197,1.8716671000000003,0.035153727999999995,-0.02130529,-0.058589544,-28.86,41.88,-13.38
1554219795205,-1.9488802,-9.333197,1.8189948,0.035153727999999995,-0.024501082,-0.054328485999999995,-28.86,41.94,-13.44
1554219795225,-1.8243817,-9.405023,1.8285716,0.027696876000000002,-0.023435817999999997,-0.058589544,-28.86,41.94,-13.5
1554219795246,-1.9440918000000003,-9.342773,1.8908207,0.02130529,-0.020240024,-0.05965481,-28.74,41.94,-13.56
1554219795265,-1.8866308999999997,-9.385869,1.8237831999999998,0.017044231,-0.024501082,-0.053263225,-28.68,41.94,-13.62
1554219795285,-1.7956512999999998,-9.357139,1.7950528000000001,0.014913702,-0.029827405,-0.053263225,-28.56,41.94,-13.62
1554219795304,-1.8531121,-9.371504,1.9003976999999999,0.012783173500000002,-0.033023197000000004,-0.046871635999999994,-28.5,41.94,-13.68
1554219795324,-1.8100165000000001,-9.318831,1.7902644,0.026631612000000002,-0.037284255,-0.041545313,-28.38,41.88,-13.68
1554219795345,-1.8243817,-9.227852,1.9578583999999999,0.03834952,-0.035153727999999995,-0.037284255,-28.38,41.94,-13.68
1554219795364,-1.7477672,-9.223063,1.8620903000000002,0.034088463,-0.034088463,-0.03834952,-28.44,41.94,-13.68
1554219795384,-1.733402,-9.179967999999999,1.7758990000000001,0.020240024,-0.03195793,-0.04580637,-28.44,41.94,-13.68
1554219795405,-1.7238252,-9.108141999999999,1.9147629000000002,-0.015978966,-0.022370555,-0.06924219,-28.5,41.94,-13.68
1554219795425,-1.6711528000000002,-9.376292,1.9099745,-0.03195793,-0.018109497,-0.084155895,-28.56,42.0,-13.68
1554219795445,-1.6711528000000002,-9.419388,2.1015105,-0.03089267,-0.011717908999999999,-0.096939065,-28.62,42.0,-13.62
1554219795465,-1.6711528000000002,-9.505579,1.9865887999999998,-0.00958738,-0.008522116,-0.10865697,-28.62,42.0,-13.62
1554219795485,-1.6519991000000003,-9.543886,2.0536265,0.012783173500000002,-0.007456851,-0.113983296,-28.68,42.0,-13.56
1554219795505,-1.7860744999999998,-9.433753,2.0679917000000003,0.025566347000000003,-0.008522116,-0.113983296,-28.68,42.0,-13.56
1554219795525,-1.7142484,-9.328408,1.7902644,0.034088463,-0.011717908999999999,-0.1107875,-28.62,41.94,-13.5
1554219795544,-1.8339584999999998,-9.342773,1.977012,0.04580637,-0.013848438000000001,-0.112918034,-28.62,41.94,-13.5
1554219795564,-1.8195933000000002,-9.251794,1.8285716,0.051132694000000006,-0.014913702,-0.111852765,-28.56,41.88,-13.5
1554219795585,-1.6567876,-9.395446000000002,1.9961656000000003,0.041545313,-0.014913702,-0.11717909,-28.56,41.76,-13.5
1554219795604,-1.6519991000000003,-9.505579,1.9578583999999999,0.029827405,-0.011717908999999999,-0.11824436,-28.56,41.7,-13.5
1554219795625,-1.6807296000000003,-9.381081,2.0105310000000003,0.04474111,-0.0053263223,-0.1107875,-28.62,41.58,-13.44
1554219795644,-1.5466543,-9.438541,1.9818004,0.07350325,-0.0010652645,-0.101200126,-28.62,41.58,-13.5
1554219795666,-1.5562311000000002,-9.247005,1.8285716,0.12250541,0.011717908999999999,-0.08522116,-28.8,41.46,-13.5
1554219795686,-1.4939818,-9.237428999999999,1.8046296000000002,0.113983296,0.00958738,-0.09374327,-28.92,41.4,-13.5
1554219795705,-1.5083469999999999,-9.208698,2.0440497,0.06711166,0.002130529,-0.111852765,-29.04,41.4,-13.56
1554219795724,-1.6041151000000002,-9.35235,1.8668787,0.027696876000000002,-0.00958738,-0.13102753,-29.1,41.4,-13.68
1554219795746,-1.5945383,-9.390657000000001,2.0296845,0.03195793,-0.020240024,-0.13848437,-29.22,41.4,-13.8
1554219795766,-1.6136919,-9.333197,2.0009542000000002,0.047936900000000005,-0.025566347000000003,-0.12996227,-29.28,41.4,-13.92
1554219795785,-1.7238252,-9.247005,1.9195513,0.049002163,-0.02876214,-0.12357068,-29.34,41.46,-14.04
1554219795805,-1.6663644,-9.261371,2.0248961,0.040480047000000005,-0.027696876000000002,-0.12463594,-29.34,41.46,-14.04
1554219795825,-1.6807296000000003,-9.328408,1.9722236000000002,0.014913702,-0.025566347000000003,-0.13209279,-29.34,41.4,-14.1
1554219795844,-1.7717092,-9.366715,2.0679917000000003,0.002130529,-0.035153727999999995,-0.12783173,-29.4,41.4,-14.1
1554219795864,-1.5514427,-9.299678,2.0248961,0.008522116,-0.046871635999999994,-0.13528858,-29.4,41.4,-14.1
1554219795884,-1.685518,-9.247005,2.0967221,0.017044231,-0.05219796,-0.13209279,-29.4,41.34,-13.98
1554219795905,-1.6950948000000001,-9.208698,2.0679917000000003,0.020240024,-0.05752428,-0.11930962,-29.4,41.34,-13.92
1554219795925,-1.7142484,-9.237428999999999,1.977012,-0.0010652645,-0.06711166,-0.12463594,-29.46,41.28,-13.86
1554219795945,-1.6472107,-9.275736,1.9339164,-0.06178534,-0.094808534,-0.12570119999999999,-29.46,41.22,-13.8
1554219795964,-1.5993267,-9.371504,2.0488381,-0.080960095,-0.113983296,-0.113983296,-29.46,41.16,-13.8
1554219795984,-1.4508862,-9.433753,2.0105310000000003,-0.06391586,-0.13209279,-0.10226539,-29.52,41.1,-13.8
1554219796004,-1.5658079,-9.314043,2.0105310000000003,-0.051132694000000006,-0.15233281,-0.09267801,-29.52,40.98,-13.8
1554219796025,-1.5993267,-9.405023,1.9099745,-0.07030745599999999,-0.17257284,-0.10013486,-29.52,40.8,-13.74
1554219796045,-1.661576,-9.577405,2.1637597,-0.12037488,-0.19387813,-0.12144015,-29.52,40.68,-13.74
1554219796065,-1.541866,-9.663596,1.9865887999999998,-0.10652645,-0.20772657,-0.10546118,-29.52,40.5,-13.68
1554219796084,-1.5227122,-9.706693,2.0105310000000003,-0.039414786,-0.21198763,-0.08522116,-29.52,40.38,-13.62
1554219796104,-1.4077905000000002,-9.68275,1.9865887999999998,0.029827405,-0.20772657,-0.07030745599999999,-29.58,40.2,-13.56
1554219796125,-1.3120226000000001,-9.596559,1.9865887999999998,0.07669904,-0.19068234,-0.046871635999999994,-29.64,40.14,-13.5
1554219796144,-1.3742718,-9.548675,1.8716671000000003,0.08735169,-0.17896444,-0.041545313,-29.7,40.08,-13.44
1554219796166,-1.316811,-9.625289,1.8860323,0.09054748,-0.16405073,-0.037284255,-29.7,40.02,-13.32
1554219796186,-1.2258313,-9.567828,2.0392613,0.10759171,-0.14487597,-0.011717908999999999,-29.76,40.02,-13.26
1554219796206,-1.1923125,-9.342773,1.9339164,0.13635385,-0.12250541,0.0031957934000000003,-29.82,40.02,-13.2
1554219796226,-1.1300632,-9.318831,2.0201077,0.12996227,-0.10226539,0.0010652645,-29.88,40.02,-13.14
1554219796246,-1.2689268999999999,-9.247005,2.1015105,0.082025364,-0.09054748,-0.007456851,-29.88,40.02,-13.14
1554219796265,-1.4077905000000002,-9.357139,2.0919337,0.03834952,-0.08628642,-0.008522116,-29.88,40.02,-13.08
1554219796285,-1.436521,-9.534309,2.0201077,0.041545313,-0.08628642,-0.011717908999999999,-29.88,40.08,-13.08
1554219796306,-1.5801731,-9.452907000000002,2.154183,0.06391586,-0.09267801,-0.020240024,-29.88,40.14,-13.08
1554219796325,-1.5610195,-9.438541,2.0967221,0.06924219,-0.10759171,-0.027696876000000002,-29.88,40.2,-13.08
1554219796345,-1.5179238000000002,-9.405023,2.0296845,0.07456851,-0.113983296,-0.020240024,-29.82,40.26,-13.08
1554219796365,-1.4939818,-9.333197,1.9387047999999998,0.080960095,-0.11504856,-0.02130529,-29.82,40.32,-13.08
1554219796385,-1.5753847,-9.318831,2.0727801,0.05752428,-0.1107875,-0.033023197000000004,-29.76,40.38,-13.08
1554219796404,-1.5466543,-9.390657000000001,2.1206641,0.014913702,-0.10759171,-0.04261058,-29.76,40.44,-13.08
1554219796424,-1.5083469999999999,-9.405023,2.1206641,-0.013848438000000001,-0.1107875,-0.047936900000000005,-29.76,40.5,-13.08
1554219796446,-1.5466543,-9.428965,2.1637597,0.01917476,-0.112918034,-0.024501082,-29.76,40.5,-13.08
1554219796464,-1.6232687,-9.414599,2.3600842999999996,0.049002163,-0.128897,-0.020240024,-29.82,40.5,-13.08
1554219796484,-1.5945383,-9.428965,2.4510639,0.043675844000000005,-0.13848437,-0.022370555,-29.82,40.5,-13.08
1554219796505,-1.5849615,-9.481637,2.4558525,0.03195793,-0.15126756,0.0,-29.88,40.5,-13.08
1554219796524,-1.5131354,-9.548675,2.3936029999999997,0.06924219,-0.15552860000000002,0.020240024,-29.94,40.44,-13.08
1554219796545,-1.4269443000000002,-9.496002,2.6138697,0.10439592,-0.14807177,0.03834952,-29.94,40.38,-13.08
1554219796565,-1.3024458,-9.496002,2.5133132999999996,0.10972224,-0.12144015,0.054328485999999995,-30.0,40.38,-13.02
1554219796585,-1.13964,-9.519944,2.6761188999999996,0.09587380000000001,-0.08735169,0.053263225,-30.0,40.32,-13.02
1554219796605,-0.92416185,-9.563039999999999,2.5276785,0.084155895,-0.05219796,0.051132694000000006,-29.94,40.26,-13.02
1554219796625,-0.8475474000000001,-9.467272,2.4319102999999997,0.08948222,-0.012783173500000002,0.056459017,-29.88,40.32,-13.02
1554219796644,-0.79966336,-9.304466,2.5899277,0.12250541,0.020240024,0.056459017,-29.76,40.32,-13.02
1554219796664,-0.641646,-9.189544999999999,2.3840263,0.14913702,0.03834952,0.04261058,-29.7,40.38,-13.02
1554219796684,-0.60333884,-9.0794115,2.498948,0.15552860000000002,0.053263225,0.013848438000000001,-29.64,40.44,-13.02
1554219796706,-0.61770403,-8.902241,2.5276785,0.16724652,0.060720075,-0.011717908999999999,-29.52,40.56,-12.96
1554219796725,-0.60812724,-8.902241,2.4510639,0.16937704,0.06924219,-0.03195793,-29.4,40.68,-12.96
1554219796744,-0.80445176,-8.806473,2.4893713,0.15552860000000002,0.07989483,-0.04474111,-29.28,40.8,-12.9
1554219796765,-0.9624690999999999,-8.84478,2.5468319999999998,0.11611383,0.09054748,-0.05752428,-29.16,40.92,-12.9
1554219796785,-1.1061212,-9.055469500000001,2.441487,0.05752428,0.10439592,-0.05752428,-29.1,41.04,-12.9
1554219796804,-1.3024458,-9.304466,2.570774,0.020240024,0.12250541,-0.05539375,-29.04,41.1,-12.84
1554219796824,-1.2785037000000001,-9.0794115,2.556409,0.014913702,0.13422333,-0.04261058,-28.98,41.16,-12.84
1554219796845,-1.3072342,-9.256582,2.484583,0.007456851,0.15339808,-0.039414786,-28.92,41.22,-12.9
1554219796864,-1.3838485,-9.333197,2.6282349,0.008522116,0.15552860000000002,-0.04474111,-28.86,41.22,-12.96
1554219796884,-1.3934253,-9.270947,2.6665419999999997,0.039414786,0.15126756,-0.04261058,-28.86,41.28,-13.08
1554219796904,-1.292869,-9.261371,2.747945,0.09374327,0.13848437,-0.04580637,-28.86,41.28,-13.2
1554219796924,-1.2210428999999998,-9.1272955,2.5037365,0.128897,0.12357068,-0.060720075,-28.86,41.34,-13.38
1554219796945,-1.163582,-9.055469500000001,2.273893,0.13528858,0.096939065,-0.08522116,-28.92,41.34,-13.5
1554219796965,-1.1683705,-8.988432000000001,2.331354,0.12570119999999999,0.082025364,-0.09054748,-28.92,41.28,-13.68
1554219796985,-1.2641385,-8.710705,2.331354,0.098004326,0.060720075,-0.10013486,-28.92,41.28,-13.86
1554219797005,-1.316811,-8.763377,2.297835,0.03195793,0.04580637,-0.111852765,-28.98,41.28,-13.98
1554219797025,-1.4173675,-8.796896,2.3696610000000002,-0.06498113,0.036218993,-0.13102753,-28.98,41.28,-14.04
1554219797045,-1.484405,-9.088988,2.460641,-0.16085494,0.022370555,-0.14594123,-28.98,41.22,-14.1
1554219797065,-1.5753847,-9.539098,2.4941597,-0.23009712,0.015978966,-0.15339808,-29.04,41.16,-14.16
1554219797085,-1.6519991000000003,-9.783307,2.8054059,-0.23755397,0.007456851,-0.14274544,-29.04,41.1,-14.28
1554219797105,-1.6663644,-9.888652,2.9538465,-0.16405073,0.0063915867,-0.10439592,-29.04,40.98,-14.4
1554219797124,-1.6567876,-9.826402999999999,2.9107506,-0.06178534,0.0031957934000000003,-0.06604639400000001,-29.04,40.92,-14.46
1554219797144,-1.5897499,-9.639654,2.9682117000000003,0.012783173500000002,0.0031957934000000003,-0.035153727999999995,-29.04,40.8,-14.52
1554219797164,-1.541866,-9.716269500000001,2.7862522999999997,0.049002163,0.0010652645,-0.018109497,-29.1,40.74,-14.58
1554219797186,-1.3311761999999998,-9.491214,2.8293478,0.06498113,0.0010652645,0.0063915867,-29.1,40.68,-14.58
1554219797205,-1.2880806,-9.390657000000001,2.7527334999999997,0.111852765,0.0053263223,0.02876214,-29.1,40.62,-14.64
1554219797225,-1.1731589,-9.122507,2.6090812999999997,0.16085494,0.015978966,0.04474111,-29.1,40.56,-14.64
1554219797245,-1.1731589,-8.907029,2.3361422999999997,0.17257284,0.024501082,0.053263225,-29.16,40.56,-14.52
1554219797265,-1.0534488000000002,-8.710705,2.2691047,0.14487597,0.033023197000000004,0.051132694000000006,-29.22,40.56,-14.52
1554219797284,-1.0965444,-8.634089,2.4319102999999997,0.09374327,0.04474111,0.034088463,-29.28,40.56,-14.46
1554219797304,-1.163582,-8.672397,2.3409307,0.034088463,0.053263225,0.018109497,-29.34,40.56,-14.46
1554219797324,-1.2210428999999998,-8.820838,1.9818004,-0.046871635999999994,0.056459017,-0.008522116,-29.4,40.56,-14.46
1554219797344,-1.3551182,-8.959702,2.0440497,-0.10333065,0.05539375,-0.025566347000000003,-29.46,40.56,-14.46
1554219797365,-1.4939818,-9.088988,2.1254525,-0.18002969,0.053263225,-0.036218993,-29.46,40.56,-14.46
1554219797384,-1.5466543,-9.261371,2.0727801,-0.20453078,0.040480047000000005,-0.03195793,-29.52,40.56,-14.46
1554219797404,-1.5227122,-9.280524,1.8956091,-0.21944448,0.029827405,-0.027696876000000002,-29.52,40.68,-14.52
1554219797425,-1.541866,-9.223063,2.0488381,-0.25885928,0.007456851,-0.023435817999999997,-29.52,40.8,-14.46
1554219797446,-1.4317327,-9.223063,2.144606,-0.27590349999999997,-0.018109497,-0.02130529,-29.52,40.86,-14.46
1554219797465,-1.4700398000000001,-9.285313,2.2212207000000004,-0.26844665,-0.046871635999999994,-0.023435817999999997,-29.52,40.98,-14.46
1554219797485,-1.3790601,-9.366715,2.441487,-0.26205507,-0.07882957,-0.035153727999999995,-29.52,41.04,-14.4
1554219797505,-1.3024458,-9.390657000000001,2.6521769,-0.24927188,-0.111852765,-0.04580637,-29.52,41.16,-14.4
1554219797524,-1.2449848999999997,-9.649231,2.7144263,-0.2034655,-0.13528858,-0.053263225,-29.52,41.22,-14.34
1554219797545,-1.2593501,-9.725846,2.6952724,-0.12570119999999999,-0.14594123,-0.051132694000000006,-29.52,41.28,-14.28
1554219797565,-1.3311761999999998,-9.850344999999999,2.690484,-0.04474111,-0.14274544,-0.039414786,-29.52,41.28,-14.22
1554219797584,-1.2545617,-9.77373,2.570774,0.00958738,-0.12250541,-0.025566347000000003,-29.52,41.22,-14.1
1554219797605,-1.1779473,-9.606135,2.4366987,0.03195793,-0.07989483,-0.017044231,-29.46,41.28,-13.92
1554219797625,-1.163582,-9.548675,2.4558525,0.034088463,-0.034088463,-0.0053263223,-29.34,41.28,-13.8
1554219797645,-1.1683705,-9.433753,2.2930467,0.041545313,0.011717908999999999,0.011717908999999999,-29.22,41.22,-13.68
1554219797664,-1.163582,-9.357139,2.178125,0.04580637,0.051132694000000006,0.02130529,-29.1,41.22,-13.56
1554219797685,-1.1971009,-9.146449,2.235586,0.041545313,0.08841695,0.035153727999999995,-29.04,41.22,-13.44
1554219797705,-1.3838485,-9.065046,2.1733365,0.043675844000000005,0.099069595,0.036218993,-28.92,41.16,-13.38
1554219797725,-1.3886370000000001,-9.055469500000001,2.1110873,0.033023197000000004,0.09374327,0.023435817999999997,-28.86,41.16,-13.32
1554219797744,-1.5275006000000002,-9.065046,1.9865887999999998,0.004261058,0.07776430000000001,0.007456851,-28.8,41.1,-13.32
1554219797764,-1.5753847,-9.093777000000001,2.0344729999999998,-0.02130529,0.05752428,-0.0010652645,-28.8,41.1,-13.32
1554219797785,-1.7046716,-9.1033535,1.9339164,-0.033023197000000004,0.023435817999999997,-0.013848438000000001,-28.86,41.04,-13.32
1554219797805,-1.5993267,-9.294889,2.0727801,-0.04474111,-0.0010652645,-0.017044231,-28.92,41.04,-13.32
1554219797825,-1.5945383,-9.409811,2.0440497,-0.056459017,-0.020240024,-0.013848438000000001,-28.98,41.04,-13.38
1554219797845,-1.6950948000000001,-9.448118,2.1924900000000003,-0.05965481,-0.029827405,-0.011717908999999999,-29.04,41.04,-13.38
1554219797864,-1.6711528000000002,-9.615712,2.4079683,-0.06285059999999999,-0.040480047000000005,0.004261058,-29.1,41.04,-13.38
1554219797885,-1.6903063999999999,-9.639654,2.331354,-0.056459017,-0.040480047000000005,0.015978966,-29.16,41.1,-13.38
1554219797904,-1.6711528000000002,-9.596559,2.3361422999999997,-0.026631612000000002,-0.035153727999999995,0.03195793,-29.16,41.16,-13.38
1554219797926,-1.6376339,-9.596559,2.4941597,0.013848438000000001,-0.029827405,0.043675844000000005,-29.1,41.22,-13.32
1554219797946,-1.6472107,-9.44333,2.3505075,0.051132694000000006,-0.022370555,0.05006743,-29.04,41.28,-13.32
1554219797966,-1.5897499,-9.333197,2.40318,0.082025364,-0.01917476,0.051132694000000006,-28.98,41.34,-13.26
1554219797984,-1.4652513999999999,-9.160814,2.273893,0.09267801,-0.018109497,0.041545313,-28.86,41.4,-13.2
1554219798005,-1.5035586,-9.179967999999999,2.144606,0.07989483,-0.018109497,0.027696876000000002,-28.8,41.46,-13.14
1554219798024,-1.5035586,-9.069835000000001,2.0105310000000003,0.053263225,-0.02876214,0.010652645,-28.74,41.52,-13.14
1554219798045,-1.5801731,-9.194333,1.9913772,0.035153727999999995,-0.033023197000000004,-0.004261058,-28.68,41.52,-13.14
1554219798065,-1.5466543,-9.179967999999999,2.1015105,0.034088463,-0.04261058,-0.01917476,-28.62,41.52,-13.14
1554219798084,-1.5801731,-9.050680999999999,2.2307975,0.035153727999999995,-0.05219796,-0.033023197000000004,-28.62,41.52,-13.2
1554219798105,-1.7717092,-9.11293,2.3936029999999997,0.026631612000000002,-0.053263225,-0.040480047000000005,-28.62,41.52,-13.2
1554219798125,-1.6232687,-9.122507,2.3888147,0.0063915867,-0.05965481,-0.047936900000000005,-28.68,41.52,-13.2
1554219798144,-1.661576,-9.1272955,2.1493945,0.0,-0.05752428,-0.053263225,-28.68,41.52,-13.2
1554219798165,-1.7094599999999998,-9.208698,2.3409307,-0.013848438000000001,-0.051132694000000006,-0.06604639400000001,-28.74,41.52,-13.2
1554219798184,-1.7190368000000003,-9.35235,2.321777,-0.029827405,-0.05219796,-0.07137272,-28.74,41.58,-13.2
1554219798204,-1.7094599999999998,-9.424176,2.345719,-0.023435817999999997,-0.058589544,-0.07669904,-28.74,41.64,-13.2
1554219798225,-1.661576,-9.452907000000002,2.6042929,0.008522116,-0.06498113,-0.07243799,-28.74,41.76,-13.2
1554219798245,-1.6232687,-9.419388,2.4510639,0.046871635999999994,-0.07669904,-0.05752428,-28.74,41.82,-13.2
1554219798264,-1.7238252,-9.376292,2.4223334999999997,0.06498113,-0.082025364,-0.05965481,-28.74,41.82,-13.2
1554219798284,-1.5658079,-9.376292,2.5276785,0.07243799,-0.08735169,-0.058589544,-28.74,41.88,-13.26
1554219798304,-1.6328455,-9.433753,2.5516205000000003,0.083090626,-0.083090626,-0.05219796,-28.68,41.88,-13.26
1554219798325,-1.4987701999999998,-9.385869,2.5851393,0.10546118,-0.07456851,-0.049002163,-28.68,41.88,-13.26
1554219798345,-1.5035586,-9.242217,2.6761188999999996,0.12996227,-0.06391586,-0.041545313,-28.68,41.88,-13.2
1554219798364,-1.4508862,-9.141661000000001,2.4893713,0.13315806,-0.051132694000000006,-0.034088463,-28.68,41.88,-13.2
1554219798384,-1.364695,-9.041103999999999,2.4558525,0.12037488,-0.040480047000000005,-0.043675844000000005,-28.62,41.82,-13.2
1554219798406,-1.412579,-9.1033535,2.4797945,0.101200126,-0.027696876000000002,-0.05006743,-28.62,41.82,-13.14
1554219798425,-1.4700398000000001,-9.189544999999999,2.4510639,0.082025364,-0.011717908999999999,-0.05752428,-28.62,41.88,-13.14
1554219798444,-1.4891934,-9.194333,2.4366987,0.082025364,-0.007456851,-0.058589544,-28.62,41.88,-13.08
1554219798465,-1.6376339,-9.314043,2.5037365,0.084155895,-0.0010652645,-0.06285059999999999,-28.62,41.88,-13.08
1554219798485,-1.5131354,-9.385869,2.5851393,0.094808534,-0.004261058,-0.054328485999999995,-28.62,41.82,-13.02
1554219798505,-1.6328455,-9.337985,2.6856956000000003,0.1107875,-0.007456851,-0.047936900000000005,-28.62,41.82,-13.08
1554219798524,-1.685518,-9.390657000000001,2.8580782000000005,0.13954964,-0.012783173500000002,-0.039414786,-28.62,41.76,-13.08
1554219798545,-1.6998832,-9.266159,2.8963853999999998,0.16724652,-0.025566347000000003,-0.027696876000000002,-28.62,41.7,-13.14
1554219798564,-1.6711528000000002,-9.242217,2.795829,0.18429075,-0.033023197000000004,-0.027696876000000002,-28.62,41.7,-13.26
1554219798585,-1.7190368000000003,-9.294889,2.7383683,0.20453078,-0.041545313,-0.033023197000000004,-28.62,41.64,-13.38
1554219798605,-1.4891934,-9.208698,2.795829,0.2130529,-0.047936900000000005,-0.036218993,-28.62,41.58,-13.5
1554219798624,-1.5227122,-9.199121,2.8389246,0.21944448,-0.046871635999999994,-0.03089267,-28.62,41.52,-13.62
1554219798644,-1.5897499,-8.969278,2.867655,0.23009712,-0.04261058,-0.022370555,-28.62,41.52,-13.74
1554219798665,-1.5131354,-8.825626,2.7862522999999997,0.23116238,-0.039414786,-0.013848438000000001,-28.62,41.52,-13.8
1554219798685,-1.4748282,-8.686762,2.4893713,0.21731395,-0.04474111,-0.023435817999999997,-28.62,41.52,-13.86
1554219798705,-1.3742718,-8.686762,2.4558525,0.18002969,-0.04261058,-0.047936900000000005,-28.56,41.52,-13.92
1554219798724,-1.4077905000000002,-8.849568,2.2930467,0.10333065,-0.046871635999999994,-0.07776430000000001,-28.56,41.52,-13.92
1554219798744,-1.4652513999999999,-8.878299,2.5037365,0.035153727999999995,-0.046871635999999994,-0.09054748,-28.56,41.52,-13.98
1554219798765,-1.4030021000000001,-8.988432000000001,2.484583,-0.00958738,-0.05219796,-0.101200126,-28.56,41.58,-13.98
1554219798784,-1.4652513999999999,-9.065046,2.9011737999999996,-0.036218993,-0.05965481,-0.10013486,-28.56,41.64,-14.04
1554219798804,-1.5466543,-9.141661000000001,2.9538465,-0.04580637,-0.07030745599999999,-0.09587380000000001,-28.56,41.64,-14.1
1554219798825,-1.5370774999999999,-9.050680999999999,3.0065188,-0.05006743,-0.07669904,-0.09161274,-28.56,41.7,-14.1
1554219798844,-1.541866,-9.156025999999999,3.0400376000000002,-0.046871635999999994,-0.07563378,-0.084155895,-28.56,41.7,-14.16
1554219798864,-1.4460978999999998,-9.294889,3.2028434,-0.029827405,-0.07456851,-0.07563378,-28.56,41.7,-14.22
1554219798884,-1.4413095,-9.189544999999999,3.116652,-0.012783173500000002,-0.06604639400000001,-0.06924219,-28.56,41.7,-14.28
1554219798904,-1.4460978999999998,-9.1033535,2.9538465,-0.0063915867,-0.056459017,-0.05965481,-28.62,41.7,-14.28
1554219798925,-1.3934253,-9.132083999999999,2.891597,-0.007456851,-0.04580637,-0.051132694000000006,-28.62,41.64,-14.28
1554219798944,-1.2737153,-9.108141999999999,2.7814639,-0.010652645,-0.037284255,-0.043675844000000005,-28.62,41.58,-14.34
1554219798965,-1.2689268999999999,-8.96449,2.843713,-0.020240024,-0.029827405,-0.04474111,-28.68,41.52,-14.34
1554219798984,-1.340753,-9.223063,2.8485014,-0.033023197000000004,-0.025566347000000003,-0.03834952,-28.74,41.52,-14.4
1554219799005,-1.2976573999999998,-9.146449,2.8006175,-0.049002163,-0.011717908999999999,-0.037284255,-28.86,41.4,-14.46
1554219799025,-1.4077905000000002,-9.20391,2.819771,-0.05539375,-0.0031957934000000003,-0.035153727999999995,-28.98,41.34,-14.46
1554219799044,-1.2976573999999998,-9.1272955,2.9203273999999997,-0.051132694000000006,0.007456851,-0.03195793,-29.04,41.28,-14.52
1554219799064,-1.3886370000000001,-9.136872,2.8389246,-0.04474111,0.015978966,-0.03195793,-29.04,41.28,-14.52
1554219799085,-1.412579,-9.141661000000001,2.8628666000000003,-0.033023197000000004,0.008522116,-0.036218993,-29.04,41.28,-14.52
1554219799105,-1.412579,-9.213486999999999,2.9394810000000002,-0.013848438000000001,0.00958738,-0.039414786,-28.98,41.34,-14.52
1554219799124,-1.4173675,-9.237428999999999,2.9059622000000003,0.00958738,0.0063915867,-0.04580637,-28.92,41.34,-14.52
1554219799145,-1.4604629999999998,-9.261371,2.8580782000000005,0.015978966,-0.0010652645,-0.04474111,-28.8,41.4,-14.52
1554219799165,-1.4317327,-9.227852,3.0017304,0.022370555,-0.007456851,-0.036218993,-28.62,41.46,-14.52
1554219799185,-1.4556746,-9.237428999999999,2.8389246,0.041545313,-0.014913702,-0.029827405,-28.56,41.52,-14.46
1554219799205,-1.4987701999999998,-9.1033535,2.891597,0.051132694000000006,-0.020240024,-0.024501082,-28.56,41.64,-14.34
1554219799224,-1.4173675,-9.069835000000001,2.9634232999999996,0.04580637,-0.023435817999999997,-0.018109497,-28.62,41.7,-14.28
1554219799244,-1.3790601,-9.136872,2.8772318,0.04474111,-0.03089267,-0.01917476,-28.68,41.76,-14.16
1554219799264,-1.3886370000000001,-9.021951,2.8963853999999998,0.054328485999999995,-0.033023197000000004,-0.02876214,-28.8,41.76,-14.1
1554219799284,-1.4796166000000002,-9.156025999999999,2.7814639,0.03195793,-0.033023197000000004,-0.039414786,-28.92,41.76,-14.04
1554219799305,-1.3886370000000001,-9.328408,2.7766755,0.007456851,-0.041545313,-0.04474111,-28.98,41.76,-13.98
1554219799324,-1.3599066,-9.237428999999999,2.7766755,0.00958738,-0.039414786,-0.04261058,-29.04,41.82,-13.92
1554219799344,-1.4173675,-9.160814,2.8389246,0.033023197000000004,-0.034088463,-0.033023197000000004,-29.04,41.82,-13.98
1554219799365,-1.3790601,-8.993219999999999,2.7096379,0.058589544,-0.027696876000000002,-0.026631612000000002,-28.98,41.82,-13.98
1554219799385,-1.3120226000000001,-8.911817999999998,2.8772318,0.05006743,-0.017044231,-0.027696876000000002,-28.92,41.82,-14.04
1554219799404,-1.3790601,-8.839992,2.7527334999999997,0.0053263223,-0.011717908999999999,-0.035153727999999995,-28.92,41.82,-14.1
1554219799424,-1.4173675,-8.916606,2.747945,-0.023435817999999997,-0.0063915867,-0.041545313,-28.86,41.82,-14.1
1554219799445,-1.4413095,-9.026739,2.8532897999999998,-0.06285059999999999,-0.0010652645,-0.05006743,-28.8,41.82,-14.1
1554219799465,-1.4221559,-9.1033535,2.843713,-0.082025364,-0.002130529,-0.05219796,-28.86,41.88,-14.16
1554219799484,-1.4317327,-9.270947,2.6856956000000003,-0.080960095,-0.002130529,-0.049002163,-28.86,41.88,-14.16
1554219799504,-1.4221559,-9.294889,2.8485014,-0.060720075,-0.011717908999999999,-0.04474111,-28.86,41.88,-14.16
1554219799525,-1.4269443000000002,-9.179967999999999,2.7527334999999997,-0.05006743,-0.014913702,-0.040480047000000005,-28.86,41.94,-14.16
1554219799545,-1.5083469999999999,-9.1272955,2.9299042,-0.05219796,-0.02130529,-0.035153727999999995,-28.86,41.94,-14.16
1554219799565,-1.4317327,-9.136872,2.9873652,-0.056459017,-0.027696876000000002,-0.036218993,-28.8,41.94,-14.1
1554219799585,-1.4604629999999998,-9.065046,2.9059622000000003,-0.06285059999999999,-0.02876214,-0.036218993,-28.8,41.94,-14.1
1554219799605,-1.4939818,-9.141661000000001,2.9442697,-0.06711166,-0.035153727999999995,-0.033023197000000004,-28.8,41.94,-14.1
1554219799624,-1.484405,-9.194333,2.8963853999999998,-0.060720075,-0.034088463,-0.02876214,-28.74,41.94,-14.1
1554219799644,-1.3886370000000001,-9.098564999999999,2.867655,-0.046871635999999994,-0.033023197000000004,-0.026631612000000002,-28.74,41.94,-14.04
1554219799664,-1.3838485,-9.041103999999999,2.7527334999999997,-0.043675844000000005,-0.03195793,-0.025566347000000003,-28.74,41.94,-14.04
1554219799685,-1.3024458,-9.055469500000001,2.7814639,-0.05539375,-0.033023197000000004,-0.029827405,-28.68,41.88,-13.98
1554219799705,-1.316811,-9.055469500000001,2.8532897999999998,-0.07563378,-0.03089267,-0.036218993,-28.68,41.94,-13.98
1554219799725,-1.3455413999999999,-9.1033535,2.7431567,-0.083090626,-0.024501082,-0.04261058,-28.68,41.94,-13.92
1554219799745,-1.3455413999999999,-9.223063,2.7575218999999995,-0.08735169,-0.023435817999999997,-0.046871635999999994,-28.68,41.94,-13.86
1554219799764,-1.3838485,-9.266159,2.867655,-0.07456851,-0.020240024,-0.04580637,-28.68,41.88,-13.86
1554219799784,-1.4460978999999998,-9.237428999999999,2.7287915000000003,-0.07563378,-0.017044231,-0.04261058,-28.74,41.88,-13.8
1554219799804,-1.4317327,-9.242217,2.8868085999999997,-0.07563378,-0.020240024,-0.03834952,-28.8,41.82,-13.8
1554219799825,-1.4413095,-9.223063,2.7096379,-0.07243799,-0.015978966,-0.041545313,-28.8,41.82,-13.8
1554219799845,-1.3503298000000001,-9.184756,2.8101943,-0.07989483,-0.015978966,-0.043675844000000005,-28.8,41.76,-13.8
1554219799865,-1.4508862,-9.285313,2.6234465,-0.07669904,-0.015978966,-0.04261058,-28.8,41.7,-13.8
1554219799885,-1.4030021000000001,-9.390657000000001,2.6569653,-0.068176925,-0.023435817999999997,-0.039414786,-28.8,41.7,-13.8
1554219799905,-1.3599066,-9.314043,2.9825767999999995,-0.049002163,-0.027696876000000002,-0.033023197000000004,-28.86,41.7,-13.8
1554219799924,-1.4460978999999998,-9.275736,2.843713,-0.013848438000000001,-0.03089267,-0.026631612000000002,-28.86,41.7,-13.8
1554219799945,-1.4556746,-9.20391,2.819771,0.007456851,-0.033023197000000004,-0.025566347000000003,-28.8,41.7,-13.8
1554219799964,-1.4221559,-9.199121,2.7814639,0.015978966,-0.02876214,-0.02130529,-28.8,41.7,-13.74
1554219799985,-1.4221559,-9.1512375,2.6952724,0.013848438000000001,-0.02130529,-0.023435817999999997,-28.8,41.7,-13.74
1554219800004,-1.316811,-9.136872,2.7240029999999997,0.0,-0.013848438000000001,-0.025566347000000003,-28.8,41.7,-13.68
1554219800025,-1.3359646,-9.160814,2.7144263,-0.015978966,-0.0031957934000000003,-0.026631612000000002,-28.8,41.76,-13.62
1554219800045,-1.3599066,-9.218275,2.7527334999999997,-0.01917476,0.011717908999999999,-0.03195793,-28.8,41.82,-13.62
1554219800064,-1.4077905000000002,-9.223063,2.8101943,-0.00958738,0.023435817999999997,-0.026631612000000002,-28.8,41.76,-13.5
1554219800085,-1.3694833999999998,-9.108141999999999,2.5133132999999996,-0.002130529,0.033023197000000004,-0.026631612000000002,-28.8,41.76,-13.44
1554219800105,-1.4269443000000002,-9.122507,2.690484,-0.014913702,0.041545313,-0.027696876000000002,-28.8,41.76,-13.38
1554219800125,-1.4030021000000001,-9.132083999999999,2.747945,-0.037284255,0.043675844000000005,-0.03195793,-28.86,41.7,-13.26
1554219800144,-1.5514427,-9.156025999999999,2.6090812999999997,-0.051132694000000006,0.049002163,-0.034088463,-28.86,41.64,-13.2
1554219800164,-1.5705963,-9.237428999999999,2.7814639,-0.04580637,0.049002163,-0.03195793,-28.86,41.64,-13.14
1554219800185,-1.5179238000000002,-9.223063,2.795829,-0.034088463,0.043675844000000005,-0.037284255,-28.92,41.64,-13.08
1554219800204,-1.5227122,-9.247005,2.7814639,-0.029827405,0.03834952,-0.03834952,-28.92,41.58,-13.08
1554219800224,-1.5562311000000002,-9.189544999999999,2.7144263,-0.023435817999999997,0.029827405,-0.039414786,-28.92,41.64,-13.08
1554219800245,-1.6232687,-9.20391,2.5133132999999996,-0.014913702,0.027696876000000002,-0.037284255,-28.92,41.7,-13.08
1554219800265,-1.5275006000000002,-9.218275,2.6952724,-0.010652645,0.023435817999999997,-0.034088463,-28.92,41.76,-13.08
1554219800285,-1.5658079,-9.247005,2.747945,-0.012783173500000002,0.02130529,-0.03089267,-28.92,41.82,-13.08
1554219800305,-1.541866,-9.242217,2.5516205000000003,-0.010652645,0.015978966,-0.02876214,-28.86,41.88,-13.14
1554219800325,-1.4508862,-9.194333,2.6426,-0.008522116,0.015978966,-0.026631612000000002,-28.8,41.94,-13.2
1554219800345,-1.5610195,-9.179967999999999,2.5468319999999998,-0.015978966,0.020240024,-0.027696876000000002,-28.74,42.0,-13.26
1554219800364,-1.4748282,-9.1512375,2.7048495,-0.01917476,0.01917476,-0.026631612000000002,-28.62,42.0,-13.26
1554219800385,-1.4508862,-9.294889,2.6473885,-0.017044231,0.026631612000000002,-0.026631612000000002,-28.56,42.0,-13.32
1554219800406,-1.5370774999999999,-9.194333,2.556409,-0.03089267,0.022370555,-0.040480047000000005,-28.5,41.88,-13.32
1554219800425,-1.484405,-9.275736,2.6090812999999997,-0.03834952,0.02130529,-0.04580637,-28.38,41.82,-13.32
1554219800445,-1.5275006000000002,-9.32362,2.6761188999999996,-0.029827405,0.017044231,-0.046871635999999994,-28.32,41.76,-13.32
1554219800464,-1.5897499,-9.266159,2.7527334999999997,-0.00958738,0.013848438000000001,-0.04580637,-28.26,41.76,-13.32
1554219800484,-1.5897499,-9.280524,2.6090812999999997,0.023435817999999997,0.0031957934000000003,-0.04261058,-28.26,41.76,-13.26
1554219800505,-1.5514427,-9.165602999999999,2.7814639,0.027696876000000002,-0.004261058,-0.04580637,-28.26,41.76,-13.2
1554219800525,-1.4987701999999998,-9.256582,2.6617537000000002,0.013848438000000001,-0.010652645,-0.04261058,-28.32,41.7,-13.2
1554219800544,-1.5035586,-9.184756,2.5516205000000003,0.002130529,-0.012783173500000002,-0.046871635999999994,-28.32,41.76,-13.2
1554219800564,-1.5035586,-9.266159,2.6090812999999997,0.0010652645,-0.015978966,-0.04580637,-28.38,41.82,-13.2
1554219800585,-1.4652513999999999,-9.285313,2.5803509,0.010652645,-0.015978966,-0.041545313,-28.38,41.88,-13.2
1554219800605,-1.4700398000000001,-9.294889,2.6378117000000003,0.02130529,-0.017044231,-0.037284255,-28.44,42.0,-13.2
1554219800624,-1.5514427,-9.141661000000001,2.5995044999999997,0.02876214,-0.02130529,-0.037284255,-28.5,42.0,-13.14
1554219800644,-1.5179238000000002,-9.146449,2.6330232999999996,0.024501082,-0.026631612000000002,-0.03834952,-28.5,42.0,-13.14
1554219800664,-1.4652513999999999,-9.184756,2.6138697,0.010652645,-0.02876214,-0.040480047000000005,-28.56,42.0,-13.14
1554219800685,-1.5370774999999999,-9.213486999999999,2.7048495,0.012783173500000002,-0.03089267,-0.041545313,-28.56,42.0,-13.08
1554219800705,-1.5131354,-9.266159,2.7335799,0.034088463,-0.03195793,-0.039414786,-28.56,42.0,-13.08
1554219800724,-1.4987701999999998,-9.165602999999999,2.7000610000000003,0.05219796,-0.037284255,-0.036218993,-28.56,41.94,-13.02
1554219800745,-1.4939818,-9.184756,2.6521769,0.04580637,-0.03834952,-0.037284255,-28.5,41.94,-12.96
1554219800764,-1.4652513999999999,-9.208698,2.690484,0.035153727999999995,-0.03834952,-0.043675844000000005,-28.5,41.94,-12.96
1554219800785,-1.4987701999999998,-9.266159,2.6856956000000003,0.036218993,-0.03834952,-0.041545313,-28.5,41.88,-12.9
1554219800805,-1.4556746,-9.361927,2.7287915000000003,0.04474111,-0.040480047000000005,-0.03834952,-28.5,41.88,-12.9
1554219800825,-1.4604629999999998,-9.256582,2.7527334999999997,0.060720075,-0.040480047000000005,-0.03195793,-28.5,41.88,-12.84
1554219800845,-1.4508862,-9.270947,2.556409,0.06711166,-0.040480047000000005,-0.029827405,-28.5,41.82,-12.84
1554219800864,-1.5083469999999999,-9.179967999999999,2.8006175,0.06391586,-0.039414786,-0.027696876000000002,-28.5,41.82,-12.84
1554219800885,-1.4221559,-9.165602999999999,2.5611973,0.058589544,-0.037284255,-0.02876214,-28.5,41.88,-12.84
1554219800904,-1.412579,-9.0315275,2.7431567,0.049002163,-0.035153727999999995,-0.027696876000000002,-28.5,41.88,-12.84
1554219800925,-1.3599066,-9.050680999999999,2.6426,0.047936900000000005,-0.037284255,-0.024501082,-28.5,41.88,-12.84
1554219800945,-1.340753,-9.055469500000001,2.7144263,0.03834952,-0.029827405,-0.02876214,-28.5,41.94,-12.9
1554219800964,-1.4317327,-9.0842,2.6282349,0.015978966,-0.02876214,-0.03834952,-28.5,41.94,-12.9
1554219800984,-1.4221559,-9.247005,2.7144263,0.011717908999999999,-0.026631612000000002,-0.036218993,-28.5,41.94,-12.96
1554219801004,-1.412579,-9.213486999999999,2.7575218999999995,0.022370555,-0.03089267,-0.033023197000000004,-28.5,41.94,-12.96
1554219801025,-1.3694833999999998,-9.11293,2.7240029999999997,0.041545313,-0.029827405,-0.03089267,-28.5,42.0,-12.96
1554219801044,-1.3599066,-9.170391,2.9634232999999996,0.06178534,-0.037284255,-0.033023197000000004,-28.5,42.06,-12.96
1554219801064,-1.3982137,-9.170391,2.8341362,0.05752428,-0.034088463,-0.039414786,-28.44,42.06,-12.96
1554219801085,-1.3934253,-9.088988,2.8054059,0.04474111,-0.03195793,-0.040480047000000005,-28.44,42.12,-12.96
1554219801104,-1.4221559,-9.189544999999999,2.8006175,0.04474111,-0.025566347000000003,-0.043675844000000005,-28.44,42.12,-13.02
1554219801124,-1.4508862,-9.218275,2.7287915000000003,0.054328485999999995,-0.02130529,-0.04261058,-28.38,42.12,-13.08
1554219801145,-1.4269443000000002,-9.055469500000001,2.6617537000000002,0.054328485999999995,-0.015978966,-0.040480047000000005,-28.38,42.12,-13.14
1554219801164,-1.4796166000000002,-9.122507,2.8149827000000003,0.05006743,-0.013848438000000001,-0.04261058,-28.32,42.18,-13.2
1554219801184,-1.3838485,-9.132083999999999,2.7144263,0.041545313,-0.020240024,-0.043675844000000005,-28.32,42.18,-13.26
1554219801205,-1.4269443000000002,-9.0842,2.819771,0.03195793,-0.022370555,-0.043675844000000005,-28.32,42.18,-13.32
1554219801225,-1.484405,-9.1033535,2.8293478,0.02130529,-0.025566347000000003,-0.041545313,-28.32,42.18,-13.38
1554219801245,-1.4556746,-9.088988,2.819771,0.010652645,-0.029827405,-0.04474111,-28.32,42.12,-13.38
1554219801265,-1.4413095,-9.165602999999999,2.7383683,-0.0010652645,-0.03195793,-0.047936900000000005,-28.38,42.12,-13.38
1554219801284,-1.4556746,-9.1272955,2.8054059,-0.007456851,-0.035153727999999995,-0.049002163,-28.38,42.12,-13.38
1554219801304,-1.412579,-9.160814,2.8628666000000003,-0.0063915867,-0.033023197000000004,-0.046871635999999994,-28.38,42.18,-13.38
1554219801324,-1.4413095,-9.237428999999999,2.9394810000000002,-0.002130529,-0.034088463,-0.049002163,-28.38,42.12,-13.32
1554219801345,-1.412579,-9.132083999999999,2.9299042,0.0010652645,-0.034088463,-0.04580637,-28.38,42.12,-13.32
1554219801365,-1.5035586,-9.199121,2.8293478,0.0031957934000000003,-0.03089267,-0.043675844000000005,-28.38,42.12,-13.26
1554219801384,-1.4413095,-9.122507,2.8341362,0.0031957934000000003,-0.025566347000000003,-0.043675844000000005,-28.32,42.12,-13.2
1554219801405,-1.4939818,-9.088988,2.915539,0.004261058,-0.024501082,-0.040480047000000005,-28.32,42.06,-13.2
1554219801425,-1.3503298000000001,-9.093777000000001,2.8485014,0.002130529,-0.022370555,-0.04474111,-28.26,42.06,-13.14
1554219801445,-1.4939818,-9.050680999999999,2.7000610000000003,-0.0031957934000000003,-0.018109497,-0.04261058,-28.26,42.06,-13.14
1554219801465,-1.4269443000000002,-9.069835000000001,2.843713,-0.012783173500000002,-0.015978966,-0.04261058,-28.26,42.06,-13.14
1554219801484,-1.3694833999999998,-9.11293,2.7670987,-0.007456851,-0.010652645,-0.04261058,-28.26,42.06,-13.14
1554219801504,-1.3599066,-9.093777000000001,2.7910407000000004,-0.017044231,-0.010652645,-0.049002163,-28.26,42.12,-13.14
1554219801525,-1.364695,-9.179967999999999,2.8054059,-0.034088463,-0.007456851,-0.05006743,-28.26,42.12,-13.14
1554219801547,-1.5131354,-9.223063,2.9107506,-0.037284255,-0.00958738,-0.05006743,-28.32,42.12,-13.14
1554219801568,-1.4652513999999999,-9.199121,2.8532897999999998,-0.02876214,-0.008522116,-0.049002163,-28.32,42.18,-13.14
1554219801584,-1.4748282,-9.160814,2.8628666000000003,-0.013848438000000001,-0.017044231,-0.04474111,-28.32,42.18,-13.2
1554219801604,-1.3982137,-9.146449,2.6473885,-0.014913702,-0.020240024,-0.04474111,-28.44,42.18,-13.2
1554219801624,-1.412579,-9.146449,2.795829,-0.02130529,-0.01917476,-0.041545313,-28.56,42.18,-13.2
1554219801644,-1.3742718,-9.160814,2.9203273999999997,-0.01917476,-0.013848438000000001,-0.039414786,-28.62,42.18,-13.2
1554219801664,-1.3838485,-9.179967999999999,2.9346926,-0.020240024,-0.0053263223,-0.03834952,-28.74,42.0,-13.2
1554219801684,-1.3982137,-9.1512375,2.7575218999999995,-0.02130529,-0.004261058,-0.037284255,-28.8,41.76,-13.26
1554219801705,-1.4508862,-9.146449,2.8293478,-0.022370555,0.0,-0.039414786,-28.92,41.58,-13.26
1554219801725,-1.3311761999999998,-9.194333,2.7144263,-0.018109497,0.0031957934000000003,-0.040480047000000005,-28.98,41.4,-13.26
1554219801744,-1.3455413999999999,-9.189544999999999,2.7240029999999997,-0.014913702,0.002130529,-0.04261058,-29.04,41.22,-13.26
1554219801764,-1.364695,-9.184756,2.8485014,-0.017044231,0.0031957934000000003,-0.04474111,-28.98,41.04,-13.26
1554219801785,-1.4173675,-9.165602999999999,2.8054059,-0.008522116,0.0,-0.040480047000000005,-28.98,40.92,-13.26
1554219801804,-1.4173675,-9.160814,2.8532897999999998,-0.004261058,0.002130529,-0.04261058,-28.98,40.86,-13.2
1554219801824,-1.4077905000000002,-9.088988,2.7527334999999997,-0.004261058,0.0010652645,-0.043675844000000005,-28.92,40.98,-13.2
1554219801845,-1.4652513999999999,-9.093777000000001,2.8580782000000005,-0.008522116,0.0,-0.04474111,-28.92,41.1,-13.2
1554219801865,-1.4317327,-9.160814,2.7287915000000003,-0.013848438000000001,-0.0010652645,-0.043675844000000005,-28.92,41.22,-13.14
1554219801885,-1.541866,-9.179967999999999,2.7144263,-0.004261058,-0.0053263223,-0.04474111,-28.86,41.28,-13.14
1554219801904,-1.436521,-9.146449,2.8101943,-0.0010652645,-0.00958738,-0.04474111,-28.86,41.34,-13.2
1554219801924,-1.4413095,-9.1512375,2.8772318,-0.0063915867,-0.013848438000000001,-0.04474111,-28.8,41.4,-13.2
1554219801945,-1.4604629999999998,-9.227852,2.9011737999999996,-0.007456851,-0.01917476,-0.041545313,-28.74,41.52,-13.2
1554219801964,-1.4317327,-9.1512375,2.9059622000000003,-0.004261058,-0.025566347000000003,-0.043675844000000005,-28.56,41.46,-13.2
1554219801984,-1.4508862,-9.160814,2.8868085999999997,-0.0031957934000000003,-0.022370555,-0.041545313,-28.44,41.46,-13.2
1554219802004,-1.4891934,-9.1272955,2.8580782000000005,-0.010652645,-0.022370555,-0.037284255,-28.32,41.52,-13.2
1554219802024,-1.4221559,-9.136872,2.7814639,-0.00958738,-0.023435817999999997,-0.034088463,-28.26,41.58,-13.2
1554219802045,-1.4030021000000001,-9.1272955,2.843713,-0.0031957934000000003,-0.020240024,-0.03195793,-28.14,41.58,-13.2
1554219802065,-1.3359646,-9.088988,2.7766755,-0.01917476,-0.01917476,-0.039414786,-28.08,41.64,-13.2
1554219802084,-1.4317327,-9.270947,2.7575218999999995,-0.034088463,-0.014913702,-0.04580637,-28.02,41.7,-13.2
1554219802104,-1.4700398000000001,-9.318831,2.8580782000000005,-0.024501082,-0.022370555,-0.04261058,-28.08,41.7,-13.2
1554219802124,-1.4460978999999998,-9.189544999999999,2.7623102999999998,-0.0031957934000000003,-0.022370555,-0.036218993,-28.2,41.76,-13.2
