TimeStamp,Ax,Ay,Az,Gx,Gy,Gz,Mx,My,Mz
1554887713615,6.7372837,-6.795342999999999,2.1829132999999996,-0.07456851,0.128897,-0.07882957,-29.76,-48.84,-43.08
1554887713635,6.8091097000000005,-6.8575919999999995,2.0153193,-0.08522116,0.14168017,-0.07563378,-29.7,-48.84,-43.14
1554887713655,6.789956,-7.0347633,1.9578583999999999,-0.098004326,0.15126756,-0.06711166,-29.64,-48.84,-43.2
1554887713676,6.789956,-7.077858999999999,2.0296845,-0.083090626,0.165116,-0.06924219,-29.58,-48.72,-43.2
1554887713695,6.756437299999999,-7.0347633,2.1254525,-0.05965481,0.17576863,-0.07137272,-29.52,-48.66,-43.26
1554887713715,6.799533,-7.0730705,1.9387047999999998,-0.034088463,0.18748654,-0.07456851,-29.4,-48.6,-43.32
1554887713735,6.6941880000000005,-7.029975,2.178125,-0.034088463,0.19920446,-0.054328485999999995,-29.28,-48.54,-43.32
1554887713755,6.483498,-6.900687700000001,2.1877017000000003,-0.007456851,0.20559604,-0.04580637,-29.1,-48.48,-43.32
1554887713775,6.4404025,-6.7043633,2.1350293,0.015978966,0.1949434,-0.060720075,-28.92,-48.42,-43.44
1554887713796,6.4787097000000005,-6.6612678,2.1877017000000003,0.017044231,0.19068234,-0.07030745599999999,-28.74,-48.36,-43.5
1554887713815,6.4164605,-6.4122705,2.4510639,-0.0063915867,0.18855181,-0.08522116,-28.56,-48.3,-43.56
1554887713835,6.430825700000001,-6.2925606,2.168548,-0.049002163,0.18642128,-0.09374327,-28.38,-48.24,-43.68
1554887713855,6.320692500000001,-6.4840965,2.0536265,-0.12037488,0.18002969,-0.09161274,-28.26,-48.12,-43.74
1554887713875,6.272808599999999,-6.656479400000001,2.4366987,-0.17470337,0.17257284,-0.07776430000000001,-28.14,-48.12,-43.86
1554887713895,6.3063273,-6.800131299999999,2.4223334999999997,-0.20559604,0.1587244,-0.05965481,-28.08,-48.06,-43.92
1554887713916,6.493075,-7.0874357,2.6090812999999997,-0.20240025,0.14487597,-0.037284255,-28.08,-48.0,-44.04
1554887713936,6.5026517,-7.16405,2.7144263,-0.16298546,0.14594123,-0.029827405,-28.08,-47.94,-44.04
1554887713955,6.483498,-7.1448965,2.40318,-0.09267801,0.12783173,-0.018109497,-28.08,-47.82,-44.04
1554887713976,6.4020953,-6.9677253,2.3600842999999996,-0.037284255,0.10226539,-0.014913702,-28.02,-47.58,-44.04
1554887713995,6.4068837,-6.8528037,2.2164322999999997,-0.020240024,0.05965481,-0.014913702,-28.02,-47.46,-43.98
1554887714016,6.291962,-6.848015299999999,2.2786815,-0.018109497,0.025566347000000003,-0.011717908999999999,-27.96,-47.34,-43.98
1554887714035,6.2105594,-6.8288617,2.345719,-0.010652645,-0.0063915867,-0.013848438000000001,-27.9,-47.22,-43.98
1554887714055,6.3063273,-6.9916677,2.2643162999999995,-0.014913702,-0.03834952,-0.0063915867,-27.84,-47.04,-43.98
1554887714075,6.2871737,-6.9150529999999995,2.2882583,-0.0010652645,-0.06498113,0.0010652645,-27.78,-46.92,-43.98
1554887714095,6.2153480000000005,-6.8671690000000005,2.379238,0.024501082,-0.080960095,0.008522116,-27.72,-46.86,-43.98
1554887714115,6.3685765,-6.9198413,2.3744495,0.03089267,-0.09374327,0.020240024,-27.54,-46.8,-43.98
1554887714135,6.3925184999999995,-6.83365,2.4223334999999997,0.027696876000000002,-0.099069595,0.025566347000000003,-27.42,-46.8,-44.04
1554887714155,6.4260373,-6.9198413,2.379238,0.029827405,-0.10759171,0.027696876000000002,-27.24,-46.8,-44.1
1554887714176,6.4164605,-6.9342065,2.3505075,0.040480047000000005,-0.101200126,0.029827405,-27.12,-46.74,-44.16
1554887714195,6.363788,-7.015609700000001,2.130241,0.06711166,-0.10546118,0.035153727999999995,-27.0,-46.74,-44.22
1554887714215,6.3446345,-7.006033,2.321777,0.08735169,-0.113983296,0.041545313,-26.94,-46.68,-44.34
1554887714235,6.301539,-6.962936999999999,2.273893,0.09587380000000001,-0.12250541,0.05219796,-26.88,-46.68,-44.22
1554887714255,6.349423000000001,-6.938994999999999,2.3600842999999996,0.10439592,-0.12037488,0.06178534,-26.82,-46.68,-44.16
1554887714275,6.349423000000001,-6.900687700000001,2.235586,0.1107875,-0.128897,0.06711166,-26.88,-46.68,-44.1
1554887714295,6.4404025,-6.9677253,2.235586,0.1107875,-0.13741912,0.07350325,-26.94,-46.68,-44.04
1554887714315,6.3350577,-7.0251865,2.178125,0.10652645,-0.128897,0.083090626,-27.0,-46.56,-43.92
1554887714335,6.325481,-7.116166000000001,2.1829132999999996,0.10759171,-0.12996227,0.082025364,-27.06,-46.44,-43.86
1554887714355,6.3302693,-7.044339999999999,2.0967221,0.11717909,-0.14168017,0.083090626,-27.12,-46.38,-43.8
1554887714375,6.4212489999999995,-7.044339999999999,2.1398177000000005,0.128897,-0.15233281,0.082025364,-27.18,-46.32,-43.74
1554887714395,6.3829417,-6.977302000000001,2.0153193,0.13954964,-0.15978967,0.082025364,-27.24,-46.26,-43.86
1554887714418,6.325481,-7.053917,2.1254525,0.14913702,-0.17896444,0.07563378,-27.3,-46.2,-43.92
1554887714435,6.373365,-6.9198413,2.202067,0.1470065,-0.19600865,0.06498113,-27.42,-46.14,-43.98
1554887714455,6.3925184999999995,-6.9246297000000006,2.1972785,0.128897,-0.20985709,0.05539375,-27.54,-46.08,-44.04
1554887714475,6.4164605,-6.9581485,2.1924900000000003,0.12463594,-0.21624869,0.05006743,-27.66,-46.14,-44.04
1554887714495,6.430825700000001,-6.977302000000001,2.0344729999999998,0.13315806,-0.23009712,0.049002163,-27.72,-46.26,-44.04
1554887714515,6.3829417,-7.1065892999999996,2.0679917000000003,0.13422333,-0.23329292,0.05006743,-27.9,-46.38,-44.04
1554887714536,6.435614,-7.149685000000001,2.0296845,0.14487597,-0.23648871,0.049002163,-28.08,-46.44,-44.04
1554887714555,6.435614,-7.149685000000001,2.0296845,0.14487597,-0.23648871,0.049002163,-28.08,-46.44,-44.04
1554887714575,6.4643445,-7.1353197,1.977012,0.17576863,-0.22903186,0.046871635999999994,-28.5,-46.68,-43.86
1554887714596,6.459556,-7.1975690000000005,2.0440497,0.2034655,-0.22050974,0.049002163,-28.74,-46.8,-43.8
1554887714615,6.354211299999999,-7.0634937,1.8716671000000003,0.21731395,-0.2130529,0.049002163,-28.98,-47.04,-43.62
1554887714635,6.4499793,-6.962936999999999,1.9818004,0.20772657,-0.22583607,0.047936900000000005,-29.16,-47.4,-43.44
1554887714656,6.38773,-6.9820905,2.0105310000000003,0.19068234,-0.22796659,0.047936900000000005,-29.4,-47.76,-43.26
1554887714675,6.4068837,-7.015609700000001,2.0440497,0.17789917,-0.22370553,0.046871635999999994,-29.58,-48.36,-43.08
1554887714696,6.339846,-6.9677253,1.9818004,0.18216023,-0.22690132,0.047936900000000005,-29.7,-49.08,-42.9
1554887714715,6.3925184999999995,-7.0012445,2.0440497,0.19600865,-0.23222765,0.053263225,-29.82,-49.74,-42.84
1554887714735,6.411672,-7.0347633,1.929128,0.18642128,-0.23968449999999997,0.047936900000000005,-29.94,-50.34,-42.72
1554887714755,6.349423000000001,-7.020397999999999,1.9626468000000001,0.17257284,-0.2428803,0.05219796,-30.0,-51.0,-42.66
1554887714776,6.469133,-7.044339999999999,1.9434932,0.16937704,-0.25033715,0.051132694000000006,-30.12,-51.48,-42.6
1554887714795,6.430825700000001,-6.9677253,1.881244,0.16085494,-0.2609898,0.046871635999999994,-30.18,-51.9,-42.6
1554887714815,6.378153299999999,-6.962936999999999,1.857302,0.1470065,-0.26631612,0.040480047000000005,-30.3,-52.2,-42.66
1554887714835,6.4164605,-7.1209545,1.8189948,0.12463594,-0.27590349999999997,0.036218993,-30.36,-52.2,-42.66
1554887714855,6.272808599999999,-7.044339999999999,1.8860323,0.12996227,-0.28336033,0.027696876000000002,-30.42,-51.66,-42.66
1554887714875,6.315904,-7.0826473,1.9865887999999998,0.12996227,-0.28549087,0.034088463,-30.42,-51.24,-42.6
1554887714896,6.325481,-7.154473299999999,2.1637597,0.12357068,-0.28442562,0.03834952,-30.48,-50.82,-42.54
1554887714915,6.320692500000001,-7.1927805,1.8333599999999999,0.14487597,-0.27803403,0.04261058,-30.54,-50.46,-42.42
1554887714935,6.3063273,-7.2262993,1.8956091,0.18642128,-0.26844665,0.046871635999999994,-30.6,-50.1,-42.36
1554887714955,6.325481,-7.044339999999999,1.7854759999999998,0.23009712,-0.27164245,0.053263225,-30.66,-49.92,-42.3
1554887714975,6.4020953,-7.1305312999999995,1.8620903000000002,0.24607609,-0.27590349999999997,0.06498113,-30.78,-49.8,-42.18
1554887714995,6.4643445,-7.020397999999999,1.8142063999999998,0.23009712,-0.27377295,0.06924219,-30.96,-49.74,-42.12
1554887715016,6.4020953,-7.0970125,1.6657659,0.21092236,-0.26738137,0.068176925,-31.08,-49.98,-42.06
1554887715035,6.3829417,-7.0634937,1.8333599999999999,0.20026971,-0.26738137,0.068176925,-31.2,-50.16,-42.0
1554887715055,6.4164605,-7.1305312999999995,1.6130934,0.18961707,-0.26418558,0.07350325,-31.32,-50.28,-41.94
1554887715075,6.4499793,-7.0395517000000005,1.8237831999999998,0.17257284,-0.25246766,0.07350325,-31.44,-50.22,-41.94
1554887715095,6.4404025,-7.2215110000000005,1.8668787,0.165116,-0.22903186,0.07137272,-31.56,-50.16,-41.82
1554887715115,6.4020953,-7.1688385,1.8237831999999998,0.17257284,-0.20026971,0.06604639400000001,-31.62,-49.92,-41.7
1554887715136,6.2967505,-7.1448965,1.8620903000000002,0.18322548,-0.17576863,0.056459017,-31.68,-49.74,-41.64
1554887715155,6.2823853,-7.1305312999999995,1.7758990000000001,0.18216023,-0.16298546,0.051132694000000006,-31.74,-49.56,-41.52
1554887715175,6.3925184999999995,-7.1592617,1.7663223000000001,0.16085494,-0.15126756,0.04580637,-31.8,-49.62,-41.46
1554887715195,6.3829417,-7.317278999999999,1.8429368000000002,0.13209279,-0.14913702,0.040480047000000005,-31.86,-50.04,-41.4
1554887715215,6.349423000000001,-7.269394999999999,1.881244,0.12570119999999999,-0.13848437,0.029827405,-31.98,-50.46,-41.28
1554887715235,6.301539,-7.173627000000001,1.8333599999999999,0.15020229,-0.15446335,0.013848438000000001,-32.1,-51.0,-41.28
1554887715256,6.272808599999999,-7.331644,1.8860323,0.18109496,-0.17150758,0.0031957934000000003,-32.28,-51.54,-41.28
1554887715275,6.2823853,-7.2741833,1.9482816000000003,0.20985709,-0.18642128,-0.010652645,-32.4,-52.02,-41.34
1554887715295,6.2105594,-7.269394999999999,1.8285716,0.24927188,-0.2034655,-0.020240024,-32.52,-52.5,-41.34
1554887715315,6.244078,-7.173627000000001,1.7950528000000001,0.26418558,-0.21198763,-0.013848438000000001,-32.64,-52.92,-41.34
1554887715335,6.191406,-7.2454529999999995,1.7663223000000001,0.24607609,-0.22796659,-0.0063915867,-32.82,-53.1,-41.34
1554887715355,6.301539,-7.2023573,1.6849195,0.22903186,-0.24394555,0.0031957934000000003,-33.0,-53.1,-41.34
1554887715376,6.301539,-7.0491285,1.9003976999999999,0.23755397,-0.23861924,0.00958738,-33.18,-53.1,-41.34
1554887715395,6.354211299999999,-6.9198413,1.7615339,0.22583607,-0.23009712,0.01917476,-33.24,-52.98,-41.28
1554887715415,6.26802,-7.0730705,1.7806876,0.19707392,-0.22264028,0.025566347000000003,-33.36,-52.86,-41.16
1554887715435,6.4020953,-7.092224000000001,1.6418238,0.18535602,-0.20772657,0.040480047000000005,-33.42,-52.74,-41.04
1554887715455,6.4068837,-7.1305312999999995,1.6609775000000002,0.18216023,-0.19600865,0.051132694000000006,-33.48,-52.68,-40.86
1554887715475,6.4739213,-7.1448965,1.6801311,0.16724652,-0.17150758,0.05752428,-33.6,-52.56,-40.74
1554887715496,6.4643445,-7.2215110000000005,1.7136499,0.15765914,-0.1438107,0.056459017,-33.6,-52.44,-40.62
1554887715515,6.483498,-7.154473299999999,1.6226702,0.165116,-0.10759171,0.06498113,-33.6,-52.38,-40.44
1554887715535,6.50744,-7.1113777,1.6370354,0.18002969,-0.06391586,0.07030745599999999,-33.66,-52.5,-40.32
1554887715555,6.4499793,-7.092224000000001,1.5891514,0.16724652,-0.02876214,0.06711166,-33.72,-52.74,-40.2
1554887715575,6.430825700000001,-6.905475999999999,1.5269021,0.12037488,-0.002130529,0.06711166,-33.84,-52.98,-40.2
1554887715596,6.483498,-6.986878999999999,1.6178818000000001,0.041545313,0.027696876000000002,0.058589544,-33.96,-53.28,-40.2
1554887715615,6.430825700000001,-7.0395517000000005,1.7184383,-0.036218993,0.05006743,0.046871635999999994,-34.08,-53.64,-40.2
1554887715635,6.3925184999999995,-7.1927805,1.8142063999999998,-0.07669904,0.056459017,0.02876214,-34.2,-53.94,-40.2
1554887715655,6.3111157,-7.307702000000001,1.9865887999999998,-0.08628642,0.05006743,0.014913702,-34.32,-54.24,-40.2
1554887715675,6.378153299999999,-7.283760000000001,2.0296845,-0.08628642,0.04261058,0.002130529,-34.44,-54.48,-40.14
1554887715695,6.459556,-7.3938932,1.9818004,-0.06924219,0.014913702,-0.029827405,-34.62,-54.6,-40.14
1554887715716,6.4212489999999995,-7.4609309999999995,2.1829132999999996,-0.03834952,-0.002130529,-0.05219796,-34.62,-54.54,-40.08
1554887715735,6.4547677000000006,-7.441777,2.0632033,-0.00958738,-0.013848438000000001,-0.068176925,-34.62,-54.54,-40.02
1554887715755,6.2823853,-7.2885485,1.9722236000000002,0.03089267,-0.04261058,-0.098004326,-34.68,-54.36,-39.96
1554887715775,6.2871737,-7.231087700000001,2.0153193,0.054328485999999995,-0.06924219,-0.111852765,-34.68,-54.3,-39.9
1554887715795,6.3063273,-7.1592617,1.9626468000000001,0.05539375,-0.082025364,-0.12250541,-34.68,-54.18,-39.9
1554887715815,6.047753299999999,-7.020397999999999,2.178125,0.053263225,-0.08522116,-0.12570119999999999,-34.68,-54.12,-39.84
1554887715835,6.172251999999999,-6.929417999999999,2.0632033,0.05539375,-0.10439592,-0.11611383,-34.68,-54.06,-39.84
1554887715855,6.2967505,-6.977302000000001,1.9243397,0.027696876000000002,-0.098004326,-0.096939065,-34.68,-54.0,-39.84
1554887715875,6.253655,-7.044339999999999,1.9913772,-0.015978966,-0.09267801,-0.08522116,-34.68,-53.94,-39.9
1554887715895,6.3111157,-7.0347633,1.9674352,-0.029827405,-0.082025364,-0.060720075,-34.68,-53.94,-39.9
1554887715915,6.277597,-7.116166000000001,1.6849195,-0.017044231,-0.07882957,-0.05006743,-34.68,-53.94,-39.9
1554887715935,6.320692500000001,-7.0012445,1.7567455,-0.011717908999999999,-0.07456851,-0.040480047000000005,-34.68,-53.94,-39.96
1554887715955,6.38773,-6.9437833,1.8956091,-0.0063915867,-0.06285059999999999,-0.040480047000000005,-34.68,-53.88,-39.96
1554887715975,6.4260373,-6.9102645,1.7950528000000001,-0.018109497,-0.054328485999999995,-0.03195793,-34.68,-53.82,-39.96
1554887715995,6.354211299999999,-7.020397999999999,1.9482816000000003,-0.04261058,-0.04474111,-0.03089267,-34.68,-53.82,-40.02
1554887716015,6.3685765,-7.1448965,1.9147629000000002,-0.07243799,-0.034088463,-0.03195793,-34.62,-53.76,-40.02
1554887716035,6.378153299999999,-7.1113777,2.0296845,-0.06711166,-0.01917476,-0.02130529,-34.62,-53.7,-40.02
1554887716056,6.339846,-7.1353197,1.857302,-0.047936900000000005,-0.013848438000000001,-0.018109497,-34.56,-53.64,-40.02
1554887716075,6.3685765,-7.1592617,2.0153193,-0.04261058,-0.00958738,-0.00958738,-34.5,-53.64,-40.02
1554887716095,6.315904,-7.1209545,1.8620903000000002,-0.025566347000000003,-0.015978966,-0.0053263223,-34.44,-53.58,-40.02
1554887716115,6.2584434,-7.1065892999999996,1.9195513,-0.015978966,-0.013848438000000001,0.0010652645,-34.32,-53.52,-40.08
1554887716135,6.220136,-7.16405,1.7040731,-0.022370555,-0.01917476,0.011717908999999999,-34.2,-53.46,-40.08
1554887716156,6.2249246,-7.2023573,2.0201077,-0.02876214,-0.027696876000000002,0.01917476,-34.08,-53.34,-40.14
1554887716175,6.2392898,-7.2215110000000005,1.8860323,-0.034088463,-0.04474111,0.027696876000000002,-34.02,-53.1,-40.14
1554887716195,6.1866174,-7.2646065,1.8764555,-0.008522116,-0.06924219,0.035153727999999995,-33.96,-52.92,-40.2
1554887716215,6.373365,-7.317278999999999,1.7663223000000001,0.025566347000000003,-0.08841695,0.036218993,-33.9,-52.68,-40.14
1554887716235,6.354211299999999,-7.2741833,1.632247,0.022370555,-0.094808534,0.03089267,-33.84,-52.5,-40.14
1554887716256,6.354211299999999,-7.259817999999999,1.7375918999999997,-0.0031957934000000003,-0.11504856,0.026631612000000002,-33.78,-52.32,-40.08
1554887716275,6.315904,-7.2406645,1.6849195,-0.0053263223,-0.12463594,0.013848438000000001,-33.78,-52.14,-40.08
1554887716295,6.325481,-7.2071457,1.7232267,-0.0010652645,-0.13209279,0.0053263223,-33.84,-52.08,-40.02
1554887716315,6.2823853,-7.0395517000000005,1.8046296000000002,-0.010652645,-0.13528858,-0.007456851,-33.96,-52.02,-39.96
1554887716336,6.3685765,-7.1975690000000005,1.6944963,-0.036218993,-0.13528858,-0.01917476,-34.08,-52.08,-39.9
1554887716355,6.3685765,-7.2023573,1.8285716,-0.043675844000000005,-0.12996227,-0.024501082,-34.2,-52.14,-39.9
1554887716375,6.325481,-7.331644,1.7567455,-0.024501082,-0.12783173,-0.033023197000000004,-34.32,-52.2,-39.84
1554887716395,6.349423000000001,-7.4034699999999996,1.7567455,-0.00958738,-0.12144015,-0.047936900000000005,-34.44,-52.26,-39.84
1554887716416,6.3925184999999995,-7.4274119999999995,1.7232267,0.0053263223,-0.112918034,-0.053263225,-34.56,-52.32,-39.84
1554887716435,6.272808599999999,-7.355586,1.7375918999999997,0.023435817999999997,-0.099069595,-0.04474111,-34.68,-52.32,-39.78
1554887716455,6.2009826,-7.436989,1.7615339,0.039414786,-0.096939065,-0.035153727999999995,-34.74,-52.38,-39.78
1554887716475,6.2105594,-7.2981253,1.7854759999999998,0.06178534,-0.096939065,-0.026631612000000002,-34.74,-52.44,-39.78
1554887716495,6.2345014,-7.2981253,1.6657659,0.07350325,-0.11504856,-0.017044231,-34.8,-52.5,-39.72
1554887716516,6.143522,-7.16405,1.4502877,0.07989483,-0.13528858,-0.01917476,-34.8,-52.5,-39.72
1554887716535,6.3302693,-7.0970125,1.3784616000000003,0.094808534,-0.16618125,-0.015978966,-34.86,-52.56,-39.72
1554887716555,6.4068837,-7.0587053,1.3880384,0.07776430000000001,-0.19281286,-0.024501082,-34.92,-52.62,-39.72
1554887716575,6.4020953,-7.3029137,1.3545196000000002,0.026631612000000002,-0.2066613,-0.027696876000000002,-34.98,-52.62,-39.48
1554887716595,6.325481,-7.389105000000001,1.4311341,0.002130529,-0.19600865,-0.027696876000000002,-35.04,-52.68,-39.36
1554887716615,6.354211299999999,-7.413047,1.5556326,0.004261058,-0.18535602,-0.018109497,-35.1,-52.68,-39.3
1554887716635,6.5265937,-7.6572556,1.5556326,0.023435817999999997,-0.16298546,-0.0053263223,-35.1,-52.68,-39.18
1554887716655,6.4404025,-7.5375457,1.3976152,0.07137272,-0.12570119999999999,0.00958738,-35.16,-52.68,-39.06
1554887716675,6.4739213,-7.269394999999999,1.4742297,0.128897,-0.08841695,0.022370555,-35.22,-52.74,-38.88
1554887716695,6.397307,-7.0491285,1.3305776000000002,0.1470065,-0.06285059999999999,0.027696876000000002,-35.28,-52.8,-38.76
1554887716715,6.5361705,-6.9677253,1.2779051000000001,0.12144015,-0.05219796,0.027696876000000002,-35.34,-52.8,-38.64
1554887716735,6.4787097000000005,-6.905475999999999,1.2491747,0.080960095,-0.04580637,0.027696876000000002,-35.34,-52.86,-38.64
1554887716755,6.6415157,-7.1592617,1.2348095,0.040480047000000005,-0.039414786,0.02130529,-35.34,-52.8,-38.64
1554887716775,6.655881,-7.0251865,1.110311,0.018109497,-0.037284255,0.010652645,-35.34,-52.62,-38.64
1554887716795,6.6941880000000005,-7.149685000000001,1.0959458,0.012783173500000002,-0.035153727999999995,-0.004261058,-35.28,-52.38,-38.58
1554887716815,6.617573299999999,-7.1592617,1.0432734000000001,0.008522116,-0.04261058,-0.015978966,-35.22,-52.2,-38.58
1554887716835,6.564901,-7.0347633,1.2060791000000002,0.0053263223,-0.05965481,-0.02876214,-35.16,-52.02,-38.58
1554887716856,6.631939,-7.1065892999999996,1.0480618,0.0010652645,-0.060720075,-0.039414786,-35.04,-51.78,-38.52
1554887716875,6.631939,-7.0874357,1.3018471999999999,0.004261058,-0.053263225,-0.051132694000000006,-34.98,-51.6,-38.52
1554887716895,6.627150500000001,-7.0634937,1.2012907,0.010652645,-0.033023197000000004,-0.051132694000000006,-34.92,-51.36,-38.52
1554887716915,6.5744777,-7.0730705,1.3784616000000003,0.014913702,-0.0010652645,-0.05219796,-34.86,-51.18,-38.52
1554887716935,6.5026517,-7.0012445,1.2779051000000001,0.00958738,0.035153727999999995,-0.04474111,-34.8,-51.18,-38.46
1554887716955,6.5218053,-7.020397999999999,1.3688848,-0.002130529,0.05752428,-0.036218993,-34.8,-51.3,-38.46
1554887716976,6.655881,-6.9581485,1.2779051000000001,-0.035153727999999995,0.07669904,-0.034088463,-34.8,-51.3,-38.46
1554887716995,6.756437299999999,-7.053917,1.3162124,-0.06391586,0.094808534,-0.034088463,-34.86,-51.36,-38.46
1554887717015,6.6893997,-7.173627000000001,1.1725603,-0.06711166,0.113983296,-0.040480047000000005,-34.86,-51.42,-38.46
1554887717035,6.6415157,-7.029975,1.3736732,-0.051132694000000006,0.12463594,-0.047936900000000005,-34.86,-51.54,-38.46
1554887717055,6.6510925,-7.044339999999999,1.4646529,-0.043675844000000005,0.12676647,-0.058589544,-34.92,-51.78,-38.46
1554887717075,6.703765,-6.9342065,1.3449427999999999,-0.053263225,0.13209279,-0.07030745599999999,-34.92,-52.08,-38.46
1554887717095,6.5840545,-6.986878999999999,1.3449427999999999,-0.07350325,0.13422333,-0.083090626,-34.98,-52.5,-38.46
1554887717115,6.617573299999999,-7.0491285,1.5029601000000001,-0.09161274,0.14594123,-0.082025364,-35.04,-52.8,-38.52
1554887717135,6.603208,-7.020397999999999,1.4024036,-0.10013486,0.15659387,-0.08735169,-35.04,-53.1,-38.58
1554887717156,6.6415157,-6.9485717000000005,1.4790181,-0.101200126,0.17363810000000002,-0.09374327,-35.1,-53.34,-38.64
1554887717175,6.7516490000000005,-7.0251865,1.3305776000000002,-0.10865697,0.18748654,-0.096939065,-35.1,-53.64,-38.64
1554887717195,6.766014,-6.905475999999999,1.2587515,-0.13209279,0.22583607,-0.10439592,-35.16,-53.88,-38.7
1554887717215,6.617573299999999,-7.0012445,1.3066356000000001,-0.16405073,0.26312032,-0.12250541,-35.22,-54.0,-38.76
1554887717235,6.603208,-7.0874357,1.5556326,-0.18642128,0.30253512,-0.13209279,-35.22,-54.06,-38.82
1554887717255,6.4260373,-7.2502413,1.6705543,-0.22690132,0.33981937,-0.13528858,-35.22,-54.06,-38.88
1554887717276,6.1100025,-7.3364325,1.8716671000000003,-0.22477080000000002,0.37816888,-0.11824436,-35.16,-54.0,-38.94
1554887717295,5.932832,-7.3268557,2.1110873,-0.18109496,0.39627838,-0.07776430000000001,-35.1,-53.88,-39.06
1554887717315,5.90889,-7.269394999999999,2.2643162999999995,-0.14807177,0.38775626,-0.04261058,-34.98,-53.76,-39.12
1554887717335,5.865794,-7.1688385,2.2260091,-0.12037488,0.37390783,-0.002130529,-34.86,-53.64,-39.18
1554887717355,6.042965000000001,-7.2262993,2.2260091,-0.10439592,0.34940675,0.026631612000000002,-34.74,-53.58,-39.3
1554887717376,6.3446345,-7.2646065,1.9195513,-0.06285059999999999,0.31851408,0.043675844000000005,-34.56,-53.4,-39.36
1554887717395,6.354211299999999,-7.1209545,1.8285716,-0.00958738,0.28016454,0.041545313,-34.44,-53.28,-39.48
1554887717415,6.3589997,-6.9820905,1.6944963,0.0031957934000000003,0.23542345,0.023435817999999997,-34.32,-53.04,-39.66
1554887717435,6.3829417,-6.9725137,1.5556326,-0.025566347000000003,0.16937704,-0.0053263223,-34.14,-52.74,-39.84
1554887717455,6.3350577,-7.0826473,1.4790181,-0.056459017,0.12037488,-0.025566347000000003,-34.08,-52.56,-39.96
1554887717475,6.291962,-7.149685000000001,1.4742297,-0.08628642,0.07882957,-0.046871635999999994,-33.96,-52.38,-40.08
1554887717495,6.291962,-7.16405,1.7328035,-0.12357068,0.068176925,-0.06285059999999999,-33.84,-52.14,-40.26
1554887717515,6.3302693,-7.255029700000001,1.7854759999999998,-0.15233281,0.09374327,-0.068176925,-33.78,-51.9,-40.38
1554887717535,6.3063273,-7.3364325,1.929128,-0.12676647,0.14274544,-0.068176925,-33.66,-51.72,-40.5
1554887717555,6.3925184999999995,-7.1209545,1.9722236000000002,-0.03089267,0.19281286,-0.06924219,-33.54,-51.48,-40.5
1554887717575,6.3350577,-6.9820905,1.9003976999999999,0.046871635999999994,0.25140239999999997,-0.068176925,-33.48,-51.3,-40.56
1554887717596,6.1530986,-6.9150529999999995,1.9626468000000001,0.051132694000000006,0.30679616,-0.08735169,-33.36,-51.18,-40.62
1554887717615,6.2153480000000005,-6.8623804999999996,1.977012,0.039414786,0.34408042,-0.10333065,-33.36,-51.06,-40.68
1554887717635,6.220136,-6.9198413,2.2307975,0.041545313,0.3653857,-0.112918034,-33.3,-50.94,-40.74
1554887717655,6.277597,-7.0874357,2.307412,0.029827405,0.3717773,-0.10972224,-33.18,-50.88,-40.86
1554887717676,6.320692500000001,-7.015609700000001,2.3505075,0.002130529,0.37816888,-0.10226539,-33.12,-50.82,-40.92
1554887717695,6.4212489999999995,-7.1353197,2.5037365,-0.013848438000000001,0.3568636,-0.09054748,-32.94,-50.76,-41.04
1554887717715,6.588842999999999,-7.2215110000000005,2.6809072,-0.037284255,0.34194988,-0.06604639400000001,-32.76,-50.7,-41.22
1554887717735,6.50744,-7.2215110000000005,2.5372553,-0.01917476,0.34408042,-0.03834952,-32.58,-50.76,-41.46
1554887717755,6.5840545,-7.2023573,2.6378117000000003,0.018109497,0.3323625,-0.020240024,-32.4,-50.76,-41.7
1554887717775,6.3925184999999995,-7.015609700000001,2.4702177000000005,0.03834952,0.33449304,-0.00958738,-32.22,-50.7,-42.0
1554887717796,6.3063273,-6.9485717000000005,2.4941597,0.00958738,0.314253,0.004261058,-32.1,-50.58,-42.24
1554887717815,6.26802,-6.8288617,2.331354,-0.03834952,0.29507825,0.011717908999999999,-31.92,-50.4,-42.48
1554887717835,6.2345014,-6.819285000000001,2.2691047,-0.128897,0.25033715,0.01917476,-31.8,-50.16,-42.66
1554887717855,6.0333879999999995,-6.9198413,2.5372553,-0.16618125,0.20985709,0.017044231,-31.68,-49.98,-42.84
1554887717875,6.0908489999999995,-6.938994999999999,2.4319102999999997,-0.16724652,0.15978967,0.00958738,-31.62,-49.74,-42.96
1554887717896,6.0716953,-7.0347633,2.3888147,-0.15446335,0.11717909,-0.0053263223,-31.5,-49.62,-43.02
1554887717915,6.1530986,-7.006033,2.5133132999999996,-0.13954964,0.07350325,-0.026631612000000002,-31.38,-49.44,-43.02
1554887717935,6.1195793,-6.962936999999999,2.3361422999999997,-0.111852765,0.040480047000000005,-0.049002163,-31.32,-49.38,-43.02
1554887717955,6.066907,-6.9150529999999995,2.355296,-0.080960095,0.004261058,-0.07456851,-31.26,-49.38,-43.02
1554887717975,6.009446,-6.9725137,2.40318,-0.05752428,-0.03089267,-0.096939065,-31.2,-49.56,-42.96
1554887717995,6.1100025,-7.044339999999999,2.4271219,-0.07563378,-0.06604639400000001,-0.111852765,-31.14,-49.74,-42.96
1554887718016,6.2871737,-7.0634937,2.3361422999999997,-0.10439592,-0.084155895,-0.11824436,-31.08,-49.86,-42.96
1554887718035,6.349423000000001,-7.211933999999999,2.475006,-0.098004326,-0.07989483,-0.12250541,-31.08,-49.86,-42.96
1554887718055,6.430825700000001,-7.2741833,2.3983915000000002,-0.06285059999999999,-0.060720075,-0.12783173,-31.08,-49.8,-42.96
1554887718075,6.497863300000001,-7.3124905,2.6090812999999997,-0.017044231,-0.03089267,-0.12463594,-31.08,-49.8,-42.9
1554887718095,6.7133417,-7.2262993,2.6090812999999997,0.026631612000000002,0.011717908999999999,-0.12357068,-31.08,-49.8,-42.9
1554887718115,6.6989765,-7.1209545,2.5851393,0.05965481,0.051132694000000006,-0.128897,-31.08,-49.8,-42.9
1554887718136,6.655881,-7.1065892999999996,2.5133132999999996,0.084155895,0.09267801,-0.12783173,-31.08,-50.1,-42.84
1554887718155,6.4499793,-7.1305312999999995,2.4079683,0.09054748,0.15233281,-0.13209279,-31.08,-50.58,-42.84
1554887718175,6.2105594,-7.0826473,2.4223334999999997,0.082025364,0.18748654,-0.13102753,-31.08,-51.06,-42.84
1554887718196,6.2153480000000005,-6.9677253,2.5468319999999998,0.05539375,0.19707392,-0.112918034,-31.08,-51.6,-42.9
1554887718215,6.1770406,-6.9150529999999995,2.7096379,0.03089267,0.20559604,-0.09161274,-31.08,-52.2,-42.9
1554887718235,6.167464,-6.7426705,2.8532897999999998,-0.0053263223,0.20240025,-0.084155895,-31.08,-52.68,-42.9
1554887718256,6.277597,-6.824073299999999,2.9969419999999998,-0.035153727999999995,0.19600865,-0.07563378,-31.08,-53.22,-42.96
1554887718275,6.1578870000000006,-6.83365,2.8868085999999997,-0.047936900000000005,0.18535602,-0.06711166,-31.08,-53.28,-42.96
1554887718295,6.1578870000000006,-7.0874357,2.8341362,-0.03834952,0.13848437,-0.05965481,-31.14,-53.16,-43.02
1554887718315,6.196194,-7.149685000000001,2.6282349,-0.012783173500000002,0.08735169,-0.05006743,-31.14,-52.98,-43.08
1554887718335,6.1530986,-7.1353197,2.7240029999999997,0.027696876000000002,0.02876214,-0.054328485999999995,-31.08,-52.8,-43.08
1554887718355,6.133945,-6.819285000000001,2.7240029999999997,0.07776430000000001,-0.01917476,-0.06498113,-31.08,-52.62,-43.08
1554887718375,6.196194,-6.8719573,2.5755625,0.10652645,-0.06178534,-0.07137272,-31.02,-52.44,-43.08
1554887718395,6.191406,-6.8575919999999995,2.6090812999999997,0.08841695,-0.09587380000000001,-0.07669904,-31.02,-52.5,-43.02
1554887718415,6.2009826,-6.9437833,2.5037365,0.07882957,-0.10972224,-0.07456851,-30.9,-52.44,-42.96
1554887718435,6.253655,-6.962936999999999,2.5420437000000002,0.080960095,-0.11824436,-0.060720075,-30.84,-52.38,-42.96
1554887718455,6.2153480000000005,-6.962936999999999,2.4941597,0.08841695,-0.10652645,-0.049002163,-30.78,-52.32,-42.9
1554887718475,6.2345014,-6.8288617,2.1015105,0.10333065,-0.07563378,-0.023435817999999997,-30.72,-52.26,-42.96
1554887718496,6.2823853,-6.7043633,2.3840263,0.08522116,-0.05219796,-0.018109497,-30.66,-52.2,-43.02
1554887718515,6.2345014,-6.747458999999999,2.4510639,0.02130529,-0.041545313,-0.01917476,-30.6,-52.14,-43.02
1554887718535,6.3302693,-6.8671690000000005,2.6090812999999997,-0.033023197000000004,-0.043675844000000005,-0.015978966,-30.6,-52.08,-43.08
1554887718555,6.38773,-7.053917,2.5803509,-0.039414786,-0.043675844000000005,-0.022370555,-30.54,-52.02,-43.14
1554887718575,6.191406,-7.116166000000001,2.7862522999999997,0.004261058,-0.04580637,-0.018109497,-30.54,-52.02,-43.2
1554887718595,6.1100025,-7.077858999999999,2.498948,0.09054748,-0.060720075,-0.013848438000000001,-30.6,-52.08,-43.2
1554887718615,6.253655,-6.9150529999999995,2.3409307,0.17044231,-0.08628642,-0.010652645,-30.6,-52.08,-43.2
1554887718635,6.2249246,-6.761824000000001,2.2643162999999995,0.21837921,-0.09374327,-0.007456851,-30.6,-52.14,-43.14
1554887718655,6.325481,-6.589442,2.0248961,0.20453078,-0.10226539,-0.00958738,-30.66,-52.2,-43.14
1554887718676,6.2871737,-6.517616,2.1637597,0.15978967,-0.10546118,-0.0063915867,-30.72,-52.2,-43.08
1554887718695,6.3925184999999995,-6.469731299999999,2.0009542000000002,0.09374327,-0.111852765,-0.008522116,-30.78,-52.2,-43.02
1554887718715,6.4260373,-6.531981,1.9147629000000002,0.022370555,-0.099069595,-0.017044231,-30.84,-52.02,-43.02
1554887718735,6.4787097000000005,-6.6612678,2.1206641,-0.039414786,-0.082025364,-0.01917476,-30.84,-51.9,-43.02
1554887718755,6.50744,-6.83365,2.355296,-0.07456851,-0.06178534,-0.023435817999999997,-30.84,-51.72,-43.08
1554887718775,6.497863300000001,-6.843227000000001,2.6378117000000003,-0.06924219,-0.023435817999999997,-0.02876214,-30.78,-51.48,-43.14
1554887718796,6.435614,-7.0491285,2.7240029999999997,-0.04261058,0.020240024,-0.03089267,-30.78,-51.24,-43.14
1554887718815,6.3685765,-6.9246297000000006,2.4079683,-0.013848438000000001,0.058589544,-0.02130529,-30.78,-51.0,-43.14
1554887718836,6.3350577,-6.9725137,2.475006,-0.007456851,0.08628642,-0.01917476,-30.72,-50.82,-43.2
1554887718856,6.3589997,-6.8623804999999996,2.5899277,-0.027696876000000002,0.08735169,-0.027696876000000002,-30.72,-50.76,-43.2
1554887718875,6.430825700000001,-6.8719573,2.5851393,-0.053263225,0.08628642,-0.027696876000000002,-30.72,-50.88,-43.14
1554887718895,6.411672,-7.015609700000001,2.6856956000000003,-0.07456851,0.07563378,-0.03089267,-30.78,-51.0,-43.14
1554887718915,6.531382,-7.0491285,2.8006175,-0.06178534,0.053263225,-0.034088463,-30.84,-51.24,-43.08
1554887718935,6.4260373,-7.0970125,2.7287915000000003,-0.007456851,0.04261058,-0.029827405,-30.9,-51.48,-43.08
1554887718955,6.4643445,-7.044339999999999,2.7575218999999995,0.051132694000000006,0.03195793,-0.03089267,-30.96,-51.72,-43.08
1554887718976,6.397307,-7.020397999999999,2.6042929,0.09161274,0.040480047000000005,-0.015978966,-30.96,-51.96,-43.02
1554887718995,6.315904,-6.8144965,2.7096379,0.113983296,0.05006743,-0.004261058,-31.02,-52.2,-43.02
1554887719015,6.378153299999999,-6.7666125,2.3936029999999997,0.112918034,0.051132694000000006,-0.0010652645,-31.08,-52.32,-43.02
1554887719035,6.4739213,-6.603807000000001,2.2930467,0.08628642,0.05965481,-0.008522116,-31.08,-52.38,-43.02
1554887719055,6.531382,-6.589442,2.2547395,0.053263225,0.06924219,-0.025566347000000003,-31.02,-52.44,-43.02
1554887719075,6.564901,-6.5942300000000005,2.3840263,0.0010652645,0.07669904,-0.049002163,-31.02,-52.5,-42.96
1554887719096,6.5122285,-6.6085954,2.5228900000000003,-0.09587380000000001,0.09587380000000001,-0.07243799,-31.02,-52.5,-42.96
1554887719115,6.4212489999999995,-6.785766000000001,2.6042929,-0.12996227,0.10439592,-0.08522116,-31.02,-52.5,-42.96
1554887719135,6.4212489999999995,-7.092224000000001,2.8580782000000005,-0.13209279,0.10865697,-0.094808534,-30.96,-52.5,-42.9
1554887719155,6.4404025,-7.1688385,2.7766755,-0.07456851,0.12463594,-0.09267801,-30.96,-52.5,-42.9
1554887719175,6.3589997,-7.101800999999999,2.9730000000000003,-0.041545313,0.13954964,-0.09267801,-30.96,-52.5,-42.96
1554887719195,6.1770406,-6.9916677,2.8532897999999998,-0.007456851,0.14594123,-0.08841695,-30.9,-52.5,-43.08
1554887719215,6.220136,-6.9581485,2.9442697,0.013848438000000001,0.14487597,-0.082025364,-30.9,-52.56,-43.2
1554887719235,6.2057709999999995,-6.824073299999999,2.9634232999999996,0.01917476,0.12676647,-0.068176925,-30.84,-52.68,-43.32
1554887719256,6.172251999999999,-6.819285000000001,3.0879216,0.02876214,0.11717909,-0.06285059999999999,-30.84,-52.92,-43.38
1554887719275,6.1770406,-6.7570357,2.9011737999999996,0.041545313,0.10546118,-0.06285059999999999,-30.84,-53.16,-43.44
1554887719295,6.244078,-6.7330937,2.9299042,0.04261058,0.09054748,-0.056459017,-30.78,-53.52,-43.5
1554887719315,6.1578870000000006,-6.6947865,2.8389246,0.035153727999999995,0.082025364,-0.041545313,-30.78,-53.82,-43.62
1554887719335,6.196194,-6.7761892999999995,2.7000610000000003,0.03089267,0.07350325,-0.040480047000000005,-30.78,-54.12,-43.62
1554887719355,6.2105594,-6.5750766,2.8054059,0.026631612000000002,0.068176925,-0.035153727999999995,-30.78,-54.42,-43.62
1554887719376,6.272808599999999,-6.666056,2.9682117000000003,0.02130529,0.06178534,-0.03195793,-30.78,-54.66,-43.62
1554887719395,6.2392898,-6.6612678,2.9538465,0.011717908999999999,0.05965481,-0.029827405,-30.78,-54.9,-43.68
1554887719415,6.2584434,-6.541558,2.9346926,0.004261058,0.056459017,-0.029827405,-30.72,-54.9,-43.68
1554887719435,6.301539,-6.7043633,2.8054059,-0.007456851,0.053263225,-0.022370555,-30.72,-54.9,-43.74
1554887719455,6.301539,-6.7043633,2.8389246,-0.02876214,0.05539375,-0.020240024,-30.72,-54.84,-43.74
1554887719476,6.172251999999999,-6.7043633,3.0544027999999996,-0.039414786,0.058589544,-0.013848438000000001,-30.66,-54.78,-43.8
1554887719495,6.253655,-6.843227000000001,2.9442697,-0.058589544,0.056459017,-0.011717908999999999,-30.6,-54.84,-43.8
1554887719515,6.2823853,-6.848015299999999,3.2124202,-0.06924219,0.053263225,-0.010652645,-30.54,-54.84,-43.86
1554887719535,6.2057709999999995,-7.006033,3.1453824,-0.036218993,0.05539375,-0.0010652645,-30.48,-54.84,-43.86
1554887719556,6.1530986,-7.0012445,3.0544027999999996,0.007456851,0.04580637,0.008522116,-30.42,-54.96,-43.86
1554887719575,6.1483099999999995,-6.9102645,3.0400376000000002,0.03089267,0.02876214,0.017044231,-30.42,-55.02,-43.86
1554887719595,6.167464,-6.785766000000001,2.9394810000000002,0.03089267,0.008522116,0.022370555,-30.36,-55.14,-43.86
1554887719615,6.129156,-7.015609700000001,2.949058,0.018109497,-0.013848438000000001,0.024501082,-30.36,-55.2,-43.86
1554887719635,6.172251999999999,-6.819285000000001,2.819771,0.017044231,-0.035153727999999995,0.02876214,-30.42,-55.26,-43.92
1554887719655,6.339846,-6.9198413,2.7048495,0.041545313,-0.054328485999999995,0.023435817999999997,-30.42,-55.32,-43.86
1554887719676,6.2871737,-6.771400999999999,2.8389246,0.05539375,-0.06178534,0.017044231,-30.42,-55.38,-43.92
1554887719698,6.26802,-6.8575919999999995,2.8054059,0.047936900000000005,-0.09054748,0.011717908999999999,-30.48,-55.44,-43.92
1554887719715,6.2105594,-6.800131299999999,2.7383683,0.037284255,-0.09374327,-0.0010652645,-30.48,-55.38,-43.92
1554887719735,6.1770406,-6.7522473,2.7240029999999997,0.05539375,-0.096939065,-0.015978966,-30.54,-55.38,-43.98
1554887719755,6.2153480000000005,-6.7283053,2.8772318,0.06924219,-0.098004326,-0.025566347000000003,-30.54,-55.38,-43.98
1554887719775,6.229712999999999,-6.737882000000001,2.9299042,0.051132694000000006,-0.096939065,-0.029827405,-30.54,-55.26,-43.98
1554887719795,6.291962,-6.8049197,2.9634232999999996,0.02876214,-0.094808534,-0.024501082,-30.54,-55.02,-43.98
1554887719815,6.1483099999999995,-6.9916677,2.949058,0.035153727999999995,-0.080960095,-0.014913702,-30.54,-54.48,-43.98
1554887719835,6.1770406,-6.9437833,2.9538465,0.07456851,-0.07776430000000001,-0.004261058,-30.48,-53.94,-43.98
1554887719855,6.277597,-6.900687700000001,2.819771,0.08522116,-0.07243799,0.0063915867,-30.42,-53.46,-43.98
1554887719875,6.315904,-6.8049197,2.8580782000000005,0.060720075,-0.06711166,0.012783173500000002,-30.36,-52.98,-43.98
1554887719895,6.2345014,-6.8671690000000005,2.8820202,0.036218993,-0.06498113,0.023435817999999997,-30.36,-52.68,-43.92
1554887719915,6.291962,-6.962936999999999,2.8293478,0.034088463,-0.07137272,0.02130529,-30.3,-52.68,-43.86
1554887719936,6.2345014,-6.83365,2.8341362,0.04580637,-0.08628642,0.018109497,-30.36,-52.74,-43.8
1554887719955,6.2105594,-6.737882000000001,2.9107506,0.051132694000000006,-0.11717909,0.0053263223,-30.48,-52.98,-43.8
1554887719975,6.2823853,-6.6947865,2.9346926,0.04261058,-0.15020229,0.0,-30.54,-53.52,-43.74
1554887719995,6.196194,-6.713939999999999,2.9873652,0.037284255,-0.18748654,-0.012783173500000002,-30.72,-54.3,-43.68
1554887720015,6.2153480000000005,-6.7283053,2.9299042,0.058589544,-0.20559604,-0.014913702,-30.84,-54.66,-43.62
1554887720036,6.1626754,-6.848015299999999,2.9394810000000002,0.06711166,-0.20985709,-0.010652645,-30.96,-55.02,-43.56
1554887720055,6.2392898,-6.8671690000000005,2.556409,0.060720075,-0.19174760000000002,0.0,-31.02,-55.02,-43.56
1554887720075,6.3589997,-6.819285000000001,2.4223334999999997,0.04580637,-0.17257284,0.017044231,-31.08,-54.78,-43.56
1554887720095,6.445191,-6.761824000000001,2.498948,0.015978966,-0.15446335,0.02876214,-31.08,-54.6,-43.56
1554887720115,6.531382,-6.785766000000001,2.441487,-0.03089267,-0.11504856,0.027696876000000002,-31.08,-54.36,-43.56
1554887720135,6.6079965,-6.771400999999999,2.321777,-0.07243799,-0.07669904,0.02130529,-31.08,-54.18,-43.56
1554887720156,6.3685765,-6.737882000000001,2.331354,-0.083090626,-0.04580637,0.0063915867,-31.08,-54.0,-43.56
1554887720175,6.3925184999999995,-6.6085954,2.3936029999999997,-0.12250541,-0.027696876000000002,0.004261058,-31.14,-53.88,-43.56
1554887720195,6.349423000000001,-6.656479400000001,2.484583,-0.22264028,-0.024501082,0.002130529,-31.14,-53.76,-43.56
1554887720215,6.2871737,-6.9725137,2.5133132999999996,-0.32384038,-0.013848438000000001,0.0,-31.14,-53.7,-43.56
1554887720235,6.253655,-7.2741833,2.7670987,-0.33768883,0.007456851,-0.002130529,-31.2,-53.76,-43.5
1554887720255,6.2488665999999995,-7.5136037,2.690484,-0.25992453,0.025566347000000003,-0.004261058,-31.2,-53.88,-43.5
1554887720275,6.4068837,-7.5566993,2.7000610000000003,-0.15020229,0.037284255,-0.002130529,-31.2,-53.94,-43.44
1554887720295,6.3685765,-7.3699512,2.6378117000000003,-0.04580637,0.051132694000000006,0.0,-31.26,-54.0,-43.44
1554887720315,6.2105594,-7.1305312999999995,2.5899277,0.0010652645,0.051132694000000006,0.0053263223,-31.26,-54.06,-43.44
1554887720335,6.2488665999999995,-6.9581485,2.4462755,0.007456851,0.04474111,0.002130529,-31.26,-54.18,-43.44
1554887720355,6.26802,-6.819285000000001,2.379238,-0.014913702,0.02876214,-0.007456851,-31.32,-54.18,-43.38
1554887720375,6.1626754,-6.8863225,2.235586,-0.04261058,0.029827405,-0.00958738,-31.32,-54.18,-43.38
1554887720395,6.2871737,-7.015609700000001,2.345719,-0.05965481,0.029827405,-0.024501082,-31.32,-54.06,-43.38
1554887720415,6.3350577,-6.9485717000000005,2.321777,-0.06285059999999999,0.033023197000000004,-0.03834952,-31.32,-53.7,-43.32
1554887720435,6.315904,-7.077858999999999,2.4319102999999997,-0.06391586,0.049002163,-0.05219796,-31.32,-53.34,-43.2
1554887720455,6.301539,-7.2023573,2.2451627,-0.06285059999999999,0.06711166,-0.05965481,-31.32,-53.04,-43.2
1554887720476,6.2488665999999995,-7.1592617,2.331354,-0.06498113,0.082025364,-0.056459017,-31.26,-52.74,-43.14
1554887720495,6.2249246,-7.0491285,2.3936029999999997,-0.05965481,0.094808534,-0.056459017,-31.2,-52.44,-43.14
1554887720515,6.167464,-7.006033,2.2307975,-0.053263225,0.113983296,-0.05219796,-31.2,-52.2,-43.14
1554887720535,6.2105594,-6.938994999999999,2.475006,-0.068176925,0.12250541,-0.04474111,-31.2,-51.96,-43.14
1554887720555,6.2105594,-6.929417999999999,2.3026235,-0.084155895,0.128897,-0.04474111,-31.14,-51.84,-43.14
1554887720575,6.1578870000000006,-7.0251865,2.570774,-0.099069595,0.12996227,-0.04580637,-31.14,-52.08,-43.2
1554887720596,6.1578870000000006,-7.0587053,2.508525,-0.10226539,0.11611383,-0.041545313,-31.14,-52.38,-43.32
1554887720615,5.985504,-7.0012445,2.4223334999999997,-0.101200126,0.094808534,-0.036218993,-31.14,-52.62,-43.32
1554887720635,6.0333879999999995,-7.0874357,2.417545,-0.112918034,0.05006743,-0.036218993,-31.08,-52.92,-43.38
1554887720655,6.1243677000000005,-7.211933999999999,2.6569653,-0.12783173,0.0,-0.029827405,-31.08,-53.16,-43.38
1554887720675,6.009446,-7.3460092999999995,2.7383683,-0.09161274,-0.026631612000000002,-0.033023197000000004,-31.02,-53.46,-43.44
1554887720695,6.114791,-7.255029700000001,2.6856956000000003,-0.01917476,-0.05006743,-0.036218993,-30.96,-53.7,-43.44
1554887720715,6.133945,-7.1688385,2.532467,0.029827405,-0.06498113,-0.035153727999999995,-30.9,-53.82,-43.5
1554887720735,6.129156,-7.1975690000000005,2.5899277,0.04261058,-0.07456851,-0.035153727999999995,-30.84,-53.88,-43.5
1554887720755,6.196194,-7.0874357,2.6856956000000003,0.033023197000000004,-0.05752428,-0.02876214,-30.78,-53.64,-43.56
1554887720776,6.2632318,-7.116166000000001,2.5611973,0.043675844000000005,-0.034088463,-0.026631612000000002,-30.72,-53.34,-43.56
1554887720795,6.2823853,-7.044339999999999,2.379238,0.041545313,0.0031957934000000003,-0.027696876000000002,-30.66,-53.04,-43.56
1554887720815,6.1195793,-7.015609700000001,2.2307975,0.025566347000000003,0.03834952,-0.020240024,-30.66,-52.74,-43.56
1554887720835,6.244078,-7.101800999999999,2.2786815,-0.014913702,0.056459017,-0.007456851,-30.66,-52.5,-43.56
1554887720855,6.3111157,-7.3029137,2.5037365,-0.06498113,0.06711166,0.0,-30.66,-52.14,-43.38
1554887720875,6.291962,-7.283760000000001,2.475006,-0.06285059999999999,0.07137272,0.0010652645,-30.66,-52.02,-43.32
1554887720895,6.1578870000000006,-7.259817999999999,2.379238,-0.020240024,0.06498113,0.007456851,-30.66,-51.72,-43.14
1554887720915,6.009446,-7.1448965,2.168548,0.0010652645,0.041545313,0.00958738,-30.66,-51.78,-43.08
1554887720935,5.942408599999999,-7.436989,2.2882583,0.014913702,-0.018109497,0.029827405,-30.66,-51.84,-42.96
1554887720955,6.26802,-8.370728,2.3983915000000002,0.06391586,-0.17470337,0.017044231,-30.66,-51.96,-42.96
1554887720976,6.435614,-8.638878,2.915539,0.46019423,-0.36645097,0.02130529,-30.66,-52.08,-42.96
1554887720995,6.612785000000001,-8.356361999999999,3.0879216,0.8607336999999999,-0.44101948,0.02130529,-30.66,-52.2,-42.96
1554887721015,6.430825700000001,-7.4992385,2.949058,1.2112056999999998,-0.41864893,-0.018109497,-30.66,-52.32,-43.02
1554887721035,6.4020953,-6.7283053,2.5468319999999998,1.4626081,-0.38136467,0.01917476,-30.78,-52.44,-43.14
1554887721055,6.6079965,-5.880758,2.0344729999999998,1.470065,-0.34940675,0.04474111,-30.9,-52.8,-43.2
1554887721076,6.5026517,-5.277419,2.2786815,1.1334413,-0.30999196,0.056459017,-31.02,-53.16,-43.26
1554887721095,6.2392898,-4.9996915,2.7814639,0.608266,-0.25566345,0.12037488,-31.08,-53.64,-43.32
1554887721115,6.0716953,-5.7658362,3.3752258,0.13422333,-0.18429075,0.15978967,-31.2,-54.0,-43.32
1554887721135,5.923255,-6.5655,3.696049,-0.027696876000000002,-0.049002163,0.11930962,-31.32,-54.36,-43.26
1554887721156,5.707777,-6.996455999999999,3.8157589999999995,0.13209279,0.07776430000000001,0.096939065,-31.44,-54.72,-43.26
1554887721175,5.841851999999999,-6.9677253,3.4231097999999998,0.37390783,0.16831179,0.098004326,-31.5,-55.08,-43.2
1554887721195,5.722142,-6.5990186,3.1118636000000004,0.4079963,0.22370553,0.06498113,-31.56,-55.38,-43.14
1554887721215,6.253655,-6.3787518,3.1262288,0.3206446,0.17896444,0.039414786,-31.56,-55.5,-43.08
1554887721235,6.497863300000001,-6.4266357,2.9921536,0.22583607,0.16405073,0.04580637,-31.56,-55.56,-43.08
1554887721255,6.3925184999999995,-6.4026937,3.3464954,0.04474111,0.14807177,0.04261058,-31.56,-55.62,-43.02
1554887721275,6.1626754,-6.843227000000001,3.447052,-0.10652645,0.10333065,0.011717908999999999,-31.5,-55.56,-43.02
1554887721295,6.129156,-6.9102645,3.5284547999999996,-0.09267801,0.06924219,-0.01917476,-31.5,-55.5,-42.96
1554887721315,5.9567738,-6.905475999999999,3.5140896,-0.02876214,0.023435817999999997,-0.049002163,-31.44,-55.44,-42.96
1554887721336,5.961562000000001,-6.761824000000001,3.5093012000000003,0.010652645,-0.0031957934000000003,-0.07669904,-31.38,-55.38,-42.96
1554887721355,5.9184665999999995,-6.282984,3.2794578000000003,-0.013848438000000001,-0.025566347000000003,-0.10652645,-31.38,-55.32,-43.02
1554887721375,6.105214,-6.096236,3.2507273999999997,-0.07776430000000001,-0.024501082,-0.08628642,-31.32,-55.2,-43.08
1554887721395,6.0860605,-6.3787518,3.2507273999999997,-0.28229508,-0.043675844000000005,-0.09587380000000001,-31.26,-55.14,-43.14
1554887721415,6.100425700000001,-6.488885,3.0735563999999997,-0.46019423,-0.035153727999999995,-0.07137272,-31.2,-55.02,-43.14
1554887721435,6.081272,-6.5846534,2.9969419999999998,-0.515588,-0.043675844000000005,-0.047936900000000005,-31.2,-54.9,-43.2
1554887721456,6.1818290000000005,-7.0251865,3.6242227999999996,-0.45273739999999996,-0.025566347000000003,-0.053263225,-31.08,-54.48,-43.26
1554887721475,6.0764837,-7.1353197,3.3129766000000003,-0.3323625,0.007456851,-0.024501082,-30.96,-54.3,-43.32
1554887721495,5.9998693,-6.929417999999999,3.1741127999999996,-0.25992453,0.011717908999999999,-0.026631612000000002,-30.9,-54.06,-43.38
1554887721515,6.1387334000000005,-6.8049197,3.0496144,-0.26418558,0.012783173500000002,-0.0053263223,-30.78,-53.82,-43.38
1554887721535,6.133945,-7.1353197,3.1118636000000004,-0.26738137,0.025566347000000003,-0.00958738,-30.72,-53.52,-43.38
1554887721555,6.272808599999999,-7.4561424,3.1693244,-0.19174760000000002,0.029827405,0.0010652645,-30.6,-53.16,-43.32
1554887721575,6.0956373,-7.178415299999999,3.1214404,-0.05006743,0.029827405,-0.010652645,-30.48,-52.68,-43.38
1554887721595,6.277597,-7.015609700000001,2.8963853999999998,0.01917476,0.020240024,-0.013848438000000001,-30.36,-52.44,-43.38
1554887721615,6.378153299999999,-7.006033,2.7383683,0.03089267,-0.0053263223,-0.040480047000000005,-30.3,-52.26,-43.38
1554887721635,6.631939,-6.546346,2.9730000000000003,-0.17363810000000002,-0.035153727999999995,0.022370555,-30.24,-52.08,-43.38
1554887721656,6.2823853,-6.747458999999999,3.0974984,-0.094808534,-0.013848438000000001,-0.12357068,-30.18,-51.9,-43.38
1554887721675,6.5122285,-6.8719573,2.484583,-0.084155895,-0.013848438000000001,-0.1470065,-30.06,-51.84,-43.32
1554887721696,6.2153480000000005,-6.8719573,3.1693244,-0.14487597,0.012783173500000002,-0.24501082,-30.0,-51.78,-43.32
1554887721715,5.851429,-6.656479400000001,2.307412,-0.11930962,0.004261058,-0.14594123,-29.94,-51.84,-43.26
1554887721735,6.2345014,-7.0491285,2.8054059,-0.50387007,-0.01917476,0.0,-30.0,-52.14,-43.2
1554887721757,5.966350599999999,-7.3603745,3.221997,-0.48682585,-0.0063915867,-0.023435817999999997,-30.0,-52.2,-43.14
1554887721775,5.803545,-7.743447,3.6816837999999996,-0.09054748,0.05539375,-0.012783173500000002,-30.12,-52.44,-43.08
1554887721795,5.971139,-7.0251865,3.5476084,0.16618125,0.07030745599999999,-0.015978966,-30.24,-52.56,-42.96
1554887721815,5.7987566,-6.962936999999999,3.3129766000000003,0.35792887,0.12463594,0.012783173500000002,-30.3,-52.62,-42.9
1554887721835,5.837064,-6.589442,3.0017304,0.39840892,0.11930962,0.02130529,-30.42,-52.62,-42.9
1554887721855,5.78918,-6.7426705,2.6138697,0.26525086,0.08522116,0.037284255,-30.48,-52.62,-42.84
1554887721876,6.3589997,-6.9725137,3.0879216,0.12463594,0.05219796,0.058589544,-30.42,-52.62,-42.84
1554887721895,6.483498,-6.9725137,3.1405939999999997,0.1107875,0.05965481,0.05752428,-30.42,-52.56,-42.84
1554887721915,6.354211299999999,-6.8097080000000005,2.891597,0.018109497,0.07456851,0.09374327,-30.36,-52.62,-42.9
1554887721935,5.913678,-6.5655,2.4319102999999997,-0.11504856,0.020240024,0.08628642,-30.24,-52.68,-42.96
1554887721956,6.435614,-7.2023573,3.1405939999999997,-0.2972088,-0.054328485999999995,0.03834952,-30.18,-52.86,-43.02
1554887721975,6.229712999999999,-7.1448965,3.1693244,-0.16405073,-0.11930962,-0.07669904,-30.12,-53.04,-43.08
1554887721995,6.1530986,-6.666056,3.6242227999999996,-0.094808534,-0.10865697,-0.07776430000000001,-30.06,-53.4,-43.2
1554887722015,5.674258,-5.9956794,2.9969419999999998,0.014913702,-0.04474111,-0.10333065,-30.06,-53.7,-43.26
1554887722038,5.3390699999999995,-6.120178,2.2068555,-0.28975195,0.029827405,-0.10546118,-30.06,-54.0,-43.32
1554887722055,5.2241483,-6.642114,2.4941597,-0.47617322,0.03834952,-0.08522116,-30.06,-54.24,-43.38
1554887722075,5.482722,-7.422623599999999,2.6665419999999997,-0.5390238,0.029827405,-0.039414786,-30.06,-54.48,-43.44
1554887722095,5.659893,-7.5375457,2.9059622000000003,-0.44421527,0.07456851,-0.008522116,-30.06,-54.6,-43.38
1554887722115,5.765238,-7.379528,2.7096379,-0.27057716,0.098004326,-0.014913702,-30.06,-54.66,-43.32
1554887722135,6.0764837,-6.900687700000001,2.5851393,-0.101200126,0.08735169,-0.040480047000000005,-30.06,-54.66,-43.26
1554887722155,6.05733,-6.4026937,2.460641,-0.06498113,0.082025364,-0.046871635999999994,-30.06,-54.42,-43.26
1554887722175,6.009446,-6.4457892999999995,2.2643162999999995,-0.25353295,0.043675844000000005,-0.046871635999999994,-30.06,-54.12,-43.2
1554887722195,5.951985400000001,-6.637326,2.273893,-0.6402239000000001,-0.022370555,-0.101200126,-30.0,-53.82,-43.14
1554887722240,6.3685765,-7.1353197,2.307412,-1.1313108,-0.08841695,-0.054328485999999995,-30.0,-53.22,-43.08
1554887722240,6.3685765,-7.1353197,2.307412,-1.1313108,-0.08841695,-0.054328485999999995,-30.0,-53.22,-43.08
1554887722256,6.2345014,-7.6189485,2.4510639,-0.9864349,-0.022370555,-0.008522116,-30.0,-53.1,-43.08
1554887722275,5.865794,-8.025963,2.4462755,-0.77231675,-0.010652645,-0.017044231,-30.0,-52.92,-43.08
1554887722295,5.750872599999999,-7.867945,2.2260091,-0.64768076,-0.06391586,-0.01917476,-30.0,-52.8,-43.08
1554887722315,5.947197,-7.5183919999999995,2.4223334999999997,-0.58056915,-0.12463594,0.020240024,-30.0,-52.68,-43.08
1554887722335,6.301539,-7.614160000000001,1.8189948,-0.45273739999999996,-0.113983296,0.05219796,-30.0,-52.68,-43.08
1554887722355,6.277597,-7.858368400000001,1.632247,-0.20985709,-0.007456851,0.04580637,-30.0,-52.62,-43.08
1554887722375,6.0285997,-7.7865424,1.6609775000000002,0.082025364,0.026631612000000002,0.03089267,-30.0,-52.5,-43.02
1554887722395,6.196194,-7.7865424,1.4790181,0.22050974,-0.05006743,0.03195793,-30.0,-52.32,-42.96
1554887722415,6.5505357,-7.662044,1.2683283,0.17789917,-0.07776430000000001,0.039414786,-30.0,-52.14,-42.84
1554887722436,6.50744,-7.887099,1.407192,0.068176925,-0.053263225,0.023435817999999997,-30.0,-51.9,-42.66
1554887722455,6.569689299999999,-7.891887,1.3162124,0.014913702,-0.03195793,-0.008522116,-30.0,-51.72,-42.48
1554887722475,6.301539,-7.719505000000001,1.3640964,0.040480047000000005,0.014913702,-0.022370555,-30.0,-51.54,-42.3
1554887722495,6.1818290000000005,-7.796119,1.4550761,0.11504856,-0.002130529,-0.039414786,-30.0,-51.3,-42.12
1554887722515,6.2871737,-7.5471225,1.5029601000000001,0.14274544,-0.02876214,-0.04474111,-30.0,-51.12,-42.0
1554887722535,6.1626754,-7.3843164,1.6657659,0.18961707,-0.0010652645,-0.05752428,-30.06,-51.0,-41.88
1554887722555,6.0046577,-7.269394999999999,1.7088615000000003,0.21198763,0.017044231,-0.06391586,-30.06,-50.88,-41.82
1554887722576,5.975927400000001,-7.2215110000000005,1.7471686999999998,0.17150758,0.026631612000000002,-0.06604639400000001,-30.12,-50.7,-41.76
1554887722595,5.9041014,-7.1448965,1.8620903000000002,0.12783173,0.036218993,-0.060720075,-30.12,-50.7,-41.76
1554887722615,5.923255,-7.307702000000001,1.8908207,0.053263225,0.060720075,-0.040480047000000005,-30.12,-50.58,-41.82
1554887722635,6.0046577,-7.5758529999999995,1.929128,0.03089267,0.054328485999999995,-0.026631612000000002,-30.18,-50.58,-41.88
1554887722655,6.009446,-7.5758529999999995,2.0248961,0.07882957,0.056459017,-0.017044231,-30.24,-50.64,-41.94
1554887722676,6.1626754,-7.436989,2.0440497,0.15339808,0.06285059999999999,-0.012783173500000002,-30.24,-50.76,-42.0
1554887722695,6.167464,-7.389105000000001,2.1350293,0.2066613,0.08948222,-0.012783173500000002,-30.3,-50.82,-42.06
1554887722715,6.1483099999999995,-7.1975690000000005,1.9626468000000001,0.20879184,0.10652645,-0.014913702,-30.36,-50.88,-42.18
1554887722735,6.0142345,-7.3220673,1.857302,0.18429075,0.11504856,-0.004261058,-30.36,-50.94,-42.24
1554887722755,5.985504,-7.566275999999999,2.0105310000000003,0.128897,0.13422333,0.0,-30.36,-50.88,-42.36
1554887722775,5.913678,-7.685986,1.9387047999999998,0.13848437,0.12783173,0.0063915867,-30.24,-50.82,-42.42
1554887722796,5.975927400000001,-7.623736999999999,2.3169887000000005,0.1768339,0.09161274,0.024501082,-30.12,-50.76,-42.54
1554887722815,5.995081,-7.6668324000000005,2.1733365,0.21092236,0.06178534,0.022370555,-30.06,-50.64,-42.54
1554887722835,5.9998693,-7.6572556,2.2547395,0.26418558,0.040480047000000005,0.018109497,-29.94,-50.52,-42.6
1554887722855,5.951985400000001,-7.527969000000001,2.4702177000000005,0.33662358,0.004261058,0.022370555,-29.82,-50.34,-42.6
1554887722876,6.019023000000001,-7.527969000000001,2.484583,0.36964676,-0.043675844000000005,0.012783173500000002,-29.64,-50.1,-42.6
1554887722895,6.0285997,-7.480085000000001,2.6090812999999997,0.3653857,-0.07776430000000001,0.00958738,-29.46,-49.86,-42.66
1554887722915,5.9184665999999995,-7.269394999999999,2.7575218999999995,0.42397526,-0.08628642,-0.0031957934000000003,-29.28,-49.62,-42.66
1554887722935,6.019023000000001,-7.2789717000000005,2.891597,0.55287224,-0.06924219,-0.01917476,-29.22,-49.44,-42.66
1554887722955,5.875371,-7.1592617,2.7096379,0.6359629,0.0,-0.029827405,-29.16,-49.26,-42.72
1554887722976,5.650316,-6.962936999999999,2.556409,0.63383234,0.07669904,-0.033023197000000004,-29.04,-49.08,-42.72
1554887722995,5.664681400000001,-6.512827400000001,2.331354,0.5550028,0.11824436,-0.022370555,-28.92,-49.08,-42.78
1554887723015,5.568912999999999,-6.172850599999999,2.2451627,0.37816888,0.11611383,-0.007456851,-28.86,-49.14,-42.84
1554887723035,5.861006,-6.1058129999999995,1.9913772,0.099069595,0.09161274,0.0010652645,-28.8,-49.2,-42.84
1554887723055,6.019023000000001,-6.3787518,2.130241,-0.20879184,0.05965481,0.002130529,-28.86,-49.44,-42.96
1554887723076,6.196194,-6.8767457,2.4893713,-0.44741106,0.046871635999999994,-0.0010652645,-28.92,-49.74,-43.02
1554887723095,6.196194,-7.417835,2.6330232999999996,-0.5187838,0.033023197000000004,-0.011717908999999999,-28.98,-50.16,-43.08
1554887723115,5.9807158,-7.820061,2.9634232999999996,-0.42717105,0.022370555,-0.02130529,-29.04,-50.58,-43.14
1554887723136,5.865794,-7.887099,3.0400376000000002,-0.2428803,-0.0053263223,-0.034088463,-29.1,-50.88,-43.2
1554887723155,5.90889,-7.724292999999999,3.0974984,-0.1107875,-0.013848438000000001,-0.035153727999999995,-29.16,-51.06,-43.26
1554887723176,5.889736,-7.441777,2.9538465,0.049002163,-0.026631612000000002,-0.02876214,-29.22,-51.24,-43.32
1554887723195,5.7365074,-7.231087700000001,2.795829,0.10333065,-0.040480047000000005,-0.023435817999999997,-29.22,-51.36,-43.32
1554887723215,5.7700260000000005,-7.0491285,2.7623102999999998,0.07563378,-0.07030745599999999,-0.020240024,-29.22,-51.36,-43.38
1554887723236,5.8274870000000005,-7.154473299999999,2.5995044999999997,0.00958738,-0.09374327,-0.015978966,-29.16,-51.36,-43.38
1554887723255,5.8801594,-7.3603745,2.6090812999999997,-0.01917476,-0.10865697,-0.0053263223,-29.16,-51.3,-43.38
1554887723275,6.0333879999999995,-7.374739599999999,2.6090812999999997,-0.03089267,-0.13315806,-0.0053263223,-29.16,-51.18,-43.38
1554887723295,6.0142345,-7.374739599999999,2.5420437000000002,-0.00958738,-0.1470065,-0.011717908999999999,-29.16,-51.24,-43.44
1554887723315,6.0525417,-7.331644,2.3888147,0.033023197000000004,-0.1438107,-0.014913702,-29.16,-51.24,-43.44
1554887723335,6.0621184999999995,-7.1305312999999995,2.5372553,0.06178534,-0.13528858,-0.024501082,-29.16,-51.24,-43.44
1554887723355,6.066907,-6.938994999999999,2.4079683,0.058589544,-0.13102753,-0.033023197000000004,-29.1,-51.24,-43.44
1554887723376,6.1626754,-7.1305312999999995,2.5420437000000002,0.012783173500000002,-0.09587380000000001,-0.04261058,-29.1,-51.42,-43.44
1554887723395,6.0956373,-7.2502413,2.2403743,-0.011717908999999999,-0.068176925,-0.04261058,-29.16,-51.42,-43.44
1554887723415,5.971139,-7.178415299999999,2.3409307,-0.05219796,-0.03089267,-0.039414786,-29.16,-51.48,-43.44
1554887723436,5.93762,-7.2646065,2.1829132999999996,-0.12250541,0.029827405,-0.025566347000000003,-29.16,-51.3,-43.38
1554887723455,5.851429,-7.140108000000001,2.154183,-0.17896444,0.056459017,-0.007456851,-29.16,-51.24,-43.32
1554887723475,5.947197,-7.389105000000001,2.345719,-0.27377295,0.053263225,0.0063915867,-29.16,-50.94,-43.26
1554887723496,6.1578870000000006,-7.542333999999999,2.4462755,-0.2727077,0.058589544,0.008522116,-29.16,-50.76,-43.2
1554887723515,6.023811299999999,-7.5519110000000005,2.4797945,-0.20133498,0.08522116,-0.0010652645,-29.16,-50.46,-43.2
1554887723535,5.8945246,-7.504027000000001,2.508525,-0.09267801,0.08735169,-0.007456851,-29.22,-50.16,-43.2
1554887723555,5.851429,-7.341221000000001,2.3983915000000002,-0.034088463,0.06498113,-0.013848438000000001,-29.22,-49.8,-43.2
1554887723575,5.8083334,-7.178415299999999,2.498948,-0.024501082,0.035153727999999995,-0.024501082,-29.22,-49.44,-43.2
1554887723595,5.726930599999999,-7.077858999999999,2.4366987,-0.03834952,0.0,-0.033023197000000004,-29.22,-49.14,-43.2
1554887723615,5.7029886,-7.1592617,2.3840263,-0.05539375,-0.037284255,-0.04261058,-29.16,-48.84,-43.2
1554887723636,5.841851999999999,-7.413047,2.4366987,-0.060720075,-0.07882957,-0.06178534,-29.16,-48.6,-43.2
1554887723655,5.90889,-7.379528,2.5516205000000003,-0.056459017,-0.112918034,-0.07030745599999999,-29.16,-48.42,-43.14
1554887723675,5.90889,-7.4609309999999995,2.484583,-0.039414786,-0.14274544,-0.07350325,-29.16,-48.24,-43.14
1554887723695,5.923255,-7.417835,2.202067,-0.011717908999999999,-0.165116,-0.07563378,-29.1,-48.18,-43.08
1554887723715,5.995081,-7.417835,2.307412,0.02130529,-0.18216023,-0.07030745599999999,-29.04,-48.12,-43.08
1554887723810,6.0716953,-7.283760000000001,2.168548,-0.004261058,-0.11930962,-0.07776430000000001,-28.8,-47.7,-42.9
1554887723810,6.0716953,-7.283760000000001,2.168548,-0.004261058,-0.11930962,-0.07776430000000001,-28.8,-47.7,-42.9
1554887723810,6.0716953,-7.283760000000001,2.168548,-0.004261058,-0.11930962,-0.07776430000000001,-28.8,-47.7,-42.9
1554887723810,6.0716953,-7.283760000000001,2.168548,-0.004261058,-0.11930962,-0.07776430000000001,-28.8,-47.7,-42.9
1554887723815,6.1770406,-7.331644,1.9147629000000002,-0.01917476,-0.111852765,-0.07456851,-28.74,-47.64,-42.9
1554887723835,6.047753299999999,-7.451353999999999,2.2451627,-0.03089267,-0.08948222,-0.06711166,-28.68,-47.52,-42.9
1554887723855,6.0285997,-7.3603745,2.082357,-0.010652645,-0.06391586,-0.060720075,-28.68,-47.46,-42.9
1554887723876,6.066907,-7.374739599999999,2.082357,0.0031957934000000003,-0.05965481,-0.05219796,-28.62,-47.4,-42.9
1554887723896,6.105214,-7.3603745,2.1015105,0.026631612000000002,-0.041545313,-0.053263225,-28.62,-47.4,-42.9
1554887723915,6.0908489999999995,-7.231087700000001,2.2691047,0.05006743,-0.036218993,-0.05219796,-28.62,-47.4,-42.9
1554887723935,6.0764837,-7.2885485,2.235586,0.07350325,-0.029827405,-0.051132694000000006,-28.68,-47.46,-42.96
1554887723955,6.1483099999999995,-7.154473299999999,1.9913772,0.06604639400000001,-0.035153727999999995,-0.05752428,-28.8,-47.64,-42.96
1554887723975,6.129156,-7.2741833,2.1398177000000005,0.05752428,-0.027696876000000002,-0.051132694000000006,-28.98,-47.94,-42.96
1554887723995,6.0908489999999995,-7.283760000000001,1.9865887999999998,0.05965481,-0.020240024,-0.056459017,-29.1,-48.36,-42.96
1554887724015,6.1483099999999995,-7.1927805,2.1877017000000003,0.06498113,-0.02130529,-0.05965481,-29.28,-48.9,-42.96
1554887724035,6.229712999999999,-7.2741833,2.0488381,0.06924219,-0.011717908999999999,-0.05539375,-29.46,-49.56,-42.9
1554887724055,6.1626754,-7.2789717000000005,2.178125,0.06604639400000001,0.010652645,-0.05752428,-29.64,-50.28,-42.9
1554887724075,6.2584434,-7.2454529999999995,2.1493945,0.07563378,0.027696876000000002,-0.06498113,-29.88,-51.06,-42.84
1554887724096,6.2632318,-7.140108000000001,2.0201077,0.083090626,0.034088463,-0.07030745599999999,-30.12,-51.9,-42.84
1554887724115,6.1626754,-7.0730705,2.1877017000000003,0.06924219,0.02876214,-0.080960095,-30.24,-52.62,-42.78
1554887724135,6.277597,-7.015609700000001,2.1398177000000005,0.05539375,0.025566347000000003,-0.09374327,-30.42,-53.22,-42.78
1554887724155,6.1626754,-7.0251865,2.2786815,0.04261058,0.026631612000000002,-0.10972224,-30.54,-53.64,-42.72
1554887724176,6.253655,-7.1975690000000005,2.297835,0.008522116,0.025566347000000003,-0.11504856,-30.72,-53.94,-42.66
1554887724195,6.1243677000000005,-7.1879919999999995,2.3888147,0.008522116,0.018109497,-0.1107875,-30.84,-54.06,-42.66
1554887724215,6.167464,-7.1688385,2.297835,0.040480047000000005,0.004261058,-0.10865697,-30.96,-54.18,-42.6
1554887724235,6.191406,-7.140108000000001,2.297835,0.06498113,-0.002130529,-0.094808534,-30.84,-54.24,-42.6
1554887724255,6.2967505,-7.101800999999999,2.3265655,0.05539375,-0.020240024,-0.082025364,-30.78,-54.24,-42.6
1554887724275,6.445191,-7.0587053,2.3409307,-0.0063915867,-0.03834952,-0.07989483,-30.6,-54.18,-42.66
1554887724295,6.430825700000001,-7.2406645,2.5516205000000003,-0.046871635999999994,-0.03195793,-0.07882957,-30.42,-54.06,-42.72
1554887724315,6.4068837,-7.2741833,2.594716,-0.036218993,-0.03195793,-0.084155895,-30.3,-53.88,-42.84
1554887724335,6.435614,-7.2885485,2.4510639,0.033023197000000004,-0.024501082,-0.09054748,-30.12,-53.7,-42.96
1554887724355,6.5026517,-7.149685000000001,2.3983915000000002,0.08628642,-0.008522116,-0.09054748,-30.0,-53.52,-43.08
1554887724376,6.373365,-7.0826473,2.4941597,0.099069595,-0.002130529,-0.09374327,-29.94,-53.46,-43.14
1554887724395,6.445191,-6.9725137,2.40318,0.09054748,0.022370555,-0.10013486,-29.88,-53.28,-43.2
1554887724416,6.4068837,-6.9820905,2.556409,0.07776430000000001,0.036218993,-0.10439592,-29.88,-53.1,-43.2
1554887724436,6.4164605,-7.1113777,2.5755625,0.06924219,0.05752428,-0.10652645,-29.94,-52.98,-43.2
1554887724455,6.3350577,-7.101800999999999,2.9107506,0.07137272,0.06711166,-0.10972224,-29.94,-52.92,-43.2
1554887724475,6.277597,-7.2023573,2.7000610000000003,0.084155895,0.08735169,-0.10439592,-29.94,-52.8,-43.2
1554887724495,6.26802,-7.1592617,2.8772318,0.094808534,0.080960095,-0.09267801,-30.0,-52.62,-43.14
1554887724515,6.244078,-7.1065892999999996,2.9059622000000003,0.12570119999999999,0.06604639400000001,-0.07776430000000001,-30.0,-52.44,-43.08
1554887724535,6.1866174,-6.9437833,2.8101943,0.18855181,0.05219796,-0.06178534,-30.0,-52.2,-43.02
1554887724556,6.066907,-6.7426705,2.7096379,0.24394555,0.03195793,-0.046871635999999994,-29.94,-51.9,-43.08
1554887724575,5.813122,-6.6229606,2.484583,0.28122982,-0.00958738,-0.036218993,-29.82,-51.54,-43.08
1554887724595,5.7939680000000005,-6.345233,2.3361422999999997,0.27803403,-0.06391586,-0.026631612000000002,-29.76,-51.24,-43.14
1554887724616,5.8705826,-6.2303114,2.3169887000000005,0.21837921,-0.12996227,-0.00958738,-29.58,-50.94,-43.2
1554887724635,6.081272,-6.187216,2.2786815,0.15446335,-0.17257284,-0.002130529,-29.4,-50.64,-43.26
1554887724655,6.277597,-6.4505777,2.2307975,0.08735169,-0.20879184,-0.018109497,-29.28,-50.46,-43.32
1554887724675,6.5122285,-6.656479400000001,2.3265655,0.06285059999999999,-0.23861924,-0.036218993,-29.22,-50.28,-43.32
1554887724696,6.6415157,-6.8671690000000005,2.0775685,0.053263225,-0.26525086,-0.05965481,-29.16,-50.22,-43.26
1554887724715,6.6893997,-6.9581485,2.154183,0.060720075,-0.28229508,-0.07456851,-29.16,-50.28,-43.2
1554887724735,6.7468604999999995,-6.905475999999999,2.0105310000000003,0.06391586,-0.27377295,-0.07137272,-29.22,-50.34,-43.2
1554887724756,6.5984197,-6.795342999999999,1.9387047999999998,0.022370555,-0.25672874,-0.06391586,-29.28,-50.4,-43.14
1554887724775,6.5026517,-6.7426705,2.1637597,-0.023435817999999997,-0.23116238,-0.05965481,-29.4,-50.46,-43.08
1554887724795,6.531382,-6.6612678,2.273893,-0.05752428,-0.20985709,-0.05219796,-29.52,-50.58,-42.96
1554887724815,6.6367273,-6.713939999999999,2.307412,-0.06285059999999999,-0.17470337,-0.046871635999999994,-29.58,-50.64,-42.9
1554887724835,6.732495299999999,-6.771400999999999,2.3696610000000002,-0.053263225,-0.111852765,-0.041545313,-29.58,-50.7,-42.84
1554887724856,6.6510925,-6.7905545,2.4510639,-0.043675844000000005,-0.03834952,-0.029827405,-29.58,-50.76,-42.78
1554887724875,6.5744777,-6.8767457,2.2260091,-0.027696876000000002,0.024501082,-0.015978966,-29.58,-50.82,-42.78
1554887724895,6.5122285,-6.8767457,2.2260091,-0.010652645,0.07350325,-0.004261058,-29.64,-50.82,-42.72
1554887724915,6.430825700000001,-6.848015299999999,2.2547395,-0.007456851,0.08522116,0.0031957934000000003,-29.64,-50.82,-42.72
1554887724935,6.588842999999999,-6.689997999999999,2.1398177000000005,-0.02130529,0.128897,0.012783173500000002,-29.7,-50.88,-42.72
1554887724955,6.612785000000001,-6.8049197,2.2547395,-0.05006743,0.1438107,0.004261058,-29.76,-51.06,-42.72
1554887724975,6.6989765,-6.795342999999999,2.355296,-0.096939065,0.14913702,-0.0031957934000000003,-29.76,-51.42,-42.66
1554887724996,6.588842999999999,-6.9246297000000006,2.321777,-0.10759171,0.14913702,-0.015978966,-29.88,-51.72,-42.66
1554887725015,6.4404025,-6.9916677,2.4702177000000005,-0.08522116,0.15126756,-0.011717908999999999,-29.94,-52.02,-42.66
1554887725035,6.2871737,-7.006033,2.28347,-0.054328485999999995,0.13741912,-0.008522116,-30.0,-52.38,-42.66
1554887725055,6.172251999999999,-6.7666125,2.2307975,-0.026631612000000002,0.113983296,-0.0053263223,-30.06,-52.62,-42.66
1554887725075,6.2105594,-6.632537400000001,2.3600842999999996,-0.043675844000000005,0.096939065,0.002130529,-30.0,-52.86,-42.6
1554887725095,6.2009826,-6.6852098,2.345719,-0.09374327,0.07989483,0.008522116,-30.0,-52.92,-42.6
1554887725116,6.373365,-6.8623804999999996,2.2212207000000004,-0.13848437,0.07030745599999999,0.015978966,-29.94,-52.68,-42.66
1554887725135,6.363788,-6.9725137,2.460641,-0.12357068,0.05752428,0.015978966,-29.94,-52.5,-42.72
1554887725155,6.469133,-7.044339999999999,2.307412,-0.096939065,0.046871635999999994,0.008522116,-29.82,-52.14,-42.72
1554887725175,6.3829417,-7.029975,2.3026235,-0.083090626,0.039414786,0.002130529,-29.64,-51.78,-42.72
1554887725195,6.430825700000001,-6.977302000000001,2.273893,-0.082025364,0.041545313,-0.002130529,-29.58,-51.6,-42.72
1554887725215,6.272808599999999,-7.0012445,2.1877017000000003,-0.099069595,0.04474111,-0.0053263223,-29.58,-51.54,-42.72
1554887725236,6.2249246,-6.8719573,2.1829132999999996,-0.11717909,0.036218993,-0.004261058,-29.58,-51.48,-42.72
1554887725255,6.1770406,-6.9677253,2.3840263,-0.13209279,0.024501082,-0.002130529,-29.58,-51.54,-42.78
1554887725275,6.354211299999999,-6.9581485,2.3936029999999997,-0.112918034,0.03089267,-0.007456851,-29.64,-51.6,-42.78
1554887725295,6.26802,-6.9485717000000005,2.307412,-0.084155895,0.035153727999999995,-0.0063915867,-29.7,-51.6,-42.78
1554887725316,6.3589997,-6.9677253,2.3169887000000005,-0.07456851,0.04580637,-0.004261058,-29.76,-51.54,-42.84
1554887725335,6.3111157,-6.996455999999999,2.1398177000000005,-0.09587380000000001,0.05006743,0.0010652645,-29.82,-51.48,-42.84
1554887725355,6.2584434,-7.044339999999999,2.2260091,-0.13741912,0.046871635999999994,0.0031957934000000003,-29.82,-51.3,-42.84
1554887725375,6.2823853,-7.1305312999999995,2.2403743,-0.1587244,0.043675844000000005,0.00958738,-29.82,-51.12,-42.9
1554887725395,6.3685765,-7.2406645,2.1398177000000005,-0.14061491,0.047936900000000005,0.015978966,-29.88,-50.94,-42.9
1554887725416,6.3589997,-7.1209545,2.2643162999999995,-0.11824436,0.058589544,0.011717908999999999,-29.88,-50.76,-42.96
1554887725435,6.4212489999999995,-7.1209545,2.0967221,-0.11611383,0.054328485999999995,0.00958738,-29.88,-50.64,-42.96
1554887725455,6.3350577,-7.1305312999999995,2.2882583,-0.13741912,0.054328485999999995,0.0,-29.88,-50.58,-42.96
1554887725475,6.2584434,-7.1113777,2.273893,-0.15659387,0.05752428,-0.013848438000000001,-29.88,-50.64,-42.96
1554887725495,6.2584434,-7.2167225,2.235586,-0.14807177,0.05965481,-0.025566347000000003,-29.88,-50.64,-42.96
1554887725515,6.1243677000000005,-7.178415299999999,2.4462755,-0.10972224,0.05752428,-0.034088463,-29.88,-50.58,-43.02
1554887725536,6.133945,-7.3268557,2.4941597,-0.06498113,0.05752428,-0.03195793,-29.88,-50.58,-43.02
1554887725555,6.100425700000001,-7.355586,2.417545,-0.025566347000000003,0.05965481,-0.034088463,-29.88,-50.58,-43.02
1554887725575,6.1578870000000006,-7.3029137,2.460641,0.0063915867,0.05965481,-0.03195793,-29.82,-50.64,-43.02
1554887725596,6.191406,-7.283760000000001,2.273893,0.00958738,0.058589544,-0.03089267,-29.82,-50.76,-43.08
1554887725615,6.220136,-7.173627000000001,2.2164322999999997,0.011717908999999999,0.05006743,-0.033023197000000004,-29.76,-50.88,-43.08
1554887725635,6.272808599999999,-7.16405,2.2307975,0.027696876000000002,0.03089267,-0.036218993,-29.7,-51.0,-43.08
1554887725655,6.315904,-7.1113777,2.3265655,0.036218993,0.022370555,-0.03834952,-29.64,-51.06,-43.08
1554887725675,6.220136,-7.0395517000000005,2.202067,0.03195793,0.010652645,-0.034088463,-29.64,-51.18,-43.08
1554887725695,6.1100025,-6.9820905,2.202067,0.011717908999999999,0.010652645,-0.02130529,-29.58,-51.24,-43.08
1554887725715,6.100425700000001,-7.015609700000001,2.202067,-0.020240024,0.00958738,-0.0063915867,-29.58,-51.3,-43.2
1554887725735,6.1530986,-7.101800999999999,2.4271219,-0.043675844000000005,0.015978966,0.011717908999999999,-29.52,-51.3,-43.2
1554887725755,6.1100025,-7.149685000000001,2.1637597,-0.06285059999999999,0.027696876000000002,0.02876214,-29.52,-51.24,-43.26
1554887725776,6.0860605,-7.2167225,2.2451627,-0.080960095,0.036218993,0.03834952,-29.46,-51.06,-43.26
1554887725795,6.0716953,-7.3603745,2.1829132999999996,-0.08735169,0.04580637,0.049002163,-29.4,-50.88,-43.32
1554887725815,6.1100025,-7.341221000000001,2.178125,-0.07563378,0.046871635999999994,0.04474111,-29.4,-50.76,-43.32
1554887725836,6.2249246,-7.374739599999999,2.28347,-0.054328485999999995,0.041545313,0.04580637,-29.34,-50.58,-43.26
1554887725855,6.220136,-7.436989,2.2643162999999995,-0.01917476,0.03195793,0.03195793,-29.34,-50.4,-43.26
1554887725875,6.2009826,-7.4322004,2.3888147,0.024501082,0.033023197000000004,0.018109497,-29.28,-50.22,-43.2
1554887725895,6.167464,-7.2406645,2.297835,0.05965481,0.027696876000000002,0.0,-29.16,-49.98,-43.2
1554887725915,6.1578870000000006,-7.259817999999999,2.1637597,0.07030745599999999,0.027696876000000002,-0.010652645,-29.1,-49.62,-43.14
1554887725935,6.0908489999999995,-7.307702000000001,2.1733365,0.080960095,0.027696876000000002,-0.01917476,-29.04,-49.32,-43.2
1554887725955,6.1195793,-7.077858999999999,1.9961656000000003,0.09267801,0.02130529,-0.020240024,-28.92,-49.02,-43.2
1554887725975,6.172251999999999,-7.0251865,2.2307975,0.08735169,0.012783173500000002,-0.022370555,-28.86,-48.78,-43.2
1554887725995,6.0908489999999995,-6.9677253,2.0632033,0.051132694000000006,0.0010652645,-0.023435817999999997,-28.8,-48.6,-43.26
1554887726015,6.2392898,-7.0730705,2.2499511,-0.004261058,-0.015978966,-0.026631612000000002,-28.8,-48.54,-43.26
1554887726035,6.2345014,-7.16405,2.2068555,-0.025566347000000003,-0.01917476,-0.029827405,-28.8,-48.66,-43.26
1554887726055,6.1578870000000006,-7.255029700000001,2.2499511,-0.020240024,-0.025566347000000003,-0.036218993,-28.86,-48.96,-43.32
1554887726076,6.1530986,-7.2885485,2.1015105,-0.015978966,-0.037284255,-0.04474111,-28.86,-49.32,-43.32
1554887726095,6.2345014,-7.178415299999999,2.0440497,-0.008522116,-0.05219796,-0.05219796,-28.92,-49.68,-43.32
1554887726115,6.2632318,-7.154473299999999,2.0344729999999998,0.007456851,-0.05965481,-0.05539375,-28.92,-49.98,-43.32
1554887726135,6.2249246,-7.1113777,2.1398177000000005,0.015978966,-0.06924219,-0.05539375,-28.92,-50.28,-43.32
1554887726155,6.2009826,-6.986878999999999,1.9961656000000003,-0.0053263223,-0.06711166,-0.06391586,-28.86,-50.46,-43.32
1554887726175,6.1770406,-7.044339999999999,2.0009542000000002,-0.034088463,-0.06711166,-0.06924219,-28.8,-50.52,-43.32
1554887726196,6.3063273,-7.0874357,1.9722236000000002,-0.053263225,-0.06498113,-0.07030745599999999,-28.8,-50.52,-43.38
1554887726215,6.3350577,-7.2454529999999995,2.0440497,-0.05219796,-0.05752428,-0.068176925,-28.74,-50.4,-43.38
1554887726235,6.3063273,-7.255029700000001,2.0105310000000003,-0.043675844000000005,-0.047936900000000005,-0.07243799,-28.68,-50.28,-43.38
1554887726255,6.315904,-7.149685000000001,2.1158757,-0.033023197000000004,-0.033023197000000004,-0.07030745599999999,-28.62,-50.22,-43.38
1554887726275,6.320692500000001,-7.1975690000000005,1.8956091,-0.033023197000000004,-0.011717908999999999,-0.06391586,-28.68,-50.16,-43.32
1554887726295,6.3063273,-7.077858999999999,1.9147629000000002,-0.043675844000000005,-0.004261058,-0.06391586,-28.74,-50.22,-43.32
1554887726316,6.4068837,-7.116166000000001,2.0727801,-0.05965481,0.0063915867,-0.06285059999999999,-28.86,-50.22,-43.26
1554887726335,6.435614,-7.0634937,1.9865887999999998,-0.06178534,0.014913702,-0.06711166,-28.98,-50.28,-43.2
1554887726355,6.339846,-6.986878999999999,1.9434932,-0.07030745599999999,0.054328485999999995,-0.06604639400000001,-29.04,-50.34,-43.26
1554887726375,6.3925184999999995,-7.053917,1.9865887999999998,-0.09374327,0.07030745599999999,-0.068176925,-29.1,-50.4,-43.26
1554887726395,6.435614,-7.1353197,1.9195513,-0.11611383,0.080960095,-0.06391586,-29.22,-50.4,-43.32
1554887726416,6.3446345,-7.1305312999999995,2.0919337,-0.12250541,0.094808534,-0.06391586,-29.28,-50.28,-43.38
1554887726435,6.320692500000001,-7.0970125,2.1877017000000003,-0.10333065,0.10439592,-0.06711166,-29.34,-50.04,-43.44
1554887726455,6.3063273,-6.9150529999999995,2.1493945,-0.08735169,0.10439592,-0.06391586,-29.34,-49.74,-43.5
1554887726475,6.2871737,-6.9677253,2.0392613,-0.08948222,0.10013486,-0.068176925,-29.34,-49.56,-43.56
1554887726495,6.172251999999999,-6.962936999999999,2.154183,-0.08948222,0.09267801,-0.07350325,-29.4,-49.32,-43.62
1554887726515,6.1818290000000005,-6.977302000000001,2.0153193,-0.08948222,0.07882957,-0.07563378,-29.4,-49.26,-43.56
1554887726535,6.2105594,-7.015609700000001,2.1924900000000003,-0.10865697,0.051132694000000006,-0.07882957,-29.4,-49.26,-43.56
1554887726555,6.1626754,-7.116166000000001,2.0871453,-0.10972224,0.037284255,-0.07669904,-29.4,-49.32,-43.56
1554887726575,6.2823853,-7.2406645,2.28347,-0.08948222,0.03195793,-0.06604639400000001,-29.4,-49.44,-43.56
1554887726595,6.1578870000000006,-7.1975690000000005,2.1254525,-0.05752428,0.025566347000000003,-0.05219796,-29.34,-49.68,-43.56
1554887726615,6.301539,-7.1592617,2.0632033,-0.033023197000000004,0.024501082,-0.040480047000000005,-29.34,-49.8,-43.56
1554887726635,6.253655,-7.1592617,2.1924900000000003,-0.027696876000000002,0.020240024,-0.03089267,-29.28,-49.8,-43.56
1554887726655,6.301539,-7.2406645,2.0009542000000002,-0.03195793,0.029827405,-0.01917476,-29.28,-49.68,-43.56
1554887726675,6.2584434,-7.1879919999999995,2.0392613,-0.03195793,0.040480047000000005,-0.007456851,-29.22,-49.32,-43.56
1554887726695,6.397307,-7.154473299999999,2.0392613,-0.024501082,0.06178534,0.002130529,-29.16,-49.02,-43.56
1554887726715,6.3685765,-7.1927805,2.2403743,-0.024501082,0.07882957,0.013848438000000001,-29.1,-48.78,-43.56
1554887726735,6.320692500000001,-7.0970125,2.168548,-0.036218993,0.098004326,0.01917476,-29.04,-48.54,-43.5
1554887726755,6.320692500000001,-7.1927805,2.0248961,-0.027696876000000002,0.10439592,0.024501082,-28.92,-48.36,-43.44
1554887726775,6.3111157,-7.092224000000001,2.0248961,-0.018109497,0.12357068,0.025566347000000003,-28.86,-48.3,-43.32
1554887726796,6.272808599999999,-7.0730705,1.9578583999999999,-0.02876214,0.11824436,0.026631612000000002,-28.8,-48.3,-43.26
1554887726815,6.2105594,-6.986878999999999,2.0440497,-0.05219796,0.12144015,0.024501082,-28.74,-48.36,-43.2
1554887726835,6.397307,-7.16405,1.9722236000000002,-0.08948222,0.112918034,0.023435817999999997,-28.68,-48.6,-43.2
1554887726855,6.435614,-7.1305312999999995,2.2212207000000004,-0.12570119999999999,0.10546118,0.0053263223,-28.62,-48.66,-43.26
1554887726875,6.397307,-7.3460092999999995,1.9961656000000003,-0.14274544,0.10333065,-0.0031957934000000003,-28.5,-48.54,-43.32
1554887726895,6.2823853,-7.307702000000001,2.0440497,-0.11930962,0.09054748,-0.013848438000000001,-28.32,-48.3,-43.44
1554887726916,6.315904,-7.2741833,2.1158757,-0.07669904,0.080960095,-0.015978966,-28.2,-48.06,-43.5
1554887726935,6.2488665999999995,-7.2215110000000005,2.297835,-0.024501082,0.07989483,-0.023435817999999997,-28.02,-47.82,-43.62
1554887726955,6.1530986,-7.2071457,2.154183,-0.013848438000000001,0.083090626,-0.02876214,-27.84,-47.52,-43.74
1554887726975,6.220136,-7.317278999999999,1.9722236000000002,-0.03195793,0.082025364,-0.024501082,-27.72,-47.22,-43.74
1554887726995,6.167464,-7.355586,2.0871453,-0.051132694000000006,0.07563378,-0.02130529,-27.54,-46.86,-43.68
1554887727015,6.2153480000000005,-7.2646065,2.1254525,-0.053263225,0.07137272,-0.017044231,-27.42,-46.62,-43.68
1554887727035,6.114791,-7.2789717000000005,2.0296845,-0.06178534,0.06178534,-0.013848438000000001,-27.36,-46.5,-43.62
1554887727056,6.1626754,-7.3603745,2.0536265,-0.054328485999999995,0.05965481,-0.015978966,-27.42,-46.38,-43.62
1554887727075,6.1243677000000005,-7.2167225,2.0488381,-0.025566347000000003,0.056459017,-0.015978966,-27.42,-46.32,-43.62
1554887727095,6.196194,-7.1353197,2.082357,0.004261058,0.04580637,-0.025566347000000003,-27.42,-46.14,-43.62
1554887727115,6.0908489999999995,-7.1305312999999995,2.0727801,0.004261058,0.04580637,-0.033023197000000004,-27.42,-45.96,-43.62
1554887727135,6.047753299999999,-7.0634937,2.0775685,-0.008522116,0.040480047000000005,-0.04261058,-27.42,-45.84,-43.62
1554887727155,5.942408599999999,-7.0970125,2.144606,-0.014913702,0.033023197000000004,-0.041545313,-27.42,-45.78,-43.62
1554887727176,5.9998693,-7.231087700000001,2.1254525,-0.027696876000000002,0.029827405,-0.040480047000000005,-27.36,-45.72,-43.68
1554887727195,5.9280434,-7.259817999999999,2.1015105,-0.034088463,0.03195793,-0.029827405,-27.36,-45.6,-43.68
1554887727215,5.961562000000001,-7.4322004,2.1110873,-0.020240024,0.033023197000000004,-0.018109497,-27.3,-45.54,-43.68
1554887727235,6.009446,-7.331644,2.144606,-0.014913702,0.02876214,0.002130529,-27.24,-45.54,-43.68
1554887727255,5.990292500000001,-7.3843164,2.168548,-0.0053263223,0.03195793,0.014913702,-27.18,-45.48,-43.62
1554887727275,6.0142345,-7.355586,2.1972785,0.017044231,0.03195793,0.027696876000000002,-27.18,-45.48,-43.62
1554887727295,5.9567738,-7.3268557,2.1877017000000003,0.03089267,0.026631612000000002,0.033023197000000004,-27.18,-45.48,-43.62
1554887727315,5.975927400000001,-7.173627000000001,2.1398177000000005,0.034088463,0.03195793,0.03195793,-27.18,-45.42,-43.62
1554887727335,5.942408599999999,-7.2406645,2.130241,0.041545313,0.024501082,0.029827405,-27.24,-45.36,-43.62
1554887727355,5.961562000000001,-7.2454529999999995,2.235586,0.043675844000000005,0.018109497,0.023435817999999997,-27.3,-45.3,-43.62
1554887727375,5.90889,-7.2215110000000005,2.2451627,0.04261058,0.010652645,0.017044231,-27.3,-45.3,-43.62
1554887727395,5.966350599999999,-7.255029700000001,2.1972785,0.041545313,0.007456851,0.008522116,-27.36,-45.36,-43.68
1554887727415,5.990292500000001,-7.2167225,2.0727801,0.035153727999999995,-0.0063915867,0.0031957934000000003,-27.48,-45.48,-43.74
1554887727435,5.990292500000001,-7.389105000000001,2.2068555,0.01917476,-0.014913702,-0.0053263223,-27.54,-45.6,-43.8
1554887727455,5.9998693,-7.341221000000001,2.297835,0.01917476,-0.023435817999999997,-0.007456851,-27.54,-45.78,-43.86
1554887727475,5.9567738,-7.49445,2.1924900000000003,0.035153727999999995,-0.02876214,-0.0031957934000000003,-27.54,-45.9,-43.86
1554887727495,5.985504,-7.3843164,2.082357,0.05219796,-0.04261058,0.0010652645,-27.48,-46.08,-43.92
1554887727515,5.913678,-7.5183919999999995,2.4079683,0.06498113,-0.049002163,0.00958738,-27.48,-46.2,-43.98
1554887727535,5.9998693,-7.3699512,2.1398177000000005,0.07030745599999999,-0.05539375,0.015978966,-27.42,-46.26,-44.04
1554887727555,5.9807158,-7.365163000000001,2.082357,0.07030745599999999,-0.05539375,0.01917476,-27.42,-46.32,-44.04
1554887727575,5.975927400000001,-7.398681599999999,2.2451627,0.07882957,-0.060720075,0.01917476,-27.3,-46.26,-44.04
1554887727595,6.019023000000001,-7.231087700000001,2.1924900000000003,0.09161274,-0.06285059999999999,0.015978966,-27.24,-46.2,-44.04
1554887727615,5.9807158,-7.2215110000000005,2.1877017000000003,0.10226539,-0.06711166,0.011717908999999999,-27.18,-46.14,-44.04
1554887727636,5.985504,-7.1353197,2.178125,0.101200126,-0.07563378,0.010652645,-27.18,-46.14,-43.98
1554887727656,5.8705826,-7.140108000000001,2.154183,0.07989483,-0.08522116,0.0010652645,-27.12,-46.14,-43.92
1554887727675,5.951985400000001,-7.2071457,2.1350293,0.05752428,-0.09587380000000001,-0.0063915867,-27.12,-46.14,-43.86
1554887727695,5.971139,-7.2454529999999995,2.321777,0.051132694000000006,-0.10972224,-0.011717908999999999,-27.12,-46.26,-43.8
1554887727716,6.042965000000001,-7.2885485,2.1493945,0.06498113,-0.11930962,-0.013848438000000001,-27.18,-46.32,-43.74
1554887727735,5.975927400000001,-7.3124905,2.1110873,0.058589544,-0.128897,-0.014913702,-27.18,-46.44,-43.68
1554887727756,6.0333879999999995,-7.4992385,2.345719,0.037284255,-0.1470065,-0.020240024,-27.3,-46.5,-43.56
1554887727775,6.1530986,-7.6572556,2.3409307,0.033023197000000004,-0.16405073,-0.01917476,-27.42,-46.62,-43.5
1554887727796,6.172251999999999,-7.542333999999999,2.4510639,0.07456851,-0.18109496,-0.020240024,-27.48,-46.74,-43.5
1554887727815,6.1530986,-7.480085000000001,2.3744495,0.13848437,-0.18642128,-0.017044231,-27.6,-46.98,-43.44
1554887727835,6.129156,-7.4034699999999996,2.0919337,0.18322548,-0.18109496,-0.010652645,-27.72,-47.34,-43.44
1554887727855,6.196194,-7.0970125,2.0392613,0.18748654,-0.17150758,-0.0031957934000000003,-27.84,-47.7,-43.38
1554887727875,6.167464,-7.006033,2.1254525,0.15233281,-0.15659387,-0.004261058,-27.96,-48.12,-43.38
1554887727895,6.1578870000000006,-7.0874357,1.9195513,0.084155895,-0.15020229,-0.0031957934000000003,-28.08,-48.48,-43.38
1554887727915,6.0764837,-7.1353197,2.1206641,0.037284255,-0.13209279,-0.002130529,-28.2,-48.78,-43.38
1554887727935,6.0860605,-7.16405,2.178125,0.027696876000000002,-0.111852765,-0.0053263223,-28.26,-49.02,-43.38
1554887727955,6.1866174,-7.2502413,2.2307975,0.027696876000000002,-0.10226539,-0.008522116,-28.38,-49.2,-43.38
1554887727975,6.1100025,-7.3938932,2.3361422999999997,0.029827405,-0.07989483,-0.0063915867,-28.5,-49.26,-43.38
1554887727995,6.191406,-7.422623599999999,2.1877017000000003,0.043675844000000005,-0.051132694000000006,-0.004261058,-28.62,-49.14,-43.38
1554887728016,6.1100025,-7.2981253,2.1015105,0.06285059999999999,-0.017044231,0.0,-28.68,-48.96,-43.38
1554887728035,6.081272,-7.2406645,2.144606,0.053263225,0.015978966,0.0010652645,-28.68,-48.84,-43.38
1554887728055,6.0908489999999995,-7.2885485,1.9434932,0.00958738,0.027696876000000002,0.0010652645,-28.74,-48.6,-43.38
1554887728075,6.042965000000001,-7.3843164,2.1924900000000003,-0.023435817999999997,0.03834952,0.008522116,-28.74,-48.42,-43.38
1554887728095,6.05733,-7.4034699999999996,2.321777,-0.012783173500000002,0.023435817999999997,0.012783173500000002,-28.8,-48.36,-43.38
1554887728115,5.9998693,-7.3029137,2.4702177000000005,0.008522116,0.0063915867,0.011717908999999999,-28.86,-48.36,-43.38
1554887728135,6.143522,-7.341221000000001,2.168548,0.03195793,-0.0063915867,0.011717908999999999,-28.86,-48.36,-43.26
1554887728155,6.1387334000000005,-7.365163000000001,2.0248961,0.043675844000000005,-0.033023197000000004,0.0063915867,-28.92,-48.42,-43.2
1554887728175,6.1483099999999995,-7.2454529999999995,2.0153193,0.054328485999999995,-0.039414786,-0.0053263223,-28.98,-48.42,-43.14
1554887728195,6.1626754,-7.379528,2.154183,0.043675844000000005,-0.05965481,-0.023435817999999997,-29.04,-48.42,-43.08
1554887728215,6.1866174,-7.2023573,2.1350293,0.040480047000000005,-0.07563378,-0.036218993,-29.04,-48.3,-43.02
1554887728235,6.2392898,-7.2167225,2.1110873,0.05539375,-0.07989483,-0.05006743,-29.04,-48.0,-42.96
1554887728256,6.2009826,-7.1879919999999995,2.1206641,0.046871635999999994,-0.06924219,-0.06285059999999999,-29.04,-47.7,-42.9
1554887728275,6.1578870000000006,-7.0970125,1.9434932,0.014913702,-0.04261058,-0.068176925,-29.04,-47.4,-42.84
1554887728295,6.1100025,-7.1113777,2.0153193,-0.004261058,-0.014913702,-0.07243799,-28.98,-47.1,-42.9
1554887728316,6.0285997,-7.231087700000001,2.0440497,-0.013848438000000001,0.023435817999999997,-0.07456851,-28.92,-47.1,-42.9
1554887728335,6.0860605,-7.140108000000001,2.0775685,-0.03089267,0.05219796,-0.06391586,-28.92,-47.16,-42.9
1554887728355,5.966350599999999,-7.020397999999999,2.0488381,-0.05219796,0.07243799,-0.049002163,-28.86,-47.16,-42.9
1554887728375,5.90889,-7.2646065,2.1398177000000005,-0.082025364,0.082025364,-0.037284255,-28.86,-47.4,-42.96
1554887728395,5.932832,-7.3268557,2.2786815,-0.10759171,0.083090626,-0.022370555,-28.86,-47.7,-43.02
1554887728416,6.05733,-7.5950065,2.297835,-0.084155895,0.07989483,-0.029827405,-28.86,-47.94,-43.08
1554887728435,6.229712999999999,-7.484873299999999,2.40318,-0.02130529,0.06604639400000001,-0.047936900000000005,-28.92,-48.18,-43.14
1554887728455,6.4068837,-7.451353999999999,2.4702177000000005,0.06285059999999999,0.060720075,-0.060720075,-28.92,-48.42,-43.26
1554887728475,6.1578870000000006,-7.2454529999999995,2.556409,0.12037488,0.04261058,-0.06711166,-28.92,-48.3,-43.32
1554887728495,6.1578870000000006,-7.0730705,2.5276785,0.14061491,0.027696876000000002,-0.06285059999999999,-28.98,-48.12,-43.44
1554887728515,6.047753299999999,-6.7905545,2.4797945,0.12676647,0.0031957934000000003,-0.05965481,-28.92,-48.06,-43.5
1554887728535,5.975927400000001,-6.8863225,2.4366987,0.082025364,-0.022370555,-0.05219796,-28.86,-48.06,-43.56
1554887728555,6.0046577,-7.077858999999999,2.40318,0.0010652645,-0.04580637,-0.04474111,-28.8,-47.88,-43.56
1554887728575,6.167464,-7.0874357,2.331354,-0.025566347000000003,-0.054328485999999995,-0.034088463,-28.8,-47.88,-43.56
1554887728595,6.2249246,-7.283760000000001,2.3888147,-0.018109497,-0.039414786,-0.01917476,-28.68,-47.82,-43.44
1554887728615,6.172251999999999,-7.2741833,2.379238,0.007456851,-0.04580637,-0.017044231,-28.62,-47.7,-43.44
1554887728635,6.253655,-7.2071457,2.307412,0.013848438000000001,-0.04580637,-0.026631612000000002,-28.56,-47.76,-43.38
1554887728655,6.1866174,-7.1209545,2.4366987,-0.002130529,-0.043675844000000005,-0.04261058,-28.5,-47.88,-43.32
1554887728676,6.1578870000000006,-7.2885485,2.4366987,-0.015978966,-0.035153727999999995,-0.046871635999999994,-28.5,-48.06,-43.32
1554887728696,6.009446,-7.283760000000001,2.5803509,-0.011717908999999999,-0.036218993,-0.043675844000000005,-28.5,-48.42,-43.32
1554887728716,5.942408599999999,-7.2646065,2.3888147,0.00958738,-0.043675844000000005,-0.035153727999999995,-28.5,-48.9,-43.32
1554887728735,5.746084,-7.1975690000000005,2.6138697,0.024501082,-0.051132694000000006,-0.015978966,-28.5,-49.26,-43.44
1554887728755,5.951985400000001,-7.355586,2.6330232999999996,0.041545313,-0.06924219,0.0053263223,-28.5,-49.62,-43.5
1554887728775,6.1770406,-7.365163000000001,2.5803509,0.06285059999999999,-0.08522116,0.026631612000000002,-28.44,-49.86,-43.56
1554887728795,6.2967505,-7.2885485,2.331354,0.09267801,-0.09054748,0.041545313,-28.44,-49.8,-43.56
1554887728815,6.196194,-7.154473299999999,2.0967221,0.09161274,-0.09587380000000001,0.03834952,-28.44,-49.62,-43.62
1554887728835,6.1626754,-7.0347633,2.1015105,0.051132694000000006,-0.12463594,0.035153727999999995,-28.44,-49.5,-43.68
1554887728855,6.167464,-7.154473299999999,2.0344729999999998,-0.0053263223,-0.15126756,0.027696876000000002,-28.44,-49.14,-43.68
1554887728875,5.990292500000001,-7.1305312999999995,2.0967221,-0.029827405,-0.17789917,0.01917476,-28.44,-48.72,-43.62
1554887728895,5.985504,-7.173627000000001,2.2068555,-0.017044231,-0.19707392,0.018109497,-28.5,-48.42,-43.62
1554887728915,5.975927400000001,-7.101800999999999,2.202067,0.002130529,-0.21837921,0.011717908999999999,-28.5,-48.12,-43.56
1554887728935,6.0525417,-7.092224000000001,2.168548,0.008522116,-0.23009712,0.00958738,-28.56,-47.88,-43.5
1554887728956,5.971139,-7.16405,2.0632033,-0.0063915867,-0.23968449999999997,0.00958738,-28.62,-47.94,-43.5
1554887728975,6.05733,-7.2454529999999995,2.0775685,-0.0063915867,-0.24607609,0.0063915867,-28.68,-48.12,-43.44
1554887728995,6.0142345,-7.3603745,1.9674352,0.023435817999999997,-0.25140239999999997,0.008522116,-28.74,-48.24,-43.38
1554887729016,6.0333879999999995,-7.2885485,1.8429368000000002,0.04474111,-0.26631612,0.014913702,-28.8,-48.36,-43.32
1554887729035,6.0333879999999995,-7.259817999999999,1.8046296000000002,0.04580637,-0.27696875,0.033023197000000004,-28.86,-48.48,-43.26
1554887729055,6.1483099999999995,-7.1927805,1.7806876,0.039414786,-0.27590349999999997,0.05539375,-28.92,-48.48,-43.2
1554887729075,6.0525417,-7.1448965,1.7663223000000001,0.027696876000000002,-0.257794,0.07243799,-28.98,-48.42,-43.08
1554887729095,6.0908489999999995,-7.2167225,1.8333599999999999,0.012783173500000002,-0.25033715,0.07882957,-29.04,-48.42,-43.02
1554887729116,6.2105594,-7.3938932,1.7663223000000001,-0.00958738,-0.23116238,0.07776430000000001,-29.1,-48.3,-42.96
1554887729135,6.26802,-7.527969000000001,1.7567455,-0.00958738,-0.20133498,0.056459017,-29.16,-48.12,-42.9
1554887729155,6.3063273,-7.585429700000001,1.6130934,0.008522116,-0.18109496,0.025566347000000003,-29.28,-47.88,-42.84
1554887729175,6.378153299999999,-7.6093717000000005,1.6418238,0.034088463,-0.16618125,0.0,-29.34,-47.76,-42.78
1554887729195,6.373365,-7.5327573,1.4646529,0.03834952,-0.16405073,-0.02876214,-29.46,-47.64,-42.66
1554887729216,6.1866174,-7.389105000000001,1.5269021,0.054328485999999995,-0.165116,-0.046871635999999994,-29.58,-47.64,-42.6
1554887729235,6.2584434,-7.4322004,1.6944963,0.07563378,-0.1768339,-0.058589544,-29.76,-47.7,-42.48
1554887729255,6.133945,-7.3699512,1.584363,0.082025364,-0.18748654,-0.06711166,-29.88,-47.76,-42.42
1554887729275,6.244078,-7.379528,1.7615339,0.084155895,-0.19387813,-0.07137272,-30.0,-47.88,-42.3
1554887729296,6.1578870000000006,-7.283760000000001,1.6226702,0.08948222,-0.20133498,-0.07350325,-30.12,-48.0,-42.24
1554887729315,6.1866174,-7.2215110000000005,1.6657659,0.09161274,-0.21092236,-0.06604639400000001,-30.24,-48.18,-42.12
1554887729335,6.1770406,-7.149685000000001,1.5891514,0.08628642,-0.21092236,-0.05752428,-30.36,-48.3,-42.06
1554887729355,6.1483099999999995,-6.986878999999999,1.5364790000000002,0.07776430000000001,-0.21944448,-0.053263225,-30.48,-48.36,-42.0
1554887729375,6.253655,-7.1113777,1.584363,0.054328485999999995,-0.22477080000000002,-0.04580637,-30.6,-48.48,-41.94
1554887729395,6.301539,-7.1879919999999995,1.5125369,0.04580637,-0.22583607,-0.046871635999999994,-30.72,-48.54,-41.88
1554887729415,6.2823853,-7.3029137,1.3210008,0.060720075,-0.21518342,-0.041545313,-30.84,-48.6,-41.82
1554887729435,6.3302693,-7.231087700000001,1.2060791000000002,0.07456851,-0.20026971,-0.036218993,-30.84,-48.6,-41.82
1554887729455,6.4068837,-7.2502413,1.4119805,0.07776430000000001,-0.18748654,-0.027696876000000002,-30.84,-48.66,-41.76
1554887729475,6.349423000000001,-7.116166000000001,1.2683283,0.082025364,-0.15978967,-0.027696876000000002,-30.84,-48.6,-41.76
1554887729495,6.315904,-7.1927805,1.1821371,0.06924219,-0.1438107,-0.02876214,-30.78,-48.54,-41.7
1554887729515,6.4212489999999995,-7.173627000000001,1.2252326999999998,0.03089267,-0.12144015,-0.025566347000000003,-30.78,-48.42,-41.7
1554887729536,6.301539,-7.211933999999999,1.2587515,0.015978966,-0.09587380000000001,-0.023435817999999997,-30.84,-48.36,-41.7
1554887729555,6.220136,-7.1305312999999995,1.3257892,0.020240024,-0.08522116,-0.018109497,-30.9,-48.36,-41.7
1554887729576,6.339846,-7.0970125,1.2012907,0.020240024,-0.06711166,-0.0053263223,-30.96,-48.42,-41.7
1554887729596,6.2488665999999995,-7.2215110000000005,1.4215573000000001,0.00958738,-0.06178534,0.0010652645,-31.14,-48.54,-41.64
1554887729615,6.354211299999999,-7.2789717000000005,1.38325,0.0,-0.036218993,0.010652645,-31.26,-48.72,-41.58
1554887729636,6.2632318,-7.417835,1.3305776000000002,0.0031957934000000003,0.0063915867,0.015978966,-31.5,-49.08,-41.46
1554887729655,6.066907,-7.3460092999999995,1.2348095,0.029827405,0.033023197000000004,0.022370555,-31.74,-49.44,-41.34
1554887729675,6.0956373,-7.4034699999999996,1.1773487,0.040480047000000005,0.036218993,0.033023197000000004,-31.92,-49.74,-41.22
1554887729695,6.196194,-7.4465656000000005,1.2348095,0.02130529,0.053263225,0.034088463,-32.04,-50.04,-41.1
1554887729716,6.081272,-7.49445,1.4502877,-0.004261058,0.07776430000000001,0.049002163,-32.16,-50.28,-40.98
1554887729735,6.1626754,-7.566275999999999,1.2108675,-0.011717908999999999,0.101200126,0.058589544,-32.28,-50.52,-40.86
1554887729756,6.047753299999999,-7.647678999999999,1.4263457,0.0,0.11717909,0.06391586,-32.34,-50.64,-40.8
1554887729775,6.0046577,-7.705139599999999,1.4885948999999998,0.011717908999999999,0.13102753,0.06711166,-32.46,-50.76,-40.74
1554887729796,5.9807158,-7.6285253,1.5173253,0.012783173500000002,0.128897,0.06604639400000001,-32.4,-50.76,-40.74
1554887729815,5.8562174,-7.542333999999999,1.4502877,0.007456851,0.11717909,0.07030745599999999,-32.4,-50.76,-40.8
1554887729835,5.8562174,-7.5710645,1.6130934,-0.0063915867,0.094808534,0.07563378,-32.34,-50.82,-40.86
1554887729855,5.8849480000000005,-7.4896617,1.7471686999999998,-0.023435817999999997,0.06924219,0.07137272,-32.16,-50.7,-40.92
1554887729876,5.8322754,-7.4992385,1.7184383,-0.03195793,0.051132694000000006,0.06924219,-32.04,-50.34,-41.04
1554887729895,5.942408599999999,-7.5710645,1.8142063999999998,-0.046871635999999994,0.02876214,0.07243799,-31.92,-49.98,-41.1
1554887729915,5.8945246,-7.671621000000001,1.5747862,-0.039414786,0.017044231,0.06604639400000001,-31.8,-49.62,-41.16
1554887729935,6.023811299999999,-7.781753999999999,1.7088615000000003,-0.03089267,0.0031957934000000003,0.058589544,-31.68,-49.2,-41.28
1554887729955,5.9807158,-7.705139599999999,1.5316905,-0.026631612000000002,0.0010652645,0.054328485999999995,-31.56,-48.84,-41.34
1554887729976,5.971139,-7.6428905,1.3736732,-0.01917476,0.007456851,0.05219796,-31.5,-48.54,-41.4
1554887729995,6.066907,-7.6285253,1.359308,-0.02130529,0.0053263223,0.049002163,-31.5,-48.24,-41.4
1554887730015,6.0046577,-7.484873299999999,1.4119805,-0.037284255,0.013848438000000001,0.04261058,-31.56,-48.18,-41.4
1554887730035,5.9807158,-7.5950065,1.4981716999999999,-0.06391586,0.022370555,0.03089267,-31.62,-48.24,-41.34
1554887730055,6.042965000000001,-7.6333137,1.3305776000000002,-0.082025364,0.035153727999999995,0.018109497,-31.68,-48.24,-41.34
1554887730075,6.191406,-7.743447,1.3449427999999999,-0.05965481,0.05006743,0.0031957934000000003,-31.74,-48.12,-41.28
1554887730095,6.1483099999999995,-7.7769656000000005,1.4502877,-0.03195793,0.07776430000000001,-0.011717908999999999,-31.68,-48.06,-41.28
1554887730115,5.9998693,-7.5758529999999995,1.2252326999999998,-0.023435817999999997,0.094808534,-0.02130529,-31.68,-47.94,-41.22
1554887730135,5.9184665999999995,-7.475296000000001,1.3162124,-0.043675844000000005,0.096939065,-0.035153727999999995,-31.68,-47.76,-41.22
1554887730155,5.861006,-7.422623599999999,1.4981716999999999,-0.080960095,0.08948222,-0.047936900000000005,-31.56,-47.58,-41.16
1554887730175,5.861006,-7.5375457,1.5316905,-0.11824436,0.083090626,-0.05752428,-31.5,-47.34,-41.16
1554887730195,5.8801594,-7.6045833,1.6178818000000001,-0.13102753,0.07563378,-0.06604639400000001,-31.38,-47.16,-41.16
1554887730215,5.8945246,-7.623736999999999,1.7136499,-0.13315806,0.07456851,-0.07350325,-31.32,-47.04,-41.22
1554887730235,5.971139,-7.6668324000000005,1.5795746000000002,-0.128897,0.07243799,-0.07563378,-31.2,-46.98,-41.28
1554887730255,5.7987566,-7.6907744000000005,1.6418238,-0.113983296,0.06924219,-0.07563378,-31.14,-46.86,-41.28
1554887730276,5.803545,-7.743447,1.6226702,-0.10652645,0.05219796,-0.07669904,-30.96,-46.74,-41.28
1554887730295,5.8466406,-7.685986,1.7184383,-0.09054748,0.049002163,-0.07882957,-30.9,-46.74,-41.28
1554887730315,6.0142345,-7.7386584,1.7663223000000001,-0.046871635999999994,0.037284255,-0.07563378,-30.78,-46.74,-41.34
1554887730336,6.0333879999999995,-7.6764092,1.7040731,-0.022370555,0.033023197000000004,-0.07563378,-30.72,-46.74,-41.34
1554887730355,6.0142345,-7.5183919999999995,1.632247,0.004261058,0.034088463,-0.08735169,-30.66,-46.92,-41.34
1554887730375,6.0525417,-7.5758529999999995,1.5604209999999998,-0.0031957934000000003,0.03195793,-0.094808534,-30.6,-47.04,-41.34
1554887730396,5.971139,-7.527969000000001,1.7136499,-0.022370555,0.034088463,-0.10865697,-30.54,-47.22,-41.34
1554887730415,6.0333879999999995,-7.5375457,1.7711107,-0.02130529,0.03834952,-0.112918034,-30.6,-47.4,-41.34
1554887730435,5.93762,-7.599794999999999,1.7950528000000001,-0.018109497,0.033023197000000004,-0.113983296,-30.6,-47.52,-41.34
1554887730455,6.0285997,-7.4705076,1.6178818000000001,-0.02130529,0.025566347000000003,-0.11611383,-30.66,-47.7,-41.34
1554887730475,5.93762,-7.4896617,1.6370354,-0.025566347000000003,0.018109497,-0.11611383,-30.72,-48.0,-41.34
1554887730496,5.9567738,-7.599794999999999,1.632247,-0.015978966,-0.0010652645,-0.112918034,-30.78,-48.18,-41.34
1554887730515,5.865794,-7.422623599999999,1.6418238,0.0031957934000000003,-0.015978966,-0.10652645,-30.84,-48.36,-41.34
1554887730535,6.0333879999999995,-7.4705076,1.6705543,0.02130529,-0.026631612000000002,-0.101200126,-30.9,-48.54,-41.34
1554887730555,6.019023000000001,-7.4322004,1.5699978,0.035153727999999995,-0.039414786,-0.098004326,-30.96,-48.72,-41.4
1554887730575,6.0860605,-7.4274119999999995,1.7088615000000003,0.054328485999999995,-0.056459017,-0.09161274,-30.96,-48.9,-41.52
1554887730596,6.1243677000000005,-7.4992385,1.5795746000000002,0.084155895,-0.060720075,-0.083090626,-31.02,-49.08,-41.7
1554887730615,6.1100025,-7.3603745,1.5652093999999999,0.094808534,-0.06178534,-0.07989483,-31.02,-49.2,-41.82
1554887730635,6.0333879999999995,-7.2741833,1.6226702,0.08628642,-0.06604639400000001,-0.07030745599999999,-31.02,-49.2,-42.0
1554887730656,6.143522,-7.317278999999999,1.3688848,0.07137272,-0.06604639400000001,-0.054328485999999995,-31.08,-49.26,-42.12
1554887730675,6.05733,-7.379528,1.5077485000000002,0.07882957,-0.06178534,-0.04474111,-31.08,-49.32,-42.24
1554887730695,6.1626754,-7.3268557,1.4790181,0.096939065,-0.053263225,-0.026631612000000002,-31.14,-49.38,-42.3
1554887730716,6.2105594,-7.178415299999999,1.3545196000000002,0.101200126,-0.043675844000000005,-0.017044231,-31.14,-49.44,-42.36
1554887730735,6.2057709999999995,-7.2262993,1.4646529,0.09054748,-0.024501082,-0.004261058,-31.2,-49.5,-42.3
1554887730755,6.133945,-7.16405,1.3736732,0.05965481,-0.00958738,0.0,-31.2,-49.56,-42.24
1554887730775,6.272808599999999,-7.149685000000001,1.2779051000000001,0.014913702,0.0063915867,0.002130529,-31.2,-49.62,-42.12
1554887730795,6.2871737,-7.2741833,1.4359225,-0.024501082,0.022370555,0.007456851,-31.14,-49.62,-42.06
1554887730815,6.1818290000000005,-7.3699512,1.5173253,-0.037284255,0.033023197000000004,0.011717908999999999,-31.08,-49.56,-42.0
1554887730835,6.1866174,-7.3460092999999995,1.4024036,-0.03834952,0.039414786,0.015978966,-31.02,-49.44,-41.94
1554887730855,6.229712999999999,-7.2502413,1.4502877,-0.043675844000000005,0.037284255,0.014913702,-30.96,-49.26,-41.94
1554887730875,6.172251999999999,-7.2023573,1.4359225,-0.07030745599999999,0.03834952,0.012783173500000002,-30.9,-49.14,-41.94
1554887730896,6.066907,-7.451353999999999,1.5652093999999999,-0.09374327,0.03089267,0.014913702,-30.84,-49.02,-41.88
1554887730915,6.1578870000000006,-7.504027000000001,1.5269021,-0.08841695,0.027696876000000002,0.011717908999999999,-30.78,-48.84,-41.88
1554887730935,6.1100025,-7.4465656000000005,1.6083049999999999,-0.06604639400000001,0.015978966,0.014913702,-30.78,-48.66,-41.88
1554887730955,6.047753299999999,-7.5710645,1.632247,-0.04261058,0.0031957934000000003,0.01917476,-30.84,-48.42,-41.88
1554887730976,6.0285997,-7.561487700000001,1.6753427,-0.01917476,-0.012783173500000002,0.02130529,-30.9,-48.24,-41.88
1554887730995,6.0764837,-7.566275999999999,1.6370354,0.0010652645,-0.022370555,0.024501082,-30.9,-48.12,-41.88
1554887731016,6.1387334000000005,-7.4609309999999995,1.3736732,0.015978966,-0.033023197000000004,0.020240024,-30.9,-48.0,-41.88
1554887731035,6.1578870000000006,-7.4992385,1.5029601000000001,0.037284255,-0.037284255,0.015978966,-30.96,-47.88,-41.88
1554887731055,6.277597,-7.4992385,1.4694413,0.05752428,-0.029827405,0.013848438000000001,-30.9,-47.82,-41.76
1554887731075,6.172251999999999,-7.3843164,1.4263457,0.058589544,-0.015978966,0.010652645,-30.9,-47.7,-41.7
1554887731095,6.1243677000000005,-7.365163000000001,1.311424,0.043675844000000005,-0.004261058,0.00958738,-30.9,-47.58,-41.64
1554887731116,6.019023000000001,-7.2789717000000005,1.311424,0.015978966,0.02130529,0.010652645,-30.84,-47.4,-41.52
1554887731135,6.100425700000001,-7.4322004,1.4502877,0.0063915867,0.035153727999999995,0.018109497,-30.84,-47.4,-41.52
1554887731155,5.995081,-7.2167225,1.3018471999999999,-0.02130529,0.056459017,0.026631612000000002,-30.84,-47.28,-41.4
1554887731175,5.947197,-7.365163000000001,1.4885948999999998,-0.036218993,0.07030745599999999,0.03089267,-30.78,-47.16,-41.34
1554887731195,6.0525417,-7.5758529999999995,1.5269021,-0.04474111,0.082025364,0.035153727999999995,-30.84,-47.1,-41.28
1554887731215,6.129156,-7.4561424,1.3305776000000002,-0.046871635999999994,0.09374327,0.043675844000000005,-30.84,-47.04,-41.28
1554887731235,6.0285997,-7.49445,1.5125369,-0.05539375,0.098004326,0.037284255,-30.84,-46.98,-41.28
1554887731255,5.93762,-7.4992385,1.5269021,-0.054328485999999995,0.10865697,0.037284255,-30.84,-46.92,-41.28
1554887731276,6.019023000000001,-7.5566993,1.4024036,-0.051132694000000006,0.10546118,0.035153727999999995,-30.84,-46.86,-41.28
1554887731295,6.0764837,-7.5136037,1.5125369,-0.053263225,0.10439592,0.033023197000000004,-30.84,-46.8,-41.34
1554887731315,5.971139,-7.623736999999999,1.5364790000000002,-0.04261058,0.10865697,0.024501082,-30.78,-46.74,-41.4
1554887731335,6.081272,-7.561487700000001,1.4024036,-0.039414786,0.111852765,0.013848438000000001,-30.78,-46.62,-41.52
1554887731355,6.1387334000000005,-7.6907744000000005,1.5891514,-0.05006743,0.11930962,-0.004261058,-30.72,-46.56,-41.58
1554887731375,6.081272,-7.590217999999999,1.5125369,-0.058589544,0.13315806,-0.014913702,-30.66,-46.5,-41.7
1554887731396,6.0621184999999995,-7.6428905,1.632247,-0.06711166,0.14807177,-0.03195793,-30.66,-46.5,-41.76
1554887731415,5.971139,-7.6524673,1.6753427,-0.060720075,0.15126756,-0.04580637,-30.6,-46.56,-41.82
1554887731436,5.961562000000001,-7.4705076,1.5747862,-0.04580637,0.15446335,-0.047936900000000005,-30.54,-46.56,-41.88
1554887731455,5.8705826,-7.5519110000000005,1.5699978,-0.047936900000000005,0.15446335,-0.051132694000000006,-30.42,-46.56,-41.94
1554887731475,5.975927400000001,-7.504027000000001,1.5364790000000002,-0.054328485999999995,0.15233281,-0.053263225,-30.3,-46.56,-41.94
1554887731495,5.8705826,-7.4609309999999995,1.7280151000000001,-0.07882957,0.15659387,-0.053263225,-30.18,-46.56,-41.88
1554887731515,5.899312999999999,-7.49445,1.6801311,-0.09054748,0.15659387,-0.05539375,-30.12,-46.56,-41.88
1554887731535,5.9280434,-7.5471225,1.7136499,-0.10865697,0.15978967,-0.05539375,-29.94,-46.5,-41.88
1554887731555,5.837064,-7.527969000000001,1.7040731,-0.10546118,0.16298546,-0.054328485999999995,-29.82,-46.44,-41.88
1554887731575,5.841851999999999,-7.5566993,1.6226702,-0.10226539,0.16405073,-0.051132694000000006,-29.7,-46.32,-41.88
1554887731595,5.8466406,-7.5183919999999995,1.5556326,-0.09374327,0.15765914,-0.040480047000000005,-29.64,-46.26,-41.88
1554887731615,5.8083334,-7.566275999999999,1.5364790000000002,-0.09054748,0.15552860000000002,-0.037284255,-29.58,-46.2,-41.94
1554887731635,5.8322754,-7.527969000000001,1.6944963,-0.08841695,0.15978967,-0.036218993,-29.58,-46.14,-42.0
1554887731655,5.774814599999999,-7.5327573,1.6561891,-0.09054748,0.15446335,-0.027696876000000002,-29.58,-46.14,-42.06
1554887731675,5.78918,-7.508815299999999,1.8620903000000002,-0.10652645,0.15446335,-0.025566347000000003,-29.64,-46.14,-42.12
1554887731696,5.774814599999999,-7.6428905,1.8668787,-0.12570119999999999,0.15233281,-0.02130529,-29.64,-46.14,-42.18
1554887731715,5.7365074,-7.6093717000000005,1.7806876,-0.11824436,0.15126756,-0.015978966,-29.7,-46.2,-42.24
1554887731735,5.66947,-7.647678999999999,1.9482816000000003,-0.094808534,0.13635385,-0.008522116,-29.7,-46.2,-42.3
1554887731755,5.741296,-7.685986,1.7232267,-0.07243799,0.13635385,-0.011717908999999999,-29.7,-46.14,-42.42
1554887731775,5.765238,-7.6093717000000005,1.8477252,-0.06391586,0.12676647,-0.00958738,-29.64,-46.14,-42.48
1554887731795,5.774814599999999,-7.6333137,1.8381484000000001,-0.06498113,0.11930962,-0.00958738,-29.58,-46.08,-42.54
1554887731815,5.659893,-7.647678999999999,1.7902644,-0.07776430000000001,0.10439592,-0.012783173500000002,-29.52,-46.08,-42.54
1554887731835,5.6407394,-7.647678999999999,1.8333599999999999,-0.06924219,0.08628642,-0.0053263223,-29.46,-46.02,-42.6
1554887731856,5.659893,-7.7147164,1.8429368000000002,-0.053263225,0.06498113,0.0010652645,-29.4,-45.96,-42.66
1554887731875,5.650316,-7.724292999999999,1.9434932,-0.041545313,0.056459017,0.0,-29.34,-45.9,-42.66
1554887731895,5.659893,-7.6093717000000005,1.857302,-0.017044231,0.026631612000000002,0.007456851,-29.22,-45.78,-42.78
1554887731916,5.7365074,-7.6764092,1.7567455,-0.004261058,0.02130529,0.0010652645,-29.1,-45.78,-42.78
1554887731935,5.746084,-7.719505000000001,1.6753427,0.015978966,0.018109497,-0.0031957934000000003,-29.04,-45.72,-42.78
1554887731956,5.765238,-7.6764092,1.9147629000000002,0.035153727999999995,0.008522116,-0.008522116,-28.92,-45.66,-42.84
1554887731975,5.7125654,-7.623736999999999,1.7663223000000001,0.033023197000000004,0.0031957934000000003,-0.018109497,-28.8,-45.6,-42.84
1554887731997,5.659893,-7.6907744000000005,1.6705543,0.02130529,-0.008522116,-0.018109497,-28.62,-45.48,-42.84
1554887732015,5.631162000000001,-7.6285253,1.7663223000000001,0.025566347000000003,-0.01917476,-0.011717908999999999,-28.56,-45.48,-42.84
1554887732035,5.588066599999999,-7.662044,1.8381484000000001,0.037284255,-0.033023197000000004,-0.007456851,-28.56,-45.48,-42.78
1554887732056,5.7029886,-7.5183919999999995,1.7328035,0.034088463,-0.047936900000000005,-0.002130529,-28.62,-45.42,-42.78
1554887732075,5.731719,-7.705139599999999,1.7902644,0.022370555,-0.05752428,0.002130529,-28.62,-45.42,-42.78
1554887732095,5.6790465999999995,-7.7578119999999995,1.7902644,0.024501082,-0.058589544,0.0,-28.68,-45.42,-42.72
1554887732115,5.722142,-7.623736999999999,1.6849195,0.03834952,-0.06391586,0.0010652645,-28.8,-45.36,-42.72
1554887732136,5.650316,-7.5327573,1.7136499,0.043675844000000005,-0.06498113,0.0053263223,-28.92,-45.36,-42.72
1554887732155,5.7843914000000005,-7.590217999999999,1.6418238,0.03089267,-0.06711166,0.0031957934000000003,-28.98,-45.3,-42.72
1554887732175,5.750872599999999,-7.685986,1.7567455,0.029827405,-0.06604639400000001,-0.004261058,-29.1,-45.24,-42.72
1554887732195,5.674258,-7.7147164,1.6274586000000002,0.020240024,-0.06285059999999999,-0.0063915867,-29.1,-45.12,-42.72
1554887732215,5.717354,-7.6764092,1.7280151000000001,0.015978966,-0.06178534,-0.012783173500000002,-29.04,-45.0,-42.72
1554887732235,5.7843914000000005,-7.7386584,1.7136499,0.015978966,-0.07030745599999999,-0.014913702,-28.98,-44.88,-42.72
1554887732256,5.645528,-7.5375457,1.5795746000000002,0.014913702,-0.06498113,-0.02130529,-28.98,-44.76,-42.72
1554887732275,5.6982,-7.480085000000001,1.4885948999999998,-0.008522116,-0.068176925,-0.02130529,-28.92,-44.58,-42.72
1554887732295,5.813122,-7.5710645,1.4407108999999998,-0.06924219,-0.07030745599999999,-0.015978966,-28.86,-44.46,-42.72
1554887732315,5.7939680000000005,-7.844003,1.584363,-0.09161274,-0.07030745599999999,-0.02130529,-28.8,-44.34,-42.72
1554887732335,5.760449400000001,-7.848791599999999,1.5939398,-0.05219796,-0.06604639400000001,-0.017044231,-28.8,-44.22,-42.78
1554887732355,5.717354,-7.867945,1.5795746000000002,0.02130529,-0.05752428,-0.015978966,-28.74,-44.1,-42.78
1554887732376,5.741296,-7.662044,1.5269021,0.049002163,-0.046871635999999994,-0.01917476,-28.74,-43.98,-42.78
1554887732395,5.803545,-7.599794999999999,1.4790181,0.04261058,-0.039414786,-0.02130529,-28.74,-43.92,-42.84
1554887732415,5.774814599999999,-7.6524673,1.4838065,0.020240024,-0.02876214,-0.024501082,-28.8,-43.92,-42.84
1554887732435,5.726930599999999,-7.5758529999999995,1.7711107,0.0063915867,-0.01917476,-0.023435817999999997,-28.8,-43.92,-42.9
1554887732455,5.750872599999999,-7.662044,1.5412674,0.004261058,-0.017044231,-0.020240024,-28.74,-43.92,-42.9
1554887732475,5.8466406,-7.623736999999999,1.4790181,0.012783173500000002,-0.00958738,-0.014913702,-28.68,-43.92,-42.9
1554887732495,5.664681400000001,-7.705139599999999,1.6178818000000001,0.018109497,-0.0063915867,-0.007456851,-28.62,-43.86,-42.84
1554887732516,5.6886234,-7.671621000000001,1.7854759999999998,0.00958738,-0.0031957934000000003,-0.0031957934000000003,-28.56,-43.86,-42.84
1554887732535,5.7939680000000005,-7.73387,1.7328035,0.008522116,-0.0053263223,0.0,-28.5,-43.86,-42.84
1554887732555,5.717354,-7.6572556,1.6370354,0.007456851,-0.0063915867,0.0,-28.44,-43.86,-42.84
1554887732575,5.722142,-7.6189485,1.5173253,0.014913702,-0.00958738,0.004261058,-28.38,-43.86,-42.78
1554887732595,5.7843914000000005,-7.6189485,1.5316905,0.002130529,-0.015978966,-0.0010652645,-28.32,-43.86,-42.78
1554887732616,5.7700260000000005,-7.623736999999999,1.5221136999999998,-0.0031957934000000003,-0.02130529,-0.004261058,-28.38,-43.92,-42.78
1554887732635,5.659893,-7.772177,1.6226702,0.0010652645,-0.02876214,-0.0031957934000000003,-28.38,-43.92,-42.72
1554887732655,5.7365074,-7.685986,1.5364790000000002,0.010652645,-0.029827405,0.0,-28.38,-43.92,-42.72
1554887732675,5.755661,-7.767389,1.6753427,0.022370555,-0.03089267,-0.0031957934000000003,-28.44,-43.92,-42.72
1554887732695,5.7700260000000005,-7.6668324000000005,1.6849195,0.03089267,-0.029827405,-0.0053263223,-28.44,-43.92,-42.72
1554887732715,5.7843914000000005,-7.623736999999999,1.5747862,0.022370555,-0.026631612000000002,-0.0063915867,-28.5,-43.92,-42.72
1554887732735,5.7365074,-7.6668324000000005,1.5891514,0.023435817999999997,-0.023435817999999997,-0.012783173500000002,-28.56,-43.92,-42.66
1554887732755,5.837064,-7.7865424,1.5412674,0.022370555,-0.023435817999999997,-0.012783173500000002,-28.62,-43.92,-42.72
1554887732775,5.7125654,-7.6764092,1.7615339,0.027696876000000002,-0.015978966,-0.013848438000000001,-28.68,-43.92,-42.72
1554887732795,5.755661,-7.7386584,1.6561891,0.043675844000000005,-0.011717908999999999,-0.011717908999999999,-28.74,-43.92,-42.72
1554887732815,5.717354,-7.7003509999999995,1.4215573000000001,0.047936900000000005,-0.008522116,-0.014913702,-28.86,-43.92,-42.78
1554887732835,5.7939680000000005,-7.767389,1.407192,0.040480047000000005,-0.0063915867,-0.018109497,-28.98,-43.92,-42.78
1554887732856,5.750872599999999,-7.743447,1.5652093999999999,0.03834952,-0.007456851,-0.026631612000000002,-29.1,-43.92,-42.72
1554887732875,5.7365074,-7.6333137,1.5173253,0.040480047000000005,-0.00958738,-0.026631612000000002,-29.16,-43.92,-42.72
1554887732898,5.693412,-7.6524673,1.7423803,0.03834952,-0.00958738,-0.025566347000000003,-29.22,-43.98,-42.66
1554887732916,5.6407394,-7.5758529999999995,1.6705543,0.039414786,-0.012783173500000002,-0.02130529,-29.22,-43.98,-42.66
1554887732935,5.750872599999999,-7.705139599999999,1.7280151000000001,0.029827405,-0.022370555,-0.01917476,-29.28,-44.04,-42.6
1554887732955,5.765238,-7.743447,1.6561891,0.015978966,-0.017044231,-0.01917476,-29.28,-44.1,-42.6
1554887732975,5.650316,-7.6907744000000005,1.6418238,0.023435817999999997,-0.02130529,-0.015978966,-29.28,-44.16,-42.54
1554887732995,5.7029886,-7.5471225,1.6083049999999999,0.035153727999999995,-0.020240024,-0.015978966,-29.28,-44.28,-42.54
1554887733015,5.6407394,-7.681197599999999,1.5699978,0.022370555,-0.014913702,-0.020240024,-29.34,-44.52,-42.54
1554887733036,5.659893,-7.685986,1.5891514,-0.0010652645,-0.018109497,-0.02130529,-29.34,-44.7,-42.54
1554887733055,5.7125654,-7.6093717000000005,1.6657659,-0.013848438000000001,-0.017044231,-0.020240024,-29.4,-44.88,-42.54
1554887733075,5.650316,-7.685986,1.5125369,-0.011717908999999999,-0.024501082,-0.020240024,-29.46,-45.0,-42.54
1554887733095,5.6790465999999995,-7.7386584,1.7088615000000003,-0.00958738,-0.023435817999999997,-0.017044231,-29.46,-45.12,-42.54
1554887733115,5.755661,-7.7626004,1.7567455,-0.004261058,-0.02876214,-0.022370555,-29.52,-45.18,-42.54
1554887733135,5.760449400000001,-7.8104844,1.7232267,0.017044231,-0.025566347000000003,-0.017044231,-29.52,-45.24,-42.48
1554887733156,5.645528,-7.7865424,1.6944963,0.02876214,-0.025566347000000003,-0.01917476,-29.52,-45.18,-42.42
1554887733175,5.717354,-7.5710645,1.6561891,0.03195793,-0.03089267,-0.017044231,-29.46,-45.06,-42.42
1554887733195,5.750872599999999,-7.681197599999999,1.7280151000000001,0.026631612000000002,-0.034088463,-0.017044231,-29.4,-44.94,-42.42
1554887733215,5.659893,-7.6668324000000005,1.7184383,0.024501082,-0.023435817999999997,-0.018109497,-29.4,-44.88,-42.42
1554887733236,5.7365074,-7.671621000000001,1.6514006,0.025566347000000003,-0.017044231,-0.015978966,-29.34,-44.82,-42.42
1554887733256,5.750872599999999,-7.681197599999999,1.6944963,0.01917476,-0.017044231,-0.015978966,-29.28,-44.76,-42.48
1554887733275,5.774814599999999,-7.662044,1.5604209999999998,0.025566347000000003,-0.013848438000000001,-0.011717908999999999,-29.28,-44.76,-42.42
1554887733295,5.7029886,-7.5950065,1.5364790000000002,0.025566347000000003,-0.008522116,-0.008522116,-29.22,-44.76,-42.36
1554887733315,5.645528,-7.590217999999999,1.6561891,0.012783173500000002,-0.004261058,-0.0010652645,-29.22,-44.76,-42.36
1554887733335,5.66947,-7.6428905,1.6418238,-0.0063915867,-0.00958738,0.0031957934000000003,-29.22,-44.82,-42.3
1554887733355,5.612008599999999,-7.6907744000000005,1.7902644,-0.0053263223,-0.0063915867,0.00958738,-29.22,-44.82,-42.3
1554887733375,5.722142,-7.6189485,1.6370354,-0.0053263223,0.0,0.017044231,-29.22,-44.82,-42.24
1554887733395,5.7365074,-7.7147164,1.5795746000000002,-0.007456851,0.007456851,0.020240024,-29.28,-44.88,-42.18
1554887733415,5.717354,-7.685986,1.5412674,-0.0031957934000000003,0.015978966,0.02876214,-29.34,-44.88,-42.18
1554887733435,5.6886234,-7.7626004,1.5556326,-0.007456851,0.033023197000000004,0.035153727999999995,-29.4,-44.88,-42.24
1554887733456,5.616797,-7.73387,1.5173253,-0.0063915867,0.043675844000000005,0.04261058,-29.46,-44.82,-42.24
1554887733475,5.659893,-7.6524673,1.4311341,0.0010652645,0.058589544,0.04261058,-29.58,-44.76,-42.3
1554887733495,5.7125654,-7.7386584,1.5508442,-0.0053263223,0.06924219,0.034088463,-29.58,-44.64,-42.3
1554887733515,5.6407394,-7.7147164,1.6561891,-0.02876214,0.07882957,0.03089267,-29.58,-44.58,-42.3
1554887733535,5.626374,-7.9062524000000005,1.7663223000000001,-0.040480047000000005,0.082025364,0.023435817999999997,-29.58,-44.52,-42.3
1554887733555,5.659893,-7.844003,1.5412674,-0.035153727999999995,0.084155895,0.022370555,-29.58,-44.46,-42.36
1554887733576,5.626374,-7.8152729999999995,1.6609775000000002,-0.029827405,0.080960095,0.022370555,-29.52,-44.46,-42.36
1554887733595,5.5737014,-7.781753999999999,1.7040731,-0.014913702,0.07669904,0.018109497,-29.46,-44.4,-42.36
1554887733615,5.583278,-7.709928,1.6274586000000002,-0.018109497,0.07137272,0.015978966,-29.4,-44.4,-42.3
1554887733635,5.530606,-7.662044,1.4694413,-0.043675844000000005,0.06285059999999999,0.01917476,-29.34,-44.46,-42.3
1554887733655,5.588066599999999,-7.724292999999999,1.5556326,-0.09267801,0.060720075,0.017044231,-29.28,-44.46,-42.36
1554887733675,5.664681400000001,-7.901464,1.5604209999999998,-0.111852765,0.06178534,0.00958738,-29.22,-44.46,-42.42
1554887733695,5.5162406,-8.116942,1.5795746000000002,-0.084155895,0.06924219,0.008522116,-29.16,-44.46,-42.54
1554887733716,5.592855,-8.025963,1.6705543,-0.037284255,0.07669904,0.004261058,-29.1,-44.4,-42.6
1554887733735,5.60722,-7.911041,1.6944963,-0.008522116,0.07776430000000001,0.0031957934000000003,-28.98,-44.34,-42.66
1554887733755,5.511451999999999,-7.844003,1.5221136999999998,-0.008522116,0.07456851,-0.0010652645,-28.86,-44.22,-42.72
1554887733775,5.568912999999999,-7.85358,1.6514006,-0.010652645,0.07030745599999999,-0.002130529,-28.74,-44.04,-42.78
1554887733795,5.4922986,-7.8248496,1.7088615000000003,-0.0063915867,0.060720075,-0.008522116,-28.62,-43.92,-42.84
1554887733815,5.420472599999999,-7.719505000000001,1.7711107,-0.012783173500000002,0.043675844000000005,-0.010652645,-28.62,-43.86,-42.84
1554887733836,5.434838,-7.867945,1.7663223000000001,-0.023435817999999997,0.03195793,-0.013848438000000001,-28.56,-43.68,-42.84
1554887733855,5.415684,-7.848791599999999,1.6609775000000002,-0.026631612000000002,0.018109497,-0.012783173500000002,-28.5,-43.62,-42.84
1554887733875,5.5018754,-7.887099,1.7663223000000001,-0.013848438000000001,0.011717908999999999,-0.012783173500000002,-28.5,-43.5,-42.84
1554887733895,5.5737014,-7.834426400000001,1.6514006,-0.007456851,0.012783173500000002,-0.013848438000000001,-28.5,-43.5,-42.84
1554887733915,5.535394,-7.891887,1.5891514,0.010652645,0.02130529,-0.011717908999999999,-28.56,-43.5,-42.78
1554887733935,5.4922986,-7.844003,1.4598645000000001,0.010652645,0.024501082,-0.012783173500000002,-28.62,-43.62,-42.78
1554887733956,5.415684,-7.8152729999999995,1.5125369,-0.0031957934000000003,0.029827405,-0.010652645,-28.74,-43.68,-42.78
1554887733975,5.430049400000001,-7.8009076,1.6561891,-0.02876214,0.033023197000000004,-0.011717908999999999,-28.8,-43.8,-42.78
1554887733995,5.444414599999999,-7.839214999999999,1.7328035,-0.046871635999999994,0.040480047000000005,-0.012783173500000002,-28.86,-43.86,-42.78
1554887734015,5.449203,-7.911041,1.6370354,-0.054328485999999995,0.046871635999999994,-0.013848438000000001,-28.86,-43.86,-42.78
1554887734035,5.4922986,-7.8104844,1.7136499,-0.046871635999999994,0.051132694000000006,-0.007456851,-28.86,-43.8,-42.72
1554887734055,5.4061074,-7.901464,1.5795746000000002,-0.051132694000000006,0.049002163,-0.008522116,-28.92,-43.8,-42.72
1554887734075,5.401319,-7.9541364,1.6418238,-0.06178534,0.049002163,-0.0063915867,-28.92,-43.74,-42.72
1554887734096,5.334281400000001,-7.820061,1.7040731,-0.06711166,0.05539375,-0.004261058,-28.92,-43.8,-42.6
1554887734115,5.425261,-7.891887,1.7232267,-0.08841695,0.05965481,-0.0010652645,-28.86,-43.86,-42.54
1554887734136,5.334281400000001,-7.915829,1.7136499,-0.10226539,0.06285059999999999,0.0031957934000000003,-28.86,-43.98,-42.48
1554887734156,5.386954,-7.992444,1.5316905,-0.09374327,0.056459017,0.0,-28.86,-44.16,-42.42
1554887734175,5.521029,-8.102577,1.4981716999999999,-0.07456851,0.06391586,-0.0031957934000000003,-28.86,-44.46,-42.36
1554887734195,5.5497594,-8.002021000000001,1.6083049999999999,-0.054328485999999995,0.06498113,-0.010652645,-28.92,-44.82,-42.36
1554887734215,5.430049400000001,-7.9541364,1.6753427,-0.040480047000000005,0.068176925,-0.01917476,-29.1,-45.18,-42.36
1554887734235,5.4779334,-7.997232400000001,1.5652093999999999,-0.036218993,0.06498113,-0.026631612000000002,-29.22,-45.54,-42.36
1554887734255,5.4061074,-7.968502,1.5508442,-0.041545313,0.049002163,-0.036218993,-29.34,-45.78,-42.48
1554887734276,5.3247046,-7.9876556,1.6083049999999999,-0.033023197000000004,0.03089267,-0.041545313,-29.52,-46.08,-42.54
1554887734295,5.343858200000001,-7.997232400000001,1.5939398,-0.018109497,0.017044231,-0.04474111,-29.7,-46.26,-42.6
1554887734315,5.3247046,-7.872733599999999,1.7088615000000003,-0.012783173500000002,0.0063915867,-0.043675844000000005,-29.82,-46.38,-42.66
1554887734335,5.319916200000001,-7.9062524000000005,1.7711107,-0.004261058,0.0,-0.040480047000000005,-29.94,-46.44,-42.72
1554887734355,5.2145715,-7.915829,1.5125369,-0.007456851,-0.014913702,-0.034088463,-29.88,-46.38,-42.78
