TimeStamp,Ax,Ay,Az,Gx,Gy,Gz,Mx,My,Mz
1554884125266,9.303867,0.85652566,2.460641,0.024501082,-0.026631612000000002,-0.035153727999999995,-21.24,6.36,3.9
1554884125286,9.361329,0.9379284999999999,2.7335799,0.025566347000000003,-0.04474111,-0.03834952,-21.24,6.3,3.9
1554884125306,9.452309,0.83737206,2.556409,-0.002130529,-0.05752428,-0.037284255,-21.18,6.24,3.9
1554884125327,9.452309,0.789488,2.6809072,-0.03195793,-0.05539375,-0.034088463,-21.18,6.12,3.9
1554884125346,9.409213000000001,0.8182184,2.690484,-0.029827405,-0.051132694000000006,-0.041545313,-21.18,6.12,3.9
1554884125365,9.504980999999999,0.6841431,2.5803509,0.007456851,-0.035153727999999995,-0.04580637,-21.24,6.18,3.9
1554884125385,9.495403999999999,0.7224503999999999,2.5133132999999996,0.03834952,-0.023435817999999997,-0.04474111,-21.24,6.18,3.9
1554884125406,9.394848,0.8996213,2.6378117000000003,0.025566347000000003,-0.015978966,-0.035153727999999995,-21.36,6.3,3.9
1554884125426,9.433155000000001,0.8086416000000001,2.6138697,-0.029827405,-0.012783173500000002,-0.017044231,-21.42,6.36,3.9
1554884125446,9.375694000000001,0.85652566,2.5995044999999997,-0.05965481,-0.0031957934000000003,-0.0063915867,-21.54,6.48,3.9
1554884125465,9.476251,0.83737206,2.690484,-0.05752428,0.010652645,-0.0063915867,-21.66,6.54,3.9
1554884125485,9.404425,0.7224503999999999,2.6952724,-0.020240024,0.027696876000000002,-0.00958738,-21.72,6.6,3.9
1554884125506,9.375694000000001,0.74639237,2.5899277,0.02130529,0.029827405,-0.014913702,-21.72,6.6,3.9
1554884125526,9.428367,0.8900445,2.460641,0.040480047000000005,0.020240024,-0.015978966,-21.72,6.6,3.84
1554884125546,9.260772,0.8230068000000001,2.6378117000000003,0.023435817999999997,0.012783173500000002,-0.015978966,-21.72,6.6,3.84
1554884125566,9.394848,0.87089086,2.7383683,0.0031957934000000003,0.008522116,-0.012783173500000002,-21.6,6.6,3.84
1554884125586,9.394848,0.84216046,2.5420437000000002,0.002130529,0.002130529,-0.017044231,-21.54,6.6,3.84
1554884125605,9.3661175,0.83258367,2.6282349,0.03195793,0.002130529,-0.025566347000000003,-21.42,6.6,3.84
1554884125625,9.313444,0.7751228,2.4462755,0.06285059999999999,-0.0031957934000000003,-0.033023197000000004,-21.36,6.6,3.78
1554884125645,9.323022,0.8996213,2.4941597,0.053263225,-0.018109497,-0.036218993,-21.3,6.6,3.78
1554884125665,9.346964,0.9379284999999999,2.5372553,0.014913702,-0.037284255,-0.033023197000000004,-21.18,6.6,3.78
1554884125686,9.375694000000001,0.84216046,2.3600842999999996,-0.015978966,-0.049002163,-0.029827405,-21.12,6.66,3.78
1554884125705,9.442732000000001,0.7799111999999999,2.5420437000000002,-0.00958738,-0.056459017,-0.03834952,-21.06,6.66,3.78
1554884125725,9.514558000000001,0.8182184,2.5133132999999996,0.017044231,-0.037284255,-0.049002163,-21.06,6.66,3.78
1554884125745,9.270349000000001,0.88525605,2.4366987,0.037284255,-0.033023197000000004,-0.05539375,-21.06,6.66,3.78
1554884125766,9.337387,0.9427169,2.570774,0.022370555,-0.037284255,-0.046871635999999994,-21.06,6.66,3.78
1554884125786,9.404425,0.95229375,2.6426,-0.013848438000000001,-0.04261058,-0.04580637,-21.12,6.66,3.78
1554884125805,9.504980999999999,0.86131406,2.6473885,-0.03834952,-0.035153727999999995,-0.046871635999999994,-21.18,6.66,3.84
1554884125825,9.576807,0.7751228,2.9059622000000003,-0.023435817999999997,-0.015978966,-0.05752428,-21.18,6.6,3.9
1554884125846,9.495403999999999,0.83737206,2.6521769,0.027696876000000002,0.011717908999999999,-0.06604639400000001,-21.24,6.54,3.9
1554884125865,9.303867,0.7799111999999999,2.6473885,0.049002163,0.018109497,-0.06924219,-21.3,6.54,3.96
1554884125885,9.428367,0.9091981,2.6282349,0.041545313,0.007456851,-0.06498113,-21.3,6.48,4.02
1554884125905,9.466674000000001,0.85173726,2.4223334999999997,0.018109497,0.002130529,-0.06285059999999999,-21.36,6.42,4.02
1554884125928,9.433155000000001,0.76554596,2.690484,0.0031957934000000003,0.011717908999999999,-0.06178534,-21.42,6.36,4.02
1554884125945,9.332599,0.7799111999999999,2.5899277,0.018109497,0.015978966,-0.05539375,-21.42,6.36,3.96
1554884125965,9.3182335,0.74639237,2.460641,0.043675844000000005,0.022370555,-0.047936900000000005,-21.36,6.36,3.96
1554884125986,9.279925,0.85652566,2.460641,0.04474111,0.025566347000000003,-0.039414786,-21.36,6.36,3.9
1554884126006,9.3182335,0.81343,2.4462755,0.00958738,0.015978966,-0.024501082,-21.36,6.36,3.84
1554884126026,9.284714,0.741604,2.570774,-0.024501082,0.014913702,-0.004261058,-21.3,6.36,3.84
1554884126046,9.289502,0.789488,2.355296,-0.033023197000000004,0.017044231,0.008522116,-21.3,6.36,3.78
1554884126066,9.385271000000001,0.7128736,2.4271219,-0.002130529,0.015978966,0.022370555,-21.24,6.42,3.78
1554884126086,9.294291000000001,0.7751228,2.4079683,0.039414786,0.01917476,0.03089267,-21.24,6.36,3.78
1554884126106,9.356541,0.7846996,2.4510639,0.033023197000000004,0.0031957934000000003,0.035153727999999995,-21.18,6.36,3.78
1554884126127,9.370906,0.95708215,2.3026235,-0.012783173500000002,-0.020240024,0.04580637,-21.12,6.36,3.78
1554884126145,9.3661175,0.83737206,2.484583,-0.039414786,-0.040480047000000005,0.04474111,-21.12,6.36,3.78
1554884126166,9.394848,0.741604,2.4558525,-0.027696876000000002,-0.05006743,0.035153727999999995,-21.06,6.42,3.84
1554884126186,9.452309,0.7990648,2.5899277,0.01917476,-0.05006743,0.014913702,-21.06,6.42,3.84
1554884126206,9.442732000000001,0.87567925,2.4797945,0.060720075,-0.04474111,-0.0031957934000000003,-21.0,6.54,3.9
1554884126225,9.404425,0.98581254,2.3840263,0.05006743,-0.05219796,-0.013848438000000001,-21.0,6.6,3.9
1554884126245,9.380483,1.0672153999999998,2.5468319999999998,-0.0010652645,-0.058589544,-0.015978966,-21.0,6.66,3.96
1554884126265,9.423578,1.0097545,2.6952724,-0.05539375,-0.06178534,-0.02130529,-20.94,6.78,3.96
1554884126286,9.524135000000001,0.81343,2.6952724,-0.05219796,-0.049002163,-0.033023197000000004,-20.94,6.84,4.02
1554884126306,9.528922999999999,0.789488,2.7431567,0.0063915867,-0.026631612000000002,-0.047936900000000005,-20.94,6.9,4.02
1554884126326,9.452309,0.7799111999999999,2.6856956000000003,0.05219796,-0.02130529,-0.06711166,-20.94,6.96,4.02
1554884126345,9.375694000000001,0.9475053,2.5468319999999998,0.05006743,-0.01917476,-0.06604639400000001,-21.0,6.96,4.02
1554884126366,9.471461999999999,0.8948328999999999,2.6330232999999996,0.00958738,-0.013848438000000001,-0.06391586,-21.0,6.96,3.96
1554884126385,9.442732000000001,0.789488,2.508525,-0.020240024,-0.0053263223,-0.05965481,-21.0,6.9,3.96
1554884126405,9.557653,0.6841431,2.5611973,-0.020240024,0.011717908999999999,-0.05752428,-21.12,6.9,3.9
1554884126426,9.557653,0.74639237,2.6761188999999996,0.022370555,0.029827405,-0.06285059999999999,-21.18,6.9,3.84
1554884126446,9.390058999999999,0.74639237,2.4893713,0.056459017,0.036218993,-0.06498113,-21.18,6.9,3.84
1554884126466,9.227253,0.83258367,2.4223334999999997,0.049002163,0.035153727999999995,-0.05752428,-21.24,6.84,3.84
1554884126486,9.323022,0.87089086,2.3696610000000002,0.008522116,0.03089267,-0.04474111,-21.24,6.84,3.84
1554884126506,9.3661175,0.7703344,2.4941597,-0.025566347000000003,0.029827405,-0.039414786,-21.3,6.84,3.84
1554884126526,9.337387,0.6937199000000001,2.594716,-0.00958738,0.025566347000000003,-0.03834952,-21.3,6.84,3.84
1554884126546,9.390058999999999,0.75596917,2.3983915000000002,0.03089267,0.02130529,-0.039414786,-21.3,6.84,3.84
1554884126566,9.346964,0.8230068000000001,2.4797945,0.053263225,0.00958738,-0.037284255,-21.24,6.78,3.84
1554884126586,9.275136999999999,0.9331401,2.3600842999999996,0.043675844000000005,-0.0010652645,-0.02876214,-21.24,6.78,3.84
1554884126605,9.385271000000001,0.7799111999999999,2.3888147,0.018109497,-0.004261058,-0.01917476,-21.18,6.78,3.84
1554884126626,9.394848,0.8038531999999999,2.4510639,0.0053263223,0.0010652645,-0.017044231,-21.12,6.78,3.84
1554884126646,9.3421755,0.75118077,2.5276785,0.014913702,0.0,-0.014913702,-21.06,6.78,3.84
1554884126666,9.3661175,0.86610246,2.4941597,0.04261058,-0.00958738,-0.0010652645,-21.0,6.72,3.78
1554884126686,9.399636,0.88525605,2.345719,0.04261058,-0.013848438000000001,0.0010652645,-21.0,6.66,3.78
1554884126706,9.414000999999999,0.97144735,2.40318,0.01917476,-0.020240024,-0.0010652645,-20.94,6.6,3.78
1554884126726,9.404425,0.81343,2.379238,0.0063915867,-0.026631612000000002,-0.002130529,-20.94,6.6,3.78
1554884126745,9.390058999999999,0.87089086,2.3936029999999997,0.007456851,-0.022370555,-0.008522116,-20.94,6.54,3.78
1554884126765,9.332599,0.9187749,2.5899277,0.013848438000000001,-0.023435817999999997,-0.0063915867,-20.94,6.48,3.72
1554884126785,9.346964,0.9475053,2.5755625,0.025566347000000003,-0.024501082,-0.007456851,-20.88,6.48,3.72
1554884126807,9.447519999999999,0.95229375,2.570774,0.022370555,-0.02876214,-0.013848438000000001,-20.88,6.48,3.72
1554884126826,9.437942999999999,0.87089086,2.6234465,0.01917476,-0.024501082,-0.020240024,-20.88,6.54,3.66
1554884126846,9.423578,0.9331401,2.4366987,0.013848438000000001,-0.022370555,-0.018109497,-20.88,6.6,3.72
1554884126865,9.514558000000001,0.86131406,2.7623102999999998,-0.0053263223,-0.014913702,-0.020240024,-20.82,6.6,3.72
1554884126886,9.485827,0.8182184,2.5995044999999997,-0.017044231,-0.0010652645,-0.025566347000000003,-20.82,6.6,3.72
1554884126905,9.466674000000001,0.83737206,2.5372553,-0.017044231,0.002130529,-0.026631612000000002,-20.82,6.66,3.78
1554884126925,9.390058999999999,0.83258367,2.4462755,-0.002130529,-0.004261058,-0.023435817999999997,-20.82,6.66,3.78
1554884126945,9.385271000000001,0.83737206,2.5899277,0.010652645,0.004261058,-0.029827405,-20.82,6.72,3.84
1554884126966,9.457097000000001,0.82779527,2.441487,0.007456851,0.0053263223,-0.026631612000000002,-20.88,6.72,3.9
1554884126986,9.337387,0.8900445,2.4702177000000005,-0.0010652645,0.00958738,-0.025566347000000003,-20.94,6.72,3.9
1554884127005,9.3661175,0.8182184,2.4319102999999997,-0.027696876000000002,0.0063915867,-0.02130529,-21.0,6.72,3.84
1554884127025,9.3421755,0.7799111999999999,2.4702177000000005,-0.03195793,0.002130529,-0.017044231,-21.06,6.72,3.78
1554884127045,9.270349000000001,0.7272388000000001,2.4223334999999997,-0.0031957934000000003,-0.002130529,-0.017044231,-21.12,6.66,3.72
1554884127066,9.375694000000001,0.7990648,2.3840263,0.026631612000000002,0.002130529,-0.02130529,-21.12,6.6,3.6
1554884127085,9.323022,0.87567925,2.3600842999999996,0.02876214,0.0010652645,-0.017044231,-21.18,6.48,3.54
1554884127106,9.361329,0.8086416000000001,2.379238,0.0,-0.0063915867,-0.00958738,-21.24,6.36,3.48
1554884127125,9.346964,0.8038531999999999,2.5372553,-0.010652645,-0.008522116,-0.008522116,-21.36,6.18,3.48
1554884127145,9.452309,0.7846996,2.5228900000000003,-0.011717908999999999,-0.014913702,-0.013848438000000001,-21.42,5.94,3.42
1554884127165,9.3661175,0.85173726,2.5037365,-0.002130529,-0.024501082,-0.023435817999999997,-21.54,5.64,3.48
1554884127186,9.41879,0.7751228,2.570774,0.007456851,-0.022370555,-0.034088463,-21.6,5.28,3.48
1554884127205,9.385271000000001,0.86131406,2.40318,0.0053263223,-0.013848438000000001,-0.027696876000000002,-21.66,4.98,3.48
1554884127226,9.399636,0.8086416000000001,2.3888147,-0.011717908999999999,-0.010652645,-0.020240024,-21.78,4.74,3.48
1554884127245,9.414000999999999,0.85173726,2.6138697,-0.03195793,-0.013848438000000001,-0.0063915867,-21.84,4.44,3.48
1554884127265,9.442732000000001,0.717662,2.5899277,-0.040480047000000005,-0.013848438000000001,-0.0063915867,-21.9,4.2,3.54
1554884127285,9.452309,0.7846996,2.5037365,-0.024501082,-0.011717908999999999,-0.023435817999999997,-21.96,3.96,3.54
1554884127306,9.380483,0.8038531999999999,2.460641,-0.036218993,-0.015978966,-0.036218993,-22.02,3.84,3.54
1554884127325,9.452309,0.81343,2.3840263,-0.06178534,-0.024501082,-0.039414786,-22.08,3.72,3.6
1554884127345,9.485827,0.7751228,2.4271219,-0.080960095,-0.036218993,-0.034088463,-22.14,3.72,3.66
1554884127365,9.442732000000001,0.789488,2.5516205000000003,-0.10333065,-0.047936900000000005,-0.034088463,-22.14,3.72,3.72
1554884127385,9.509769,0.6841431,2.4893713,-0.09161274,-0.051132694000000006,-0.036218993,-22.14,3.72,3.84
1554884127405,9.409213000000001,0.6123171,2.5851393,-0.04261058,-0.037284255,-0.04580637,-22.14,3.72,3.96
1554884127425,9.3421755,0.6410475,2.6090812999999997,0.02130529,-0.026631612000000002,-0.054328485999999995,-22.08,3.78,4.02
1554884127445,9.3661175,0.74639237,2.5133132999999996,0.046871635999999994,-0.022370555,-0.05752428,-22.08,3.78,4.08
1554884127465,9.308656,0.83258367,2.441487,0.027696876000000002,-0.03089267,-0.058589544,-22.08,3.84,4.14
1554884127485,9.433155000000001,0.7224503999999999,2.532467,-0.012783173500000002,-0.039414786,-0.05752428,-22.08,3.84,4.2
1554884127506,9.461885,0.76554596,2.498948,-0.043675844000000005,-0.03089267,-0.060720075,-22.08,3.84,4.26
1554884127525,9.409213000000001,0.6697779,2.4079683,-0.039414786,-0.023435817999999997,-0.043675844000000005,-22.14,3.78,4.26
1554884127545,9.385271000000001,0.5883751,2.4271219,-0.0031957934000000003,-0.012783173500000002,-0.025566347000000003,-22.2,3.78,4.32
1554884127565,9.337387,0.7703344,2.3696610000000002,0.026631612000000002,-0.008522116,-0.022370555,-22.26,3.72,4.32
1554884127585,9.394848,0.76554596,2.508525,0.034088463,-0.012783173500000002,-0.013848438000000001,-22.32,3.78,4.32
1554884127606,9.428367,0.8038531999999999,2.3983915000000002,0.015978966,-0.011717908999999999,-0.0063915867,-22.32,3.78,4.32
1554884127625,9.461885,0.717662,2.5372553,-0.012783173500000002,-0.00958738,-0.0063915867,-22.32,3.84,4.32
1554884127645,9.423578,0.7751228,2.460641,-0.022370555,-0.017044231,-0.013848438000000001,-22.32,3.84,4.32
1554884127666,9.437942999999999,0.7224503999999999,2.3936029999999997,-0.010652645,-0.023435817999999997,-0.020240024,-22.26,3.9,4.32
1554884127685,9.414000999999999,0.7320272,2.6090812999999997,0.007456851,-0.022370555,-0.02130529,-22.26,3.9,4.26
1554884127705,9.399636,0.7703344,2.4510639,0.027696876000000002,-0.020240024,-0.023435817999999997,-22.26,3.96,4.26
1554884127726,9.452309,0.7751228,2.3409307,0.034088463,-0.007456851,-0.026631612000000002,-22.26,3.96,4.26
1554884127750,9.528922999999999,0.76075757,2.5420437000000002,0.013848438000000001,-0.0053263223,-0.026631612000000002,-22.26,4.08,4.26
1554884127765,9.380483,0.83258367,2.355296,0.0031957934000000003,-0.008522116,-0.027696876000000002,-22.2,4.14,4.26
1554884127785,9.495403999999999,0.7799111999999999,2.5611973,-0.017044231,-0.00958738,-0.029827405,-22.14,4.14,4.2
1554884127805,9.404425,0.8038531999999999,2.4558525,-0.024501082,-0.008522116,-0.03195793,-21.96,4.14,4.2
1554884127826,9.471461999999999,0.76554596,2.7144263,-0.01917476,-0.004261058,-0.034088463,-21.9,4.08,4.26
1554884127845,9.495403999999999,0.75118077,2.5276785,-0.008522116,-0.002130529,-0.036218993,-21.84,4.02,4.26
1554884127865,9.466674000000001,0.7128736,2.417545,-0.0053263223,-0.0010652645,-0.039414786,-21.72,3.96,4.26
1554884127885,9.461885,0.741604,2.498948,-0.0053263223,0.0053263223,-0.043675844000000005,-21.66,3.9,4.32
1554884127905,9.452309,0.65541273,2.5276785,0.0,0.0010652645,-0.04474111,-21.6,3.72,4.32
1554884127925,9.423578,0.7799111999999999,2.40318,0.002130529,-0.007456851,-0.04580637,-21.66,3.6,4.32
1554884127945,9.390058999999999,0.7320272,2.3936029999999997,0.0053263223,-0.012783173500000002,-0.041545313,-21.72,3.42,4.38
1554884127965,9.466674000000001,0.7990648,2.4223334999999997,0.007456851,-0.007456851,-0.035153727999999995,-21.78,3.36,4.38
1554884127985,9.303867,0.6937199000000001,2.4558525,0.010652645,-0.010652645,-0.03195793,-21.84,3.36,4.44
1554884128005,9.409213000000001,0.7703344,2.460641,0.011717908999999999,-0.010652645,-0.034088463,-21.96,3.36,4.44
1554884128025,9.380483,0.85173726,2.4510639,0.012783173500000002,-0.0063915867,-0.040480047000000005,-21.96,3.3,4.44
1554884128045,9.327810000000001,0.8086416000000001,2.4366987,0.012783173500000002,-0.0063915867,-0.039414786,-22.02,3.24,4.44
1554884128066,9.409213000000001,0.8086416000000001,2.3983915000000002,0.008522116,-0.008522116,-0.03089267,-22.08,3.18,4.44
1554884128086,9.41879,0.6985083000000001,2.3265655,0.004261058,-0.0031957934000000003,-0.03195793,-22.02,3.24,4.5
1554884128106,9.442732000000001,0.83258367,2.4271219,0.0031957934000000003,0.0,-0.029827405,-21.96,3.36,4.5
1554884128125,9.414000999999999,0.7846996,2.460641,0.002130529,0.0031957934000000003,-0.026631612000000002,-21.96,3.36,4.44
1554884128145,9.41879,0.7703344,2.297835,-0.0010652645,0.0010652645,-0.029827405,-21.9,3.36,4.44
1554884128165,9.461885,0.74639237,2.4702177000000005,-0.0010652645,0.004261058,-0.026631612000000002,-21.84,3.3,4.44
1554884128186,9.442732000000001,0.85173726,2.3265655,-0.00958738,0.013848438000000001,-0.022370555,-21.84,3.24,4.44
1554884128205,9.399636,0.75118077,2.3888147,-0.015978966,0.011717908999999999,-0.02130529,-21.84,3.24,4.44
1554884128225,9.394848,0.789488,2.3409307,-0.002130529,0.017044231,-0.025566347000000003,-21.9,3.18,4.38
1554884128246,9.370906,0.7799111999999999,2.532467,0.020240024,0.008522116,-0.033023197000000004,-21.9,3.12,4.38
1554884128271,9.414000999999999,0.86610246,2.5372553,0.020240024,-0.0010652645,-0.039414786,-22.02,3.0,4.38
1554884128285,9.327810000000001,0.86610246,2.345719,0.007456851,-0.010652645,-0.04261058,-22.08,2.94,4.32
1554884128305,9.437942999999999,0.84216046,2.417545,-0.00958738,-0.01917476,-0.047936900000000005,-22.14,2.82,4.32
1554884128325,9.390058999999999,0.7799111999999999,2.5276785,-0.0063915867,-0.017044231,-0.051132694000000006,-22.2,2.64,4.32
1554884128345,9.394848,0.7272388000000001,2.4893713,0.0053263223,-0.015978966,-0.05006743,-22.26,2.52,4.32
1554884128365,9.385271000000001,0.7846996,2.4079683,0.012783173500000002,-0.014913702,-0.04474111,-22.26,2.34,4.32
1554884128385,9.346964,0.76075757,2.4223334999999997,0.008522116,-0.010652645,-0.03834952,-22.32,2.22,4.32
1554884128405,9.433155000000001,0.8230068000000001,2.4366987,-0.00958738,-0.008522116,-0.035153727999999995,-22.32,2.04,4.32
1554884128425,9.394848,0.7224503999999999,2.3840263,-0.023435817999999997,-0.011717908999999999,-0.027696876000000002,-22.32,1.86,4.38
1554884128445,9.390058999999999,0.6697779,2.5851393,-0.020240024,-0.011717908999999999,-0.026631612000000002,-22.38,1.74,4.44
1554884128465,9.409213000000001,0.7224503999999999,2.475006,-0.0053263223,-0.00958738,-0.027696876000000002,-22.38,1.68,4.5
1554884128485,9.370906,0.7128736,2.4558525,0.015978966,-0.014913702,-0.025566347000000003,-22.44,1.62,4.56
1554884128505,9.428367,0.74639237,2.3169887000000005,0.018109497,-0.017044231,-0.01917476,-22.44,1.68,4.62
1554884128525,9.433155000000001,0.75118077,2.5516205000000003,-0.0053263223,-0.013848438000000001,-0.014913702,-22.44,1.68,4.62
1554884128545,9.457097000000001,0.7272388000000001,2.5372553,-0.017044231,-0.01917476,-0.010652645,-22.44,1.62,4.62
1554884128566,9.399636,0.76075757,2.6234465,-0.020240024,-0.014913702,-0.011717908999999999,-22.44,1.62,4.62
1554884128585,9.390058999999999,0.7032967,2.441487,-0.007456851,-0.008522116,-0.011717908999999999,-22.44,1.68,4.5
1554884128605,9.385271000000001,0.7080852,2.5899277,0.007456851,-0.0053263223,-0.010652645,-22.44,1.74,4.44
1554884128625,9.356541,0.8038531999999999,2.331354,0.015978966,-0.0063915867,-0.011717908999999999,-22.38,2.04,4.32
1554884128646,9.495403999999999,0.7799111999999999,2.3840263,0.010652645,-0.010652645,-0.012783173500000002,-22.38,2.22,4.2
1554884128665,9.466674000000001,0.8086416000000001,2.5611973,0.0031957934000000003,-0.008522116,-0.015978966,-22.38,2.34,4.2
1554884128685,9.428367,0.82779527,2.4319102999999997,0.0010652645,0.0010652645,-0.01917476,-22.38,2.7,4.08
1554884128705,9.3421755,0.8230068000000001,2.297835,0.004261058,0.002130529,-0.01917476,-22.32,2.88,4.02
1554884128725,9.308656,0.7799111999999999,2.4366987,0.0031957934000000003,-0.002130529,-0.017044231,-22.32,3.12,4.02
1554884128745,9.351752000000001,0.75118077,2.5755625,-0.002130529,-0.007456851,-0.013848438000000001,-22.26,3.3,4.02
1554884128765,9.404425,0.7751228,2.5803509,-0.0053263223,-0.007456851,-0.020240024,-22.26,3.3,4.02
1554884128785,9.423578,0.7272388000000001,2.4462755,0.002130529,-0.00958738,-0.027696876000000002,-22.26,3.3,4.02
1554884128805,9.375694000000001,0.7799111999999999,2.3600842999999996,0.010652645,-0.008522116,-0.02876214,-22.2,3.3,3.96
1554884128825,9.423578,0.7799111999999999,2.3840263,0.0063915867,-0.00958738,-0.027696876000000002,-22.2,3.3,3.96
1554884128845,9.519346,0.7990648,2.5276785,-0.012783173500000002,-0.00958738,-0.022370555,-22.2,3.3,3.96
1554884128865,9.543288,0.7751228,2.5133132999999996,-0.023435817999999997,-0.0031957934000000003,-0.017044231,-22.2,3.42,3.96
1554884128886,9.452309,0.6937199000000001,2.4462755,-0.014913702,-0.0031957934000000003,-0.020240024,-22.2,3.6,4.02
1554884128905,9.428367,0.76075757,2.5133132999999996,0.00958738,0.0,-0.024501082,-22.14,3.78,4.08
1554884128925,9.399636,0.84216046,2.355296,0.024501082,0.0031957934000000003,-0.026631612000000002,-22.14,4.08,4.14
1554884128945,9.41879,0.9187749,2.4941597,0.012783173500000002,0.002130529,-0.027696876000000002,-22.08,4.26,4.2
1554884128965,9.423578,0.76075757,2.3361422999999997,-0.010652645,-0.010652645,-0.029827405,-22.08,4.5,4.26
1554884128986,9.471461999999999,0.7032967,2.417545,-0.011717908999999999,-0.0031957934000000003,-0.033023197000000004,-22.08,4.68,4.32
1554884129005,9.409213000000001,0.6841431,2.3026235,-0.0053263223,0.008522116,-0.034088463,-22.08,4.8,4.38
1554884129025,9.370906,0.6937199000000001,2.6090812999999997,0.015978966,0.0063915867,-0.03195793,-22.08,4.8,4.44
1554884129045,9.323022,0.66020113,2.3026235,0.026631612000000002,0.0,-0.024501082,-22.08,4.68,4.44
1554884129065,9.370906,0.65541273,2.3265655,0.023435817999999997,-0.0031957934000000003,-0.023435817999999997,-22.08,4.62,4.44
1554884129086,9.41879,0.7272388000000001,2.4558525,0.0,0.0010652645,-0.026631612000000002,-22.08,4.44,4.44
1554884129105,9.385271000000001,0.6745663000000001,2.4366987,-0.011717908999999999,0.0063915867,-0.034088463,-22.02,4.2,4.44
1554884129125,9.390058999999999,0.6410475,2.5276785,-0.00958738,0.0010652645,-0.029827405,-21.96,3.96,4.44
1554884129145,9.514558000000001,0.6362591,2.355296,-0.0053263223,-0.007456851,-0.02876214,-21.9,3.72,4.44
1554884129166,9.3182335,0.7272388000000001,2.2930467,-0.0053263223,-0.015978966,-0.034088463,-21.9,3.54,4.44
1554884129185,9.452309,0.66020113,2.5468319999999998,-0.020240024,-0.01917476,-0.01917476,-21.84,3.36,4.5
1554884129205,9.447519999999999,0.6697779,2.2691047,-0.017044231,-0.017044231,-0.018109497,-21.84,3.3,4.5
1554884129225,9.414000999999999,0.6889314999999999,2.532467,0.0,-0.024501082,-0.02876214,-21.84,3.12,4.5
1554884129245,9.457097000000001,0.6697779,2.4941597,0.014913702,-0.026631612000000002,-0.035153727999999995,-21.9,3.06,4.5
1554884129266,9.433155000000001,0.7272388000000001,2.5803509,0.011717908999999999,-0.026631612000000002,-0.033023197000000004,-21.96,3.0,4.5
1554884129285,9.447519999999999,0.789488,2.40318,0.008522116,-0.02130529,-0.02876214,-22.02,3.0,4.5
1554884129305,9.457097000000001,0.7751228,2.4319102999999997,0.002130529,-0.012783173500000002,-0.027696876000000002,-22.02,3.0,4.5
1554884129325,9.423578,0.741604,2.4558525,0.004261058,-0.007456851,-0.03195793,-22.08,3.06,4.5
1554884129345,9.423578,0.7128736,2.5372553,0.010652645,-0.0053263223,-0.034088463,-22.08,3.06,4.56
1554884129365,9.514558000000001,0.741604,2.6856956000000003,0.012783173500000002,-0.0031957934000000003,-0.037284255,-22.08,3.12,4.56
1554884129386,9.476251,0.82779527,2.5372553,0.007456851,0.0031957934000000003,-0.039414786,-22.08,3.18,4.56
1554884129406,9.409213000000001,0.66498953,2.441487,0.002130529,0.007456851,-0.037284255,-22.08,3.18,4.56
1554884129426,9.414000999999999,0.66020113,2.5420437000000002,0.002130529,0.0063915867,-0.039414786,-22.08,3.24,4.56
1554884129446,9.461885,0.741604,2.5276785,0.0031957934000000003,-0.0010652645,-0.041545313,-22.08,3.3,4.56
1554884129465,9.466674000000001,0.76075757,2.508525,0.0031957934000000003,-0.0063915867,-0.04261058,-22.08,3.3,4.56
1554884129485,9.466674000000001,0.7080852,2.5037365,0.007456851,-0.008522116,-0.047936900000000005,-22.08,3.36,4.56
1554884129505,9.370906,0.64583594,2.4558525,0.015978966,-0.0063915867,-0.049002163,-22.14,3.36,4.56
1554884129526,9.337387,0.74639237,2.417545,0.01917476,-0.012783173500000002,-0.049002163,-22.14,3.36,4.56
1554884129545,9.390058999999999,0.6027403,2.2882583,0.013848438000000001,-0.01917476,-0.04474111,-22.14,3.42,4.56
1554884129565,9.514558000000001,0.6171055000000001,2.3265655,0.007456851,-0.023435817999999997,-0.036218993,-22.14,3.48,4.62
1554884129585,9.3421755,0.6314706999999999,2.441487,0.010652645,-0.018109497,-0.03089267,-22.02,3.66,4.62
1554884129605,9.332599,0.64583594,2.4893713,0.02876214,-0.014913702,-0.022370555,-21.96,3.96,4.62
1554884129626,9.294291000000001,0.6985083000000001,2.379238,0.049002163,-0.014913702,-0.012783173500000002,-21.84,4.2,4.62
1554884129645,9.461885,0.75118077,2.4223334999999997,0.041545313,-0.020240024,-0.012783173500000002,-21.66,4.44,4.62
1554884129665,9.509769,0.789488,2.3026235,0.03195793,-0.026631612000000002,-0.014913702,-21.54,4.56,4.62
1554884129685,9.442732000000001,0.75596917,2.441487,0.008522116,-0.026631612000000002,-0.010652645,-21.3,4.74,4.62
1554884129705,9.414000999999999,0.83737206,2.4462755,0.010652645,-0.010652645,-0.011717908999999999,-21.12,4.86,4.62
1554884129726,9.361329,0.76075757,2.4462755,0.026631612000000002,-0.011717908999999999,-0.0053263223,-20.94,4.92,4.68
1554884129745,9.481038999999999,0.85652566,2.5468319999999998,0.039414786,-0.010652645,-0.0010652645,-20.88,4.8,4.68
1554884129765,9.385271000000001,0.88525605,2.3505075,0.027696876000000002,-0.014913702,-0.004261058,-20.88,4.68,4.68
1554884129785,9.490616000000001,0.8038531999999999,2.2212207000000004,0.002130529,-0.012783173500000002,-0.013848438000000001,-20.88,4.56,4.74
1554884129805,9.504980999999999,0.717662,2.307412,-0.01917476,-0.0063915867,-0.014913702,-20.94,4.38,4.8
1554884129825,9.409213000000001,0.741604,2.4797945,-0.024501082,0.0063915867,-0.022370555,-21.0,4.26,4.8
1554884129845,9.481038999999999,0.75118077,2.3409307,-0.007456851,-0.004261058,-0.024501082,-21.06,4.32,4.8
1554884129865,9.490616000000001,0.7320272,2.4319102999999997,0.004261058,-0.00958738,-0.03089267,-21.18,4.26,4.86
1554884129886,9.394848,0.88046765,2.379238,0.00958738,-0.011717908999999999,-0.036218993,-21.24,4.26,4.86
1554884129905,9.414000999999999,0.75596917,2.2643162999999995,0.0063915867,-0.014913702,-0.03834952,-21.3,4.26,4.92
1554884129925,9.461885,0.717662,2.4702177000000005,-0.0031957934000000003,-0.023435817999999997,-0.041545313,-21.36,4.26,4.92
1554884129945,9.490616000000001,0.75118077,2.5372553,-0.014913702,-0.024501082,-0.04261058,-21.42,4.26,4.92
1554884129965,9.461885,0.7032967,2.3983915000000002,-0.013848438000000001,-0.03089267,-0.04474111,-21.48,4.32,4.86
1554884129986,9.414000999999999,0.76075757,2.3936029999999997,-0.0063915867,-0.03089267,-0.046871635999999994,-21.54,4.38,4.86
1554884130005,9.543288,0.7080852,2.331354,0.002130529,-0.026631612000000002,-0.046871635999999994,-21.54,4.38,4.8
1554884130025,9.437942999999999,0.7799111999999999,2.4893713,0.0063915867,-0.017044231,-0.051132694000000006,-21.54,4.44,4.74
1554884130045,9.399636,0.75118077,2.40318,0.0031957934000000003,-0.010652645,-0.04261058,-21.6,4.5,4.74
1554884130065,9.327810000000001,0.6889314999999999,2.5037365,-0.002130529,0.0,-0.027696876000000002,-21.6,4.5,4.68
1554884130085,9.409213000000001,0.7751228,2.556409,-0.010652645,0.007456851,-0.022370555,-21.66,4.5,4.62
1554884130105,9.452309,0.7128736,2.2882583,-0.011717908999999999,0.011717908999999999,-0.01917476,-21.72,4.5,4.56
1554884130125,9.41879,0.7128736,2.4510639,-0.00958738,0.025566347000000003,-0.017044231,-21.84,4.44,4.56
1554884130145,9.380483,0.741604,2.2882583,-0.007456851,0.018109497,-0.008522116,-21.96,4.38,4.5
1554884130166,9.390058999999999,0.65541273,2.3600842999999996,0.0063915867,0.0031957934000000003,-0.00958738,-22.02,4.32,4.5
1554884130185,9.390058999999999,0.7320272,2.2547395,0.022370555,-0.011717908999999999,-0.018109497,-22.08,4.26,4.5
1554884130205,9.481038999999999,0.76075757,2.3026235,0.026631612000000002,-0.03195793,-0.03089267,-22.14,4.26,4.5
1554884130226,9.447519999999999,0.74639237,2.3409307,0.020240024,-0.047936900000000005,-0.04261058,-22.2,4.2,4.5
1554884130245,9.457097000000001,0.8038531999999999,2.4319102999999997,0.004261058,-0.05219796,-0.04580637,-22.2,4.2,4.5
1554884130265,9.457097000000001,0.7990648,2.5133132999999996,-0.017044231,-0.049002163,-0.043675844000000005,-22.14,4.2,4.56
1554884130286,9.514558000000001,0.789488,2.4319102999999997,-0.027696876000000002,-0.035153727999999995,-0.034088463,-22.08,4.2,4.62
1554884130305,9.471461999999999,0.7080852,2.4702177000000005,-0.02130529,-0.024501082,-0.023435817999999997,-22.08,4.2,4.68
1554884130325,9.514558000000001,0.7846996,2.6473885,-0.004261058,0.004261058,-0.018109497,-22.08,4.26,4.74
1554884130346,9.428367,0.82779527,2.4271219,0.0053263223,0.026631612000000002,-0.013848438000000001,-22.02,4.32,4.68
1554884130365,9.485827,0.81343,2.6138697,-0.004261058,0.027696876000000002,-0.00958738,-22.02,4.38,4.74
1554884130385,9.466674000000001,0.76554596,2.6330232999999996,-0.023435817999999997,0.02130529,-0.018109497,-22.02,4.5,4.68
1554884130405,9.5385,0.7320272,2.4366987,-0.02130529,0.015978966,-0.027696876000000002,-22.02,4.56,4.68
1554884130425,9.576807,0.6889314999999999,2.3840263,-0.010652645,0.026631612000000002,-0.03834952,-22.08,4.62,4.62
1554884130446,9.639056,0.6075286999999999,2.3361422999999997,-0.002130529,0.041545313,-0.033023197000000004,-22.02,4.68,4.62
1554884130465,9.500193,0.7080852,2.3983915000000002,0.008522116,0.027696876000000002,-0.03089267,-21.96,4.74,4.62
1554884130485,9.572019000000001,0.7224503999999999,2.2547395,0.012783173500000002,0.010652645,-0.037284255,-21.84,4.68,4.74
1554884130505,9.524135000000001,0.7224503999999999,2.556409,0.02876214,-0.007456851,-0.04474111,-21.72,4.62,4.8
1554884130525,9.452309,0.7846996,2.331354,0.041545313,-0.013848438000000001,-0.06285059999999999,-21.6,4.62,4.8
1554884130545,9.308656,0.82779527,2.508525,0.046871635999999994,-0.012783173500000002,-0.07989483,-21.48,4.56,4.8
1554884130566,9.327810000000001,0.8948328999999999,2.498948,0.035153727999999995,-0.023435817999999997,-0.08522116,-21.36,4.5,4.74
1554884130585,9.308656,0.76554596,2.460641,0.012783173500000002,-0.026631612000000002,-0.083090626,-21.24,4.44,4.68
1554884130605,9.279925,0.7703344,2.4702177000000005,-0.0063915867,-0.018109497,-0.07243799,-21.24,4.32,4.62
1554884130625,9.289502,0.7799111999999999,2.3600842999999996,-0.04261058,-0.0031957934000000003,-0.046871635999999994,-21.24,4.14,4.56
1554884130645,9.284714,0.65541273,2.3169887000000005,-0.05219796,0.00958738,-0.015978966,-21.36,3.96,4.44
1554884130666,9.351752000000001,0.6171055000000001,2.2691047,-0.035153727999999995,0.0053263223,0.0031957934000000003,-21.42,3.84,4.38
1554884130685,9.404425,0.65062433,2.345719,-0.018109497,-0.007456851,0.007456851,-21.48,3.72,4.32
1554884130705,9.466674000000001,0.7272388000000001,2.202067,-0.015978966,-0.023435817999999997,0.002130529,-21.54,3.6,4.32
1554884130726,9.481038999999999,0.6266823,2.307412,-0.017044231,-0.040480047000000005,0.0010652645,-21.66,3.6,4.32
1554884130745,9.524135000000001,0.6697779,2.4223334999999997,-0.011717908999999999,-0.051132694000000006,-0.0010652645,-21.66,3.54,4.32
1554884130765,9.524135000000001,0.65541273,2.3840263,-0.004261058,-0.054328485999999995,0.0010652645,-21.72,3.6,4.32
1554884130785,9.476251,0.64583594,2.4558525,0.010652645,-0.051132694000000006,0.0010652645,-21.72,3.72,4.32
1554884130805,9.490616000000001,0.789488,2.5133132999999996,0.017044231,-0.040480047000000005,0.0,-21.72,3.84,4.38
1554884130825,9.485827,0.83258367,2.6521769,0.00958738,-0.029827405,-0.002130529,-21.72,3.96,4.38
1554884130845,9.442732000000001,0.9091981,2.6138697,0.0010652645,-0.013848438000000001,-0.002130529,-21.72,4.08,4.38
1554884130865,9.437942999999999,0.83737206,2.5420437000000002,-0.0031957934000000003,-0.010652645,-0.007456851,-21.66,4.2,4.44
1554884130885,9.557653,0.76075757,2.6617537000000002,0.008522116,-0.0031957934000000003,-0.014913702,-21.54,4.26,4.44
1554884130905,9.581595,0.76075757,2.4941597,0.037284255,0.0,-0.026631612000000002,-21.48,4.38,4.5
1554884130925,9.586383999999999,0.741604,2.417545,0.06391586,0.004261058,-0.04261058,-21.42,4.5,4.5
1554884130946,9.457097000000001,0.86131406,2.4558525,0.06711166,0.010652645,-0.056459017,-21.36,4.56,4.5
1554884130965,9.524135000000001,0.83258367,2.5037365,0.049002163,0.017044231,-0.056459017,-21.3,4.68,4.56
1554884130985,9.519346,0.8038531999999999,2.460641,0.018109497,0.025566347000000003,-0.049002163,-21.24,4.8,4.62
1554884131005,9.528922999999999,0.7080852,2.508525,-0.0053263223,0.03089267,-0.04261058,-21.18,4.86,4.68
1554884131025,9.504980999999999,0.6889314999999999,2.3744495,-0.017044231,0.037284255,-0.04261058,-21.24,4.92,4.8
1554884131046,9.255983,0.7032967,2.3409307,-0.010652645,0.04261058,-0.04261058,-21.3,4.92,4.86
1554884131065,9.356541,0.6889314999999999,2.40318,0.0031957934000000003,0.037284255,-0.037284255,-21.36,4.92,4.92
1554884131085,9.504980999999999,0.7320272,2.2403743,0.0053263223,0.022370555,-0.033023197000000004,-21.36,4.92,5.04
1554884131105,9.409213000000001,0.66020113,2.355296,0.007456851,0.002130529,-0.039414786,-21.42,4.86,5.04
1554884131126,9.323022,0.6362591,2.3600842999999996,0.020240024,-0.018109497,-0.04474111,-21.48,4.86,5.04
1554884131145,9.3661175,0.6889314999999999,2.1829132999999996,0.036218993,-0.029827405,-0.049002163,-21.48,4.8,4.98
1554884131165,9.375694000000001,0.66020113,2.1733365,0.036218993,-0.033023197000000004,-0.04580637,-21.54,4.8,4.86
1554884131185,9.390058999999999,0.6362591,2.3888147,0.023435817999999997,-0.036218993,-0.037284255,-21.6,4.8,4.8
1554884131205,9.404425,0.74639237,2.2547395,0.002130529,-0.040480047000000005,-0.02130529,-21.6,4.86,4.74
1554884131225,9.447519999999999,0.66498953,2.441487,0.0010652645,-0.034088463,-0.011717908999999999,-21.6,4.86,4.68
1554884131245,9.3661175,0.7320272,2.3983915000000002,0.011717908999999999,-0.023435817999999997,-0.00958738,-21.6,4.92,4.56
1554884131266,9.361329,0.7272388000000001,2.321777,0.00958738,-0.020240024,-0.0063915867,-21.6,4.98,4.56
1554884131285,9.433155000000001,0.74639237,2.4462755,-0.007456851,-0.01917476,-0.0031957934000000003,-21.6,5.04,4.56
1554884131305,9.433155000000001,0.6123171,2.5611973,-0.014913702,-0.025566347000000003,0.0,-21.66,5.04,4.56
1554884131325,9.476251,0.6697779,2.3026235,-0.0063915867,-0.022370555,0.002130529,-21.66,4.98,4.56
1554884131345,9.557653,0.7080852,2.4510639,0.013848438000000001,-0.010652645,0.004261058,-21.66,4.98,4.62
1554884131365,9.457097000000001,0.76075757,2.484583,0.026631612000000002,0.004261058,-0.0010652645,-21.66,4.92,4.68
1554884131385,9.404425,0.85652566,2.460641,0.025566347000000003,0.008522116,-0.0031957934000000003,-21.72,4.86,4.74
1554884131406,9.495403999999999,0.82779527,2.4271219,0.013848438000000001,0.0063915867,0.0,-21.72,4.74,4.86
1554884131425,9.433155000000001,0.7032967,2.355296,0.002130529,0.0063915867,-0.0063915867,-21.72,4.68,4.92
1554884131447,9.514558000000001,0.76554596,2.235586,0.002130529,0.004261058,-0.0063915867,-21.72,4.62,4.98
1554884131465,9.404425,0.6937199000000001,2.3936029999999997,0.00958738,0.00958738,-0.014913702,-21.72,4.62,4.98
1554884131486,9.423578,0.7320272,2.321777,0.018109497,0.013848438000000001,-0.022370555,-21.72,4.62,5.04
1554884131506,9.351752000000001,0.789488,2.3026235,0.024501082,-0.002130529,-0.020240024,-21.72,4.62,4.98
1554884131525,9.447519999999999,0.85652566,2.2882583,0.015978966,-0.00958738,-0.022370555,-21.78,4.56,4.86
1554884131545,9.485827,0.7846996,2.3744495,0.0,-0.013848438000000001,-0.02876214,-21.78,4.56,4.74
1554884131566,9.423578,0.6841431,2.3983915000000002,-0.007456851,-0.012783173500000002,-0.033023197000000004,-21.84,4.62,4.68
1554884131585,9.442732000000001,0.6937199000000001,2.3600842999999996,-0.0063915867,-0.0063915867,-0.037284255,-21.9,4.62,4.56
1554884131605,9.437942999999999,0.76554596,2.4941597,-0.0053263223,-0.0053263223,-0.040480047000000005,-21.9,4.62,4.44
1554884131626,9.524135000000001,0.741604,2.3744495,-0.01917476,-0.007456851,-0.039414786,-21.96,4.62,4.38
1554884131645,9.586383999999999,0.7032967,2.475006,-0.029827405,-0.011717908999999999,-0.036218993,-21.96,4.68,4.32
1554884131665,9.461885,0.6410475,2.4558525,-0.025566347000000003,-0.010652645,-0.03834952,-21.96,4.68,4.32
1554884131685,9.509769,0.7032967,2.4558525,-0.0053263223,-0.004261058,-0.041545313,-21.9,4.68,4.38
1554884131705,9.490616000000001,0.6937199000000001,2.4702177000000005,0.014913702,-0.0031957934000000003,-0.04580637,-21.9,4.68,4.44
1554884131725,9.404425,0.76075757,2.460641,0.013848438000000001,-0.002130529,-0.046871635999999994,-21.84,4.68,4.5
1554884131745,9.461885,0.7128736,2.4558525,0.002130529,-0.0063915867,-0.04261058,-21.78,4.68,4.56
1554884131765,9.447519999999999,0.6841431,2.3169887000000005,-0.0010652645,-0.008522116,-0.04474111,-21.72,4.74,4.62
1554884131785,9.375694000000001,0.55006784,2.6426,0.013848438000000001,0.0,-0.041545313,-21.66,4.74,4.62
1554884131805,9.481038999999999,0.7032967,2.4271219,0.024501082,0.010652645,-0.043675844000000005,-21.6,4.74,4.62
1554884131826,9.437942999999999,0.7128736,2.3840263,0.020240024,0.00958738,-0.04261058,-21.54,4.74,4.68
1554884131845,9.380483,0.7080852,2.3265655,0.00958738,-0.008522116,-0.039414786,-21.54,4.74,4.62
1554884131865,9.514558000000001,0.6985083000000001,2.475006,0.0063915867,-0.010652645,-0.04261058,-21.54,4.74,4.56
1554884131885,9.351752000000001,0.5883751,2.2260091,0.015978966,-0.010652645,-0.04474111,-21.48,4.74,4.56
1554884131905,9.452309,0.6171055000000001,2.3696610000000002,0.036218993,-0.011717908999999999,-0.049002163,-21.48,4.74,4.56
1554884131925,9.385271000000001,0.6171055000000001,2.3409307,0.051132694000000006,-0.017044231,-0.04474111,-21.54,4.68,4.56
1554884131946,9.380483,0.6937199000000001,2.321777,0.036218993,-0.007456851,-0.035153727999999995,-21.54,4.68,4.56
1554884131967,9.437942999999999,0.64583594,2.4893713,0.014913702,0.0,-0.02130529,-21.54,4.68,4.56
1554884131987,9.461885,0.53570265,2.3600842999999996,0.002130529,0.0053263223,-0.012783173500000002,-21.6,4.68,4.62
1554884132006,9.414000999999999,0.52612585,2.2930467,0.0031957934000000003,0.0063915867,-0.010652645,-21.6,4.74,4.62
1554884132026,9.461885,0.55485624,2.3265655,0.022370555,0.004261058,-0.0063915867,-21.66,4.8,4.68
1554884132046,9.394848,0.5835866999999999,2.3983915000000002,0.03195793,0.0,-0.0031957934000000003,-21.66,4.86,4.68
1554884132066,9.346964,0.7032967,2.28347,0.036218993,-0.002130529,0.004261058,-21.66,4.92,4.74
1554884132085,9.399636,0.6697779,2.2212207000000004,0.03834952,-0.008522116,0.008522116,-21.72,4.98,4.74
1554884132106,9.457097000000001,0.741604,2.3936029999999997,0.033023197000000004,-0.012783173500000002,0.004261058,-21.72,5.04,4.74
1554884132126,9.390058999999999,0.66020113,2.2499511,0.02876214,-0.00958738,0.004261058,-21.72,5.16,4.74
1554884132145,9.533711,0.6697779,2.4462755,0.026631612000000002,-0.0063915867,0.007456851,-21.72,5.22,4.74
1554884132165,9.452309,0.6985083000000001,2.307412,0.026631612000000002,-0.002130529,0.013848438000000001,-21.72,5.28,4.68
1554884132185,9.500193,0.7990648,2.2547395,0.020240024,-0.004261058,0.017044231,-21.72,5.28,4.68
1554884132205,9.500193,0.7320272,2.2882583,0.008522116,0.0063915867,0.007456851,-21.72,5.28,4.62
1554884132225,9.447519999999999,0.717662,2.355296,0.004261058,-0.002130529,-0.0031957934000000003,-21.72,5.22,4.62
1554884132245,9.466674000000001,0.74639237,2.3169887000000005,0.0063915867,-0.0063915867,-0.012783173500000002,-21.66,5.22,4.56
1554884132265,9.437942999999999,0.8038531999999999,2.273893,0.0063915867,-0.022370555,-0.022370555,-21.66,5.22,4.56
1554884132286,9.471461999999999,0.7080852,2.4079683,-0.0053263223,-0.036218993,-0.026631612000000002,-21.66,5.16,4.56
1554884132305,9.461885,0.8038531999999999,2.4462755,-0.015978966,-0.037284255,-0.03195793,-21.6,5.1,4.56
1554884132325,9.509769,0.7703344,2.3026235,-0.020240024,-0.033023197000000004,-0.03834952,-21.6,5.04,4.62
1554884132346,9.437942999999999,0.7990648,2.307412,-0.018109497,-0.03089267,-0.05219796,-21.6,4.92,4.62
1554884132366,9.380483,0.6889314999999999,2.3744495,-0.010652645,-0.029827405,-0.05752428,-21.6,4.86,4.62
1554884132385,9.471461999999999,0.6410475,2.532467,-0.00958738,-0.03089267,-0.05752428,-21.6,4.86,4.62
1554884132405,9.414000999999999,0.6171055000000001,2.498948,-0.015978966,-0.034088463,-0.06178534,-21.66,4.86,4.62
1554884132425,9.509769,0.65541273,2.3888147,-0.029827405,-0.027696876000000002,-0.06178534,-21.66,4.86,4.62
1554884132445,9.509769,0.6266823,2.4223334999999997,-0.040480047000000005,-0.020240024,-0.05752428,-21.66,4.86,4.62
1554884132466,9.495403999999999,0.54049104,2.355296,-0.039414786,-0.02130529,-0.053263225,-21.6,4.98,4.62
1554884132485,9.423578,0.55006784,2.3361422999999997,-0.014913702,-0.018109497,-0.046871635999999994,-21.48,5.04,4.62
1554884132506,9.452309,0.65541273,2.4271219,0.004261058,-0.010652645,-0.040480047000000005,-21.36,5.22,4.62
1554884132525,9.490616000000001,0.6745663000000001,2.345719,-0.0010652645,-0.00958738,-0.037284255,-21.18,5.46,4.62
1554884132545,9.476251,0.6410475,2.4319102999999997,-0.014913702,-0.015978966,-0.037284255,-20.94,5.7,4.62
1554884132566,9.409213000000001,0.6027403,2.4079683,-0.020240024,-0.01917476,-0.034088463,-20.76,5.88,4.62
1554884132585,9.500193,0.6697779,2.379238,-0.014913702,-0.00958738,-0.03834952,-20.64,6.12,4.68
1554884132606,9.442732000000001,0.55006784,2.2547395,-0.0031957934000000003,0.0,-0.034088463,-20.58,6.3,4.68
1554884132625,9.414000999999999,0.6266823,2.2882583,0.0031957934000000003,-0.0010652645,-0.02876214,-20.58,6.42,4.68
1554884132645,9.404425,0.64583594,2.379238,0.0,-0.0053263223,-0.020240024,-20.58,6.54,4.68
1554884132666,9.447519999999999,0.6362591,2.379238,0.0010652645,-0.00958738,-0.010652645,-20.64,6.54,4.68
1554884132685,9.437942999999999,0.7224503999999999,2.441487,0.0063915867,-0.0063915867,-0.00958738,-20.82,6.48,4.68
1554884132706,9.504980999999999,0.6985083000000001,2.345719,0.0010652645,0.0,-0.013848438000000001,-20.94,6.48,4.68
1554884132725,9.466674000000001,0.74639237,2.3936029999999997,-0.011717908999999999,0.002130529,-0.015978966,-21.06,6.54,4.68
1554884132746,9.399636,0.6937199000000001,2.4462755,-0.01917476,-0.002130529,-0.013848438000000001,-21.12,6.6,4.74
1554884132766,9.404425,0.7224503999999999,2.441487,-0.013848438000000001,-0.007456851,-0.015978966,-21.06,6.66,4.74
1554884132785,9.466674000000001,0.8038531999999999,2.40318,0.0,-0.004261058,-0.023435817999999997,-21.06,6.72,4.86
1554884132805,9.504980999999999,0.6937199000000001,2.4366987,0.008522116,0.004261058,-0.039414786,-21.0,6.78,4.92
1554884132826,9.457097000000001,0.81343,2.321777,0.008522116,0.0031957934000000003,-0.04580637,-21.0,6.84,4.98
1554884132846,9.399636,0.74639237,2.2691047,-0.0063915867,-0.0031957934000000003,-0.04261058,-21.0,6.96,5.04
1554884132866,9.385271000000001,0.7272388000000001,2.2499511,-0.02130529,-0.008522116,-0.043675844000000005,-20.94,7.02,5.1
1554884132885,9.471461999999999,0.5883751,2.3505075,-0.012783173500000002,-0.00958738,-0.046871635999999994,-20.94,7.02,5.16
1554884132905,9.524135000000001,0.6266823,2.3840263,0.013848438000000001,-0.00958738,-0.049002163,-20.88,7.08,5.16
1554884132925,9.504980999999999,0.5883751,2.3840263,0.034088463,-0.004261058,-0.049002163,-20.88,7.08,5.16
1554884132945,9.423578,0.6745663000000001,2.307412,0.033023197000000004,-0.004261058,-0.04474111,-20.88,7.08,5.16
1554884132965,9.428367,0.65062433,2.3265655,0.013848438000000001,-0.008522116,-0.03834952,-20.88,7.14,5.16
1554884132986,9.509769,0.57400984,2.3983915000000002,-0.0010652645,-0.008522116,-0.03089267,-20.88,7.08,5.16
1554884133006,9.476251,0.6745663000000001,2.3936029999999997,-0.0031957934000000003,-0.002130529,-0.026631612000000002,-20.82,7.08,5.16
1554884133025,9.533711,0.5835866999999999,2.4271219,0.0031957934000000003,-0.002130529,-0.02130529,-20.82,7.08,5.1
1554884133046,9.514558000000001,0.65541273,2.321777,0.012783173500000002,0.002130529,-0.017044231,-20.88,7.08,5.1
1554884133066,9.476251,0.717662,2.2930467,0.011717908999999999,0.0010652645,-0.018109497,-20.88,7.02,5.1
1554884133086,9.461885,0.6937199000000001,2.4797945,0.004261058,0.0010652645,-0.018109497,-20.88,7.02,5.1
1554884133105,9.409213000000001,0.6985083000000001,2.331354,-0.0010652645,-0.0053263223,-0.014913702,-20.88,6.96,5.04
1554884133126,9.504980999999999,0.7320272,2.297835,0.004261058,-0.00958738,-0.015978966,-20.88,6.96,5.04
1554884133146,9.390058999999999,0.81343,2.3840263,0.014913702,-0.010652645,-0.020240024,-20.88,6.96,5.04
1554884133165,9.452309,0.8182184,2.3744495,0.018109497,-0.014913702,-0.026631612000000002,-20.94,6.96,5.04
1554884133186,9.414000999999999,0.7799111999999999,2.40318,0.01917476,-0.014913702,-0.035153727999999995,-20.94,6.96,5.04
1554884133206,9.514558000000001,0.75118077,2.484583,0.017044231,-0.008522116,-0.040480047000000005,-20.94,6.96,5.04
1554884133226,9.414000999999999,0.717662,2.3600842999999996,0.00958738,-0.010652645,-0.03834952,-20.94,6.96,5.04
1554884133246,9.56723,0.7080852,2.3983915000000002,-0.00958738,-0.008522116,-0.03195793,-20.94,6.96,5.04
1554884133266,9.519346,0.75596917,2.2068555,-0.02876214,0.0,-0.02876214,-20.94,6.96,5.1
1554884133286,9.399636,0.65062433,2.3265655,-0.027696876000000002,0.0,-0.03089267,-20.94,6.96,5.16
1554884133306,9.528922999999999,0.66020113,2.379238,-0.0063915867,-0.0031957934000000003,-0.034088463,-20.94,6.96,5.16
1554884133325,9.442732000000001,0.741604,2.4510639,0.007456851,-0.0031957934000000003,-0.040480047000000005,-20.94,6.96,5.22
1554884133346,9.447519999999999,0.66020113,2.3505075,0.0031957934000000003,-0.007456851,-0.043675844000000005,-20.94,6.84,5.28
1554884133365,9.457097000000001,0.6266823,2.4223334999999997,-0.007456851,-0.012783173500000002,-0.040480047000000005,-20.94,6.72,5.28
1554884133386,9.414000999999999,0.6410475,2.355296,-0.0010652645,-0.018109497,-0.037284255,-20.94,6.66,5.34
1554884133405,9.414000999999999,0.6410475,2.4366987,0.015978966,-0.014913702,-0.033023197000000004,-20.94,6.54,5.28
1554884133426,9.423578,0.6075286999999999,2.307412,0.020240024,-0.0063915867,-0.02876214,-20.94,6.42,5.28
1554884133446,9.519346,0.64583594,2.2212207000000004,0.0053263223,0.0063915867,-0.024501082,-20.94,6.3,5.22
1554884133466,9.524135000000001,0.6937199000000001,2.3409307,-0.011717908999999999,0.010652645,-0.02130529,-20.94,6.24,5.16
1554884133485,9.471461999999999,0.6171055000000001,2.417545,-0.0053263223,-0.002130529,-0.02130529,-20.94,6.18,5.1
1554884133506,9.452309,0.6266823,2.3744495,0.0063915867,-0.010652645,-0.024501082,-20.94,6.24,5.04
1554884133526,9.394848,0.6171055000000001,2.345719,0.014913702,-0.007456851,-0.02130529,-20.94,6.3,4.98
1554884133545,9.490616000000001,0.6266823,2.3361422999999997,0.011717908999999999,-0.0053263223,-0.02130529,-20.94,6.42,4.98
1554884133565,9.433155000000001,0.6362591,2.441487,0.00958738,-0.0063915867,-0.02130529,-20.94,6.54,4.98
1554884133586,9.461885,0.6937199000000001,2.3888147,0.013848438000000001,-0.002130529,-0.01917476,-21.0,6.66,4.98
1554884133606,9.442732000000001,0.6171055000000001,2.40318,0.014913702,-0.0053263223,-0.014913702,-21.0,6.72,4.98
1554884133626,9.509769,0.6314706999999999,2.2451627,0.013848438000000001,-0.0063915867,-0.010652645,-21.0,6.84,4.98
1554884133646,9.500193,0.6937199000000001,2.297835,0.015978966,-0.0053263223,-0.014913702,-21.0,6.9,4.98
1554884133665,9.514558000000001,0.65541273,2.417545,0.014913702,0.0031957934000000003,-0.015978966,-21.0,6.96,4.98
1554884133685,9.461885,0.6697779,2.345719,0.0031957934000000003,0.0053263223,-0.018109497,-21.0,6.96,4.98
1554884133706,9.433155000000001,0.75596917,2.3265655,-0.0053263223,0.002130529,-0.018109497,-21.0,6.9,4.98
1554884133726,9.471461999999999,0.7272388000000001,2.4079683,-0.002130529,-0.007456851,-0.012783173500000002,-21.0,6.9,4.98
1554884133746,9.428367,0.6171055000000001,2.379238,0.00958738,-0.00958738,-0.025566347000000003,-21.0,6.96,5.04
1554884133765,9.461885,0.6697779,2.2643162999999995,0.018109497,-0.014913702,-0.034088463,-21.0,7.02,4.98
1554884133785,9.495403999999999,0.7032967,2.3361422999999997,0.018109497,-0.018109497,-0.039414786,-20.94,7.08,4.98
1554884133806,9.509769,0.65062433,2.3361422999999997,0.012783173500000002,-0.022370555,-0.039414786,-20.88,7.2,4.98
1554884133826,9.543288,0.6123171,2.4797945,0.00958738,-0.022370555,-0.037284255,-20.88,7.26,4.92
1554884133846,9.562441999999999,0.6410475,2.4893713,0.018109497,-0.008522116,-0.033023197000000004,-20.82,7.32,4.92
1554884133870,9.471461999999999,0.66020113,2.441487,0.033023197000000004,0.0010652645,-0.03195793,-20.76,7.38,4.86
1554884133886,9.481038999999999,0.6745663000000001,2.3840263,0.02876214,-0.0010652645,-0.024501082,-20.76,7.38,4.86
1554884133906,9.509769,0.7032967,2.484583,0.0063915867,0.002130529,-0.023435817999999997,-20.76,7.38,4.8
1554884133925,9.452309,0.6027403,2.417545,-0.0010652645,0.0010652645,-0.02130529,-20.76,7.38,4.8
1554884133945,9.519346,0.6027403,2.3505075,0.011717908999999999,0.004261058,-0.022370555,-20.76,7.38,4.8
1554884133965,9.375694000000001,0.6937199000000001,2.3361422999999997,0.029827405,0.008522116,-0.025566347000000003,-20.82,7.38,4.8
1554884133986,9.428367,0.74639237,2.321777,0.04261058,0.013848438000000001,-0.02130529,-20.88,7.38,4.8
1554884134006,9.490616000000001,0.717662,2.307412,0.023435817999999997,0.013848438000000001,-0.020240024,-20.94,7.38,4.8
1554884134025,9.509769,0.6410475,2.3936029999999997,0.0053263223,0.00958738,-0.027696876000000002,-20.94,7.38,4.8
1554884134045,9.562441999999999,0.6841431,2.3265655,0.011717908999999999,0.0,-0.037284255,-20.94,7.38,4.74
1554884134066,9.437942999999999,0.5979519,2.379238,0.022370555,0.0031957934000000003,-0.039414786,-20.94,7.32,4.8
1554884134086,9.514558000000001,0.6362591,2.3983915000000002,0.035153727999999995,0.008522116,-0.035153727999999995,-21.0,7.26,4.8
1554884134106,9.457097000000001,0.6266823,2.2882583,0.033023197000000004,0.0053263223,-0.033023197000000004,-20.94,7.26,4.8
1554884134126,9.447519999999999,0.66498953,2.2930467,0.02130529,-0.0010652645,-0.03089267,-20.94,7.2,4.8
1554884134145,9.437942999999999,0.76075757,2.2643162999999995,0.011717908999999999,-0.007456851,-0.03195793,-20.82,7.14,4.8
1554884134166,9.428367,0.6745663000000001,2.2930467,0.017044231,-0.002130529,-0.033023197000000004,-20.82,7.08,4.8
1554884134185,9.495403999999999,0.7032967,2.3361422999999997,0.01917476,-0.0010652645,-0.035153727999999995,-20.76,7.08,4.8
1554884134206,9.452309,0.7224503999999999,2.321777,0.017044231,0.0,-0.034088463,-20.7,7.02,4.8
1554884134225,9.485827,0.7320272,2.4223334999999997,0.010652645,-0.0010652645,-0.03195793,-20.64,7.02,4.8
1554884134245,9.471461999999999,0.74639237,2.3744495,0.004261058,0.0010652645,-0.034088463,-20.64,7.02,4.8
1554884134266,9.428367,0.6937199000000001,2.379238,0.002130529,0.0010652645,-0.03195793,-20.58,7.08,4.8
1554884134285,9.457097000000001,0.7128736,2.3600842999999996,0.010652645,-0.0031957934000000003,-0.035153727999999995,-20.58,7.14,4.8
1554884134305,9.404425,0.6937199000000001,2.4271219,0.024501082,-0.0063915867,-0.046871635999999994,-20.58,7.08,4.86
1554884134325,9.394848,0.7846996,2.297835,0.025566347000000003,-0.0063915867,-0.05219796,-20.58,7.08,4.86
1554884134346,9.452309,0.7128736,2.1877017000000003,0.00958738,-0.004261058,-0.05219796,-20.58,6.96,4.86
1554884134366,9.495403999999999,0.64583594,2.3265655,-0.004261058,0.0010652645,-0.04580637,-20.64,6.9,4.92
1554884134385,9.471461999999999,0.64583594,2.4366987,-0.007456851,-0.0010652645,-0.043675844000000005,-20.7,6.78,4.92
1554884134406,9.414000999999999,0.66020113,2.532467,0.010652645,0.002130529,-0.03834952,-20.76,6.72,4.92
1554884134426,9.404425,0.6697779,2.4510639,0.026631612000000002,0.0053263223,-0.035153727999999995,-20.82,6.6,4.92
1554884134446,9.428367,0.8086416000000001,2.3840263,0.026631612000000002,0.0053263223,-0.035153727999999995,-20.88,6.48,4.92
1554884134466,9.390058999999999,0.6410475,2.321777,0.013848438000000001,0.0010652645,-0.037284255,-20.94,6.42,4.92
1554884134487,9.423578,0.7032967,2.5611973,-0.0010652645,0.002130529,-0.035153727999999995,-21.0,6.42,4.92
1554884134507,9.41879,0.66498953,2.168548,-0.004261058,-0.0010652645,-0.02876214,-21.0,6.42,4.92
1554884134526,9.500193,0.6314706999999999,2.345719,0.002130529,-0.0010652645,-0.024501082,-21.0,6.48,4.92
1554884134547,9.41879,0.74639237,2.178125,0.012783173500000002,0.0010652645,-0.020240024,-20.94,6.48,4.86
1554884134566,9.437942999999999,0.75118077,2.3361422999999997,0.014913702,0.002130529,-0.023435817999999997,-20.88,6.54,4.86
1554884134586,9.428367,0.6937199000000001,2.40318,0.013848438000000001,0.002130529,-0.01917476,-20.82,6.6,4.8
1554884134606,9.423578,0.6410475,2.3744495,0.0063915867,-0.0031957934000000003,-0.018109497,-20.76,6.6,4.8
1554884134626,9.437942999999999,0.7080852,2.3696610000000002,0.002130529,-0.007456851,-0.018109497,-20.76,6.66,4.74
1554884134646,9.485827,0.6362591,2.4079683,0.004261058,-0.011717908999999999,-0.020240024,-20.76,6.72,4.68
1554884134665,9.476251,0.7320272,2.3840263,0.0053263223,-0.012783173500000002,-0.023435817999999997,-20.7,6.78,4.68
1554884134685,9.385271000000001,0.76075757,2.2451627,0.008522116,-0.013848438000000001,-0.02130529,-20.7,6.78,4.68
1554884134706,9.390058999999999,0.6745663000000001,2.297835,0.0053263223,-0.018109497,-0.01917476,-20.76,6.78,4.68
1554884134725,9.437942999999999,0.6937199000000001,2.3361422999999997,0.002130529,-0.018109497,-0.022370555,-20.76,6.78,4.68
1554884134745,9.385271000000001,0.741604,2.475006,-0.002130529,-0.018109497,-0.025566347000000003,-20.7,6.84,4.68
1554884134765,9.414000999999999,0.7224503999999999,2.2547395,-0.017044231,-0.020240024,-0.029827405,-20.7,6.84,4.68
1554884134786,9.452309,0.55964464,2.321777,-0.02876214,-0.024501082,-0.035153727999999995,-20.7,6.84,4.68
1554884134805,9.428367,0.6985083000000001,2.40318,-0.015978966,-0.037284255,-0.039414786,-20.7,6.9,4.68
1554884134825,9.481038999999999,0.6937199000000001,2.297835,-0.0031957934000000003,-0.037284255,-0.046871635999999994,-20.76,6.9,4.68
1554884134846,9.457097000000001,0.7224503999999999,2.5420437000000002,-0.002130529,-0.023435817999999997,-0.046871635999999994,-20.76,6.96,4.68
1554884134867,9.495403999999999,0.6985083000000001,2.3265655,-0.007456851,-0.02130529,-0.041545313,-20.82,6.96,4.62
1554884134887,9.471461999999999,0.6745663000000001,2.3840263,-0.008522116,-0.023435817999999997,-0.037284255,-20.82,6.96,4.62
1554884134907,9.437942999999999,0.66498953,2.4510639,-0.004261058,-0.027696876000000002,-0.037284255,-20.88,6.84,4.62
1554884134927,9.504980999999999,0.57400984,2.3888147,0.004261058,-0.020240024,-0.034088463,-20.88,6.78,4.62
1554884134946,9.528922999999999,0.6697779,2.441487,0.010652645,-0.018109497,-0.03195793,-20.88,6.72,4.56
1554884134966,9.509769,0.7272388000000001,2.3026235,0.008522116,-0.0063915867,-0.029827405,-20.94,6.66,4.56
1554884134986,9.447519999999999,0.6745663000000001,2.484583,-0.0031957934000000003,-0.00958738,-0.023435817999999997,-20.94,6.66,4.56
1554884135006,9.457097000000001,0.54049104,2.2307975,-0.012783173500000002,-0.013848438000000001,-0.020240024,-20.94,6.66,4.56
1554884135025,9.442732000000001,0.6937199000000001,2.4510639,-0.010652645,-0.013848438000000001,-0.018109497,-20.94,6.66,4.62
1554884135045,9.485827,0.65541273,2.3505075,0.0,-0.011717908999999999,-0.018109497,-20.88,6.72,4.68
1554884135066,9.461885,0.66020113,2.2451627,0.00958738,-0.01917476,-0.01917476,-20.88,6.84,4.74
1554884135085,9.452309,0.6266823,2.3888147,0.010652645,-0.01917476,-0.02130529,-20.88,6.96,4.8
1554884135105,9.490616000000001,0.7080852,2.3505075,0.0010652645,-0.025566347000000003,-0.017044231,-20.88,7.02,4.86
1554884135125,9.452309,0.55964464,2.297835,0.007456851,-0.027696876000000002,-0.015978966,-20.88,7.08,4.92
1554884135145,9.519346,0.741604,2.3888147,0.020240024,-0.023435817999999997,-0.017044231,-20.88,7.08,4.98
1554884135165,9.466674000000001,0.7224503999999999,2.3840263,0.023435817999999997,-0.020240024,-0.02130529,-20.82,7.08,4.98
1554884135186,9.485827,0.7751228,2.532467,0.014913702,-0.013848438000000001,-0.023435817999999997,-20.82,7.08,4.98
1554884135206,9.495403999999999,0.8086416000000001,2.3169887000000005,0.0010652645,-0.008522116,-0.020240024,-20.82,7.02,4.98
1554884135226,9.524135000000001,0.6266823,2.345719,-0.007456851,-0.012783173500000002,-0.020240024,-20.82,7.02,5.04
1554884135246,9.605537,0.741604,2.4366987,-0.007456851,-0.0031957934000000003,-0.02130529,-20.82,6.96,5.04
1554884135266,9.500193,0.74639237,2.1877017000000003,-0.002130529,0.0031957934000000003,-0.026631612000000002,-20.82,6.96,5.04
1554884135286,9.485827,0.6266823,2.235586,-0.0031957934000000003,0.004261058,-0.034088463,-20.82,7.02,5.04
1554884135306,9.452309,0.7751228,2.273893,-0.012783173500000002,0.0010652645,-0.036218993,-20.82,7.02,4.98
1554884135326,9.543288,0.85652566,2.235586,-0.026631612000000002,0.0053263223,-0.040480047000000005,-20.82,7.08,4.98
1554884135346,9.437942999999999,0.8182184,2.4079683,-0.035153727999999995,0.004261058,-0.04474111,-20.82,7.14,4.98
1554884135365,9.3661175,0.74639237,2.3505075,-0.037284255,0.011717908999999999,-0.053263225,-20.76,7.14,4.98
1554884135385,9.481038999999999,0.7799111999999999,2.273893,-0.024501082,0.014913702,-0.053263225,-20.76,7.2,4.98
1554884135407,9.409213000000001,0.741604,2.3888147,-0.015978966,0.014913702,-0.05539375,-20.76,7.26,4.98
1554884135427,9.466674000000001,0.8038531999999999,2.331354,-0.020240024,0.010652645,-0.05752428,-20.76,7.26,4.98
1554884135446,9.552864999999999,0.7320272,2.3265655,-0.033023197000000004,0.00958738,-0.05539375,-20.76,7.26,4.98
1554884135466,9.404425,0.7080852,2.2212207000000004,-0.033023197000000004,0.012783173500000002,-0.054328485999999995,-20.7,7.26,4.98
1554884135486,9.394848,0.5931635000000001,2.2930467,-0.026631612000000002,0.011717908999999999,-0.049002163,-20.7,7.2,4.98
1554884135506,9.390058999999999,0.6697779,2.1206641,-0.023435817999999997,0.011717908999999999,-0.047936900000000005,-20.76,7.2,4.98
1554884135526,9.390058999999999,0.57400984,2.1637597,-0.02876214,-0.004261058,-0.04474111,-20.76,7.2,4.98
1554884135545,9.433155000000001,0.6171055000000001,2.082357,-0.029827405,-0.014913702,-0.04580637,-20.76,7.14,4.92
1554884135565,9.461885,0.6362591,2.2499511,-0.026631612000000002,-0.01917476,-0.05219796,-20.76,7.14,4.92
1554884135586,9.385271000000001,0.6697779,2.2786815,-0.022370555,-0.02130529,-0.054328485999999995,-20.76,7.14,4.92
1554884135605,9.390058999999999,0.7032967,2.235586,-0.024501082,-0.029827405,-0.047936900000000005,-20.76,7.14,4.98
1554884135625,9.452309,0.65062433,2.40318,-0.026631612000000002,-0.03195793,-0.039414786,-20.82,7.14,4.98
1554884135646,9.457097000000001,0.6889314999999999,2.4079683,-0.013848438000000001,-0.034088463,-0.033023197000000004,-20.94,7.14,5.04
1554884135665,9.481038999999999,0.66020113,2.4079683,0.0,-0.023435817999999997,-0.029827405,-21.06,7.14,5.04
1554884135685,9.409213000000001,0.717662,2.3983915000000002,-0.0010652645,-0.015978966,-0.027696876000000002,-21.12,7.14,5.1
1554884135706,9.514558000000001,0.6314706999999999,2.4271219,-0.010652645,-0.017044231,-0.025566347000000003,-21.18,7.14,5.1
1554884135725,9.476251,0.56922144,2.484583,-0.011717908999999999,-0.02130529,-0.026631612000000002,-21.24,7.14,5.1
1554884135747,9.476251,0.65062433,2.4893713,0.0031957934000000003,-0.015978966,-0.02130529,-21.24,7.14,5.1
1554884135767,9.390058999999999,0.6266823,2.40318,0.02130529,-0.015978966,-0.02130529,-21.24,7.14,5.04
1554884135786,9.442732000000001,0.5979519,2.4271219,0.035153727999999995,-0.007456851,-0.017044231,-21.18,7.08,5.04
1554884135806,9.437942999999999,0.6745663000000001,2.3744495,0.03195793,0.0010652645,-0.011717908999999999,-21.12,7.08,5.04
1554884135826,9.409213000000001,0.6362591,2.2882583,0.01917476,0.0053263223,-0.007456851,-21.06,7.02,5.04
1554884135846,9.409213000000001,0.6266823,2.2547395,0.013848438000000001,0.00958738,-0.002130529,-21.06,6.96,5.04
1554884135866,9.461885,0.6889314999999999,2.40318,0.024501082,0.007456851,-0.0010652645,-21.0,6.96,5.1
1554884135886,9.442732000000001,0.64583594,2.2643162999999995,0.036218993,0.010652645,-0.002130529,-20.94,6.9,5.16
1554884135906,9.557653,0.7846996,2.2882583,0.039414786,0.0063915867,-0.007456851,-20.94,6.9,5.22
1554884135925,9.500193,0.6889314999999999,2.3361422999999997,0.03195793,0.0063915867,-0.004261058,-20.94,6.9,5.28
1554884135945,9.514558000000001,0.7990648,2.2212207000000004,0.017044231,0.002130529,-0.007456851,-20.94,6.9,5.34
1554884135966,9.442732000000001,0.717662,2.3361422999999997,0.00958738,0.0,-0.015978966,-20.94,6.9,5.4
1554884135986,9.3661175,0.7080852,2.3361422999999997,0.012783173500000002,-0.0031957934000000003,-0.02130529,-20.94,6.96,5.46
1554884136006,9.457097000000001,0.741604,2.307412,0.022370555,-0.0063915867,-0.027696876000000002,-20.94,6.96,5.46
1554884136026,9.471461999999999,0.76554596,2.3409307,0.02876214,-0.013848438000000001,-0.034088463,-20.88,6.96,5.46
1554884136046,9.437942999999999,0.81343,2.1924900000000003,0.026631612000000002,-0.014913702,-0.039414786,-20.88,7.02,5.4
1554884136066,9.481038999999999,0.8182184,2.2882583,0.00958738,-0.010652645,-0.041545313,-20.88,7.02,5.46
1554884136086,9.399636,0.6266823,2.355296,-0.0010652645,-0.00958738,-0.043675844000000005,-20.94,7.02,5.46
1554884136105,9.514558000000001,0.6075286999999999,2.3840263,0.0031957934000000003,-0.0053263223,-0.043675844000000005,-20.94,7.08,5.46
1554884136125,9.442732000000001,0.6841431,2.4079683,0.008522116,-0.008522116,-0.04474111,-20.94,7.08,5.46
1554884136145,9.476251,0.6362591,2.2164322999999997,0.012783173500000002,-0.0063915867,-0.04261058,-21.0,7.08,5.46
1554884136165,9.433155000000001,0.6697779,2.2164322999999997,0.0063915867,-0.004261058,-0.03834952,-21.12,7.08,5.46
1554884136188,9.519346,0.5883751,2.297835,-0.002130529,-0.0010652645,-0.033023197000000004,-21.24,7.08,5.46
1554884136206,9.524135000000001,0.64583594,2.331354,-0.002130529,0.0031957934000000003,-0.026631612000000002,-21.3,7.02,5.4
1554884136227,9.447519999999999,0.65062433,2.4702177000000005,0.014913702,0.012783173500000002,-0.018109497,-21.36,7.02,5.34
1554884136248,9.41879,0.57400984,2.5851393,0.033023197000000004,0.014913702,-0.012783173500000002,-21.42,7.02,5.28
1554884136266,9.481038999999999,0.57400984,2.331354,0.036218993,0.014913702,-0.008522116,-21.48,7.02,5.28
1554884136286,9.3661175,0.7272388000000001,2.3505075,0.025566347000000003,0.004261058,-0.008522116,-21.48,7.02,5.22
1554884136306,9.476251,0.7320272,2.3696610000000002,0.01917476,-0.004261058,-0.0053263223,-21.48,6.96,5.16
1554884136326,9.476251,0.66498953,2.202067,0.026631612000000002,-0.0031957934000000003,-0.0063915867,-21.42,7.02,5.1
1554884136346,9.437942999999999,0.75118077,2.3936029999999997,0.033023197000000004,0.0010652645,-0.0063915867,-21.36,7.02,5.04
1554884136365,9.495403999999999,0.7032967,2.417545,0.03195793,-0.004261058,-0.008522116,-21.3,7.08,5.04
1554884136385,9.500193,0.7272388000000001,2.321777,0.018109497,-0.012783173500000002,-0.011717908999999999,-21.18,7.08,5.04
1554884136406,9.471461999999999,0.741604,2.4702177000000005,0.010652645,-0.007456851,-0.015978966,-21.06,7.14,5.04
1554884136425,9.404425,0.6697779,2.3744495,0.00958738,-0.0053263223,-0.020240024,-21.0,7.2,5.04
1554884136446,9.548077000000001,0.8182184,2.3983915000000002,0.0053263223,-0.0053263223,-0.026631612000000002,-20.94,7.2,5.04
1554884136465,9.452309,0.7846996,2.4893713,-0.0031957934000000003,-0.008522116,-0.036218993,-20.82,7.26,5.04
1554884136486,9.409213000000001,0.66498953,2.3840263,-0.010652645,-0.018109497,-0.043675844000000005,-20.76,7.26,5.04
1554884136505,9.375694000000001,0.6745663000000001,2.4079683,-0.0053263223,-0.017044231,-0.046871635999999994,-20.7,7.26,5.04
1554884136526,9.447519999999999,0.6266823,2.4797945,0.011717908999999999,-0.008522116,-0.046871635999999994,-20.64,7.26,5.04
1554884136547,9.504980999999999,0.6314706999999999,2.202067,0.017044231,-0.007456851,-0.053263225,-20.64,7.2,5.04
1554884136565,9.500193,0.66498953,2.2499511,0.012783173500000002,-0.0053263223,-0.051132694000000006,-20.64,7.2,5.04
1554884136587,9.581595,0.5883751,2.2212207000000004,-0.007456851,-0.0031957934000000003,-0.03834952,-20.7,7.14,5.04
1554884136607,9.476251,0.5165489999999999,2.4079683,-0.008522116,0.0031957934000000003,-0.03089267,-20.7,7.08,4.98
1554884136626,9.466674000000001,0.5117606,2.3696610000000002,0.007456851,0.004261058,-0.026631612000000002,-20.7,7.08,4.98
1554884136646,9.485827,0.6266823,2.3936029999999997,0.024501082,0.004261058,-0.024501082,-20.76,7.02,4.86
1554884136666,9.390058999999999,0.7032967,2.3026235,0.020240024,0.0031957934000000003,-0.020240024,-20.76,7.02,4.8
1554884136686,9.495403999999999,0.5979519,2.4079683,0.0010652645,0.002130529,-0.013848438000000001,-20.76,7.02,4.68
1554884136706,9.543288,0.6123171,2.2164322999999997,-0.013848438000000001,0.0063915867,-0.010652645,-20.76,6.96,4.62
1554884136726,9.514558000000001,0.6075286999999999,2.3983915000000002,-0.012783173500000002,0.013848438000000001,-0.011717908999999999,-20.82,6.96,4.56
1554884136745,9.390058999999999,0.5835866999999999,2.345719,0.0031957934000000003,0.010652645,-0.007456851,-20.82,6.9,4.56
1554884136765,9.428367,0.6889314999999999,2.3936029999999997,0.018109497,0.007456851,-0.008522116,-20.82,6.9,4.5
1554884136786,9.409213000000001,0.741604,2.355296,0.023435817999999997,0.0063915867,-0.008522116,-20.76,6.9,4.5
1554884136805,9.370906,0.6889314999999999,2.2691047,0.023435817999999997,-0.0010652645,-0.01917476,-20.76,6.84,4.5
1554884136825,9.370906,0.7799111999999999,2.3505075,0.02130529,-0.0063915867,-0.029827405,-20.76,6.84,4.56
1554884136846,9.476251,0.7320272,2.2547395,0.0063915867,-0.015978966,-0.034088463,-20.76,6.84,4.62
1554884136865,9.461885,0.66020113,2.321777,-0.0010652645,-0.018109497,-0.037284255,-20.76,6.84,4.68
1554884136886,9.56723,0.64583594,2.2212207000000004,0.0031957934000000003,-0.018109497,-0.036218993,-20.76,6.84,4.74
1554884136906,9.485827,0.6314706999999999,2.3696610000000002,0.0063915867,-0.017044231,-0.03089267,-20.7,6.9,4.86
1554884136926,9.490616000000001,0.66498953,2.3409307,0.0053263223,-0.012783173500000002,-0.029827405,-20.64,6.9,4.92
1554884136946,9.433155000000001,0.7032967,2.3840263,-0.0063915867,-0.014913702,-0.02876214,-20.64,6.9,5.04
1554884136966,9.375694000000001,0.6362591,2.3409307,-0.015978966,-0.022370555,-0.027696876000000002,-20.58,6.9,5.16
1554884136986,9.452309,0.6697779,2.3696610000000002,-0.022370555,-0.025566347000000003,-0.02876214,-20.58,6.9,5.28
1554884137006,9.390058999999999,0.6841431,2.1877017000000003,-0.023435817999999997,-0.025566347000000003,-0.036218993,-20.52,6.9,5.34
1554884137026,9.457097000000001,0.6362591,2.307412,-0.011717908999999999,-0.034088463,-0.039414786,-20.58,6.9,5.4
1554884137045,9.485827,0.6841431,2.1829132999999996,0.0010652645,-0.035153727999999995,-0.041545313,-20.58,6.9,5.46
1554884137065,9.433155000000001,0.6745663000000001,2.297835,-0.004261058,-0.027696876000000002,-0.041545313,-20.64,6.9,5.46
1554884137085,9.461885,0.64583594,2.3026235,-0.012783173500000002,-0.024501082,-0.035153727999999995,-20.7,6.9,5.46
1554884137108,9.466674000000001,0.65062433,2.4271219,-0.02130529,-0.02130529,-0.029827405,-20.7,6.96,5.4
1554884137127,9.442732000000001,0.54527944,2.460641,-0.017044231,-0.024501082,-0.027696876000000002,-20.76,7.02,5.4
1554884137147,9.514558000000001,0.6410475,2.4271219,-0.007456851,-0.022370555,-0.024501082,-20.76,7.02,5.4
1554884137167,9.433155000000001,0.5931635000000001,2.3936029999999997,0.0063915867,-0.02130529,-0.024501082,-20.76,7.08,5.34
1554884137187,9.509769,0.6266823,2.2068555,0.008522116,-0.012783173500000002,-0.02876214,-20.76,7.14,5.34
1554884137205,9.481038999999999,0.65062433,2.379238,0.0010652645,-0.014913702,-0.024501082,-20.76,7.14,5.34
1554884137226,9.394848,0.6889314999999999,2.417545,-0.00958738,-0.01917476,-0.01917476,-20.7,7.2,5.34
1554884137245,9.356541,0.65541273,2.28347,-0.015978966,-0.020240024,-0.017044231,-20.7,7.14,5.34
1554884137265,9.476251,0.6266823,2.4558525,-0.013848438000000001,-0.015978966,-0.015978966,-20.64,7.14,5.34
1554884137286,9.375694000000001,0.6362591,2.3600842999999996,0.0,-0.0063915867,-0.023435817999999997,-20.58,7.14,5.34
1554884137306,9.404425,0.717662,2.2451627,0.007456851,-0.007456851,-0.026631612000000002,-20.58,7.14,5.34
1554884137326,9.471461999999999,0.76075757,2.28347,0.010652645,-0.015978966,-0.03089267,-20.52,7.14,5.34
1554884137345,9.390058999999999,0.55006784,2.40318,0.0053263223,-0.020240024,-0.027696876000000002,-20.52,7.08,5.34
1554884137365,9.423578,0.7128736,2.3744495,0.0053263223,-0.027696876000000002,-0.03195793,-20.46,7.08,5.34
1554884137386,9.481038999999999,0.65062433,2.2882583,0.010652645,-0.02876214,-0.039414786,-20.46,7.08,5.34
1554884137405,9.514558000000001,0.5883751,2.2307975,0.017044231,-0.024501082,-0.04261058,-20.46,7.08,5.4
1554884137427,9.509769,0.6841431,2.1637597,0.015978966,-0.023435817999999997,-0.035153727999999995,-20.52,7.08,5.46
1554884137447,9.380483,0.7272388000000001,2.130241,0.010652645,-0.023435817999999997,-0.029827405,-20.58,7.02,5.46
1554884137467,9.423578,0.6410475,2.2547395,0.0031957934000000003,-0.024501082,-0.024501082,-20.58,7.02,5.46
1554884137487,9.557653,0.7032967,2.3169887000000005,0.004261058,-0.02130529,-0.025566347000000003,-20.64,6.96,5.46
1554884137506,9.519346,0.6841431,2.321777,0.004261058,-0.013848438000000001,-0.02876214,-20.64,6.96,5.46
1554884137526,9.385271000000001,0.74639237,2.3840263,0.0063915867,-0.012783173500000002,-0.027696876000000002,-20.7,6.96,5.4
1554884137546,9.528922999999999,0.6697779,2.5037365,0.0053263223,-0.020240024,-0.025566347000000003,-20.7,6.9,5.34
1554884137566,9.452309,0.6075286999999999,2.321777,0.004261058,-0.022370555,-0.023435817999999997,-20.7,6.9,5.34
1554884137585,9.524135000000001,0.6410475,2.3169887000000005,0.007456851,-0.017044231,-0.03089267,-20.76,6.9,5.28
1554884137606,9.543288,0.66498953,2.2691047,0.018109497,-0.011717908999999999,-0.034088463,-20.82,6.9,5.28
1554884137626,9.447519999999999,0.66498953,2.3265655,0.018109497,-0.017044231,-0.036218993,-20.82,6.96,5.28
1554884137645,9.481038999999999,0.6841431,2.2547395,0.007456851,-0.018109497,-0.036218993,-20.88,6.96,5.28
1554884137665,9.514558000000001,0.6314706999999999,2.345719,-0.004261058,-0.01917476,-0.03089267,-20.94,7.02,5.28
1554884137686,9.543288,0.6410475,2.130241,-0.004261058,-0.015978966,-0.029827405,-21.0,7.02,5.28
1554884137706,9.404425,0.6362591,2.28347,0.00958738,-0.0053263223,-0.027696876000000002,-21.06,7.08,5.28
1554884137727,9.447519999999999,0.65541273,2.2930467,0.018109497,0.0031957934000000003,-0.03089267,-21.06,7.14,5.28
1554884137746,9.481038999999999,0.6937199000000001,2.3936029999999997,0.012783173500000002,-0.004261058,-0.033023197000000004,-21.06,7.14,5.34
1554884137765,9.490616000000001,0.6745663000000001,2.3026235,0.008522116,-0.010652645,-0.033023197000000004,-21.06,7.14,5.34
1554884137785,9.495403999999999,0.7703344,2.1972785,-0.002130529,-0.014913702,-0.040480047000000005,-21.06,7.14,5.4
1554884137806,9.509769,0.7128736,2.2307975,-0.0010652645,-0.00958738,-0.04580637,-21.06,7.08,5.46
1554884137825,9.490616000000001,0.6697779,2.178125,0.0010652645,-0.011717908999999999,-0.04261058,-21.06,6.84,5.46
1554884137845,9.476251,0.66498953,2.2691047,-0.0010652645,-0.015978966,-0.039414786,-21.06,6.6,5.46
1554884137865,9.500193,0.5931635000000001,2.2882583,0.0053263223,-0.014913702,-0.036218993,-21.06,6.24,5.46
1554884137885,9.461885,0.66498953,2.273893,0.012783173500000002,-0.00958738,-0.033023197000000004,-21.12,5.82,5.4
1554884137905,9.452309,0.6841431,2.321777,0.013848438000000001,-0.0053263223,-0.034088463,-21.12,5.4,5.34
1554884137926,9.433155000000001,0.6314706999999999,2.2882583,0.007456851,-0.004261058,-0.03195793,-21.18,4.92,5.28
1554884137945,9.509769,0.66020113,2.2451627,0.007456851,-0.008522116,-0.03089267,-21.24,4.38,5.22
1554884137965,9.509769,0.6075286999999999,2.2068555,0.00958738,-0.014913702,-0.029827405,-21.24,3.9,5.16
1554884137986,9.457097000000001,0.6266823,2.1015105,0.012783173500000002,-0.014913702,-0.024501082,-21.3,3.6,5.1
1554884138005,9.500193,0.57879823,2.2643162999999995,0.02130529,-0.018109497,-0.015978966,-21.36,3.3,5.1
1554884138026,9.524135000000001,0.717662,2.3169887000000005,0.03195793,-0.01917476,-0.015978966,-21.72,3.0,5.1
1554884138045,9.562441999999999,0.7080852,2.3026235,0.035153727999999995,-0.01917476,-0.020240024,-21.84,2.94,5.1
1554884138065,9.433155000000001,0.7128736,2.2930467,0.026631612000000002,-0.015978966,-0.024501082,-22.2,2.82,5.04
1554884138085,9.524135000000001,0.7320272,2.3169887000000005,0.011717908999999999,-0.0063915867,-0.017044231,-22.38,2.76,4.98
1554884138106,9.548077000000001,0.66498953,2.3983915000000002,-0.0031957934000000003,-0.0031957934000000003,-0.013848438000000001,-22.56,2.76,4.98
1554884138125,9.41879,0.56922144,2.297835,-0.0010652645,-0.0010652645,-0.008522116,-22.68,2.64,4.98
1554884138146,9.548077000000001,0.65062433,2.202067,0.0053263223,0.0053263223,-0.012783173500000002,-22.8,2.58,4.98
1554884138165,9.471461999999999,0.7751228,2.1877017000000003,0.020240024,0.004261058,-0.01917476,-22.86,2.46,5.1
1554884138185,9.495403999999999,0.7224503999999999,2.2643162999999995,0.020240024,0.0010652645,-0.033023197000000004,-22.68,2.4,5.16
1554884138205,9.519346,0.6985083000000001,2.2451627,0.004261058,-0.002130529,-0.043675844000000005,-22.56,2.28,5.22
1554884138225,9.519346,0.6889314999999999,2.2547395,-0.015978966,-0.012783173500000002,-0.043675844000000005,-22.5,2.22,5.28
1554884138246,9.442732000000001,0.6027403,2.2260091,-0.015978966,-0.014913702,-0.039414786,-22.44,2.1,5.34
1554884138265,9.414000999999999,0.5931635000000001,2.2164322999999997,-0.002130529,-0.017044231,-0.040480047000000005,-22.38,2.1,5.4
1554884138285,9.514558000000001,0.66498953,2.1972785,0.017044231,-0.013848438000000001,-0.03834952,-22.38,2.22,5.4
1554884138305,9.457097000000001,0.6266823,2.1733365,0.026631612000000002,-0.013848438000000001,-0.040480047000000005,-22.38,2.58,5.34
1554884138326,9.514558000000001,0.717662,2.0105310000000003,0.012783173500000002,-0.01917476,-0.041545313,-22.38,2.94,5.28
1554884138345,9.528922999999999,0.6362591,2.1206641,-0.004261058,-0.02130529,-0.039414786,-22.38,3.3,5.22
1554884138365,9.519346,0.66498953,2.3026235,-0.018109497,-0.026631612000000002,-0.036218993,-22.32,3.6,5.16
1554884138386,9.600749,0.5979519,2.2643162999999995,-0.011717908999999999,-0.020240024,-0.03195793,-22.26,3.72,5.1
1554884138405,9.581595,0.5165489999999999,2.2212207000000004,-0.0031957934000000003,-0.015978966,-0.027696876000000002,-22.2,3.78,5.1
1554884138425,9.5385,0.6266823,2.2068555,0.00958738,0.0,-0.02876214,-22.14,3.78,5.1
1554884138445,9.514558000000001,0.75596917,2.273893,0.015978966,0.002130529,-0.02130529,-22.08,3.72,5.16
1554884138466,9.404425,0.76075757,2.2403743,0.0,0.0053263223,-0.015978966,-22.02,3.42,5.16
1554884138485,9.346964,0.6410475,2.484583,-0.0063915867,-0.0053263223,-0.020240024,-21.9,3.18,5.22
1554884138505,9.509769,0.6697779,2.355296,0.008522116,-0.008522116,-0.024501082,-21.84,2.94,5.22
1554884138525,9.624691,0.7751228,2.307412,0.022370555,0.004261058,-0.036218993,-21.78,2.7,5.28
1554884138546,9.5385,0.7080852,2.2643162999999995,0.010652645,0.012783173500000002,-0.035153727999999995,-21.78,2.76,5.28
1554884138565,9.562441999999999,0.7224503999999999,2.2307975,-0.0063915867,0.00958738,-0.02876214,-21.78,2.94,5.34
1554884138585,9.533711,0.65062433,2.2451627,-0.0053263223,0.0063915867,-0.02130529,-21.78,3.06,5.34
1554884138605,9.543288,0.57879823,2.178125,0.012783173500000002,0.0053263223,-0.02876214,-21.78,3.24,5.4
1554884138626,9.414000999999999,0.6937199000000001,2.2451627,0.026631612000000002,0.011717908999999999,-0.039414786,-21.78,3.36,5.4
1554884138645,9.428367,0.8038531999999999,2.0679917000000003,0.011717908999999999,0.0053263223,-0.037284255,-21.84,3.48,5.4
1554884138666,9.437942999999999,0.76075757,2.1877017000000003,-0.017044231,-0.010652645,-0.03089267,-21.84,3.54,5.4
1554884138685,9.466674000000001,0.5979519,2.2691047,-0.017044231,-0.017044231,-0.029827405,-21.84,3.66,5.4
1554884138705,9.423578,0.55964464,2.3888147,0.008522116,-0.020240024,-0.029827405,-21.9,3.66,5.4
1554884138725,9.576807,0.65062433,2.2691047,0.027696876000000002,-0.024501082,-0.02876214,-21.9,3.66,5.34
1554884138745,9.519346,0.6075286999999999,2.1350293,-0.013848438000000001,-0.026631612000000002,-0.03089267,-21.84,3.6,5.34
1554884138765,9.485827,0.6123171,2.4797945,-0.02130529,-0.022370555,-0.024501082,-21.78,3.6,5.28
1554884138786,9.56723,0.57400984,2.307412,-0.004261058,-0.011717908999999999,-0.03089267,-21.72,3.6,5.22
1554884138805,9.528922999999999,0.57879823,2.460641,0.025566347000000003,0.0010652645,-0.03195793,-21.66,3.48,5.16
1554884138825,9.543288,0.6171055000000001,2.4079683,0.035153727999999995,0.008522116,-0.02130529,-21.6,3.3,5.16
1554884138846,9.471461999999999,0.66020113,2.3936029999999997,0.018109497,0.023435817999999997,-0.015978966,-21.6,3.0,5.16
1554884138866,9.41879,0.6841431,2.3409307,0.0,0.03195793,-0.013848438000000001,-21.66,2.58,5.16
1554884138885,9.490616000000001,0.5835866999999999,2.4462755,-0.004261058,0.03089267,-0.008522116,-21.72,2.28,5.22
1554884138905,9.5385,0.56922144,2.2212207000000004,0.010652645,0.034088463,-0.011717908999999999,-21.9,1.98,5.22
1554884138925,9.514558000000001,0.57879823,2.3169887000000005,0.036218993,0.035153727999999995,-0.020240024,-22.14,1.5,5.22
1554884138946,9.437942999999999,0.7128736,2.1637597,0.043675844000000005,0.02876214,-0.018109497,-22.26,1.26,5.22
1554884138965,9.423578,0.7032967,2.2930467,0.034088463,0.02130529,-0.020240024,-22.38,1.08,5.28
1554884138985,9.471461999999999,0.7751228,2.2643162999999995,0.020240024,0.013848438000000001,-0.022370555,-22.5,1.08,5.22
1554884139005,9.495403999999999,0.64583594,2.379238,0.011717908999999999,0.011717908999999999,-0.025566347000000003,-22.56,1.38,5.22
1554884139025,9.519346,0.6841431,2.4319102999999997,0.008522116,0.020240024,-0.022370555,-22.5,1.74,5.16
1554884139045,9.457097000000001,0.7320272,2.345719,-0.004261058,0.024501082,-0.015978966,-22.5,2.16,5.16
1554884139066,9.509769,0.6889314999999999,2.355296,-0.02130529,0.02876214,-0.011717908999999999,-22.44,2.58,5.16
1554884139085,9.41879,0.6745663000000001,2.3888147,-0.026631612000000002,0.03195793,-0.011717908999999999,-22.38,2.94,5.16
1554884139105,9.390058999999999,0.64583594,2.3505075,-0.011717908999999999,0.029827405,-0.018109497,-22.32,3.36,5.16
1554884139125,9.3182335,0.6314706999999999,2.28347,0.013848438000000001,0.015978966,-0.03195793,-22.26,3.72,5.16
1554884139145,9.356541,0.6697779,2.4271219,0.046871635999999994,-0.0010652645,-0.04474111,-22.2,4.02,5.1
1554884139165,9.471461999999999,0.53570265,2.3505075,0.06604639400000001,-0.0063915867,-0.053263225,-22.08,4.2,5.1
1554884139186,9.533711,0.5931635000000001,2.3409307,0.05752428,-0.004261058,-0.056459017,-22.02,4.26,5.1
1554884139205,9.452309,0.49739540000000004,2.321777,0.035153727999999995,-0.002130529,-0.05006743,-21.9,4.2,5.04
1554884139226,9.466674000000001,0.45429978,2.3409307,0.03195793,-0.004261058,-0.026631612000000002,-21.84,4.2,5.04
1554884139245,9.552864999999999,0.43993455,2.1972785,0.039414786,0.00958738,-0.012783173500000002,-21.78,4.2,5.04
1554884139265,9.519346,0.52133745,2.28347,0.051132694000000006,0.017044231,-0.0053263223,-21.72,4.2,4.98
1554884139285,9.471461999999999,0.6841431,2.345719,0.03834952,0.015978966,-0.0010652645,-21.6,4.2,4.98
1554884139306,9.452309,0.6889314999999999,2.3026235,0.020240024,0.010652645,0.0031957934000000003,-21.6,4.2,4.98
1554884139325,9.466674000000001,0.66020113,2.460641,0.014913702,0.0010652645,0.0053263223,-21.54,4.2,4.98
1554884139345,9.471461999999999,0.717662,2.4223334999999997,0.022370555,0.0031957934000000003,-0.002130529,-21.54,4.2,4.98
1554884139365,9.437942999999999,0.8086416000000001,2.321777,0.025566347000000003,0.008522116,-0.007456851,-21.48,4.26,4.92
1554884139385,9.476251,0.7799111999999999,2.3888147,0.014913702,0.014913702,-0.012783173500000002,-21.48,4.32,4.86
1554884139405,9.428367,0.7032967,2.2164322999999997,-0.0010652645,0.012783173500000002,-0.012783173500000002,-21.42,4.38,4.8
1554884139425,9.394848,0.789488,2.2691047,-0.014913702,0.00958738,-0.01917476,-21.36,4.44,4.74
1554884139445,9.490616000000001,0.7128736,2.4366987,-0.007456851,0.0031957934000000003,-0.034088463,-21.3,4.5,4.68
1554884139465,9.428367,0.64583594,2.202067,-0.004261058,-0.007456851,-0.053263225,-21.3,4.62,4.62
1554884139485,9.423578,0.6697779,2.1733365,-0.007456851,-0.014913702,-0.07030745599999999,-21.24,4.68,4.68
1554884139505,9.437942999999999,0.7320272,2.3409307,-0.015978966,-0.022370555,-0.07456851,-21.24,4.68,4.68
1554884139525,9.471461999999999,0.5931635000000001,2.4462755,-0.023435817999999997,-0.03195793,-0.068176925,-21.24,4.68,4.74
1554884139545,9.481038999999999,0.56922144,2.3361422999999997,-0.020240024,-0.03089267,-0.060720075,-21.3,4.56,4.8
1554884139567,9.471461999999999,0.5883751,2.4271219,-0.011717908999999999,-0.027696876000000002,-0.05219796,-21.36,4.08,4.86
1554884139586,9.514558000000001,0.56922144,2.4271219,-0.01917476,-0.015978966,-0.05006743,-21.42,3.9,4.92
1554884139605,9.442732000000001,0.6314706999999999,2.4271219,-0.026631612000000002,-0.011717908999999999,-0.04580637,-21.54,3.54,4.92
1554884139625,9.351752000000001,0.6171055000000001,2.3696610000000002,-0.03195793,-0.010652645,-0.037284255,-21.66,3.12,4.98
1554884139645,9.390058999999999,0.55006784,2.4319102999999997,-0.02876214,-0.011717908999999999,-0.033023197000000004,-21.78,2.76,4.98
1554884139665,9.514558000000001,0.5931635000000001,2.235586,-0.015978966,-0.011717908999999999,-0.029827405,-21.84,2.34,4.98
1554884139685,9.495403999999999,0.56922144,2.355296,-0.0063915867,-0.0063915867,-0.025566347000000003,-21.9,2.04,4.92
1554884139705,9.409213000000001,0.5883751,2.3265655,-0.0053263223,-0.004261058,-0.024501082,-22.02,1.8,4.92
1554884139726,9.471461999999999,0.65062433,2.4893713,0.002130529,-0.0031957934000000003,-0.017044231,-22.08,1.62,4.92
1554884139745,9.404425,0.5883751,2.4462755,0.008522116,-0.008522116,-0.017044231,-22.14,1.68,4.92
1554884139765,9.504980999999999,0.66498953,2.498948,0.015978966,-0.011717908999999999,-0.01917476,-22.2,1.74,4.92
1554884139785,9.423578,0.6745663000000001,2.2403743,0.01917476,-0.010652645,-0.025566347000000003,-22.2,1.8,4.92
1554884139805,9.481038999999999,0.65062433,2.4366987,0.013848438000000001,-0.010652645,-0.023435817999999997,-22.14,1.92,4.92
1554884139826,9.433155000000001,0.6362591,2.3936029999999997,0.0053263223,-0.004261058,-0.01917476,-22.14,1.98,4.98
1554884139847,9.442732000000001,0.6697779,2.4510639,0.002130529,0.0053263223,-0.017044231,-22.08,2.1,4.98
1554884139865,9.495403999999999,0.6171055000000001,2.4223334999999997,0.002130529,0.008522116,-0.011717908999999999,-22.02,2.1,5.04
1554884139886,9.461885,0.6362591,2.2691047,0.0063915867,0.0031957934000000003,-0.012783173500000002,-21.96,2.16,5.04
1554884139905,9.548077000000001,0.7080852,2.297835,0.00958738,-0.011717908999999999,-0.020240024,-21.9,2.16,5.04
1554884139925,9.414000999999999,0.64583594,2.321777,0.010652645,-0.010652645,-0.024501082,-21.84,2.16,4.98
1554884139945,9.485827,0.6266823,2.235586,0.002130529,-0.008522116,-0.027696876000000002,-21.84,2.1,4.92
1554884139965,9.500193,0.6171055000000001,2.1972785,0.0,-0.008522116,-0.02876214,-21.9,2.04,4.86
1554884139985,9.404425,0.6314706999999999,2.4366987,0.007456851,-0.014913702,-0.025566347000000003,-21.9,2.04,4.8
1554884140005,9.414000999999999,0.6362591,2.498948,0.024501082,-0.017044231,-0.024501082,-21.96,2.1,4.68
1554884140025,9.452309,0.66020113,2.2068555,0.037284255,-0.01917476,-0.029827405,-21.96,2.16,4.68
1554884140045,9.485827,0.6266823,2.345719,0.034088463,-0.015978966,-0.035153727999999995,-22.02,2.28,4.68
1554884140066,9.514558000000001,0.7032967,2.3983915000000002,0.01917476,-0.013848438000000001,-0.037284255,-22.02,2.46,4.74
1554884140085,9.433155000000001,0.7080852,2.4558525,0.011717908999999999,-0.011717908999999999,-0.036218993,-22.08,2.76,4.8
1554884140106,9.428367,0.66498953,2.297835,0.007456851,-0.0053263223,-0.027696876000000002,-22.08,3.18,4.92
1554884140125,9.490616000000001,0.6314706999999999,2.331354,0.010652645,-0.0031957934000000003,-0.027696876000000002,-22.02,3.66,5.04
1554884140145,9.504980999999999,0.6314706999999999,2.297835,0.011717908999999999,0.0010652645,-0.02876214,-22.02,4.26,5.16
1554884140166,9.485827,0.6171055000000001,2.345719,0.008522116,0.0053263223,-0.034088463,-21.96,4.86,5.28
1554884140185,9.452309,0.75596917,2.379238,0.010652645,0.002130529,-0.034088463,-21.9,5.46,5.4
1554884140206,9.442732000000001,0.7128736,2.1350293,0.0063915867,0.002130529,-0.036218993,-21.84,6.0,5.4
1554884140225,9.476251,0.7272388000000001,2.508525,0.004261058,-0.007456851,-0.034088463,-21.84,6.48,5.4
1554884140245,9.442732000000001,0.6410475,2.355296,0.004261058,-0.008522116,-0.03195793,-21.78,6.78,5.46
1554884140266,9.466674000000001,0.57400984,2.28347,0.010652645,-0.0063915867,-0.03089267,-21.66,6.96,5.46
1554884140285,9.533711,0.5931635000000001,2.345719,0.01917476,-0.002130529,-0.036218993,-21.6,7.02,5.46
1554884140305,9.452309,0.65541273,2.235586,0.026631612000000002,-0.004261058,-0.037284255,-21.48,6.96,5.46
1554884140326,9.423578,0.53570265,2.2691047,0.017044231,-0.008522116,-0.033023197000000004,-21.3,6.9,5.46
1554884140345,9.466674000000001,0.57400984,2.3744495,0.00958738,-0.017044231,-0.029827405,-21.18,6.78,5.46
1554884140365,9.495403999999999,0.5835866999999999,2.331354,0.025566347000000003,-0.013848438000000001,-0.026631612000000002,-21.06,6.72,5.52
1554884140385,9.490616000000001,0.6362591,2.40318,0.051132694000000006,-0.0031957934000000003,-0.02876214,-20.94,6.66,5.46
1554884140406,9.471461999999999,0.6841431,2.3409307,0.04580637,0.0010652645,-0.034088463,-20.82,6.66,5.46
1554884140426,9.433155000000001,0.7320272,2.3361422999999997,0.007456851,-0.002130529,-0.025566347000000003,-20.76,6.66,5.4
1554884140445,9.433155000000001,0.6410475,2.3840263,-0.036218993,-0.010652645,-0.018109497,-20.64,6.66,5.4
1554884140465,9.528922999999999,0.6266823,2.5468319999999998,-0.03834952,-0.015978966,-0.018109497,-20.64,6.72,5.4
1554884140486,9.562441999999999,0.6889314999999999,2.3361422999999997,-0.0053263223,-0.010652645,-0.03089267,-20.64,6.72,5.34
1554884140506,9.442732000000001,0.717662,2.417545,0.022370555,-0.004261058,-0.039414786,-20.64,6.78,5.34
1554884140526,9.404425,0.81343,2.417545,0.01917476,-0.0063915867,-0.033023197000000004,-20.64,6.84,5.28
1554884140545,9.466674000000001,0.6697779,2.3169887000000005,-0.018109497,-0.008522116,-0.025566347000000003,-20.64,6.84,5.22
1554884140565,9.509769,0.7272388000000001,2.2882583,-0.051132694000000006,-0.013848438000000001,-0.033023197000000004,-20.64,6.9,5.16
1554884140585,9.41879,0.65541273,2.4079683,-0.04580637,-0.017044231,-0.036218993,-20.7,6.9,5.1
1554884140605,9.481038999999999,0.65541273,2.4223334999999997,-0.018109497,-0.013848438000000001,-0.04474111,-20.7,6.9,5.04
1554884140625,9.495403999999999,0.76554596,2.3265655,0.002130529,-0.010652645,-0.047936900000000005,-20.7,6.9,4.92
1554884140646,9.385271000000001,0.6985083000000001,2.379238,0.0031957934000000003,-0.014913702,-0.047936900000000005,-20.7,6.9,4.86
1554884140665,9.409213000000001,0.53091425,2.3936029999999997,-0.015978966,-0.022370555,-0.040480047000000005,-20.7,6.9,4.8
1554884140685,9.399636,0.6075286999999999,2.3983915000000002,-0.018109497,-0.018109497,-0.036218993,-20.7,6.84,4.8
1554884140706,9.457097000000001,0.52612585,2.4366987,-0.002130529,-0.00958738,-0.033023197000000004,-20.76,6.84,4.86
1554884140725,9.452309,0.5931635000000001,2.3600842999999996,0.007456851,-0.0053263223,-0.033023197000000004,-20.76,6.84,4.86
1554884140746,9.514558000000001,0.6123171,2.3265655,0.017044231,-0.0010652645,-0.03195793,-20.76,6.78,4.86
1554884140765,9.481038999999999,0.6362591,2.2786815,0.0010652645,-0.002130529,-0.02130529,-20.7,6.78,4.86
1554884140785,9.41879,0.7224503999999999,2.3265655,-0.011717908999999999,-0.004261058,-0.014913702,-20.7,6.78,4.86
1554884140806,9.41879,0.53570265,2.307412,-0.012783173500000002,-0.0063915867,-0.00958738,-20.7,6.78,4.86
1554884140826,9.476251,0.55485624,2.3265655,0.007456851,-0.0053263223,-0.011717908999999999,-20.58,6.84,4.92
1554884140845,9.437942999999999,0.5883751,2.4366987,0.023435817999999997,-0.0053263223,-0.017044231,-20.52,6.84,4.92
1554884140865,9.356541,0.6889314999999999,2.2643162999999995,0.020240024,-0.012783173500000002,-0.012783173500000002,-20.52,6.9,4.92
1554884140887,9.485827,0.7032967,2.4558525,0.010652645,-0.02130529,-0.00958738,-20.52,6.9,4.92
1554884140907,9.476251,0.66020113,2.2499511,0.008522116,-0.017044231,-0.008522116,-20.52,6.96,4.92
1554884140928,9.423578,0.6985083000000001,2.417545,0.013848438000000001,-0.010652645,-0.017044231,-20.52,7.02,4.98
1554884140946,9.471461999999999,0.7032967,2.2068555,0.018109497,-0.007456851,-0.02130529,-20.52,7.02,4.98
1554884140966,9.394848,0.6841431,2.3409307,0.018109497,-0.017044231,-0.022370555,-20.52,7.08,5.04
1554884140986,9.442732000000001,0.76075757,2.3409307,0.015978966,-0.027696876000000002,-0.025566347000000003,-20.58,7.08,5.1
1554884141005,9.461885,0.6937199000000001,2.345719,0.013848438000000001,-0.027696876000000002,-0.03195793,-20.64,7.14,5.1
1554884141025,9.504980999999999,0.64583594,2.321777,0.011717908999999999,-0.020240024,-0.035153727999999995,-20.7,7.14,5.16
1554884141045,9.485827,0.6027403,2.321777,0.012783173500000002,-0.015978966,-0.033023197000000004,-20.7,7.14,5.22
1554884141065,9.56723,0.6314706999999999,2.3840263,0.00958738,-0.013848438000000001,-0.027696876000000002,-20.7,7.08,5.28
1554884141086,9.504980999999999,0.5117606,2.2499511,0.004261058,-0.0063915867,-0.024501082,-20.7,7.02,5.34
1554884141106,9.495403999999999,0.6075286999999999,2.4079683,0.008522116,-0.0031957934000000003,-0.020240024,-20.7,6.96,5.4
1554884141126,9.452309,0.65541273,2.355296,0.011717908999999999,-0.007456851,-0.01917476,-20.7,6.9,5.46
1554884141145,9.528922999999999,0.57879823,2.3505075,0.013848438000000001,-0.0010652645,-0.022370555,-20.7,6.84,5.46
1554884141165,9.476251,0.65541273,2.2307975,0.017044231,0.0053263223,-0.026631612000000002,-20.76,6.78,5.46
1554884141185,9.442732000000001,0.65541273,2.321777,0.01917476,0.0053263223,-0.02130529,-20.76,6.72,5.4
1554884141205,9.447519999999999,0.6985083000000001,2.3600842999999996,0.024501082,0.002130529,-0.017044231,-20.76,6.6,5.34
1554884141225,9.481038999999999,0.7272388000000001,2.273893,0.03089267,-0.002130529,-0.01917476,-20.76,6.36,5.22
1554884141246,9.533711,0.66498953,2.2499511,0.034088463,-0.002130529,-0.027696876000000002,-20.76,6.18,5.1
1554884141265,9.500193,0.74639237,2.3696610000000002,0.035153727999999995,0.0,-0.036218993,-20.82,6.06,5.04
1554884141286,9.457097000000001,0.6985083000000001,2.2547395,0.020240024,0.0010652645,-0.037284255,-20.82,5.88,4.92
1554884141305,9.380483,0.7032967,2.3361422999999997,0.0053263223,0.0053263223,-0.033023197000000004,-20.82,5.76,4.92
1554884141325,9.543288,0.6985083000000001,2.3505075,-0.0010652645,0.0010652645,-0.027696876000000002,-20.82,5.7,4.86
1554884141347,9.524135000000001,0.55964464,2.2882583,0.0063915867,-0.002130529,-0.03089267,-20.88,5.64,4.86
1554884141367,9.471461999999999,0.6266823,2.321777,0.020240024,0.0053263223,-0.02876214,-20.88,5.76,4.92
1554884141387,9.380483,0.6697779,2.2882583,0.018109497,0.010652645,-0.02876214,-20.88,5.94,4.92
1554884141407,9.3182335,0.66020113,2.2164322999999997,0.002130529,0.008522116,-0.029827405,-20.88,6.06,4.98
1554884141426,9.423578,0.66498953,2.3409307,-0.017044231,0.0031957934000000003,-0.02876214,-20.88,6.24,4.98
1554884141446,9.3661175,0.6027403,2.28347,-0.020240024,-0.0053263223,-0.029827405,-20.88,6.42,5.04
1554884141466,9.428367,0.52133745,2.4271219,-0.002130529,-0.008522116,-0.035153727999999995,-20.88,6.6,5.1
1554884141486,9.481038999999999,0.55964464,2.1733365,0.027696876000000002,-0.0031957934000000003,-0.03834952,-20.82,6.72,5.16
1554884141505,9.543288,0.66498953,2.1972785,0.037284255,-0.0010652645,-0.037284255,-20.82,6.78,5.22
1554884141525,9.476251,0.6841431,2.273893,0.020240024,-0.0053263223,-0.029827405,-20.76,6.9,5.22
1554884141546,9.461885,0.6123171,2.2260091,-0.0031957934000000003,-0.007456851,-0.023435817999999997,-20.76,6.9,5.28
1554884141566,9.466674000000001,0.57400984,2.2499511,-0.011717908999999999,-0.00958738,-0.01917476,-20.7,6.96,5.28
1554884141586,9.605537,0.55485624,2.2786815,0.0031957934000000003,-0.010652645,-0.022370555,-20.64,6.96,5.22
1554884141606,9.461885,0.6697779,2.178125,0.017044231,-0.011717908999999999,-0.027696876000000002,-20.64,7.02,5.22
1554884141626,9.452309,0.6123171,2.0871453,0.008522116,-0.010652645,-0.025566347000000003,-20.58,7.02,5.16
1554884141646,9.437942999999999,0.6889314999999999,2.273893,-0.012783173500000002,-0.010652645,-0.020240024,-20.52,7.02,5.1
1554884141666,9.524135000000001,0.6027403,2.475006,-0.01917476,-0.012783173500000002,-0.015978966,-20.52,7.08,5.1
1554884141686,9.56723,0.5979519,2.3409307,-0.007456851,-0.014913702,-0.01917476,-20.52,7.08,5.1
1554884141707,9.509769,0.6841431,2.3840263,0.014913702,-0.008522116,-0.026631612000000002,-20.46,7.08,5.1
1554884141727,9.471461999999999,0.76554596,2.5276785,0.03089267,-0.007456851,-0.03195793,-20.46,7.14,5.1
1554884141746,9.385271000000001,0.6745663000000001,2.3026235,0.029827405,-0.007456851,-0.034088463,-20.46,7.14,5.1
1554884141766,9.437942999999999,0.7320272,2.2786815,0.007456851,-0.011717908999999999,-0.036218993,-20.52,7.2,5.16
1554884141786,9.457097000000001,0.7032967,2.3026235,-0.017044231,-0.012783173500000002,-0.034088463,-20.58,7.2,5.16
1554884141806,9.437942999999999,0.6171055000000001,2.3361422999999997,-0.026631612000000002,-0.0053263223,-0.040480047000000005,-20.64,7.2,5.16
1554884141826,9.466674000000001,0.6171055000000001,2.4510639,-0.02130529,0.0,-0.047936900000000005,-20.7,7.14,5.16
1554884141846,9.447519999999999,0.5931635000000001,2.3169887000000005,-0.0063915867,0.004261058,-0.051132694000000006,-20.76,7.02,5.16
1554884141865,9.442732000000001,0.66498953,2.1733365,-0.0031957934000000003,0.0031957934000000003,-0.05006743,-20.82,6.9,5.1
1554884141885,9.504980999999999,0.6697779,2.2547395,-0.013848438000000001,0.002130529,-0.054328485999999995,-20.88,6.78,5.1
1554884141906,9.500193,0.5835866999999999,2.2786815,-0.018109497,-0.0063915867,-0.05006743,-20.94,6.66,5.16
1554884141926,9.466674000000001,0.52612585,2.2451627,-0.02130529,-0.0063915867,-0.05006743,-20.94,6.54,5.16
1554884141946,9.461885,0.55006784,2.273893,-0.03195793,-0.00958738,-0.05752428,-20.94,6.48,5.16
1554884141966,9.466674000000001,0.55485624,2.3265655,-0.041545313,-0.008522116,-0.046871635999999994,-20.94,6.48,5.16
1554884141985,9.447519999999999,0.56922144,2.2068555,-0.05219796,-0.015978966,-0.04261058,-20.94,6.48,5.16
1554884142005,9.399636,0.6410475,2.3026235,-0.05219796,-0.012783173500000002,-0.037284255,-20.88,6.6,5.16
1554884142025,9.509769,0.66020113,2.297835,-0.039414786,-0.012783173500000002,-0.03089267,-20.82,6.6,5.1
1554884142045,9.442732000000001,0.6889314999999999,2.307412,-0.034088463,-0.0063915867,-0.02876214,-20.76,6.66,5.1
1554884142066,9.519346,0.6123171,2.331354,-0.02876214,0.0,-0.03089267,-20.64,6.66,5.1
1554884142086,9.452309,0.64583594,2.379238,-0.01917476,-0.0010652645,-0.033023197000000004,-20.58,6.66,5.04
1554884142106,9.524135000000001,0.6027403,2.3936029999999997,-0.013848438000000001,-0.0031957934000000003,-0.04261058,-20.46,6.66,4.98
1554884142125,9.433155000000001,0.75118077,2.307412,-0.02876214,-0.002130529,-0.041545313,-20.4,6.6,4.98
1554884142146,9.356541,0.7032967,2.3409307,-0.05219796,-0.0053263223,-0.03834952,-20.34,6.6,4.98
1554884142166,9.346964,0.6362591,2.484583,-0.06285059999999999,-0.00958738,-0.029827405,-20.34,6.6,4.92
1554884142186,9.308656,0.6123171,2.4271219,-0.051132694000000006,-0.017044231,-0.027696876000000002,-20.34,6.66,4.92
1554884142207,9.428367,0.5835866999999999,2.379238,-0.025566347000000003,-0.01917476,-0.029827405,-20.4,6.66,4.92
1554884142227,9.466674000000001,0.5883751,2.2547395,-0.012783173500000002,-0.00958738,-0.033023197000000004,-20.52,6.72,4.86
1554884142247,9.528922999999999,0.5117606,2.3026235,-0.0063915867,-0.008522116,-0.029827405,-20.58,6.78,4.92
1554884142267,9.619903,0.4878186,2.144606,-0.002130529,-0.027696876000000002,-0.018109497,-20.7,6.84,4.98
1554884142287,9.447519999999999,0.45908818,2.4319102999999997,0.002130529,-0.036218993,-0.01917476,-20.82,6.9,4.98
1554884142306,9.332599,0.53091425,2.2882583,0.020240024,-0.039414786,-0.00958738,-20.88,7.02,5.04
1554884142326,9.404425,0.47824179999999994,2.5420437000000002,0.041545313,-0.040480047000000005,-0.0053263223,-20.94,7.02,5.04
1554884142349,9.390058999999999,0.49739540000000004,2.2786815,0.05539375,-0.03834952,-0.013848438000000001,-21.0,7.08,5.1
1554884142365,9.251195,0.40641573,2.297835,0.056459017,-0.041545313,-0.013848438000000001,-21.0,7.08,5.16
1554884142385,9.390058999999999,0.39683893,2.4079683,0.07030745599999999,-0.040480047000000005,-0.004261058,-21.06,7.14,5.16
1554884142405,9.533711,0.43993455,2.2691047,0.101200126,-0.041545313,0.0053263223,-21.06,7.14,5.16
1554884142426,9.576807,0.5021838,2.2403743,0.12144015,-0.027696876000000002,-0.012783173500000002,-21.0,7.08,5.22
1554884142445,9.706094,0.47824179999999994,2.3026235,0.10759171,-0.03089267,-0.013848438000000001,-21.0,7.02,5.28
1554884142465,9.768343,0.54049104,2.4271219,0.10972224,-0.037284255,0.007456851,-21.0,6.96,5.34
1554884142486,9.701305,0.6123171,2.3888147,0.111852765,-0.027696876000000002,0.027696876000000002,-21.0,6.96,5.4
1554884142505,9.624691,0.5883751,2.417545,0.13741912,-0.014913702,0.04474111,-21.06,6.96,5.46
1554884142525,9.586383999999999,0.7320272,2.4366987,0.14807177,-0.007456851,0.049002163,-21.0,6.9,5.46
1554884142546,9.528922999999999,0.83258367,2.417545,0.13741912,0.004261058,0.043675844000000005,-20.94,6.9,5.46
1554884142566,9.447519999999999,0.7799111999999999,2.3505075,0.11824436,0.015978966,0.040480047000000005,-20.88,6.9,5.46
1554884142586,9.457097000000001,0.7751228,2.345719,0.10439592,0.022370555,0.03195793,-20.76,6.96,5.4
1554884142605,9.404425,0.9091981,2.3600842999999996,0.10013486,0.03195793,0.018109497,-20.7,6.96,5.4
1554884142626,9.428367,0.7703344,2.2786815,0.08948222,0.053263225,-0.0031957934000000003,-20.52,6.96,5.28
1554884142645,9.524135000000001,0.83258367,2.4510639,0.06711166,0.047936900000000005,-0.024501082,-20.46,7.02,5.22
1554884142665,9.5385,0.789488,2.2691047,0.026631612000000002,0.025566347000000003,-0.049002163,-20.34,6.96,5.16
1554884142685,9.629479,0.6075286999999999,2.0871453,0.017044231,0.018109497,-0.05752428,-20.28,6.96,5.16
1554884142705,9.634267999999999,0.6266823,2.2068555,0.02130529,0.015978966,-0.06924219,-20.34,6.9,5.1
1554884142725,9.519346,0.66498953,2.235586,0.03195793,0.014913702,-0.07030745599999999,-20.4,6.84,5.1
1554884142745,9.466674000000001,0.5931635000000001,2.273893,0.036218993,0.0063915867,-0.06498113,-20.46,6.84,5.04
1554884142765,9.461885,0.6123171,2.154183,0.046871635999999994,-0.0063915867,-0.05965481,-20.58,6.78,5.04
1554884142785,9.375694000000001,0.57879823,2.307412,0.05965481,-0.011717908999999999,-0.06391586,-20.64,6.72,5.04
1554884142806,9.442732000000001,0.6171055000000001,2.1637597,0.06178534,-0.013848438000000001,-0.06285059999999999,-20.7,6.66,5.04
1554884142825,9.524135000000001,0.6314706999999999,2.1637597,0.039414786,-0.014913702,-0.06391586,-20.82,6.54,4.98
1554884142846,9.428367,0.6075286999999999,2.1924900000000003,0.008522116,-0.014913702,-0.06178534,-20.88,6.48,4.98
1554884142866,9.572019000000001,0.6171055000000001,2.168548,-0.017044231,-0.01917476,-0.05752428,-20.88,6.42,4.98
1554884142885,9.490616000000001,0.5835866999999999,2.40318,-0.02130529,-0.013848438000000001,-0.053263225,-20.94,6.3,4.92
1554884142906,9.481038999999999,0.49739540000000004,2.331354,-0.0031957934000000003,-0.017044231,-0.046871635999999994,-21.0,6.24,4.86
1554884142926,9.514558000000001,0.5835866999999999,2.2547395,0.015978966,-0.018109497,-0.037284255,-21.06,6.18,4.74
1554884142945,9.437942999999999,0.6362591,2.2307975,0.017044231,-0.022370555,-0.035153727999999995,-21.12,6.18,4.68
1554884142966,9.423578,0.7128736,2.297835,0.0,-0.023435817999999997,-0.03195793,-21.18,6.12,4.62
1554884142986,9.3661175,0.75118077,2.441487,-0.015978966,-0.022370555,-0.033023197000000004,-21.18,6.18,4.5
1554884143005,9.447519999999999,0.717662,2.4558525,-0.011717908999999999,-0.029827405,-0.036218993,-21.18,6.24,4.44
1554884143025,9.476251,0.6889314999999999,2.40318,0.004261058,-0.027696876000000002,-0.04261058,-21.18,6.3,4.38
1554884143046,9.500193,0.6171055000000001,2.417545,0.015978966,-0.020240024,-0.049002163,-21.12,6.36,4.38
1554884143066,9.485827,0.7272388000000001,2.2212207000000004,0.015978966,-0.013848438000000001,-0.05219796,-21.06,6.42,4.38
1554884143085,9.471461999999999,0.7032967,2.297835,0.008522116,-0.00958738,-0.05006743,-21.0,6.48,4.38
1554884143106,9.548077000000001,0.6697779,2.355296,-0.0010652645,-0.014913702,-0.04474111,-20.94,6.54,4.38
1554884143125,9.548077000000001,0.66020113,2.2547395,0.0010652645,-0.00958738,-0.037284255,-20.82,6.54,4.38
1554884143145,9.428367,0.57400984,2.202067,0.004261058,0.002130529,-0.034088463,-20.82,6.6,4.38
1554884143166,9.41879,0.6889314999999999,2.4223334999999997,0.0053263223,0.004261058,-0.029827405,-20.76,6.6,4.44
1554884143186,9.394848,0.7032967,2.345719,0.011717908999999999,0.008522116,-0.015978966,-20.76,6.6,4.44
1554884143205,9.409213000000001,0.6889314999999999,2.3744495,0.008522116,0.013848438000000001,-0.007456851,-20.7,6.6,4.44
1554884143225,9.490616000000001,0.76554596,2.2882583,-0.015978966,0.020240024,-0.0063915867,-20.58,6.66,4.44
1554884143245,9.548077000000001,0.6745663000000001,2.28347,-0.039414786,0.02130529,-0.004261058,-20.58,6.66,4.5
1554884143266,9.404425,0.6889314999999999,2.1877017000000003,-0.04474111,0.025566347000000003,-0.0010652645,-20.52,6.66,4.5
1554884143286,9.423578,0.7224503999999999,2.235586,-0.036218993,0.02876214,-0.00958738,-20.4,6.72,4.62
1554884143305,9.409213000000001,0.6697779,2.2499511,-0.02876214,0.026631612000000002,-0.013848438000000001,-20.34,6.72,4.74
1554884143326,9.461885,0.789488,2.2212207000000004,-0.03195793,0.013848438000000001,-0.024501082,-20.34,6.72,4.8
1554884143345,9.447519999999999,0.66498953,2.235586,-0.041545313,0.002130529,-0.027696876000000002,-20.28,6.72,4.86
1554884143365,9.490616000000001,0.6027403,2.1877017000000003,-0.05006743,-0.007456851,-0.034088463,-20.34,6.72,4.92
1554884143385,9.461885,0.6123171,2.2547395,-0.040480047000000005,-0.014913702,-0.035153727999999995,-20.4,6.72,4.98
1554884143405,9.442732000000001,0.6266823,2.3026235,-0.02130529,-0.026631612000000002,-0.037284255,-20.4,6.72,5.04
1554884143426,9.548077000000001,0.65541273,2.475006,-0.002130529,-0.03089267,-0.039414786,-20.4,6.72,4.98
1554884143445,9.495403999999999,0.8230068000000001,2.2547395,0.0031957934000000003,-0.025566347000000003,-0.04474111,-20.4,6.78,4.98
1554884143465,9.509769,0.7320272,2.5516205000000003,-0.002130529,-0.026631612000000002,-0.041545313,-20.4,6.78,4.98
1554884143486,9.437942999999999,0.75596917,2.3744495,-0.014913702,-0.023435817999999997,-0.037284255,-20.4,6.84,4.98
1554884143506,9.500193,0.7751228,2.5755625,-0.023435817999999997,-0.013848438000000001,-0.039414786,-20.4,6.84,4.98
1554884143526,9.375694000000001,0.7080852,2.532467,-0.024501082,-0.0053263223,-0.03834952,-20.46,6.84,4.98
1554884143546,9.404425,0.6314706999999999,2.355296,-0.012783173500000002,-0.002130529,-0.039414786,-20.46,6.9,4.98
1554884143566,9.466674000000001,0.7272388000000001,2.4223334999999997,0.00958738,0.008522116,-0.04580637,-20.52,6.9,4.98
1554884143588,9.524135000000001,0.8230068000000001,2.475006,0.03089267,0.008522116,-0.05219796,-20.58,6.96,4.98
1554884143606,9.428367,0.6841431,2.321777,0.03834952,0.010652645,-0.053263225,-20.7,6.96,4.98
1554884143626,9.390058999999999,0.6937199000000001,2.4079683,0.02876214,0.02130529,-0.049002163,-20.76,6.9,4.98
1554884143645,9.380483,0.65062433,2.3265655,0.022370555,0.02130529,-0.041545313,-20.76,6.9,5.04
1554884143665,9.471461999999999,0.6171055000000001,2.4223334999999997,0.027696876000000002,0.01917476,-0.034088463,-20.82,6.9,5.04
1554884143686,9.437942999999999,0.5117606,2.3600842999999996,0.04261058,0.012783173500000002,-0.035153727999999995,-20.82,6.9,5.04
1554884143706,9.461885,0.6266823,2.154183,0.047936900000000005,0.012783173500000002,-0.039414786,-20.82,6.9,5.1
1554884143725,9.481038999999999,0.6314706999999999,2.2786815,0.034088463,0.014913702,-0.033023197000000004,-20.82,6.9,5.1
1554884143746,9.414000999999999,0.64583594,2.379238,0.020240024,0.00958738,-0.024501082,-20.76,6.9,5.1
1554884143766,9.452309,0.4878186,2.2882583,0.022370555,0.002130529,-0.012783173500000002,-20.76,6.96,5.1
1554884143786,9.409213000000001,0.56922144,2.28347,0.035153727999999995,-0.0031957934000000003,-0.0063915867,-20.76,6.96,5.1
1554884143806,9.548077000000001,0.6410475,2.3026235,0.043675844000000005,-0.0010652645,-0.0053263223,-20.76,6.96,5.1
1554884143825,9.476251,0.76075757,2.28347,0.040480047000000005,0.010652645,-0.011717908999999999,-20.76,7.02,5.1
1554884143845,9.500193,0.76075757,2.2260091,0.025566347000000003,0.0063915867,-0.014913702,-20.7,7.02,5.1
1554884143865,9.414000999999999,0.76075757,2.3600842999999996,0.014913702,0.0053263223,-0.010652645,-20.7,7.02,5.1
1554884143886,9.370906,0.7846996,2.40318,0.014913702,0.0010652645,-0.007456851,-20.7,7.02,5.1
1554884143906,9.533711,0.7799111999999999,2.3026235,0.020240024,0.002130529,-0.012783173500000002,-20.7,7.08,5.1
1554884143926,9.433155000000001,0.7990648,2.3840263,0.02130529,0.0031957934000000003,-0.022370555,-20.7,7.14,5.1
1554884143945,9.390058999999999,0.85173726,2.4319102999999997,0.029827405,-0.00958738,-0.035153727999999995,-20.76,7.14,5.1
1554884143966,9.504980999999999,0.75118077,2.3744495,0.04474111,-0.03195793,-0.058589544,-20.76,7.2,5.1
1554884143986,9.495403999999999,0.8086416000000001,2.4271219,0.05219796,-0.04474111,-0.08522116,-20.76,7.14,5.1
1554884144006,9.552864999999999,0.741604,2.4941597,0.053263225,-0.04474111,-0.098004326,-20.76,7.14,5.04
1554884144026,9.514558000000001,0.76554596,2.3696610000000002,0.046871635999999994,-0.03195793,-0.09374327,-20.76,7.08,5.04
1554884144046,9.500193,0.6889314999999999,2.3840263,0.026631612000000002,-0.007456851,-0.07776430000000001,-20.82,6.96,4.98
1554884144066,9.385271000000001,0.7032967,2.498948,-0.013848438000000001,0.024501082,-0.060720075,-20.82,6.9,4.98
1554884144086,9.414000999999999,0.7272388000000001,2.3361422999999997,-0.033023197000000004,0.04474111,-0.03195793,-20.82,6.78,4.92
1554884144106,9.428367,0.6985083000000001,2.3361422999999997,-0.035153727999999995,0.05752428,-0.01917476,-20.88,6.66,4.92
1554884144126,9.404425,0.6171055000000001,2.3265655,-0.023435817999999997,0.054328485999999995,-0.012783173500000002,-20.88,6.6,4.92
1554884144145,9.3661175,0.7272388000000001,2.1924900000000003,-0.020240024,0.04474111,-0.014913702,-20.94,6.54,4.92
1554884144166,9.385271000000001,0.6937199000000001,2.1924900000000003,-0.026631612000000002,0.033023197000000004,-0.013848438000000001,-20.94,6.54,4.98
1554884144185,9.414000999999999,0.7224503999999999,2.2068555,-0.033023197000000004,0.02876214,-0.013848438000000001,-20.94,6.6,4.98
1554884144205,9.452309,0.6266823,2.3409307,-0.036218993,0.023435817999999997,-0.00958738,-20.94,6.66,4.98
1554884144225,9.490616000000001,0.6362591,2.2260091,-0.037284255,0.022370555,-0.0053263223,-20.94,6.66,5.04
1554884144246,9.414000999999999,0.6745663000000001,2.1637597,-0.04261058,0.017044231,0.0,-20.88,6.72,5.04
1554884144266,9.423578,0.7751228,2.202067,-0.053263225,0.01917476,0.004261058,-20.82,6.72,5.04
1554884144285,9.390058999999999,0.75118077,2.202067,-0.06178534,0.0053263223,0.008522116,-20.76,6.78,5.04
1554884144306,9.380483,0.7080852,2.3600842999999996,-0.07030745599999999,-0.007456851,0.0031957934000000003,-20.7,6.78,5.04
1554884144326,9.433155000000001,0.7080852,2.178125,-0.07776430000000001,-0.013848438000000001,-0.008522116,-20.64,6.84,4.98
1554884144346,9.399636,0.75118077,2.1972785,-0.07456851,-0.01917476,-0.023435817999999997,-20.58,6.84,4.98
1554884144366,9.433155000000001,0.7799111999999999,2.2547395,-0.06498113,-0.036218993,-0.037284255,-20.52,6.9,4.92
1554884144386,9.509769,0.8038531999999999,2.3361422999999997,-0.060720075,-0.051132694000000006,-0.04580637,-20.52,6.9,4.86
1554884144405,9.514558000000001,0.7703344,2.441487,-0.07243799,-0.053263225,-0.04580637,-20.52,6.9,4.86
1554884144425,9.514558000000001,0.82779527,2.4079683,-0.07882957,-0.053263225,-0.04474111,-20.52,6.9,4.8
1554884144445,9.548077000000001,0.6889314999999999,2.4366987,-0.07030745599999999,-0.043675844000000005,-0.049002163,-20.52,6.96,4.8
1554884144465,9.471461999999999,0.75596917,2.355296,-0.05539375,-0.041545313,-0.05752428,-20.52,6.96,4.74
1554884144486,9.327810000000001,0.75596917,2.484583,-0.046871635999999994,-0.046871635999999994,-0.05752428,-20.52,6.96,4.68
1554884144506,9.423578,0.6410475,2.3983915000000002,-0.05219796,-0.053263225,-0.05539375,-20.52,7.02,4.68
1554884144525,9.452309,0.6410475,2.4941597,-0.058589544,-0.053263225,-0.06285059999999999,-20.52,7.02,4.68
1554884144546,9.428367,0.66498953,2.498948,-0.043675844000000005,-0.047936900000000005,-0.06285059999999999,-20.52,7.02,4.74
1554884144565,9.528922999999999,0.49260699999999996,2.5803509,-0.03089267,-0.034088463,-0.06498113,-20.52,6.96,4.8
1554884144586,9.461885,0.6697779,2.5611973,-0.024501082,-0.025566347000000003,-0.06604639400000001,-20.46,6.84,4.92
1554884144606,9.495403999999999,0.46866497,2.441487,-0.01917476,-0.025566347000000003,-0.054328485999999995,-20.46,6.72,4.98
1554884144626,9.524135000000001,0.55964464,2.6090812999999997,-0.013848438000000001,-0.022370555,-0.04261058,-20.52,6.54,5.04
1554884144646,9.519346,0.52612585,2.6282349,-0.0053263223,-0.010652645,-0.040480047000000005,-20.52,6.36,5.1
1554884144665,9.615114,0.49739540000000004,2.4319102999999997,0.0031957934000000003,0.0,-0.026631612000000002,-20.52,6.3,5.16
1554884144685,9.442732000000001,0.55006784,2.5372553,0.002130529,0.0053263223,-0.011717908999999999,-20.52,6.36,5.22
1554884144705,9.485827,0.49739540000000004,2.6090812999999997,-0.004261058,0.004261058,0.0,-20.52,6.42,5.22
1554884144725,9.466674000000001,0.6075286999999999,2.556409,0.012783173500000002,0.008522116,0.007456851,-20.58,6.48,5.22
1554884144745,9.509769,0.5931635000000001,2.4558525,0.04261058,0.010652645,0.00958738,-20.58,6.66,5.16
1554884144766,9.414000999999999,0.6697779,2.4319102999999997,0.06391586,0.01917476,0.0063915867,-20.58,6.78,5.16
1554884144786,9.524135000000001,0.66498953,2.417545,0.05965481,0.020240024,0.011717908999999999,-20.58,6.9,5.16
1554884144806,9.457097000000001,0.7032967,2.2403743,0.04261058,0.017044231,0.011717908999999999,-20.58,7.02,5.16
1554884144826,9.490616000000001,0.8182184,2.5276785,0.027696876000000002,0.020240024,0.010652645,-20.64,7.02,5.16
1554884144845,9.481038999999999,0.6745663000000001,2.40318,0.02130529,0.02130529,0.007456851,-20.64,6.9,5.1
1554884144866,9.466674000000001,0.5883751,2.307412,0.027696876000000002,0.026631612000000002,0.0031957934000000003,-20.7,6.84,5.16
1554884144886,9.485827,0.76075757,2.2260091,0.034088463,0.020240024,0.0053263223,-20.7,6.78,5.16
1554884144906,9.375694000000001,0.75596917,2.2403743,0.035153727999999995,0.011717908999999999,-0.002130529,-20.7,6.78,5.1
1554884144925,9.461885,0.7032967,2.1398177000000005,0.026631612000000002,0.0063915867,-0.012783173500000002,-20.7,6.78,5.1
1554884144945,9.481038999999999,0.75118077,2.2212207000000004,0.01917476,0.002130529,-0.020240024,-20.7,6.78,5.16
1554884144965,9.380483,0.741604,2.2451627,0.011717908999999999,0.002130529,-0.026631612000000002,-20.7,6.84,5.16
1554884144986,9.495403999999999,0.65062433,2.508525,-0.002130529,-0.007456851,-0.03089267,-20.64,6.9,5.16
1554884145006,9.442732000000001,0.6266823,2.3840263,-0.00958738,-0.015978966,-0.039414786,-20.52,6.9,5.16
1554884145026,9.56723,0.6123171,2.2547395,-0.0010652645,-0.022370555,-0.051132694000000006,-20.46,6.96,5.16
1554884145046,9.447519999999999,0.6266823,2.4271219,0.015978966,-0.014913702,-0.05752428,-20.4,6.96,5.16
1554884145066,9.346964,0.66498953,2.1733365,0.020240024,-0.018109497,-0.056459017,-20.34,7.02,5.16
1554884145085,9.442732000000001,0.5979519,2.321777,0.014913702,-0.023435817999999997,-0.05006743,-20.34,7.02,5.1
1554884145105,9.495403999999999,0.6362591,2.297835,-0.0053263223,-0.03195793,-0.04474111,-20.28,7.14,5.1
1554884145125,9.457097000000001,0.57879823,2.273893,-0.0063915867,-0.03834952,-0.049002163,-20.28,7.2,5.04
1554884145146,9.509769,0.56922144,2.3505075,0.0053263223,-0.04580637,-0.056459017,-20.28,7.2,5.04
1554884145166,9.519346,0.54049104,2.2930467,0.03195793,-0.06285059999999999,-0.068176925,-20.28,7.2,5.04
1554884145186,9.514558000000001,0.5883751,2.2499511,0.056459017,-0.08841695,-0.082025364,-20.34,7.2,5.04
1554884145206,9.581595,0.56922144,2.4797945,0.05752428,-0.09587380000000001,-0.09374327,-20.34,7.2,5.04
1554884145226,9.533711,0.6362591,2.4797945,0.046871635999999994,-0.08948222,-0.08841695,-20.4,7.14,5.04
1554884145246,9.485827,0.6027403,2.6426,0.03834952,-0.07350325,-0.084155895,-20.46,7.02,5.1
1554884145266,9.481038999999999,0.5883751,2.5468319999999998,0.037284255,-0.05752428,-0.06924219,-20.46,6.96,5.1
1554884145286,9.442732000000001,0.65062433,2.5803509,0.035153727999999995,-0.010652645,-0.041545313,-20.52,6.84,5.1
1554884145305,9.524135000000001,0.6027403,2.3983915000000002,0.024501082,0.013848438000000001,-0.024501082,-20.58,6.78,5.16
1554884145326,9.471461999999999,0.6889314999999999,2.28347,0.0,0.05539375,-0.008522116,-20.64,6.72,5.16
1554884145346,9.390058999999999,0.5931635000000001,2.2307975,-0.00958738,0.07350325,-0.004261058,-20.7,6.66,5.16
1554884145366,9.442732000000001,0.6697779,2.3169887000000005,-0.0010652645,0.08735169,0.0031957934000000003,-20.76,6.6,5.16
1554884145385,9.490616000000001,0.741604,2.0919337,0.0010652645,0.08735169,0.008522116,-20.76,6.6,5.16
1554884145406,9.485827,0.7320272,2.0536265,-0.007456851,0.07669904,0.012783173500000002,-20.82,6.54,5.22
1554884145426,9.552864999999999,0.6123171,2.1206641,-0.011717908999999999,0.06178534,0.015978966,-20.82,6.54,5.16
1554884145448,9.471461999999999,0.75118077,2.1350293,-0.00958738,0.051132694000000006,0.017044231,-20.88,6.48,5.16
1554884145466,9.409213000000001,0.65062433,2.0967221,-0.0063915867,0.035153727999999995,0.00958738,-20.88,6.48,5.1
1554884145486,9.433155000000001,0.66020113,2.0440497,0.00958738,0.01917476,0.0031957934000000003,-20.88,6.42,5.1
1554884145506,9.409213000000001,0.8086416000000001,2.1829132999999996,0.018109497,-0.002130529,-0.007456851,-20.88,6.42,5.04
1554884145525,9.390058999999999,0.82779527,2.0536265,0.010652645,-0.023435817999999997,-0.017044231,-20.88,6.48,4.98
1554884145545,9.485827,0.81343,2.1972785,-0.0063915867,-0.043675844000000005,-0.034088463,-20.88,6.48,4.98
1554884145566,9.457097000000001,0.82779527,2.331354,-0.020240024,-0.06391586,-0.046871635999999994,-20.88,6.48,4.92
1554884145586,9.528922999999999,0.65541273,2.4558525,-0.018109497,-0.06711166,-0.054328485999999995,-20.88,6.54,4.92
1554884145606,9.495403999999999,0.6745663000000001,2.3936029999999997,-0.007456851,-0.06604639400000001,-0.06391586,-20.88,6.54,4.92
1554884145633,9.466674000000001,0.75118077,2.3505075,0.008522116,-0.058589544,-0.060720075,-20.88,6.66,4.92
1554884145645,9.5385,0.7128736,2.4893713,0.0053263223,-0.054328485999999995,-0.05965481,-20.88,6.66,4.98
1554884145666,9.481038999999999,0.66498953,2.5276785,-0.013848438000000001,-0.037284255,-0.06178534,-20.88,6.66,4.98
1554884145686,9.414000999999999,0.6314706999999999,2.6042929,-0.015978966,-0.026631612000000002,-0.05965481,-20.88,6.66,5.04
1554884145705,9.41879,0.66020113,2.5420437000000002,-0.00958738,-0.014913702,-0.054328485999999995,-20.88,6.72,5.04
1554884145725,9.485827,0.52133745,2.4366987,0.007456851,-0.004261058,-0.053263225,-20.88,6.72,5.04
1554884145746,9.509769,0.53091425,2.3840263,0.026631612000000002,0.004261058,-0.041545313,-20.94,6.72,5.04
1554884145766,9.514558000000001,0.6027403,2.3505075,0.029827405,0.015978966,-0.024501082,-20.94,6.72,5.04
1554884145786,9.514558000000001,0.54527944,2.2930467,0.022370555,0.026631612000000002,-0.00958738,-21.0,6.66,5.04
1554884145805,9.385271000000001,0.56922144,2.2882583,0.023435817999999997,0.03195793,0.0,-20.94,6.6,5.1
1554884145825,9.466674000000001,0.5979519,2.2547395,0.04580637,0.03195793,0.0031957934000000003,-20.94,6.54,5.1
1554884145846,9.404425,0.5835866999999999,2.307412,0.060720075,0.023435817999999997,0.0031957934000000003,-20.94,6.48,5.16
1554884145865,9.41879,0.55964464,2.202067,0.06498113,0.017044231,0.004261058,-20.94,6.42,5.22
1554884145886,9.557653,0.6171055000000001,2.345719,0.06604639400000001,0.010652645,0.008522116,-20.94,6.36,5.22
1554884145906,9.533711,0.6937199000000001,2.417545,0.06178534,0.017044231,0.012783173500000002,-20.94,6.3,5.28
1554884145925,9.528922999999999,0.76075757,2.3409307,0.051132694000000006,0.036218993,0.013848438000000001,-20.94,6.24,5.28
1554884145945,9.390058999999999,0.8038531999999999,2.2882583,0.026631612000000002,0.06498113,0.03089267,-20.88,6.3,5.28
1554884145966,9.399636,0.6985083000000001,2.4462755,0.0031957934000000003,0.058589544,0.04580637,-20.88,6.3,5.28
1554884145986,9.380483,0.6985083000000001,2.3409307,0.008522116,0.02876214,0.049002163,-20.88,6.3,5.28
1554884146006,9.471461999999999,0.7128736,2.3026235,0.05219796,0.002130529,0.023435817999999997,-20.88,6.3,5.28
1554884146026,9.323022,0.6841431,2.2164322999999997,0.09161274,-0.0063915867,-0.017044231,-20.82,6.36,5.22
1554884146045,9.255983,0.8230068000000001,2.3600842999999996,0.096939065,-0.023435817999999997,-0.036218993,-20.82,6.48,5.22
1554884146065,9.332599,0.86131406,2.2068555,0.05965481,-0.03834952,-0.037284255,-20.76,6.6,5.22
1554884146087,9.509769,0.5835866999999999,2.3600842999999996,0.02130529,-0.051132694000000006,-0.041545313,-20.7,6.72,5.22
1554884146106,9.457097000000001,0.6027403,2.3936029999999997,0.02876214,-0.049002163,-0.04474111,-20.7,6.84,5.16
1554884146126,9.495403999999999,0.54527944,2.3840263,0.05965481,-0.03195793,-0.04580637,-20.7,7.02,5.16
1554884146146,9.519346,0.5021838,2.3169887000000005,0.083090626,-0.02130529,-0.036218993,-20.7,7.14,5.1
1554884146166,9.41879,0.7320272,2.2930467,0.07030745599999999,-0.027696876000000002,-0.029827405,-20.64,7.2,5.1
1554884146186,9.509769,0.6362591,2.4893713,0.05539375,-0.03195793,-0.023435817999999997,-20.64,7.32,5.1
1554884146205,9.461885,0.5021838,2.3600842999999996,0.037284255,-0.03089267,-0.014913702,-20.64,7.38,5.1
1554884146225,9.433155000000001,0.55485624,2.4271219,0.039414786,-0.039414786,-0.013848438000000001,-20.64,7.38,5.04
1554884146245,9.428367,0.5979519,2.3888147,0.054328485999999995,-0.047936900000000005,-0.025566347000000003,-20.64,7.44,4.98
1554884146266,9.543288,0.5835866999999999,2.3936029999999997,0.07669904,-0.051132694000000006,-0.03089267,-20.58,7.44,4.98
1554884146286,9.533711,0.6266823,2.321777,0.07989483,-0.04474111,-0.039414786,-20.64,7.44,4.92
1554884146305,9.524135000000001,0.6171055000000001,2.321777,0.05752428,-0.03834952,-0.03834952,-20.64,7.38,4.86
1554884146325,9.543288,0.66498953,2.40318,0.024501082,-0.020240024,-0.023435817999999997,-20.64,7.44,4.86
1554884146346,9.619903,0.52612585,2.5276785,0.011717908999999999,-0.008522116,-0.0063915867,-20.64,7.38,4.8
1554884146366,9.576807,0.7032967,2.5372553,0.025566347000000003,0.00958738,-0.0063915867,-20.7,7.32,4.74
1554884146386,9.552864999999999,0.65062433,2.379238,0.040480047000000005,0.035153727999999995,0.0010652645,-20.7,7.32,4.8
1554884146406,9.471461999999999,0.7224503999999999,2.178125,0.037284255,0.053263225,0.0010652645,-20.7,7.26,4.8
1554884146426,9.390058999999999,0.66020113,2.3888147,0.033023197000000004,0.060720075,-0.004261058,-20.7,7.2,4.86
1554884146446,9.481038999999999,0.6362591,2.417545,0.040480047000000005,0.05006743,-0.010652645,-20.7,7.2,4.92
1554884146466,9.442732000000001,0.6362591,2.202067,0.05965481,0.036218993,-0.013848438000000001,-20.7,7.14,4.98
