TimeStamp,Ax,Ay,Az,Gx,Gy,Gz,Mx,My,Mz
1553846692220,2.1045675,10.051166,0.6440599,-1.9087724999999998,0.34201428,0.5195354,-16.38,-16.92,-25.32
1553846692241,3.4190245000000004,7.6904106,1.3216397,-1.7438388999999999,1.4324086999999999,0.30878690000000003,-16.199999,-15.36,-26.22
1553846692260,3.6823947,7.283384,2.4373717,-1.5251491000000001,2.106804,0.3191716,-15.12,-13.799999,-26.46
1553846692280,2.3918805,7.309721000000001,3.6536633999999997,-1.3229526000000003,2.2100402999999997,0.34116274,-13.92,-12.78,-27.84
1553846692300,1.1468576000000001,7.5228114,4.565882,-1.0108005,1.9149923,0.38636675,-13.559999,-12.12,-29.699999
1553846692320,0.3615355,8.123775,4.9705143,-0.51966494,1.4647846000000002,0.44378809999999996,-12.84,-10.92,-30.779999
1553846692341,0.34716985,8.497281,5.183605,-0.08717230000000001,1.1611844999999998,0.4688335999999999,-11.88,-9.84,-31.92
1553846692360,0.23463893,7.546754400000001,5.3943010000000005,0.31783137,0.8325391,0.45967060000000004,-11.099999,-9.719999000000001,-32.1
1553846692381,0.20351335,6.0455437000000005,5.0327660000000005,0.6476986,0.48923279999999997,0.4492859,-10.679999,-9.42,-32.399998
1553846692400,0.51955765,5.157268,4.348003,0.79980403,0.32735349999999996,0.394308,-10.559999000000001,-9.84,-33.3
1553846692420,0.83081335,4.1780095,3.5794407999999995,0.80896705,0.22533903,0.23853739,-10.2,-10.32,-33.36
1553846692441,0.8882760000000001,3.9002736000000002,2.9928436,0.80285835,0.11110722,0.02534541,-9.84,-10.26,-32.76
1553846692460,0.56265455,4.6951730000000005,2.8587642000000004,0.89143384,-0.16744733,-0.12737091,-9.48,-10.559999000000001,-32.82
1553846692480,-0.22985038,6.840443,3.0550947,1.1174538999999999,-0.39407834,-0.18173791,-10.139999000000001,-11.28,-32.16
1553846692500,-0.27294734,10.314536,3.3950818,1.2555094999999998,-0.3562047,-0.145086,-11.16,-12.36,-31.92
1553846692521,0.44533512,12.287417999999999,3.8332339999999996,1.1803731000000002,-0.1625604,-0.090718985,-10.679999,-13.799999,-32.399998
1553846692540,1.7166951000000001,12.308966999999999,4.1349125,0.6147119000000001,0.15447865,-0.0033652566,-11.099999,-14.7,-32.04
1553846692560,1.9513340000000001,12.261082,7.7718163,-0.24660814,0.14287223,0.050390884000000004,-11.759999,-14.759998999999999,-32.1
1553846692581,1.8340145,11.731947,9.687236,-0.41887212,-0.47165823,0.21227017,-11.639999000000001,-15.179998999999999,-31.98
1553846692600,1.8771113999999998,10.436644,6.8883285999999995,-0.22583872,-0.20471011,0.380869,-12.12,-15.42,-32.219997
1553846692621,1.6424724999999998,7.0798707,4.8364353,-0.21362141,0.52344126,0.18050519,-12.0,-15.299999,-31.859999
1553846692640,1.1181264,7.328875,4.7334814000000005,-0.28631437,0.81421316,-0.14386426,-11.94,-14.82,-30.96
1553846692660,1.3216397,11.739129,6.057515,-0.13726325,0.9657077,-0.30513270000000003,-11.58,-14.34,-31.26
1553846692680,2.4421604,18.660978,7.450983,0.6226531,0.07506618,-0.25382,-11.4,-14.219999,-31.619999
1553846692700,2.7390504,17.411167000000003,1.3431882,1.4497646,-1.2505114,-0.017415157,-11.4,-14.639999,-31.92
1553846692721,0.9624985,7.4246464,2.2697724999999997,1.2775006000000002,-1.4740882,0.17256394,-11.4,-15.54,-32.219997
1553846692740,-0.9217958,4.573065,2.1237217999999998,1.0020004999999998,-1.7111038,-0.05956486,-12.0,-16.199999,-32.7
1553846692761,-1.2234744,3.9673133000000003,-0.25379312,0.5469058000000001,-1.8180052,-0.403482,-13.679998999999999,-17.22,-32.46
1553846692780,-0.5219519,2.6121537999999997,-2.9234095,0.60188365,-1.3042675,-0.63561076,-15.54,-18.0,-31.32
1553846692801,0.5698373999999999,2.5499027,-2.056682,1.1143996999999999,-1.0434280999999999,-1.0656598999999998,-16.619999,-18.48,-30.96
1553846692820,0.88109314,7.944203999999999,-2.5858168999999998,1.4772536,-1.3433628999999998,-1.3845316,-17.4,-19.619999,-30.48
1553846692840,1.924997,14.894784,-1.1516461,1.447932,-1.2529548000000001,-1.1475159,-16.8,-20.58,-29.46
1553846692861,3.8260512,15.076749,0.32083282,1.2683376,-1.5938176000000002,-0.65576935,-17.279999,-21.9,-28.439999
1553846692880,0.59378016,10.522838,0.749408,0.7203915,-2.1246598,-0.32162604,-18.9,-23.58,-27.48
1553846692900,-0.10774237,9.284998,0.44772938,0.35509413,-1.8900872,-0.058953992999999996,-19.38,-24.0,-26.46
1553846692921,0.5219519,10.621003,-1.0510867,0.47238025,-1.501577,0.09192972,-20.34,-23.88,-25.68
1553846692940,1.3647367,10.115811,-0.8092649000000001,0.6134901,-1.0293782,0.16279009,-21.18,-24.119999,-24.18
1553846692961,2.8108785,8.5331955,0.40223816,0.71672636,-0.9169790000000001,0.15057279,-21.359999,-24.72,-23.279999
1553846692980,3.057489,8.028004,0.9122186999999999,0.60677063,-1.1637685,0.14751846,-22.26,-25.14,-23.82
1553846693000,2.5427197999999995,8.233911500000001,0.72546524,0.37280923,-1.4026169,0.054056074,-23.4,-25.14,-23.279999
1553846693021,2.291321,9.167678,0.5818088,0.35326153,-1.2596744,-0.007030448000000001,-24.0,-24.72,-22.02
1553846693040,2.4900458,9.021627,0.5913859,0.47971064,-1.1643794,-0.0571214,-24.6,-25.32,-20.46
1553846693060,2.3535721,8.657698,0.18435916,0.6024946,-1.1906466,-0.103547156,-25.32,-26.22,-19.92
1553846693080,2.152453,8.696006,0.12929083,0.6513638,-1.0782473999999997,-0.17196406,-25.859999,-25.92,-20.16
1553846693101,2.1811842999999995,8.825297,0.60335726,0.70756334,-0.8027472,-0.29780229999999996,-25.56,-26.039998999999998,-18.96
1553846693120,2.1548474,9.797373,0.7948991999999999,0.6831288000000001,-0.6848502,-0.44318822,-25.74,-26.699999,-17.58
1553846693141,2.030345,10.340873,0.8834874,0.62754005,-0.6298723,-0.54459184,-26.88,-27.48,-16.5
1553846693160,2.2745612,9.617802000000001,1.0295382,0.5945533000000001,-0.63048315,-0.6227826,-26.58,-27.84,-15.9
1553846693180,2.9401696,9.344854,0.67279124,0.50597787,-0.61521155,-0.6985299,-26.22,-28.5,-15.839998999999999
1553846693201,3.6632404000000003,9.672871,0.79250497,0.37647444,-0.48937333,-0.7327383000000001,-26.519999,-29.64,-15.24
1553846693220,3.5195839999999996,10.08708,0.46927786,0.26041004,-0.27923566,-0.5555875,-26.64,-30.3,-13.32
1553846693241,2.8611584,9.91948,1.036721,0.19199312,0.07995310000000001,-0.3210152,-25.74,-31.439999,-11.34
1553846693260,2.8683412,9.316123,0.5363176,0.17305629,0.24733017,-0.115153596,-25.32,-31.38,-11.099999
1553846693280,2.8874955,10.106233999999999,-0.531529,0.14984341,0.30902755,-0.054067075,-26.16,-30.66,-12.9
1553846693301,2.3032923,12.787822,-0.44294083,-0.02852924,0.68715316,0.11025567,-26.76,-31.14,-14.16
1553846693321,1.3288225,14.533248,-1.4557191,-0.48606732,0.7115878000000001,0.29840216,-26.88,-31.199999,-14.34
1553846693340,1.4341706,14.401563000000001,-2.2338583,-0.92527944,0.63278615,0.51709193,-26.82,-30.84,-14.519999499999999
1553846693364,0.23703320000000003,13.410333999999999,-1.7597919999999998,-1.3333374,0.9070646000000001,0.9764626000000001,-26.519999,-30.779999,-14.639999
1553846693380,-0.69912827,10.996903999999999,-2.5475084999999997,-1.5398098,0.82276523,1.0748118999999998,-26.58,-29.939999,-16.08
1553846693401,-0.82602483,7.915472500000001,-3.2921278,-2.2245898,1.2033341999999998,0.9257608,-26.46,-29.039998999999998,-17.52
1553846693420,-0.6464542,8.679246000000001,0.24182175,-2.6802952,1.2912989,0.7253970000000001,-26.64,-28.38,-19.08
1553846693440,-0.7853220999999999,10.972961,1.0199611,-2.567285,0.68532056,0.6795821,-26.88,-26.46,-21.18
1553846693460,-1.5443072,11.612233,1.0893950000000001,-2.4023516,-0.041609086,0.60811085,-26.16,-24.539998999999998,-21.9
1553846693480,-0.40223816,11.169292,1.6807808999999998,-2.2514677000000005,-0.5901661,0.42362955,-26.16,-23.82,-23.58
1553846693500,2.2147042999999997,10.494106,1.3527653,-2.0834799999999998,-0.3134441,0.54335916,-27.119999,-22.74,-24.779999
1553846693520,1.838803,9.967366,1.0391153,-1.9478678,0.025586091000000002,0.38270158,-27.72,-21.119999,-24.9
1553846693541,3.2969165,8.798960000000001,-1.6807808999999998,-1.8134775,1.5099886999999999,0.3228368,-27.84,-19.859999,-25.619999
1553846693560,4.005622,7.680834,0.62251145,-1.7969841,2.786086,0.29473698,-27.72,-18.84,-25.74
1553846693581,2.7558103,7.7526617,2.978478,-1.6125028000000001,2.9675130000000003,0.41691002,-27.119999,-17.52,-27.42
1553846693600,1.4150163999999998,7.2762012,4.3911,-1.3492198,2.4097931,0.575735,-25.74,-16.5,-29.88
1553846693620,0.44772938,7.4557720000000005,5.317684,-0.9381075999999999,1.6651485000000001,0.6337672,-24.779999,-15.24,-31.26
1553846693640,0.20590763,8.844451,5.4733124,-0.42314819,1.2076103999999999,0.69974065,-23.34,-14.639999,-32.7
1553846693660,0.74222517,9.019233,5.276982,-0.010203282,1.0164095,0.6954646,-21.66,-14.099998999999999,-33.719997
1553846693681,0.56744313,7.4198575,4.7502413,0.29095328,0.85880625,0.68141466,-21.24,-13.44,-33.96
1553846693701,0.43096948,5.8587904,4.3767343,0.42473274,0.74213105,0.6698082,-21.119999,-14.04,-33.54
1553846693721,0.5985687,4.9585433,4.087027,0.5444623000000001,0.5863604,0.6404867,-20.4,-13.98,-33.84
1553846693741,0.6703969,4.4222255,3.7230972999999996,0.7393284000000001,0.41165292,0.59833705,-20.22,-14.16,-34.5
1553846693760,0.81644773,4.1301239999999995,2.9258040000000003,0.9189226999999999,0.28886902,0.42607298,-20.58,-14.94,-33.48
1553846693782,1.0199611,5.3703585,3.0886145000000003,1.0820239,-0.11552378,0.16217923,-20.1,-15.059999,-34.02
1553846693800,0.6249057,7.544359700000001,3.258608,1.1327256,-0.49364936,-0.08399946,-20.1,-15.9,-35.28
1553846693821,0.5650489000000001,9.759064,3.6464806000000003,1.1589928,-0.64941996,-0.27581117,-20.16,-16.199999,-34.739998
1553846693840,0.8786988000000001,13.034432,5.554717500000001,1.2457358,-0.4667713,-0.33873028,-21.0,-17.16,-33.36
1553846693860,1.8148602999999999,9.881172,5.911464700000001,0.9763440999999999,0.027418686,-0.25626346,-21.0,-19.08,-32.16
1553846693881,1.8819,8.851633999999999,6.4190507000000006,0.17244542,0.45197004,-0.30391094,-21.24,-19.98,-31.08
1553846693900,2.6552507999999997,9.313728999999999,8.016032000000001,-0.29608822,0.60957325,-0.23977011,-21.3,-19.8,-30.96
1553846693920,2.8252442,9.783007000000001,6.8524145999999995,-0.3174685,0.57292134,0.13469029999999999,-20.76,-19.859999,-31.619999
1553846693941,2.22907,12.4358635,5.7390766,-0.3278532,0.63217527,0.5659611999999999,-19.98,-19.619999,-32.219997
1553846693960,2.545114,17.8996,7.233103999999999,0.02156171,0.7464071,0.75166416,-19.5,-19.38,-32.64
1553846693980,2.9210152999999996,19.996983,2.5044115000000002,0.74421525,-0.26396406,0.64476275,-19.439999,-19.8,-32.76
1553846694001,2.6959534,10.692831,0.60335726,0.80346924,-0.79175156,0.44500983,-19.68,-19.74,-32.28
1553846694021,0.36632404,4.757423999999999,0.7541966,0.7967496999999999,-1.1582707,-0.1518055,-20.52,-19.439999,-32.579997999999996
1553846694040,-1.4748733,4.0128045,-1.6113469999999999,0.48093238,-0.4967037,-0.5788003,-21.24,-20.16,-32.82
1553846694060,-0.2466103,2.0902019,-0.8092649000000001,0.6672463000000001,0.078731366,-0.8048204000000001,-21.84,-20.58,-31.98
1553846694080,0.19872479999999998,1.8364087,-1.1540405,1.0746933,-0.36720026,-1.3423818,-22.08,-20.76,-31.32
1553846694100,1.0295382,5.786962,-0.32083282,1.4772536,-1.1460534,-1.6276559,-21.48,-21.9,-30.84
1553846694120,1.5179702,11.739129,-0.28970724,1.4961904,-1.5272333999999999,-1.4804374,-21.3,-22.92,-30.66
1553846694140,3.0862203,16.09671,0.45491222,1.9237962,-1.9102458999999998,-0.42486227,-21.66,-26.22,-29.279999
1553846694160,0.18435916,10.903527,-3.921822,1.4644253999999999,-1.6640671000000002,-0.17685099,-22.199999,-27.0,-27.66
1553846694181,0.55786604,8.734314999999999,-0.67757976,0.48154324,-0.36170247,0.13896634,-22.199999,-27.779999,-25.439999
1553846694200,0.6464542,10.486922999999999,1.5778271000000001,0.40823942,-0.34215477,0.20921585,-22.5,-28.859999,-23.34
1553846694220,1.0606636999999999,11.231544,0.11013664,0.5597340000000001,-0.36170247,0.33383235,-22.619999,-29.46,-23.46
1553846694241,1.6352897,10.008069,0.14605077,0.55057096,-0.52419263,0.4926573,-23.939999,-29.099998,-24.539998999999998
1553846694260,1.4389591,9.356826,0.46209505,0.4015199,-0.7532671,0.44745332,-24.72,-28.98,-24.48
1553846694280,1.8507744,8.882759,0.33519846,0.22620156,-0.8247383,0.30023476,-25.74,-29.099998,-24.06
1553846694300,2.2458298,8.157294,0.6608198000000001,0.17427802,-0.7178369000000001,0.10048184,-26.88,-29.22,-22.199999
1553846694321,2.1740015,7.546754400000001,0.93616146,0.2872881,-0.72394556,-0.056510534,-26.88,-29.099998,-22.02
1553846694340,1.9944308999999998,7.563514,0.38787252,0.53468853,-0.8949879000000001,-0.2049508,-27.42,-29.34,-22.02
1553846694360,2.0973847,8.715160000000001,-0.08619389,0.6727441,-0.7667061,-0.29658055,-28.019999,-30.119999,-20.699999
1553846694381,2.2242813,9.059936,0.8475733,0.67763096,-0.7123391,-0.39065382,-27.48,-30.84,-20.16
1553846694400,2.3846977000000003,8.971347999999999,1.1277034,0.6727441,-0.6744654999999999,-0.46334678,-27.539998999999998,-30.84,-19.439999
1553846694421,2.4780743,8.925857,0.95531565,0.66663545,-0.49548197,-0.5555875,-28.56,-31.619999,-18.24
1553846694440,2.2625897,8.724737,0.8786988000000001,0.64830947,-0.31588757,-0.6337782,-28.5,-32.76,-17.58
1553846694460,2.8204557999999995,8.672064,0.52674043,0.6440334,-0.24563807,-0.65210414,-28.74,-33.48,-17.4
1553846694481,2.9521408,9.088667,0.71828246,0.6415899,-0.22853385,-0.6600454000000001,-28.5,-33.78,-16.92
1553846694500,2.8515813,9.696813,-0.30886146,0.5963859,-0.078261,-0.5507005,-27.599998,-34.62,-15.839998999999999
1553846694520,2.8443985,9.323306,-0.72785956,0.49437138,0.08850521,-0.42486227,-27.3,-35.04,-14.88
1553846694541,2.5642683999999996,9.567522,-0.08619389,0.39785472,0.15997644,-0.34483892,-27.119999,-34.98,-14.88
1553846694560,1.9680939,10.245102000000001,0.818842,0.23964061,-0.0043463064000000004,-0.25320914,-27.18,-35.64,-15.66
1553846694581,1.23784,10.458193,1.5036045,0.056381032000000005,-0.16011694,-0.18601397,-27.119999,-36.239998,-16.08
1553846694600,0.7996878000000001,10.728745,1.4078336,-0.068846345,-0.20471011,-0.16952060000000002,-26.699999,-36.239998,-15.599998999999999
1553846694620,1.7526091000000001,9.950606,0.9241901,-0.2979208,-0.23464250000000003,-0.12065138,-26.699999,-36.42,-15.36
1553846694640,3.172414,9.972155,-0.03351985,-0.65405524,0.016423114,-0.11026668,-27.0,-36.84,-15.36
1553846694660,4.1947694,10.637763,0.083799616,-1.1012086,0.13920704,0.066273384,-27.0,-36.899998,-15.78
1553846694681,3.1963567999999998,11.119012,-0.69194543,-1.4915515,0.55764973,0.2397591,-26.88,-36.48,-16.32
1553846694700,1.0319325000000001,12.234744000000001,-1.7669748,-1.7584996,0.91317326,0.5629068,-26.58,-36.6,-16.26
1553846694720,-1.2402343999999998,11.686456,-4.1899809999999995,-2.0901994999999998,1.4140828,0.8347419,-26.939999,-35.82,-17.64
1553846694741,-2.423006,11.820535000000001,-2.5307484000000002,-2.4780989,1.8722317,0.9208738000000001,-27.0,-34.14,-20.4
1553846694760,-1.4652961000000002,13.434276,-0.30886146,-2.4072385,1.5460296999999998,1.0552641,-26.4,-32.46,-22.68
1553846694781,-0.46927786,13.613847,0.75659084,-2.1525078,0.8203218000000001,0.9501954,-26.519999,-30.66,-25.019999
1553846694800,2.2793495999999998,13.599480999999999,3.1341057,-1.9148811000000001,0.6388948,1.0503774,-25.92,-29.519999,-26.76
1553846694821,3.5267668,13.479767,3.8236567999999997,-1.7145173999999999,0.33346218,1.2018719,-25.439999,-27.539998999999998,-27.599998
1553846694840,2.3655436,12.603462,1.8771113999999998,-1.7737713,0.50206095,1.3026646000000002,-25.38,-26.039998999999998,-28.38
1553846694860,0.9960183000000001,10.929865,0.26337022,-1.9319853999999999,1.6028402,1.1957632,-25.56,-24.539998999999998,-29.76
1553846694881,0.19393626,9.000079,0.26337022,-1.6900828,2.637035,0.87811327,-26.22,-22.32,-31.38
1553846694900,0.54828894,7.249864,1.1468576000000001,-1.2911878,3.1910898999999997,0.7058493,-25.08,-20.52,-32.46
1553846694920,0.72546524,5.2482505,2.310475,-0.8495321,3.0518123999999998,0.6264368,-22.56,-19.56,-33.78
1553846694940,0.6081458000000001,4.992063,3.397476,-0.5037824000000001,2.5215816,0.6374324,-20.88,-18.359999,-35.76
1553846694961,0.7446195,5.7965393,4.4653225,-0.17819123,1.8441319999999999,0.66247785,-19.619999,-17.279999,-37.98
1553846694980,0.88588166,6.5770729999999995,4.601796,0.19565831,1.2900771,0.7156231,-17.46,-16.92,-39.239998
1553846695000,0.79250497,6.646507000000001,4.4892654,0.5792816999999999,1.1349174,0.7229535,-15.96,-15.78,-39.239998
1553846695020,0.8451790000000001,5.705557,4.757423999999999,0.8987642,1.1019306,0.7278405,-15.299999,-16.32,-40.02
1553846695040,0.65124273,4.757423999999999,4.400677,0.9775658000000002,0.7977198,0.6380433000000001,-14.34,-17.34,-40.02
1553846695060,0.45251793,4.7789725999999995,4.824464,0.9525203000000001,0.16547422,0.5018203,-14.28,-17.52,-39.66
1553846695080,0.71828246,5.911464700000001,4.4916596,0.9971135,-0.69034797,0.37170598,-14.759998999999999,-17.88,-40.68
1553846695101,0.56744313,11.104647,2.8252442,1.0093309000000001,-1.3219826000000001,0.20005287,-14.519999499999999,-18.18,-40.739998
1553846695120,0.14605077,17.030478,2.0902019,0.53713197,-0.88093793,0.22815266,-15.0,-19.98,-38.04
1553846695140,-0.7781393,11.509279,4.740664,0.16450419,0.28092778,0.038784448,-15.24,-21.9,-32.82
1553846695160,-0.67279124,4.9441776,6.792557700000001,-0.20568016,0.9559338,-0.36377576,-14.88,-22.68,-28.859999
1553846695180,0.33759275,5.0614967,8.135746000000001,-0.36878118,1.2546469999999998,-0.60323495,-14.639999,-22.98,-28.859999
1553846695200,0.7996878000000001,8.911489999999999,10.779025,-0.5960231,0.96692944,-0.5873524,-13.44,-22.68,-29.88
1553846695220,1.4126221,17.037658999999998,11.30816,-0.8935144,0.29375592,0.25869593,-12.179999,-21.359999,-31.679997999999998
1553846695240,7.915472500000001,24.459910999999998,6.421444999999999,-0.32174456,-1.2712808999999998,1.5103588,-12.179999,-20.699999,-33.059998
1553846695260,9.366403,13.965805,-3.4214187000000007,1.0123851000000001,-1.4368253,2.198804,-12.059999000000001,-20.22,-32.16
1553846695281,2.9808722000000003,2.8491871,-3.0790374,1.0074983,-0.26029885,1.0283860999999999,-13.2,-19.8,-31.619999
1553846695300,-1.4126221,2.2673783,1.0774237,0.42045674,0.6315644,-0.2733677,-15.12,-20.699999,-31.019999
1553846695320,-2.205127,4.8747435,0.5147691,0.40335247,1.1483564,-1.0522208,-15.0,-21.24,-30.24
1553846695341,-0.8643332,3.9601305,1.8842942999999999,0.92442054,0.25160623,-1.4560028,-14.639999,-21.18,-31.32
1553846695360,0.8092649000000001,6.1173720000000005,0.72785956,1.3337003,-1.2059182,-1.5317501,-14.94,-21.6,-32.219997
1553846695380,2.432583,14.202838,1.838803,1.3648543,-2.1240487,-0.9532607,-14.94,-23.699999,-31.32
1553846695400,3.9721019999999996,14.643385,-0.75180227,1.8321663000000001,-2.7996657000000003,-0.2098377,-15.059999,-26.039998999999998,-29.46
1553846695421,-0.28013015,10.501289,-4.9346004,1.1901469,-2.0525775,-0.2904719,-17.279999,-27.06,-29.279999
1553846695440,0.41181526,7.8316726999999995,0.7733508000000001,0.38747,-1.1100124,-0.18540311,-19.68,-28.199999,-29.58
1553846695460,0.82123625,7.16367,3.265791,0.54996014,-1.3983408000000002,-0.21167031,-19.68,-28.439999,-28.859999
1553846695480,0.43815228,8.614600999999999,-1.1013663999999999,0.9164793,-1.2517332,-0.36194316,-19.74,-28.199999,-28.26
1553846695501,1.1612233,10.324113,-1.8675343999999998,1.1125671,-0.43439543,-0.33873028,-20.939999,-28.26,-27.779999
1553846695520,2.5283542000000003,11.056761,-0.44054657,1.2756681,-0.5651206,0.12430558,-21.84,-29.099998,-27.359999
1553846695540,3.347196,10.211582,-0.25858167,1.0979062,-0.90231824,0.29290438,-21.3,-30.24,-26.64
1553846695560,2.7701759999999997,8.540379,1.0391153,0.87188613,-0.93835926,0.21288104,-22.98,-31.26,-24.0
1553846695580,2.0351336,7.8101244,1.3575538,0.650142,-0.8259601000000001,0.017404161,-23.88,-31.56,-22.98
1553846695600,1.6161355,8.490098,1.5969813,0.5646209,-0.90170735,-0.29352623,-24.6,-31.92,-22.26
1553846695621,1.1779832000000001,9.543579,0.8643332,0.7301654000000001,-1.1179537,-0.54825705,-25.14,-31.679997999999998,-24.84
1553846695641,1.5754328000000002,9.644139,-0.54350036,0.8101887,-0.96645904,-0.68936694,-25.68,-31.859999,-25.32
1553846695660,2.4972286,9.39274,-0.12450229,0.7869759,-0.7459366999999999,-0.6600454000000001,-25.74,-32.82,-24.84
1553846695681,2.9162266,9.213169,0.7326481,0.76437384,-0.65064174,-0.5360397,-26.039998999999998,-34.38,-23.82
1553846695700,2.3535721,9.2419,0.9816527,0.69107,-0.57855964,-0.46701196,-26.64,-34.62,-22.08
1553846695721,1.7406378,9.136553,0.66800267,0.6874049,-0.58039224,-0.48961398,-26.519999,-35.1,-21.24
1553846695740,2.0087965,9.311335,0.80208206,0.68984824,-0.46432784,-0.5922394,-26.34,-35.76,-19.619999
1553846695760,2.667222,10.096657,0.87151605,0.62692916,-0.56328803,-0.6337782,-26.88,-36.059998,-20.76
1553846695780,2.7342618,10.939442,0.05985687,0.5114755999999999,-0.5070884,-0.54764616,-27.3,-36.78,-21.06
1553846695801,3.0383348,10.115811,0.023942748,0.29950540000000003,-0.2645749,-0.21411377,-26.279999,-37.5,-19.439999
1553846695820,3.2442424,9.438231,0.47885495,0.24025147,-0.24319461,-0.04795842,-25.38,-37.44,-18.96
1553846695841,2.657645,9.93624,1.2953026,0.22070378,-0.28351173,0.09131885,-25.74,-38.52,-18.779999
1553846695862,1.4652961000000002,10.678466,1.1899546,0.2750708,-0.2877878,0.12980336,-26.039998999999998,-39.36,-17.88
1553846695880,0.9074302,11.628993,1.0678465,0.22497985,-0.08192619999999999,0.101092696,-26.22,-39.239998,-17.82
1553846695900,1.8364087,12.730359,-0.28731298,-0.06457029,-0.14973223,0.044282235,-26.64,-38.34,-18.66
1553846695921,2.7701759999999997,13.556384,-1.350371,-0.49889547,0.040857725,0.15301625,-27.24,-38.399998,-18.24
1553846695940,2.9473522,13.216397,-2.4876516,-0.96742916,0.20395873,0.3503257,-27.48,-37.559998,-18.48
1553846695960,1.8244373999999999,11.976163,-2.3966691000000004,-1.4103065000000001,0.5051153,0.7919813,-27.06,-37.14,-18.48
1553846695981,0.7039168,10.094261999999999,-3.0838259999999997,-1.9106051,0.7745069,1.1053551000000001,-26.699999,-36.96,-19.439999
1553846696000,-0.007182824399999999,7.865193,-3.4788813999999997,-2.4121256,1.1117045,1.0974138999999998,-26.4,-35.82,-21.72
1553846696020,-0.26337022,7.6544967,-1.8076775,-2.88127,1.6865287,1.0100601999999999,-26.939999,-34.739998,-22.14
1553846696041,-0.18675344,9.847652,1.7789462,-2.9625149,1.5869577,0.87750244,-27.06,-32.579997999999996,-24.06
1553846696060,-1.0846065,12.268264,2.7055306,-2.7261102000000004,0.43853100000000006,0.7968682,-26.64,-30.66,-26.34
1553846696081,-0.7134939,13.254705,1.6927522000000002,-2.5031442999999998,-0.21204050000000002,0.72722954,-26.039998999999998,-28.199999,-28.439999
1553846696100,0.8739103000000001,12.26587,1.0726352,-2.2264223,-0.19493626,0.66614306,-26.039998999999998,-25.859999,-31.019999
1553846696120,1.7454262999999999,10.185245,0.74222517,-2.0083435,0.11904847,0.37292773,-26.939999,-23.699999,-31.32
1553846696141,3.2298767999999995,9.251478,-0.409421,-1.8153099999999998,1.6938591,0.36742997,-27.599998,-21.0,-31.439999
1553846696160,3.7350687999999996,7.8556156,1.7621863000000002,-1.7701061000000002,2.3939106,0.38636675,-26.279999,-20.52,-31.92
1553846696181,3.1221343999999998,7.9944835,3.5674694,-1.6699241000000002,2.554568,0.56473947,-25.32,-20.1,-33.899998
1553846696200,1.9465453999999998,7.666467999999999,4.580248,-1.5831813,2.3169417,0.5842871000000001,-24.96,-19.199999,-34.8
1553846696221,0.9816527,7.075082000000001,5.274587599999999,-1.0749414,1.8453536,0.57817847,-21.9,-15.36,-37.8
1553846696240,0.7110996,7.2594414,5.3966956,-0.5587602,1.5753511999999998,0.5525220999999999,-20.52,-14.82,-38.7
1553846696260,0.8786988000000001,7.345635000000001,5.4565525,0.011787866000000001,1.2241038,0.45172933,-19.92,-13.92,-39.48
1553846696280,0.19872479999999998,6.4358106,5.0327660000000005,0.4729911,0.7800045999999999,0.339941,-17.76,-13.38,-40.14
1553846696301,0.11253092,5.4541580000000005,4.436591,0.6721332,0.50939137,0.38331243,-17.039998999999998,-13.019999499999999,-40.079997999999996
1553846696320,0.43815228,4.223500700000001,4.0582957,0.7222241,0.26626700000000003,0.41324484,-17.039998999999998,-13.74,-40.8
1553846696341,0.61293435,3.3112822,3.842811,0.8285146999999999,0.05368589,0.3332215,-15.9,-14.46,-41.219997
1553846696360,0.7206767,2.8348215,3.3448019999999996,0.96229416,-0.16133867,0.12674904,-15.599998999999999,-15.12,-40.8
1553846696380,0.679974,3.205934,2.928198,1.0710282,-0.5156405,-0.11454273,-15.9,-16.14,-39.6
1553846696401,-0.9529214,6.399896599999999,3.8308396,1.262229,-0.9096485999999999,-0.41753188,-16.44,-16.92,-39.059998
1553846696421,-0.87630457,12.481355,4.5012364,1.5169598,-0.7813669,-0.5012204,-17.039998999999998,-17.22,-40.26
1553846696440,0.66321415,18.069592,3.2921278,1.3795152,-0.4979254,-0.45601642,-17.34,-17.58,-40.02
1553846696460,2.3799092999999996,14.561979000000001,5.3488097,-0.021809721,0.7121986,-0.109655805,-17.76,-19.14,-39.18
1553846696480,2.2769554,12.857256,12.392766,-0.519054,0.32124487,0.027178004,-17.88,-19.859999,-38.76
1553846696501,3.4022646,10.546781,9.646533,-0.4720174,-0.28290084,0.25503075,-17.82,-20.039998999999998,-38.94
1553846696520,3.3567734,5.7462597,5.7606254,-0.67360294,0.37683362,0.24342429999999998,-17.52,-18.84,-39.12
1553846696540,0.9960183000000001,5.664854,5.4493694,-0.71941787,0.7457961999999999,-0.018026022,-17.94,-18.359999,-38.52
1553846696561,1.3192455,7.941809700000001,4.8340406,-0.3193011,0.719529,-0.16035762,-17.64,-18.18,-39.18
1553846696580,2.0686533,14.753521,6.857203,0.4925388,0.33407304,-0.09194071599999999,-17.58,-18.18,-39.66
1553846696600,3.2442424,20.008955,2.978478,2.1834137000000005,-1.3458063999999998,0.03695185,-16.98,-18.119999,-39.3
1553846696620,3.8883023000000003,10.070319999999999,0.8332075999999999,2.0019867,-1.4789748999999999,0.33383235,-16.74,-18.42,-38.76
1553846696641,0.43336374,6.280183,2.466103,1.2310749,-1.6787279,0.09131885,-17.58,-19.74,-39.42
1553846696660,-1.211503,5.33205,-0.090982445,-0.04624433,-1.5192921,-0.39554074,-19.08,-21.24,-37.8
1553846696681,-0.72546524,2.9305923,-1.8699286,-0.073122405,-0.8339013000000001,-0.7040276999999999,-20.16,-22.619999,-35.88
1553846696700,0.39266106,2.5642683999999996,-0.68236834,0.73199797,-0.6921805,-1.2006611999999999,-21.48,-22.92,-35.28
1553846696723,1.0846065,8.217151,-1.8483802,1.774745,-1.433771,-1.6166604,-21.72,-23.4,-34.92
1553846696740,2.1237217999999998,12.850073,-0.79250497,1.7118258000000002,-1.2413484,-1.4291247,-21.66,-24.3,-34.32
1553846696760,5.310501599999999,15.981785,1.9010541,1.6030918,-1.6133654,-0.65027153,-22.5,-25.92,-33.42
1553846696781,1.9106313000000001,10.989721000000001,-1.0462981,1.1247844,-1.8583223000000002,-0.21777897,-22.859999,-27.18,-31.74
1553846696800,1.0295382,8.885154,-0.91700727,0.65319633,-0.853449,0.20249633,-22.199999,-28.38,-29.16
1553846696820,0.9577099,9.342461,-0.21548474,0.66052675,-0.2877878,0.25136554,-22.619999,-29.34,-28.56
1553846696841,1.359948,9.732727,-0.59378016,0.9170902,0.040857725,0.28557402,-24.72,-29.699999,-27.96
1553846696860,1.8268316999999998,9.380769,0.36392978,0.91770107,-0.095365226,0.29840216,-24.6,-29.82,-27.359999
1553846696880,1.7310607,9.024022,1.3431882,0.6721332,-0.6219311,0.27763274,-24.96,-30.179997999999998,-27.119999
1553846696900,1.5443072,8.945011000000001,1.2067145000000001,0.46016297,-0.7660953,0.16523355,-25.38,-31.08,-26.699999
1553846696920,1.7286664,8.633755,1.1372806,0.31966394,-0.7410498000000001,0.044282235,-25.5,-31.38,-25.56
1553846696940,2.0327394,8.039975,1.0127783000000001,0.41801324,-0.7196695,-0.103547156,-26.519999,-31.199999,-25.14
1553846696961,2.185973,8.253065,-0.011971374,0.7564326,-0.71295,-0.25320914,-26.699999,-32.04,-23.939999
1553846696980,2.5307484000000002,8.461367999999998,-0.32562137,0.8877686,-0.5125862,-0.35827795,-26.519999,-32.04,-22.92
1553846697000,2.8635526000000002,9.035994,0.4189981,0.9372486999999999,-0.33848959999999995,-0.42180794,-26.58,-32.34,-21.539998999999998
1553846697021,2.8348215,9.316123,1.0055954,0.9170902,-0.32077449999999996,-0.52748764,-26.519999,-33.12,-21.24
1553846697040,2.3918805,9.284998,0.8044763,0.8859360000000001,-0.29695076,-0.65699106,-26.099998,-33.54,-21.06
1553846697061,2.49244,9.27542,1.0774237,0.7558216999999999,-0.15584089,-0.80359876,-26.46,-33.719997,-20.22
1553846697080,3.3998702000000005,10.192428,0.20351335,0.5817251999999999,-0.13751492,-0.8127616999999999,-27.119999,-33.899998,-20.16
1553846697101,3.5985951000000003,11.4757595,0.50758624,0.45527604,0.005427538000000001,-0.58185464,-26.88,-34.739998,-19.68
1553846697120,3.2274826,10.573117,-0.79250497,0.27079475,0.2644344,-0.10721235,-25.74,-36.78,-19.26
1553846697140,2.8372157000000002,9.531608,-0.505192,0.23536454,0.3994356,0.044282235,-25.38,-37.02,-19.68
1553846697160,2.4589202,9.735122,1.0582695,0.16267158,0.46785253,0.12430558,-25.56,-36.54,-19.619999
1553846697180,1.2929084,11.5308275,1.063058,0.0032357534,0.32307744,0.14568587,-25.14,-36.84,-19.92
1553846697201,0.9577099,13.142175,-0.14605077,-0.31380332,0.20273702,0.23242873,-24.779999,-36.54,-19.92
1553846697220,1.211503,13.7575035,-1.4581133,-0.65405524,0.32674265,0.27824363,-25.08,-36.48,-18.9
1553846697241,2.4517374,14.147770000000001,-3.0335462000000004,-1.1286975000000001,0.5881930000000001,0.48227262,-25.38,-36.42,-19.199999
1553846697260,1.5012103,12.411921000000001,-1.3144568,-1.3822067,0.7842806999999999,0.888498,-24.779999,-35.579997999999996,-20.76
1553846697280,0.7589851,9.730332,-2.988055,-1.9356505000000002,0.82643044,0.9978429,-24.42,-34.739998,-21.48
1553846697300,-0.11971374,7.642525,-2.4493432,-2.6240957000000003,1.2662535,0.9734083,-24.42,-33.48,-23.519999
1553846697321,-0.6201171999999999,7.8292785,-0.6895511,-2.7395494,1.6003968000000002,0.9251499,-24.24,-32.399998,-24.24
1553846697340,-0.9577099,9.826103999999999,0.007182824399999999,-2.5569005000000002,1.5692426000000002,0.8200811,-24.119999,-31.199999,-25.019999
1553846697361,-1.2186858999999999,11.628993,1.6999351000000003,-2.3699757999999997,0.61323845,0.6233825,-24.06,-26.46,-29.64
1553846697380,0.13886794,13.142175,2.6552507999999997,-2.287509,-0.20654272,0.49754426,-22.8,-25.68,-28.8
1553846697400,1.0462981,13.022461,2.0925963,-2.1128016,-0.37453064,0.5097615,-22.199999,-24.9,-28.32
1553846697420,2.2530127,11.209994,-0.5123747999999999,-2.0737061999999997,0.5515411,0.48410519999999996,-22.38,-22.92,-27.66
1553846697440,3.0694604,9.184438,0.34956414,-1.9851307,1.707298,0.34849313,-23.279999,-21.6,-28.56
1553846697461,3.5435266000000003,7.843644,2.7869357999999997,-1.6827523999999998,2.2992265,0.34666052,-22.439999,-19.92,-29.64
1553846697481,2.1237217999999998,7.5419655,3.9744961,-1.412139,2.2369182,0.40408185,-20.64,-17.88,-30.96
1553846697500,0.37111259,7.343240700000001,4.350397,-1.0993760000000001,1.875286,0.45111850000000003,-19.199999,-16.32,-32.28
1553846697520,-0.22506183,7.683228,4.632921700000001,-0.7102549,1.5399209999999999,0.52136797,-18.66,-15.299999,-33.6
1553846697540,0.098165266,8.327288000000001,4.6832013,-0.30952725,1.3444441999999999,0.5855088,-16.859999,-14.46,-34.559998
1553846697561,0.35435268,7.336058,4.7670010000000005,0.15534121,0.96204257,0.5824545,-14.88,-13.559999,-35.16
1553846697580,0.28013015,5.7558365,4.901080599999999,0.4998692,0.5888038000000001,0.53725046,-14.7,-13.559999,-36.0
1553846697600,0.4189981,4.608979,4.2905407,0.7405501,0.29070159999999995,0.44317725,-14.28,-13.32,-37.44
1553846697620,0.9984126,3.6967604,3.6392976999999997,0.8291255,0.12271366,0.26052853,-14.34,-13.139999,-40.379996999999996
1553846697640,1.0798178999999999,3.4094474000000003,3.2011453999999997,0.8804382,-0.031224377,0.024734545,-14.88,-13.5,-40.92
1553846697660,0.7853220999999999,3.9768906000000004,3.2610023,1.0136068999999999,-0.2291447,-0.21533549,-14.94,-14.28,-40.079997999999996
1553846697680,-0.14365649,5.669643,3.5411325,1.2371836,-0.52419263,-0.37721479999999996,-14.759998999999999,-15.0,-40.44
1553846697700,-0.68236834,8.966559,3.7183087,1.3813478000000001,-0.6054377,-0.3857669,-14.7,-15.719999,-39.719997
1553846697720,0.30646718,12.919507000000001,3.3950818,1.076526,-0.27923566,-0.27764374,-15.179998999999999,-16.68,-39.42
1553846697740,1.5275473999999998,15.651375,4.6951730000000005,-0.097557016,0.32918614,-0.0155825615,-15.179998999999999,-18.3,-38.7
1553846697760,1.6592325,15.294626999999998,10.972961,-1.0407329,0.0921704,0.39247543,-15.059999,-18.48,-38.52
1553846697783,3.2562137000000004,13.836514000000001,10.860431,-0.7597349,-0.5345773,1.0442687,-15.12,-18.539998999999998,-39.3
1553846697800,3.0407290000000002,7.5180229999999995,7.393521000000001,-0.41642870000000004,-0.122854166,0.7577728,-15.54,-17.34,-39.059998
1553846697821,2.4565259999999998,3.031152,6.002447,-0.35106609999999994,0.3517881,0.10720135,-15.9,-16.44,-38.94
1553846697841,1.8220432,2.135693,4.1971636,-0.14092845,0.415929,-0.43036008,-16.74,-16.02,-38.46
1553846697860,0.34956414,4.1037870000000005,4.2546263,0.102806784,0.5124457,-0.73579264,-17.039998999999998,-16.08,-38.64
1553846697880,0.8451790000000001,9.347249,6.342434,0.5768382,0.5539845999999999,-0.85430056,-16.08,-15.54,-39.059998
1553846697900,2.013585,21.280314999999998,10.206794,1.167545,-0.48570812,-0.78038585,-15.54,-15.719999,-39.66
1553846697920,1.9537282,24.072039,2.4996228,2.3648407000000002,-1.7819641,-0.04429323,-15.179998999999999,-17.039998999999998,-39.96
1553846697940,0.84996754,10.903527,-0.67757976,1.4363256000000002,-1.3183175,0.4755531,-15.42,-18.539998999999998,-38.46
1553846697960,-0.9337671999999999,4.4437739999999994,2.8683412,0.31905308,-0.82840353,0.16034663,-16.44,-19.5,-37.02
1553846697980,-0.41660379999999997,3.0239692000000002,2.2434354,-0.081674516,-1.6127545,-0.3527802,-17.16,-20.82,-36.84
1553846698000,0.5818088,1.4533247999999999,-1.647261,0.052104972,-1.3054893,-0.71013635,-18.42,-22.02,-35.399998
1553846698020,1.5730386,1.2067145000000001,-1.7071179,0.83889943,-0.9065943000000001,-1.0992575,-19.439999,-21.66,-34.32
1553846698041,1.2546,8.669669,-3.093403,1.6110331,-0.81557536,-1.5439673999999999,-21.119999,-22.5,-33.48
1553846698060,2.49244,15.318570000000001,-1.4700848,1.6672326000000002,-0.37086543,-1.2061589,-21.0,-23.46,-33.059998
1553846698080,6.0862465,16.015304999999998,1.3743136999999999,1.6140873,-1.0916864,-0.41875362,-19.92,-25.32,-31.74
1553846698101,1.2569941999999998,9.337671,1.1277034,0.9403030000000001,-1.8509919999999997,-0.02596727,-19.859999,-25.68,-31.859999
1553846698120,-0.23224466,7.6042166,-0.1699935,0.46993679999999993,-1.3152629999999998,0.17195307,-21.0,-27.06,-31.199999
1553846698140,-0.2466103,9.483723,-1.3383996,0.45466515,-0.46249524,0.08093415,-22.439999,-28.199999,-29.76
1553846698161,1.1899546,9.75667,-0.4764607,0.7399392,0.21800864,-0.013749965500000001,-23.34,-27.9,-28.859999
1553846698180,2.3775147999999997,9.390346000000001,0.89545876,1.0117743000000001,-0.036722165,0.0064085876000000005,-23.279999,-27.84,-28.98
1553846698201,2.700742,9.313728999999999,1.2593886,0.88166,-0.5669531999999999,0.13285770000000002,-23.22,-28.5,-28.92
1553846698220,2.1404817000000005,8.885154,1.472479,0.6812961999999999,-0.8968204,0.09681664400000001,-23.22,-29.88,-27.9
1553846698240,1.446142,8.540379,0.8379962,0.5670644,-0.8192405,-0.0015326607999999998,-23.64,-30.42,-26.4
1553846698261,1.7095122,7.721536,0.77574503,0.6373139,-0.572451,-0.15241638,-24.0,-30.599998,-24.96
1553846698280,1.8483802,7.7933645,0.28252444,0.8285146999999999,-0.5932204000000001,-0.2819198,-23.939999,-30.96,-24.72
1553846698301,2.0925963,8.341654,-0.043096945,1.0136068999999999,-0.63659185,-0.32345864,-24.6,-31.019999,-25.32
1553846698320,2.2889266,8.710372,0.15323359,1.0740825,-0.63537014,-0.37965822,-24.96,-31.439999,-24.06
1553846698341,1.9656997,9.026416000000001,0.5794145,1.0074983,-0.63537014,-0.48839226,-25.199999,-32.04,-23.1
1553846698360,1.8890828000000002,9.581888000000001,0.7015225,0.8834924999999999,-0.58039224,-0.62033916,-26.58,-33.84,-22.439999
1553846698381,1.7430321,10.125388000000001,0.69673395,0.7087851,-0.57978135,-0.7192993000000001,-26.4,-35.399998,-18.0
1553846698401,2.7151077,10.233130000000001,0.6464542,0.58111423,-0.62865055,-0.75778383,-24.539998999999998,-35.34,-14.88
1553846698420,3.5052182999999997,11.207600999999999,0.5506831999999999,0.49559313,-0.49731454,-0.63499993,-24.359999,-35.82,-15.0
1553846698441,3.7614057,11.159715,-0.46927786,0.35753759999999996,-0.29389644,-0.35766709999999996,-24.3,-37.14,-14.099998999999999
1553846698461,3.7159145,10.386364,-0.62251145,0.22375810000000002,0.14837001,-0.2098377,-23.88,-37.26,-13.679998999999999
1553846698480,3.1915683999999995,10.211582,0.39984390000000003,0.20726474,0.45380265,-0.09194071599999999,-23.699999,-37.26,-13.139999
1553846698501,2.1835787,11.049579,2.4541316,0.30866838,0.40371168,-0.04795842,-23.16,-38.04,-13.139999
1553846698521,1.4509305000000001,11.468575999999999,0.57462597,0.20665388,0.12760058,-0.02230208,-22.68,-38.1,-13.679998999999999
1553846698540,1.3623424,13.192454000000001,0.33040990000000003,-0.08533971,0.24549757,0.13407943,-22.8,-37.02,-13.86
1553846698560,2.0997790000000003,13.465402,-1.0822121999999998,-0.44452846,0.27787346,0.21349192,-23.58,-36.96,-13.62
1553846698580,2.5714512000000003,12.862044000000001,-1.7597919999999998,-0.8464778000000001,0.41348553,0.39308628,-23.519999,-37.86,-13.62
1553846698600,1.7550035,11.212389,-2.6097596000000003,-1.3589938,0.70120305,0.64170843,-24.0,-37.38,-16.859999
1553846698620,0.95531565,9.768641,-3.840417,-1.8476859,1.1104828000000002,0.89827186,-24.9,-36.48,-20.279999
1553846698640,-0.16281068,8.114198,-3.7757714,-2.3583694,1.7140176,1.0027298,-24.84,-35.1,-21.96
1553846698661,-1.0678465,8.116591,-1.8076775,-2.9295282000000005,2.2405834,0.9190413000000001,-24.6,-33.36,-23.82
1553846698680,-0.9385556999999999,10.419884,1.4006507,-3.039484,2.0628219,0.80358773,-23.939999,-30.96,-25.8
1553846698700,-2.176396,11.619415,2.8300327999999997,-2.6118784,0.6914292,0.6612561,-23.039998999999998,-29.519999,-27.539998999999998
1553846698721,-0.9624985,12.040808,1.6089526,-2.222757,-0.19371454,0.47188792,-22.439999,-28.619999,-29.64
1553846698740,0.9816527,12.026442999999999,2.264984,-2.0297236,-0.3513178,0.50120944,-22.26,-26.22,-31.679997999999998
1553846698760,2.3416007000000003,11.482942,1.7023293999999998,-1.933207,0.05674022,0.74494463,-22.5,-24.3,-31.26
1553846698781,2.8803127,10.053560000000001,-1.6233183,-1.9044964,1.5912336999999999,0.6881341999999999,-22.32,-22.98,-30.24
1553846698800,3.8212626000000003,8.791777,0.25379312,-1.7743821,3.4012275,0.7278405,-21.72,-21.18,-32.34
1553846698820,3.4477558,7.2618356,4.2618093,-1.5636336000000002,3.393897,0.89827186,-21.119999,-18.96,-35.219997
1553846698841,1.6544438999999997,6.304126,5.4589467,-1.3229526000000003,2.4452232999999994,0.90865654,-18.9,-17.22,-37.68
1553846698860,0.04070267,7.3863378,5.39909,-0.93199897,1.9375944,0.9776843000000001,-16.32,-15.599998999999999,-39.54
1553846698880,-0.071828246,8.681641,5.5978145999999995,-0.4017679,1.7592217,1.0870292,-14.34,-14.58,-39.899998
1553846698900,0.29210153,8.356019,4.8843207,0.06982007,1.5112103000000001,1.1071877,-13.5,-13.62,-40.32
1553846698921,0.5458947,6.596227000000001,3.9936504,0.50109094,1.2528143,1.001508,-13.08,-13.2,-40.739998
1553846698940,0.66321415,4.6544704,3.5076127,0.7704825,1.0591700000000002,0.8133616,-11.82,-13.559999,-41.219997
1553846698960,0.8547561,3.1508656000000004,3.9984387999999997,0.94641167,0.7830590000000001,0.56718284,-10.86,-13.799999,-42.12
1553846698981,1.0271438,2.1716073,4.3025117,1.2017533999999999,0.384164,0.31061947,-9.66,-14.639999,-42.78
1553846699000,1.2857256000000001,1.8771113999999998,3.1317115,1.3813478000000001,0.07017925400000001,0.038784448,-8.34,-15.36,-41.579997999999996
1553846699020,0.5650489000000001,3.4716985,1.6664151999999999,1.3025461,-0.29511815,-0.3100196,-9.0,-15.719999,-40.62
1553846699041,-1.3312168,7.1900070000000005,3.7757714,1.3770716,-0.7465476,-0.48778140000000003,-9.84,-16.32,-41.04
1553846699060,-0.9481328000000001,13.094289,2.7342618,1.5230683999999999,-0.7135609,-0.5726916999999999,-9.719999000000001,-17.46,-41.1
1553846699080,-0.9385556999999999,19.594746,-0.6344828,0.38685912,0.44830483,-0.30574358,-9.66,-19.56,-40.32
1553846699101,-0.26337022,18.385635,8.645726,-0.94177276,1.6199443,0.0070194528,-9.42,-21.06,-39.42
1553846699120,1.7621863000000002,13.338505,14.018479000000001,-0.90573174,0.50939137,0.46761185,-9.24,-20.1,-39.899998
1553846699140,2.6624336,6.325673999999999,7.970541000000001,-0.7346895,0.3475121,0.57512414,-8.58,-19.68,-40.86
1553846699161,-0.18914771,7.192401400000001,4.2977233,-1.2129969999999999,1.077496,0.4016384,-7.9199996,-19.26,-41.16
1553846699180,0.90982443,13.637789999999999,6.4549650000000005,-1.51171,1.4165261999999998,0.30939773,-7.3799996,-18.42,-41.04
1553846699201,5.025583,24.649060000000002,6.550736,-0.5043933,0.54115635,0.59039575,-6.12,-17.94,-41.34
1553846699220,6.747066499999999,9.313728999999999,2.4684972999999997,0.9189226999999999,-0.80885583,0.95263886,-5.2799997,-16.56,-41.76
1553846699241,1.3216397,-1.5443072,2.832427,1.5365076000000002,-1.2095833999999999,0.32955632,-6.24,-16.08,-41.7
1553846699260,-2.2889266,2.753416,0.8978530999999998,1.0582001,-1.0086088,-0.23121798,-7.08,-16.92,-41.1
1553846699280,0.15323359,5.7558365,-0.9912298,0.9213662,-0.49181676,-0.37721479999999996,-7.5,-18.42,-40.92
1553846699300,0.9888355,7.005648,-1.5586729,1.0246024,0.21739778,-0.7370144000000001,-8.46,-19.859999,-40.079997999999996
1553846699320,2.6241252,7.379155,0.21069619,1.0850781,0.18990885,-0.9569259,-8.04,-20.279999,-39.059998
1553846699340,4.4174370000000005,9.847652,3.6345089999999995,1.55239,-1.7593622,-0.85002446,-7.56,-20.76,-39.6
1553846699361,2.6959534,12.742331,0.0023942748,1.9024158,-2.7117012000000003,-0.802377,-8.16,-22.14,-39.78
1553846699380,-0.63208854,12.021654,-1.5562786,1.5951506000000002,-2.463079,-0.57330257,-9.179999,-23.699999,-38.94
1553846699400,-0.70870537,9.569917,0.40223816,0.87310785,-1.5492245,-0.30940875,-10.74,-25.5,-37.68
1553846699421,0.40463245,7.9920893,2.2625897,0.8107996000000001,-1.601759,-0.1890683,-12.059999000000001,-26.519999,-37.079997999999996
1553846699440,0.60335726,8.219545,-0.17238778,1.0001678,-1.68728,-0.15058379,-13.62,-27.48,-35.94
1553846699460,0.4764607,8.379961999999999,-1.8172544999999998,1.1632688,-1.1448317,-0.17013147,-15.179998999999999,-28.8,-34.5
1553846699480,0.9337671999999999,8.889942,-1.7262721,1.5823223999999998,-0.9475222,-0.08155601,-16.199999,-29.34,-33.36
1553846699500,2.5139885,10.254679,-1.8819,1.6128657,-0.803358,0.11269914,-16.8,-29.76,-32.16
1553846699520,3.059883,9.909904,0.72546524,1.2842202,-1.0922973,0.16706614,-16.98,-30.48,-30.66
1553846699540,2.6193366,9.12937,0.9792584000000001,0.94335735,-1.1808728000000002,0.11453174,-17.34,-31.26,-29.58
1553846699560,1.8962656000000002,8.772623,0.6177229000000001,0.6348704000000001,-1.2737242,-0.008252178,-18.6,-31.98,-29.4
1553846699580,1.786129,9.361614,0.14365649,0.7216133000000001,-1.3470280000000001,-0.23488317,-19.92,-32.34,-27.9
1553846699601,1.6328955,9.826103999999999,-0.15802214,0.85905796,-1.4142233,-0.42852747,-20.46,-32.82,-26.76
1553846699620,2.3368123,9.29218,-0.48124924,0.84195375,-1.3213718,-0.530542,-20.4,-33.059998,-26.039998999999998
1553846699640,2.6528566000000002,9.4142885,-0.35914123,0.65869415,-1.1039037,-0.6240043000000001,-21.06,-33.36,-25.56
1553846699661,2.4852571,9.531608,0.18196489,0.5682861,-0.92003334,-0.5922394,-22.08,-34.559998,-24.42
1553846699680,2.073442,9.047964,0.6895511,0.6134901,-0.8021363,-0.5415375,-22.32,-35.399998,-23.519999
1553846699700,2.2985039,8.959375999999999,0.6392714,0.6336487,-0.7844211999999999,-0.52870935,-22.439999,-36.36,-22.92
1553846699721,2.7318675999999997,9.007261999999999,0.8332075999999999,0.6214314000000001,-0.83206874,-0.59651536,-22.56,-37.079997999999996,-21.24
1553846699740,2.6528566000000002,10.338479,-0.37111259,0.52186036,-0.49059504,-0.49877697,-22.08,-37.62,-20.279999
1553846699760,3.328042,9.773430000000001,-0.39744959999999996,0.45649776,-0.20226665,-0.35339105,-22.26,-38.04,-20.279999
1553846699780,3.2897336000000004,10.008069,0.15802214,0.37158749,0.006038403,-0.15669243,-22.439999,-38.04,-19.68
1553846699800,2.4876516,11.24112,1.7645805,0.22559069,-0.09292177,0.027178004,-21.3,-38.64,-19.02
1553846699820,1.6903580000000002,11.643358000000001,0.7901106999999999,0.09914159,-0.33238095,0.103536166,-20.939999,-39.059998,-19.14
1553846699840,1.6879636999999998,14.320158,-0.97446984,-0.26554495,0.01031446,0.2012746,-21.6,-39.0,-18.96
1553846699860,2.762993,15.660951999999998,-2.9329867000000003,-0.73530036,0.32185575,0.40408185,-22.08,-38.879996999999996,-18.539998999999998
1553846699880,2.19555,14.784647,-2.7941186,-1.4133607,0.26138008,0.6771385999999999,-22.14,-39.18,-18.779999
1553846699900,0.88109314,12.282630000000001,-3.1149516,-1.8678445,0.4140964,1.1823242,-22.32,-38.52,-19.56
1553846699920,-0.5506831999999999,9.29218,-4.2665977,-2.345541,0.7225833,1.2788409,-22.68,-36.48,-20.64
1553846699941,-1.0319325000000001,7.328875,-3.3256476000000004,-3.058421,1.3450551000000002,1.1731613,-22.32,-35.64,-21.72
1553846699960,-1.3168511,9.615408,1.7645805,-3.4231074,1.2558687,0.8713938,-22.26,-33.84,-23.16
1553846699980,-2.3200524,13.020066,2.2769554,-3.1146203999999997,0.47945896,0.7846509,-22.02,-31.26,-25.859999
1553846700000,-1.620924,13.812572,1.2210802,-2.8275137000000004,-0.22364692,0.6911885,-21.9,-29.46,-28.74
1553846700020,0.19633053,12.09827,0.40223816,-2.7322187000000002,-0.42156726,0.5720698000000001,-22.56,-27.779999,-30.179997999999998
1553846700040,2.2147042999999997,10.946625,0.24900457,-2.7371056,0.08361828,0.61116517,-23.1,-25.68,-30.779999
1553846700061,3.8116856,9.390346000000001,-1.1229149,-2.7230557999999996,1.2076103999999999,0.43218166,-23.519999,-22.5,-32.04
1553846700080,4.659259,8.169266,0.83081335,-2.6173763,2.7072845,0.3136738,-23.22,-20.64,-33.42
1553846700100,3.4525442,8.090255,3.8308396,-2.3803604,3.2595067,0.39308628,-21.96,-19.26,-34.92
1553846700121,1.0175668,7.529994500000001,6.4860907,-2.1018060000000003,2.5948853,0.42790562,-20.039998999999998,-16.38,-37.68
1553846700140,-0.74222517,8.351231,6.8188949999999995,-1.8281383999999998,1.8422993000000003,0.630102,-17.34,-14.099998999999999,-38.1
1553846700160,-0.7972935,9.028810499999999,6.996071000000001,-1.389537,1.1672931999999998,0.9410324000000001,-15.48,-12.3,-38.1
1553846700181,0.0047885496,7.731113400000001,6.196383,-0.8593059999999999,0.87896484,1.0919161,-14.7,-10.8,-39.96
1553846700200,0.6440599,5.514014700000001,5.288953,-0.46590877,0.78733504,0.93370205,-13.139999,-9.78,-41.46
1553846700220,0.96489275,3.5914123,4.309695,-0.27043188,0.8740779000000001,0.59406096,-12.66,-9.42,-41.52
1553846700241,0.80208206,2.875524,4.6999617,-0.35656387,0.86124974,0.29351526,-12.84,-9.719999000000001,-40.62
1553846700260,0.51716334,4.228289,4.9561486,-0.49584115,0.9040103,0.19638768,-11.46,-8.7,-41.82
1553846700280,0.43336374,5.559506,4.9346004,-0.49095422,0.85086507,0.339941,-10.38,-7.8599997,-42.66
1553846700301,0.26337022,6.150892,5.0950169999999995,-0.36328340000000003,0.86430407,0.5494678000000001,-9.84,-7.2,-42.84
1553846700320,0.5961744000000001,6.550736,6.385530999999999,-0.08533971,0.8826299999999999,0.6899668000000001,-9.0,-6.66,-42.84
1553846700340,1.4126221,7.067899000000001,7.599428,0.23841886,0.9571556,0.6459845000000001,-8.28,-6.66,-42.66
1553846700360,2.0925963,7.1349387,8.487703999999999,0.44122612,0.9577665000000001,0.5195354,-6.8399997,-5.8199997,-42.36
1553846700380,2.317658,6.562707400000001,9.107821000000001,0.5108648,0.64989036,0.40957966,-5.58,-5.52,-42.239998
1553846700401,1.7526091000000001,6.280183,8.813326,0.50231266,0.26199093,0.38819936,-5.1,-6.66,-43.26
1553846700420,1.2330515,6.191594599999999,7.898712599999999,0.5450733,0.0659032,0.4248513,-4.62,-7.74,-43.739998
1553846700440,0.3615355,5.5403519999999995,6.828471700000001,0.73260885,0.021920899,0.37598205,-5.22,-8.16,-43.92
1553846700461,-0.27534159999999996,4.187587000000001,7.448589,1.0478153000000001,-0.06298937,0.20555066,-5.46,-8.4,-43.44
1553846700480,-2.1596357999999998,4.8555894,4.3216662,1.089965,-0.11491292,-0.030854193,-4.92,-8.34,-43.5
1553846700500,-2.0830189999999997,11.480547999999999,4.5946136,0.06310055,0.7653439000000001,-0.08277774,-5.4,-9.0,-43.98
1553846700520,3.4046587999999995,19.518127,13.108654999999999,-0.33151840000000005,0.28703642,-0.07544736,-5.16,-10.32,-43.739998
1553846700540,6.8500204,14.322551999999998,9.158101,0.7283328,-0.25968800000000003,-0.035130247,-4.7999997,-10.62,-43.62
1553846700560,0.31365,4.843618,4.9944572,0.6629702,-0.9829525,-0.48350534,-4.98,-10.38,-42.78
1553846700581,0.19393626,5.930619,3.4166303,0.5633991999999999,-0.7978602,-0.61728483,-4.92,-11.099999,-42.48
1553846700600,2.2075214,6.22272,1.9273912,0.80469096,-0.5681748999999999,-0.6276695999999999,-5.8199997,-12.179999,-43.559998
1553846700620,4.0295644,8.320105,1.5323358999999999,1.1119561000000002,-0.028170051,-0.63683254,-6.2999997,-12.719999000000001,-43.079997999999996
1553846700641,5.674431299999999,10.889161999999999,3.3160705999999998,1.489471,0.11110722,-0.31124133,-5.94,-12.84,-41.94
1553846700660,5.889916,11.07831,3.7278860000000003,1.9384569,-0.45149967,0.15790316,-6.0,-14.519999499999999,-41.04
1553846700680,3.6656345999999997,9.184438,2.7845416000000003,2.201129,-1.0507585,0.19394422,-6.48,-16.26,-40.86
1553846700701,1.3743136999999999,7.699988,2.264984,2.068571,-1.379404,0.01251724,-7.14,-18.06,-40.559998
1553846700720,0.21309046,6.859597,1.7765520000000001,1.8010122,-1.3983408000000002,-0.31673914,-7.98,-20.039998999999998,-39.899998
1553846700740,-0.84278476,7.024802,1.7909175,1.4906926,-1.2920502,-0.74495566,-8.58,-21.119999,-39.3
1553846700760,-0.6201171999999999,7.822096000000001,1.6041641000000002,1.3086548,-1.0672518,-1.0082386,-9.12,-22.56,-38.28
1553846700781,0.39984390000000003,8.068706500000001,1.8603516,1.4351038999999999,-0.91758984,-1.1065878999999998,-10.38,-23.76,-37.2
1553846700800,1.5802213999999999,8.317711,0.93616146,1.6201961,-0.8522273000000001,-0.9905235000000001,-10.98,-24.84,-36.6
1553846700821,2.4996228,8.370385,-0.38787252,1.6476848999999998,-0.67996323,-0.61545223,-11.639999000000001,-26.46,-36.12
1553846700841,3.0814316,8.954588000000001,-0.5147691,1.5413944,-0.3439874,-0.13347955,-12.599999,-28.14,-34.559998
1553846700860,2.6983478,9.040782,1.0247495999999998,1.4833622,-0.41606948,0.15973577,-12.54,-29.699999,-33.899998
1553846700880,2.1237217999999998,9.251478,1.6448668000000002,1.3746281999999999,-0.52907956,0.24464603,-12.059999000000001,-30.9,-32.52
1553846700901,1.0223553,8.942616000000001,1.5969813,1.2261879999999998,-0.54068595,0.15362711,-12.66,-31.26,-31.74
1553846700920,0.26337022,8.487703999999999,0.5650489000000001,1.1516623,-0.36536768,-0.103547156,-13.799999,-31.8,-31.8
1553846700940,0.68715686,9.270632,0.7541966,1.2365726000000001,-0.38919142,-0.31185222,-13.679998999999999,-32.7,-30.72
1553846700960,1.7837347,9.660899,0.5506831999999999,1.3007135,-0.5700075,-0.43463612,-12.96,-33.18,-29.699999
1553846700980,1.5730386,9.598647999999999,0.18675344,1.2298532,-0.6237636999999999,-0.5513114,-13.38,-33.96,-28.38
1553846701000,1.1205206,9.833286,1.2402343999999998,0.96473765,-0.7502128,-0.5904067,-14.34,-35.399998,-27.119999
1553846701020,1.2905141000000002,10.503684,1.8411973999999998,0.73199797,-1.0635867,-0.61545223,-13.799999,-36.42,-26.519999
1553846701041,2.5882110000000003,9.783007000000001,1.4150163999999998,0.6104358,-1.0415955,-0.5543657,-12.78,-37.02,-26.099998
1553846701060,3.8787252999999997,9.684841,1.1372806,0.541408,-0.7715930999999999,-0.5219899,-13.259998999999999,-37.86,-25.56
1553846701080,4.903475,10.175668,0.19393626,0.441837,-0.43500632,-0.37660390000000005,-13.799999,-38.219997,-24.18
1553846701100,5.554717500000001,9.840469,-0.15802214,0.1675585,0.19968268,-0.12614916,-13.92,-38.34,-23.88
1553846701120,4.209135,10.290593,0.05506832,0.10219592599999999,0.5515411,0.14935106,-14.28,-38.04,-24.359999
1553846701141,2.8084843,12.699233999999999,0.34716985,-0.03341616,0.91317326,0.39125368,-13.799999,-38.04,-24.3
1553846701160,2.3775147999999997,13.747926000000001,-0.30886146,-0.35839647,0.84781075,0.553133,-13.5,-38.82,-24.3
1553846701180,1.6879636999999998,14.3321295,-2.6241252,-0.9368859,1.0396224,0.72234267,-13.38,-38.76,-24.119999
1553846701201,1.0534808999999998,13.463007000000001,-3.1963567999999998,-1.5172079,1.1477456,0.9734083,-13.44,-37.32,-24.539998999999998
1553846701220,-0.5602603,10.824516000000001,-3.031152,-1.7994276000000002,1.2021126,1.1297898000000002,-13.08,-36.18,-25.619999
1553846701240,-1.4389591,9.251478,-3.8691480000000005,-2.5868330000000004,1.472115,1.001508,-12.54,-35.7,-27.359999
1553846701261,-0.5458947,9.792584,0.8978530999999998,-3.0590317000000002,1.431187,0.88300025,-13.139999,-34.32,-29.279999
1553846701280,-1.7837347,12.555577,2.1740015,-2.6845713,0.57964087,0.73455995,-12.599999,-31.74,-31.32
1553846701300,-1.9273912,13.793417000000002,0.43815228,-2.2533004,-0.0049571716,0.6410975999999999,-11.7,-29.34,-33.36
1553846701321,0.30886146,12.567549,0.68715686,-2.0682082,0.05246416,0.82069194,-11.46,-27.779999,-34.2
1553846701340,1.1492518999999999,10.903527,2.343995,-1.9197681,0.12698972,0.8860546,-12.12,-26.519999,-34.8
1553846701361,0.6296943,9.117398,1.924997,-1.8269165,0.20273702,0.6148304,-13.08,-24.779999,-36.18
1553846701380,1.5275473999999998,7.3384523,-0.88109314,-1.7145173999999999,1.1599628999999998,0.30939773,-12.78,-23.1,-37.02
1553846701400,3.2777622,5.923435700000001,-0.44772938,-1.6247201,2.3505392000000005,0.15057279,-11.7,-22.199999,-36.18
1553846701420,3.1915683999999995,5.978504,1.0917894,-1.530036,2.8569465,0.22021143,-9.9,-20.46,-34.68
1553846701441,2.3799092999999996,6.3639827,3.790137,-1.3186766,2.4568298,0.30878690000000003,-8.04,-18.96,-34.739998
1553846701460,1.4437478000000001,6.7398834,4.7789725999999995,-1.0731088,1.6608723,0.37170598,-5.64,-18.3,-34.8
1553846701481,0.19393626,7.896318400000001,5.269798799999999,-0.6057969,0.9406621999999999,0.48227262,-3.6,-17.4,-35.52
1553846701500,0.14605077,8.7822,5.542746,-0.112217784,0.75557005,0.5286984,-3.48,-16.38,-37.62
1553846701521,0.15562786,7.975329400000001,5.4924664000000005,0.41251546,0.63339704,0.49754426,-3.4199998,-15.299999,-40.079997999999996
1553846701540,0.39984390000000003,6.1748347,5.3033185,0.62998354,0.46418735,0.46761185,-2.82,-15.179998999999999,-41.16
1553846701560,0.6273,4.774183799999999,4.9202347,0.77781284,0.10683117,0.40408185,-2.46,-15.78,-41.16
1553846701581,0.84039044,4.0128045,3.849994,0.91403586,-0.20165578,0.276411,-2.1599998,-16.14,-41.82
1553846701600,0.7829279,4.460534,2.5283542000000003,1.0136068999999999,-0.32810488,0.14385328,-1.26,-16.859999,-40.379996999999996
1553846701620,0.47167215,6.2346916,1.8723229,1.0582001,-0.43378457,0.014349835,-1.5,-17.16,-40.02
1553846701641,-0.37590113,9.091061999999999,3.0263633999999997,1.1895360000000001,-0.40079784,0.0094629135,-2.7,-17.76,-40.559998
1553846701660,0.7302538000000001,12.49572,3.4740927000000004,1.3172069,-0.047106873,0.12186212,-3.36,-18.6,-39.54
1553846701681,1.175589,11.980951,3.8954852,1.0728608,0.40982035,0.11819693,-3.36,-19.56,-38.82
1553846701700,1.8986599999999998,11.375199,7.185219,-0.010203282,1.0212965,0.008852048000000001,-3.3,-21.24,-38.52
1553846701720,2.3823035,11.863631,12.469383,-0.56486887,0.59491247,0.103536166,-3.36,-22.02,-38.52
1553846701740,2.9401696,10.534809,8.767835,-0.43475464,0.09339213,0.25686336,-2.52,-22.14,-38.64
1553846701760,3.0191805,6.3544054,5.7462597,-0.33762705,0.23328027,0.1414098,-1.4399998999999999,-21.66,-39.18
1553846701781,1.333611,5.7007685,4.264203500000001,-0.2631015,0.45135915,-0.080334276,-1.1999999,-21.0,-39.18
1553846701800,0.98404694,8.696006,4.1157584,-0.15803267,0.6242340000000001,-0.21900068,-0.96,-20.46,-38.1
1553846701822,2.2027327999999997,18.332962,8.2027855,0.41984585,0.35972938,-0.28619587,0.53999996,-21.06,-35.219997
1553846701840,2.0423164000000003,23.767965,4.7095385,1.697165,-0.86566633,-0.22755279999999997,1.8,-22.199999,-31.14
1553846701860,2.011191,10.668888,0.8092649000000001,1.5365076000000002,-1.075804,0.34238446,1.8,-22.32,-29.64
1553846701881,0.08140534,4.1157584,2.6241252,0.94091386,-1.1283383,0.10231443,1.26,-23.16,-28.859999
1553846701900,-0.9624985,3.6392976999999997,0.9074302,0.30683577,-1.6133654,-0.25320914,0.48,-24.359999,-29.039998999999998
1553846701920,0.028731298,2.7701759999999997,-2.1476645,0.08142651,-1.2010313,-0.46945545,-0.78,-24.84,-30.24
1553846701941,0.8284190999999999,0.91461295,-1.359948,0.6293726,-0.8167970999999999,-0.8451376,-1.68,-24.96,-28.98
1553846701960,1.0295382,5.150085,-1.7813405,1.3953977,-1.1381122,-1.4987633999999999,-1.92,-24.66,-28.439999
1553846701981,2.5618742,12.847678,-1.1660118,1.6635674999999999,-0.95973957,-1.4401203000000002,-3.0,-24.96,-27.42
1553846702000,4.829252200000001,16.331348000000002,1.8555629,1.7539756000000002,-1.1564381000000001,-0.9679215,-2.9399998,-26.64,-24.9
1553846702021,2.135693,11.858842999999998,-0.35914123,1.325759,-1.7257645000000001,-0.52870935,-2.46,-28.32,-24.84
1553846702040,0.9194015,8.353624,-0.7015225,0.6104358,-1.0257129999999999,-0.02596727,-3.72,-29.699999,-25.859999
1553846702060,0.37111259,9.797373,-0.19872479999999998,0.4907062,-0.36842199999999997,0.17989431,-5.22,-30.42,-25.5
1553846702080,1.0391153,10.204399,-0.600963,0.79552794,0.13737443,0.30878690000000003,-6.2999997,-30.9,-25.019999
1553846702100,2.3463893,9.296969,0.08140534,0.9684028,0.23205855,0.35154745,-5.8799996,-31.26,-24.84
1553846702120,2.3272352,9.296969,1.3695252,0.8291255,-0.1521757,0.34055188,-5.8799996,-31.019999,-25.439999
1553846702140,1.637684,8.988108,1.2522057,0.62754005,-0.5901661,0.22570921,-6.72,-31.5,-25.859999
1553846702160,1.0606636999999999,8.5331955,0.67757976,0.45955208,-0.5345773,0.052834347000000004,-6.66,-32.28,-25.199999
1553846702180,1.3431882,8.011244,0.7302538000000001,0.60738146,-0.422789,-0.13775562,-6.96,-32.219997,-25.08
1553846702200,1.6855695,8.281796,0.05027977,0.91464674,-0.56267715,-0.22510934,-6.8399997,-31.92,-25.14
1553846702220,2.0878077,8.662486,-0.7589851,1.1174538999999999,-0.6255961999999999,-0.29474798,-6.8999996,-32.64,-24.119999
1553846702240,2.0854135,9.134158,-0.339987,1.0801911,-0.5467946,-0.3979842,-7.5,-33.78,-22.619999
1553846702260,1.9752767,9.596252999999999,0.30646718,0.94580084,-0.57611614,-0.49205747,-7.62,-34.559998,-22.14
1553846702280,1.6783867,9.979338,1.0151725,0.7943063,-0.7172261,-0.68447995,-7.44,-35.579997999999996,-21.9
1553846702300,1.5969813,10.075109,1.2593886,0.59394246,-0.7355520000000001,-0.81887037,-7.5,-36.239998,-21.0
1553846702321,2.6839821,10.254679,1.1827718,0.41312635,-0.7294434000000001,-0.77916414,-8.04,-36.42,-20.82
1553846702340,3.7135203000000003,10.508472,0.8930645,0.30683577,-0.58161396,-0.5861307,-7.9199996,-36.42,-20.699999
1553846702360,4.644893,10.022434,-0.42139238,0.2573557,-0.16744733,-0.28130892,-7.74,-36.719997,-19.619999
1553846702380,4.7191157,9.359220500000001,-0.57462597,0.20421042,0.2522171,-0.029021597000000003,-7.62,-36.84,-19.619999
1553846702400,3.3759273999999997,9.651321000000001,0.6344828,0.2591883,0.5087805000000001,0.10292529,-7.08,-37.14,-20.34
1553846702420,2.011191,11.008875999999999,0.48364350000000006,0.27568164,0.678601,0.16706614,-7.3199997,-37.44,-19.38
1553846702441,1.4820561,13.628212,-0.16520496,-0.05052039,0.5912473,0.3051217,-7.44,-37.44,-19.56
1553846702460,1.2641771000000002,14.538035999999998,-2.011191,-0.52271926,0.62912095,0.448675,-6.8999996,-36.899998,-20.279999
1553846702480,1.1516461,13.922707999999998,-2.5355369999999997,-1.0529501,0.6773793,0.59222835,-6.2999997,-36.6,-19.92
1553846702501,-0.06943397,12.373612,-1.5036045,-1.4249671999999998,0.7586244000000001,0.8689503000000001,-5.7,-36.54,-20.4
1553846702520,-0.19393626,10.297775999999999,-3.2490308,-1.9454243999999998,0.72441596,0.9990646000000001,-6.3599997,-35.7,-21.6
1553846702540,-0.3232271,7.5395713,-3.3950818,-2.67663,0.9064538000000001,0.9275934000000001,-6.18,-34.68,-21.84
1553846702560,-0.818842,7.4557720000000005,-0.7853220999999999,-3.184259,1.2241038,0.84940267,-5.52,-33.66,-22.56
1553846702580,-1.4078336,10.551569,2.1189332000000003,-3.1506617,0.8197109,0.7547185000000001,-5.52,-31.92,-24.96
1553846702600,-2.0686533,12.455017,2.308081,-2.6387563,-0.013509285,0.8164159000000001,-5.1,-29.46,-26.4
1553846702620,-1.0223553,12.577126,2.116539,-2.237418,-0.5388534,0.7846509,-5.7,-27.359999,-27.06
1553846702640,0.28970724,11.779832,1.5395187,-1.9497005,-0.88460314,0.5293093000000001,-6.72,-25.619999,-28.14
1553846702661,2.2841382,10.302565,-0.0670397,-1.9295418000000002,-0.048328605,0.48105088,-6.8999996,-24.24,-29.699999
1553846702680,3.8906965,8.779805999999999,-0.74701375,-1.8916682,1.4562325,0.2171571,-6.18,-22.68,-30.179997999999998
1553846702700,4.9274178,7.544359700000001,1.3407938,-1.6717567,2.7854753,0.16401182,-5.58,-21.359999,-30.24
1553846702720,4.0439300000000005,6.7039695,4.087027,-1.4365736,2.7610407,0.3136738,-5.16,-19.74,-31.26
1553846702740,1.4700848,6.028784,5.61218,-1.162906,1.9033859,0.394308,-3.6,-17.699999,-31.8
1553846702761,-0.083799616,7.3312693,6.182017299999999,-0.7511828,1.3536072000000001,0.5354179,-0.84,-16.74,-31.98
1553846702780,-0.19154198,9.004868,6.3903193,-0.25332764,0.9986944,0.80358773,0.42,-16.8,-32.34
1553846702800,-0.03351985,9.428655000000001,5.585843,0.19443657,0.84353465,0.93003684,0.65999997,-16.619999,-32.52
1553846702820,0.22985038,7.8747697,5.025583,0.62204224,0.8209325999999999,0.9465302,1.4399998999999999,-16.68,-32.399998
1553846702841,0.5147691,5.193182,3.962525,0.8669992,0.75801355,0.83962876,1.86,-17.16,-31.92
1553846702860,0.9433443000000001,2.7653873,3.3735332000000002,0.92564225,0.64317083,0.55740905,2.3999999,-17.16,-31.98
1553846702881,1.2498114,1.7621863000000002,3.337619,0.9928375,0.46785253,0.2648046,2.58,-17.699999,-31.619999
1553846702900,1.4605076000000001,1.9944308999999998,2.928198,1.1724318,0.17219375,0.048558287,3.24,-18.42,-30.779999
1553846702920,0.89067024,3.7111259,2.8707354,1.3972303,-0.2578554,-0.09010813,4.02,-18.6,-30.779999
1553846702940,-0.24182175,7.065505,3.050306,1.5065751,-0.68546104,-0.19090089,3.72,-19.8,-31.08
1553846702960,0.05027977,15.821368,3.241848,1.4821405,-0.58344656,0.0070194528,2.8799999,-21.119999,-30.48
1553846702981,1.838803,19.029695999999998,1.4054393,0.5065887,0.38110965,0.23181786,2.3999999,-21.96,-29.46
1553846703000,2.2601955,14.751126999999999,10.290593,-0.58624923,0.89545816,0.36132129999999996,2.6399999,-23.4,-29.16
1553846703020,3.5962007000000007,8.679246000000001,12.153339,-0.6479465999999999,-0.1259085,0.25747420000000004,3.36,-24.0,-29.4
1553846703040,3.5507095,5.0327660000000005,7.398308999999999,-0.5581494,0.29864284,0.008852048000000001,3.6,-24.24,-29.88
1553846703061,2.3344178,4.7813669999999995,4.743058,-0.55204076,1.1330848999999998,-0.29658055,3.4199998,-23.939999,-29.16
1553846703080,1.1013663999999999,7.8292785,6.3927135,-0.27654052,1.5215951,-0.29535887,3.6599998,-22.439999,-28.859999
1553846703100,2.4445546,16.111074,5.786962,-0.052352987000000004,1.213719,0.101092696,4.56,-22.08,-29.58
1553846703120,4.6760187,24.503007999999998,5.518803599999999,1.6519611,-0.8803271,0.793203,5.64,-22.8,-29.64
1553846703141,5.880339,14.868445999999999,0.42139238,2.3507907,-1.5223464,1.2867821000000002,6.06,-23.4,-28.859999
1553846703161,-1.175589,4.1397014,0.97446984,1.6183633999999998,-1.6145871,0.5629068,5.22,-24.48,-27.66
1553846703180,-3.1939626,2.8851009999999997,-1.6113469999999999,0.53652114,-1.1203971000000001,-0.31063047,4.08,-25.56,-27.06
1553846703200,-2.1931557999999995,2.6863763,-2.719896,0.042941995,-0.23097731,-0.78466195,2.9399998,-26.4,-26.16
1553846703221,-0.91461295,0.5698373999999999,-1.2617828000000002,0.48154324,-0.019007072,-1.3038973999999999,2.28,-27.0,-24.539998999999998
1553846703240,-1.0319325000000001,3.4549387,-0.24900457,1.3190396,-1.2352397,-2.0247183,2.46,-26.699999,-24.84
1553846703260,-0.071828246,11.9187,-1.1085492000000001,1.5114621000000001,-2.00493,-2.0540397,2.76,-27.18,-25.199999
1553846703281,3.9098508,20.583579999999998,1.7286664,1.6550153000000003,-2.078234,-1.0027407,2.76,-28.5,-24.42
1553846703300,2.6935592,12.732754,-3.059883,1.4589276000000002,-2.6970403,-0.39737335,1.74,-29.279999,-23.82
1553846703321,0.6895511,7.951386500000001,-1.5275473999999998,0.7399392,-1.39773,0.26602632,0.9,-30.539998999999998,-23.1
1553846703340,1.5538843999999998,9.232324,0.66800267,0.59088814,-1.01655,0.49448994,-0.24,-31.8,-22.26
1553846703361,1.2593886,10.446221000000001,-1.2306572,0.79552794,-0.57855964,0.38819936,-1.0799999,-32.1,-22.439999
1553846703380,1.8938714,10.144542999999999,-0.3232271,0.7197806999999999,-0.33726785,0.24708949,-1.1999999,-32.76,-21.66
1553846703400,1.6496553,9.486116,1.1995316999999999,0.5597340000000001,-0.96645904,0.2012746,-1.8,-33.6,-19.74
1553846703421,2.0973847,8.516436,0.60335726,0.3502072,-1.3177066000000002,0.04978002,-2.52,-33.48,-19.92
1553846703440,2.3128695,8.758257,0.72546524,0.28179032,-1.2187464,-0.09194071599999999,-3.48,-33.54,-21.0
1553846703460,2.2578009999999997,8.451789999999999,0.66800267,0.3856374,-1.2016421999999998,-0.12981436,-4.44,-33.48,-21.3
1553846703480,2.2003386000000003,8.078283,-0.098165266,0.57256216,-1.2407376,-0.19151175,-5.16,-33.54,-21.06
1553846703500,2.2027327999999997,8.317711,-0.28252444,0.80163664,-1.1338362,-0.3259021,-5.1,-34.32,-19.74
1553846703520,2.5738453999999997,9.325700999999999,-0.14365649,0.8584470999999999,-0.75632143,-0.39126468,-5.46,-35.04,-18.42
1553846703540,2.7749646,9.469357,0.8379962,0.8071344,-0.604216,-0.50305307,-5.58,-35.579997999999996,-18.06
1553846703561,2.4852571,9.253872,0.9026415999999999,0.7631521,-0.5681748999999999,-0.6630997,-5.46,-35.46,-19.08
1553846703580,1.9393626,9.059936,1.5419129999999999,0.76254123,-0.5028123,-0.8231464,-5.94,-35.76,-18.72
1553846703600,2.82285,9.371192,1.1396747999999999,0.6886266,-0.41668037,-0.8640744,-6.24,-36.36,-17.76
1553846703621,3.7207031,10.194822,0.8930645,0.5988293,-0.4050739,-0.81215084,-5.64,-36.84,-16.859999
1553846703640,3.9146392,11.018453,-0.33519846,0.43389577,-0.025115725,-0.40959063,-5.16,-37.38,-15.599998999999999
1553846703660,3.7494342000000005,9.895537,-0.11253092,0.27079475,0.27420825,-0.07361476,-5.3399997,-38.219997,-15.66
1553846703681,2.9162266,9.316123,-0.12929083,0.22864504,0.40737686,0.12064039,-4.68,-38.52,-15.599998999999999
1553846703700,1.9992193999999999,10.477346,0.12450229,0.23902974,0.45135915,0.1469076,-4.98,-38.34,-15.299999
1553846703720,1.0127783000000001,12.857256,0.34716985,0.066154875,0.47579375,0.19760941,-5.16,-38.52,-15.059999
1553846703741,0.68236834,14.590710999999999,-1.3719195,-0.4262025,0.4031008,0.29046094,-4.8599997,-39.0,-15.54
1553846703760,1.5323358999999999,15.227588,-2.8994668,-0.9717051999999999,0.36339456,0.4071362,-4.2599998,-38.76,-16.14
1553846703780,0.70631105,14.490151000000001,-2.1285102000000005,-1.4011434,0.43853100000000006,0.8145833,-3.06,-37.92,-16.14
1553846703800,-0.27773590000000004,11.193234,-2.569057,-1.7591105,0.5570389,1.1975958,-3.6599998,-37.68,-16.56
1553846703820,-0.22985038,8.150111,-4.1420956,-2.404184,0.6346187,1.2030936,-4.92,-36.96,-17.76
1553846703840,-0.17717634,6.8883285999999995,-2.19555,-3.1066792000000003,1.1905061000000001,1.0735902,-5.1,-35.219997,-19.02
1553846703860,-0.21309046,8.863605499999998,0.81165916,-3.0761359,1.3835396,0.95508236,-5.8199997,-33.899998,-21.24
1553846703880,-0.23942748,11.116617999999999,2.073442,-2.8006358,0.6437816999999999,0.9031587,-6.06,-32.46,-23.1
1553846703900,-0.5123747999999999,12.416708999999999,1.9800651999999999,-2.4915377999999997,-0.16927992,0.7266187,-5.58,-30.599998,-24.42
1553846703920,0.7733508000000001,11.868421000000001,1.6065584,-2.1573946,-0.36964375,0.52197886,-5.4,-29.34,-25.8
1553846703941,1.8723229,10.43425,0.35914123,-1.9619178,0.14470482,0.2489221,-5.2799997,-28.32,-26.34
1553846703960,3.545921,9.282603,-1.1061549,-1.825084,1.4837215,0.13591202,-5.64,-26.16,-27.18
1553846703980,4.45814,7.9968777,1.446142,-1.856238,2.4830967999999998,0.10659049,-5.46,-23.699999,-29.16
1553846704001,3.5435266000000003,7.965752,4.146884,-1.7774363999999998,2.6529173999999998,0.3735386,-4.56,-22.26,-30.72
1553846704020,1.6257126,7.1397276,5.4589467,-1.5263708999999999,2.2210360000000002,0.42301866,-3.0,-21.6,-31.199999
1553846704041,0.052674048,7.1109962,5.8779445,-1.0590589,1.5423645000000001,0.5329744000000001,-1.14,-21.06,-31.8
1553846704060,-0.18196489,8.377566999999999,6.067092400000001,-0.5355474,1.299851,0.6362106,0.24,-19.859999,-32.219997
1553846704081,0.11013664,9.107821000000001,5.5451403,0.08142651,1.1843975,0.6123869000000001,1.26,-19.199999,-32.219997
1553846704100,0.14126222,7.731113400000001,5.1907879999999995,0.51452994,1.0555048999999999,0.59345007,2.6399999,-19.08,-32.34
1553846704121,0.39026679999999997,5.4086666,4.1013927,0.82057345,0.7427419,0.5995587,3.36,-19.02,-32.64
1553846704140,0.53392327,4.0726614,3.3902931000000005,0.8657775,0.5503193000000001,0.5684045999999999,4.08,-19.14,-32.16
1553846704161,0.7901106999999999,2.5882110000000003,3.632115,0.9543530000000001,0.25404970000000004,0.43951204,4.14,-19.619999,-31.679997999999998
1553846704180,0.8834874,2.0662591,3.4812756,1.103404,-0.03366784,0.27702188,4.08,-20.16,-32.1
1553846704201,0.95531565,2.7294734,3.4477558,1.3251481999999999,-0.47165823,0.059553865,4.5,-21.3,-32.04
1553846704220,0.41660379999999997,4.96812,2.8276386000000002,1.4418233999999999,-1.1423883,-0.26359385,3.78,-22.68,-31.619999
1553846704241,-1.1875603000000001,12.52924,4.7454529999999995,1.6678435,-1.1539948,-0.4926683,2.7,-23.46,-30.779999
1553846704260,0.28731298,19.487003,0.531529,1.2787224,-0.6500309,-0.3869886,2.3999999,-24.48,-30.0
1553846704280,1.5443072,16.367262,5.0231886,-0.32296628,0.8526976,-0.007030448000000001,1.62,-25.08,-30.42
1553846704300,1.9633054,11.96898,14.578739,-0.7133092,0.09522473,0.038784448,1.5,-25.439999,-30.24
1553846704320,4.338426,7.5539369999999995,10.3743925,-0.6644399000000001,-0.5015906,0.054666944,2.3999999,-25.619999,-30.48
1553846704340,2.2242813,4.8627720000000005,5.1285367,-0.98758763,0.6474469,-0.22877453,2.3999999,-24.84,-31.38
1553846704361,1.6137413,9.536397000000001,7.048744999999999,-0.7853913,1.0836047,-0.24832222,2.22,-24.18,-31.199999
1553846704380,3.0910087,19.226027,6.9290313999999995,-0.28753609999999996,0.60957325,0.2641937,3.0,-23.64,-31.019999
1553846704400,7.467743,20.870893,1.8100717,1.7967361000000002,-1.4863055,0.9868473,3.6,-23.279999,-31.26
1553846704420,6.0000525,6.993676700000001,-0.29928434,2.3391845,-1.4594274,1.0399926,2.82,-23.1,-31.5
1553846704440,-1.8483802,3.1436827000000003,0.9433443000000001,1.6812826,-1.5583874,0.05161261,2.1,-23.58,-31.019999
1553846704461,-1.733455,3.9242165,-0.8930645,0.745437,-0.8870466,-0.57024825,0.84,-25.199999,-30.9
1553846704480,-1.4221992,3.1676257000000003,-1.7957061999999997,0.39602208,-0.20165578,-0.93493474,-0.84,-26.519999,-30.72
1553846704500,-0.42378664,1.3360053,-0.9960183000000001,0.76437384,-0.11430205,-1.6129951,-1.26,-27.72,-30.48
1553846704520,-0.7733508000000001,5.4565525,-0.80208206,1.3379763,-1.097795,-2.0479312,-0.9,-28.32,-30.599998
1553846704541,0.7398309000000001,14.866052999999999,-1.3838909,1.3453066,-1.3787931,-1.6899642,-0.35999998,-28.619999,-30.179997999999998
1553846704560,4.4892654,18.811817,0.019154198,1.5120729,-1.5492245,-0.5238224,0.06,-29.46,-29.039998999999998
1553846704580,2.4014575000000002,11.238726,-2.1380875,0.7943063,-1.7850186000000001,-0.09682763,-0.9,-30.84,-27.72
1553846704600,1.8148602999999999,8.688824,1.0247495999999998,0.38808087,-0.81068844,0.3576561,-2.52,-31.26,-27.06
1553846704620,1.0510867,9.8548355,0.64166564,0.48337582,-0.5003689,0.548246,-2.9399998,-30.66,-27.18
1553846704641,1.1277034,9.897932,-1.3407938,0.5976077,0.13126577,0.40591446,-3.6,-31.619999,-26.699999
1553846704660,1.5586729,9.569917,-0.12210801,0.57867086,-0.030613512000000002,0.33077803,-4.38,-32.28,-25.74
1553846704680,1.9513340000000001,8.454185,0.30167863,0.60982496,-0.48204294,0.26785892,-4.08,-32.219997,-25.74
1553846704701,2.0399222,8.303345,0.68236834,0.57195127,-0.6390353,0.076658085,-4.62,-32.399998,-25.98
1553846704720,2.3823035,8.664881,1.0008069,0.51880604,-0.6579721,-0.036962844,-4.92,-32.34,-26.16
1553846704740,2.1021732999999996,8.755863,0.7877164000000001,0.5524036,-0.65308523,-0.123705715,-4.92,-33.0,-25.859999
1553846704761,1.5658557,8.432636,-0.19393626,0.71367204,-0.63598096,-0.19212262,-5.8199997,-33.96,-24.72
1553846704780,1.3814965,8.511647,-0.24900457,0.94091386,-0.640257,-0.3558345,-6.48,-34.44,-24.6
1553846704800,1.9417567999999998,9.071907000000001,-0.18435916,1.0184938000000001,-0.45760829999999997,-0.5232116,-6.24,-34.079997999999996,-24.66
1553846704821,2.3799092999999996,9.423865,0.90982443,0.9549638,-0.48021033,-0.6258369,-6.24,-34.739998,-24.0
1553846704840,2.1787900000000002,9.395133999999999,0.71828246,0.82118434,-0.5156405,-0.7217428000000001,-6.3599997,-35.52,-23.039998999999998
1553846704861,1.7885233,9.529214,0.6943397,0.6880156999999999,-0.43011940000000004,-0.757173,-5.94,-35.82,-21.84
1553846704880,1.8819,9.885961,0.69912827,0.60432714,-0.42889765,-0.7138015,-5.8799996,-36.36,-21.6
1553846704901,2.7821474,10.56354,0.93616146,0.43511748,-0.45394309999999993,-0.65882367,-6.3599997,-36.84,-21.9
1553846704920,2.5618742,11.504491,0.32083282,0.31294444,-0.3995761,-0.34911498,-5.7599998,-36.78,-21.6
1553846704940,3.0527002999999997,9.909904,-0.10055954,0.19993436,-0.2578554,-0.0711713,-5.22,-36.899998,-21.3
1553846704961,3.3064934999999998,9.035994,0.09577099,0.18283014,-0.08925658,0.035119254,-5.64,-37.079997999999996,-20.699999
1553846704980,2.875524,9.821315,0.90503585,0.20604302,0.028029552000000003,0.06138646,-6.0,-37.38,-21.0
1553846705000,1.9130256,11.81814,1.1133378,0.18160839999999998,0.24733017,0.14568587,-5.8199997,-38.1,-21.18
1553846705020,1.5993756000000001,12.823736,0.007182824399999999,-0.040135678,0.21067825,0.20616153,-5.64,-37.38,-21.18
1553846705040,2.073442,13.465402,-1.2857256000000001,-0.3999353,0.32368833,0.29840216,-6.18,-37.32,-21.3
1553846705060,2.5092,13.367235999999998,-1.5586729,-0.87152326,0.42997888,0.4144666,-5.58,-37.26,-20.699999
1553846705080,1.4916332,12.797399,-1.2881198,-1.1879514,0.461133,0.7675466999999999,-5.52,-36.66,-21.24
1553846705100,0.6273,10.448615,-2.5044115000000002,-1.5935661,0.7464071,1.0302187,-6.0,-35.94,-22.32
1553846705120,0.43096948,7.4605603,-3.78056,-2.1854944,0.9076755,0.9709648000000001,-5.8199997,-34.86,-23.76
1553846705141,-0.18435916,6.447782,-2.779753,-2.7939162,1.4165261999999998,0.82802236,-4.8599997,-33.78,-24.66
1553846705160,-0.46688359999999995,8.614600999999999,0.72785956,-2.999167,1.7879324,0.75349677,-4.7999997,-31.859999,-25.68
1553846705180,-0.9792584000000001,11.624205,3.4286015,-2.763984,0.9095081,0.73700345,-5.3399997,-30.06,-27.24
1553846705200,-1.7693691000000003,13.075134,2.803696,-2.3834147,-0.20287752,0.6869125,-4.68,-27.599998,-28.5
1553846705220,-0.090982445,13.039221000000001,1.3838909,-2.0077326,-0.45577574,0.54702437,-4.2599998,-25.08,-30.24
1553846705240,1.5107874,11.289005,1.0151725,-1.8733422999999998,-0.21814914,0.44317725,-3.6,-23.16,-31.08
1553846705260,3.1939626,9.584282,0.50758624,-1.7780471999999998,0.7427419,0.308176,-3.8999998999999996,-22.02,-31.26
1553846705280,4.1037870000000005,8.044764,1.4269878,-1.7132956000000001,1.5881795,0.23914824,-3.9599998,-20.699999,-32.04
1553846705301,3.6273263,7.9346266000000005,2.6193366,-1.6375483,2.1318493,0.3875885,-3.06,-18.779999,-32.82
1553846705320,2.3751206000000002,7.656891000000001,4.6544704,-1.4316868,2.1306276,0.5464135,-1.56,-17.279999,-33.42
1553846705340,1.1540405,7.333664,5.2674046,-1.0175200999999998,1.7360088,0.5824545,-0.53999996,-16.68,-33.42
1553846705360,0.7302538000000001,7.632948,5.193182,-0.5410451999999999,1.462952,0.59283924,0.12,-15.719999,-33.12
1553846705380,0.7134939,8.253065,5.1644505999999994,0.015453058,1.2393754,0.60933256,2.3999999,-14.519999499999999,-33.48
1553846705400,0.25379312,7.427040600000001,5.162056400000001,0.47482374,0.96876204,0.5610742,3.84,-14.16,-33.6
1553846705420,0.102953814,5.949773,4.6544704,0.75215656,0.6614968000000001,0.5690155,4.2,-14.28,-33.719997
1553846705440,0.49800915,4.6927786,3.9170337,0.80102575,0.46540907,0.48349434,4.8599997,-15.059999,-33.6
1553846705461,1.0151725,3.407053,3.6105663999999997,0.77536947,0.32124487,0.317339,4.74,-16.26,-33.3
1553846705481,0.9960183000000001,3.0431232,3.407053,0.80102575,0.12332453,0.12491644,5.52,-16.619999,-33.059998
1553846705500,0.8379962,4.127730000000001,3.3328303999999997,0.9745115,-0.23158818,-0.094995044,5.94,-16.619999,-33.059998
1553846705520,-0.43815228,7.7502675000000005,2.8707354,1.1156213,-0.48326465,-0.21533549,5.46,-17.039998999999998,-32.52
1553846705540,-0.52674043,12.751907000000001,4.8819265,1.1919795,-0.41484776,-0.15058379,5.58,-17.64,-31.74
1553846705560,0.7015225,14.391986,3.929005,1.1553277,-0.32627228,-0.016193425,5.4,-18.42,-31.5
1553846705580,2.3032923,10.951413,5.5092263,0.37219837,0.17891327,-0.019858617,5.52,-19.38,-30.9
1553846705600,2.2242813,10.089474000000001,8.183631,-0.4072657,0.017644841,-0.19212262,5.58,-20.16,-30.66
1553846705620,2.1285102000000005,9.244295,8.985713,-0.63634014,-0.1081934,-0.1927335,5.7599998,-20.279999,-31.199999
1553846705640,2.4134290000000003,8.537984,7.1995845,-0.44513935,0.07384445,-0.12309484,5.58,-20.16,-31.619999
1553846705660,2.5810282000000004,8.56911,5.317684,-0.21362141,0.49411973,-0.010084774,5.58,-19.8,-31.74
1553846705680,2.1141446,10.197216000000001,5.7654138,-0.05296385,0.9241689000000001,0.0112955095,5.8199997,-19.08,-31.38
1553846705700,2.6767993,14.693665,6.773403599999999,0.25063620000000003,0.79344374,0.14385328,6.42,-19.08,-31.38
1553846705721,3.0479119999999997,18.445494,5.104593799999999,0.9268639999999999,-0.14179099,0.38636675,7.62,-18.9,-31.679997999999998
1553846705740,3.3495904999999997,12.610645,3.0287576,1.3886781000000001,-1.098406,0.7052384,7.56,-19.199999,-30.96
1553846705761,1.3479767,5.8827333,1.620924,1.2720028,-1.4801968,0.4926573,6.54,-20.279999,-29.939999
1553846705780,-1.3862851,4.3934940000000005,-0.52674043,0.6672463000000001,-1.4563731000000002,-0.10293630000000001,5.64,-20.699999,-30.0
1553846705800,-1.376708,3.8739367,-1.5443072,0.34715290000000004,-0.8369556,-0.47067717,4.74,-21.539998999999998,-29.939999
1553846705821,-0.098165266,2.8467927000000004,-2.5235654999999997,0.4387827,-0.17722118,-0.9007263000000001,4.08,-22.02,-29.82
1553846705840,0.6249057,4.4485626,-0.33519846,0.82423866,-0.4979254,-1.4859352,3.72,-22.08,-30.24
1553846705861,0.9768641,10.376787,0.7134939,1.2023641999999999,-1.3299239,-1.5995562,3.3,-22.08,-29.82
1553846705880,2.569057,16.915551999999998,1.1995316999999999,1.370963,-1.7508099999999998,-0.9025588999999999,2.82,-23.1,-28.859999
1553846705904,1.9561224999999998,12.625011,-0.7709564999999999,1.3129308000000002,-2.2999777999999997,-0.44563168,3.0,-24.18,-28.8
1553846705921,0.28491869999999997,8.889942,-1.9154198,0.85294926,-1.8723721999999998,-0.096216775,2.6399999,-24.24,-28.74
1553846705940,0.89545876,9.251478,0.009577099,0.55301446,-1.029989,0.1255273,1.0799999,-25.14,-28.26
1553846705960,1.3455825000000001,10.278622,-0.22266756,0.6886266,-0.75998664,0.17378566,0.06,-25.74,-27.84
1553846705980,1.8531687,9.534002000000001,-0.35435268,0.7949170999999999,-0.6200985,0.16828787,-0.9,-26.58,-27.24
1553846706000,2.1907616,9.004868,0.4932206,0.72894365,-0.81191015,0.18050519,-2.28,-26.64,-26.099998
1553846706021,2.1548474,9.033599,0.8978530999999998,0.57561654,-1.1173428,0.12797077,-3.12,-26.82,-26.039998999999998
1553846706040,2.2003386000000003,8.990502000000001,1.0199611,0.42045674,-1.2034748,0.04244964,-3.78,-28.14,-26.16
1553846706061,2.169213,8.346442,1.0870007,0.38013962,-1.1265056999999998,-0.04795842,-4.5,-28.32,-25.38
1553846706081,2.1141446,7.963358,0.7781393,0.48520842,-1.1375013999999999,-0.16035762,-5.1,-28.26,-25.019999
1553846706100,1.8962656000000002,8.157294,0.29928434,0.69901127,-1.1472751,-0.28130892,-5.52,-29.16,-24.9
1553846706120,2.1332988999999998,8.514041,0.23942748,0.8272930000000001,-1.0141065,-0.38149086,-6.0,-29.88,-24.3
1553846706141,2.482863,8.992896,0.5363176,0.80408007,-0.8980421999999999,-0.42119709999999994,-6.8999996,-30.179997999999998,-23.519999
1553846706160,2.5403256,9.182044,0.89067024,0.7704825,-0.8540599,-0.5409267,-7.3199997,-30.72,-23.279999
1553846706181,2.5475084999999997,9.249083500000001,0.97446984,0.73077625,-0.7306651,-0.68142563,-7.14,-30.599998,-23.699999
1553846706200,2.604971,9.63935,1.0798178999999999,0.69534606,-0.55840105,-0.73579264,-7.259999799999999,-31.38,-23.1
1553846706221,3.8140797999999996,9.663293,0.818842,0.58966637,-0.41179344,-0.77794236,-7.56,-32.34,-22.199999
1553846706240,3.8212626000000003,11.4757595,0.5698373999999999,0.48276499999999994,-0.31100067,-0.5952937,-8.16,-32.34,-21.72
1553846706260,3.4309957000000004,11.212389,-0.28252444,0.26774043,0.007870999,-0.19090089,-7.7999997,-32.7,-20.88
1553846706281,3.0455174,9.443019999999999,-0.07422252,0.19810176,0.18502192,0.021680217,-6.6,-33.12,-20.699999
1553846706300,2.6289136,9.435837,0.29449580000000003,0.16083899,0.26382354,0.023512814,-6.3599997,-33.3,-20.4
1553846706320,1.5754328000000002,10.46777,1.9824595,0.16450419,0.10560944,0.013738968999999998,-5.7599998,-32.88,-19.859999
1553846706340,0.38547826,11.787015,0.9337671999999999,-0.010203282,0.098889925,0.049169157000000005,-5.4,-32.219997,-19.02
1553846706360,0.69912827,13.383996,0.057462595,-0.36817032,-0.070930615,0.12247299,-6.24,-32.82,-19.26
1553846706380,1.472479,13.788629,-0.9960183000000001,-0.68948543,-0.027559185,0.27580017,-6.8399997,-33.12,-20.64
1553846706400,2.4110348,13.266677,-2.5738453999999997,-1.1317518,0.1398179,0.5152593,-6.06,-32.579997999999996,-21.0
1553846706421,1.3096683,11.703216000000001,-2.1213273999999998,-1.4555105,0.5161109,0.9434759,-5.52,-31.32,-21.0
1553846706440,0.8930645,9.37598,-3.8452053,-2.087145,0.62973183,1.1132964,-6.42,-30.42,-22.32
1553846706460,-0.07422252,7.544359700000001,-2.9569294,-2.5581224,0.987088,1.1126856,-7.259999799999999,-29.64,-23.82
1553846706480,-0.38308397,7.508445699999999,-1.9154198,-2.9881713,1.7060764,1.0442687,-7.68,-27.72,-24.96
1553846706500,-0.21069619,9.984126,2.4684972999999997,-2.9209762,1.3707113000000002,0.89277405,-7.02,-25.8,-26.16
1553846706520,-0.55307746,12.608252,3.8475995000000003,-2.599661,0.04391205,0.75166416,-5.64,-23.58,-28.38
1553846706541,-0.0047885496,13.764686,3.7111259,-2.2337527,-0.7740365,0.55557644,-5.2799997,-21.48,-30.179997999999998
1553846706560,1.8244373999999999,12.675291,1.8196488999999998,-1.9509221,-0.48082120000000006,0.56046337,-5.8199997,-19.8,-29.64
1553846706581,2.430189,10.525232,1.2617828000000002,-1.7872103,0.31574708,0.33810842,-5.46,-18.119999,-29.64
1553846706600,3.2633965,8.770228,0.22985038,-1.5312576999999998,1.5851251,0.22143315,-5.58,-16.8,-29.82
1553846706621,4.486871,6.366377,2.3248408,-1.4451257,2.2772353,0.20310720000000002,-5.4,-15.54,-30.179997999999998
1553846706640,3.3256476000000004,6.768615,2.9114382,-1.3834283,2.4140692,0.32100418,-3.3,-13.799999,-31.26
1553846706660,2.719896,7.0535336,3.9577362999999997,-1.3076811000000002,2.437893,0.53419614,-1.86,-12.3,-31.199999
1553846706680,1.9345740000000002,6.8955116,5.1237483,-0.9368859,2.089089,0.5806219,-1.3199999,-11.88,-31.38
1553846706700,1.2234744,7.74069,5.604997,-0.35106609999999994,1.7213479999999999,0.57512414,1.38,-10.74,-32.28
1553846706721,1.0127783000000001,8.5331955,6.1556807000000004,0.28973156,1.3768201,0.562296,2.58,-10.08,-31.98
1553846706741,0.32562137,7.680834,5.7175283,0.8327908000000002,0.99014235,0.5824545,3.36,-10.559999000000001,-32.28
1553846706761,0.1699935,6.308914,4.922629,1.0294894,0.70303565,0.6765278,4.38,-11.16,-32.82
1553846706781,0.39505535,4.7454529999999995,3.7829542000000003,1.0930194,0.48129156,0.7455555,4.98,-12.3,-32.82
1553846706800,0.7589851,3.265791,2.667222,1.0905758999999997,0.32063400000000003,0.66369957,5.64,-13.139999,-32.219997
1553846706821,0.82123625,3.0263633999999997,2.0925963,1.1412777,0.10866377,0.43706858,5.64,-13.2,-32.1
1553846706841,0.8786988000000001,4.206741,1.5371244,1.2646725,-0.36597854,0.14202067,5.46,-14.34,-31.14
1553846706860,-0.21548474,8.655303,2.2027327999999997,1.5047424999999999,-0.6891262,-0.15363811,5.7,-15.96,-28.38
1553846706880,-1.0008069,14.214808999999999,3.4357843,1.8181164,-0.56206626,-0.27275684,5.94,-16.74,-27.06
1553846706901,1.1061549,14.368043,-0.48603779999999996,0.5603449,0.65416646,-0.065673515,5.52,-18.119999,-27.359999
1553846706920,2.3775147999999997,12.972180999999999,9.033599,-0.627788,1.0512289,-0.013139101,4.98,-19.08,-26.939999
1553846706940,2.779753,12.136579,13.886794,-0.9918636999999999,-0.21081875,0.079101555,5.7,-18.48,-27.539998999999998
1553846706961,4.3958883,7.520417,7.187613000000001,-0.87152326,-0.015952745,0.19394422,6.24,-18.539998999999998,-27.42
1553846706980,3.675212,4.2402606,5.621757,-0.76156753,0.6419491,-0.056510534,6.54,-17.82,-26.699999
1553846707000,2.8803127,4.0678730000000005,4.336032,-0.25271678,0.9260014999999999,-0.31429565,7.259999799999999,-16.92,-26.939999
1553846707021,2.3823035,8.435030000000001,5.1907879999999995,0.41251546,0.8178783000000001,-0.40042767,7.8599997,-16.74,-26.519999
1553846707040,2.9114382,18.325779,7.573091000000001,1.3813478000000001,0.25404970000000004,-0.13714474,8.16,-16.5,-27.359999
1553846707060,4.216318,20.12388,2.1189332000000003,2.3648407000000002,-0.8949879000000001,0.3313889,8.58,-16.56,-29.58
1553846707080,3.5315554,10.987327,3.4262072999999997,2.3904970000000003,-1.1399448,0.8720046,8.58,-17.22,-28.859999
1553846707101,-0.68715686,5.3296556,0.6560313,1.6409654999999999,-1.5211246999999999,0.33933014,6.96,-19.5,-27.539998999999998
1553846707120,-2.5379312,5.652883,-0.5961744000000001,0.40090904,-1.1827053,-0.28619587,5.46,-21.3,-27.18
1553846707140,-2.142876,4.5156019999999994,-2.1476645,0.12052188,-0.31283325,-0.75778383,5.22,-22.02,-25.619999
1553846707161,-1.4413534,3.0718546,-2.142876,0.63853556,-0.27557045,-1.4419528,5.04,-22.199999,-25.32
1553846707180,-0.1699935,4.3216662,-2.8372157000000002,0.8877686,-0.4838755,-1.908654,5.22,-22.26,-25.14
1553846707200,1.9058428,11.4757595,-0.3232271,0.7197806999999999,-0.5388534,-1.6465927,5.8199997,-23.22,-22.5
1553846707220,6.098218,18.565207,1.2976969999999999,0.9231988000000001,-1.2908285,-0.39431900000000003,6.54,-24.3,-20.58
1553846707240,3.6895776,12.632194,-0.36871833,0.67946357,-1.7532536,0.1872247,6.06,-24.24,-21.84
1553846707260,1.6664151999999999,8.46855,-0.047885496,0.24758185,-0.6347592,0.55618733,4.08,-23.519999,-24.3
1553846707281,1.3120626,9.124581,1.0846065,0.45466515,-0.03366784,0.512205,2.8799999,-23.64,-24.66
1553846707300,0.57223165,8.739103,-0.7948991999999999,0.76681733,0.19907182,0.18478124,2.82,-24.24,-23.76
1553846707320,1.2091087999999999,8.540379,-0.05506832,0.89082295,0.27054307,-0.058953992999999996,2.76,-24.42,-23.519999
1553846707341,1.8627458,9.227535000000001,0.45491222,0.83767766,-0.048328605,0.03145406,2.58,-25.14,-23.16
1553846707360,1.9226026999999999,9.550761999999999,0.5506831999999999,0.7301654000000001,-0.29939422,0.18844643,2.04,-25.619999,-22.56
1553846707380,2.020768,8.775017,0.70631105,0.64647686,-0.33238095,0.20432894,1.86,-26.099998,-22.26
1553846707400,1.8364087,8.437425,1.0032011,0.6519746999999999,-0.36597854,0.13163595,1.68,-26.939999,-22.32
1553846707421,1.0678465,8.528407000000001,0.3615355,0.79308456,-0.47471255,-0.04795842,1.9799999,-27.66,-22.08
1553846707440,0.65363705,8.751075,-0.32801566,0.94702256,-0.48937333,-0.29474798,1.4399998999999999,-28.26,-21.9
1553846707460,1.3455825000000001,9.265842999999998,-0.083799616,0.9598507,-0.39163485,-0.39920592,0.24,-28.98,-21.6
1553846707480,2.2889266,9.636956,0.8834874,0.8700535,-0.5119753,-0.403482,0.06,-29.76,-20.699999
1553846707500,2.3559662999999995,9.603436,0.6249057,0.78880847,-0.62070936,-0.4309709,0.06,-30.06,-20.52
1553846707520,2.0016138999999997,9.541185,0.48603779999999996,0.73871756,-0.53763163,-0.56658304,0.42,-30.42,-20.64
1553846707540,1.7358493000000002,9.907509,0.33759275,0.6415899,-0.39530006,-0.6282804,1.14,-30.48,-19.8
1553846707561,2.753416,9.833286,0.723071,0.46749336,-0.2609097,-0.6233935,1.3199999,-30.84,-19.08
1553846707580,3.354379,9.859624,1.0008069,0.43511748,-0.28412259999999995,-0.5103833999999999,0.42,-31.14,-19.619999
1553846707600,3.4214187000000007,10.012857,0.18435916,0.37769613,-0.10574994,-0.32284778,0.78,-31.5,-19.98
1553846707620,3.4357843,9.804555,-0.749408,0.27323818,0.20884566,-0.16402282,1.4399998999999999,-32.34,-19.68
1553846707640,3.3759273999999997,10.094261999999999,0.35435268,0.27751425,0.43181148,-0.049791015999999994,1.0799999,-31.859999,-19.859999
1553846707660,2.5906053,10.793391,1.1827718,0.3312704,0.3713358,0.04733656,0.65999997,-32.16,-19.08
1553846707681,1.6927522000000002,12.256292,0.72785956,0.15045428,0.43486579999999997,0.16523355,0.78,-32.7,-18.96
1553846707700,1.4509305000000001,13.381601999999999,-0.8739103000000001,-0.21545401,0.42875713,0.20860498,0.96,-32.64,-19.08
1553846707720,2.3894862999999997,14.521276,-2.6552507999999997,-0.732246,0.7115878000000001,0.39064282,1.14,-32.64,-18.119999
1553846707740,1.5562786,14.181289999999999,-1.5993756000000001,-1.0938781000000002,0.81665653,0.7217318,1.74,-32.1,-18.48
1553846707760,0.09337672,11.779832,-1.56825,-1.4017543,0.5985776999999999,1.0864184,2.46,-31.679997999999998,-19.619999
1553846707781,-0.22266756,8.595447,-4.1804037,-2.0236151,0.7983306,1.0943596000000002,2.28,-31.38,-20.58
1553846707800,-0.65124273,6.993676700000001,-3.6823947,-2.603326,1.3065705,0.9080457000000001,1.74,-29.82,-21.6
1553846707821,-0.83081335,7.580274,-0.34477556,-3.0914075,1.6046726999999998,0.7253970000000001,2.22,-27.9,-22.439999
1553846707840,-1.1037607,11.128589999999999,2.4589202,-2.8556135,1.0212965,0.66247785,2.82,-26.22,-24.119999
1553846707861,-1.4198049,12.356853,2.3966691000000004,-2.4396142999999997,0.12760058,0.7241751999999999,3.4199998,-24.24,-25.5
1553846707881,-0.600963,12.742331,2.1500587,-2.1567836,-0.45333228,0.5842871000000001,3.78,-22.02,-26.279999
1553846707900,1.3719195,11.628993,1.0247495999999998,-1.9442026999999997,-0.14056925,0.53725046,2.9399998,-20.039998999999998,-27.72
1553846707921,2.2458298,10.204399,-0.011971374,-1.7737713,0.54482156,0.36559734,2.34,-18.539998999999998,-28.019999
1553846707940,4.252232,8.107014999999999,0.47885495,-1.7487258,1.7909867,0.2788545,2.58,-17.16,-28.26
1553846707961,4.228289,7.3647895000000005,1.7597919999999998,-1.6961914,2.3902454,0.276411,3.54,-15.96,-28.74
1553846707980,2.640885,7.484503299999999,3.5554981,-1.5996747,2.4354494,0.37964725,5.22,-14.7,-28.199999
1553846708000,1.0032011,7.381549400000001,4.9633317,-1.3101245000000001,1.9565312,0.38942108,7.02,-12.84,-28.439999
1553846708021,0.117319465,8.142928999999999,5.602603,-0.76340014,1.4000329,0.43095994,9.24,-11.759999,-28.98
1553846708040,0.19872479999999998,9.074302000000001,5.4182440000000005,-0.30647293,1.118424,0.47249877,10.019999499999999,-11.759999,-29.4
1553846708060,0.17238778,8.174054,5.011217,0.22009291,0.8722453000000001,0.42301866,10.32,-11.639999000000001,-29.519999
1553846708080,0.0670397,6.1317377,4.759818599999999,0.5945533000000001,0.59918857,0.40835792,11.7,-11.7,-29.16
1553846708100,0.44294083,4.723904,4.1899809999999995,0.8059126999999999,0.38294226,0.36926255,12.3,-12.0,-29.16
1553846708121,0.7398309000000001,3.6105663999999997,3.6033835,0.8877686,0.23999979,0.23242873,12.3,-12.059999000000001,-28.5
1553846708140,0.7901106999999999,3.0742488,3.3328303999999997,0.9879505,0.09705733,0.03817358,12.12,-12.84,-28.08
1553846708160,0.65842557,3.8571767999999995,2.6935592,1.0698066000000002,-0.16072781,-0.123705715,12.179999,-14.219999,-28.38
1553846708181,-0.3615355,6.3639827,2.9832664,1.1870927,-0.43622804,-0.21655722,12.12,-14.7,-28.08
1553846708200,-0.53392327,10.700014,3.1556542000000003,1.3813478000000001,-0.46982563,-0.17807272,10.92,-14.519999499999999,-30.9
1553846708221,0.5123747999999999,14.202838,1.8507744,1.2946049,-0.30672459999999996,-0.14142081,10.32,-15.36,-33.78
1553846708240,1.8579572,13.929891,3.78056,0.29034242,0.5863604,0.071771175,10.08,-16.5,-33.059998
1553846708261,1.9824595,12.981758000000001,11.813352,-0.48240212,0.17036116,0.24708949,10.08,-16.98,-33.54
1553846708280,2.2985039,12.208407000000001,10.91071,-0.591747,-0.88460314,0.47127703,10.38,-17.1,-34.14
1553846708301,2.9066495999999997,7.146910000000001,6.282577,-0.7481285,-0.29206383,0.3509366,10.019999499999999,-16.44,-33.3
1553846708320,0.59378016,5.3727527,4.2043467,-0.7255265000000001,0.63278615,-0.06506264,9.36,-15.54,-33.84
1553846708340,0.6895511,8.274613,4.5443335,-0.51966494,1.3395573,-0.41631016,9.36,-14.4,-34.68
1553846708361,1.6712039,17.26751,6.696786400000001,-0.16414133,1.4397391000000002,-0.44502085,9.84,-14.16,-34.559998
1553846708380,3.8691480000000005,21.064829,3.6656345999999997,1.0527023000000002,-0.08314793,-0.24710049,11.28,-13.98,-34.02
1553846708400,3.991256,9.524425500000001,3.5746522000000005,1.4998556,-0.9957806,0.34055188,12.24,-13.86,-33.6
1553846708420,1.1372806,5.569083,3.5171897000000003,1.5578878,-1.7795207999999998,0.42546216,11.46,-14.759998999999999,-33.36
1553846708440,-0.11492519,4.7286925,0.74701375,0.8162974000000001,-1.8980286,0.11941866,10.139999000000001,-16.14,-33.48
1553846708460,-0.8643332,4.075055600000001,-1.2546,0.33310300000000004,-1.4154451000000001,-0.23671578,8.76,-17.22,-33.84
1553846708480,-0.42857520000000005,2.4852571,-2.4254005000000003,0.41007203,-0.36048076,-0.5329854,7.259999799999999,-17.16,-33.719997
1553846708500,0.51955765,4.2211065,-0.11492519,1.0417067,-0.5779488,-1.2086024,6.3599997,-17.76,-33.42
1553846708521,0.9888355,10.980144500000002,-0.9792584000000001,1.4381582,-1.1888139,-1.5103699,6.3599997,-18.18,-33.0
1553846708540,2.7342618,15.761510999999999,0.47885495,1.4772536,-1.4239972,-1.1212486000000002,6.06,-18.3,-32.82
1553846708560,3.0000262,12.584309,-0.04070267,1.1858708999999998,-2.063573,-0.5409267,5.64,-19.32,-32.579997999999996
1553846708581,1.1061549,8.504464,-0.007182824399999999,0.7417719,-1.8467159,-0.15485983,4.2599998,-20.46,-32.04
1553846708600,0.17717634,9.239507000000001,-0.44772938,0.5829469,-1.1955334999999998,0.041227907,2.82,-21.18,-32.1
1553846708620,0.7901106999999999,10.386364,-1.0510867,0.73199797,-0.44661275,0.16340095,2.1,-21.779999,-32.16
1553846708641,1.8986599999999998,9.610619999999999,0.083799616,0.86761004,-0.25296846,0.25686336,1.5,-22.68,-32.04
1553846708660,2.5618742,8.839663,0.8930645,0.83767766,-0.58222485,0.30206734,1.14,-23.1,-31.679997999999998
1553846708680,2.2769554,8.930645,1.23784,0.6324269,-0.91514635,0.25075468,0.71999997,-23.16,-31.08
1553846708700,1.8699286,8.894731,0.9768641,0.48337582,-1.0495367,0.082155876,0.29999998,-23.46,-30.9
1553846708720,2.126116,8.650514999999999,0.5818088,0.45649776,-0.8161861999999999,-0.09438418,-0.71999997,-23.58,-30.48
1553846708741,2.142876,8.346442,0.45012367,0.6696898,-0.7019544,-0.22083329,-1.8,-23.22,-30.3
1553846708760,2.0902019,8.308133,-0.05506832,0.88899034,-0.7092848,-0.31124133,-2.46,-23.76,-30.96
1553846708780,2.1548474,8.791777,0.20351335,0.9372486999999999,-0.6390353,-0.35461277,-2.6399999,-24.539998999999998,-30.9
1553846708801,2.116539,9.220352,0.5554718000000001,0.8645556999999999,-0.6292615,-0.41020152,-2.8799999,-24.9,-30.119999
1553846708820,1.9680939,9.529214,0.7781393,0.7796455,-0.65064174,-0.5586418000000001,-3.9599998,-25.68,-29.519999
1553846708840,1.6185298000000001,9.617802000000001,0.84996754,0.7240568000000001,-0.6262072,-0.7009734000000001,-4.5,-25.8,-29.22
1553846708861,1.8747171000000002,9.488511,1.0822121999999998,0.6031054,-0.6427005,-0.8420833000000001,-4.68,-27.359999,-28.859999
1553846708880,3.493247,10.008069,1.0199611,0.46566075,-0.57672703,-0.7724446,-3.8999998999999996,-27.24,-28.98
1553846708900,4.1373067,10.728745,0.51716334,0.38685912,-0.32810488,-0.5085508,-4.2,-27.42,-28.38
1553846708920,4.259414700000001,10.400730000000001,-0.6392714,0.29278588,0.021920899,-0.13347955,-5.1,-28.439999,-28.019999
1553846708940,3.6369035000000003,9.39274,-0.1699935,0.23841886,0.33957082,0.11392087,-5.22,-28.619999,-28.08
1553846708960,2.8970726000000004,9.703996,1.1372806,0.26407522,0.3719467,0.16523355,-4.7999997,-28.38,-27.599998
1553846708980,1.6017698,11.265063,0.74222517,0.17855407,0.31147105,0.13041423,-4.3199997,-28.74,-27.539998999999998
1553846709001,1.2569941999999998,13.345688,0.2466103,-0.13176547,0.19723922,0.16828787,-4.3199997,-28.68,-27.48
1553846709020,1.3910737,14.044816,-1.6520496999999998,-0.5007281,0.28764728,0.26541546,-4.92,-28.38,-27.42
1553846709040,1.9872481,14.066364000000002,-2.3775147999999997,-0.90328825,0.43120062,0.42790562,-4.2,-27.539998999999998,-27.84
1553846709060,0.679974,12.883593,-1.2522057,-1.2472055,0.45930043,0.86711776,-3.54,-27.3,-28.5
1553846709080,0.34716985,10.307352999999999,-3.2370596000000003,-1.7908754,0.37377927,1.0522098999999998,-3.72,-26.46,-28.98
1553846709100,-0.20111908,7.609005499999999,-3.5554981,-2.4237319999999998,0.7586244000000001,0.9911234,-3.9599998,-24.48,-30.119999
1553846709121,-0.43575802,6.675238,-2.2362528,-3.0064973999999998,1.1966146999999998,0.8677286,-4.2,-23.039998999999998,-32.1
1553846709140,-0.8451790000000001,8.92825,1.8747171000000002,-3.0138276000000004,1.2955749,0.7156231,-3.48,-21.3,-32.82
1553846709161,-1.525153,11.468575999999999,3.213117,-2.5709505,0.31269276,0.68019295,-2.82,-19.439999,-33.36
1553846709181,-1.376708,12.605857,3.0646717999999997,-2.2624633,-0.75937575,0.5824545,-3.0,-17.52,-34.5
1553846709200,0.22985038,12.675291,1.3647367,-1.9515331000000002,-0.84611857,0.43279254,-2.82,-15.299999,-34.86
1553846709220,1.7382435,11.370411,0.54350036,-1.8599032,-0.11063685,0.2623611,-3.1799998,-13.08,-34.32
1553846709240,3.8978794000000003,9.457385,-0.12210801,-1.8421881000000002,1.1404152,0.21593536,-4.3199997,-11.099999,-34.92
1553846709260,4.7789725999999995,7.7957587,1.4533247999999999,-1.7181824,2.1123017999999996,0.14263153,-4.3199997,-9.36,-36.12
1553846709280,3.9146392,7.2522583,3.0455174,-1.530036,2.4415581000000004,0.21227017,-2.6399999,-7.7999997,-36.66
1553846709300,1.7310607,6.981705000000001,4.7310870000000005,-1.2746943000000002,2.0670976999999997,0.32711285,-0.96,-6.24,-36.899998
1553846709320,0.39266106,7.594639999999999,5.2027593,-0.94177276,1.5802381,0.3949189,0.59999996,-5.3399997,-36.84
1553846709340,0.14605077,9.186832,5.537957700000001,-0.44330674,1.2192167999999999,0.57695675,2.04,-4.7999997,-36.48
1553846709360,0.3615355,9.117398,5.4541580000000005,0.069209196,0.96692944,0.661867,3.54,-3.78,-35.76
1553846709381,0.19872479999999998,7.3647895000000005,5.0686800000000005,0.5359102,0.7512939999999999,0.7217318,4.62,-2.9399998,-36.239998
1553846709400,0.24900457,5.6337285,4.697566999999999,0.7943063,0.5600932,0.73578167,4.92,-3.8999998999999996,-36.48
1553846709421,0.6081458000000001,4.2905407,3.7398572,0.8462298,0.47090685,0.6404867,5.8199997,-5.52,-35.64
1553846709440,0.87630457,3.3783216,3.1939626,0.85905796,0.44402876,0.48166174,6.0,-5.94,-36.0
1553846709461,1.1803774999999999,3.5842294999999997,2.6456738,0.8663884,0.34323603,0.30023476,6.48,-6.54,-35.94
1553846709480,1.2713598999999998,5.205153500000001,2.432583,0.9317509,0.07079011,0.13652289,7.14,-7.3799996,-35.46
1553846709500,0.6273,8.169266,3.0766432,1.0673629999999998,-0.30061594,0.02656714,6.48,-8.4,-35.64
1553846709520,0.17717634,10.829305,4.470111,1.3086548,-0.46982563,-0.0015326607999999998,6.0,-9.719999000000001,-36.239998
1553846709540,1.132492,12.086299,3.5339496,1.3563023,-0.35742643,-0.012528235,6.18,-9.9,-36.42
1553846709561,2.3727264,10.865219,4.740664,0.5389646,0.26626700000000003,-0.013749965500000001,6.2999997,-10.559999000000001,-35.52
1553846709580,2.2578009999999997,10.877191,8.727132000000001,-0.3034186,0.25771487,-0.09682763,6.18,-11.94,-35.64
1553846709601,3.1700199000000002,10.573117,9.019233,-0.41887212,0.3175797,-0.016193425,6.12,-12.179999,-36.66
1553846709620,3.2035396,8.5882635,6.579467299999999,-0.35167694,0.59246904,0.15362711,6.96,-12.0,-36.36
1553846709641,1.9417567999999998,7.656891000000001,4.721509999999999,-0.31685764,1.1385825,0.09987097,7.56,-11.7,-35.88
1553846709660,1.4413534,10.707197,6.184412,-0.27470794,1.3193986,0.03939531,7.3199997,-11.219999000000001,-35.76
1553846709681,2.4110348,16.673729,7.5060515,0.01911825,1.0103009,0.19394422,8.22,-10.98,-35.76
1553846709700,3.6177492,20.837374,5.681614,0.9293075000000001,-0.25846624,0.31184122,9.179999,-10.559999000000001,-35.64
1553846709720,4.022382,11.81814,2.466103,1.5053535,-1.01655,0.7266187,9.12,-10.32,-35.34
1553846709741,1.1300976999999999,5.0375543,2.176396,1.3648543,-1.2731133999999997,0.38636675,8.7,-11.82,-35.04
1553846709760,-1.647261,4.075055600000001,1.0702409,0.62387484,-1.3073218999999998,-0.19517694,7.44,-13.38,-34.92
1553846709781,-2.2338583,3.840417,-0.7039168,0.3483746,-1.1258948999999998,-0.58551985,6.24,-13.74,-35.88
1553846709800,-1.0032011,2.49244,-3.1388943,0.3856374,-0.53091216,-0.9666998,5.04,-13.92,-35.82
1553846709820,0.43336374,3.0790374,-1.1013663999999999,0.8437863000000001,-0.7043979,-1.4712744,4.2,-14.219999,-35.7
1553846709841,1.9106313000000001,8.365596,-1.8148602999999999,1.2921613,-1.0819126000000001,-1.5421348,4.14,-14.4,-36.059998
1553846709860,2.8731298,15.4334955,0.21069619,1.3245373,-1.1222296999999999,-1.2257067,3.6599998,-14.82,-35.7
1553846709881,3.9768906000000004,16.024881,-1.1253091,1.529788,-1.5266224,-0.41203412,3.12,-16.02,-35.1
1553846709900,0.6751855,10.570724,0.023942748,0.80408007,-1.4685903999999999,-0.05223448,2.58,-17.46,-34.32
1553846709921,-0.105348095,8.925857,0.91700727,0.46199554,-1.116121,0.16950962,1.1999999,-18.48,-34.02
1553846709940,-0.3328042,9.641745,-1.0391153,0.44428045,-0.81740797,0.07971242,0.78,-18.42,-33.899998
1553846709961,0.7877164000000001,10.008069,-0.14844504,0.5456840999999999,-0.11552378,-0.00947391,-0.12,-18.42,-33.899998
1553846709980,2.3583608,9.371192,1.4078336,0.72650015,-0.5186948,0.056499537,-0.78,-18.84,-33.78
1553846710000,2.3320236,9.210775,1.0486923000000001,0.61532277,-1.0208261,0.14812931,-1.1999999,-19.08,-33.54
1553846710021,1.8268316999999998,8.8324795,0.9960183000000001,0.41801324,-1.1820945,0.11697519599999999,-2.22,-20.22,-33.42
1553846710040,1.9345740000000002,8.315316000000001,1.2306572,0.3996873,-1.1399448,0.09131885,-2.8799999,-21.359999,-33.12
1553846710060,2.1620302000000002,8.063917,1.0055954,0.4363392,-1.0238804,-0.003976122,-3.54,-21.24,-32.52
1553846710087,2.3655436,8.207574000000001,0.19872479999999998,0.67824185,-0.9444679,-0.09743851,-4.62,-21.119999,-32.16
1553846710100,2.3775147999999997,8.655303,0.24182175,0.78880847,-0.87666184,-0.14264253,-5.64,-21.779999,-32.04
1553846710120,2.4804687999999997,8.844451,0.47885495,0.8694427,-0.77647996,-0.17807272,-6.0,-21.9,-31.859999
1553846710141,2.5762396,8.73192,1.0295382,0.9073163000000001,-0.78625387,-0.32956728,-6.0,-22.5,-30.96
1553846710160,2.1979442000000002,8.854028999999999,0.600963,0.90426195,-0.72638905,-0.584909,-6.42,-23.34,-30.359999
1553846710180,1.6855695,8.9976845,1.2426286,0.8828816999999999,-0.65736127,-0.7504534,-6.7799997,-23.46,-30.3
1553846710201,1.8220432,9.2419,1.2091087999999999,0.85661453,-0.58161396,-0.85796577,-7.2,-24.06,-29.699999
1553846710220,3.2610023,9.7135725,0.5363176,0.78758675,-0.5492381,-0.7547295,-7.44,-25.32,-28.74
1553846710240,3.9673133000000003,11.300977,0.07901107,0.5670644,-0.33604613,-0.5598635000000001,-7.44,-26.039998999999998,-27.48
1553846710260,4.343214499999999,11.147743,-0.52674043,0.33432472,-0.05260466,-0.23427233,-8.04,-26.699999,-27.0
1553846710280,4.048719,10.649734500000001,-0.14126222,0.21826032,0.30902755,0.027788872000000003,-8.58,-27.359999,-27.72
1553846710301,3.3615617999999996,10.783813,1.0702409,0.27995770000000003,0.44769397,0.13713375,-7.5,-27.24,-27.84
1553846710320,2.5115943,11.150138,1.1923488000000002,0.34226596,0.32063400000000003,0.16523355,-6.8999996,-27.359999,-27.779999
1553846710340,1.2546,12.471778,0.69673395,0.17061283,0.40493342,0.18233779,-7.02,-27.539998999999998,-27.9
1553846710360,0.65842557,13.618635000000001,-1.6233183,-0.28936872,0.31635794,0.19760941,-6.7799997,-27.779999,-27.24
1553846710381,1.8819,14.255512,-2.403852,-0.83059525,0.49839577,0.3032891,-6.0,-27.9,-24.18
1553846710401,1.4174107,13.446247,-1.7023293999999998,-1.1818428,0.5124457,0.61055434,-5.04,-27.42,-22.38
1553846710420,0.11971374,11.533222,-1.960911,-1.4836103,0.6315644,1.0100601999999999,-6.12,-27.18,-23.16
1553846710440,-0.102953814,8.5331955,-3.4262072999999997,-2.0755386000000002,0.6083516,1.0357165000000002,-6.24,-25.26,-23.519999
1553846710461,-0.6560313,7.2953553,-3.6297207,-2.6039369999999997,0.9253906,0.96546704,-5.8799996,-24.359999,-24.0
1553846710480,-1.2929084,7.582668300000001,-1.6257126,-3.1683767000000005,1.4831105,0.7846509,-3.9599998,-21.6,-25.439999
1553846710501,-1.2569941999999998,10.836488000000001,2.0327394,-2.9625149,1.1196457,0.62765855,-3.54,-19.32,-26.4
1553846710520,-1.6712039,12.392766,2.2314641,-2.564231,-0.20654272,0.59406096,-3.36,-17.58,-28.199999
1553846710541,-0.5243462,12.447835000000001,2.5211713,-2.3266044,-0.9634046999999999,0.43095994,-3.36,-15.42,-28.199999
1553846710562,1.0343267,11.372806,1.7789462,-2.04133,-0.78869724,0.34604967,-4.2,-13.259998999999999,-28.32
1553846710581,1.7262721,10.479741,-0.035914123,-1.9527546999999998,-0.075206675,0.28190879999999996,-4.5,-12.42,-29.16
1553846710601,3.6608462,8.775017,0.40463245,-2.001624,1.1691258,0.27030236,-4.3199997,-11.219999000000001,-29.64
1553846710620,4.0032277,8.267431,0.8140534,-2.0168955000000004,1.6456006999999997,0.25075468,-4.3199997,-11.219999000000001,-29.64
1553846710641,3.232271,7.683228,3.8715425000000003,-1.7065761000000002,2.277846,0.46333578,-2.22,-7.3799996,-29.279999
1553846710660,1.7957061999999997,6.936214,5.1548739999999995,-1.3870935,1.8099234,0.43218166,-0.78,-5.64,-29.46
1553846710681,0.7829279,7.178035700000001,5.6241517,-0.9014556999999999,1.2228819,0.41324484,-0.06,-4.98,-29.46
1553846710701,0.8978530999999998,8.195602000000001,6.055121,-0.333351,0.8136021999999999,0.39858407,1.3199999,-4.02,-29.58
1553846710720,0.7039168,7.6544967,5.7175283,0.1993235,0.5723104999999999,0.326502,2.58,-3.6599998,-29.519999
1553846710740,0.28731298,6.012023999999999,5.162056400000001,0.7173371999999999,0.32185575,0.30695429999999996,3.12,-4.5,-30.42
1553846710761,0.5506831999999999,4.6568646,4.7191157,0.9164793,0.123935394,0.28496313,3.3,-4.62,-30.06
1553846710780,0.8356019,3.4788813999999997,4.1397014,0.9751224000000001,-0.0049571716,0.18417038,3.12,-5.04,-29.099998
1553846710801,0.94095,2.4613144,3.5794407999999995,1.0527023000000002,-0.084980525,-0.032686785,3.12,-5.52,-29.939999
1553846710820,0.9194015,2.7270790000000003,2.9832664,1.1052366000000002,-0.17966463,-0.2012856,3.4199998,-6.12,-29.88
1553846710841,0.27534159999999996,4.3887057,3.0287576,1.2194684999999998,-0.27068356,-0.31612825,3.36,-6.8999996,-29.279999
1553846710860,0.062251142999999995,7.0774764999999995,3.232271,1.3715738000000002,-0.3647568,-0.25137654,2.76,-7.08,-29.16
1553846710880,1.2522057,13.127809,2.3918805,1.2597855,-0.13507147,-0.17257494,2.82,-8.88,-29.76
1553846710901,2.3320236,17.353704,3.9888617999999996,0.25369050000000004,0.35972938,0.103536166,2.58,-9.66,-30.06
1553846710920,2.4182177000000005,16.314589,11.961797,-0.310749,0.14470482,0.5348069999999999,2.34,-10.44,-29.039998999999998
1553846710940,3.929005,11.923489,10.295382,-0.32907495,-0.42462158,0.834131,3.0,-10.8,-28.619999
1553846710961,2.6959534,5.276982,6.5004563,-0.47812608,0.36034024,0.34971485,2.7,-10.44,-28.92
1553846710980,0.69194543,5.916253,4.3192715999999995,-0.69253975,1.3804851999999999,-0.17685099,2.28,-10.26,-28.619999
1553846711000,0.4644893,11.0352125,4.948966,-0.62534463,2.0121198000000002,-0.51527035,2.7,-10.44,-28.8
1553846711020,1.8507744,21.706495,7.980117999999999,-0.21423227,1.6297183000000002,-0.31368482,3.1799998,-9.78,-29.279999
1553846711041,5.042342700000001,17.803827,2.013585,1.3037678,-0.51014274,0.04733656,5.3399997,-9.0,-28.859999
1553846711061,3.5076127,5.2482505,3.8188684,1.5749921,-1.3280913,0.39125368,4.98,-10.32,-28.32
1553846711080,-1.1253091,2.6193366,3.3400133000000003,1.3269806999999998,-2.1558137000000004,0.0015216654,4.44,-11.34,-28.859999
1553846711100,-2.0279508,3.562681,0.48364350000000006,0.73444146,-2.1167182999999996,-0.32895643,2.82,-12.24,-28.619999
1553846711121,-1.8507744,2.9521408,-2.7151077,0.61165756,-1.3903996,-0.5891850000000001,1.62,-12.78,-28.32
1553846711140,0.13886794,2.1213273999999998,-2.3224466,0.7967496999999999,-0.68973714,-1.0112929,1.0799999,-13.2,-28.26
1553846711161,1.1779832000000001,6.3759537,-0.41181526,1.4735883,-1.2016421999999998,-1.5286958000000002,0.24,-14.16,-28.019999
1553846711180,2.0925963,13.192454000000001,-1.5897985000000001,1.8126186000000002,-1.4258298,-1.5005959,-0.29999998,-15.12,-27.72
1553846711200,3.6536633999999997,16.290646,-1.8483802,1.8828682,-1.4087254999999999,-0.8463593,-1.0799999,-16.08,-27.42
1553846711221,1.4748733,11.777438,-0.49800915,0.98672885,-1.4264406,-0.37232786,-1.8,-17.279999,-27.3
1553846711240,0.57223165,9.234717999999999,1.6041641000000002,0.5236929,-1.4398796999999999,0.03817358,-2.52,-18.779999,-27.18
1553846711260,-0.12929083,10.611426,-0.7901106999999999,0.38685912,-1.2089726,0.13896634,-3.36,-19.199999,-27.359999
1553846711280,0.42857520000000005,10.331296,-0.48603779999999996,0.48826274,-0.5052558,0.15301625,-4.08,-19.619999,-26.039998999999998
1553846711301,2.4182177000000005,9.136553,1.4581133,0.56950784,-0.5412969,0.18783557,-5.22,-20.34,-25.199999
1553846711320,2.935381,8.621783,1.8100717,0.48337582,-0.99089366,0.13957721,-6.12,-20.82,-25.199999
1553846711340,2.2530127,8.245882,0.88109314,0.36120278,-1.247457,0.06688425,-7.3799996,-21.72,-24.66
1553846711360,1.8842942999999999,8.293768,0.5363176,0.3679223,-1.1662121,-0.035130247,-7.98,-22.14,-24.84
1553846711380,2.5546912999999996,8.004061,0.29449580000000003,0.48276499999999994,-0.86322284,-0.06323005,-8.04,-22.26,-24.48
1553846711400,2.6217308,8.109408,0.6392714,0.62509656,-0.7300542,-0.03390852,-8.4,-21.6,-23.82
1553846711421,2.2985039,8.389539,0.60335726,0.7961389,-0.84550774,-0.06811697,-8.22,-22.08,-23.16
1553846711440,1.9872481,8.796566,0.44294083,0.90487283,-0.7202804,-0.15058379,-9.179999,-22.859999,-22.56
1553846711460,1.5778271000000001,9.012051,0.6464542,0.9341944,-0.5706184,-0.3259021,-10.2,-23.039998999999998,-21.779999
1553846711481,1.5921928,8.901914,1.0032011,0.9348052,-0.50953186,-0.6081218,-10.26,-23.88,-22.08
1553846711501,1.1660118,9.335278,1.0534808999999998,0.8657775,-0.59199864,-0.757173,-10.44,-24.42,-22.14
1553846711520,1.8819,9.534002000000001,0.60335726,0.74665874,-0.6762981,-0.8249790000000001,-10.38,-25.08,-20.46
1553846711540,3.675212,10.556357,0.6105401,0.55057096,-0.63353753,-0.78771627,-10.08,-26.58,-19.92
1553846711561,4.1373067,11.578713,0.43575802,0.35753759999999996,-0.47471255,-0.51099426,-9.96,-27.42,-19.8
1553846711580,3.7135203000000003,10.510866,0.0023942748,0.23536454,-0.17538857,-0.18418136,-10.62,-27.84,-19.8
1553846711601,2.8874955,8.904308,0.25379312,0.16389331,0.1343201,0.08032328,-10.5,-27.84,-19.68
1553846711620,2.6169424,9.019233,0.35435268,0.18832792,0.19968268,0.10720135,-10.26,-27.779999,-19.199999
1553846711640,1.9872481,11.887574,0.409421,0.09364381,0.43853100000000006,0.12674904,-10.86,-28.32,-19.08
1553846711661,1.9417567999999998,14.233964000000002,-0.94573855,-0.24049948,0.46785253,0.25319815,-10.38,-27.96,-18.96
1553846711680,2.2745612,15.167731,-2.1883671000000002,-0.62595546,0.51000226,0.44806415,-9.96,-28.199999,-18.84
1553846711700,1.6592325,15.706443,-2.4373717,-1.1354171,0.64683604,0.8817785,-9.54,-27.72,-19.5
1553846711721,-0.057462595,12.754302000000001,-2.1117504,-1.3565503,0.68287706,1.3906293,-9.78,-27.0,-19.619999
1553846711740,-0.18675344,9.397528999999999,-3.7087317000000004,-1.9130485000000002,0.6352296,1.3832989,-10.08,-26.76,-19.98
1553846711760,-0.32562137,7.599428,-3.8116856,-2.5715613,0.89729077,1.2037045,-10.139999000000001,-25.5,-21.539998999999998
1553846711781,-0.2657645,7.7933645,-1.5083932,-3.2086935000000003,1.5002148000000002,0.9587475000000001,-10.26,-23.039998999999998,-22.68
1553846711800,-0.40463245,10.055954,2.1021732999999996,-3.1353897999999996,1.0512289,0.70157325,-10.139999000000001,-21.96,-23.4
1553846711820,-0.56265455,12.423892,2.3320236,-2.7065625,0.08239656,0.59100664,-9.24,-19.439999,-24.66
1553846711840,0.5818088,12.572337,2.0064023,-2.2447484,-0.27618134,0.44745332,-8.34,-15.78,-26.099998
1553846711861,1.6113469999999999,11.248303,2.4876516,-1.8788401000000001,-0.06604369,0.28496313,-8.34,-14.099998999999999,-27.06
1553846711880,2.1740015,10.237919,2.2242813,-1.7413953999999998,0.13920704,0.14874019,-8.639999000000001,-13.44,-27.24
1553846711900,3.8045027,7.834067299999999,-0.0023942748,-1.7029109,1.4977714,0.07604723,-8.88,-12.599999,-27.18
1553846711921,4.230683999999999,6.160469,2.3918805,-1.7988168000000002,2.0762608,0.06016473,-7.68,-11.28,-26.88
1553846711940,3.3950818,7.434222999999999,2.7127132,-1.7920971999999997,2.296783,0.31061947,-6.54,-9.719999000000001,-27.48
1553846711960,2.4206119,7.369578,4.0080160000000005,-1.6308287000000001,2.4721012000000004,0.50304204,-5.64,-8.7,-28.859999
1553846711981,1.2593886,6.775798,5.5355635,-0.94238365,1.9430919999999998,0.4932682,-3.84,-7.14,-29.34
1553846712000,0.679974,7.692805,5.9665327,-0.33823790000000004,1.5264821000000002,0.50792897,-2.1599998,-5.8799996,-28.92
1553846712020,0.37111259,8.322499,6.301731,0.36975490000000005,1.0762743000000001,0.5195354,-1.02,-5.1,-28.98
1553846712041,0.21309046,6.8188949999999995,5.6337285,0.8462298,0.6230123000000001,0.6514823000000001,0.71999997,-5.3399997,-29.039998999999998
1553846712060,0.52674043,5.6600657,4.8938975,0.91159236,0.31513622,0.7987008000000001,0.96,-5.4,-29.279999
1553846712080,0.8978530999999998,4.5012364,3.6345089999999995,0.8505059000000001,0.20273702,0.89277405,1.26,-6.0,-29.22
1553846712101,1.2929084,3.7159145,3.1245286,0.8706644,0.32307744,0.7651031999999999,1.26,-6.54,-28.32
1553846712120,1.359948,3.5339496,2.8156672,0.9415247999999999,0.3365165,0.5513004,1.1999999,-7.2,-28.74
1553846712140,1.2450229,4.4078599999999994,2.9377751,1.0582001,0.013368786,0.28435227,1.92,-7.5,-29.82
1553846712161,0.06943397,6.771008999999999,3.3400133000000003,1.2805548999999998,-0.6787415,-0.08094514,2.3999999,-8.88,-29.279999
1553846712180,-0.98404694,10.565935000000001,5.157268,1.4216648,-0.8858248,-0.26481557,2.22,-9.42,-29.039998999999998
1553846712200,0.20351335,14.269877,2.4637089,1.2426814,-0.46982563,-0.2642047,2.1,-9.78,-29.099998
1553846712220,1.9417567999999998,12.225166999999999,4.697566999999999,0.15106514,0.5851387,-0.2098377,0.96,-10.74,-29.16
1553846712240,2.3942747000000004,11.765467,11.10704,-0.44513935,0.45563522,-0.23121798,0.17999999,-11.82,-29.279999
1553846712260,4.7789725999999995,10.482135000000001,10.956202000000001,-0.3522878,0.13187665,-0.096216775,0.84,-12.12,-29.46
1553846712280,5.1261425,6.608198599999999,6.857203,-0.29975343,0.42448112,0.070549436,1.3199999,-12.42,-29.4
1553846712300,2.0854135,7.5587254,5.707951,-0.42925683,0.8325391,0.09926010000000002,1.4399998999999999,-12.36,-29.34
1553846712321,2.0542877,11.5308275,5.95935,-0.12443508,0.9834228000000002,0.19150077,1.92,-11.94,-30.06
1553846712340,3.605778,19.427145,8.818114,0.6177661999999999,0.22594988,0.47310966,2.82,-11.16,-30.48
1553846712361,4.1397014,21.323412,1.6113469999999999,2.0545212999999998,-1.1277275,0.8322984,3.36,-10.86,-29.939999
1553846712380,3.8092911,7.16367,0.7398309000000001,1.7118258000000002,-1.0629758999999999,0.8732264000000001,2.58,-11.82,-29.099998
1553846712401,-2.9521408,3.1867797,2.020768,0.7967496999999999,-1.5070748,0.014960701000000002,1.4399998999999999,-12.719999000000001,-28.68
1553846712420,-3.2681851,4.295329,-1.376708,-0.006538090799999999,-0.97501117,-0.48167273,0.12,-14.099998999999999,-28.619999
1553846712440,-1.6400781999999998,2.4349775,-3.0455174,-0.14153929999999998,-0.34765258,-0.85124624,-0.59999996,-15.059999,-28.56
1553846712461,0.339987,2.648068,-1.8340145,0.6208205,-0.82718176,-1.4682201000000001,-0.78,-14.82,-28.68
1553846712482,1.1396747999999999,7.776604700000001,-1.8627458,1.3049896,-1.8112856,-1.6447601000000003,-0.24,-15.9,-26.46
1553846712500,1.7693691000000003,13.733560999999998,-0.80687064,1.3642435,-1.9310153,-1.3600968999999998,-0.17999999,-15.78,-24.779999
1553846712521,3.4597269999999996,16.89161,2.0614705,1.2842202,-2.3329647000000002,-0.43646872,-1.86,-17.52,-22.74
1553846712540,1.0462981,11.1142235,-0.7948991999999999,0.87432957,-2.5907497000000004,-0.14264253,-2.52,-18.779999,-22.38
1553846712561,1.2833313,7.520417,-0.13647367,0.46138468,-1.8485484,0.19699855,-3.6599998,-19.08,-20.939999
1553846712580,1.158829,9.447808,-0.36871833,0.64525515,-1.424608,0.17745085,-4.98,-19.439999,-21.18
1553846712600,1.4054393,10.170879,-1.9106313000000001,0.94641167,-0.7117283,0.15973577,-6.6,-20.22,-20.939999
1553846712621,2.0902019,9.196409,-0.29928434,0.9775658000000002,-0.53274477,0.13713375,-8.639999000000001,-20.039998999999998,-22.199999
1553846712640,2.4445546,8.521224,0.35435268,0.8382885,-0.93652666,0.02412368,-9.36,-20.4,-22.26
1553846712660,2.0902019,9.481328,0.38787252,0.56767523,-1.0513694,-0.16952060000000002,-9.66,-21.06,-21.42
1553846712680,2.4062462000000004,9.325700999999999,0.90024734,0.4314523,-1.138723,-0.16707715,-10.2,-21.779999,-21.18
1553846712700,1.9920366000000003,8.686428999999999,1.4150163999999998,0.44061527,-1.3329782,-0.21167031,-11.519999499999999,-21.84,-21.84
1553846712720,1.4844503,8.786988000000001,0.67757976,0.5065887,-1.6090893999999998,-0.28436327,-12.599999,-21.6,-21.48
1553846712740,1.4605076000000001,9.313728999999999,0.07422252,0.60188365,-1.6206958,-0.41936450000000003,-13.08,-22.38,-20.699999
1553846712761,2.0016138999999997,9.088667,0.14365649,0.7203915,-1.3659649999999999,-0.5140486,-13.559999,-22.98,-20.279999
1553846712780,2.8898897,8.250671,-0.0047885496,0.7381066,-1.1570491000000003,-0.55192226,-14.04,-23.1,-19.74
1553846712800,3.1819912999999995,8.413482,0.50758624,0.6904591999999999,-0.9010965,-0.5824655,-14.94,-24.119999,-19.02
1553846712821,3.0024207,9.052753,0.5794145,0.67640924,-0.81191015,-0.53359634,-14.88,-24.539998999999998,-18.3
1553846712840,2.6265194,9.423865,0.9984126,0.66602457,-0.6958458000000001,-0.594072,-14.759998999999999,-24.359999,-17.46
1553846712861,2.8515813,9.668080999999999,0.43096948,0.6495312,-0.8058015000000001,-0.6288913,-16.14,-24.779999,-16.859999
1553846712880,2.5355369999999997,11.133378,0.24182175,0.58661205,-0.63659185,-0.5610852,-16.74,-25.8,-16.92
1553846712900,2.6504622,10.59706,-0.5243462,0.40579596,-0.2450272,-0.28802848,-16.44,-26.699999,-16.38
1553846712920,2.2841382,9.371192,0.45491222,0.26163176,-0.20287752,-0.1292035,-16.74,-26.939999,-16.14
1553846712940,1.9369683000000002,9.792584,1.0654523,0.11930015,-0.28351173,-0.05956486,-16.74,-27.48,-16.02
1553846712960,1.5562786,10.891556,0.42139238,0.06065708400000001,-0.5535142,-0.074836485,-16.44,-27.66,-16.02
1553846712981,0.76137936,14.41114,0.3328042,-0.09267009,-0.20654272,0.033897523,-16.92,-27.42,-15.12
1553846713000,1.3288225,15.232376,-1.2593886,-0.5831949000000001,-0.21081875,0.11392087,-17.1,-27.359999,-13.92
1553846713020,2.47568,14.322551999999998,-2.9329867000000003,-1.0621133,-0.1802755,0.32100418,-16.74,-27.42,-13.98
1553846713041,2.3463893,12.924294999999999,-3.2538195,-1.4585649,0.3591185,0.73272735,-16.44,-26.58,-13.5
1553846713060,0.43575802,10.099051,-3.2226939999999997,-1.8030926999999999,0.85880625,1.0070058000000002,-16.98,-25.019999,-14.16
1553846713080,-0.26097596,7.273807000000001,-3.9170337,-2.382804,1.2699186000000002,1.0094494,-17.46,-24.06,-16.38
1553846713100,-1.1037607,6.969734,-2.1883671000000002,-2.89532,1.9461464,0.92392814,-16.92,-22.68,-17.16
1553846713120,-0.6344828,9.177256,2.3799092999999996,-2.8531702,1.363381,0.7296729999999999,-16.56,-21.48,-17.699999
1553846713141,-0.5458947,11.193234,3.1053743,-2.7090058,-0.04893947,0.68324727,-16.44,-19.98,-19.8
1553846713160,0.22027329,12.423892,3.3400133000000003,-2.5116966,-0.95668525,0.69607544,-15.48,-18.119999,-20.699999
1553846713180,2.310475,12.450229,0.15562786,-2.2716265,-0.71295,0.7565510999999999,-15.719999,-16.619999,-21.48
1553846713201,3.5052182999999997,11.253092,-0.011971374,-2.1616707,0.31330362,0.6056674,-16.32,-14.16,-21.6
