TimeStamp,Ax,Ay,Az,Gx,Gy,Gz,Mx,My,Mz
1553850458996,-0.62251145,5.7965393,3.790137,0.18954965,-0.5003689,-0.22022241,26.76,-32.399998,1.38
1553850459015,0.12689656,5.672037,4.460534,0.3312704,-0.43744975,-0.40226024,27.539998999999998,-32.219997,1.56
1553850459035,0.5818088,6.0958239999999995,4.946572,0.57195127,-0.50953186,-0.6099545,27.9,-32.219997,1.5
1553850459055,0.5123747999999999,6.5770729999999995,4.7526355,0.74971306,-0.5357991,-0.67470616,27.96,-32.04,1.1999999
1553850459075,0.76616794,7.5323887,5.185999400000001,0.9696246,-0.55901194,-0.6704300999999999,28.26,-31.74,0.78
1553850459096,0.9529214,8.087860000000001,5.3368387,0.85661453,-0.79114074,-0.58551985,29.099998,-31.98,0.9
1553850459115,0.63208854,9.239507000000001,5.8540019999999995,0.73566324,-1.0776366000000002,-0.6056784000000001,29.519999,-31.98,1.8
1553850459135,0.22985038,10.022434,5.715134,0.5090322,-1.14361,-0.6417194,30.599998,-30.66,2.3999999
1553850459156,-0.19633053,10.769447999999999,6.893117,0.24391666,-1.2230225000000001,-0.57330257,31.439999,-29.519999,1.92
1553850459175,-0.9912298,10.08708,5.774991,-0.15314575,-0.5070884,-0.5861307,30.9,-29.519999,1.26
1553850459195,0.05027977,8.482916000000001,6.2179317,-0.44575020000000004,-0.019617938,-0.5207681,31.08,-29.4,1.68
1553850459215,0.15802214,6.727912400000001,6.3711652999999995,-0.6119055999999999,0.18441106,-0.48411620000000005,31.56,-29.519999,1.4399998999999999
1553850459235,-0.8475733,8.212361999999999,8.435030000000001,-0.5269953,-0.25480106,-0.14936204,31.38,-29.519999,0.9
1553850459255,0.62251145,19.542070000000002,7.8197017,-0.26249063,-1.1252841,0.059553865,32.34,-29.039998999999998,0.71999997
1553850459275,0.66800267,22.010569,1.9872481,0.15106514,-1.3067111,0.34849313,33.36,-28.74,-0.24
1553850459295,-0.505192,8.985713,-0.50040346,0.1675585,-0.76181924,0.6441519,32.94,-28.439999,-1.1999999
1553850459315,-1.1684061000000001,1.515576,4.652076,0.49681488,-0.5266360999999999,0.10048184,32.52,-29.099998,-1.9799999
1553850459335,-2.0040080000000002,4.3934940000000005,4.7143273,1.0068873,-0.95668525,-0.29902405,32.34,-29.58,-2.76
1553850459355,-0.76616794,6.4094739999999994,1.5107874,1.4442668,-0.8442860000000001,-0.6282804,31.74,-28.98,-3.1799998
1553850459376,0.7901106999999999,8.992896,0.016759925,1.8364424,-1.0141065,-0.8243681999999999,31.199999,-28.38,-3.12
1553850459396,0.71588814,10.999298,-2.8300327999999997,1.6537936999999998,-1.0354868,-0.7461774,32.219997,-27.72,-3.36
1553850459415,0.53392327,10.7479,-1.5419129999999999,1.2109164,-0.77525824,-0.7351818,33.18,-27.599998,-3.36
1553850459436,-0.21787901,9.397528999999999,-0.38068968,1.3245373,-1.1350578000000002,-0.8420833000000001,33.36,-27.48,-2.34
1553850459455,-1.8244373999999999,9.296969,-0.54350036,1.3025461,-1.0422063,-0.7828293000000001,33.84,-26.82,-1.4399998999999999
1553850459476,-2.4780743,9.605830000000001,1.2761483999999998,1.2298532,-1.0574781,-0.49572265,34.2,-26.82,-2.1599998
1553850459495,-1.4389591,10.357633,1.7190893,1.1449428999999998,-1.2163030000000001,-0.24282444,33.66,-26.099998,-3.1799998
1553850459516,-0.105348095,9.730332,1.0415094999999999,1.0569781999999999,-1.4869163,-0.16219021,33.96,-25.68,-3.36
1553850459535,0.26337022,8.411087,0.2657645,1.062476,-1.5754917,-0.17624013,34.8,-26.039998999999998,-3.24
1553850459555,-0.45251793,9.141341,-1.3455825000000001,1.1754862,-1.5412832,-0.17868358,34.86,-25.74,-3.36
1553850459576,0.17717634,10.312141,-1.8220432,1.0288786,-1.14361,0.06810598,34.32,-25.98,-3.6599998
1553850459595,1.185166,9.787795,1.4174107,0.95557463,-1.3085436000000001,0.18539211,34.2,-26.34,-4.74
1553850459615,1.4844503,9.730332,1.201926,0.8511167,-1.6836148999999998,0.3136738,34.38,-26.4,-5.3399997
1553850459636,0.4956149,8.6984005,0.14126222,0.7301654000000001,-1.6713976000000001,0.24708949,34.079997999999996,-26.16,-5.16
1553850459655,-0.19154198,9.399923,-0.34477556,0.6861831,-1.1827053,0.085210204,33.48,-26.34,-6.12
1553850459675,0.22745611,9.435837,-0.14126222,0.66235936,-1.0458716000000001,-0.09377331,32.7,-26.64,-6.54
1553850459695,0.66800267,9.203592,0.32083282,0.6696898,-1.0550344999999999,-0.28069809999999995,32.34,-26.82,-6.42
1553850459715,1.1875603000000001,9.313728999999999,0.5027977,0.71672636,-1.1234515,-0.43219265,32.88,-27.06,-7.56
1553850459736,0.60335726,10.199611,-0.17238778,0.79552794,-1.0079979,-0.45845988,33.719997,-26.4,-8.04
1553850459755,0.51955765,10.3743925,-0.45491222,0.85783625,-0.7147826,-0.32529122,33.18,-26.519999,-8.16
1553850459776,0.3328042,10.398335000000001,-0.65363705,0.80346924,-0.5510706999999999,-0.30207837,32.64,-26.22,-8.22
1553850459795,0.6081458000000001,10.077502,-0.80208206,0.65625066,-0.4649387,-0.29780229999999996,33.239998,-25.92,-8.28
1553850459815,0.59378016,10.549175,-0.54828894,0.5511819,-0.30611375,-0.362554,32.7,-26.699999,-8.519999499999999
1553850459835,-0.12689656,10.764660000000001,0.3615355,0.48093238,-0.22364692,-0.3313999,32.46,-26.64,-8.28
1553850459855,-1.0678465,10.462981,1.5514901,0.46443903,-0.4649387,-0.2770329,32.82,-25.859999,-8.28
1553850459876,-2.0878077,10.094261999999999,1.8938714,0.41618067,-0.86627716,-0.15363811,33.66,-25.56,-8.22
1553850459895,-3.0622776000000003,10.953807000000001,1.786129,0.36120278,-1.2486788,-0.09988196,34.14,-25.74,-7.74
1553850459915,-3.7590114999999997,10.934652999999999,1.3360053,0.36059192,-1.8442724999999998,0.0064085876000000005,34.32,-25.32,-8.58
1553850459935,-2.9114382,9.811738,-0.8379962,0.26835126,-2.199796,0.14935106,34.32,-25.74,-9.719999000000001
1553850459956,-0.92658436,11.583502000000001,-2.4589202,-0.3278532,-1.8241138,0.10292529,33.059998,-25.5,-10.559999000000001
1553850459976,-1.1492518999999999,14.317763000000001,-2.7701759999999997,-0.9515466,-1.7526426,0.39369714,32.579997999999996,-25.5,-11.94
1553850459995,-1.7789462,12.541211,-3.2394537999999997,-1.4652843,-1.9194088,0.9043805,32.219997,-26.22,-13.92
1553850460015,-1.9130256,9.598647999999999,-4.0032277,-1.8513509999999997,-1.8577113999999997,1.1694958999999998,30.84,-26.22,-15.839998999999999
1553850460035,-1.9273912,8.880365,-2.248224,-2.4365602,-1.9352914,1.2159218,29.76,-25.92,-16.92
1553850460056,-1.8747171000000002,10.113417,1.6927522000000002,-2.6576934,-2.3922186,0.9367564,28.92,-25.74,-18.66
1553850460075,-2.2793495999999998,12.816553,0.7637736999999999,-2.2722373,-2.7795072,0.77304447,27.72,-25.26,-22.14
1553850460096,-1.4940275,12.756696,0.42139238,-2.092032,-2.3152494,0.7754879,25.74,-24.779999,-24.96
1553850460115,-1.2976969999999999,10.496501,1.5275473999999998,-1.8409665000000002,-1.8797026999999997,0.59345007,23.76,-24.539998999999998,-27.0
1553850460136,-0.08858817,9.907509,0.35674694,-1.774993,-1.4979118,0.48715955,23.4,-23.82,-28.199999
1553850460155,1.7789462,9.352037,0.0023942748,-2.3711975,-0.9493549000000001,0.12613818,21.84,-22.02,-30.539998999999998
1553850460175,2.0518935000000003,8.245882,1.0127783000000001,-2.6741865000000002,-0.64086795,-0.22755279999999997,20.52,-21.24,-32.34
1553850460195,0.14365649,8.473338,2.0662591,-2.6473086,0.048188105,-0.42302970000000006,20.1,-19.619999,-34.079997999999996
1553850460216,-1.359948,8.899519999999999,3.0622776000000003,-2.2844546,0.35667506,-0.37904740000000003,20.039998999999998,-17.279999,-35.46
1553850460235,-2.011191,8.693612,3.7230972999999996,-1.8379120999999998,0.42997888,-0.13897733,20.039998999999998,-15.42,-35.76
1553850460255,-1.8962656000000002,8.063917,4.187587000000001,-1.4512343,0.28764728,0.12858163,20.16,-14.34,-35.46
1553850460276,-0.8547561,7.49408,5.0830455,-1.0248504999999999,0.018255709,0.22754179999999996,20.699999,-12.9,-36.54
1553850460295,0.8643332,6.8236833,5.071073999999999,-0.54898643,-0.09475436,0.16034663,21.24,-11.519999499999999,-37.14
1553850460315,2.2985039,6.675238,5.1548739999999995,-0.093280956,-0.2205926,0.05222348,20.88,-10.86,-37.14
1553850460335,1.9441511999999999,5.439792,5.751048,0.37036574,-0.6787415,-0.07056043,20.76,-10.86,-37.079997999999996
1553850460355,0.77574503,4.601796,5.217125,0.7533783000000001,-1.1332252,-0.13531215,20.88,-11.099999,-37.14
1553850460375,0.55307746,4.0918155,5.253039,1.1235626,-1.2780003999999998,-0.15485983,20.4,-11.58,-37.02
1553850460395,0.9864412,4.3887057,4.336032,1.3520261999999998,-0.99333715,-0.19823126,19.68,-11.88,-37.14
1553850460415,1.6161355,6.1125836,3.6967604,1.1687666,-0.47043648,-0.22388761,18.72,-12.179999,-37.559998
1553850460436,2.185973,7.046351,5.6600657,0.8584470999999999,-0.19860145,-0.28314155,17.46,-12.96,-37.559998
1553850460455,2.9808722000000003,10.776631,6.912271499999999,0.5065887,-0.30733547,-0.21167031,17.16,-13.86,-37.26
1553850460475,3.512401,10.685649,8.566715,0.011177001,-0.2450272,0.23242873,17.1,-14.759998999999999,-37.2
1553850460496,-0.9864412,4.580248,9.141341,-0.12810028,-0.13507147,0.12674904,17.279999,-15.42,-37.38
1553850460516,-3.8188684,11.30816,9.804555,-0.19590631,0.14531568,0.0051868567,17.52,-15.36,-37.5
1553850460535,-1.8675343999999998,31.218947999999997,0.41660379999999997,0.4015199,-0.19982319,0.2788545,17.22,-15.299999,-37.38
1553850460556,0.94095,14.219598000000001,-5.5810547,0.1779432,0.6963161,0.6905776,16.8,-14.82,-36.84
1553850460575,3.1604427999999998,1.7837347,5.5116205,0.52430385,0.1398179,0.0729929,16.68,-15.179998999999999,-36.78
1553850460596,1.8220432,1.9417567999999998,3.0215747000000004,1.2506225,-1.0623648,-0.6704300999999999,17.16,-16.32,-36.6
1553850460616,0.46927786,5.1668449999999995,-2.8539755,1.5194033000000002,-0.06726543,-1.0949813999999998,17.1,-16.32,-36.6
1553850460635,-0.5147691,8.291373,-2.640885,1.7509211999999998,0.95104694,-1.1524028999999998,16.68,-16.74,-36.48
1553850460656,-2.169213,11.564347,-0.8332075999999999,1.7148801,0.7879459,-1.1505702,17.34,-18.119999,-35.82
1553850460676,-2.9928436,13.812572,-0.75659084,1.606757,0.14165048,-0.9153870999999999,18.18,-18.72,-35.1
1553850460695,-1.9537282,10.508472,0.1340794,1.3190396,-0.38491535,-0.65454763,18.539998999999998,-19.14,-34.32
1553850460716,-2.2266755000000003,7.4030976,1.9345740000000002,1.194423,-1.0641975000000001,-0.6514933,18.42,-19.92,-33.6
1553850460735,-1.8795058,7.362394999999999,0.2681588,1.2475682,-1.1765966,-0.5244333000000001,18.48,-20.52,-33.239998
1553850460755,-1.1779832000000001,8.889942,-1.3192455,1.2732246,-0.94202447,-0.45357293,18.539998999999998,-21.42,-32.7
1553850460776,-0.7877164000000001,9.888355,-2.2961093999999997,1.5175707,-0.46371698,-0.37721479999999996,18.539998999999998,-22.32,-32.46
1553850460795,-0.31365,10.472558,-1.3575538,1.6464633000000002,-0.36842199999999997,-0.21411377,18.66,-23.16,-32.1
1553850460816,0.67757976,10.606637,0.19154198,1.3300351000000001,-0.7111174,-0.003976122,18.18,-23.88,-31.26
1553850460835,0.69673395,10.125388000000001,1.0079896000000002,1.0716391,-0.9994458,0.089486256,17.64,-24.6,-31.26
1553850460856,0.25379312,8.877971,0.7350424,0.99528086,-1.1185645,0.018625893,16.44,-25.439999,-31.38
1553850460875,0.2657645,7.625765299999999,-0.31604427,0.9891722,-0.81435364,-0.25015482,16.02,-25.619999,-30.66
1553850460896,0.0,8.320105,-0.86193895,1.040485,-0.55045986,-0.6508824000000001,16.08,-26.22,-30.599998
1553850460915,0.18435916,9.620196,0.51955765,1.0184938000000001,-0.54496205,-0.8396398000000002,15.54,-27.0,-30.3
1553850460936,0.8356019,9.888355,0.5770202,0.95862895,-0.6414788,-0.8268116,15.719999,-27.539998999999998,-30.3
1553850460956,1.132492,9.320911,0.90982443,0.8486733,-0.54801637,-0.77672064,16.08,-27.96,-30.599998
1553850460976,1.7502148999999998,9.4142885,0.28970724,0.7222241,-0.33971134,-0.65821284,15.96,-28.019999,-29.099998
1553850460995,2.700742,10.479741,-0.53392327,0.41190459999999995,0.10560944,-0.530542,15.66,-27.9,-28.38
1553850461016,2.2889266,11.669696,-0.08858817,0.25185789999999997,0.31819054,-0.36499748,15.66,-28.199999,-28.56
1553850461035,-0.13168511,12.028836,0.59378016,-0.049298655,0.47090685,0.098038375,16.38,-28.859999,-28.32
1553850461056,-0.98404694,10.199611,1.2498114,-0.061515965,0.20212615,0.20860498,17.1,-28.74,-28.38
1553850461075,-0.600963,9.775824,-2.2458298,-0.30952725,-0.019617938,0.005797722,18.06,-28.26,-28.26
1553850461097,-1.5586729,15.057594,-1.9202085,-0.88190794,0.30230805,0.09009712,17.82,-27.96,-28.439999
1553850461115,-5.5331693,17.933119,-0.9984126,-1.6968023,-0.07581754,0.72478616,17.34,-27.359999,-28.38
1553850461136,-6.699180999999999,12.127002000000001,-0.89545876,-1.8855596000000001,-0.9475222,1.6716272,17.279999,-27.119999,-29.279999
1553850461155,-6.732701,7.908289999999999,-5.9138589999999995,-2.4567183999999997,-1.1521621000000002,1.7217182,15.78,-26.699999,-30.599998
1553850461175,-4.295329,8.327288000000001,-2.1189332000000003,-3.2532867999999997,-1.493025,1.5726671,14.759998999999999,-25.5,-31.92
1553850461195,-2.8827069,11.198023,2.1021732999999996,-3.3198712,-2.7098684,1.3924618,13.98,-23.939999,-33.78
1553850461215,-2.928198,13.771869,0.11971374,-2.7059517000000004,-3.1411395,1.4792047,12.24,-21.6,-34.98
1553850461236,-1.6664151999999999,12.723175999999999,0.35914123,-2.445112,-2.5217218,1.2660127,9.3,-19.859999,-36.54
1553850461255,-1.9369683000000002,11.494913,3.4836697999999995,-1.7945406000000004,-1.8998612000000001,0.9251499,6.3599997,-17.58,-37.92
1553850461275,0.09577099,9.440625,1.5514901,-1.5330903999999999,-0.7233347,0.54702437,4.44,-15.48,-39.54
1553850461295,2.2338583,8.217151,-0.16281068,-2.0230043,0.1557004,0.16156836,3.06,-14.04,-40.68
1553850461315,3.8571767999999995,6.804529,0.71588814,-2.5239138999999997,0.60957325,-0.10537975,3.0,-12.9,-40.739998
1553850461335,2.8276386000000002,7.065505,2.545114,-2.6705215,0.8447564000000001,-0.11759706,3.24,-11.639999000000001,-41.28
1553850461355,1.3264283000000001,7.0942364,3.0191805,-2.3852472000000002,0.9785359,0.14568587,3.6,-8.88,-42.36
1553850461375,0.7853220999999999,6.320885700000001,3.0814316,-2.1091363,1.2522035,0.32161504,4.98,-6.0,-42.899998
1553850461395,0.062251142999999995,4.721509999999999,4.3240604000000005,-1.4426823,1.2296014,0.35215834,6.48,-4.56,-42.6
1553850461416,0.11492519,4.2139235,5.4062724,-0.74385244,1.1245326999999998,0.22387661,7.56,-3.24,-42.719997
1553850461435,-0.14605077,4.8268580000000005,5.94259,0.066154875,1.0842155,-0.064451784,8.7,-2.1,-42.78
1553850461455,-0.6153286,5.4326096,5.6600657,0.71306115,0.9968618,-0.21228117,9.48,-1.56,-42.18
1553850461476,0.39744959999999996,4.4988421999999995,5.851608000000001,1.1705992,0.40432253,-0.21594636,9.599999,-1.38,-41.52
1553850461495,1.0415094999999999,3.6704233,6.598621400000001,1.6977759999999997,-0.37941757,-0.16707715,10.74,-2.58,-41.04
1553850461515,1.5059988000000002,3.4166303,4.810098,2.2915368,-1.0611431999999998,-0.1114884,10.74,-4.44,-41.34
1553850461536,1.9633054,4.5108137,3.6105663999999997,2.4766293,-1.1613251,-0.103547156,9.96,-6.0,-41.46
1553850461555,0.76137936,6.4142623,3.562681,2.5248876,-0.8192405,-0.23305058,9.3,-7.8599997,-41.399998
1553850461576,-0.8547561,11.684061,4.2737803,2.3776688999999998,-0.26579663,-0.45968157,8.099999,-10.32,-40.8
1553850461595,-2.832427,19.290672,1.3000913,1.3086548,0.08422916,-0.13775562,7.7999997,-11.94,-39.54
1553850461616,-2.8252442,16.984985,6.4358106,-0.5178323,1.2821358,0.36132129999999996,8.16,-13.74,-39.66
1553850461635,-1.158829,15.201251000000001,14.478179999999998,-0.7688979,0.72380507,0.44195550000000006,8.7,-14.639999,-39.719997
1553850461655,2.7773588,8.22194,11.164503,-0.6815441999999999,-1.2596744,-0.13164696,9.179999,-13.92,-39.899998
1553850461675,-0.1699935,8.133351,9.435837,-0.40115705,-1.9908801,-0.44502085,9.24,-13.259998999999999,-40.26
1553850461695,-1.7502148999999998,23.186157,-2.0087965,1.1382233999999998,-1.6695650000000002,-0.23732665,8.04,-12.719999000000001,-40.379996999999996
1553850461715,-4.800521,20.73442,-10.295382,1.5151272,0.5723104999999999,0.063219056,6.18,-13.32,-40.559998
1553850461736,-0.45491222,4.0942099999999995,1.7573976999999998,1.4228866000000002,0.20456961,-0.25992864,5.3399997,-15.179998999999999,-40.2
1553850461755,-0.25139886,0.15562786,2.403852,1.2316858,-1.547392,-0.8597983,6.0,-16.859999,-39.48
1553850461776,-0.75659084,0.07901107,-1.7430321,0.90792716,-1.4826403000000001,-0.99357784,5.94,-17.22,-39.54
1553850461795,-0.85954463,1.9417567999999998,-1.7262721,0.6440334,-0.7496019,-1.0039625,5.3399997,-18.42,-39.719997
1553850461815,-2.2314641,4.45814,-1.0199611,0.89082295,-0.55901194,-1.1298008,4.92,-18.72,-39.239998
1553850461836,-3.7661943,14.533248,-1.0989721000000001,1.0881325000000002,-0.31894190000000006,-0.952039,4.68,-18.96,-38.879996999999996
1553850461855,-1.185166,17.131037,-0.58420306,2.0178694999999998,-0.5907769,-0.5580309,4.8599997,-21.18,-38.04
1553850461876,-1.2737542,11.849266,-1.1300976999999999,1.9598372,-1.7208776000000001,-0.45296207,4.74,-21.9,-37.86
1553850461896,0.23463893,8.068706500000001,1.0223553,0.8645556999999999,-1.5101291000000001,-0.09316245,4.5,-22.92,-37.739998
1553850461915,0.5554718000000001,9.569917,0.8284190999999999,0.5444623000000001,-1.6164197,-0.096216775,3.78,-24.84,-37.559998
1553850461935,0.12450229,11.420691,-1.0726352,0.63303787,-1.2920502,0.16462268,1.86,-25.619999,-37.14
1553850461955,0.39984390000000003,10.149331,-1.8747171000000002,0.8334016,-0.7948059000000001,0.31061947,0.29999998,-25.5,-36.36
1553850461975,0.75180227,9.318518,-1.3168511,0.8841034999999999,-0.5028123,0.27702188,0.12,-25.56,-35.7
1553850461995,0.36392978,8.873182,0.0047885496,0.69229174,-0.8436752000000001,0.123083845,-0.42,-26.34,-35.1
1553850462015,0.18435916,8.305738999999999,0.69912827,0.5768382,-1.1136776000000002,-0.04062804,-1.86,-27.06,-34.8
1553850462035,0.11253092,8.090255,0.51955765,0.57256216,-1.098406,-0.27397853,-2.3999999,-27.72,-34.68
1553850462055,-0.21309046,8.74868,-0.06464542,0.77536947,-1.066641,-0.45418382,-2.3999999,-28.26,-34.38
1553850462075,0.22027329,9.337671,-0.18435916,1.0618652,-0.97256774,-0.6093436,-2.7,-28.859999,-33.719997
1553850462096,0.72785956,9.397528999999999,0.48603779999999996,1.1553277,-0.9689025,-0.6832583000000001,-3.0,-29.64,-33.059998
1553850462115,0.89545876,9.397528999999999,0.18675344,1.0667521999999998,-0.8161861999999999,-0.7321274999999999,-3.8999998999999996,-30.539998999999998,-31.679997999999998
1553850462137,1.3000913,9.703996,0.05506832,0.9018185,-0.56328803,-0.7565621,-3.72,-31.019999,-30.66
1553850462155,2.1476645,9.931452,0.04070267,0.8162974000000001,-0.29511815,-0.7174666999999999,-3.24,-31.08,-30.06
1553850462175,2.8348215,10.2642565,-0.38787252,0.541408,-0.031835243,-0.6881451999999999,-2.82,-31.5,-30.3
1553850462195,1.9369683000000002,12.625011,0.30167863,0.34409857,0.3646163,-0.46701196,-2.52,-32.34,-30.359999
1553850462215,0.59378016,12.459806,-0.4644893,0.18588446,0.6505012,-0.0027543914000000003,-1.92,-32.82,-29.34
1553850462235,0.117319465,9.984126,0.45251793,0.17672148,0.60957325,0.23242873,-1.14,-32.7,-28.8
1553850462256,-1.0295382,9.5794935,0.34716985,0.04599632,0.26321268,0.05772127,-1.02,-33.12,-28.56
1553850462275,-1.2402343999999998,10.79818,-1.5036045,-0.24905159,-0.045885142000000004,-0.20617251,-0.65999997,-32.76,-28.439999
1553850462295,-2.9305923,15.648979999999998,-1.5634614,-0.8837405999999999,0.032305606,0.018625893,-0.53999996,-32.1,-28.26
1553850462315,-4.4078599999999994,15.629826000000001,-1.2546,-1.4665059999999999,-0.2205926,0.5244223000000001,0.06,-32.04,-27.3
1553850462335,-4.5874305,12.718388000000001,-3.050306,-1.7737713,-0.34093305,1.160333,0.06,-31.439999,-27.599998
1553850462355,-3.9242165,8.983319,-3.9481592000000005,-2.4585512,-0.5944421,1.4138422,-0.78,-31.019999,-28.98
1553850462376,-3.0646717999999997,6.3903193,-2.6121537999999997,-3.0877423,-0.8705531999999999,1.3270992,-1.4399998999999999,-29.4,-30.06
1553850462395,-2.8779182,7.7502675000000005,1.0893950000000001,-3.2172457999999997,-1.3024348999999997,1.1890438,-2.1,-27.06,-31.26
1553850462415,-2.7701759999999997,10.9490185,0.0047885496,-2.822627,-1.7508099999999998,1.115129,-2.82,-25.26,-32.219997
1553850462436,-2.2362528,12.170099,0.25618739999999995,-2.6259282,-1.68728,1.0253317,-4.5,-23.519999,-33.12
1553850462455,-1.8747171000000002,12.24911,3.0862203,-2.1628922999999998,-2.0751793000000003,0.8445156999999999,-6.18,-21.539998999999998,-34.38
1553850462475,-0.28731298,11.650541,1.5203645000000001,-1.8763967000000001,-1.7605839,0.6899668000000001,-7.68,-19.32,-35.76
1553850462495,1.3551594999999999,10.431855,3.2562137000000004,-2.0321672,-0.8925443999999999,0.33627582,-9.12,-17.52,-35.88
1553850462515,2.2625897,9.055147,0.93616146,-2.1891596,0.008481864,0.13224682,-10.38,-15.9,-35.76
1553850462536,2.971295,7.834067299999999,0.505192,-2.346763,1.145913,0.18050519,-10.98,-14.58,-36.239998
1553850462555,1.7286664,7.640130999999999,1.324034,-2.2545222999999996,2.0542696,0.23120700000000002,-10.74,-12.599999,-37.14
1553850462575,-0.047885496,7.1564875,2.3823035,-2.0584345,2.1275735,0.36254302,-9.54,-10.08,-37.559998
1553850462596,-0.7015225,6.1317377,3.7207031,-1.6705351000000002,1.7757150000000002,0.44439897,-8.28,-8.58,-37.739998
1553850462615,-0.3615355,5.695979599999999,5.813299,-0.97537035,1.354218,0.3191716,-7.02,-7.9199996,-38.04
1553850462636,-0.28252444,6.244269,6.9984649999999995,-0.16780652,1.0182421,0.11697519599999999,-5.3399997,-7.08,-37.62
1553850462655,-0.41181526,5.99287,6.670449700000001,0.6495312,0.8184892,-0.06078659,-4.56,-6.24,-38.04
1553850462675,-0.28252444,5.401484,5.7797794,1.1736536,0.6071298,-0.08888639,-4.38,-6.48,-38.399998
1553850462695,0.8379962,3.6919718,5.7438655,1.5878202,-0.008622363000000001,-0.14814033,-4.3199997,-8.099999,-38.399998
1553850462715,1.2402343999999998,2.9928436,4.1612496,1.8657639,-0.64086795,-0.22633107,-4.2,-9.719999000000001,-38.28
1553850462735,1.0247495999999998,3.7063375,2.4637089,1.8474380000000001,-0.95790696,-0.29291537,-4.2599998,-10.559999000000001,-37.26
1553850462755,-0.11492519,5.4589467,3.2298767999999995,1.8645421000000002,-0.90537256,-0.40287113,-5.04,-11.7,-36.42
1553850462775,-1.6352897,8.686428999999999,2.4421604,1.7918493000000002,-0.4069065,-0.58551985,-6.24,-13.98,-35.219997
1553850462795,-4.084633,17.806221,2.569057,1.0056657,0.46968509999999997,-0.31124133,-6.7799997,-15.78,-34.5
1553850462816,-2.5020173,18.002551999999998,4.8747435,-0.5569276999999999,1.0438985,0.22082227,-6.96,-16.56,-34.38
1553850462836,0.56265455,13.525258,11.652935000000001,-1.0199635,0.814824,0.43767944,-6.8399997,-16.859999,-34.44
1553850462855,6.1173720000000005,6.3711652999999995,12.342486,-0.8599167999999999,-0.65369606,0.18539211,-6.3599997,-16.619999,-34.559998
1553850462876,3.9840732000000005,1.4700848,10.640158,-0.32418802,-1.6048132,-0.44502085,-6.72,-15.719999,-34.68
1553850462895,-0.7972935,7.513234,9.143736,0.60982496,-1.8192270000000001,-0.48289448,-7.8599997,-15.0,-35.219997
1553850462915,-2.3248408,31.295567,-2.7582044999999997,2.01115,-0.90292907,0.11453174,-9.12,-15.48,-34.559998
1553850462936,-2.3128695,21.230034,-9.991309,1.4320495,1.1562976,0.24403517,-9.96,-16.859999,-33.719997
1553850462955,2.291321,3.5435266000000003,3.1029801,1.1027931999999998,1.1312521999999998,0.19638768,-10.5,-17.699999,-33.48
1553850462975,0.11013664,0.14365649,3.2729738,1.0398741,-1.3207608,-0.7272406,-10.2,-17.94,-33.3
1553850462996,0.14844504,1.8986599999999998,1.6927522000000002,0.8279038000000001,-1.0916864,-0.75900555,-10.679999,-18.48,-32.94
1553850463015,-0.27055305,3.4190245000000004,0.11492519,0.8254604,-0.4490562,-0.6973081999999999,-11.04,-19.02,-32.64
1553850463036,-1.7262721,3.5243726000000004,-2.997632,1.0197155,0.4336441,-1.1493485,-12.66,-21.18,-31.74
1553850463056,-3.7302802,6.7015753,-2.0375278000000003,1.2842202,0.7903894,-1.8054178,-11.88,-21.779999,-31.32
1553850463076,-2.2793495999999998,15.220405,-2.700742,1.7044953999999999,0.92294717,-1.4376768999999998,-10.92,-22.68,-30.84
1553850463095,0.6081458000000001,16.11347,-1.7765520000000001,1.9299047999999999,-0.04771774,-0.88606554,-10.139999000000001,-24.119999,-30.119999
1553850463116,0.58420306,11.645753,2.5115943,0.9231988000000001,-0.5846683000000001,-0.064451784,-9.12,-25.38,-29.699999
1553850463135,0.41181526,9.356826,2.3775147999999997,0.5945533000000001,-0.8565033000000001,0.3680408,-9.36,-26.519999,-29.22
1553850463156,-1.637684,9.021627,-0.51716334,0.5768382,-0.43011940000000004,0.4492859,-10.5,-26.82,-29.16
1553850463176,-1.3024855,9.055147,-1.2713598999999998,0.79858226,0.37072495,0.25869593,-11.58,-26.82,-28.859999
1553850463195,-0.009577099,9.361614,0.48124924,0.872497,0.3908835,0.15545970000000003,-12.12,-27.539998999999998,-27.779999
1553850463215,-0.11492519,9.771035000000001,1.0606636999999999,0.8511167,-0.17050165,0.13591202,-11.94,-27.72,-27.48
1553850463235,0.07422252,9.11261,-0.14605077,0.7631521,-0.44172582,0.018015025,-11.4,-28.08,-27.84
1553850463255,0.27055305,8.365596,-0.52913475,0.80530185,-0.18821675,-0.17807272,-11.759999,-28.32,-27.779999
1553850463275,-0.34956414,8.473338,-0.2657645,0.97695494,-0.15034309,-0.41997534,-12.42,-29.039998999999998,-27.599998
1553850463295,-0.9792584000000001,8.798960000000001,-0.8236305,1.1211191,-0.30733547,-0.65821284,-12.3,-29.58,-27.119999
1553850463315,-0.63208854,9.261055,-0.21787901,1.0734716999999998,-0.22486866,-0.74312305,-12.36,-30.0,-26.22
1553850463335,-0.023942748,9.828498,0.54828894,0.9427465,-0.25174674,-0.7559511999999999,-11.16,-32.1,-26.099998
1553850463355,-0.090982445,9.699207000000001,0.062251142999999995,0.76559556,-0.18149722,-0.7406795999999999,-10.86,-32.52,-25.5
1553850463376,-0.0670397,9.677659,0.07422252,0.5963859,0.0029840767,-0.757173,-10.8,-32.82,-25.14
1553850463395,1.1061549,9.941028999999999,0.40223816,0.28301203,0.17341548,-0.75106436,-9.66,-34.079997999999996,-24.24
1553850463415,1.4796618000000001,11.600261999999999,2.0351336,0.25063620000000003,0.20456961,-0.60445666,-9.66,-33.84,-24.42
1553850463435,0.47167215,12.043202,0.7805335999999999,0.27079475,0.06468146,-0.10660148400000001,-9.3,-34.44,-24.84
1553850463455,-0.007182824399999999,9.136553,-0.14126222,0.1431239,-0.0031245756,0.21043758,-9.0,-35.04,-24.359999
1553850463476,-0.40463245,9.074302000000001,-0.1699935,-0.012646743,-0.003735441,0.027178004,-8.58,-34.92,-24.66
1553850463495,-0.42618093,11.176475,-1.9728824,-0.35839647,0.051853300000000005,-0.10904495,-7.7999997,-34.86,-24.24
1553850463515,-0.6057515,15.191673000000002,-1.7597919999999998,-0.9900310999999999,0.45135915,0.069327705,-8.16,-35.04,-24.48
1553850463536,-1.7358493000000002,15.773482000000001,-1.8004947,-1.5465294,0.38599658,0.59161747,-8.82,-34.739998,-25.38
1553850463555,-3.7518287000000003,13.996929999999999,-1.5802213999999999,-1.8055363000000002,0.26687786,1.0784770000000001,-8.46,-33.78,-25.859999
1553850463575,-3.938582,9.924269,-3.5243726000000004,-2.5110857,-0.020839668999999998,1.5598389,-8.22,-32.399998,-27.06
1553850463596,-3.6440864,8.152505999999999,-1.5730386,-3.2086935000000003,-0.1521757,1.5396802,-8.7,-31.199999,-28.98
1553850463615,-2.935381,9.646533,1.0582695,-3.1720417000000003,-0.85100555,1.4211725,-9.12,-30.599998,-29.4
1553850463635,-2.2937152000000003,11.990528,-1.2569941999999998,-2.7389382999999996,-1.315874,1.1719395000000001,-10.679999,-27.0,-31.74
1553850463656,-1.333611,12.397555,-0.32083282,-2.4921486,-0.9829525,0.98501474,-11.88,-24.66,-33.36
1553850463675,-0.53392327,11.389565,1.6448668000000002,-2.0480497,-1.1460534,0.8677286,-13.32,-23.46,-33.84
1553850463695,0.7039168,10.616214999999999,2.803696,-2.0321672,-0.6805741999999999,0.7754879,-14.099998999999999,-22.619999,-34.14
1553850463716,0.6344828,10.024828999999999,2.9377751,-2.082869,-0.21998173,0.5641285,-15.54,-20.699999,-34.98
1553850463735,1.924997,8.940222,0.1340794,-2.2820112999999997,1.0933785,0.6716409000000001,-16.02,-18.18,-36.18
1553850463756,2.1380875,7.8747697,-0.007182824399999999,-2.4390035,2.7304974,0.71684486,-16.14,-15.719999,-37.26
1553850463775,1.1109436000000001,7.8316726999999995,1.5562786,-2.2667396,3.40306,0.95202804,-15.179998999999999,-14.04,-37.92
1553850463795,0.41181526,6.368771,3.545921,-1.8324143,2.8612227000000003,1.2757866000000002,-11.88,-10.8,-39.78
1553850463815,0.409421,5.121353599999999,4.494054,-1.2820247,2.247303,1.3038863,-9.719999000000001,-9.24,-40.8
1553850463836,0.011971374,6.318491000000001,6.361587999999999,-0.62839895,1.7531130000000001,1.2110348,-7.98,-8.639999000000001,-41.219997
1553850463855,-0.07901107,7.393521000000001,6.672844,0.024616037,1.4910518,1.0900835,-7.14,-7.98,-41.34
1553850463876,0.07901107,6.771008999999999,6.019207,0.76742816,1.6193335,0.9275934000000001,-4.7999997,-6.7799997,-41.76
1553850463895,0.29449580000000003,5.609786,5.880339,1.1828165000000002,1.4128611,0.92392814,-4.02,-6.8999996,-42.18
1553850463916,1.4078336,3.3855044999999997,4.494054,1.5829332,0.8887386999999999,0.87261546,-2.8799999,-7.44,-42.3
1553850463935,1.4652961000000002,2.5714512000000003,3.675212,1.8168947,0.28031690000000004,0.5097615,-1.74,-8.28,-42.12
1553850463957,1.0271438,3.5602864999999997,2.2889266,2.0190911,-0.51014274,0.0015216654,-1.38,-11.219999000000001,-40.68
1553850463975,-0.45012367,5.566689,0.66800267,1.9665567,-0.59199864,-0.46517938,-1.74,-12.0,-40.2
1553850463996,-3.2155110000000002,13.022461,2.3056867000000003,1.4460995,0.06956839,-0.8561331,-2.28,-13.32,-40.02
1553850464016,-6.835654700000001,18.5269,2.8467927000000004,0.8101887,1.2430406,-0.27886550000000004,-1.8,-15.599998999999999,-39.42
1553850464035,-2.9425638,11.032817999999999,1.7813405,-0.6510009,2.3432087999999998,-0.21105944,-1.0799999,-16.02,-39.36
1553850464055,1.1468576000000001,6.974522599999999,13.589904,-1.2239926,1.7164611,-0.35522363,0.42,-15.36,-39.42
1553850464076,4.869955,6.7015753,14.289032,-0.6613856,-0.8161861999999999,-0.5140486,1.56,-15.599998999999999,-40.32
1553850464095,4.652076,6.4932733,11.703216000000001,-0.08656144,-2.5363830000000003,-0.20372905,2.34,-15.299999,-40.62
1553850464116,-0.5961744000000001,13.295407999999998,8.985713,1.6519611,-2.630456,0.9043805,0.96,-14.639999,-40.079997999999996
1553850464135,2.545114,32.001877,-7.113390400000001,2.554209,-1.537618,1.6508578,-1.4399998999999999,-15.66,-39.48
1553850464155,0.83081335,23.878103,-12.56276,2.3581214,0.87713224,1.473096,-2.6399999,-16.38,-39.18
1553850464176,1.1636176,1.5275473999999998,3.2370596000000003,1.1455537,1.4708933000000002,0.22082227,-3.3,-18.66,-38.64
1553850464195,-1.5897985000000001,0.9313729,4.146884,0.8987642,0.1557004,-0.3857669,-2.9399998,-19.14,-38.579997999999996
1553850464215,-1.6855695,3.1293173,0.44054657,0.4858193,0.42509195,-0.75778383,-2.58,-20.1,-37.5
1553850464235,-3.2107224,1.515576,-1.2450229,0.34409857,1.1843975,-1.105977,-1.0799999,-20.699999,-37.5
1553850464256,-3.2011453999999997,0.5770202,-1.6664151999999999,0.7399392,0.57414305,-1.7980874,0.0,-21.24,-37.32
1553850464275,-4.4916596,4.6688356,-0.74701375,0.80163664,-0.019007072,-2.447437,0.53999996,-21.539998999999998,-37.32
1553850464296,-2.6097596000000003,17.942695999999998,-3.0718546,1.5542227,-0.31894190000000006,-1.5977235,1.68,-22.38,-37.02
1553850464315,-0.84996754,18.56042,-4.9274178,2.2194548,-0.63109404,-0.33017817,2.1,-23.519999,-35.7
1553850464335,0.18196489,11.315342999999999,1.8483802,1.3813478000000001,-0.6976783000000001,0.22448747,2.28,-24.119999,-35.46
1553850464355,0.17478207,9.174861,3.3328303999999997,1.0026113,-1.1741532,0.65942353,1.92,-26.16,-34.8
1553850464376,-1.7789462,8.411087,-1.9058428,0.76742816,-0.43439543,0.57329154,1.14,-27.3,-34.14
1553850464395,-1.8986599999999998,8.605023,-2.5666625,0.8107996000000001,0.23938893,0.11514260000000001,0.71999997,-27.48,-33.78
1553850464416,-0.5243462,10.202005,-2.0375278000000003,1.0276568000000001,0.56436926,-0.10721235,-0.35999998,-27.359999,-32.34
1553850464435,-0.18435916,11.231544,-0.0670397,1.0294894,0.15020260000000002,-0.12859264,-0.29999998,-28.199999,-32.219997
1553850464455,-0.18675344,10.690437,1.3144568,0.7368849000000001,-0.7825886,-0.09132985,-0.17999999,-29.16,-32.399998
1553850464476,-0.15802214,8.248277,0.23942748,0.66174847,-1.0739713,-0.26176125,-1.02,-30.42,-31.92
1553850464495,-0.44772938,7.580274,0.0047885496,0.7717042,-1.0043327,-0.40103856,-1.02,-30.3,-31.619999
1553850464515,-0.77574503,8.174054,-0.55307746,0.89387727,-0.7825886,-0.6447736999999999,-1.14,-30.539998999999998,-30.179997999999998
1553850464535,-0.11253092,9.273026,0.031125572,0.9531312,-0.59383124,-0.6466064,-1.02,-31.619999,-29.4
1553850464555,0.08140534,9.692024,0.117319465,0.8407319999999999,-0.7153934000000001,-0.56719387,-2.1,-32.16,-29.58
1553850464575,-0.08619389,9.318518,0.29210153,0.57195127,-0.61887676,-0.5427593000000001,-2.76,-33.3,-28.439999
1553850464596,0.019154198,9.225141,0.65363705,0.44489133,-0.44661275,-0.57818943,-2.22,-34.26,-27.599998
1553850464615,1.2306572,9.454991,1.1013663999999999,0.29278588,-0.43622804,-0.6973081999999999,-1.8,-33.84,-27.66
1553850464635,1.3623424,12.354458000000001,1.4581133,0.37464179999999997,-0.32138538,-0.49389005,-1.9799999,-33.899998,-27.48
1553850464656,1.2138973,11.183658,-0.19154198,0.36364624,-0.21387309,-0.09560591,-2.04,-34.44,-27.48
1553850464675,1.2210802,8.76544,-0.42378664,0.31599876,-0.06665456,0.11453174,-1.92,-34.02,-27.42
1553850464696,0.5219519,9.04557,-0.3519584,0.13151745,-0.06543283,-0.029021597000000003,-1.9799999,-34.14,-26.76
1553850464715,0.25858167,10.321719,-0.7709564999999999,-0.14092845,0.07017925400000001,-0.17929445,-1.92,-34.38,-26.519999
1553850464735,-0.65124273,14.262695,-1.6831752,-0.57403195,0.38538572,-0.053456206,-1.62,-34.2,-26.82
1553850464756,-1.6161355,15.842916500000001,-1.3383996,-1.131141,0.5716996,0.50792897,-1.8,-34.44,-26.939999
1553850464775,-3.1341057,14.715213,-1.1468576000000001,-1.484832,0.27726257,1.1536136000000001,-1.86,-34.14,-27.48
1553850464795,-3.502824,10.621003,-3.3831102999999993,-2.0572126,-0.003735441,1.6233688999999998,-1.92,-33.3,-28.32
1553850464815,-2.7845416000000003,7.427040600000001,-3.703943,-2.730997,-0.04344168,1.6801793999999999,-2.6399999,-31.74,-28.859999
1553850464835,-2.4613144,5.9904757,-0.7972935,-3.2019742,-0.050772063,1.53235,-2.82,-30.72,-29.88
1553850464855,-1.8435916,9.715967,1.8651401,-3.0400949,-0.9475222,1.3820771,-4.38,-28.08,-32.52
1553850464876,-2.264984,11.557164,1.4557191,-2.5611764999999997,-1.5431158999999999,1.2061479,-4.92,-26.76,-33.18
1553850464895,-2.264984,13.065557499999999,0.45970076,-2.0303346999999996,-1.4814185,1.1249028,-6.12,-22.859999,-35.579997999999996
1553850464916,-0.9026415999999999,12.213196,1.5083932,-1.6234984,-1.6084783999999999,0.9911234,-7.259999799999999,-21.06,-36.3
1553850464935,1.4629020000000001,12.423892,-0.16520496,-1.7988168000000002,-0.42828676,0.82435715,-7.68,-20.22,-36.78
1553850464956,2.3152637,11.540403999999999,2.4996228,-2.0504932,0.79649806,0.56168514,-9.84,-17.34,-36.6
1553850464975,2.7486273999999997,9.342461,0.40463245,-2.1256297,2.0677084999999997,0.6325455,-10.08,-15.78,-37.62
1553850464996,2.011191,7.570697,1.3623424,-2.1677792,3.2747783999999998,0.6698082,-9.36,-14.34,-38.52
1553850465016,0.69673395,7.271412400000001,4.582642,-1.9686371999999999,2.98645,0.82802236,-6.96,-12.78,-39.6
1553850465035,-0.58420306,6.7829804000000005,5.375147,-1.5141536,2.2363074,0.95080626,-4.3199997,-11.519999499999999,-40.079997999999996
1553850465055,-0.7589851,7.0798707,5.7558365,-0.85075384,1.6620941000000002,1.0039514999999999,-2.52,-9.719999000000001,-40.079997999999996
1553850465075,-0.6751855,7.556331,5.025583,-0.33701617,1.494717,0.9147652000000001,-1.3199999,-7.8599997,-41.399998
1553850465095,-0.6081458000000001,6.63693,4.5467277,0.18588446,1.8160319999999999,0.6930211,0.71999997,-7.5,-40.68
1553850465116,0.019154198,5.2075477,4.209135,0.5933316,1.9626398,0.5965043999999999,1.62,-7.3199997,-40.379996999999996
1553850465135,0.9241901,3.6129606,3.5004299,0.95862895,1.6675919,0.41996434,3.72,-8.7,-40.5
1553850465156,1.0822121999999998,2.7725701000000003,3.6488747999999998,1.2836093000000002,1.0048031,0.20493978,4.62,-9.42,-40.32
1553850465175,1.0391153,2.6241252,3.703943,1.56644,0.4599113,0.047947425,5.64,-9.42,-39.96
1553850465195,0.0670397,3.5315554,2.760599,1.8462162,-0.35192862,-0.21655722,6.7799997,-10.679999,-39.54
1553850465216,-2.2769554,7.429435000000001,0.47167215,1.7661929,-0.6219311,-0.6802039000000001,6.54,-12.179999,-38.82
1553850465235,-5.837242,16.779078,6.055121,1.7228214,0.08972695,-0.5262659000000001,5.46,-13.86,-38.579997999999996
1553850465255,-5.6002088,17.662565,0.031125572,1.0520915000000002,0.80993706,-0.20189646,5.1,-14.759998999999999,-38.1
1553850465276,-2.8372157000000002,11.221966,3.9122449999999995,-1.067611,1.7628868999999998,-0.054677937,5.8199997,-16.02,-37.079997999999996
1553850465296,0.6751855,10.587483,15.524478,-1.0841044,0.73968756,-0.24893309,6.8399997,-16.56,-37.14
1553850465315,-0.5027977,12.337698,17.909176000000002,-0.36145079999999996,-0.7166151999999999,-0.17196406,7.9199996,-15.24,-38.28
1553850465335,1.0032011,15.802214000000001,10.541992,0.06676574,-2.1246598,0.03145406,7.8599997,-14.099998999999999,-38.219997
1553850465355,2.6265194,16.328955,0.35435268,-0.7579023,-2.657334,0.67836034,7.08,-14.04,-37.62
1553850465375,5.5523233,14.861263000000001,-7.2881727,1.126617,-1.7337058,1.3136601,5.52,-14.34,-38.34
1553850465398,2.8874955,9.29218,-3.5962007000000007,1.5762136999999998,0.77267426,0.6539256999999999,3.0,-14.639999,-38.879996999999996
1553850465415,1.0774237,2.5906053,3.301705,1.8498813000000003,0.7402984,-0.11698619,2.1,-15.78,-37.68
1553850465435,-1.7047237000000002,2.030345,0.5411060999999999,1.8339988999999999,1.0567267,-0.8280333000000001,2.52,-17.34,-36.12
1553850465455,-1.1731946000000002,2.9521408,2.3416007000000003,1.0001678,0.860028,-0.99357784,3.12,-18.779999,-35.88
1553850465475,-2.2530127,1.9417567999999998,1.6233183,0.49742576,0.010925325,-1.4578354,4.3199997,-19.68,-35.28
1553850465496,-2.5834224,3.1604427999999998,-1.0439038,0.3679223,-0.20409924,-2.035714,5.3399997,-19.8,-34.98
1553850465517,-3.799714,11.497308,-3.3160705999999998,0.7918628000000001,0.05674022,-2.3649702,5.2799997,-19.619999,-35.1
1553850465535,-0.64166564,17.49736,-6.143708999999999,2.250609,0.8459781,-1.5317501,5.2799997,-19.68,-34.62
1553850465555,0.91700727,14.868445999999999,1.0558752,2.2212872999999997,0.7476288000000001,-0.22144416,7.3199997,-20.939999,-33.239998
1553850465575,0.37111259,10.779025,5.602603,1.1730428,-0.97745466,0.4663901,7.7999997,-22.68,-32.94
1553850465596,-2.7175019,8.91628,-1.5754328000000002,0.18588446,-0.3036703,0.4688335999999999,7.62,-24.119999,-32.82
1553850465615,-2.6025767,8.794171,-1.1300976999999999,0.1150241,0.49167627,0.23120700000000002,7.3799996,-24.9,-32.64
1553850465636,0.14126222,9.58907,0.23224466,0.4491674,0.7079225,0.31306294,7.3199997,-25.08,-32.46
1553850465655,0.28731298,9.620196,0.4764607,0.71550465,0.27481914,0.29107177,7.56,-24.6,-32.399998
1553850465675,-0.25858167,9.4932995,1.1109436000000001,0.73627406,-0.38796967,0.36132129999999996,7.68,-24.66,-32.76
1553850465696,-0.011971374,8.636149000000001,0.42857520000000005,0.7338306,-0.47043648,0.31794986,7.5,-25.199999,-32.34
1553850465715,-0.076616794,7.5539369999999995,0.29928434,0.7222241,-0.30244854,0.15973577,7.3799996,-25.14,-32.16
1553850465736,-0.23224466,7.5180229999999995,-0.44772938,0.85417104,-0.13690406,-0.14630772,6.54,-26.64,-31.38
1553850465755,-0.23224466,8.818114,-0.88109314,1.0612544,-0.03366784,-0.3558345,6.3599997,-27.24,-31.199999
1553850465776,0.47167215,9.881172,-0.5818088,1.1418885,-0.019617938,-0.46517938,6.6,-27.779999,-30.72
1553850465795,0.69194543,9.931452,-0.011971374,1.0728608,-0.10208475,-0.61667395,6.06,-28.38,-29.88
1553850465816,0.16281068,9.771035000000001,0.11013664,0.90487283,-0.013509285,-0.8329203000000002,6.06,-28.32,-29.039998999999998
1553850465835,-0.27773590000000004,9.8237095,0.11971374,0.7087851,0.19968268,-0.9618128,6.48,-28.56,-29.4
1553850465856,0.10774237,10.307352999999999,0.13647367,0.46260640000000003,0.2735974,-0.9673106,7.98,-29.22,-29.34
1553850465875,1.1085492000000001,11.040001,0.38068968,0.32943779999999995,0.3084167,-0.79687923,7.98,-29.279999,-28.98
1553850465896,1.2067145000000001,11.370411,0.68236834,0.26896212,0.25099537,-0.5201572,8.58,-30.06,-28.74
1553850465915,0.28252444,10.968173,0.37829542,0.18771705,0.24183238,-0.18295965,9.36,-30.0,-27.96
1553850465936,-0.13168511,9.249083500000001,0.057462595,0.053326704,0.24183238,0.03145406,9.66,-29.22,-27.539998999999998
1553850465955,-0.45970076,9.024022,0.057462595,0.020339978999999998,0.27176479,-0.07056043,9.84,-29.039998999999998,-27.599998
1553850465975,-0.8643332,11.370411,-0.29928434,-0.13787411,0.49106540000000004,-0.19395521,10.44,-29.279999,-27.24
1553850465996,-0.64166564,13.508498000000001,-1.0726352,-0.3522878,0.44891572,-0.014360831000000001,10.26,-28.74,-26.46
1553850466015,0.10055954,14.221992499999999,-1.8938714,-0.71086574,0.6010211999999999,0.16279009,10.86,-28.74,-26.88
1553850466035,-0.44772938,14.827744000000001,-2.2841382,-1.3150115,0.6755466999999999,0.6850799,11.099999,-28.619999,-27.96
1553850466056,-1.6927522000000002,11.873209,-2.1907616,-1.6314396999999998,0.42448112,1.1945415000000001,11.04,-27.96,-28.26
1553850466076,-2.2865324,10.101445,-3.78056,-2.2337527,0.5301608,1.382688,11.219999000000001,-27.599998,-28.32
1553850466096,-2.6337023,7.764633,-2.176396,-2.785364,0.6706598000000001,1.2873931,11.04,-27.3,-28.92
1553850466116,-2.2530127,7.592245599999999,0.42857520000000005,-3.0846880000000003,0.34323603,1.1059661,10.559999000000001,-26.34,-30.119999
1553850466135,-2.0375278000000003,10.273833,0.54350036,-2.9423562999999997,-0.5529033,0.9624127,10.74,-24.3,-31.14
1553850466155,-2.9329867000000003,11.95222,-0.3519584,-2.6699107000000004,-0.72089124,0.83168757,10.38,-21.359999,-32.76
1553850466175,-2.3655436,11.449422,1.4820561,-2.3296587000000004,-0.78319955,0.6123869000000001,9.9,-20.279999,-34.38
1553850466196,-1.1300976999999999,11.4757595,0.07422252,-2.0205607,-0.12651935,0.47799656,9.179999,-18.0,-35.219997
1553850466215,-0.09337672,11.523644,1.1492518999999999,-1.9661938,0.91500586,0.5677938,8.16,-17.279999,-35.52
1553850466235,1.4126221,10.10384,1.1229149,-2.0956971999999996,1.6944699,0.75227505,7.7999997,-15.96,-35.82
1553850466255,1.7238779,9.39274,1.4748733,-2.242305,2.591831,1.0167798000000001,8.639999000000001,-14.099998999999999,-36.36
1553850466275,1.1923488000000002,8.542772,4.000833,-2.2233682,2.8172402,1.2818953000000002,10.86,-12.66,-36.66
1553850466296,-0.28731298,7.352817999999999,4.350397,-1.7853776999999997,2.4250648,1.368638,13.5,-10.38,-36.719997
1553850466315,-0.18914771,7.020014,4.6832013,-1.3431111999999998,2.161171,1.4608787,14.219999,-9.78,-36.6
1553850466335,-0.45012367,7.362394999999999,5.2314906,-0.7407981,1.88506,1.427892,16.02,-8.88,-35.219997
1553850466355,-0.6105401,7.453377199999999,5.2410674,-0.16902824,1.7182936999999998,1.3429817,17.039998999999998,-8.46,-34.86
1553850466375,-1.0822121999999998,6.821289,5.020794400000001,0.40701768,1.6291073999999999,1.3167145,18.06,-8.7,-34.079997999999996
1553850466395,-0.098165266,5.29853,3.816474,0.80163664,1.4739476,1.2244738000000002,19.619999,-9.54,-32.88
1553850466416,0.84039044,3.78056,3.4477558,1.0050546999999999,1.064057,1.0259426999999999,20.46,-10.8,-32.04
1553850466435,1.0415094999999999,3.031152,3.318465,1.2286315,0.6602751,0.7596054,20.58,-11.16,-31.56
1553850466456,0.723071,2.8467927000000004,2.997632,1.5334531999999998,0.24366498,0.32955632,21.18,-12.0,-31.859999
1553850466475,-0.28491869999999997,4.1301239999999995,2.762993,1.6550153000000003,-0.17661029999999997,-0.16402282,21.66,-12.78,-31.199999
1553850466496,-1.8148602999999999,6.7015753,2.1213273999999998,1.5322315,-0.15706262,-0.7498425999999999,21.779999,-14.219999,-29.76
1553850466515,-3.842811,13.070346,5.643306,1.411891,-0.07276321,-1.1914982,22.02,-15.24,-29.64
1553850466535,-6.4094739999999994,17.274693,3.8715425000000003,1.0734716999999998,0.5668127,-0.6795931,22.02,-15.719999,-29.34
1553850466556,-1.2306572,9.763853,2.1380875,-0.60335344,1.4971606000000002,-0.39370817,21.42,-16.44,-28.26
1553850466575,0.45730647,8.229122,10.391152,-1.1751233,1.2992401000000002,-0.47739670000000006,21.84,-16.68,-27.539998999999998
1553850466595,3.8452053,9.6896305,13.949045000000002,-0.64428145,-0.803358,-0.45357293,22.8,-15.54,-27.359999
1553850466615,3.6704233,8.356019,13.798205,-0.16536306,-1.7685251,0.029621465,23.82,-14.58,-27.72
1553850466635,1.9704881999999997,14.506910999999999,9.924269,0.79552794,-2.4997307999999996,1.0711467,23.82,-14.7,-27.84
1553850466655,3.8116856,33.052963,-2.343995,1.7723016,-2.0489123,2.1462696,22.14,-15.0,-28.68
1553850466675,-0.62251145,21.493404,-15.268290499999999,2.100947,0.7201399,1.4767611999999999,20.16,-15.599998999999999,-29.22
1553850466695,0.29689008,0.23224466,0.37111259,1.0331545,1.431187,0.6655321999999999,18.779999,-16.92,-28.68
1553850466716,-2.6887705000000004,-2.0087965,2.0327394,1.0026113,0.19907182,-0.64233035,19.02,-18.72,-27.96
1553850466735,-2.4900458,0.5818088,-0.052674048,0.62570745,0.8013849000000001,-1.1352986,19.32,-20.039998999999998,-27.539998999999998
1553850466755,-3.110163,0.30886146,-0.1340794,0.3679223,0.93638617,-1.6093298999999999,19.5,-20.46,-26.46
1553850466775,-3.057489,1.3791022,-1.2282629999999999,0.6360922,0.089116074,-2.0974114,20.52,-20.1,-25.74
1553850466795,-4.1756153,9.29218,1.2857256000000001,0.4998692,-0.91209203,-2.4132287999999997,21.539998999999998,-19.32,-25.98
1553850466816,-0.97446984,22.218870000000003,-2.9497466,2.2567174,-0.32077449999999996,-0.9831931,22.5,-19.08,-25.56
1553850466835,0.007182824399999999,15.864465,-4.350397,2.20907,-0.7465476,-0.04795842,22.5,-19.199999,-24.9
1553850466856,1.7095122,7.922655000000001,4.470111,1.1315038999999998,-0.76487356,0.5684045999999999,22.26,-19.26,-24.66
1553850466875,0.009577099,8.58587,1.0391153,0.92442054,-0.8009145999999999,0.6557584,22.32,-20.1,-24.359999
1553850466895,-1.3623424,9.141341,-1.908237,0.7796455,0.0017623462,0.5506895,22.26,-20.46,-24.24
1553850466916,-1.7214836,9.778217999999999,-2.8539755,0.85600364,0.7622895000000001,0.0870428,20.82,-21.48,-23.039998999999998
1553850466936,-0.9074302,10.45101,-0.8140534,0.9219771000000001,0.85758454,0.066273384,20.46,-22.199999,-22.8
1553850466955,-0.50040346,10.604242999999999,0.9122186999999999,0.94641167,-0.07276321,0.07116030000000001,20.64,-22.5,-23.039998999999998
1553850466975,-0.16520496,9.397528999999999,0.85954463,0.7142829,-0.73738456,0.020458488,21.0,-22.74,-22.619999
1553850466995,-0.38547826,7.185219,1.2905141000000002,0.67824185,-1.0385411,-0.2049508,20.939999,-23.22,-21.84
1553850467015,-1.2043202,7.23071,0.18196489,0.8987642,-1.102682,-0.56658304,20.76,-23.58,-22.14
1553850467035,-1.1875603000000001,8.894731,-0.8356019,0.9763440999999999,-0.8259601000000001,-0.8396398000000002,20.64,-24.06,-21.539998999999998
1553850467056,0.04070267,9.869201,0.47406640000000005,0.99467003,-0.83084697,-0.8378072,20.52,-24.779999,-21.24
1553850467075,0.6273,9.967366,0.3328042,0.7845324,-1.0855777,-0.71196896,20.279999,-24.0,-21.6
1553850467096,0.505192,9.378374,0.9194015,0.58661205,-0.89987475,-0.63499993,19.98,-23.82,-20.88
1553850467115,1.3216397,9.929058,0.88109314,0.43023056,-0.4979254,-0.61850655,20.279999,-24.6,-20.76
1553850467135,1.9800651999999999,11.602655,0.83081335,0.22497985,-0.14056925,-0.39981679999999997,19.98,-24.48,-21.18
1553850467156,1.7597919999999998,11.478153,0.21309046,0.18527359,-0.011065823999999998,-0.06078659,19.859999,-24.66,-21.119999
1553850467175,1.7597919999999998,11.478153,0.21309046,0.18527359,-0.011065823999999998,-0.06078659,19.859999,-24.66,-21.119999
1553850467195,0.9888355,9.093455,-0.37111259,0.22620156,0.15264605,0.17745085,20.46,-24.119999,-20.76
1553850467217,0.5458947,9.804555,-0.54350036,0.07348526,0.18624365,0.049169157000000005,19.98,-24.84,-20.52
1553850467236,-0.35435268,12.735147,-1.4629020000000001,-0.35167694,0.32185575,0.03145406,20.4,-24.779999,-20.699999
1553850467255,-1.4126221,15.198856,-0.9864412,-0.78050435,0.56864524,0.36437562,19.92,-24.84,-20.52
1553850467276,-3.2394537999999997,15.510112,-0.9194015,-1.1879514,0.26809958,1.0454904,20.1,-24.18,-19.92
1553850467296,-3.4860642,12.474172,-2.1213273999999998,-1.6650373,-0.26640749999999996,1.523187,20.46,-23.58,-19.439999
1553850467315,-3.4166303,9.37598,-2.9497466,-2.4341164,-0.61643326,1.6814011000000002,19.8,-23.4,-20.279999
1553850467335,-2.7725701000000003,6.5028505,-1.6089526,-3.1494397999999997,-0.39652178,1.5470108,18.539998999999998,-22.98,-22.14
1553850467356,-2.5020173,7.920261,1.4509305000000001,-3.2465675,-0.8235165999999999,1.3631402,17.34,-22.38,-22.98
1553850467375,-3.4142358,11.250697,1.0439038,-2.9625149,-1.3537477,1.255017,16.5,-21.9,-24.119999
1553850467395,-3.2538195,12.708811,1.7095122,-2.582557,-1.1497186000000001,1.1786590000000001,15.719999,-20.699999,-25.92
1553850467416,-2.8994668,12.57952,3.5962007000000007,-1.8702880000000002,-1.8577113999999997,0.9813495000000001,14.519999499999999,-19.02,-26.82
1553850467435,-0.531529,12.100665,0.83081335,-1.5972311000000001,-1.4918031999999999,0.8701721,13.38,-18.18,-27.18
1553850467455,0.9624985,10.561146,2.3248408,-1.8721206000000001,-0.8235165999999999,0.70401675,12.42,-17.22,-28.439999
1553850467475,2.9425638,8.660092,1.1109436000000001,-2.165336,0.30536237,0.6056674,11.04,-16.56,-29.82
1553850467496,3.4429672,8.056735,1.376708,-2.1787748,1.6944699,0.5867306,10.38,-15.78,-30.599998
1553850467515,2.0830189999999997,7.5683026,3.0383348,-1.9606960999999998,2.4427798,0.5067072,11.04,-13.679998999999999,-30.42
1553850467536,0.9074302,5.607392,4.192375,-1.4518452,2.3670325,0.4242404,11.639999000000001,-12.179999,-30.539998999999998
1553850467555,1.1827718,5.0399485,6.002447,-0.8904601000000001,1.9357616999999998,0.3332215,12.9,-11.58,-30.66
1553850467576,0.34477556,6.2107487,6.838049000000001,-0.09694614,1.208832,0.16279009,14.34,-11.28,-29.939999
1553850467596,-0.86193895,6.4501762000000005,5.672037,0.60738146,0.82398695,-0.016804293,15.179998999999999,-10.86,-29.58
1553850467615,-0.8834874,5.4230323,4.946572,1.0215482,0.7457961999999999,-0.10721235,16.32,-10.74,-28.619999
1553850467636,-0.18675344,4.4916596,4.7957325,1.3563023,0.4507483,-0.17257494,16.5,-11.04,-27.48
1553850467655,0.5698373999999999,3.1987512000000002,3.8835137000000004,1.6177526000000002,0.015812248,-0.339952,16.98,-12.0,-27.66
1553850467676,0.72546524,2.8180614,3.2705792999999996,1.7368714,-0.29633990000000004,-0.6130088,16.92,-13.019999499999999,-27.48
1553850467695,-0.74222517,4.4078599999999994,3.668029,1.9164656000000002,-0.47776687,-0.79687923,16.5,-13.92,-26.76
1553850467716,-2.5044115000000002,7.108602,2.4876516,1.7997903999999998,-0.42156726,-0.8048204000000001,16.74,-14.7,-26.46
1553850467735,-3.7614057,14.696059,2.1285102000000005,1.3001027,0.009703594,-0.46273592,16.92,-14.82,-25.859999
1553850467755,-2.0854135,16.894003,0.076616794,0.35509413,0.9650969000000001,0.10170357,16.26,-15.9,-25.56
1553850467775,-1.3910737,14.897178,6.203566,-0.38955059999999997,1.4183589,0.32466936,16.14,-17.16,-24.9
1553850467796,1.8627458,11.925883,13.53723,-0.13176547,-0.16927992,0.40652534,16.98,-16.26,-24.48
1553850467815,3.5171897000000003,6.715941,11.174081,-0.129322,-2.1820807,0.057110403,17.279999,-15.719999,-24.48
1553850467836,1.4174107,3.5363437999999996,8.073495,-0.26982102,-2.475907,-0.5262659000000001,16.26,-16.26,-24.359999
1553850467855,-1.4533247999999999,6.385530999999999,5.463735,0.215206,-1.5968719999999998,-0.6386651,14.88,-16.26,-24.48
1553850467875,-1.8004947,15.354485,5.114171,0.26163176,-0.608492,-0.65760195,13.799999,-15.599998999999999,-24.66
1553850467896,-3.7159145,26.674615999999997,-6.0599093,1.7228214,0.08484002,-0.074836485,13.139999,-15.719999,-25.26
1553850467915,-2.3272352,14.810984,-6.378348,1.8883659,1.7231807000000001,-0.2819198,12.48,-16.32,-25.5
1553850467936,0.8667275,5.1357193,3.842811,1.4467103000000001,0.10316598,0.09681664400000001,12.54,-17.039998999999998,-24.42
1553850467955,-0.25379312,2.3248408,4.5156019999999994,0.96595937,-2.7318597000000002,-0.29780229999999996,12.9,-17.46,-24.119999
1553850467975,-2.370332,3.067066,1.5227587,0.60860324,-3.2681992,-0.4419665,12.059999000000001,-17.699999,-23.82
1553850467995,-2.9258040000000003,3.0527002999999997,-3.1293173,0.28789896,-1.5803787,-0.39248642,11.099999,-18.42,-23.4
1553850468019,-3.5938065000000003,3.4740927000000004,-4.7933383,0.06248968,0.15020260000000002,-1.0039625,9.059999000000001,-18.72,-24.119999
1553850468035,-3.1676257000000003,8.803747999999999,-3.3855044999999997,0.55423623,0.8007741,-1.4523376000000001,8.22,-18.6,-24.359999
1553850468057,0.75180227,20.042475,0.88588166,1.7252648999999998,-0.19066021,-1.0723794,8.04,-18.66,-24.42
1553850468075,3.1388943,14.44466,1.8962656000000002,1.5627748,-2.2193437,-0.17624013,8.639999000000001,-18.96,-24.18
1553850468095,1.3934678999999999,8.827691,2.6241252,1.062476,-2.4423096,0.14263153,8.34,-19.98,-23.64
1553850468116,0.13647367,9.534002000000001,-0.15323359,0.6654137,-1.7056060000000002,0.21837883,7.3199997,-20.76,-24.359999
1553850468135,-0.50040346,8.9498,-2.3248408,0.71306115,-0.6445331,0.18294863,6.24,-21.06,-24.779999
1553850468155,-0.19393626,8.006455,-2.6504622,0.9775658000000002,0.23572373,-0.10599062,4.98,-21.0,-24.72
1553850468175,0.39505535,9.25866,0.1699935,0.9054837,0.45441347,-0.18173791,4.14,-21.66,-24.24
1553850468196,0.20111908,9.794978,2.4852571,0.79064107,-0.37697408,-0.099271104,3.78,-22.26,-24.18
1553850468215,-0.052674048,9.217958,2.3918805,0.591499,-1.0049436,-0.08644293,3.54,-22.02,-24.24
1553850468236,0.23224466,8.705584,1.8459859,0.46077383,-1.1454426000000002,-0.1591359,2.76,-22.5,-23.76
1553850468255,-0.14605077,8.770228,-0.007182824399999999,0.45222172,-0.98967195,-0.23671578,2.28,-22.859999,-23.16
1553850468275,-0.14605077,8.499676,-0.07901107,0.63975734,-0.8149645000000001,-0.36927354,1.8,-23.4,-23.039998999999998
1553850468295,0.8834874,8.913885,0.19393626,0.65625066,-0.7709822,-0.39737335,0.53999996,-23.88,-24.0
1553850468315,1.7741576000000001,9.794978,1.6496553,0.39846557,-0.8247383,-0.24221356,0.71999997,-24.18,-24.42
1553850468335,1.7981004,10.278622,0.31604427,0.060046222,-0.7269999,-0.026578136000000002,0.9,-24.06,-24.66
1553850468355,1.4126221,10.1541195,-0.21787901,-0.32663146,-0.27251613,0.12735991,0.71999997,-24.06,-24.96
1553850468376,0.67757976,10.187639,-0.9337671999999999,-0.51172364,0.117826745,0.20677239,-0.17999999,-24.539998999999998,-25.26
1553850468395,0.071828246,10.027223,-1.3383996,-0.5593712,0.37744445,0.24953295,-0.96,-24.539998999999998,-25.98
1553850468415,-1.4437478000000001,11.708003999999999,0.028731298,-0.72919166,0.48190242,0.43340337,-1.1999999,-24.66,-27.06
1553850468435,-3.2777622,12.550789,1.4676905,-1.0382894,-0.06726543,0.8188594,-0.53999996,-24.18,-27.9
1553850468455,-4.0798445,12.119819,0.6560313,-1.6448786,-1.1283383,1.0968031,0.48,-23.279999,-28.08
1553850468476,-4.249838,11.921094,0.36392978,-2.4255645,-1.7269863,1.0106709999999999,-0.06,-23.22,-28.74
1553850468495,-3.0766432,10.896344000000001,-2.3296294,-3.103014,-1.7227103,0.84023964,-1.38,-22.26,-30.06
1553850468515,-2.7246847,11.087887,1.1899546,-3.6320233,-1.3128197,0.6869125,-3.06,-20.34,-31.26
1553850468536,-2.8420042999999997,12.330515,3.6201434,-3.3180385,-1.610311,0.68080384,-3.6,-17.76,-32.88
1553850468555,-4.350397,12.797399,4.723904,-2.5355203,-2.127103,0.28435227,-4.08,-15.9,-34.32
1553850468575,-4.048719,12.296994999999999,2.19555,-2.0566018,-2.1374880000000003,-0.25443089999999996,-5.8199997,-14.519999499999999,-34.44
1553850468596,-0.9888355,10.479741,0.30407290000000003,-2.346152,-1.2010313,-0.5891850000000001,-7.44,-12.059999000000001,-34.02
1553850468615,1.2402343999999998,8.482916000000001,2.4780743,-2.6326478,-0.09108917400000001,-0.85124624,-9.12,-10.26,-34.2
1553850468635,3.3591676,6.280183,6.735094999999999,-2.2306986,0.038414262000000005,-1.042447,-9.54,-8.76,-35.16
1553850468656,2.935381,6.0048413,7.0176196,-1.7285671999999999,-0.3678111,-1.0748229,-9.0,-6.48,-35.219997
1553850468675,1.036721,6.771008999999999,5.786962,-1.3657132,-0.56206626,-0.8738482,-9.42,-4.2599998,-36.059998
1553850468695,-0.68715686,6.7039695,3.74704,-0.92527944,0.11355069,-0.6777605,-10.019999499999999,-3.72,-36.36
1553850468715,-0.019154198,5.978504,4.7334814000000005,-0.4066548,0.6657729,-0.43769047,-9.84,-3.12,-36.48
1553850468735,-0.20351335,4.6712303,5.31529,0.1272414,0.6889857,-0.38515604,-9.42,-2.22,-37.2
1553850468756,-0.31125572,3.9313992999999994,4.975303,0.5316342,0.5881930000000001,-0.3698844,-9.179999,-2.22,-36.96
1553850468775,-0.600963,3.1125572,4.819675,0.8902121,0.23633459,-0.3753822,-8.22,-1.8,-37.68
1553850468795,-0.90024734,3.1077687999999997,5.157268,1.2133598,-0.13995839999999998,-0.3857669,-7.44,-1.92,-38.1
1553850468816,-0.8092649000000001,3.5746522000000005,5.6313343,1.5530008,-0.53763163,-0.34667155,-8.16,-3.6,-37.92
1553850468835,-0.36871833,3.8930907,6.0000525,1.8804246999999998,-0.92308766,-0.34911498,-8.46,-4.5,-37.68
1553850468856,-0.77574503,5.157268,4.623344400000001,1.8749269,-1.1185645,-0.35461277,-8.88,-5.46,-37.5
1553850468875,-0.5219519,6.2945485,3.6009892999999997,1.6079787,-0.9371375,-0.34544980000000003,-9.9,-7.44,-37.739998
1553850468896,-1.3527653,7.788575999999999,4.6832013,1.4228866000000002,-0.56634235,-0.29169366,-10.62,-8.88,-37.559998
1553850468915,-2.3727264,9.052753,5.956956,1.2823876,-0.37697408,-0.31368482,-10.5,-10.26,-36.96
1553850468936,-4.5850363,11.849266,6.941003,0.7912519,-0.5419076999999999,-0.40226024,-10.86,-11.4,-36.78
1553850468955,-4.252232,11.748707000000001,8.669669,-0.27654052,-0.36048076,-0.56230694,-11.4,-12.42,-36.42
1553850468975,-2.169213,9.610619999999999,10.137360000000001,-0.6845985,-0.10513907,-0.6130088,-10.5,-12.96,-36.54
1553850468995,0.80687064,6.3567995999999996,9.26345,-0.26554495,-0.20043406,-0.56536126,-10.44,-13.019999499999999,-37.38
1553850469016,1.7765520000000001,4.9417834,6.711152,-0.09877874,-0.16561472,-0.55742,-10.86,-13.44,-37.26
1553850469035,-2.6624336,7.869981299999999,2.0159793,-0.36389425,0.10438771,-0.45784899999999995,-10.62,-13.019999499999999,-37.68
1553850469056,-2.152453,14.8828125,4.8555894,0.39907643,0.13920704,-0.18173791,-10.32,-12.42,-37.92
1553850469075,-1.6089526,17.016111,-1.376708,1.3636327,-0.92003334,-0.33017817,-10.139999000000001,-13.139999,-36.84
1553850469095,-0.50040346,14.387197500000001,-0.68236834,1.6800607,-0.19676886,-0.56780475,-9.84,-13.559999,-36.719997
1553850469116,0.723071,12.371217999999999,3.100586,1.8480488000000002,-0.8620011000000001,-0.6459955,-9.9,-14.46,-37.02
1553850469135,1.1133378,13.479767,-3.1700199000000002,1.5719378000000002,-1.1283383,-0.29719144,-9.78,-15.54,-36.66
1553850469155,-0.11492519,13.671308999999999,-4.8723493,1.1522733,-0.32382882,-0.2709242,-10.08,-16.38,-36.18
1553850469175,-0.09337672,10.537204,-3.3855044999999997,1.0093309000000001,0.18624365,-0.15302724,-11.04,-18.42,-36.18
1553850469196,-0.46209505,8.607418,-0.5602603,1.366687,0.20762393,-0.17440753,-10.86,-19.74,-35.82
1553850469215,-1.5203645000000001,7.611399700000001,1.1827718,1.5200142,-0.29633990000000004,-0.37721479999999996,-10.559999000000001,-20.22,-35.16
1553850469236,-2.5666625,8.451789999999999,2.2194927000000004,1.4515973,-0.86810976,-0.48839226,-10.5,-21.42,-34.62
1553850469255,-2.19555,9.253872,-1.3048798000000001,1.1247844,-0.88460314,-0.42974922,-10.559999000000001,-23.34,-33.54
1553850469275,-0.9481328000000001,9.385557,-2.4062462000000004,1.3294241000000002,-0.41668037,-0.14814033,-11.16,-25.019999,-32.52
1553850469296,-1.3671309,8.9498,-0.098165266,1.3752391000000002,-0.23342077,-0.18051617,-12.3,-25.92,-32.46
1553850469315,-0.35914123,9.217958,0.9984126,1.1834273000000002,-0.06543283,-0.29230452,-12.48,-26.88,-32.399998
1553850469335,0.28252444,10.695226,0.70631105,0.95923984,0.094003,-0.36438662,-12.12,-27.66,-31.08
1553850469356,1.1827718,10.901133999999999,0.5818088,0.7057308000000001,-0.010454959,-0.2171681,-11.82,-28.08,-30.179997999999998
1553850469375,0.75659084,9.541185,0.21548474,0.48215410000000003,-0.16866904,-0.084610336,-11.46,-28.92,-29.519999
1553850469395,-0.6440599,8.8085375,0.68715686,0.38013962,-0.20471011,-0.027799865,-11.04,-28.98,-29.279999
1553850469415,-1.7837347,8.655303,0.6057515,0.39541125,-0.22303605,-0.0870538,-11.219999000000001,-28.92,-29.4
1553850469436,-1.6616267,9.186832,1.5921928,0.49681488,-0.5675641,-0.22083329,-11.58,-30.24,-29.039998999999998
1553850469455,-0.5458947,9.840469,0.818842,0.40090904,-1.1252841,-0.30757615,-11.639999000000001,-30.42,-28.5
1553850469475,0.5554718000000001,11.037607000000001,0.17957062,0.15534121,-1.2731133999999997,-0.20861599,-11.759999,-30.24,-27.66
1553850469496,1.2976969999999999,11.4446335,-0.409421,-0.059072502,-1.0825235,-0.021080348999999998,-11.7,-31.14,-28.019999
1553850469515,2.0351336,10.6641,-0.1699935,-0.15986526,-0.67507637,0.13224682,-12.179999,-31.679997999999998,-28.08
1553850469535,2.0327394,9.538791,0.7948991999999999,-0.31135985,-0.5364099,0.18905729,-12.719999000000001,-31.619999,-27.539998999999998
1553850469556,2.0902019,8.925857,0.39984390000000003,-0.63634014,-0.38980228,0.09987097,-13.2,-30.96,-27.119999
1553850469575,0.46927786,10.937047,-0.021548472000000003,-1.1060956,0.055518486,0.101092696,-13.32,-30.359999,-27.539998999999998
1553850469595,-1.2474172,14.487757,-1.6089526,-1.7933189999999999,1.0420658999999999,0.4792183,-13.62,-29.699999,-27.779999
1553850469616,-3.1269228,13.065557499999999,-0.7972935,-2.2325310000000003,0.47945896,1.2208086999999999,-13.32,-29.22,-28.08
1553850469635,-3.5243726000000004,8.942616000000001,0.39505535,-2.7175581,0.029251281,1.391851,-12.78,-28.439999,-29.64
1553850469655,-3.2801563999999996,9.462174000000001,2.8396098999999997,-3.1207290000000003,-0.7196695,1.4272811,-13.92,-26.16,-30.42
1553850469675,-4.398283,11.207600999999999,4.5754589999999995,-2.6741865000000002,-1.6579585,1.1456722,-14.94,-23.58,-31.56
1553850469695,-4.1516724,12.878803999999999,1.4581133,-2.0175064,-1.8314443,0.78831613,-15.78,-21.119999,-33.3
1553850469716,-2.8851009999999997,12.747119,2.22907,-1.5807378,-0.767317,0.59589356,-17.82,-19.08,-33.96
1553850469736,-0.8834874,11.085492,1.5897985000000001,-1.2062775,-0.12651935,0.5861196999999999,-19.38,-17.82,-33.96
1553850469755,-0.12210801,8.55235,3.059883,-1.1732906,0.3475121,0.52014625,-19.92,-16.98,-34.14
1553850469775,0.35435268,6.976917,3.4429672,-1.4744473,0.32552093,0.32100418,-19.32,-15.54,-34.68
1553850469795,1.0678465,6.629747,2.0662591,-1.7071869,0.9394405,0.11880779,-18.84,-13.86,-34.98
1553850469815,0.6847626,6.747066499999999,2.310475,-1.6222767,1.3841504,0.0888754,-18.9,-12.9,-35.46
1553850469835,0.11013664,5.94259,2.779753,-1.3596046,1.7671629,0.19883114,-18.42,-11.82,-37.32
1553850469855,0.27773590000000004,5.0160055,3.9170337,-0.84098005,1.9241552,0.33016717,-16.98,-10.32,-37.559998
1553850469875,-0.019154198,4.541939299999999,5.087834,-0.3034186,1.8496298,0.326502,-15.54,-8.76,-37.5
1553850469895,-0.94095,5.3464155,6.3903193,0.37403095,1.4372957,0.30878690000000003,-14.7,-7.98,-38.52
1553850469916,-1.2138973,5.9832925999999995,6.196383,0.7448262,1.1208675,0.32528025,-13.259998999999999,-8.16,-38.94
1553850469935,-0.9912298,6.320885700000001,5.3248672,0.8669992,0.9046211999999999,0.28740659999999996,-11.88,-8.639999000000001,-39.239998
1553850469955,-0.8475733,5.9210415,5.4421870000000006,0.9427465,0.63095355,0.20555066,-11.04,-9.0,-39.42
1553850469976,-0.679974,5.506832,5.1883935999999995,1.0911868,0.05612935,0.16279009,-10.139999000000001,-10.019999499999999,-39.18
1553850469995,-0.89545876,5.880339,4.4533510000000005,1.2329073999999998,-0.43134110000000003,0.17256394,-9.48,-11.219999000000001,-39.48
1553850470015,-1.3862851,7.292961,4.2115293,1.4711448999999999,-0.6060485999999999,0.1872247,-9.42,-11.639999000000001,-39.48
1553850470035,-3.0646717999999997,10.08708,3.3232534,1.6849477,-0.30061594,0.13835548,-9.9,-12.66,-38.76
1553850470057,-3.15326,13.075134,0.62251145,1.0814129,0.32491007,0.29473698,-10.08,-14.219999,-38.28
1553850470075,-3.3136763999999994,13.441459,4.371946,-0.3211337,0.44219620000000004,0.25136554,-10.32,-15.42,-37.86
1553850470096,-2.8276386000000002,14.789435000000001,12.150945,-1.3015723999999997,-0.6781307,0.12674904,-10.38,-15.42,-37.98
1553850470115,-1.7286664,7.9489923,7.7095647,-0.94055104,0.018866573,-0.02474554,-10.44,-14.759998999999999,-37.92
1553850470135,-0.9385556999999999,2.2817439999999998,6.5483418,-0.7181960999999999,0.68287706,-0.30696526,-11.099999,-14.28,-37.68
1553850470155,-1.8244373999999999,3.6297207,5.2147307000000005,-0.4158178,0.7103659999999999,-0.49022487,-10.44,-13.019999499999999,-38.16
1553850470176,-2.0973847,7.3767605,6.2251142999999995,-0.11588297,0.03963599,-0.38210170000000004,-9.599999,-11.94,-38.82
1553850470195,-1.5059988000000002,13.793417000000002,5.930619,0.44305873,-1.1185645,0.07604723,-9.96,-11.94,-39.239998
1553850470215,-1.673598,17.243567000000002,2.9401696,1.5841551,-2.0037084,0.41568829999999996,-10.2,-12.48,-38.76
1553850470235,0.007182824399999999,10.410307000000001,-2.5522968999999995,2.4222622000000005,-0.8858248,0.16523355,-10.559999000000001,-13.08,-37.26
1553850470256,0.105348095,10.941835000000001,4.292935,2.1553139999999997,-0.40263042,0.15484884,-11.519999499999999,-14.04,-36.239998
1553850470275,0.016759925,16.283463,1.0941836,1.8517139999999999,-1.5901524999999999,0.06505165,-12.179999,-15.66,-35.82
1553850470296,0.6368771,9.668080999999999,-6.229903,0.8853252,-1.1362796999999998,-0.28680673,-13.019999499999999,-17.46,-35.399998
1553850470315,0.38308397,5.669643,-2.9473522,0.71122855,-0.46066266,-0.6905886999999999,-13.92,-18.539998999999998,-34.559998
1553850470336,-0.91700727,5.834848,-0.5554718000000001,1.0508696000000002,-0.6628590999999999,-0.9489847,-14.46,-18.96,-33.719997
1553850470355,-1.2713598999999998,6.8691745,-0.12450229,1.6647892,-1.012274,-0.9850257,-15.12,-20.46,-33.0
1553850470375,-1.6496553,11.231544,-0.9768641,1.8584334999999998,-0.9047617,-0.770612,-15.719999,-21.6,-32.219997
1553850470396,-1.1061549,11.897152,0.47406640000000005,1.6513503,-1.3274803999999998,-0.31490654,-15.24,-22.619999,-30.96
1553850470415,-0.9816527,10.156514,-1.1420691,1.3013244,-1.9004720000000002,-0.094995044,-15.54,-24.06,-29.64
1553850470436,-0.7134939,9.744699,-1.1277034,1.022159,-1.4856945,0.08398847,-17.039998999999998,-25.08,-28.5
1553850470455,-1.5299416000000001,10.223554,-1.5610671999999999,1.1376126,-1.0318216,-0.02352381,-17.64,-25.98,-26.88
1553850470475,-0.43575802,10.1206,-0.749408,0.98000926,-0.5138079000000001,-0.14447513,-17.82,-26.16,-26.34
1553850470496,0.7326481,10.427067,1.6664151999999999,0.831569,-0.83267957,-0.12004052,-18.359999,-26.279999,-25.74
1553850470515,0.7853220999999999,10.302565,1.4940275,0.8114104999999999,-1.5101291000000001,-0.008863044,-18.48,-27.42,-24.3
1553850470535,0.25379312,9.399923,-0.47885495,0.7949170999999999,-1.5687722,-0.024134673,-18.66,-27.96,-24.119999
1553850470556,-0.18196489,8.0926485,-0.68236834,0.85722536,-1.1741532,-0.20250732,-19.98,-28.08,-22.92
1553850470575,-0.07901107,7.2618356,0.13168511,0.89448816,-1.0128849,-0.3967625,-20.58,-28.5,-21.72
1553850470595,-0.047885496,7.7502675000000005,1.1420691,0.9201444999999999,-1.1179537,-0.66554314,-20.82,-28.32,-20.939999
1553850470615,-0.18914771,8.897125,1.8004947,0.9739005999999999,-1.315874,-0.8262007,-21.6,-28.98,-19.68
1553850470635,0.13647367,8.370385,1.2905141000000002,0.9543530000000001,-1.3586345,-0.88240033,-21.779999,-31.08,-18.6
1553850470656,2.011191,8.61939,0.30646718,0.8230168999999999,-0.9426353000000001,-0.8249790000000001,-21.48,-32.219997,-18.3
1553850470675,4.300117500000001,10.728745,-0.19633053,0.60188365,-0.33604613,-0.68936694,-21.3,-32.7,-17.039998999999998
1553850470696,4.046324299999999,11.631387,-0.9217958,0.30561405,0.1343201,-0.32651296,-21.96,-33.18,-16.02
1553850470715,2.569057,11.037607000000001,-0.021548472000000003,-0.0077598216,0.42631369999999996,0.05588867,-21.6,-32.94,-16.08
1553850470735,0.8643332,10.690437,0.05985687,-0.08595057,0.50633705,0.19638768,-20.22,-33.059998,-15.54
1553850470756,-0.014365649,12.6010685,-0.28491869999999997,-0.24599726,0.8960690999999998,0.13835548,-20.4,-33.12,-15.36
1553850470775,-2.0542877,14.803802,-1.9417567999999998,-0.5447104,0.5301608,0.39247543,-20.58,-32.7,-15.78
1553850470796,-4.2905407,15.718414000000001,-0.87151605,-1.1885624,0.39210522,0.85734385,-20.46,-32.1,-16.32
1553850470815,-6.205960299999999,13.144568,-0.51955765,-1.4946058,-0.30855718,1.3967379,-20.58,-31.74,-17.16
1553850470836,-6.2777886,8.58587,-3.7135203000000003,-1.9955153,-0.7141717,1.346647,-20.88,-31.08,-17.4
1553850470855,-4.7454529999999995,8.827691,-2.4589202,-2.7157254,-0.7312759,1.0906943999999998,-21.66,-29.939999,-17.64
1553850470876,-3.2562137000000004,11.152532,3.0119977000000002,-3.0266557,-1.7709686999999998,1.0540425,-22.14,-28.5,-18.96
1553850470895,-4.024776,13.012883,0.9984126,-2.6888473,-2.8864083,1.0094494,-22.56,-27.24,-19.74
1553850470916,-3.4549387,13.307379999999998,-1.1971374,-2.4994793,-2.6842122,0.96058005,-24.3,-25.439999,-20.279999
1553850470935,-2.1716073,13.472585,2.4469488,-2.2221463,-2.0568535,1.0577077,-26.4,-23.16,-20.58
1553850470955,-1.3096683,11.813352,1.812466,-1.5868465,-1.7746338,1.0131145000000001,-27.84,-20.939999,-20.64
1553850470976,1.1899546,9.012051,-0.7589851,-1.6515981,-0.9811198,0.54152656,-28.56,-19.68,-20.34
1553850470995,2.2410412,7.16367,-2.5403256,-2.2032093999999995,0.1941849,0.26541546,-29.4,-18.9,-19.8
1553850471015,2.667222,6.170046299999999,1.1133378,-2.5080313999999997,1.2662535,0.03328666,-29.699999,-17.16,-19.92
1553850471035,1.8699286,6.5028505,2.0399222,-2.545905,1.5710752000000001,0.010073779,-28.68,-16.44,-21.18
1553850471058,0.36632404,6.399896599999999,3.8643596,-2.2209246,1.390259,0.07238203,-28.199999,-15.059999,-22.74
1553850471075,-0.014365649,5.748654,4.860378,-1.7194043,1.109261,0.13774462,-28.199999,-13.74,-23.939999
1553850471096,0.07901107,5.640911599999999,5.073468,-1.4182477,0.9559338,0.15179451,-27.779999,-13.679998999999999,-24.48
1553850471115,-0.27534159999999996,6.0503325,6.038361,-0.32418802,0.7305246,-0.014360831000000001,-26.58,-12.66,-26.099998
1553850471136,-0.35914123,6.0479383,5.674431299999999,0.14984341,0.87713224,-0.08949725,-26.099998,-11.759999,-27.119999
1553850471155,0.25379312,5.6504884,4.860378,0.5316342,0.91011894,-0.09010813,-25.92,-11.7,-27.24
1553850471175,1.1827718,4.4078599999999994,5.29853,0.73138714,0.36095113,-0.06261919,-25.619999,-12.599999,-27.66
1553850471195,1.0965778999999998,4.0367475,5.497255,1.0667521999999998,-0.2242578,-0.017415157,-24.96,-13.44,-28.199999
1553850471215,1.0271438,4.113364,4.470111,1.3844021999999998,-0.50831014,0.09498405,-24.72,-13.98,-28.199999
1553850471236,0.54828894,4.9633317,4.558699,1.6660110000000001,-0.5779488,0.11514260000000001,-24.72,-14.34,-26.58
1553850471255,-0.45012367,7.699988,4.532362,1.8425509999999998,-0.58344656,0.11636434,-24.6,-15.12,-25.619999
1553850471275,-1.6041641000000002,14.945064000000002,4.8364353,1.8456054,-0.18088637,0.14996192,-25.56,-15.9,-25.74
1553850471295,-1.812466,16.661758,3.397476,1.0111634,0.50572616,0.39919496,-25.38,-16.44,-24.9
1553850471315,-0.91461295,12.953027,9.502875999999999,-0.33029667,0.8917930000000001,0.326502,-24.779999,-17.279999,-24.42
1553850471335,1.0486923000000001,10.118205,11.382382000000002,-0.61068386,0.35362074,0.25808507,-24.9,-17.4,-24.72
1553850471355,1.5036045,3.5770466,8.578687,-0.6845985,0.17463721,-0.24221356,-24.9,-16.92,-24.779999
1553850471375,-0.5770202,4.644893,7.5228114,-0.36817032,0.3890509,-0.56719387,-24.84,-16.14,-25.26
1553850471396,-0.48843205,13.142175,7.642525,-0.093280956,0.18502192,-0.5616960999999999,-24.18,-15.719999,-25.8
1553850471416,-1.3072741,26.530959999999997,1.8172544999999998,2.3306322,-1.6793387999999998,-0.22449848,-23.519999,-16.68,-25.56
1553850471435,-3.8332339999999996,20.676958,-10.091868,2.195631,-0.28228998,-0.029632462000000002,-23.4,-17.82,-25.5
1553850471456,1.0415094999999999,5.109382599999999,3.5195839999999996,1.0801911,-0.5235818,0.0888754,-24.24,-18.6,-24.9
1553850471475,-1.4269878,1.9273912,2.832427,0.6837396,-1.5357856,-0.5592526,-24.48,-19.56,-24.24
1553850471495,-0.30646718,1.9848539,-0.64166564,0.37403095,-1.2175246000000002,-0.6753170000000001,-24.24,-19.98,-23.58
1553850471515,-0.098165266,3.1676257000000003,-1.9537282,0.4381718,-0.21509482,-0.6667649,-24.9,-19.98,-22.38
1553850471535,0.2681588,4.146884,-1.8244373999999999,0.7943063,0.17280461,-0.8451376,-25.38,-20.4,-21.66
1553850471555,-2.7390504,9.897932,-0.9337671999999999,1.3685194999999999,-0.1839407,-1.3240558999999998,-25.38,-21.66,-20.939999
1553850471575,-3.6464806000000003,16.628239,-1.5562786,1.7887949,-0.09475436,-0.702806,-24.6,-22.56,-20.76
1553850471595,-0.08140534,11.528433,1.5467016000000002,1.8596553,-1.066641,-0.54459184,-23.76,-23.519999,-21.0
1553850471616,-0.11971374,8.142928999999999,0.9864412,0.98184186,-1.4270515,-0.29658055,-24.42,-24.6,-19.5
1553850471635,-0.32562137,8.442213,1.2138973,0.43267402,-1.2828872,-0.2171681,-24.119999,-25.859999,-17.699999
1553850471656,-0.80687064,10.482135000000001,-1.1708003,0.600662,-0.6934023,-0.09743851,-24.6,-26.34,-16.74
1553850471675,0.062251142999999995,10.5803,-0.5458947,1.0380415,0.016423114,0.1731748,-25.439999,-26.099998,-15.299999
1553850471695,1.1708003,9.953,-0.038308397,1.0795803,0.1184376,0.2489221,-25.859999,-26.939999,-14.4
1553850471715,0.9241901,9.962578,1.9992193999999999,0.8804382,-0.57428354,0.25075468,-26.099998,-27.779999,-14.219999
1553850471735,0.28252444,9.57231,0.72546524,0.7063417,-1.0049436,0.19760941,-25.74,-28.199999,-13.44
1553850471755,0.21548474,8.162083,-0.0047885496,0.5432406,-0.6500309,-0.013139101,-25.98,-27.84,-12.48
1553850471775,-0.07422252,7.80773,0.016759925,0.5633991999999999,-0.32810488,-0.25626346,-26.519999,-27.48,-11.639999000000001
1553850471796,-0.19154198,8.178842999999999,0.09337672,0.9293075000000001,-0.43683890000000003,-0.44257736,-26.699999,-27.84,-11.28
1553850471815,-0.25618739999999995,9.093455,-0.23942748,1.1211191,-0.43317372,-0.53909403,-25.68,-28.26,-11.28
1553850471836,-0.27773590000000004,9.8548355,0.72785956,1.0331545,-0.42034554,-0.521379,-25.68,-28.439999,-11.34
1553850471855,-0.35914123,9.771035000000001,0.42378664,0.85294926,-0.48448640000000004,-0.53237456,-26.22,-28.68,-10.92
1553850471875,-0.18435916,9.4095,0.5794145,0.64647686,-0.46554956,-0.61545223,-26.279999,-29.76,-9.48
1553850471895,1.0055954,9.684841,0.58420306,0.45649776,-0.46432784,-0.75106436,-26.16,-30.72,-8.04
1553850471915,1.0079896000000002,11.463788000000001,0.19154198,0.26407522,-0.24319461,-0.7736663,-26.039998999999998,-30.179997999999998,-8.099999
1553850471936,0.84996754,11.897152,0.51955765,0.30500317,-0.11430205,-0.38087997,-25.199999,-30.3,-8.4
1553850471955,1.0271438,9.8237095,0.30646718,0.27018386,-0.022061398,-0.06078659,-24.48,-32.04,-8.28
1553850471975,0.60335726,9.29218,0.5554718000000001,0.14923254,-0.06787629,0.076658085,-24.18,-32.219997,-8.099999
1553850471996,-0.43096948,10.053560000000001,0.9313729,0.07226352400000001,-0.1924928,0.03695185,-24.24,-31.5,-7.74
1553850472015,-0.67279124,10.518049000000001,-0.5027977,-0.01936626,-0.13201714,-0.05773226,-24.3,-31.679997999999998,-7.3799996
1553850472035,-0.5363176,14.068759,-1.063058,-0.34923348,0.21067825,-0.043682362999999995,-24.3,-32.16,-7.44
1553850472055,-0.45491222,14.913938,-0.61293435,-0.78233695,0.13554184,0.29046094,-24.24,-32.52,-7.3799996
1553850472076,-2.176396,15.529266,-0.8451790000000001,-1.1372496,-0.042830817,0.84146136,-23.76,-32.04,-7.5
1553850472095,-2.7701759999999997,11.4997015,-2.4445546,-1.5233165000000002,-0.35253948,1.3802444999999999,-24.24,-31.56,-7.98
1553850472116,-3.2298767999999995,9.390346000000001,-4.647287400000001,-2.1897705000000003,-0.12835194,1.5787758,-24.72,-31.019999,-9.42
1553850472135,-3.0024207,6.938608,-1.9656997,-2.8916545,-0.21387309,1.459657,-25.619999,-30.119999,-10.38
1553850472155,-1.9321798,7.9873009999999995,-0.20590763,-3.2422912,-0.48326465,1.2183652,-26.76,-28.199999,-11.4
1553850472175,-2.0279508,10.228342,-0.28491869999999997,-3.0003886000000004,-0.7117283,0.9544714,-27.42,-26.46,-13.2
1553850472196,-1.8675343999999998,11.435057,1.3551594999999999,-2.7523775,-1.2529548000000001,0.60811085,-28.08,-25.56,-14.099998999999999
1553850472215,-1.063058,12.706416,3.0910087,-2.2667396,-1.746534,0.37414947,-28.74,-23.88,-15.24
1553850472236,0.45012367,12.390372,3.5842294999999997,-1.9191573,-1.1234515,0.33933014,-29.46,-22.56,-15.599998999999999
1553850472255,0.87630457,12.378401,4.537151000000001,-1.7444496999999999,-0.42462158,0.47249877,-30.24,-21.84,-15.66
1553850472275,2.2530127,10.412702000000001,0.90024734,-1.9252658999999999,0.7427419,0.57451326,-31.019999,-20.88,-16.14
1553850472296,2.8946784,9.845258,0.90024734,-2.1818294999999996,2.3169417,0.7101254,-30.84,-20.1,-16.619999
1553850472315,1.4796618000000001,8.652909,3.007209,-2.0364435000000003,2.9326939999999997,0.82069194,-30.3,-19.199999,-18.42
1553850472335,0.39744959999999996,6.237086,3.387899,-1.7200151999999997,2.5954962000000004,0.89277405,-29.4,-17.58,-20.76
1553850472355,0.7039168,5.0136113,4.1804037,-1.321731,2.098252,0.8274115,-28.56,-15.839998999999999,-22.38
1553850472375,0.05985687,5.482889,5.681614,-0.70964396,1.5606904,0.7596054,-27.96,-14.099998999999999,-24.42
1553850472396,-0.23463893,5.6672482,5.8252707,0.054548435,1.1691258,0.7144014,-27.06,-13.44,-26.22
1553850472415,-0.50998056,5.2913475,5.2219133,0.65991586,1.0445093,0.6777495,-26.099998,-13.32,-26.58
1553850472435,-0.23703320000000003,4.410254,4.3815230000000005,1.0618652,0.9705946,0.6569801,-25.859999,-13.08,-27.06
1553850472455,0.6847626,3.3256476000000004,4.122941,1.2469573999999999,0.7537375,0.5488569000000001,-25.56,-13.38,-27.779999
1553850472476,1.1013663999999999,2.5427197999999995,4.1013927,1.4766427,0.20579134,0.31123036,-25.14,-13.5,-27.42
1553850472495,1.1277034,2.7845416000000003,3.4238129,1.6201961,-0.19066021,0.09620578,-25.019999,-13.38,-27.24
1553850472515,0.30646718,3.8356282999999998,3.0335462000000004,1.6476848999999998,-0.6103246,-0.34117374,-25.439999,-14.28,-27.42
1553850472535,-1.3312168,6.60341,2.3942747000000004,1.4864166,-0.5168623,-0.8591873999999999,-25.74,-15.48,-27.0
1553850472556,-4.807704,16.848513,6.780586200000001,1.8682075,0.44952658,-0.99113435,-25.5,-17.039998999999998,-26.519999
1553850472575,-5.810905,20.372885,1.0462981,0.7949170999999999,0.73846585,-0.30268925,-25.74,-18.359999,-25.74
1553850472595,-2.8539755,15.917139,6.696786400000001,-0.97720295,1.6107813999999998,0.09926010000000002,-25.199999,-18.72,-25.08
1553850472616,2.49244,11.674484,14.609865,-0.591747,0.23755634,0.2648046,-23.939999,-19.92,-25.619999
1553850472635,4.537151000000001,4.4389853,9.447808,-0.69803756,-0.4667713,-0.18784656,-23.82,-19.32,-26.58
1553850472656,0.83081335,3.9481592000000005,10.082292,-0.6461140000000001,-0.7251673000000001,-0.50305307,-24.42,-18.359999,-27.96
1553850472675,1.0175668,9.790189999999999,5.4804949999999995,-0.115272105,-1.3598563999999997,-0.4786184,-24.84,-18.24,-27.539998999999998
1553850472695,0.7709564999999999,21.016945,1.8316202000000001,1.7808536,-1.6316913,0.1731748,-24.9,-18.119999,-26.34
1553850472715,-2.4900458,22.977856,-8.849239,2.3898861,0.08361828,0.11025567,-25.26,-18.48,-26.039998999999998
1553850472735,0.9481328000000001,7.297749499999999,-0.38068968,1.9671675,1.4293544,0.38575590000000004,-25.439999,-19.38,-25.439999
1553850472755,-0.3615355,0.54350036,4.721509999999999,1.6989976999999998,-0.3678111,-0.33201078,-25.199999,-20.76,-24.539998999999998
1553850472775,-1.8292258999999997,3.3615617999999996,3.2897336000000004,0.78086716,-1.2535657,-0.5054965,-25.68,-21.66,-23.82
1553850472796,-1.201926,3.2681851,1.1133378,0.6507529000000001,-1.6347456,-0.6227826,-25.92,-22.5,-23.039998999999998
1553850472815,-2.1237217999999998,2.5714512000000003,-2.1404817000000005,0.7393284000000001,-1.0452608,-1.083375,-26.279999,-23.1,-22.199999
1553850472836,-3.7326744,5.3583870000000005,-4.3599744000000005,1.0942411,-0.36109159999999996,-2.1279545,-25.92,-24.06,-20.82
1553850472855,-3.2993107000000004,15.308993,-5.8037220000000005,1.380737,0.8502542,-1.8683368000000002,-25.74,-25.26,-20.16
1553850472875,2.3344178,18.718441000000002,0.7589851,1.3892889,0.39699215,-0.70647115,-25.74,-26.58,-20.039998999999998
1553850472895,1.9369683000000002,11.9953165,4.9585433,0.8248495000000001,-1.2926612,0.07849068,-25.14,-27.96,-19.619999
1553850472916,0.36632404,9.323306,1.9202085,0.36242452,-1.4398796999999999,0.49082473,-25.5,-29.16,-18.96
1553850472935,-1.2091087999999999,9.299363,-0.749408,0.30378145,-0.23097731,0.5787893,-25.92,-29.099998,-18.3
1553850472956,-0.56744313,8.9498,-0.50040346,0.48826274,0.470296,0.29901302,-26.22,-28.32,-17.52
1553850472975,0.38547826,8.56911,-0.34477556,0.6861831,0.50694793,0.17256394,-26.58,-28.74,-16.8
1553850472995,0.47167215,8.76544,0.72546524,0.8334016,0.24855189999999996,0.14018808,-26.76,-29.039998999999998,-17.16
1553850473016,-0.33519846,9.057542,1.2402343999999998,0.7527674,-0.15339743,0.16706614,-27.119999,-28.98,-16.8
1553850473035,-0.30407290000000003,8.305738999999999,1.211503,0.63548124,-0.31833106,0.0974275,-27.18,-29.039998999999998,-16.02
1553850473055,-0.29210153,7.8747697,0.7901106999999999,0.6904591999999999,-0.32199624,-0.055899665,-26.88,-29.519999,-15.599998999999999
1553850473076,-0.69194543,8.473338,-0.31125572,0.8517276,-0.30977893,-0.17074233,-26.939999,-30.06,-15.0
1553850473095,-0.84278476,8.786988000000001,-0.51955765,1.0288786,-0.19127107,-0.31124133,-27.3,-30.24,-15.12
1553850473116,-0.55307746,9.213169,0.2466103,1.1449428999999998,-0.20165578,-0.48411620000000005,-27.3,-30.42,-14.4
1553850473135,-0.3615355,9.624985,0.38068968,1.1272278,-0.27007270000000005,-0.58307636,-27.359999,-30.24,-13.559999
1553850473155,-0.18196489,10.0368,0.5889916000000001,0.92991835,-0.42339987,-0.6875343,-27.66,-31.14,-12.3
1553850473176,0.23942748,10.242707000000001,0.17717634,0.74910223,-0.40568477,-0.716245,-27.24,-32.46,-12.12
1553850473195,1.2402343999999998,10.659311,-0.016759925,0.49376056,-0.23891856,-0.69181037,-26.519999,-33.6,-11.519999499999999
1553850473216,1.6352897,11.593079,0.5243462,0.2854555,-0.08925658,-0.57024825,-25.92,-33.78,-10.32
1553850473235,0.88588166,11.344074,0.09337672,0.17061283,-0.048328605,-0.22755279999999997,-25.68,-34.02,-9.48
1553850473255,0.8643332,9.378374,-0.59378016,0.046607185,0.12943318,-0.043071497,-26.279999,-35.16,-9.12
1553850473276,0.27534159999999996,8.6984005,0.21069619,0.008122675,0.24122153,-0.05956486,-26.099998,-34.62,-8.639999000000001
1553850473295,-0.8667275,9.790189999999999,1.3719195,0.050883245,0.18624365,-0.0852212,-25.74,-33.6,-9.0
1553850473315,-1.2809371,10.297775999999999,0.23463893,0.055770165999999996,-0.022061398,-0.06384092,-25.74,-34.14,-9.66
1553850473335,-1.6137413,12.440652,0.35674694,-0.04135741,0.13187665,0.0094629135,-25.14,-34.32,-9.9
1553850473355,-0.038308397,13.719194,-1.7358493000000002,-0.5300496,0.053075027000000004,0.0888754,-25.019999,-35.16,-9.42
1553850473375,-0.22985038,15.965024,-1.6424724999999998,-1.03157,0.234502,0.48715955,-25.56,-35.579997999999996,-9.84
1553850473396,-1.4533247999999999,13.403151000000001,-0.4956149,-1.3742653999999999,0.08850521,1.1786590000000001,-25.619999,-34.8,-10.62
1553850473415,-2.2075214,10.565935000000001,-3.4525442,-1.9057181,-0.0049571716,1.4352223999999998,-25.74,-33.78,-11.16
1553850473435,-1.9968252,8.051947,-3.0167862999999997,-2.467714,0.19601749,1.4431638,-26.64,-32.7,-11.46
1553850473456,-1.9537282,7.029590600000001,-2.351178,-3.0602534,0.18318933,1.2763975,-28.14,-31.98,-12.84
1553850473475,-1.5897985000000001,8.145323,-0.0047885496,-3.2221330000000004,-0.031224377,1.1163507,-29.039998999999998,-29.88,-15.599998999999999
1553850473496,-2.638491,10.26665,1.5897985000000001,-2.9826736,-0.6964566,0.9227065000000001,-29.4,-27.599998,-17.52
1553850473515,-3.2298767999999995,11.942642999999999,1.620924,-2.6265389999999997,-1.2773895,0.7278405,-30.24,-26.279999,-18.84
1553850473536,-2.4158232,13.170906,1.6664151999999999,-2.1250188,-1.5773244,0.48899212,-30.84,-24.96,-18.84
1553850473555,-0.27534159999999996,12.639377,-0.21787901,-1.9710807000000001,-0.24075116,0.52014625,-31.439999,-23.82,-19.619999
1553850473575,0.7972935,11.511673,1.9968252,-2.0254478,0.7402984,0.52381146,-31.56,-22.38,-20.82
1553850473596,2.1117504,9.194015499999999,2.3320236,-2.082869,1.5515275,0.58489794,-31.92,-20.88,-21.6
1553850473615,2.3559662999999995,8.200391,3.4788813999999997,-2.0254478,2.2259226,0.72478616,-32.579997999999996,-19.38,-22.8
1553850473636,1.3168511,7.6473135999999995,4.7622127999999995,-1.7395627,2.2900633999999997,0.8469591999999999,-31.439999,-17.94,-24.24
1553850473655,0.43096948,7.101419,4.573065,-1.2545358,2.1123017999999996,0.897661,-30.119999,-16.92,-26.039998999999998
1553850473676,0.67757976,6.778192,4.5970078,-0.8263193000000001,1.9064401000000002,0.9037697,-29.4,-15.42,-27.48
1553850473695,0.019154198,6.715941,4.8627720000000005,-0.34068137,1.6639266,0.81275076,-28.68,-13.679998999999999,-29.039998999999998
1553850473716,-0.42139238,5.9856873,5.106987999999999,0.22742329999999997,1.4275218,0.75166416,-28.439999,-12.78,-30.24
1553850473735,-0.679974,5.0231886,4.965726,0.7613194999999999,1.2674751,0.73822516,-27.24,-12.3,-30.84
1553850473756,0.26337022,3.6440864,3.7949257000000003,1.1534950000000002,1.1654607,0.6691974,-26.099998,-12.66,-31.619999
1553850473775,0.9074302,2.3535721,3.7757714,1.407615,0.9284449,0.42301866,-25.5,-13.08,-32.399998
1553850473796,1.1300976999999999,2.2410412,3.8859081,1.6269156,0.47396117,0.12858163,-24.72,-13.38,-33.0
1553850473815,0.83081335,3.0742488,3.469304,1.7515321,-0.25541192,-0.19395521,-24.84,-14.58,-32.7
1553850473836,-1.1947431999999998,5.6768255,2.2075214,1.7631385,-0.79114074,-0.6447736999999999,-25.019999,-15.48,-32.34
1553850473855,-5.2147307000000005,17.001745,6.4669360000000005,1.5719378000000002,-0.13751492,-0.6777605,-24.84,-16.619999,-31.619999
1553850473875,-6.349616999999999,19.917973,-0.05985687,1.022159,0.47273943,-0.024134673,-25.439999,-18.6,-30.539998999999998
1553850473896,-2.6145482,11.870814,2.928198,-0.9747594999999999,1.9265988,0.082155876,-25.38,-20.1,-30.539998999999998
1553850473915,0.8547561,9.562733999999999,14.698453,-0.9472706,0.7971089,-0.14447513,-24.6,-20.34,-30.599998
1553850473935,2.638491,9.086273,13.568356,-0.67177033,-0.41729120000000003,-0.2819198,-23.939999,-20.039998999999998,-31.74
1553850473956,1.9273912,12.622617,11.195628999999998,-0.31013814,-1.4105581,-0.26359385,-23.4,-19.08,-32.7
1553850473975,3.0718546,17.253145,2.4876516,0.033779013999999996,-1.7312623,0.3875885,-23.88,-18.24,-32.7
1553850473995,3.476487,17.952272,-3.816474,0.9189226999999999,-0.8791053,1.2256956,-24.72,-18.18,-32.34
1553850474015,2.667222,11.856449000000001,-5.856396,2.0245888,1.0713873999999999,1.1517808,-25.619999,-18.18,-31.32
1553850474036,1.6544438999999997,4.1181526,1.4102278999999998,2.005652,1.3743765,0.41080138,-26.4,-18.359999,-31.08
1553850474055,-1.1205206,3.1173458,3.4262072999999997,1.4656471000000002,0.59063643,-0.31490654,-25.859999,-18.84,-30.779999
1553850474076,-3.007209,3.6440864,2.5331428,1.0294894,0.13737443,-0.7651142,-25.32,-20.039998999999998,-30.06
1553850474095,-4.0678730000000005,1.8651401,-0.46927786,0.51758426,0.037803393,-1.2977887,-25.5,-21.779999,-29.88
1553850474115,-3.4645156999999998,1.6855695,-1.5514901,0.37586355,-0.12774108,-1.8610064999999998,-25.38,-22.199999,-29.88
1553850474136,-2.2458298,10.400730000000001,-3.9888617999999996,0.722835,0.6590533000000001,-2.4248352000000004,-24.96,-23.4,-29.099998
1553850474155,-0.46927786,19.020119,-2.3368123,1.1528841,1.1801214,-1.3564317,-23.58,-24.0,-29.34
1553850474175,1.350371,17.063997,2.3966691000000004,1.325759,0.23877805,-0.121262245,-22.14,-25.5,-29.82
1553850474196,0.43096948,10.151725,2.9904492,0.8285146999999999,-0.7715930999999999,0.46577927,-21.06,-27.0,-29.099998
1553850474215,-2.3344178,9.371192,-0.69194543,0.24025147,-0.18088637,0.6056674,-20.4,-27.9,-28.32
1553850474236,-2.5666625,9.124581,-1.0774237,-0.0016511687,0.8184892,0.42057523,-20.76,-28.08,-27.84
1553850474255,-0.7853220999999999,8.739103,0.44294083,0.28484464,0.87835395,0.14385328,-21.6,-28.14,-28.5
1553850474275,0.0047885496,8.55235,1.23784,0.60860324,0.45013744,0.04978002,-21.66,-28.32,-29.22
1553850474296,0.07901107,9.227535000000001,1.0750294,0.6837396,0.11110722,0.15423797,-21.539998999999998,-28.38,-28.14
1553850474315,-0.11253092,9.196409,1.2761483999999998,0.62204224,-0.123465024,0.26846978,-21.72,-28.92,-27.119999
1553850474336,0.10774237,8.296163,1.2426286,0.5511819,-0.2578554,0.31856072,-21.539998999999998,-28.8,-27.599998
1553850474356,-0.05985687,8.126168,0.60335726,0.6000511,-0.18210809,0.24403517,-21.24,-29.4,-27.18
1553850474375,-0.090982445,8.442213,-0.16041641,0.7649847,0.01153619,0.12674904,-21.539998999999998,-30.0,-26.46
1553850474395,-0.019154198,8.8324795,-0.14365649,0.89632076,0.27115393,-0.12492744,-22.08,-29.58,-26.58
1553850474415,0.34477556,9.014444000000001,0.6464542,0.9781767,0.31513622,-0.339952,-22.5,-29.88,-26.4
1553850474435,0.57462597,9.153313,1.1037607,0.99833524,0.2326694,-0.5238224,-22.619999,-30.3,-25.859999
1553850474456,0.22266756,9.138947,1.2067145000000001,1.0209371999999999,0.15264605,-0.64538467,-22.38,-31.26,-25.38
1553850474475,-0.3423813,9.299363,0.7302538000000001,0.99955696,0.14898087,-0.7583946999999999,-21.42,-32.219997,-24.9
1553850474495,-0.55786604,9.584282,0.6344828,0.85783625,0.18685453,-0.77916414,-20.64,-32.52,-24.42
1553850474515,-0.6153286,10.290593,0.8739103000000001,0.69901127,0.08545088,-0.6777605,-20.4,-33.66,-24.06
1553850474536,0.11013664,10.388759,0.19633053,0.4803215,-0.09292177,-0.45784899999999995,-20.279999,-34.5,-23.46
1553850474555,1.6017698,10.178061999999999,-0.9194015,0.23292108,-0.075206675,-0.29474798,-20.16,-35.04,-22.439999
1553850474576,1.8555629,9.845258,-0.51716334,0.11930015,0.07934223,-0.10537975,-19.74,-35.52,-22.199999
1553850474595,0.13886794,10.371999,-0.0047885496,0.21703859,0.24183238,0.029621465,-20.039998999999998,-35.76,-22.02
1553850474615,-1.3048798000000001,12.071933999999999,0.89067024,0.2872881,0.36034024,0.1310251,-20.22,-35.46,-21.539998999999998
1553850474636,-1.647261,13.044008999999999,-0.9864412,0.17244542,0.19907182,0.25747420000000004,-19.32,-35.46,-22.38
1553850474655,-0.39266106,14.5117,-2.9114382,-0.28448179999999995,0.2589366,0.326502,-18.6,-35.76,-22.92
1553850474675,-1.0870007,15.66574,-1.4150163999999998,-0.7731739000000001,0.26748875,0.57145894,-19.74,-35.219997,-22.5
1553850474695,-1.9752767,14.250724,-0.41660379999999997,-0.97903556,-0.045885142000000004,1.0772553999999999,-20.4,-34.739998,-22.8
1553850474715,-1.960911,10.932259,-1.6783867,-1.348609,-0.14545618,1.2983886,-19.92,-34.079997999999996,-23.82
1553850474736,-1.6328955,8.681641,-2.8515813,-1.9979588,-0.110025994,1.1389527,-21.3,-33.6,-25.439999
1553850474755,-1.8507744,8.085466,-1.8292258999999997,-2.5917196,-0.1204107,0.9905125,-22.32,-32.46,-26.519999
1553850474776,-2.0686533,6.8763570000000005,-0.83081335,-2.971678,-0.29572904,0.85917646,-21.66,-30.24,-26.64
1553850474796,-2.2147042999999997,7.989694999999999,1.2282629999999999,-3.0681946,-0.5779488,0.78587264,-22.08,-27.779999,-27.119999
1553850474815,-2.9593236000000003,10.352844000000001,1.7382435,-2.7939162,-1.1839271999999998,0.74494463,-23.64,-25.5,-28.32
1553850474835,-3.1795970000000002,11.408719,1.2737542,-2.5294116,-1.3983408000000002,0.56962633,-23.939999,-23.4,-29.82
1553850474855,-2.4565259999999998,11.729552,0.64166564,-2.1848836,-0.82412744,0.2788545,-24.48,-21.66,-30.3
1553850474875,-0.17957062,11.028029,1.0151725,-1.9551983,0.43242234,0.12735991,-26.22,-19.98,-30.779999
1553850474896,1.5562786,9.835681,3.0287576,-1.8049254000000001,1.0457311,0.18539211,-26.46,-18.3,-31.32
1553850474915,2.4206119,8.861211,3.7087317000000004,-1.7432281000000003,1.3621593,0.35154745,-26.22,-16.619999,-31.74
1553850474936,1.5467016000000002,8.810931,4.5850363,-1.7291781000000002,1.4513456,0.51709193,-25.199999,-15.12,-32.94
1553850474955,0.46927786,8.626572999999999,4.3073006,-1.4750581,1.5332016000000002,0.62888026,-24.0,-13.44,-35.16
1553850474975,-0.062251142999999995,8.109408,3.9744961,-1.0999868999999998,1.6431572,0.7260079,-23.4,-12.059999000000001,-36.239998
1553850474996,-0.20830189999999998,7.8197017,4.5036309999999995,-0.7371329000000001,1.4806671,0.7467773,-21.96,-10.679999,-37.32
1553850475015,-0.7326481,6.9912825,5.1237483,-0.27287534,1.0836047,0.7803749,-21.06,-8.7,-38.399998
1553850475035,-1.3719195,6.064698,5.461341,0.3483746,0.6248449,0.88238937,-20.4,-8.28,-38.579997999999996
1553850475055,-0.7589851,4.975303,4.5898247,0.7979714,0.36767063,0.942865,-19.26,-8.58,-39.0
1553850475076,0.14605077,3.8978794000000003,3.6608462,1.0838563,0.36339456,0.9037697,-19.02,-8.7,-39.42
1553850475095,1.2761483999999998,2.5283542000000003,3.2921278,1.1638798000000001,0.39332697,0.57634586,-19.32,-8.94,-39.78
1553850475116,1.4126221,3.0550947,3.6919718,1.2298532,0.12515713,0.22937441,-19.199999,-9.78,-39.84
1553850475135,0.86193895,4.8843207,3.8452053,1.2494009,-0.11552378,-0.11698619,-19.5,-10.32,-39.3
1553850475156,-0.2681588,7.898712599999999,3.4884584000000003,1.3752391000000002,-0.08192619999999999,-0.38332343,-19.5,-10.98,-38.52
1553850475175,-1.2162915,12.49572,4.8220696,1.3966193999999998,0.25527143,-0.4437991,-19.439999,-12.179999,-38.28
1553850475195,-1.0822121999999998,14.509305,3.849994,1.0392630999999999,0.68532056,-0.2049508,-19.26,-13.32,-37.5
1553850475216,0.4932206,12.385584,5.4781010000000006,-0.18063469,0.93455356,-0.0155825615,-18.3,-13.92,-37.44
1553850475235,0.66321415,11.25788,10.115811,-0.7554589,0.36095113,-0.022912946,-17.82,-14.28,-38.16
1553850475255,1.8340145,10.319324499999999,10.158908,-0.5337148,0.2833712,0.16950962,-17.76,-14.16,-38.34
1553850475275,3.15326,7.625765299999999,8.073495,-0.40604398,0.40248996,0.18233779,-17.16,-13.74,-39.18
1553850475295,1.2833313,5.956956,6.948185400000001,-0.31685764,0.72136164,0.0064085876000000005,-16.619999,-13.5,-39.42
1553850475315,0.39266106,10.379180999999999,8.3129225,0.19443657,0.63095355,0.12430558,-16.74,-13.139999,-39.36
1553850475335,2.4565259999999998,18.974628,5.4182440000000005,0.9525203000000001,-0.46921474,0.47433135,-16.619999,-12.9,-39.78
1553850475355,1.2976969999999999,20.545273,-1.8316202000000001,2.2438892999999998,-0.5138079000000001,0.89338493,-16.68,-13.559999,-39.059998
1553850475376,0.9026415999999999,13.925101999999999,-4.5108137,2.527942,0.59430164,1.0796988,-16.74,-14.7,-38.76
1553850475395,-1.8459859,6.562707400000001,0.70631105,1.3355328000000002,0.30780584,0.49632250000000006,-16.859999,-15.48,-37.92
1553850475415,-4.6544704,2.4373717,2.4972286,0.546295,-0.3665894,-0.23121798,-16.74,-16.68,-37.559998
1553850475436,-3.529161,0.85236186,0.26337022,-0.010814147,-0.33421353,-0.9654780000000001,-16.56,-18.42,-37.5
1553850475455,-2.1740015,-0.011971374,-2.9210152999999996,0.025837766,-0.1466779,-1.6600319,-16.5,-19.02,-36.54
1553850475476,-2.0064023,1.8842942999999999,-3.7685885000000003,0.24880359,0.11599415,-2.3808527,-16.38,-18.84,-36.239998
1553850475495,-2.4876516,10.831699,-0.35435268,0.9439681999999999,-0.0067897669999999995,-2.4920304,-15.42,-19.02,-35.579997999999996
1553850475515,-0.55307746,23.755995000000002,0.2657645,1.7020520000000001,-0.0031245756,-1.0167906999999998,-14.28,-20.16,-35.399998
1553850475535,1.0439038,14.485363000000001,0.59378016,1.8700398999999999,-1.3409194,0.06444079,-14.519999499999999,-22.08,-35.16
1553850475555,0.71588814,8.231517,2.5331428,1.0099417,-1.2834982,0.5103724000000001,-15.12,-24.0,-34.14
1553850475575,-0.35435268,9.380769,0.85236186,0.71306115,-0.7068413,0.73150563,-15.66,-24.84,-33.239998
1553850475596,-0.48364350000000006,8.707977,-1.6233183,0.7546,0.18196759,0.51587015,-16.98,-24.96,-32.219997
1553850475615,-0.20351335,8.2578535,-1.2474172,0.86333406,0.47762638,0.20005287,-18.24,-24.84,-31.8
1553850475635,-0.31365,8.669669,0.028731298,0.8584470999999999,0.32674265,-0.024134673,-18.119999,-25.68,-32.1
1553850475657,-0.18675344,9.909904,1.4700848,0.80896705,-0.23952942,-0.035741117,-17.76,-26.88,-32.1
1553850475675,0.23942748,10.405519,1.1253091,0.7765911,-0.7483801999999999,-0.02230208,-17.46,-26.519999,-31.32
1553850475695,-0.3328042,9.541185,0.31843856,0.6849614,-0.8448969000000001,0.07421463,-17.699999,-26.88,-30.96
1553850475716,-0.15323359,8.344047999999999,-0.11013664,0.7271111,-0.7410498000000001,0.043671365999999996,-18.359999,-27.9,-30.359999
1553850475735,-0.31604427,8.830086,-0.8547561,0.87555134,-0.48570812,-0.14325339999999998,-18.779999,-28.199999,-29.34
1553850475755,-0.39984390000000003,9.696813,-0.5961744000000001,0.9366378000000001,-0.22181433,-0.30757615,-18.84,-28.32,-28.859999
1553850475776,0.007182824399999999,10.065532000000001,0.28252444,0.90853804,-0.26579663,-0.37416047,-18.72,-28.56,-27.96
1553850475795,0.20830189999999998,10.194822,0.35674694,0.85722536,-0.42339987,-0.40959063,-20.039998999999998,-29.519999,-27.0
1553850475815,0.0047885496,10.240314,0.057462595,0.7814781,-0.38186103,-0.44624254,-21.24,-30.179997999999998,-26.519999
1553850475835,-0.57223165,10.034406,-0.34477556,0.7411609,-0.4099608,-0.44318822,-20.039998999999998,-31.019999,-25.74
1553850475855,-1.0893950000000001,9.500483000000001,0.11013664,0.722835,-0.49120590000000003,-0.48411620000000005,-18.96,-31.92,-25.74
1553850475875,-0.80208206,9.306546,0.23942748,0.7283328,-0.66774595,-0.5775786,-19.68,-32.34,-25.439999
1553850475895,0.18435916,9.431047999999999,0.8092649000000001,0.66602457,-0.8003037,-0.56352866,-20.16,-33.42,-24.84
1553850475916,0.5147691,9.634561999999999,0.9768641,0.5982185,-0.98417413,-0.4822835999999999,-19.619999,-34.14,-24.3
1553850475935,0.57462597,9.957788,0.409421,0.50048006,-0.9572961,-0.3894321,-19.8,-34.44,-23.279999
1553850475955,0.9217958,10.190033999999999,0.6249057,0.44000439999999996,-0.83267957,-0.37416047,-19.92,-34.68,-22.56
1553850475976,2.0423164000000003,10.518049000000001,-1.9968252,0.29828367,-0.66713506,-0.48900312,-19.74,-34.559998,-21.48
1553850475995,1.9992193999999999,13.977777,-2.5211713,0.042331126,0.083007425,-0.50732905,-20.46,-34.8,-20.699999
1553850476015,-0.57223165,14.286636999999999,-2.7869357999999997,-0.46224356,0.43853100000000006,0.03267579,-20.88,-35.1,-20.46
1553850476036,-3.4142358,13.558778,-1.2905141000000002,-0.6760464,0.14348307,0.79075956,-20.4,-34.98,-20.64
1553850476055,-4.309695,12.948238,-2.0279508,-1.226436,-0.27129441,0.87750244,-19.98,-34.86,-21.6
1553850476075,-5.593026,13.211607999999998,-2.8779182,-1.7383411,-0.2877878,0.73639256,-19.92,-34.02,-22.26
1553850476095,-4.0942099999999995,9.519637,-4.8053099999999995,-2.2679612999999996,-0.29328555,0.7064600999999999,-20.939999,-32.7,-22.92
1553850476115,-2.779753,7.482108599999999,-0.84278476,-3.0034428,-0.56206626,0.72234267,-21.84,-30.96,-24.18
1553850476135,-3.371139,9.596252999999999,3.9601305,-3.1854806,-1.6121436000000002,0.7803749,-22.32,-28.98,-25.199999
1553850476155,-4.7262983,12.44544,4.541939299999999,-2.6442542,-2.9780382999999997,1.0314404000000001,-22.8,-27.24,-26.099998
1553850476175,-4.8412237000000005,13.879610999999999,1.5778271000000001,-2.3492062000000002,-3.033627,1.2177544,-24.119999,-24.779999,-26.519999
1553850476195,-4.419831299999999,12.933872000000001,0.58420306,-2.0089543,-2.6500037,1.0864184,-26.939999,-22.74,-26.46
1553850476215,-2.569057,10.958596,-2.0064023,-1.7530018,-1.2346289,0.77182275,-29.099998,-20.939999,-25.619999
1553850476235,0.6105401,8.408693,-0.8786988000000001,-2.0095650000000003,0.09155954,0.47738567,-30.24,-18.539998999999998,-25.38
1553850476255,1.5419129999999999,6.407079,-0.39266106,-2.2978935000000003,1.1819540000000002,0.0112955095,-30.779999,-17.4,-26.279999
1553850476276,2.1668186,5.9449844,3.605778,-2.1073036,1.8203082,-0.3100196,-30.539998999999998,-16.44,-27.24
1553850476295,2.3152637,7.075082000000001,3.938582,-1.9063290000000002,1.6382704,-0.24099183,-29.82,-15.66,-28.38
1553850476315,1.132492,8.2578535,4.896292,-1.7853776999999997,1.2228819,0.14812931,-28.859999,-15.059999,-29.519999
1553850476336,-0.019154198,8.059128999999999,5.9617443,-1.3131788,0.5478759,0.7217318,-27.9,-13.44,-31.26
1553850476355,-0.4189981,6.6273527,5.310501599999999,-0.86663634,0.24916276,1.0222775,-26.34,-11.82,-32.219997
1553850476375,-0.38787252,5.5810547,4.8531949999999995,-0.39138320000000004,0.43975273,1.1291790000000002,-25.8,-10.86,-31.92
1553850476396,-0.14365649,4.9633317,5.602603,0.10036333,0.6034646,1.0827532,-26.16,-9.66,-32.16
1553850476415,-0.34716985,4.1971636,4.0391417,0.43450662,0.6614968000000001,0.93064773,-26.039998999999998,-9.179999,-32.94
1553850476436,-0.026337024,3.7446458,5.1261425,0.55362535,0.5368803000000001,0.68080384,-26.039998999999998,-8.88,-33.3
1553850476455,1.2234744,3.7111259,4.7789725999999995,0.8303473,0.13493097,0.5464135,-26.099998,-8.639999000000001,-33.66
1553850476475,2.3966691000000004,3.6345089999999995,3.921822,1.1834273000000002,-0.21753828,0.4193535,-26.099998,-9.059999000000001,-34.02
1553850476496,2.4900458,4.0391417,3.5866237,1.4668689,-0.12468676,0.2489221,-26.039998999999998,-9.84,-33.42
1553850476515,2.2721667,5.774991,3.407053,1.6525718999999996,0.14348307,-0.049791015999999994,-26.22,-10.5,-32.64
1553850476535,0.4070267,9.378374,3.6656345999999997,1.3306459,0.33957082,-0.45907074,-25.98,-11.219999000000001,-31.859999
1553850476556,-2.1883671000000002,14.470997,6.864386,0.9073163000000001,0.5704779000000001,-0.6282804,-26.039998999999998,-12.78,-31.859999
1553850476575,-4.051113,15.917139,8.05434,-0.031583566,0.7250268,-0.36805183,-26.46,-13.74,-32.219997
1553850476596,-1.6257126,12.471778,10.010463,-0.78661305,1.0866591,-0.16280109,-25.14,-13.5,-32.28
1553850476615,0.75180227,8.605023,9.340066,-0.87152326,1.0384007,-0.036962844,-23.46,-13.62,-33.3
1553850476635,1.2617828000000002,8.887547999999999,7.6904106,-0.6448923000000001,0.91989285,-0.029021597000000003,-22.98,-13.5,-33.899998
1553850476655,-0.48843205,20.119091,9.945818,0.36486799999999997,0.5038935999999999,0.32222593,-22.74,-13.019999499999999,-34.2
1553850476676,0.5458947,26.875734,-0.14365649,1.4632038,-1.2608961,0.85917646,-22.199999,-12.78,-34.98
1553850476695,3.641692,12.308966999999999,-3.9697077000000003,1.6898346999999998,-0.7178369000000001,1.2055371000000001,-22.74,-13.259998999999999,-34.2
1553850476716,2.0973847,-0.9241901,1.9106313000000001,1.452819,-0.84978384,0.21349192,-24.3,-13.92,-32.94
1553850476735,-3.8045027,0.61293435,-0.44294083,0.9861179,-0.7117283,-0.7761098000000001,-25.199999,-14.28,-32.399998
1553850476755,-2.4708917,2.6935592,-2.3416007000000003,0.722835,0.5857495,-0.95814764,-25.439999,-15.059999,-31.26
1553850476775,-1.3048798000000001,2.762993,-1.4365649,0.64647686,1.0585592,-1.2641912,-24.96,-16.14,-31.08
1553850476795,-0.5650489000000001,4.127730000000001,0.05985687,1.003833,0.5460433000000001,-1.8078612,-24.72,-16.74,-31.439999
1553850476816,-0.5123747999999999,8.097438,1.5706443,1.1687666,-0.11674552,-2.3674138,-24.0,-17.699999,-31.199999
1553850476837,-3.1221343999999998,18.167757,-0.9074302,1.7674146000000002,-0.70317614,-1.5965018,-22.5,-19.92,-30.599998
1553850476855,-0.23703320000000003,13.484556,-4.95136,2.141875,-0.20898616,-0.8591873999999999,-21.6,-21.779999,-29.82
1553850476876,-0.94095,10.364816000000001,-1.7286664,1.035598,0.6578316,-0.112099275,-21.0,-23.76,-29.039998999999998
1553850476895,-0.80687064,11.040001,4.113364,0.52186036,-0.01412015,0.2965696,-20.699999,-25.199999,-28.92
1553850476916,-1.5514901,11.083098,0.73743665,0.40213078,-0.19615799,0.5348069999999999,-20.76,-25.56,-28.5
1553850476935,-0.93616146,9.3280945,-0.47406640000000005,0.2964511,0.22106297,0.5109832999999999,-20.939999,-25.859999,-28.019999
1553850476955,-0.6440599,8.6433325,0.5794145,0.43572834,0.21861951,0.40896878,-21.3,-25.68,-28.32
1553850476975,-0.48603779999999996,9.2419,0.5818088,0.55362535,-0.08864571,0.28679574,-21.6,-25.08,-28.38
1553850476995,-0.21787901,9.474146000000001,0.7326481,0.56095576,-0.29817247,0.17745085,-21.42,-25.14,-28.199999
1553850477015,-0.031125572,9.093455,0.30167863,0.6000511,-0.32932663,0.06749511,-21.6,-26.279999,-28.199999
1553850477035,-0.14844504,8.245882,-0.11253092,0.6440334,-0.26762924,-0.039406307,-22.32,-26.939999,-27.72
1553850477056,-0.50758624,8.571504,-1.1348863,0.7161155,-0.08925658,-0.14630772,-22.38,-26.82,-27.119999
1553850477076,-0.46209505,9.033599,-0.30167863,0.9164793,0.08361828,-0.22449848,-22.92,-27.42,-26.58
1553850477095,-0.60335726,9.141341,0.6177229000000001,0.9855071,-0.037943892,-0.32956728,-22.859999,-27.599998,-25.92
1553850477116,-0.86193895,9.079089999999999,0.8236305,0.97878754,-0.1466779,-0.43402526,-22.56,-27.779999,-25.92
1553850477135,-1.201926,8.870789,0.8786988000000001,0.7961389,-0.43378457,-0.81398344,-21.66,-28.74,-24.48
1553850477156,-0.19154198,9.759064,0.67757976,0.5682861,-0.39102402,-0.93921083,-21.9,-29.039998999999998,-23.279999
1553850477175,0.67757976,10.822123,0.8786988000000001,0.4907062,-0.38247190000000003,-0.8634635,-21.96,-29.76,-23.1
1553850477196,0.92658436,11.478153,0.4070267,0.49192795,-0.29450729999999997,-0.60323495,-22.199999,-30.9,-22.98
1553850477215,1.3096683,10.673677,-0.679974,0.3844157,-0.12102157,-0.2525983,-21.84,-31.74,-22.02
1553850477236,1.7047237000000002,9.502875999999999,-0.66321415,0.24025147,0.10866377,-0.09743851,-20.88,-32.16,-21.96
1553850477255,1.2905141000000002,9.917086999999999,0.87151605,0.16878022,0.29192334,-0.08155601,-20.46,-32.28,-21.48
1553850477275,0.41420954,11.6649065,1.647261,0.14006956,0.41837242,-0.00947391,-20.52,-32.219997,-21.24
1553850477296,-0.076616794,12.948238,0.043096945,-0.024864048,0.39393783,0.13163595,-20.4,-32.34,-21.779999
1553850477315,-0.20830189999999998,13.697645999999999,-1.4940275,-0.39565924,0.5148891999999999,0.31978247,-20.58,-32.34,-22.32
1553850477335,-0.5865973000000001,13.917919,-2.0614705,-0.8788536,0.6712706,0.54335916,-20.4,-32.04,-22.439999
1553850477355,-2.2937152000000003,13.163723000000001,-0.7805335999999999,-1.2704183,0.46540907,0.9593584000000001,-19.619999,-31.5,-22.439999
1553850477375,-2.5546912999999996,10.168485,-2.8515813,-1.9142703,0.3175797,1.1609439,-20.039998999999998,-30.24,-23.519999
1553850477395,-2.0064023,7.7526617,-3.7254915,-2.4768772,0.5594823,1.1285678999999997,-21.06,-28.8,-25.019999
1553850477415,-1.9297855,6.399896599999999,-0.73743665,-3.0969052,0.6926509,0.9947886,-21.359999,-27.42,-26.46
1553850477435,-2.1404817000000005,8.425453,2.1716073,-3.1653222999999997,-0.10269561,0.9080457000000001,-21.24,-25.5,-28.08
1553850477456,-3.0527002999999997,10.632975,2.7175019,-2.862333,-0.812521,0.8891089,-21.42,-23.22,-29.4
1553850477475,-3.9529476000000003,12.94345,1.6448668000000002,-2.3107216,-1.1961445,0.8268005999999999,-21.779999,-20.88,-30.24
1553850477496,-2.988055,13.005701,0.88588166,-2.1097472,-0.89987475,0.7742661999999999,-22.199999,-18.18,-30.599998
1553850477515,-1.3024855,11.557164,1.2330515,-1.8024818999999999,-0.42584333,0.5513004,-23.699999,-16.32,-31.26
1553850477536,1.2833313,10.525232,0.92658436,-1.8470751,0.5191652,0.46272492,-24.3,-15.78,-31.619999
1553850477556,2.49244,9.203592,1.1899546,-1.8452423999999998,1.6425464,0.47066617,-23.699999,-14.28,-32.1
1553850477575,2.6073654,8.260247999999999,1.8914771000000001,-1.8476859,2.6688,0.58795226,-22.5,-11.88,-32.94
1553850477596,1.2809371,8.660092,4.494054,-1.8146991999999997,2.7164476000000004,0.7962573000000001,-21.24,-10.139999000000001,-34.2
1553850477615,0.031125572,8.085466,5.334444,-1.4768908,1.9730245,1.0143362,-20.039998999999998,-9.059999000000001,-35.7
1553850477636,-0.32562137,7.484503299999999,5.219519,-1.0108005,1.576573,1.1578895,-18.119999,-7.98,-37.02
1553850477656,-0.89067024,7.589851400000001,4.611373400000001,-0.5367691,1.4238567,1.2263066,-16.8,-6.2999997,-38.1
1553850477675,-1.3479767,7.091842,4.5634879999999995,-0.015090204,1.4183589,1.2208086999999999,-15.9,-5.46,-38.76
1553850477696,-1.1013663999999999,5.4541580000000005,4.5946136,0.5120865,1.3792634,1.2403563,-14.94,-5.46,-39.3
1553850477716,-0.41660379999999997,4.0535073,4.3791285,0.8822708,1.1850083,1.1499483999999998,-13.92,-5.04,-39.66
1553850477735,0.6057515,2.8994668,3.955342,1.1412777,0.8832409,0.9153761,-12.96,-4.8599997,-39.66
1553850477755,0.7877164000000001,2.7989072999999998,3.921822,1.4955796000000001,0.5839169,0.6569801,-12.84,-5.58,-39.3
1553850477775,1.2593886,3.275368,3.955342,1.7466451,0.030473012,0.2696915,-12.12,-6.18,-39.0
1553850477795,-0.05506832,5.7462597,2.4517374,1.7814645,-0.38247190000000003,-0.2770329,-10.86,-6.3599997,-39.239998
1553850477815,-1.175589,10.575512,2.056682,1.5536116000000002,-0.14056925,-0.77122283,-11.099999,-8.099999,-39.0
1553850477836,-5.698374299999999,19.412779999999998,6.3232800000000005,1.5682725,0.7445745,-0.8115399999999999,-11.219999000000001,-10.5,-38.399998
1553850477855,-1.6951466,13.003306,0.50758624,0.03072469,1.4153045,-0.2770329,-11.04,-12.12,-38.52
1553850477875,-0.70870537,10.077502,9.811738,-1.3290614,1.5826817,-0.18234877,-10.32,-12.48,-38.52
1553850477896,2.4349775,10.482135000000001,13.4270935,-0.9918636999999999,0.42997888,-0.05284534,-9.12,-12.0,-38.76
1553850477915,5.1021996,7.0152254,9.543579,-0.8147128,-0.6323158,0.14751846,-8.28,-11.219999000000001,-38.76
1553850477935,3.407053,3.8954852,10.700014,-0.333351,-0.6078812,0.20066375,-7.8599997,-10.139999000000001,-38.82
1553850477956,1.6783867,12.593885,4.908263,0.90487283,-1.1271166000000001,0.64170843,-8.099999,-10.139999000000001,-39.0
1553850477975,2.6145482,32.40651,-1.4485363000000002,2.3043652000000003,-0.28412259999999995,1.3503121,-9.599999,-10.44,-38.04
1553850478001,1.1013663999999999,13.599480999999999,-8.370385,2.2060158,2.119632,1.2531846000000002,-10.32,-11.099999,-37.92
1553850478015,0.9864412,1.2522057,2.8683412,1.3165959999999999,1.395146,0.46455753,-9.24,-12.96,-38.1
1553850478035,-2.4493432,0.9864412,3.7925312999999994,0.6733549,-0.45211053,-0.3698844,-8.58,-14.4,-37.739998
1553850478055,-3.9074564,3.3064934999999998,-0.12450229,0.10463938,0.061016272999999996,-0.8090965,-8.7,-14.82,-38.34
1553850478075,-3.6584517999999995,0.9624985,-2.5570855,0.18038668,0.8862952,-1.2690780000000002,-8.4,-15.059999,-38.76
1553850478095,-2.9832664,1.5562786,-2.4469488,0.5579014,0.57292134,-1.9227039000000001,-7.44,-15.179998999999999,-38.7
1553850478116,-3.3208592000000006,8.382356,-2.3846977000000003,0.89143384,0.33529478,-2.2372994,-6.54,-15.54,-38.64
1553850478137,-2.0494993000000004,17.085545,-0.10774237,1.1040149,0.4281463,-1.5726781,-6.12,-16.5,-38.28
1553850478155,0.45730647,16.374445,1.2186858999999999,1.7240431,-0.91514635,-0.07850168,-4.68,-18.72,-37.44
1553850478175,0.7110996,9.244295,1.0319325000000001,0.9238097,-0.54312944,0.4211861,-4.98,-19.5,-37.14
1553850478195,-0.27534159999999996,9.232324,0.76137936,0.61226845,0.12637885,0.67897123,-6.12,-20.34,-36.36
1553850478215,-1.5299416000000001,9.440625,-0.8140534,0.64281166,0.56864524,0.49876598,-5.8799996,-21.119999,-36.36
1553850478235,-0.65363705,8.420665,-1.4341706,0.90487283,0.82581955,0.23426132,-5.52,-21.66,-36.0
1553850478256,-0.09337672,9.220352,-0.2466103,0.8657775,0.93333185,0.17806172,-5.7,-21.539998999999998,-35.88
1553850478275,-0.30886146,10.065532000000001,2.1404817000000005,0.8120214,0.25771487,0.22387661,-5.04,-21.72,-35.46
1553850478295,-0.6943397,9.720756,1.5012103,0.73871756,-0.38125014,0.19577679999999997,-4.7999997,-22.439999,-35.1
1553850478316,-0.16281068,7.8460383,1.0726352,0.7063417,-0.6237636999999999,0.12064039,-4.68,-23.519999,-34.68
1553850478335,-0.6392714,7.211556,0.14126222,0.8162974000000001,-0.65613955,-0.06811697,-4.5,-24.359999,-34.2
1553850478355,-0.7637736999999999,7.8460383,-1.0391153,1.0563673999999998,-0.48815158,-0.37049526,-5.04,-25.26,-34.079997999999996
1553850478376,-0.2466103,9.035994,-0.5794145,1.0673629999999998,-0.26335317,-0.5384831999999999,-5.52,-25.68,-33.36
1553850478395,0.4644893,9.799767,0.70631105,1.0252132,-0.43928236,-0.5904067,-6.0,-26.64,-32.1
1553850478415,0.5219519,9.96976,0.75659084,0.9836745000000001,-0.52785784,-0.6240043000000001,-6.0,-27.72,-31.74
1553850478436,0.39266106,9.881172,0.4932206,0.9152575999999999,-0.38491535,-0.6472171999999999,-6.48,-28.26,-31.619999
1553850478455,0.7996878000000001,10.237919,0.20351335,0.7057308000000001,-0.12713023,-0.66920835,-6.8399997,-28.619999,-30.42
1553850478475,0.66321415,12.086299,0.17717634,0.473602,0.07812050000000001,-0.59101766,-6.66,-29.279999,-29.279999
1553850478495,-0.30167863,12.665713,-0.48603779999999996,0.31294444,0.14959173,-0.25382,-6.12,-30.72,-29.58
1553850478515,0.25139886,10.127783,-0.8332075999999999,0.15961725,0.26565609999999995,-0.030243327999999996,-5.1,-31.14,-29.34
1553850478535,-0.29449580000000003,9.574705,0.09337672,0.089367755,0.15508953,0.02656714,-4.38,-30.179997999999998,-28.98
1553850478555,-1.0822121999999998,9.792584,1.6975409,0.08753516,-0.048328605,-0.029021597000000003,-4.38,-30.42,-28.98
1553850478576,-1.7573976999999998,9.953,1.5347302,0.14495650000000002,-0.30855718,-0.094995044,-5.16,-30.779999,-28.8
1553850478595,-1.2258687,10.920287,-0.20830189999999998,-0.048687793,-0.22853385,-0.099271104,-5.8199997,-30.72,-28.8
1553850478615,-0.6847626,14.281849,-1.0079896000000002,-0.40115705,-0.3036703,0.11269914,-5.8799996,-30.84,-28.92
1553850478635,-0.35435268,15.241954000000002,-1.0702409,-0.76523274,-0.33543527,0.47738567,-5.7,-30.42,-29.279999
1553850478655,-1.3288225,14.435082000000001,-2.0040080000000002,-1.1293084999999998,-0.1802755,0.9501954,-6.12,-30.779999,-29.699999
1553850478675,-1.56825,10.838882,-2.4373717,-1.6326613,-0.27862477,1.3448143,-6.42,-30.06,-29.64
1553850478695,-1.6448668000000002,8.514041,-3.615355,-2.2710156,-0.30733547,1.4376659,-7.259999799999999,-28.32,-30.3
1553850478715,-2.1309047000000003,7.070293400000001,-2.5355369999999997,-2.894098,-0.04955033599999999,1.2562388999999998,-7.7999997,-27.0,-31.439999
1553850478735,-1.7837347,7.2594414,-1.6137413,-3.1946437000000003,0.12576799,0.9947886,-7.9199996,-24.84,-32.64
1553850478756,-1.8938714,9.565128,0.82123625,-3.148218,-0.32016364,0.6875233000000001,-8.58,-22.619999,-34.02
1553850478775,-1.838803,11.305766,1.620924,-2.9557955000000002,-0.9572961,0.49693337,-8.82,-20.52,-35.34
1553850478795,-1.9465453999999998,12.440652,2.6648278,-2.4897053,-1.3549693999999999,0.2556416,-9.36,-17.52,-36.899998
1553850478815,-0.5411060999999999,12.44544,2.5546912999999996,-2.1164665,-0.8412316999999999,0.09559491,-9.84,-15.36,-36.96
1553850478835,0.6751855,12.158128,3.0000262,-1.9093832999999998,0.1324875,0.26724803,-10.38,-13.44,-37.02
1553850478855,1.158829,10.544386,2.2578009999999997,-1.9399266,0.5307717,0.30023476,-10.74,-11.94,-37.38
1553850478876,2.4254005000000003,9.416683,1.2306572,-2.1182992,2.0420523,0.5543547,-11.639999000000001,-10.08,-38.94
1553850478895,1.4269878,8.76544,3.0766432,-2.05538,2.6083244999999997,0.7046276,-10.019999499999999,-8.88,-39.84
1553850478916,0.16281068,7.223527000000001,3.6488747999999998,-1.7322325,2.2863984,0.75838375,-7.56,-6.66,-40.26
1553850478935,0.49800915,6.191594599999999,4.1971636,-1.3394461000000002,1.9168247999999999,0.75410765,-6.0,-4.62,-40.559998
1553850478956,-0.023942748,6.0766697,5.5307746,-0.8831296999999999,1.5533601000000001,0.75838375,-4.68,-3.3,-41.04
1553850478975,-0.531529,5.8779445,5.9641385,-0.15192403,1.068333,0.7834291999999999,-3.72,-2.28,-40.86
1553850478995,-0.8882760000000001,5.463735,5.6241517,0.5432406,0.8093262,0.80603117,-2.58,-2.28,-40.379996999999996
1553850479016,-0.9433443000000001,5.025583,4.5012364,1.0514803999999998,0.71830726,0.8310767,-1.02,-2.82,-40.68
1553850479035,0.56265455,3.265791,3.5794407999999995,1.2805548999999998,0.5979668,0.73272735,-0.53999996,-3.1799998,-41.04
1553850479055,1.1133378,1.960911,3.8643596,1.4803078,0.36767063,0.4046927,-0.29999998,-4.2,-40.559998
1553850479076,1.5514901,2.1285102000000005,4.0989985,1.8077317,-0.20776443,0.0729929,-0.35999998,-6.2999997,-40.739998
1553850479095,-0.27055305,3.581835,1.7957061999999997,1.6837261000000001,-0.6769089,-0.5427593000000001,-0.12,-7.5,-40.739998
1553850479115,-1.9010541,5.870762,2.5642683999999996,1.5444487,-0.26152056,-0.95936936,-0.42,-8.099999,-40.14
1553850479135,-4.9800916,17.48539,3.8883023000000003,1.4583168,0.583306,-0.9850257,-0.29999998,-9.48,-39.36
1553850479155,-5.1548739999999995,21.543684,1.6807808999999998,-0.20140410000000003,1.4965496,-0.02596727,-0.29999998,-11.099999,-39.6
1553850479175,-1.812466,16.135017,12.780639,-0.8745776,1.5796273,0.3332215,0.9,-11.94,-39.48
1553850479196,3.7518287000000003,8.123775,13.740743,-0.4701848,-0.17294511,0.17073134,2.1599998,-11.099999,-39.6
1553850479215,3.7925312999999994,3.1125572,9.071907000000001,-0.6546661,-0.26335317,-0.38454518,2.1,-10.679999,-40.02
1553850479235,0.9026415999999999,5.121353599999999,9.45978,-0.67360294,-0.23464250000000003,-0.45662725,2.82,-10.2,-39.6
1553850479256,1.0654523,12.347275,6.100612,-0.2966991,-0.89193356,-0.22083329,3.06,-10.08,-39.3
1553850479275,2.0949904999999998,23.416007999999998,1.5897985000000001,1.7057171999999998,-0.9609613000000001,0.82557887,2.34,-10.32,-39.6
1553850479295,0.8930645,16.838934,-7.146910000000001,2.2212872999999997,1.1043742,1.028997,1.02,-10.44,-39.899998
1553850479315,1.2091087999999999,4.8172809999999995,2.7917243999999997,2.4124882000000003,1.6236097,0.8817785,1.5,-11.46,-39.059998
1553850479335,-0.42857520000000005,0.65363705,2.7701759999999997,1.9769413,0.2858147,0.14446412,1.3199999,-12.84,-38.82
1553850479355,-2.2554069,5.6600657,4.9585433,0.47115853,-0.8907118,-0.3698844,1.74,-15.24,-38.52
1553850479377,-4.556305,3.7350687999999996,-1.5059988000000002,0.5157517,-0.34826344,-0.7364036,1.38,-16.08,-38.46
1553850479395,-3.3591676,2.013585,-3.3759273999999997,0.27934682,0.31208187,-1.4920438999999999,1.38,-16.92,-38.16
1553850479416,-1.5802213999999999,4.2618093,-3.241848,0.5847795,0.5863604,-2.3130467,1.68,-16.92,-38.16
1553850479435,0.75180227,13.218791,-0.33519846,1.0294894,0.7690090999999999,-2.1090178,1.86,-16.8,-38.399998
1553850479456,3.6369035000000003,19.968252,-1.2450229,1.5603313,0.22167383,-0.50977254,3.48,-18.06,-37.44
1553850479475,0.9792584000000001,12.874016000000001,1.3216397,1.0838563,-0.3116115,0.262972,4.3199997,-18.6,-36.78
1553850479496,0.32801566,9.562733999999999,1.5371244,0.43939352,-0.14728877,0.7198992,4.8599997,-20.76,-35.94
1553850479515,-1.6161355,9.352037,-0.9864412,0.19321485,0.64989036,0.8158051,4.38,-21.06,-36.54
1553850479536,-1.7071179,8.451789999999999,-0.062251142999999995,0.26712954,1.0493963,0.49937683,4.2599998,-21.18,-36.3
1553850479555,-0.69194543,8.229122,-0.44054657,0.6721332,1.118424,0.28374138,4.3199997,-21.0,-36.42
1553850479575,-0.4644893,8.760652,0.30407290000000003,0.831569,0.8545302,0.24708949,4.8599997,-21.3,-36.12
1553850479596,-0.58420306,9.668080999999999,1.2043202,0.87371874,0.4354767,0.23914824,5.64,-22.5,-35.7
1553850479615,-0.50998056,9.426260000000001,0.6273,0.8505059000000001,0.11660501,0.2525873,6.24,-23.1,-35.34
1553850479636,-0.15323359,7.963358,0.6560313,0.8981533000000002,-0.009844094,0.08154501,6.66,-23.939999,-34.32
1553850479655,-0.4070267,7.85801,-0.18675344,1.0630868999999998,-0.022672263999999998,-0.1255383,6.42,-24.24,-34.32
1553850479676,-1.2426286,8.58587,-1.4437478000000001,1.2781116000000001,0.096446455,-0.403482,5.94,-25.439999,-34.559998
1553850479695,-0.9241901,9.12937,-0.9672870000000001,1.2494009,0.14898087,-0.5598635000000001,5.8199997,-25.56,-33.719997
1553850479715,-0.47885495,9.979338,0.48124924,1.1406668,-0.10941513,-0.6093436,5.4,-25.92,-32.64
1553850479736,-0.40223816,10.355239,0.7302538000000001,0.96901375,-0.43134110000000003,-0.6447736999999999,6.24,-26.88,-32.04
1553850479755,-0.4644893,10.271438999999999,0.46209505,0.76193035,-0.45577574,-0.68447995,6.66,-28.38,-31.619999
1553850479778,0.67279124,10.537204,1.333611,0.52857983,-0.27495959999999997,-0.6527149999999999,6.2999997,-29.34,-31.74
1553850479795,1.6903580000000002,10.6641,1.647261,0.4632173,-0.22731212,-0.55008966,6.72,-29.279999,-32.04
1553850479815,2.2170985,10.235525,-0.11971374,0.37586355,-0.18516241,-0.35827795,7.3199997,-29.519999,-31.26
1553850479835,2.2625897,10.510866,-1.0151725,0.14862170000000002,0.1080529,-0.16524455,8.04,-30.06,-30.72
1553850479855,1.6807808999999998,10.585089,-1.4700848,0.016674789,0.43975273,-0.054677937,7.5,-30.24,-30.48
