TimeStamp,Ax,Ay,Az,Gx,Gy,Gz,Mx,My,Mz
1554100746939,1.5921928,9.711179,2.6911650000000003,-0.17177898,0.12610397,0.029986152000000002,-34.98,-16.74,10.62
1554100746960,1.8292258999999997,9.742303999999999,2.8515813,0.048743382,0.06013052,0.0049406779999999996,-35.04,-16.68,9.78
1554100746979,1.594587,9.301758,1.8795058,0.13731885,0.021035144,0.028153557000000003,-34.32,-16.56,10.08
1554100746999,1.5706443,9.464568,1.5514901,-0.09114476,0.09556071,0.014714521999999999,-34.86,-16.74,10.8
1554100747020,1.620924,9.469357,2.5522968999999995,-0.059379768,0.07601301,0.016547117,-34.62,-17.46,11.82
1554100747039,1.8627458,9.122187,2.3128695,-0.040442944,0.07784561,0.0037189478,-34.26,-16.92,10.98
1554100747060,2.0710478,9.026416000000001,2.2937152000000003,-0.06609928,0.10350195,-0.00300057,-34.92,-16.92,9.84
1554100747080,2.126116,9.26345,2.5546912999999996,-0.032501697999999996,0.10899974400000001,0.0024972172,-34.92,-17.52,10.2
1554100747100,2.0087965,9.210775,2.3320236,-0.0068453559999999995,0.15237117,-0.011552683999999999,-34.68,-17.82,10.08
1554100747119,1.7310607,9.057542,2.4541316,0.020643579,0.18841222,-0.034765564,-34.68,-17.64,9.48
1554100747139,1.3264283000000001,8.873182,2.1668186,-0.027003909,0.1572581,-0.038430754,-35.219997,-17.4,9.78
1554100747159,1.5562786,9.196409,2.1883671000000002,-0.15345302,0.20368385,-0.04270681,-34.92,-17.22,10.62
1554100747179,1.9010541,9.397528999999999,2.9329867000000003,-0.037999485,0.23117279,-0.08485652,-34.5,-17.039998999999998,11.099999
1554100747200,1.6999351000000003,9.574705,2.6193366,-0.0037910298,0.15786895,-0.08119132,-35.04,-17.52,11.099999
1554100747220,1.2857256000000001,9.780613,2.9329867000000003,0.042023864,0.10716715,-0.03598729,-35.52,-17.34,10.32
1554100747240,1.1875603000000001,8.913885,2.5714512000000003,0.07073453,0.030808989,0.023266636,-35.219997,-17.1,9.42
1554100747259,1.7143008000000002,8.248277,2.0782306,0.0059828144,0.019202549,-0.061643634,-34.14,-17.34,9.9
1554100747280,1.5371244,7.3025384,3.1412885,0.12449067,0.035085045,-0.12639534,-34.8,-17.4,9.42
1554100747300,2.5331428,6.751855,2.2937152000000003,0.1892424,0.028976392000000004,-0.27422473,-35.34,-17.76,8.639999000000001
1554100747319,2.7869357999999997,6.7303066,1.7957061999999997,0.06706934,0.06379571,-0.6462416999999999,-35.04,-17.58,9.24
1554100747339,1.7717633000000002,7.484503299999999,1.620924,-0.035556022,0.05890879,-0.8447728999999999,-35.34,-17.279999,10.139999000000001
1554100747359,0.6464542,8.499676,1.637684,-0.14001398,0.1572581,-0.907692,-35.579997999999996,-17.58,9.78
1554100747380,-0.090982445,9.306546,2.7510218999999996,-0.034334294,0.21773376,-0.75497574,-35.28,-18.66,9.24
1554100747400,-0.3232271,10.206794,2.5570855,0.11105163400000001,0.22017722,-0.53872937,-34.739998,-19.8,8.94
1554100747419,-1.1037607,13.204426000000002,2.6121537999999997,0.05668463,0.19818607,-0.29743759999999997,-34.5,-19.8,8.76
1554100747439,0.5411060999999999,13.594692000000002,2.248224,-0.05021679,-0.07303810000000001,0.07213586,-33.6,-19.8,9.9
1554100747459,0.17717634,12.737542,2.22907,-0.034334294,-0.011951578000000001,0.12467027,-33.3,-19.8,9.78
1554100747479,1.1420691,10.6641,2.1596357999999998,-0.039221216,0.06807177,0.028153557000000003,-33.6,-19.56,9.059999000000001
1554100747500,0.7733508000000001,9.385557,2.8611584,0.06768021,-0.030277537,-0.007276627,-33.899998,-19.68,9.0
1554100747519,0.6249057,9.349642999999999,2.5235654999999997,0.14281663,-0.09747271,-0.010941818,-34.559998,-19.98,8.28
1554100747540,0.41420954,8.763046000000001,1.8555629,0.14037317,-0.0748707,0.009216735,-33.66,-19.92,8.76
1554100747559,1.0223553,6.615381200000001,1.6520496999999998,0.18252288,0.025922066,-0.03598729,-32.64,-19.68,9.719999000000001
1554100747579,1.2689656,7.980117999999999,2.3320236,0.1360971,-0.051046956,-0.23879455,-33.059998,-19.92,9.0
1554100747599,0.18435916,9.45978,1.8411973999999998,0.05790636,-0.10969002,-0.23329677,-33.6,-19.619999,8.94
1554100747620,0.30407290000000003,9.138947,1.6089526,-0.09908601,-0.052268684,-0.11845410000000002,-33.66,-19.859999,9.66
1554100747639,0.26337022,9.093455,2.0830189999999997,-0.11924456,-0.022947152999999998,-0.12211929,-33.84,-20.58,10.019999499999999
1554100747660,-0.031125572,10.379180999999999,2.9018610000000002,0.059738955999999996,-0.030888401,-0.03659816,-33.6,-20.52,10.38
1554100747679,0.22985038,10.513261,1.9178141,0.07684319,-0.06448599,0.10145739,-33.78,-20.22,9.599999
1554100747700,0.7110996,9.866806,1.9226026999999999,-0.023949582,-0.04249484,0.09718133,-34.02,-20.76,9.66
1554100747720,0.6703969,9.91948,2.142876,-0.01906266,-0.08586627,0.07335758,-33.84,-21.359999,10.38
1554100747739,0.38068968,10.027223,2.1596357999999998,0.0695128,-0.13168117,0.06297288,-34.5,-20.76,9.54
1554100747759,0.023942748,9.629773,1.8459859,0.11960375,-0.04249484,0.087407485,-33.96,-20.34,9.719999000000001
1554100747780,0.38308397,9.711179,1.664021,0.0059828144,0.005763513499999999,0.05075557,-33.719997,-20.4,10.019999499999999
1554100747799,0.50040346,10.340873,2.1931557999999995,0.01575666,-0.005232061,-0.01338528,-34.5,-20.46,10.08
1554100747819,0.5411060999999999,10.202005,2.4421604,0.08050837,-0.06815118,-0.041485082,-34.739998,-19.98,10.08
1554100747839,0.5027977,9.933846,2.3990633,0.18985325,-0.09075319999999999,-0.007276627,-34.5,-20.039998999999998,10.32
1554100747859,0.36632404,10.64734,1.2761483999999998,0.0035393531,-0.044327438,0.075801045,-34.38,-20.4,11.04
1554100747879,0.6081458000000001,9.888355,2.0854135,-0.23897415,0.06623917,0.19003285,-34.68,-19.74,10.559999000000001
1554100747899,1.036721,8.439817999999999,3.1365,-0.2206482,0.015537357,0.16193305,-34.5,-19.619999,10.019999499999999
1554100747919,1.1899546,7.9178667,3.3902931000000005,-0.061823227,-0.11579867,0.12467027,-34.44,-20.4,9.78
1554100747939,1.0870007,10.089474000000001,2.1332988999999998,-0.13818139,-0.1610027,0.125892,-34.92,-20.279999,9.42
1554100747960,1.3120626,11.820535000000001,2.1596357999999998,-0.25363493,-0.08036848,0.1344441,-34.2,-19.439999,9.84
1554100747980,1.2905141000000002,9.751882,3.3064934999999998,-0.09419909,0.123660505,0.015325387,-33.899998,-19.68,10.44
1554100748000,1.3479767,8.9498,2.0087965,0.13731885,0.03569591,0.03059702,-33.84,-20.4,9.9
1554100748019,0.38308397,7.6449194,1.7573976999999998,0.22467257,-0.112744346,-0.00055710913,-33.36,-19.74,9.12
1554100748039,0.39026679999999997,7.8053360000000005,1.8100717,0.28698084,-0.20070894,-0.022548257999999998,-34.02,-19.68,9.0
1554100748059,0.43336374,9.131764,1.5107874,0.43603194,-0.22270009,-0.07202835,-34.44,-20.279999,9.78
1554100748080,0.41181526,9.684841,1.6017698,0.5404899000000001,-0.23064134,-0.10990199,-34.38,-20.039998999999998,9.84
1554100748099,0.30167863,9.450203,1.5897985000000001,0.6101285,-0.19643287,-0.14777564,-34.02,-19.98,9.54
1554100748119,0.14126222,9.636956,2.0040080000000002,0.64678043,-0.19276768,-0.18809274,-33.78,-19.98,10.019999499999999
1554100748139,0.117319465,10.443827,1.8220432,0.69015193,-0.26362807,-0.2589531,-33.54,-19.92,10.92
1554100748159,-0.19154198,11.269852,1.350371,0.6767128000000001,-0.27767795,-0.2980485,-33.84,-19.68,11.58
1554100748179,-0.24900457,10.877191,0.9217958,0.5105575,-0.20315239999999998,-0.31332013,-33.719997,-19.92,11.88
1554100748199,-0.009577099,10.4294615,1.4078336,0.27415264,-0.18971336,-0.26567262,-33.42,-20.16,12.179999
1554100748220,1.0247495999999998,9.828498,1.5754328000000002,0.11471683,-0.17993951,-0.15082996,-33.54,-19.68,12.599999
1554100748239,1.036721,8.897125,1.6185298000000001,0.15992086,-0.23369566,-0.08607825,-33.12,-20.22,12.78
1554100748259,0.5794145,8.741497,0.7398309000000001,0.1800794,-0.2434695,-0.04698287,-32.76,-20.4,13.019999499999999
1554100748279,0.39266106,9.213169,0.5506831999999999,0.2625462,-0.16527875,-0.035376426,-32.7,-20.58,13.62
1554100748299,0.37829542,10.26665,0.95531565,0.37189108,-0.08647714,-0.024380852999999997,-33.059998,-21.3,13.44
1554100748320,0.9337671999999999,10.127783,0.6392714,0.33523917,-0.033942726,-0.015217874,-33.12,-20.58,13.38
1554100748339,1.6137413,9.943423,0.51955765,0.17458162,0.14931685,-0.0066657616,-33.12,-19.98,13.44
1554100748359,1.8268316999999998,9.838076,0.8882760000000001,0.11838202,0.113275796,0.031207883999999998,-33.42,-20.1,13.74
1554100748381,1.2186858999999999,9.634561999999999,0.28491869999999997,0.14403836,0.02042428,0.028764422999999997,-32.64,-20.34,14.94
1554100748401,0.8092649000000001,9.998491,-0.06464542,0.10433211,0.22017722,-0.015217874,-32.579997999999996,-20.46,14.519999499999999
1554100748419,0.6368771,9.675264,-0.047885496,0.064625874,0.44436476,-0.069584884,-33.3,-20.279999,13.019999499999999
1554100748442,1.0415094999999999,9.675264,0.9792584000000001,0.0994452,0.5176685999999999,-0.047593735,-33.12,-19.619999,13.019999499999999
1554100748461,1.2905141000000002,10.187639,1.4964218,0.18985325,0.2537748,0.11245296,-32.88,-19.5,13.559999
1554100748480,0.84039044,10.2642565,1.0822121999999998,0.20634662,0.18902309,0.18209160000000002,-33.48,-20.4,13.92
1554100748499,0.090982445,10.297775999999999,0.7110996,0.17641422,0.30997440000000004,0.15460266,-34.38,-20.58,13.5
1554100748519,-0.14605077,9.962578,0.91700727,0.07928664,0.33379817,0.093516134,-34.62,-20.4,12.42
1554100748539,0.0047885496,9.680053,1.4772675,0.091503955,0.18963395,0.05747509,-34.02,-19.38,12.66
1554100748559,0.17238778,9.553157,1.8483802,0.06340415,-0.08953147,0.07519018,-33.3,-18.84,12.599999
1554100748579,0.3232271,9.909904,1.6688095,-0.056936305,-0.33632103,0.08801835,-33.66,-19.32,12.12
1554100748599,0.5794145,9.9889145,1.4485363000000002,-0.13634878,-0.45421803,0.0819097,-34.38,-19.56,13.08
1554100748619,0.6153286,9.538791,1.2354459,-0.1290184,-0.48292870000000004,0.014714521999999999,-33.66,-19.92,13.44
1554100748640,0.73743665,9.395133999999999,1.1085492000000001,-0.083814375,-0.5024764,-0.07141748,-33.36,-19.5,12.599999
1554100748659,0.9864412,9.584282,0.65363705,-0.067931876,-0.54279345,-0.14105612,-34.079997999999996,-19.619999,13.08
1554100748680,1.5514901,9.574705,-0.52674043,-0.08198178,-0.32837975,-0.19236879,-34.14,-20.039998999999998,14.16
1554100748699,1.7789462,10.027223,-0.85954463,-0.004401895,0.12915829,-0.19175793,-32.64,-20.52,15.599998999999999
1554100748719,1.8747171000000002,10.472558,0.038308397,0.09211481,0.28920498,-0.10623679,-32.16,-19.92,15.54
1554100748740,1.1923488000000002,9.787795,0.44533512,0.13182107,0.31119615,-0.002389705,-32.88,-19.38,14.16
1554100748759,0.5961744000000001,9.706389999999999,0.50758624,0.16419691,0.4352018,0.04098173,-33.12,-19.74,13.74
1554100748780,0.38068968,9.799767,0.5961744000000001,0.15442306,0.52011204,0.019601444,-33.48,-19.98,13.74
1554100748799,0.18196489,9.826103999999999,0.9984126,0.08295184,0.47735146,-0.04026335,-33.059998,-19.38,14.16
1554100748820,-0.04070267,9.692024,1.7286664,0.035304345,0.21895549,-0.09279776,-33.0,-18.66,13.679998999999999
1554100748839,-0.05027977,9.706389999999999,1.7597919999999998,0.029806557999999997,-0.06692945,-0.11051285,-33.66,-19.5,12.84
1554100748860,0.07422252,10.130177,1.0702409,-0.058158035999999996,-0.23980433,-0.049426332,-33.899998,-20.1,13.259998999999999
1554100748879,0.117319465,10.779025,0.15802214,-0.16933551,-0.28684095,0.039759997000000005,-33.719997,-20.22,13.62
1554100748899,0.10055954,10.386364,-0.3423813,-0.22309166,-0.13595723,0.14238536,-33.719997,-20.76,14.16
1554100748920,0.090982445,9.613013,-0.09337672,-0.19315925,-0.17016567,0.21813264,-33.48,-20.58,13.799999
1554100748939,0.24900457,9.184438,-0.14126222,-0.14612263,-0.19521116,0.18514591,-33.12,-19.859999,12.54
1554100748959,0.3423813,9.335278,0.14365649,-0.11191418,-0.15550491,0.09107268,-33.239998,-20.039998999999998,12.9
1554100748980,0.43096948,9.75667,0.46688359999999995,-0.07892745,-0.11640954,0.016547117,-33.48,-19.98,12.9
1554100748999,0.41181526,10.314536,0.41660379999999997,-0.09480995,-0.11335521,-0.021937393,-33.84,-19.8,13.2
1554100749020,0.24182175,10.319324499999999,0.54350036,-0.13146187,-0.13168117,-0.017050471,-33.48,-20.279999,14.4
1554100749039,-0.0670397,9.931452,0.5602603,-0.11557937,-0.20620672,0.005551543000000001,-32.88,-20.699999,14.639999
1554100749060,-0.29449580000000003,9.660899,0.22266756,-0.09664255,-0.21170451,0.0073841390000000005,-32.76,-20.58,13.2
1554100749079,-0.3232271,9.749487,-0.016759925,-0.08076005,-0.16955481,0.015325387,-33.12,-19.92,13.139999
1554100749100,-0.23463893,9.727939,-0.25858167,-0.121688016,-0.12862685,0.028764422999999997,-33.42,-19.8,13.799999
1554100749119,-0.23224466,9.318518,-0.36871833,-0.18827234,-0.10113789999999999,0.04098173,-33.36,-20.039998999999998,13.92
1554100749139,-0.18196489,8.786988000000001,0.14605077,-0.19926791,-0.1170204,0.028764422999999997,-33.18,-19.619999,14.34
1554100749160,-0.12929083,9.148524,1.446142,-0.08076005,-0.08830973,-0.01338528,-33.54,-19.98,13.679998999999999
1554100749179,0.009577099,9.747093,2.5379312,0.11899288,-0.16894394,-0.11967584,-33.96,-20.34,14.04
1554100749200,0.6392714,9.727939,2.291321,0.21245526,-0.46093753,-0.21435994,-33.96,-20.22,14.88
1554100749219,1.5131816999999999,10.029617,1.7669748,0.14464924,-0.7132248000000001,-0.20458610000000002,-33.059998,-21.0,16.199999
1554100749240,2.6432792999999997,10.628186,0.9505271000000001,0.08050837,-0.6790164000000001,-0.14166698,-32.64,-21.72,16.8
1554100749259,2.2530127,10.470163000000001,1.1708003,0.0017067576000000001,-0.08464454,-0.23512937,-33.6,-21.119999,16.08
1554100749280,1.9417567999999998,9.495694,1.6855695,-0.0905339,0.35212412,-0.304768,-32.52,-20.52,16.619999
1554100749299,1.6879636999999998,9.359220500000001,2.2075214,-0.057547174000000006,0.43336916,-0.24307062,-31.32,-20.88,15.839998999999999
1554100749319,1.6113469999999999,9.253872,2.1716073,0.09272568,0.3539567,-0.15082996,-31.859999,-21.84,15.839998999999999
1554100749340,1.4269878,9.055147,1.9752767,0.27965045,0.17252973,-0.045150273,-31.8,-22.32,17.4
1554100749359,1.2546,9.665688000000001,1.9010541,0.30164159999999995,0.016148223,0.03670567,-32.04,-22.08,16.98
1554100749380,1.1564348,9.993703,1.6807808999999998,0.21306613,-0.033331863999999996,0.06236201,-32.579997999999996,-21.6,15.24
1554100749399,0.91700727,9.96976,1.7406378,0.07073453,0.022256875,0.055642493,-32.579997999999996,-20.76,13.98
1554100749420,0.76616794,9.610619999999999,1.5778271000000001,-0.058768902000000005,0.18108183,0.01899058,-32.16,-20.22,15.0
1554100749439,0.7709564999999999,9.043175999999999,1.5706443,-0.10458379,0.3203591,-0.013996145,-31.8,-20.16,14.94
1554100749460,0.91700727,9.747093,1.2569941999999998,-0.04594073,0.37716958,-0.016439606000000002,-33.12,-20.34,14.04
1554100749479,1.0295382,9.888355,1.0175668,0.00781541,0.39854985,0.03670567,-33.84,-20.82,14.639999
1554100749501,0.8930645,9.938635000000001,0.91700727,0.010258871,0.3802239,0.08313143,-32.7,-21.119999,14.519999499999999
1554100749520,0.8379962,9.885961,1.0941836,0.060960684,0.32952209999999993,0.0996248,-33.0,-21.119999,14.219999
1554100749539,0.6273,9.598647999999999,1.1875603000000001,0.10127779,0.21467943,0.10145739,-33.66,-20.939999,14.58
1554100749559,0.13886794,9.622589999999999,1.2210802,0.13548625,0.09678243,0.081298836,-33.48,-20.76,14.16
1554100749579,0.03351985,9.917086999999999,0.7302538000000001,0.13304278,0.085176,0.02632096,-33.54,-20.939999,13.62
1554100749599,0.23463893,9.565128,0.7206767,0.123879805,0.16458847,-0.024380852999999997,-33.6,-21.0,13.559999
1554100749619,0.4070267,9.577099,0.9984126,0.12021461,0.17069712,-0.08485652,-33.66,-20.64,13.32
1554100749639,0.7541966,9.395133999999999,1.063058,0.10433211,0.10533455,-0.10623679,-33.719997,-20.64,13.74
1554100749660,0.9481328000000001,9.711179,0.91700727,0.107997306,0.0143156275,-0.07935873,-33.3,-21.3,13.799999
1554100749679,1.0822121999999998,10.558752,0.6608198000000001,0.11838202,0.0063743787,-0.06897401,-33.12,-21.24,13.139999
1554100749699,1.0846065,10.046377,0.36871833,0.11471683,0.062573984,-0.07325008,-33.36,-21.06,13.62
1554100749720,0.9313729,9.490905999999999,0.3615355,0.08783876,0.14320819,-0.120286696,-33.0,-21.0,14.519999499999999
1554100749739,0.84039044,9.110215,0.38787252,0.08967136,0.09067378,-0.18320581,-32.579997999999996,-20.64,14.7
1554100749760,0.8332075999999999,9.064724,0.21309046,0.123879805,0.033863317000000004,-0.24856839999999997,-32.76,-21.0,14.519999499999999
1554100749780,0.9888355,9.984126,-0.15083931,0.14464924,0.11083233,-0.29193982,-33.42,-21.3,13.2
1554100749800,1.0678465,10.393547,0.019154198,0.12998846,0.25255308,-0.2839986,-33.48,-21.06,13.019999499999999
1554100749820,0.9241901,9.974549,0.16041641,0.0695128,0.38144565,-0.21435994,-32.52,-21.18,13.559999
1554100749840,0.71828246,9.873989,0.5865973000000001,0.05057598,0.41137803,-0.10379334,-32.16,-21.359999,14.099998999999999
1554100749859,0.67279124,9.917086999999999,0.69194543,0.127545,0.37655872,-0.0066657616,-32.34,-21.359999,14.519999499999999
1554100749879,0.4932206,9.816526,0.71588814,0.21001181,0.311807,0.04586865,-32.579997999999996,-21.18,13.62
1554100749899,0.29928434,9.347249,0.5698373999999999,0.22711603,0.3454046,0.02143404,-33.0,-20.939999,12.719999000000001
1554100749919,0.26337022,9.557945,0.43575802,0.2399442,0.39671728,-0.01582874,-33.0,-20.939999,12.54
1554100749940,0.3232271,9.431047999999999,0.5794145,0.26987659999999997,0.42115188,-0.052480657,-33.84,-21.66,13.2
1554100749959,0.44533512,9.12937,0.6057515,0.3334066,0.38266736,-0.12334102400000001,-34.079997999999996,-21.96,13.08
1554100749980,0.90503585,9.320911,0.5123747999999999,0.41342995,0.35151324,-0.16976678,-33.239998,-20.939999,12.48
1554100750000,0.9792584000000001,9.933846,0.47406640000000005,0.4018235,0.35701102,-0.18564928,-33.42,-20.1,12.3
1554100750019,0.8547561,10.082292,0.50758624,0.35356513,0.42176276,-0.18015149,-33.899998,-20.4,12.48
1554100750039,0.59378016,9.517242,1.0846065,0.3346283,0.43153659,-0.18626015,-33.66,-20.88,13.259998999999999
1554100750060,0.65842557,8.911489999999999,1.2761483999999998,0.3700585,0.33318728,-0.22718811,-33.3,-20.16,13.92
1554100750080,0.8930645,9.110215,0.72546524,0.4458058,0.28737240000000003,-0.30049193,-33.54,-20.16,12.599999
1554100750100,0.98404694,8.863605499999998,0.18675344,0.49223155,0.35701102,-0.34630683,-33.54,-21.06,11.639999000000001
1554100750119,1.0654523,9.119793,-0.08858817,0.5020054,0.46757764,-0.3835696,-33.059998,-20.939999,12.12
1554100750139,1.0391153,9.917086999999999,0.38547826,0.48734462,0.5054512999999999,-0.41166943,-33.18,-20.76,11.94
1554100750159,1.0175668,9.998491,0.22266756,0.49895108,0.48346016,-0.41228026,-33.54,-20.64,12.179999
1554100750179,1.3575538,9.648928,0.20111908,0.54293334,0.43581265,-0.39151087,-33.6,-20.76,12.3
1554100750200,1.515576,9.885961,-0.35914123,0.58202875,0.42237359999999996,-0.37929356,-33.78,-20.939999,11.4
1554100750219,1.3695252,9.907509,-0.45251793,0.59546775,0.50606215,-0.3432525,-33.6,-21.119999,11.88
1554100750240,1.2091087999999999,9.708784,-0.25139886,0.47634906,0.49628829999999996,-0.30232456,-32.94,-20.939999,13.019999499999999
1554100750259,1.185166,10.144542999999999,0.19393626,0.31691325,0.36373055,-0.26017484,-33.0,-21.0,13.08
1554100750279,1.7214836,11.178869,0.9888355,0.15686654,0.31791565,-0.13800178,-33.36,-20.939999,12.0
1554100750300,2.030345,13.841303,1.7071179,0.0041502183,0.22200981,0.04464692,-33.84,-20.699999,10.92
1554100750319,2.19555,13.858063000000001,1.5874043,-0.28845423,-0.05287955,0.0819097,-34.559998,-21.119999,11.099999
1554100750339,2.4110348,14.322551999999998,0.6895511,-0.8046354,-0.06326426,0.13688758,-34.62,-20.88,10.74
1554100750359,3.1365,14.140587,-0.14844504,-1.4350483,0.27271163,0.16865256,-33.66,-20.82,10.86
1554100750379,3.007209,11.710398,-0.31365,-1.940234,0.6031896999999999,0.3684055,-33.66,-21.24,10.26
1554100750400,1.4126221,9.838076,1.1444633,-2.4478629,0.71986496,0.7917350999999999,-34.079997999999996,-20.88,8.82
1554100750419,-0.505192,9.893144,1.8747171000000002,-2.823545,0.8530336,1.3140249,-33.84,-20.939999,7.7999997
1554100750439,-1.5395187,10.625792,0.46927786,-2.859586,1.2720871999999999,1.5846381999999999,-34.44,-20.34,6.42
1554100750459,-3.2442424,12.950632,-1.1875603000000001,-2.85531,1.7003037,1.4795693,-34.739998,-19.5,4.62
1554100750479,-1.9345740000000002,12.296994999999999,-1.3000913,-2.6457832000000003,1.9110522,1.2853142,-35.16,-19.14,2.76
1554100750499,0.4956149,10.233130000000001,2.5570855,-2.125937,2.0582707,1.1832996999999998,-36.36,-17.76,0.12
1554100750520,1.4078336,9.182044,3.5387383000000003,-1.8143957,1.5066594,1.2175082,-36.719997,-16.38,-1.9799999
1554100750539,0.6656084,10.501289,3.2969165,-1.3843465,1.6184478,1.5766969,-36.36,-15.24,-3.6599998
1554100750559,0.90982443,10.304958000000001,2.1596357999999998,-1.2701147,1.3014086,1.8234866000000003,-36.84,-14.099998999999999,-5.7
1554100750580,0.4644893,10.391152,0.43575802,-1.2725581,1.0509540000000002,1.9261118000000002,-37.079997999999996,-12.719999000000001,-6.6
1554100750599,0.0670397,8.894731,0.27294734,-1.3983964,1.1743487,1.8228756000000002,-36.719997,-10.8,-7.5
1554100750620,-1.0678465,6.5555243,0.3519584,-1.2951602,1.0509540000000002,1.3702245000000002,-37.32,-8.94,-8.88
1554100750639,-1.2522057,5.090228,0.28731298,-1.0544791999999998,1.2934674,1.1222132,-36.719997,-6.96,-10.679999
1554100750659,-0.090982445,3.4262072999999997,1.9226026999999999,-0.593276,1.4565685,0.996375,-36.059998,-6.18,-11.82
1554100750679,0.22985038,2.5738453999999997,3.7374629999999995,-0.020895256,1.1932855,0.89069533,-36.66,-5.8199997,-11.34
1554100750699,-0.1699935,2.3152637,4.4796879999999994,0.62417847,0.91534185,0.7031596999999999,-36.96,-4.7999997,-11.58
1554100750719,0.007182824399999999,2.8611584,4.865166,1.2197721000000001,0.7302496999999999,0.42888117,-37.14,-3.4199998,-11.94
1554100750739,-0.20590763,3.964919,4.812492400000001,1.5117656000000002,0.49506658,0.08557489,-36.54,-3.36,-12.84
1554100750759,-0.3328042,5.4062724,6.3232800000000005,1.4580095,0.22139893,-0.22779898,-35.94,-3.4199998,-14.4
1554100750779,1.1253091,8.564321000000001,9.261055,0.8233205,0.20307298,-0.43182796,-35.94,-2.76,-13.92
1554100750799,4.743058,13.838907999999998,11.631387,0.23933335,0.12549311,-0.34264162,-36.12,-3.8999998999999996,-13.799999
1554100750820,8.274613,19.793470000000003,7.759844999999999,-0.38619268,-0.35159266,0.032429612999999996,-36.0,-4.98,-14.519999499999999
1554100750839,3.9577362999999997,15.488564000000002,5.5164089999999995,-0.93352795,0.23544885,0.1558244,-36.3,-4.8599997,-14.519999499999999
1554100750859,0.14365649,7.56112,7.1421220000000005,-0.8956543,1.1529684,0.35435559999999994,-36.12,-3.78,-14.58
1554100750879,0.8667275,0.9912298,10.333689999999999,-0.4485009,1.1602988,0.25722802,-35.88,-2.8799999,-14.58
1554100750899,-0.44772938,2.971295,9.498088000000001,0.16541864,0.14076474,-0.20092091,-35.88,-2.76,-14.639999
1554100750919,-2.8108785,16.16375,6.012023999999999,0.99314106,-0.5849432,-0.7464236,-36.239998,-2.76,-15.48
1554100750939,-4.496448,20.348942,0.63208854,0.86608106,-1.6002011,-1.107445,-36.84,-3.12,-15.299999
1554100750959,-3.7015488,10.127783,-0.10774237,0.25765932,-1.7779630000000002,-1.1434859,-36.54,-3.84,-14.099998999999999
1554100750979,-0.66800267,2.0375278000000003,-0.14126222,0.76651007,-2.0510197,-0.71649116,-36.48,-4.8599997,-12.96
1554100750999,-1.489239,2.9521408,-0.409421,1.3688232,-2.7083107999999996,-0.8521033000000001,-37.14,-5.7599998,-11.4
1554100751019,-1.0295382,7.099025,-1.7382435,1.9528102999999999,-2.9807565,-1.0335302,-37.62,-6.8399997,-9.84
1554100751039,2.2242813,11.535616000000001,-3.5650752,2.593608,-2.2556596,-1.1795269,-37.86,-7.98,-7.62
1554100751059,1.8340145,12.443047,-2.3344178,2.4592175,-1.7852933000000002,-1.2870393,-37.86,-9.179999,-4.68
1554100751079,2.0973847,10.970566999999999,-0.9026415999999999,2.1745542999999996,-1.8989143,-1.0927841999999999,-38.579997999999996,-10.44,-2.76
1554100751099,1.5538843999999998,10.024828999999999,-0.17957062,1.7328988,-1.547056,-0.721989,-38.46,-11.219999000000001,-0.24
1554100751120,1.620924,8.391933,0.2681588,1.4305205,-1.3381399999999999,-0.44954306,-37.98,-11.759999,1.02
1554100751139,1.9369683000000002,8.248277,0.37350687,1.6687580000000002,-0.934969,-0.3939543,-37.68,-12.48,2.22
1554100751160,1.8268316999999998,7.8747697,1.1037607,1.8526285,-1.3344748,-0.39028913,-37.38,-12.66,4.56
1554100751179,0.8475733,8.830086,-0.23463893,1.6577624,-1.9355663,-0.35058290000000003,-37.38,-12.12,5.8199997
1554100751199,1.2091087999999999,9.007261999999999,-0.93616146,1.4372401000000001,-1.5867622,-0.42449757,-36.42,-12.42,7.68
1554100751219,1.3479767,9.763853,0.5027977,1.2045003,-1.2843839,-0.39700866,-36.42,-12.66,8.7
1554100751239,1.515576,10.161303,1.5826156,0.76651007,-1.4755847,-0.5075753,-36.78,-12.66,9.96
1554100751259,1.7310607,9.1628895,0.7350424,0.6400609,-1.5073497,-0.74825615,-36.42,-12.719999000000001,11.519999499999999
1554100751279,2.2458298,8.236305,-0.21548474,0.74207544,-0.94046676,-0.97000027,-35.52,-12.96,12.66
1554100751299,3.641692,8.909097000000001,-0.21069619,0.8880722,-0.2874518,-1.2516091,-34.98,-13.5,14.58
1554100751319,4.285752,10.316930000000001,1.2809371,0.9571,-0.040662248,-1.4385339,-34.86,-13.679998999999999,15.0
1554100751340,3.2825508,12.835708,1.7406378,0.8587507,-0.28256488,-1.1593685,-34.5,-14.04,14.88
1554100751359,2.8467927000000004,12.356853,-0.43096948,0.27293095,-0.052268684,-0.65235037,-34.26,-14.58,15.78
1554100751379,1.7382435,9.641745,-0.46927786,-0.29273027,0.5592074,-0.23085329999999998,-33.36,-15.0,15.96
1554100751400,1.5490957,10.235525,0.5770202,-0.7740921,0.44131044,-0.05553498,-32.94,-15.059999,16.68
1554100751419,1.7693691000000003,12.088694,-0.69673395,-1.4857501,0.2152903,0.08007710400000001,-33.18,-15.24,16.56
1554100751439,1.0486923000000001,13.712012,-1.2881198,-2.4044914,0.24705528,0.47408518,-33.54,-15.24,15.9
1554100751459,0.27534159999999996,13.640182999999999,-0.37590113,-3.2523722999999998,0.73452574,0.97865987,-33.899998,-16.02,15.299999
1554100751480,-2.4062462000000004,12.402344,1.9178141,-3.4606774,1.2189419,1.6774898,-33.84,-16.56,14.28
1554100751499,-1.9824595,14.324945999999999,-2.7079248,-2.623181,1.3050739,2.0617240000000003,-34.14,-16.32,12.42
1554100751519,-5.7606254,16.52768,-1.9297855,-2.7001503,0.70825857,1.6194575,-34.38,-16.32,11.099999
1554100751539,-1.7789462,17.693691,4.786155,-2.3715045,-1.0773005,1.599299,-34.92,-15.66,9.96
1554100751559,1.1300976999999999,13.652154999999999,1.132492,-2.0086508000000003,-2.1017217999999995,1.807604,-35.7,-14.519999499999999,8.4
1554100751579,2.0279508,11.590684,-3.8523881,-1.2633952,-0.48781562,2.2889657000000003,-36.239998,-13.86,8.94
1554100751600,4.0822387,9.567522,-1.2617828000000002,-1.4155006,0.66733056,2.9016634999999997,-36.84,-13.44,9.059999000000001
1554100751619,3.1125572,7.910684,1.4269878,-1.7233768,0.6025789,1.8943470000000002,-37.14,-11.82,9.36
1554100751640,1.2186858999999999,6.3903193,1.3000913,-1.3373098,0.48407102,0.9297907,-37.079997999999996,-9.66,9.24
1554100751659,0.22027329,5.698374299999999,-0.600963,-0.91764545,1.5836284,0.4527049,-37.14,-8.94,8.099999
1554100751680,-0.36632404,5.312896,-3.15326,-0.5328004,3.1511087000000004,0.538226,-37.92,-9.059999000000001,6.96
1554100751699,-0.7015225,4.3216662,-1.7119064,-0.37764058,3.5542797999999993,0.719653,-38.04,-8.4,5.3399997
1554100751719,-1.5993756000000001,3.4333901,2.1740015,-0.15772906,2.8566716,0.76180273,-37.86,-7.56,3.84
1554100751739,-1.6113469999999999,2.6720107000000004,4.783761,0.5380464,1.7998748,0.6072538000000001,-37.86,-7.08,0.48
1554100751759,-1.7047237000000002,2.7653873,3.8547822999999997,1.102486,0.7723994000000001,0.17903727,-37.92,-7.08,-2.52
1554100751780,-1.7885233,3.1317115,3.4094474000000003,1.4286879,0.20551644,-0.25712052,-37.62,-7.2,-2.76
1554100751799,-2.8970726000000004,4.041536,3.1700199000000002,1.7249576000000002,-0.44994196,-0.8117861,-37.559998,-7.3799996,-2.7
1554100751820,-2.7749646,6.871568700000001,1.7454262999999999,1.7341206000000002,-1.1041785,-1.1080558,-37.86,-7.98,-1.8
1554100751839,0.035914123,12.179675999999999,1.6496553,1.4971048999999998,-1.0082728,-1.2002965,-37.62,-8.76,-1.0799999
1554100751859,3.4740927000000004,17.605103,6.105400599999999,0.8001076,-0.10785742,-0.8472163,-37.079997999999996,-9.719999000000001,-0.35999998
1554100751879,4.216318,22.233235999999998,12.244322,-0.75943136,-0.13901155,0.07946624,-36.42,-10.86,0.29999998
1554100751899,8.863605499999998,11.269852,8.097438,-1.160159,-0.47682005,1.1979605,-36.0,-11.34,0.35999998
1554100751919,5.1596622000000005,2.5762396,7.783787299999999,-0.6861275,-0.6472514,0.8412152,-35.219997,-10.74,0.96
1554100751939,1.2761483999999998,2.6289136,3.0718546,-0.057547174000000006,-1.1389979,0.45759183,-34.92,-10.08,1.8
1554100751959,-2.5163830000000003,15.581941,2.3559662999999995,0.76040137,-0.9465754000000001,-0.29255068,-35.579997999999996,-9.78,2.1
1554100751979,-2.1620302000000002,22.776735000000002,-2.020768,0.46474259999999995,-0.6649665,-1.7561839,-36.36,-9.96,2.1
1554100751999,-4.6951730000000005,19.17814,0.19154198,-0.8846586999999999,-0.31432986,-1.5045073,-36.36,-11.16,2.76
1554100752019,2.22907,2.3846977000000003,-0.8379962,-0.36481237,-0.6625231,-0.8637097,-35.76,-12.42,2.6399999
1554100752039,-1.1947431999999998,2.6241252,-1.6903580000000002,0.2790396,-1.5488886,-0.80812097,-34.86,-13.38,3.6
1554100752059,-1.0606636999999999,4.8220696,-3.3639562000000005,1.2979628,-1.6270794,-0.75069964,-33.899998,-13.62,4.56
1554100752080,0.14605077,10.601849000000001,-1.8196488999999998,2.1098027000000004,-1.3185923000000002,-0.64440906,-33.719997,-13.98,5.64
1554100752099,2.0710478,14.004113,-1.7981004,2.253356,-0.8751042,-0.6700654,-33.54,-14.82,7.02
1554100752120,1.1205206,13.0895,1.7550035,1.6272191,-1.1732063999999998,-0.72259986,-32.76,-15.059999,8.16
1554100752139,-0.11253092,9.471751,1.4341706,1.0652231,-1.7895695,-0.5399510999999999,-32.579997999999996,-15.54,9.66
1554100752159,-0.4644893,8.719949,-0.6895511,0.9790911,-1.2794968999999998,-0.22535552,-32.76,-16.08,10.5
1554100752179,0.15323359,7.8915296,-0.7829279,1.0029149,-0.7303291000000001,-0.17770803,-31.98,-16.14,11.519999499999999
1554100752199,0.32801566,8.403905,-0.18675344,1.0377343,-0.99239033,-0.27911165,-31.26,-15.36,12.24
1554100752219,1.2330515,9.747093,0.0,1.0029149,-1.3827331,-0.45687345,-31.26,-14.46,13.019999499999999
1554100752239,2.4948344,9.624985,0.99362403,1.0395668,-1.6203598,-0.49535796,-30.779999,-14.16,14.4
1554100752259,2.6696165,9.110215,-0.023942748,0.9662629999999999,-1.442598,-0.5271229000000001,-29.76,-15.179998999999999,15.24
1554100752280,2.5307484000000002,9.158101,0.7972935,0.81171405,-0.97956216,-0.66090244,-28.859999,-16.08,16.08
1554100752299,1.036721,10.125388000000001,1.2498114,0.7506276,-0.934969,-0.71649116,-28.14,-16.08,17.58
1554100752320,1.4126221,9.196409,-1.0175668,0.7457406,-0.28989527,-0.85393584,-27.119999,-15.78,18.48
1554100752339,2.719896,9.021627,0.39026679999999997,0.95099133,0.28920498,-1.088508,-26.279999,-15.719999,19.32
1554100752360,3.3495904999999997,8.243488000000001,0.30407290000000003,0.9558783000000002,0.2745442,-1.1807488000000002,-26.76,-16.98,21.06
1554100752379,3.0383348,8.605023,0.85954463,0.807438,0.16397761,-1.1593685,-26.64,-17.34,21.779999
1554100752400,2.2817439999999998,10.91071,0.17957062,0.6803781,0.101669356,-1.0341411,-25.8,-16.92,20.76
1554100752419,2.4996228,12.131789999999999,-1.1516461,0.48367944,0.38877603,-0.91257894,-25.26,-17.46,20.1
1554100752440,3.0766432,11.406325,0.105348095,0.35356513,0.7583495,-0.6596807,-24.84,-18.119999,19.8
1554100752459,3.3352248999999996,10.666494,0.21787901,0.15381221,0.7986666,-0.5118513,-24.84,-18.18,20.16
1554100752480,2.8707354,10.063137,1.2641771000000002,-0.07037534599999999,0.7638473000000001,-0.37196317,-25.08,-19.14,19.68
1554100752499,2.7342618,12.012075999999999,-0.21548474,-0.48393112,0.5402706,-0.25773138,-25.5,-19.32,19.199999
1554100752520,1.2857256000000001,13.470189999999999,-1.1420691,-1.3171513000000001,0.41259977,0.23401515,-25.08,-19.14,19.02
1554100752539,0.09337672,11.696033,-0.42618093,-2.0782893,0.7895036,0.70682484,-24.24,-20.4,18.18
1554100752560,-2.2027327999999997,11.473365,0.70870537,-2.574312,1.073556,1.1961278999999998,-24.18,-21.119999,18.539998999999998
1554100752579,-3.7518287000000003,13.094289,0.34956414,-2.7447432999999997,1.3130151,1.7025351999999998,-24.24,-21.779999,18.0
1554100752600,-3.799714,14.79183,-2.2314641,-2.7166436000000003,1.363717,1.8961793999999998,-25.92,-22.08,16.14
1554100752619,-4.233078,14.885206,-1.2953026,-2.9493833,0.49384484,1.798441,-26.699999,-21.42,14.4
1554100752640,-1.9824595,12.531634,2.9473522,-2.8125494,-0.56050855,1.6695485,-26.82,-21.359999,12.059999000000001
1554100752659,-0.06943397,11.62181,2.6456738,-2.3360743999999998,-1.0595854999999998,1.7514043999999998,-27.06,-21.9,11.46
1554100752679,1.3719195,12.308966999999999,-0.45251793,-1.3134861,0.5683704,2.216884,-27.96,-21.48,9.179999
1554100752699,2.5139885,11.88518,0.68236834,-1.4698677,0.7455213,2.514986,-28.859999,-21.119999,8.58
1554100752720,1.4605076000000001,8.794171,0.22266756,-1.9371796000000001,0.6593893,1.9071751000000001,-30.42,-19.32,7.5
1554100752739,0.7326481,7.7119594,2.0040080000000002,-1.8541018,0.959935,1.4111525,-31.08,-18.6,6.54
1554100752760,0.062251142999999995,6.964945299999999,0.098165266,-1.3983964,1.1951181999999998,1.0018728000000001,-31.32,-18.119999,5.16
1554100752779,-0.12929083,6.6800265,-0.84278476,-1.0410402,1.8707349999999998,0.9322341000000001,-31.26,-17.58,4.44
1554100752800,-0.28252444,6.318491000000001,-0.17478207,-0.74965745,2.3068929,0.9352884,-32.04,-16.68,2.7
1554100752819,-0.21069619,5.020794400000001,2.2889266,-0.18582888,2.3093364,0.9352884,-32.34,-15.96,0.42
1554100752840,-0.42618093,3.213117,3.8523881,0.56370276,1.6117283000000002,0.6341319000000001,-32.46,-15.599998999999999,-1.8
1554100752859,-0.531529,1.924997,3.4046587999999995,1.0597253,1.1780138999999998,0.24439986,-32.399998,-15.54,-3.6
1554100752879,-0.69673395,1.1708003,4.087027,1.460453,0.64839375,-0.1288388,-32.7,-15.599998999999999,-4.3199997
1554100752899,-1.3982565,1.0893950000000001,4.163644000000001,1.9216563000000002,-0.19948721,-0.63952214,-33.18,-16.32,-3.8999998999999996
1554100752919,-1.8268316999999998,2.205127,3.2801563999999996,2.0823138,-0.7278856,-1.0488018999999997,-32.88,-16.619999,-3.4199998
1554100752940,0.5219519,8.126168,3.318465,1.9528102999999999,-0.70406187,-1.4257057,-31.98,-17.82,-2.8799999
1554100752959,5.4062724,26.202944,11.169292,0.9222806999999998,-0.2782888,-1.0579648000000001,-32.579997999999996,-18.96,-2.04
1554100752980,7.319298299999999,30.28997,4.010410299999999,-0.79058546,0.5732573000000001,0.78806996,-32.1,-20.46,-1.14
1554100752999,3.4142358,8.631361,8.664881,-1.5077412000000001,1.0747777,0.9664425999999999,-31.08,-20.64,-0.96
1554100753019,2.3870918999999997,-0.10774237,10.276228,-0.46927035,0.37839133,0.82899785,-31.859999,-19.859999,-2.46
1554100753040,0.03351985,1.0486923000000001,3.5770466,0.2381116,-0.6973424,0.40200308,-32.219997,-19.56,-4.2599998
1554100753059,-3.2250881000000002,13.448642000000001,1.5658557,0.9760368,-1.1377763,-0.42327586,-32.1,-19.56,-4.8599997
1554100753080,-5.1548739999999995,22.034512,-0.016759925,0.83248353,-0.97956216,-1.714645,-33.0,-19.38,-3.36
1554100753099,-1.9968252,12.972180999999999,1.1444633,-0.13634878,-0.4810960999999999,-1.5991913999999998,-32.16,-20.279999,-2.04
1554100753119,1.4605076000000001,5.1524790000000005,-1.1947431999999998,-0.00501276,-1.4700868999999999,-1.2296181000000002,-31.679997999999998,-21.3,-2.28
1554100753139,0.014365649,3.4812756,-1.6233183,0.52766174,-2.303918,-0.9333483,-31.92,-22.32,-2.3999999
1554100753160,-0.5818088,6.8667803,-3.0383348,1.6766991999999998,-2.0510197,-0.74703443,-31.439999,-23.58,-1.0799999
1554100753179,1.3551594999999999,9.632168,-3.991256,2.2509127,-1.3271444,-0.794071,-31.439999,-23.699999,0.65999997
1554100753200,2.013585,11.660117999999999,-3.0527002999999997,2.068264,-0.6570253,-0.88020307,-31.26,-24.3,3.48
1554100753219,1.6999351000000003,11.420691,0.105348095,1.6473776999999998,-0.16894394,-0.75131047,-30.9,-25.32,5.2799997
1554100753239,0.08858817,9.694419,2.2578009999999997,1.4060860000000002,-0.66863173,-0.5075753,-30.84,-25.38,6.0
1554100753259,-0.29689008,8.786988000000001,0.30167863,1.3749319,-1.0009423000000002,-0.2607857,-30.48,-25.8,5.7599998
1554100753280,0.45970076,7.980117999999999,-0.72546524,1.2423741000000001,-0.76270497,-0.23757283,-29.939999,-25.8,8.34
1554100753299,0.30167863,9.12937,-0.32562137,1.1281421999999999,-0.95085144,-0.2943833,-29.88,-25.98,8.76
1554100753320,0.22027329,11.099858,0.20111908,1.1067619,-1.6252468,-0.24307062,-29.58,-25.68,10.019999499999999
1554100753339,2.3128695,9.953,1.3934678999999999,1.2051114,-1.9288467,-0.23024245,-29.76,-26.22,10.98
1554100753359,2.9114382,9.256267,-0.4764607,0.9571,-1.6991613999999997,-0.38906740000000006,-29.64,-26.099998,11.16
1554100753380,2.2937152000000003,8.480521000000001,0.20351335,0.57958525,-1.3124837,-0.5985942,-29.16,-25.74,14.16
1554100753400,2.1787900000000002,7.4030976,-1.0846065,0.65533257,-0.7614831999999999,-0.8441620000000001,-28.26,-26.16,14.94
1554100753419,1.6783867,7.9920893,-1.3695252,0.8990678,-0.37419468,-0.9583938,-28.199999,-26.699999,14.58
1554100753440,2.2266755000000003,9.404712,-1.2857256000000001,1.2271024,0.21834461,-1.0738473,-28.019999,-27.18,13.799999
1554100753459,3.1843855,10.755082000000002,0.75659084,1.2747499,0.27148990000000006,-1.1092776000000002,-27.42,-27.0,13.98
1554100753480,1.5634614,10.642551,0.8643332,0.8514203000000001,-0.13656808,-0.8844791,-27.48,-27.96,15.24
1554100753500,2.8348215,12.071933999999999,0.6895511,0.31691325,-0.033942726,-0.9877153000000001,-27.119999,-28.38,16.44
1554100753520,3.1795970000000002,12.091087,0.6847626,0.14403836,0.20062953,-0.7885733,-26.939999,-28.199999,16.38
1554100753539,2.7677817000000005,10.122993,0.43815228,0.025530502000000004,0.46024725,-0.36585453,-26.039998999999998,-28.08,16.98
1554100753560,2.8515813,11.171686,0.7685622,-0.26585224,0.63434386,-0.2522336,-25.14,-29.16,18.42
1554100753579,2.803696,14.487757,0.23703320000000003,-0.86083496,0.6581676,-0.075082675,-26.34,-30.06,17.58
1554100753600,1.8459859,14.686481,-0.11253092,-1.4784197000000001,0.77545375,0.23829120000000004,-26.519999,-29.82,17.64
1554100753619,1.5299416000000001,12.701628,0.3328042,-2.7129784,0.6013571,0.7324811999999999,-26.279999,-30.9,16.44
1554100753639,1.5586729,11.219572,1.3096683,-3.408143,0.86830527,1.1277110000000001,-26.699999,-31.199999,14.88
1554100753660,-0.49082634,12.062357,-2.291321,-3.2157204,2.044221,1.6096838,-27.72,-30.84,14.04
1554100753680,-1.1372806,13.719194,-4.577853,-2.660444,2.8230739,1.8747993000000003,-30.119999,-30.48,9.9
1554100753700,-2.8587642000000004,15.500535000000001,0.57223165,-2.9897006,1.5237637,1.6060184,-30.96,-30.06,6.2999997
1554100753720,-0.84278476,14.111855499999999,2.8396098999999997,-2.6036335999999998,-0.09808358,1.8631928,-31.5,-28.859999,2.8799999
1554100753739,0.92658436,11.796592,0.031125572,-1.7191006000000002,0.39549553,2.5247598,-32.399998,-28.38,1.5
1554100753759,2.3727264,12.028836,-0.06943397,-1.5706604,0.8927398999999999,3.0238366,-34.079997999999996,-26.34,-0.24
1554100753779,1.7669748,10.096657,0.87151605,-1.9548947,1.2959108,2.4636734000000002,-35.7,-24.0,-2.8799999
1554100753799,0.12450229,7.6185822,1.9489397000000002,-1.8363866999999998,0.7620147,1.5907468999999999,-38.879996999999996,-21.06,-6.42
1554100753820,-0.46927786,7.4414062,-0.48603779999999996,-1.4362700000000002,1.0136912,1.1698607,-39.719997,-19.56,-7.2
1554100753839,0.39744959999999996,7.0966306,-0.87151605,-1.0728052,1.7253491,1.1209915000000001,-39.899998,-18.539998999999998,-7.9199996
1554100753860,0.10055954,7.1062080000000005,-2.1476645,-0.7997485,2.3258297000000003,1.244997,-39.18,-15.42,-10.559999000000001
1554100753879,0.5770202,5.818087599999999,-0.66800267,-0.5737283000000001,2.6819642000000004,1.3928266000000002,-39.0,-14.639999,-11.58
1554100753903,-0.72785956,3.7135203000000003,3.9098508,0.037747808,1.8469113999999998,1.0941133,-38.46,-13.2,-14.88
1554100753920,-0.8044763,3.0694604,3.493247,0.52949435,1.6092848,0.80334157,-38.16,-12.84,-15.299999
1554100753939,-0.54828894,2.1644243999999997,4.1349125,1.1379161,1.1792356000000002,0.27555397,-37.98,-11.16,-16.56
1554100753959,-0.90982443,1.0079896000000002,3.6871831,1.5349785,0.43336916,-0.37135231,-37.98,-10.38,-18.18
1554100753980,-1.3623424,2.6504622,3.6560576,1.6748667000000002,-0.4719331,-1.0707928999999998,-37.98,-10.679999,-18.18
1554100753999,-0.6153286,6.835654700000001,3.8643596,1.3474428999999999,-0.74376816,-1.4501403999999998,-38.04,-10.86,-17.64
1554100754019,2.430189,13.633,8.197997,0.8135467,0.12121705,-1.2790979999999998,-37.62,-12.599999,-16.8
1554100754040,4.7286925,15.476592000000002,9.610619999999999,0.90212214,0.5091165,-0.5998159000000001,-37.559998,-13.74,-16.619999
1554100754061,3.1915683999999995,17.013718,5.6169686,0.07256712,0.91289836,-0.00300057,-36.719997,-14.519999499999999,-15.9
1554100754079,2.351178,11.947432000000001,5.952167,-0.22797857,0.6239591999999999,0.2993777,-36.18,-15.24,-15.78
1554100754100,0.6464542,5.832453299999999,6.447782,-0.047773328,-0.66802084,0.3806228,-36.54,-15.719999,-17.64
1554100754119,-2.0782306,11.693638,3.5483153,0.40793216,-1.1115091000000001,0.033651344,-36.78,-15.54,-18.06
1554100754140,-0.8667275,20.717659,0.8475733,0.9015113000000001,-0.9728426,-1.2919263,-37.32,-15.0,-15.839998999999999
1554100754159,-1.9489397000000002,14.099884,0.44294083,-0.040442944,-1.0650833,-1.4935117,-38.1,-15.9,-14.519999499999999
1554100754179,1.8723229,4.810098,-2.8779182,-0.15100954,-1.5959252,-1.0060413000000001,-38.219997,-16.74,-13.92
1554100754200,0.25618739999999995,3.4477558,-3.2346652000000002,0.5930243000000001,-1.4487066000000002,-0.7201564,-38.399998,-18.06,-12.719999000000001
1554100754219,0.30167863,4.901080599999999,-3.7374629999999995,1.6033953,-1.0601962999999999,-0.5478924,-37.8,-18.66,-12.42
1554100754240,2.1644243999999997,8.590658,-4.230683999999999,2.5068653,-0.58188885,-0.6193635999999999,-37.38,-20.22,-10.5
1554100754260,2.6432792999999997,10.937047,-3.093403,2.2961166,-0.7486550999999999,-0.85821193,-37.86,-20.699999,-9.719999000000001
1554100754279,0.011971374,11.43745,-0.55786604,1.5807935,-0.78103095,-1.0078738999999999,-37.98,-21.06,-8.82
1554100754299,-2.0231621,11.358439,2.1189332000000003,1.2130524999999999,-1.0656941,-0.735428,-37.8,-21.779999,-6.72
1554100754319,-1.324034,9.062330000000001,-0.48603779999999996,1.4219685,-0.72605306,-0.45442998,-37.8,-22.5,-4.74
1554100754340,-0.17717634,8.636149000000001,0.45251793,1.264976,-1.0876853000000002,-0.17159937,-38.1,-24.18,-2.46
1554100754359,0.76616794,10.118205,0.66800267,1.1537986,-1.5256756999999999,-0.01949393,-37.739998,-24.06,-1.92
1554100754380,1.2522057,9.744699,0.38068968,0.9326654000000001,-1.9508379,-0.03659816,-37.86,-23.58,-1.1999999
1554100754400,2.7342618,9.249083500000001,0.17238778,0.8556963,-1.9545029999999999,-0.12150843,-38.04,-24.0,0.9
1554100754419,4.0798445,9.148524,0.016759925,0.77506214,-1.9141859,-0.31209838,-37.62,-24.6,1.9799999
1554100754440,2.997632,8.679246000000001,-0.08858817,0.6944279000000001,-1.6063098,-0.5161274,-37.86,-24.66,4.08
1554100754459,1.7909175,7.6880164,-1.359948,0.7542926999999999,-0.9282495000000001,-0.62913746,-37.559998,-24.24,7.3199997
1554100754479,1.4174107,7.642525,-1.8771113999999998,0.8624159,-0.14756367,-0.9205201,-37.02,-24.84,8.34
1554100754499,1.8220432,9.196409,-1.036721,1.0945446,0.15420377,-0.8954747,-36.96,-25.98,9.0
1554100754519,2.5163830000000003,10.158908,0.37590113,1.2393197,0.10594541,-0.9223528,-36.66,-26.34,9.66
1554100754539,0.38068968,10.343266999999999,0.51955765,0.98947585,-0.07425983,-0.7384823,-35.76,-25.68,10.44
1554100754560,1.4772675,11.765467,0.91461295,0.47695994,-0.25079989999999996,-0.71588033,-35.399998,-25.56,11.28
1554100754579,1.9920366000000003,13.542017999999999,1.0822121999999998,0.24177680000000001,-0.31127554,-0.6486851,-35.34,-26.34,11.639999000000001
1554100754600,2.4182177000000005,11.006480999999999,1.0989721000000001,0.25338325,-0.16833308,-0.51001877,-34.559998,-26.939999,11.759999
1554100754619,4.1013927,9.933846,-0.05985687,-0.047162462,0.1358778,-0.5112404,-33.6,-27.3,12.059999000000001
1554100754639,4.989669,11.794198,0.49800915,-0.37397537,0.49262312,-0.37807184,-32.76,-27.24,12.66
1554100754659,4.496448,13.369631,-0.44054657,-0.73621845,0.62945694,0.09168354,-33.12,-27.48,13.019999499999999
1554100754679,3.9098508,12.378401,-1.4341706,-1.2963818,0.73086053,0.4490397,-33.66,-27.84,12.42
1554100754700,2.2554069,11.62181,0.06943397,-2.0263657999999998,0.97337407,0.8308305,-34.02,-27.84,11.099999
1554100754720,-0.35674694,11.368017,1.6113469999999999,-2.7502413,1.3215673000000001,1.4465827,-34.86,-28.619999,9.36
1554100754740,-2.6025767,12.124608,1.1731946000000002,-3.1167602999999997,1.3325628999999999,1.7624,-35.399998,-28.14,8.28
1554100754760,-4.3216662,14.188473000000002,-3.510007,-2.8082736,1.9532019,1.7953867,-35.7,-27.24,5.3399997
1554100754780,-5.593026,14.150164000000002,-3.3040992999999994,-2.90479,1.562859,1.5657014,-36.36,-26.099998,2.58
1554100754800,-3.0431232,12.66332,2.116539,-3.0966017000000003,0.33746335,1.2016257,-37.5,-24.6,-0.17999999
1554100754820,0.9217958,11.923489,5.94259,-2.5627055,-1.2153561000000002,1.490565,-37.44,-23.519999,-2.58
1554100754839,2.1668186,12.759089999999999,0.96489275,-1.4662024,-1.120672,1.979868,-38.04,-22.199999,-3.84
1554100754859,4.45814,12.287417999999999,-1.4365649,-1.5608866000000001,0.32707864,2.474669,-39.54,-20.76,-3.1799998
1554100754880,2.7869357999999997,9.220352,0.68715686,-1.8773147000000001,0.8047753000000001,1.9670398,-39.78,-19.02,-4.2599998
1554100754899,1.4150163999999998,7.692805,1.812466,-1.5932624,1.0478995999999998,1.4032111999999999,-39.84,-16.8,-6.12
1554100754919,0.14365649,6.984099400000001,0.0670397,-1.1729871,1.2879696000000003,1.0550181,-40.68,-15.54,-6.42
1554100754939,0.13886794,6.1173720000000005,-1.1612233,-0.8235722,2.0820944,0.9639991,-40.68,-14.16,-7.74
1554100754959,-0.21548474,5.3703585,-0.7829279,-0.48515284,2.6501992000000003,1.0580723,-40.8,-12.599999,-9.66
1554100754979,-0.5506831999999999,4.192375,1.2354459,-0.105194665,2.4626637000000002,0.99393153,-40.62,-12.0,-11.219999000000001
1554100755000,-1.0295382,3.4860642,3.4094474000000003,0.41465166,1.9086087999999999,0.73003775,-39.719997,-10.679999,-13.74
1554100755020,-1.1708003,2.813273,3.4190245000000004,1.0047475000000001,1.4028124,0.39222926,-39.48,-9.9,-15.96
1554100755040,-1.1827718,1.7119064,4.249838,1.4702268,0.8847985999999999,0.05258817,-39.059998,-10.08,-17.039998999999998
1554100755059,-1.6185298000000001,1.5131816999999999,4.249838,1.8709544999999999,0.022256875,-0.38784567,-38.7,-10.38,-17.76
1554100755079,-1.9106313000000001,3.8236567999999997,3.6800002999999997,1.9277648999999997,-0.7095597,-0.7983471,-38.219997,-11.099999,-16.26
1554100755099,-0.019154198,9.177256,4.0295644,1.6559297999999998,-0.89465183,-1.0628518,-38.399998,-12.3,-15.48
1554100755119,4.771789599999999,19.281095999999998,10.534809,0.5215531,-0.5128611,-0.7256541999999999,-38.82,-13.139999,-16.32
1554100755140,7.429435000000001,24.71131,8.399116000000001,-0.46255085,0.4510843,0.79601115,-37.5,-13.86,-15.599998999999999
1554100755159,5.7893567,10.956202000000001,5.233885,-0.8828261000000001,0.7485755999999999,0.97377294,-37.559998,-15.059999,-14.519999499999999
1554100755179,3.0167862999999997,4.8579836,9.7135725,-0.6360366,0.66427624,0.7844047,-37.92,-14.82,-14.519999499999999
1554100755199,1.4964218,0.5818088,8.827691,-0.06609928,-0.12679425,0.4490397,-37.26,-13.74,-16.02
1554100755219,-2.4086404,6.2945485,2.8563697,0.68587583,-0.94046676,-0.11845410000000002,-37.68,-12.66,-16.859999
1554100755240,-1.2689656,23.257986,0.65124273,1.446403,-1.1695412,-1.3719496,-38.28,-12.36,-16.32
1554100755260,-6.615381200000001,27.716125,1.7430321,-0.056936305,-0.50980675,-1.7433558,-39.239998,-12.84,-15.179998999999999
1554100755279,1.3575538,5.5331693,1.0319325000000001,-0.5755609,-1.3473030000000001,-0.7598626,-38.76,-13.38,-14.04
1554100755299,1.3982565,-0.05985687,-2.0925963,0.19168586,-2.0204766,-0.8490489999999999,-37.62,-14.94,-13.679998999999999
1554100755319,-1.7765520000000001,3.0431232,-3.6704233,0.9430501,-2.2697096,-0.92846143,-38.399998,-16.619999,-12.48
1554100755339,0.5219519,7.292961,-3.1365,1.8996650000000002,-1.5079606,-0.80934274,-39.42,-17.1,-10.8
1554100755360,2.135693,11.60505,-2.9042554,2.4091267999999997,-1.3216466,-1.1104993,-39.239998,-17.76,-9.54
1554100755379,2.3463893,14.676905,-2.0638650000000003,2.2063193,-1.1127307,-0.9406787,-38.879996999999996,-18.539998999999998,-7.08
1554100755400,2.5882110000000003,12.577126,1.5658557,1.5264263999999999,-1.7071026999999999,-0.55888796,-38.46,-19.98,-5.3399997
1554100755419,0.8044763,9.301758,2.2218869999999997,1.0640014,-2.3650043,-0.31026578,-38.7,-21.24,-4.02
1554100755439,0.18914771,8.528407000000001,-0.51716334,0.94427186,-1.3082076,-0.14472131,-39.239998,-21.6,-0.71999997
1554100755459,0.05985687,8.171659,-0.8140534,0.9803129,-0.70650536,-0.29499418,-38.28,-22.02,1.1999999
1554100755479,-0.07422252,8.379961999999999,-0.37350687,1.1415813,-1.2098583,-0.38540223,-37.62,-22.74,2.34
1554100755500,0.8978530999999998,8.679246000000001,-1.0343267,1.2173287,-1.8066738000000002,-0.5930964,-37.62,-23.4,4.92
1554100755519,2.918621,8.449396,0.023942748,1.2051114,-1.673505,-0.6841153,-37.02,-23.699999,7.2
1554100755540,2.5355369999999997,10.024828999999999,-0.08858817,1.0737753,-1.7510849,-0.7390932,-36.36,-23.699999,8.88
1554100755559,3.2897336000000004,8.578687,-0.0670397,0.8618049999999999,-1.3130946000000001,-0.77024734,-35.16,-23.58,11.28
1554100755579,1.3168511,8.822903,-0.6153286,0.71214306,-0.63442326,-0.8740943999999999,-34.62,-23.939999,12.179999
1554100755599,1.8771113999999998,8.504464,0.22745611,0.8886831000000001,-0.31982768,-0.95045257,-34.68,-24.18,12.059999000000001
1554100755619,2.4182177000000005,9.270632,-0.29928434,1.0829381999999999,-0.15978098,-1.1776944,-33.78,-24.72,12.48
1554100755640,2.2673783,9.687236,-0.076616794,1.0548385,-0.20437413,-1.0439148999999999,-33.899998,-25.38,12.84
1554100755659,2.185973,9.435837,0.34477556,0.77506214,-0.18604816,-0.9761089,-34.32,-25.98,13.559999
1554100755680,3.8787252999999997,11.054367,0.17957062,0.3327957,-0.09869444,-1.0769016000000002,-33.3,-26.46,14.219999
1554100755699,3.8212626000000003,13.113443,0.56744313,0.24238767,0.1309909,-0.91318977,-32.04,-26.82,14.58
1554100755719,2.971295,10.501289,0.11013664,0.2344464,0.63861996,-0.48619497,-31.199999,-27.66,15.66
1554100755739,3.0886145000000003,10.388759,-0.6943397,-0.15162042,0.9269483000000001,-0.3322569,-30.48,-28.26,16.68
1554100755759,2.8276386000000002,12.677685,0.74701375,-0.39291220000000004,0.9904783000000001,-0.18748187,-30.539998999999998,-28.5,15.42
1554100755780,2.1380875,13.877216,-0.031125572,-0.8541155,0.869527,0.20163928,-30.9,-28.859999,13.98
1554100755799,1.2569941999999998,13.065557499999999,-0.9026415999999999,-1.6708423,0.7870602,0.56693673,-30.779999,-28.92,14.4
1554100755819,0.505192,12.036019,0.24900457,-2.5810316,0.9183962,0.9151299,-31.199999,-28.859999,12.96
1554100755839,-1.7837347,10.960989999999999,2.4254005000000003,-3.263368,1.0845516000000002,1.2523276,-31.32,-29.519999,10.559999000000001
1554100755859,-2.5235654999999997,14.119039,0.47167215,-3.290246,1.2836936,1.7422415,-31.019999,-29.46,8.82
1554100755880,-3.3256476000000004,14.782252,-3.5866237,-2.7960563,1.585461,1.9548225,-32.82,-29.099998,6.12
1554100755899,-4.06069,14.827744000000001,-1.350371,-3.0349042,0.44802994,1.6426703999999999,-34.68,-28.859999,3.72
1554100755919,-0.53392327,12.038414,2.4254005000000003,-2.8229342,-0.6808489999999999,1.6194575,-35.16,-27.66,0.84
1554100755939,2.423006,10.970566999999999,1.9824595,-1.9677228,-0.789583,2.0458415,-35.76,-26.88,-1.14
1554100755959,4.982486,11.566742,-0.098165266,-1.5217911,-0.25018904,2.5632443,-36.78,-25.68,-1.62
1554100755980,2.803696,9.953,1.1253091,-1.8382194,0.39610642,2.0965433,-37.98,-23.82,-2.58
1554100755999,1.3096683,8.492493,1.0032011,-1.7136029,0.60746574,1.5198865,-38.7,-21.9,-3.78
1554100756019,0.5961744000000001,7.49408,0.77574503,-1.4057268,1.0381258,1.1894083999999998,-39.239998,-20.16,-4.2599998
1554100756039,0.28252444,6.7446722999999995,-0.4189981,-0.9958362,1.4596228999999998,1.0525746,-39.899998,-19.199999,-5.58
1554100756059,-0.18196489,6.471725,-2.2170985,-0.61465627,2.415627,1.1069416,-40.14,-18.18,-7.56
1554100756080,0.22266756,5.310501599999999,-0.8930645,-0.3012824,3.0118313,1.1649737,-39.78,-17.94,-9.12
1554100756099,-0.15802214,3.9170337,2.1452703,0.08478443,2.6349275000000003,0.896193,-39.899998,-17.4,-10.92
1554100756119,-1.1803774999999999,2.9210152999999996,3.4214187000000007,0.6254001,1.9513692999999999,0.49974152,-39.36,-15.66,-11.94
1554100756140,-1.1277034,1.7645805,3.5674694,1.1800658000000002,1.3563865,0.06236201,-39.0,-14.82,-14.099998999999999
1554100756159,-1.0127783000000001,0.9624985,4.242655,1.6828078000000002,0.4877362,-0.42022154,-39.059998,-15.24,-16.74
1554100756180,-1.5754328000000002,1.4652961000000002,4.070266999999999,2.0493271,-0.52385664,-0.8630988000000002,-38.64,-16.14,-17.279999
1554100756199,-0.7996878000000001,3.8691480000000005,3.4860642,2.257632,-1.2990447,-1.2662699,-38.34,-17.279999,-16.92
1554100756219,2.5187771,10.348056,5.657671499999999,1.9509778000000002,-1.0736353,-1.3780582000000001,-37.68,-18.84,-15.48
1554100756239,4.7119327,33.639559999999996,14.46142,-0.12596408,-0.5739476,-0.6364678,-37.739998,-20.82,-13.32
1554100756259,8.521224,23.341785,0.10055954,-1.2273542,2.025284,1.5638688,-37.98,-22.32,-12.24
1554100756280,3.318465,5.4900723,10.755082000000002,-1.2811103000000001,1.5029943000000001,1.2175082,-38.1,-22.439999,-13.08
1554100756299,3.15326,-1.2569941999999998,9.692024,-0.23714155,0.33868507,0.74225503,-37.98,-21.06,-14.28
1554100756319,-0.41660379999999997,-1.6137413,1.9130256,0.42014945,-0.7694245,0.26028234,-36.96,-19.38,-14.58
1554100756340,-4.908263,8.492493,0.6344828,1.1061511,-1.1145633,-0.5460596999999999,-37.8,-18.96,-16.199999
1554100756359,-1.9465453999999998,27.050516,-0.32801566,1.8581261999999998,-1.5995903,-2.2821388,-38.579997999999996,-19.56,-16.98
1554100756380,-4.1085753,22.333796,0.36632404,-0.095420815,-0.68879026,-1.4599142,-38.399998,-21.0,-15.179998999999999
1554100756399,3.2801563999999996,3.8859081,-2.343995,-0.5517371999999999,-1.3473030000000001,-0.39028913,-38.64,-22.74,-13.38
1554100756419,0.40463245,1.9273912,-1.333611,0.32363275,-1.8744797999999998,-0.75131047,-38.219997,-23.279999,-12.48
1554100756439,-1.6664151999999999,5.4421870000000006,-2.8372157000000002,1.1189791999999998,-1.8622625,-0.8197274,-38.219997,-24.539998999999998,-11.34
1554100756459,0.75180227,9.165284,-3.4262072999999997,1.9723580000000003,-1.3692942,-1.0396389000000001,-38.64,-25.38,-9.9
1554100756479,1.3407938,11.55477,-2.6767993,2.0444403,-0.9612360999999999,-1.1489837,-39.0,-25.68,-8.76
1554100756499,1.0654523,13.046403999999999,0.06464542,1.5838478,-0.9502405999999999,-0.68350446,-38.219997,-26.64,-7.08
1554100756520,0.69912827,10.477346,2.0494993000000004,1.138527,-1.6026447,-0.30049193,-37.44,-27.48,-4.98
1554100756539,0.15323359,9.028810499999999,1.637684,0.9870324,-2.0742326,-0.10257160000000001,-37.86,-28.619999,-1.68
1554100756560,0.69673395,8.559532,-1.7573976999999998,0.88257444,-1.1842021,-0.124562755,-38.52,-29.16,0.17999999
1554100756579,0.44054657,8.315316000000001,-0.94095,0.8501985999999999,-0.90014964,-0.30721146,-38.76,-29.039998999999998,0.48
1554100756599,1.4174107,8.760652,0.47406640000000005,0.9308328000000001,-1.3705158000000002,-0.49596882,-38.219997,-29.16,2.04
1554100756619,2.971295,9.402317,0.03351985,1.0249059999999999,-1.4780282,-0.59065294,-37.38,-29.279999,3.3
1554100756639,3.6871831,9.196409,0.20590763,0.9827564000000001,-1.4963541,-0.53445333,-37.32,-29.64,4.7999997
1554100756660,3.9050622,8.253065,0.22985038,0.82820743,-1.2318494,-0.6028701999999999,-37.26,-29.82,6.3599997
1554100756679,1.9130256,8.861211,-0.1340794,0.8043836999999999,-0.9245841999999999,-0.6896131,-36.899998,-30.24,7.8599997
1554100756699,1.3264283000000001,8.095042999999999,-0.4932206,0.99069756,-0.549513,-0.87531614,-36.18,-30.779999,9.24
1554100756719,1.6328955,8.174054,-0.5865973000000001,1.2313786,-0.060820795999999996,-1.2326723,-35.219997,-31.08,11.28
1554100756739,1.7621863000000002,9.522031,-0.45970076,1.269863,0.22872932,-1.3572888,-34.559998,-31.019999,13.08
1554100756760,1.7023293999999998,9.93624,-0.23463893,1.0493407,0.10655628,-1.1557033,-34.14,-31.5,12.9
1554100756779,2.578634,11.353651,0.22266756,0.6449479,-0.07242723599999999,-1.0451367,-33.48,-32.46,11.88
1554100756799,3.0048149,13.237945999999999,0.8739103000000001,0.42381462,-0.003399465,-0.8130079000000001,-33.3,-33.12,12.24
1554100756819,3.0287576,11.2914,0.24182175,0.3468456,0.3368525,-0.42388672,-32.28,-33.719997,13.74
1554100756839,3.6632404000000003,9.744699,-0.2657645,0.07256712,0.6771043999999999,-0.41166943,-30.539998999999998,-33.66,14.519999499999999
1554100756859,3.581835,10.711986,1.2186858999999999,0.07928664,0.8524226999999999,-0.40494990000000003,-30.42,-33.66,14.099998999999999
1554100756880,3.031152,13.132597,0.7039168,-0.21392868,0.529275,-0.16549072,-31.439999,-33.84,13.019999499999999
1554100756899,2.6265194,13.848486,-0.22027329,-0.7643182,0.3191374,0.093516134,-31.8,-34.44,11.639999000000001
1554100756919,1.9992193999999999,12.634588,-0.9601042,-1.5529453000000002,0.42848226,0.44293106,-31.439999,-34.98,11.219999000000001
1554100756939,0.9313729,12.33291,0.5913859,-2.2731555,0.93855476,0.9200168,-32.04,-34.14,11.16
1554100756959,-0.76137936,11.506885,0.9984126,-2.900514,1.1951181999999998,1.3836635,-32.88,-34.02,9.36
1554100756979,-1.4293821000000002,12.318543,1.4796618000000001,-3.2346573,1.0998231,1.7697303,-33.239998,-34.559998,6.24
1554100756999,-2.4445546,13.836514000000001,-3.0383348,-2.9188402,1.6208912,2.0140765,-33.6,-33.6,2.8799999
1554100757019,-4.0822387,13.889188,-3.2370596000000003,-2.9512157,1.3056848,1.8088258999999998,-35.399998,-31.679997999999998,0.65999997
1554100757039,-2.2745612,11.55477,3.1508656000000004,-2.6634984,0.32768947,1.3690028,-36.6,-30.3,-1.86
1554100757059,1.8699286,11.396749,3.8691480000000005,-1.6372447,-1.0485898,1.7672868999999998,-37.2,-29.64,-3.78
1554100757080,4.3599744000000005,12.77585,-0.40463245,-1.3965638999999999,0.0063743787,2.5546919999999997,-38.399998,-27.84,-5.7599998
1554100757099,2.5714512000000003,10.067925,0.5506831999999999,-1.8938081000000002,0.7583495,2.2400966,-39.239998,-25.74,-6.8399997
1554100757120,1.0750294,8.480521000000001,1.2498114,-1.9872705000000002,1.0692799,1.5516515,-40.32,-23.4,-7.14
1554100757139,0.28252444,8.020821,0.8547561,-1.7142137,1.4272468999999999,1.1405392,-40.739998,-21.0,-8.34
1554100757160,-0.33519846,7.778999000000001,0.011971374,-1.3531923000000001,1.4706184,0.97560555,-40.98,-19.92,-9.9
1554100757179,-0.30407290000000003,7.683228,-1.3120626,-0.84067637,2.0118449000000003,1.1222132,-41.52,-18.359999,-11.639999000000001
1554100757199,0.2657645,6.3951080000000005,-0.44054657,-0.48454198,2.3215537,1.2853142,-42.239998,-16.56,-13.08
1554100757220,-0.2681588,4.8986864,1.4940275,-0.19193754,1.9739714,1.0855613000000002,-41.46,-15.66,-14.639999
1554100757239,-0.44054657,3.4597269999999996,2.5211713,0.24666372,1.6324976999999998,0.6958293000000001,-40.2,-14.219999,-16.38
1554100757259,-0.8667275,2.3823035,4.0678730000000005,0.83553785,1.0998231,0.2486759,-39.059998,-13.44,-17.88
1554100757279,-1.3886794,1.1731946000000002,5.0830455,1.5117656000000002,0.30692008,-0.124562755,-38.579997999999996,-13.86,-19.5
1554100757299,-1.9585168000000002,0.28731298,4.812492400000001,2.2032652,-0.63381237,-0.58882034,-39.12,-13.32,-20.46
1554100757320,-1.403045,1.2091087999999999,4.326454599999999,2.5306889999999997,-1.3442486999999999,-1.0732365,-38.94,-13.62,-19.98
1554100757339,1.201926,5.4804949999999995,4.764607,2.372475,-1.456037,-1.6553911000000001,-39.6,-14.639999,-18.779999
1554100757359,4.8172809999999995,27.328253000000004,15.821368,-0.2542458,-0.052268684,-1.3774473999999999,-40.379996999999996,-16.44,-16.74
1554100757380,13.860456,35.815956,-0.85236186,-0.5889999,1.1700727,1.2993641000000002,-40.5,-18.0,-14.7
1554100757399,2.3535721,9.993703,7.632948,-1.604258,1.4199165,1.1222132,-39.6,-18.119999,-14.82
1554100757419,2.2027327999999997,-3.1341057,11.128589999999999,-0.39230132,0.12671483,0.7764635,-38.76,-17.34,-16.26
1554100757439,-0.71588814,-0.31604427,1.2929084,0.22467257,-1.2868274,0.33053187,-38.16,-15.42,-17.58
1554100757460,-0.5650489000000001,21.179754,2.6217308,0.8734114,-1.369905,-0.88020307,-38.219997,-14.4,-17.58
1554100757479,-5.420637999999999,26.119144,-1.2953026,0.48123595,-0.5824997,-2.090938,-39.12,-14.219999,-15.48
1554100757499,-0.39026679999999997,7.427040600000001,-0.5818088,-0.44605747,-0.60998863,-1.2332832,-39.239998,-15.0,-14.219999
1554100757519,1.8771113999999998,2.3846977000000003,-2.2889266,-0.011732277,-1.4236611000000001,-1.0616299999999999,-38.7,-17.22,-14.34
1554100757539,-0.9792584000000001,4.865166,-3.2633965,1.0554493999999999,-1.8940273999999997,-1.0530779,-38.16,-18.359999,-13.38
1554100757559,0.20111908,8.068706500000001,-4.5850363,2.249691,-1.1292241000000003,-0.94923085,-38.399998,-19.08,-10.74
1554100757579,1.0343267,10.846065,-4.278569,2.389579,-1.2245190000000001,-1.1227165000000001,-39.12,-20.4,-7.68
1554100757599,0.2657645,11.911517,-2.0183737,2.0700965,-0.9661231,-1.052467,-38.94,-21.66,-5.7599998
1554100757619,-0.34716985,11.743917,2.997632,1.2839129999999999,-1.2446777,-0.66090244,-37.739998,-22.92,-4.2
1554100757639,-0.42857520000000005,9.261055,2.6073654,1.0285712,-1.9202945,-0.41105857,-36.96,-23.82,-2.22
1554100757659,0.44294083,8.248277,-0.90024734,1.0218518,-1.4694761,-0.23085329999999998,-37.26,-24.24,0.0
1554100757680,0.43575802,8.605023,-1.0079896000000002,1.206333,-1.0601962999999999,-0.2980485,-37.44,-24.539998999999998,2.22
1554100757699,1.5107874,8.952193,-0.090982445,1.1910614,-1.3729593999999998,-0.36035675,-37.2,-24.9,3.48
1554100757719,2.4445546,10.015251,-0.25618739999999995,1.0114670000000001,-1.982603,-0.36768714,-37.38,-25.26,4.92
1554100757740,2.9617178,9.012051,0.5147691,1.1043185,-1.941675,-0.37135231,-37.44,-25.26,6.96
1554100757759,3.2035396,9.050359,-0.29210153,0.9082308000000001,-1.7407002,-0.40311729999999996,-37.2,-24.779999,7.98
1554100757779,2.8827069,8.734314999999999,0.5913859,0.5246074000000001,-1.0656941,-0.5894312,-36.84,-24.779999,8.82
1554100757799,1.9585168000000002,8.233911500000001,-0.057462595,0.49834022,-0.79874605,-0.6700654,-36.719997,-24.779999,9.3
1554100757819,2.2147042999999997,7.266624,-0.6440599,0.7658991999999999,-0.5201915,-0.939457,-36.18,-25.019999,9.78
1554100757839,2.3655436,8.849239,-1.1085492000000001,1.1751789,-0.19643287,-1.2265636,-35.399998,-25.619999,11.04
1554100757860,2.5858168999999998,9.074302000000001,-0.34477556,1.3437777,0.10228022,-1.1831923,-35.34,-25.859999,12.12
1554100757879,1.6520496999999998,9.356826,0.6943397,1.1513551000000002,0.04485889,-0.93273747,-35.04,-26.4,12.96
1554100757899,2.7127132,11.461393,0.69673395,0.5478203,-0.016227635,-0.89119864,-34.079997999999996,-26.64,13.2
1554100757919,2.82285,14.028056,0.13886794,0.17335989999999998,0.04485889,-0.776356,-33.0,-26.34,13.44
1554100757939,2.5953939999999998,11.327314,0.6440599,0.123879805,0.27820942,-0.5509467,-32.7,-26.58,14.519999499999999
1554100757960,3.3783216,10.276228,0.23463893,-0.048995055,0.48162752,-0.3701306,-32.52,-26.76,15.12
1554100757979,3.8284453999999997,12.79261,1.1779832000000001,-0.31349970000000005,0.72169757,-0.20397523,-32.219997,-26.76,14.28
1554100758000,3.3950818,14.787042000000001,-0.43336374,-0.7637074,0.7229193,0.24806505,-31.679997999999998,-27.599998,14.16
1554100758019,3.3136763999999994,14.085519,-1.7813405,-1.4271071000000002,0.86464006,0.5437238,-31.92,-27.96,13.92
1554100758039,2.2123098,12.797399,-1.4245936000000001,-2.1998515,1.2849153,0.87359107,-32.579997999999996,-27.3,13.139999
1554100758059,-1.010384,12.000105,1.5083932,-2.723363,1.5824068,1.4215373,-32.52,-26.939999,11.639999000000001
1554100758079,-2.5929997000000005,13.556384,1.4652961000000002,-3.2444313,1.367993,1.8277626,-33.0,-26.4,9.0
1554100758100,-5.1261425,14.612259,-3.3807160000000005,-3.022687,1.5115464,1.8131018,-33.78,-26.16,6.8399997
1554100758119,-6.3280683,13.094289,-2.4086404,-3.1033213,1.0711125,1.376944,-34.32,-25.26,4.98
1554100758140,-2.2793495999999998,10.094261999999999,3.3998702000000005,-3.0642259999999997,-0.3387645,0.94384056,-35.1,-23.64,2.52
1554100758159,1.2186858999999999,10.884374000000001,4.4988421999999995,-2.4771843,-1.5721015,1.2010148,-36.3,-23.519999,0.17999999
1554100758180,3.0407290000000002,13.288225,0.15323359,-1.5602757,-0.9991098,2.0189633000000002,-36.48,-23.76,-1.14
1554100758199,3.3783216,10.228342,-1.3024855,-1.7881284,0.24583356,2.3231742000000004,-36.3,-22.56,-0.71999997
1554100758219,2.030345,8.336864,0.90503585,-1.9408448,0.59952456,1.8039389,-37.2,-20.16,-0.96
1554100758240,1.2833313,7.434222999999999,1.6352897,-1.6732857,0.87868994,1.2914228,-38.28,-18.539998999999998,-3.0
1554100758259,0.4189981,7.843644,0.6201171999999999,-1.250567,1.113873,1.1625303,-38.82,-17.82,-4.02
1554100758279,0.6201171999999999,7.472532000000001,-0.9696813,-0.8192961,2.0045147,1.2437753999999999,-39.059998,-17.34,-4.3199997
1554100758300,0.55307746,6.533976,0.04070267,-0.43628362,2.5750627999999995,1.3763331,-39.0,-16.619999,-5.2799997
1554100758319,0.48364350000000006,4.905869,1.9656997,-0.15284215,2.4315095,1.2456081,-38.879996999999996,-15.36,-7.56
1554100758340,-0.12689656,3.3208592000000006,3.4118416,0.4018235,1.8322506,0.8070068,-38.76,-14.34,-9.9
1554100758359,-0.27773590000000004,2.2027327999999997,3.4429672,0.87646574,1.341115,0.35924253,-38.52,-12.84,-11.88
1554100758379,-0.45491222,2.1931557999999995,3.6871831,1.3126235000000002,0.7479648,-0.023159122,-38.04,-12.24,-13.08
1554100758400,-0.8739103000000001,2.3032923,3.7494342000000005,1.7811573,-0.26973674,-0.35119376,-38.04,-13.139999,-12.96
1554100758419,-1.2761483999999998,2.2410412,3.1867797,2.1183548,-0.9435210999999999,-0.604092,-37.739998,-13.799999,-11.82
1554100758440,-1.2953026,2.7582044999999997,2.310475,2.2539667999999997,-1.2880491000000003,-0.9266288,-37.26,-14.4,-10.92
1554100758459,-0.052674048,6.735094999999999,4.3958883,2.134848,-0.7975243000000001,-1.161201,-38.52,-15.24,-9.66
1554100758479,3.6105663999999997,18.780691,12.407132,0.5856939,0.031419855,-0.91013545,-38.16,-16.74,-7.98
1554100758499,9.677659,40.29325,8.099832000000001,-0.61221284,0.90190285,0.8851975000000001,-37.5,-18.18,-7.02
1554100758519,5.777385,11.427874000000001,5.4110613,-1.9695554,1.7717749,0.93040156,-37.62,-18.72,-7.2
1554100758540,3.9409763999999994,0.6273,11.710398,-0.95307565,0.48651448,0.72270733,-37.32,-18.119999,-9.0
1554100758559,0.93616146,-2.9258040000000003,6.890722800000001,-0.11924456,-0.8989279,0.41177693,-37.26,-17.039998999999998,-9.78
1554100758579,-1.4964218,2.0806248,0.65842557,0.67549115,-1.5892057,-0.19053620000000002,-37.26,-15.9,-9.48
1554100758599,-0.5363176,24.069645,2.8827069,1.4134163999999998,-1.3815114,-1.3218586,-37.62,-15.54,-8.58
1554100758620,-5.62894,24.759195000000002,-0.30167863,0.4555795999999999,-0.87082815,-1.6450063000000001,-38.16,-16.74,-6.3599997
1554100758639,1.5107874,8.051947,-0.20830189999999998,-0.7771464,-1.2501753999999998,-0.6731196999999999,-37.739998,-18.6,-4.5
1554100758659,3.668029,1.8459859,-1.5203645000000001,0.026752232,-1.5983686000000001,-0.74581265,-36.6,-19.56,-4.68
1554100758679,-0.66321415,5.3033185,-1.6257126,0.95771086,-2.0736217,-0.8814248,-36.66,-19.8,-5.64
1554100758700,1.446142,9.845258,-3.3831102999999993,1.8312482,-1.4920781,-1.1880791000000002,-36.6,-20.52,-4.14
1554100758719,1.6185298000000001,11.023241,-3.5076127,1.9876296999999998,-1.1444957,-1.3725604,-35.82,-21.66,-0.78
1554100758739,1.9369683000000002,11.016058000000001,-1.1348863,1.8117005000000002,-0.8732715,-1.2009073000000001,-36.48,-22.98,1.3199999
1554100758759,0.55786604,10.644946000000001,0.75659084,1.3999773000000002,-0.87876934,-0.7073282,-36.0,-24.0,1.9799999
1554100758779,1.5203645000000001,9.866806,2.8467927000000004,1.0859926000000002,-1.2507863000000001,-0.47031248,-34.68,-24.72,3.12
1554100758805,0.45970076,7.975329400000001,-1.3647367,0.9503805000000001,-1.5012411,-0.41166943,-34.739998,-25.14,5.04
1554100758819,0.60335726,8.334471,-2.0351336,0.93755233,-0.5916627,-0.50574267,-34.98,-25.859999,6.18
1554100758840,0.6943397,8.870789,0.54350036,1.0499516000000002,-0.5379065,-0.47581026,-34.26,-25.68,7.74
1554100758859,2.2434354,9.672871,1.4772675,1.015743,-1.3912853,-0.43182796,-34.14,-25.439999,8.28
1554100758880,2.6863763,9.390346000000001,0.30646718,0.92350245,-1.6276902,-0.27666822,-33.899998,-25.98,8.82
1554100758899,3.067066,9.12937,-0.08140534,0.8037728,-1.4670326,-0.27544647,-32.76,-26.22,10.98
1554100758919,2.4637089,8.892337,-0.11971374,0.6406718000000001,-0.9789511999999999,-0.46725816,-31.98,-26.46,12.84
1554100758939,1.6999351000000003,8.779805999999999,0.04070267,0.7115322,-0.54523695,-0.67922837,-31.32,-26.22,13.86
1554100758960,1.0055954,8.909097000000001,0.09337672,0.9070090000000001,-0.23980433,-0.89364207,-31.56,-26.22,14.4
1554100758979,2.5379312,9.043175999999999,-0.5794145,1.1110381,0.05463273,-1.2027398,-31.619999,-26.939999,14.58
1554100759000,2.3344178,10.427067,-0.47406640000000005,1.192283,0.010650435,-1.3322433,-30.66,-27.42,15.78
1554100759019,1.6616267,9.373586,0.45970076,1.025517,-0.08586627,-1.2742111999999999,-29.22,-27.359999,16.26
1554100759039,2.3751206000000002,10.515655,1.2833313,0.5362139,-0.13962242,-1.1947987,-28.199999,-27.72,17.4
1554100759059,3.1867797,11.978557,0.5602603,0.12571241,0.056465327999999995,-0.96816766,-27.96,-28.8,17.64
1554100759079,3.3400133000000003,10.690437,1.0008069,0.042023864,0.3050875,-0.6297483,-26.699999,-28.98,17.16
1554100759100,2.9928436,9.663293,1.3312168,0.1800794,0.06440658,-0.39151087,-26.34,-28.92,17.82
1554100759119,4.2019525,10.867614,0.17238778,-0.089312166,0.24461183,-0.28277686,-26.699999,-29.279999,17.76
1554100759139,4.3575800000000005,12.835708,0.27773590000000004,-0.52363735,0.45047343,0.0024972172,-26.16,-29.939999,17.699999
1554100759160,3.440573,12.627405,-1.1133378,-1.1790957,0.5030078,0.47286347,-25.74,-30.359999,16.38
1554100759179,1.9633054,12.091087,-1.4006507,-2.0288093000000003,0.9971978000000001,0.8900844000000001,-26.039998999999998,-30.539998999999998,15.36
1554100759199,-1.1229149,11.942642999999999,0.9792584000000001,-2.6250138,1.3710474,1.549208,-26.4,-30.42,15.299999
1554100759219,-1.7933118000000001,13.024855,2.5020173,-2.8412599999999997,1.2757523000000002,2.1032627,-26.88,-29.76,13.5
1554100759239,-3.8739367,16.058401,-2.3416007000000003,-2.8217125,1.6422715,2.2443726,-28.32,-30.42,11.4
1554100759260,-6.098218,15.079143,-2.0375278000000003,-2.9249487000000003,0.9067896999999999,1.8405907,-29.34,-30.48,9.719999000000001
1554100759280,-3.1819912999999995,11.22436,2.3056867000000003,-2.851034,-0.38091418,1.2419428,-30.72,-29.22,6.8399997
1554100759299,1.3886794,11.712792,3.8619652,-2.1894667,-1.4389328000000001,1.5027822,-32.16,-28.439999,3.78
1554100759320,3.9697077000000003,13.846091,1.5395187,-1.2108607,-0.8989279,2.4123607000000002,-32.28,-28.38,2.04
1554100759340,3.7111259,10.446221000000001,-1.3527653,-1.6317469999999998,0.0014874570000000002,2.3347807,-32.88,-28.199999,1.8
1554100759360,2.013585,8.324894,0.61293435,-1.8040109,0.7803405999999999,1.8124909,-33.42,-26.16,2.1599998
1554100759379,1.3264283000000001,7.3767605,1.3024855,-1.6097558,1.0436235999999999,1.3256313999999998,-34.739998,-23.88,1.26
1554100759399,0.81165916,6.9505796,0.6488484999999999,-1.1467198,1.2256614,1.0073706,-36.239998,-23.1,-0.12
1554100759419,0.27055305,6.821289,-1.0726352,-0.70201004,1.9110522,0.95911217,-36.42,-22.14,-2.1599998
1554100759440,0.43096948,6.7135468,-0.68236834,-0.24630454,2.8139112,1.1167154,-36.18,-21.24,-4.38
1554100759459,0.08619389,5.1596622000000005,1.5586729,0.1116625,2.6489775,1.032416,-35.219997,-20.939999,-5.4
1554100759479,-0.73743665,3.624932,3.294522,0.54537684,2.0527729999999997,0.70010537,-35.16,-19.92,-6.8999996
1554100759499,-0.749408,2.2458298,3.2705792999999996,1.0291821,1.4687858,0.25722802,-35.52,-19.5,-9.179999
1554100759519,-0.72546524,1.4940275,4.0942099999999995,1.4347966,0.88174427,-0.15266255,-35.52,-19.619999,-10.74
1554100759540,-1.333611,1.4509305000000001,3.5195839999999996,1.8752304,-0.076703295,-0.62425053,-36.18,-19.74,-11.4
1554100759559,-2.1237217999999998,3.337619,2.2242813,2.000458,-1.0149924000000001,-1.0371953999999999,-35.34,-19.92,-11.04
1554100759579,-1.2067145000000001,6.8955116,1.8555629,1.8886696,-1.4768063999999999,-1.2455003999999998,-34.38,-20.82,-10.26
1554100759600,1.7789462,14.186078,6.3735595,1.4598421,-0.9038148000000001,-1.1043906000000001,-34.739998,-22.5,-8.58
1554100759619,4.6832013,32.868603,10.405519,-0.44911179999999995,-0.007064656999999999,-0.11234545,-33.96,-23.939999,-6.72
1554100759640,7.8197017,17.849320000000002,5.1189594000000005,-1.6348013000000001,1.4321339,1.6273988000000001,-33.36,-24.24,-5.52
1554100759659,6.122161,3.0000262,11.478153,-1.1442765,0.78339493,0.9872120000000001,-33.42,-23.22,-6.06
1554100759680,4.7191157,-2.3368123,8.102226,-0.12046629,-0.55073476,0.5620498,-33.54,-22.439999,-8.28
1554100759699,0.7733508000000001,-1.350371,-0.10774237,0.603409,-1.1903107,0.06236201,-33.719997,-22.02,-9.0
1554100759719,-3.1293173,12.330515,1.2905141000000002,1.3040714,-0.9282495000000001,-0.88264656,-33.42,-21.48,-7.7999997
1554100759739,-1.8148602999999999,29.499859999999998,-1.0726352,1.8184200000000001,-1.1243372,-2.2741976000000004,-33.719997,-22.38,-6.66
1554100759759,-1.802889,21.153418,1.4916332,-0.6427560999999999,-0.21231538,-1.4299818000000002,-33.899998,-23.82,-5.04
1554100759780,2.753416,2.5714512000000003,-0.17717634,-0.75637704,-0.7584289000000001,-0.6407439,-33.78,-24.6,-3.72
1554100759799,0.0023942748,1.036721,-0.37111259,0.20268142,-1.6252468,-0.7598626,-32.94,-25.68,-4.7999997
1554100759820,-1.3695252,5.262616,-3.6033835,1.2069439,-1.8952491000000002,-1.0866755,-32.579997999999996,-26.88,-5.3399997
1554100759839,0.5913859,10.075109,-4.460534,1.7945962,-0.9856708000000001,-1.3224695,-32.52,-27.06,-3.72
1554100759859,1.5059988000000002,11.581107000000001,-2.7414446,1.9607515,-0.20254153,-1.2455003999999998,-32.16,-26.22,-1.38
1554100759880,1.0055954,12.196436,0.42139238,1.5343677,-0.19032423,-0.7287085,-31.019999,-27.0,-0.29999998
1554100759899,0.84039044,11.090281,1.8627458,1.1049294,-1.2287952,-0.24184887,-29.939999,-28.859999,0.53999996
1554100759919,-0.8571504000000001,9.3831625,3.7278860000000003,0.80194026,-1.7064918000000002,0.0819097,-30.179997999999998,-29.58,1.9799999
1554100759939,-0.45012367,7.257047,-2.3344178,1.0688883,-1.6973287000000001,-0.021326527,-30.359999,-29.88,2.82
1554100759960,-1.2881198,9.399923,-1.0151725,1.0731645,-1.2013061,-0.035376426,-30.359999,-29.82,4.2
1554100759979,0.27294734,9.052753,0.13886794,1.1525769,-1.3253119,-0.3432525,-29.76,-29.76,7.62
1554100760000,1.7095122,9.229928999999998,0.17957062,1.0859926000000002,-1.5623274999999999,-0.549725,-29.279999,-29.16,9.12
1554100760019,3.3064934999999998,8.906702000000001,-0.19872479999999998,1.0756079,-1.9642769,-0.5833225999999999,-29.519999,-28.8,8.76
1554100760040,3.0479119999999997,8.818114,-0.6344828,0.78117085,-1.6350205,-0.57232696,-28.859999,-29.039998999999998,9.84
1554100760059,1.4054393,9.316123,-0.39026679999999997,0.6559434000000001,-1.2116909,-0.6688437,-27.72,-28.74,12.179999
1554100760079,1.7166951000000001,8.274613,-0.36392978,0.73841023,-0.7016185,-0.8099536,-27.359999,-28.619999,15.24
1554100760100,2.578634,8.008849,-0.014365649,0.94182837,-0.4847613,-1.0854537,-26.82,-28.74,15.839998999999999
1554100760119,2.638491,9.57231,-0.34956414,1.0719426,-0.50797415,-1.1996856000000002,-26.16,-29.279999,15.36
1554100760139,3.189174,9.361614,-0.6847626,1.0487298,-0.34181880000000003,-1.1123319,-24.9,-29.58,16.14
1554100760159,3.0790374,9.282603,0.14605077,0.6950388000000001,-0.021725422,-0.8472163,-23.88,-29.88,17.46
1554100760179,4.5682764,12.136579,1.3383996,0.32546532,-0.07853589,-0.82033825,-23.039998999999998,-30.779999,18.66
1554100760200,3.991256,13.709617999999999,0.15562786,0.21673132,0.10594541,-0.6615133000000001,-21.779999,-30.84,19.08
1554100760219,2.9042554,9.747093,0.35435268,0.21917479,0.47185370000000004,-0.3945652,-21.66,-30.66,18.84
1554100760239,3.031152,10.055954,-0.06464542,-0.17238984,0.8004992,-0.35485893,-22.199999,-31.14,18.06
1554100760259,3.440573,12.653742999999999,1.0510867,-0.50592226,0.87319213,-0.25712052,-21.96,-31.56,17.699999
1554100760279,3.0622776000000003,14.298608999999999,-0.8475733,-1.114955,0.93122435,0.088629216,-21.6,-32.1,18.359999
1554100760300,2.667222,13.348082000000002,-1.5658557,-1.8253913,1.163964,0.49363288,-22.26,-32.28,17.64
1554100760319,1.2186858999999999,12.033626,0.36392978,-2.5028408,1.4186949,1.018977,-22.38,-32.82,15.719999
1554100760339,-1.7454262999999999,11.198023,1.2953026,-3.1662405,1.4174732,1.5846381999999999,-22.98,-32.82,13.32
1554100760359,-3.5171897000000003,12.85965,-0.21787901,-3.177236,1.6813668000000002,1.8650254000000002,-24.24,-33.0,11.4
1554100760379,-4.558699,14.281849,-2.3655436,-2.8027756,1.8108703999999998,1.9138945,-25.32,-32.88,9.059999000000001
1554100760400,-4.63771,14.272272000000001,0.076616794,-3.0715562999999997,0.311807,1.5040040000000001,-26.76,-31.98,7.14
1554100760419,-0.74701375,13.072741,4.8555894,-2.8876858,-1.2074148999999998,1.5363798999999998,-27.84,-31.32,3.8999998999999996
1554100760439,2.308081,12.356853,0.9026415999999999,-1.9206861000000002,-1.4780282,1.9621529999999998,-28.92,-30.599998,0.84
1554100760460,4.1253357,12.095877,-1.2737542,-1.4759763000000001,-0.0040103304,2.4936056,-30.0,-29.76,0.42
1554100760479,3.4621215,9.72315,-0.09337672,-1.8583778999999998,0.42664966,2.1099825,-30.96,-28.68,-0.9
1554100760499,2.4996228,8.231517,0.7110996,-1.8449388999999998,0.98559135,1.5962446000000001,-32.7,-27.66,-1.5
1554100760520,1.620924,7.3576064,1.4365649,-1.5236238000000002,1.0869950000000002,1.2688209,-33.36,-26.099998,-2.22
1554100760539,0.68236834,6.8021345,0.076616794,-1.0911312,1.5433112,1.1484803999999997,-33.36,-24.3,-4.2599998
1554100760559,-0.102953814,6.399896599999999,-1.7406378,-0.57495004,2.782146,1.2902011999999998,-34.02,-23.039998999999998,-6.24
1554100760579,-0.007182824399999999,5.1405080000000005,0.028731298,-0.22125906,3.118733,1.3445681,-34.079997999999996,-21.84,-7.8599997
1554100760600,-0.6847626,4.0678730000000005,2.7821474,0.15381221,2.6447015,1.0751766,-34.079997999999996,-21.06,-8.94
1554100760619,-1.2976969999999999,3.407053,3.8691480000000005,0.75734705,1.8853958999999998,0.67933595,-34.14,-20.34,-10.679999
1554100760640,-1.010384,2.7318675999999997,3.4573328,1.228935,1.3282868,0.24928677,-33.6,-19.439999,-12.96
1554100760659,-0.46688359999999995,1.6712039,3.5866237,1.6412691000000001,0.6398416,-0.2223012,-33.719997,-19.56,-14.219999
1554100760680,-0.92658436,1.5083932,3.9457648,1.9937383000000002,-0.37358379999999997,-0.5875986,-33.96,-20.22,-14.4
1554100760699,-1.594587,2.7773588,3.7973199999999996,2.1959348,-1.4181633,-0.8710401,-34.02,-21.6,-13.32
1554100760720,-0.68236834,6.301731,3.8140797999999996,2.1934912,-1.7565827,-1.0481911,-33.6,-22.859999,-11.219999000000001
1554100760739,2.7318675999999997,17.408772,10.070319999999999,1.0688883,-0.7003967,-0.9382353000000001,-33.48,-23.939999,-9.36
1554100760760,8.820508,40.353107,5.95935,-0.34892990000000007,1.0197998,0.9707186,-34.2,-24.72,-8.76
1554100760779,8.865999,12.581914,3.4262072999999997,-1.726431,1.6954167000000002,1.350066,-33.719997,-24.18,-8.76
1554100760800,3.0981915,1.4269878,12.507691000000001,-0.97017986,0.49689916,0.80578506,-33.84,-23.64,-9.599999
1554100760819,1.498816,-4.206741,7.4222517,0.10249952,-0.51041764,0.28166264,-34.14,-23.039998999999998,-10.2
1554100760839,-0.63208854,-2.5331428,0.749408,0.6913736,-1.043703,-0.34813944,-33.84,-22.56,-11.519999499999999
1554100760860,-2.8491871,16.551622000000002,3.213117,1.6693688999999998,-0.88060194,-1.3524018999999998,-34.739998,-22.32,-12.48
1554100760879,-2.8803127,30.663477,-1.7765520000000001,1.7206815,-1.1713737,-2.2100565,-35.16,-22.68,-10.559999000000001
1554100760899,1.2138973,18.361694,1.4293821000000002,-0.41001642,-1.5690471000000001,-0.41533459999999994,-34.739998,-23.82,-8.88
1554100760920,5.3943010000000005,1.6688095,-1.6783867,-0.18827234,-1.3149271,-0.037209023,-34.2,-24.359999,-7.259999799999999
1554100760939,-0.76616794,2.0782306,-0.23942748,0.6223458000000001,-1.6759485,-0.49474709999999994,-33.84,-24.66,-6.8399997
1554100760960,0.21069619,5.6457,-3.1963567999999998,1.2991846000000002,-1.2379581,-1.1129427,-33.54,-25.56,-6.24
1554100760980,0.9864412,8.61939,-3.5435266000000003,1.7622203999999997,-0.15245059,-1.5930828000000001,-33.0,-25.56,-3.9599998
1554100760999,0.8547561,10.362421000000001,-2.9234095,1.7970396,0.21590115,-1.6095761999999998,-33.12,-26.88,-3.3
1554100761019,-0.3232271,12.739936,-1.3910737,1.5447524,0.26904646,-0.98282844,-32.7,-28.38,-2.52
1554100761040,1.4700848,10.707197,0.9984126,1.4476248,-0.993612,-0.28705293,-32.1,-28.68,-1.5
1554100761059,-0.45251793,10.192428,0.9074302,1.0786623,-1.3760136,0.24501073,-31.8,-29.64,-0.35999998
1554100761079,-0.87151605,8.717555,-2.4014575000000002,0.9448827,-1.3582985,0.09718133,-31.14,-29.64,0.78
1554100761099,-1.2330515,9.107821000000001,0.043096945,1.2277132,-0.36319908,-0.09951728,-31.32,-29.82,1.38
1554100761120,-0.117319465,9.840469,1.5730386,0.8972351999999999,-1.1084546999999998,-0.31393096,-32.219997,-30.119999,3.48
1554100761139,1.7645805,8.937828,0.11492519,0.91861546,-1.8304973999999998,-0.32737002,-31.8,-29.279999,5.4
1554100761159,2.4900458,9.229928999999998,-0.8571504000000001,0.9222806999999998,-2.0345263,-0.43915835,-30.66,-29.46,6.0
1554100761179,2.753416,9.387952,-0.3232271,0.6767128000000001,-1.5385038,-0.51857084,-30.359999,-29.939999,7.3799996
1554100761199,1.8579572,9.167678,0.062251142999999995,0.5863048000000001,-1.2929361000000001,-0.6486851,-31.019999,-29.34,9.48
1554100761219,2.1931557999999995,8.025609,-1.0199611,0.70298004,-0.8573891,-0.76902556,-30.96,-29.939999,10.62
1554100761239,2.9665065,8.219545,-1.3312168,0.9632086999999999,-0.4371138,-1.0689604,-30.179997999999998,-30.9,11.04
1554100761260,2.5810282000000004,9.244295,-0.79250497,1.1446357,-0.21659143,-0.95717204,-29.279999,-31.32,12.179999
1554100761279,3.0981915,9.421472,0.021548472000000003,1.0493407,-0.22025663,-0.8875334,-28.32,-31.56,13.139999
1554100761299,2.8204557999999995,10.288198,-0.12450229,0.6302871,-0.150618,-0.8130079000000001,-28.08,-31.26,13.799999
1554100761320,3.4309957000000004,12.560366,1.158829,0.33646092,0.0063743787,-0.82400346,-28.019999,-30.779999,14.04
1554100761339,2.6744049,11.296188,1.1277034,0.27293095,0.12060618,-0.6352460999999999,-27.42,-31.38,15.179998999999999
1554100761360,2.4062462000000004,9.340066,-0.7110996,0.08295184,0.5311076,-0.40556076,-27.359999,-32.04,15.96
1554100761379,2.8803127,10.197216000000001,-0.8379962,-0.18949406,0.8371511,-0.38540223,-27.06,-31.92,14.46
1554100761399,3.2562137000000004,12.780639,0.24900457,-0.29761723,0.90984404,-0.13922353,-26.46,-31.74,14.04
1554100761419,3.2107224,13.7575035,-0.062251142999999995,-0.6244301,0.6905435000000001,0.18820025,-27.24,-31.74,13.86
1554100761439,2.011191,12.49572,-0.25858167,-1.2615626,0.57753336,0.51073706,-27.72,-32.04,13.08
1554100761459,1.2067145000000001,12.763879,-0.5147691,-2.1149414,1.1346425,0.77524173,-28.199999,-32.28,12.36
1554100761480,-1.5802213999999999,11.722369,2.2458298,-2.8773009999999997,1.1945073999999998,1.2370558999999999,-28.859999,-32.52,9.78
1554100761499,-1.8890828000000002,12.665713,0.06943397,-3.2652006,1.1040993000000001,1.5510406,-29.22,-31.859999,6.72
1554100761519,-2.3966691000000004,13.412726999999999,-3.5411325,-2.9292245,1.481003,1.7471284,-30.359999,-31.439999,4.2
1554100761539,-3.1795970000000002,13.276254000000002,-2.82285,-2.7936125,0.95382637,1.5944120000000002,-31.439999,-31.08,1.92
1554100761560,-1.8316202000000001,12.730359,1.3096683,-2.7520738,0.124882236,1.2993641000000002,-32.399998,-29.64,-1.02
1554100761579,1.0989721000000001,12.514874,2.4445546,-2.288427,-0.6417537,1.6927613000000001,-33.3,-29.039998999999998,-3.3
1554100761600,3.8284453999999997,11.013664,0.6488484999999999,-1.9176319,-0.4481094,2.1619057999999995,-33.78,-27.3,-4.02
1554100761620,3.1341057,9.337671,0.32562137,-1.8779256000000002,0.17375144,1.8699123,-35.16,-24.66,-5.04
1554100761640,2.4684972999999997,8.303345,0.70631105,-1.840052,0.50361866,1.3964916,-36.48,-23.4,-4.98
1554100761659,1.1803774999999999,8.020821,2.2434354,-1.5071303999999999,0.7687341999999999,1.1466478,-36.48,-21.6,-4.3199997
1554100761680,0.93616146,7.039167999999999,1.6137413,-0.9909493,0.93122435,1.0147009,-36.719997,-20.1,-5.7
1554100761699,0.68715686,7.269017999999999,-0.20111908,-0.5101983,1.6123391000000002,1.1130503,-37.68,-18.72,-8.34
1554100761720,0.57462597,6.845231500000001,-0.4956149,-0.23469809,2.1572308999999996,1.1698607,-37.559998,-16.859999,-9.36
1554100761739,0.15323359,5.28177,1.1157321000000002,0.062793285,2.178611,1.0696788000000002,-37.26,-15.9,-9.84
1554100761760,-0.33519846,3.4238129,2.4493432,0.42198205,1.6819776999999998,0.7037705,-36.66,-14.7,-11.28
1554100761779,-0.30646718,2.2506182,3.0191805,0.8471443000000001,1.2250506,0.26333666,-36.239998,-14.4,-13.259998999999999
1554100761799,-0.37350687,1.6400781999999998,3.3783216,1.301628,0.45597118,-0.15266255,-36.54,-14.04,-15.48
1554100761820,-0.9984126,1.4748733,3.5195839999999996,1.7151836999999999,-0.38030332,-0.49780142,-36.239998,-13.559999,-16.14
1554100761839,-1.4557191,2.4445546,4.0080160000000005,2.0639877,-1.2391798,-0.91318977,-35.76,-13.86,-16.56
1554100761859,0.011971374,5.873156,4.113364,2.2881753,-1.4994085,-1.3750038999999998,-34.92,-14.7,-14.519999499999999
1554100761879,4.4437739999999994,13.831725,7.721536,2.0083990000000003,-0.8219589,-1.5729241000000003,-36.12,-16.199999,-12.179999
1554100761899,7.046351,32.97874,9.469357,-0.11680109999999999,0.14504078,-0.42083240000000005,-37.079997999999996,-17.699999,-12.0
1554100761920,8.114198,16.637815,2.7773588,-1.3140969,1.2048919,1.621901,-36.059998,-18.24,-11.58
1554100761939,3.6584517999999995,5.2147307000000005,10.422278,-1.223689,0.7656799,1.2132322,-35.52,-18.0,-13.08
1554100761959,3.3208592000000006,-0.057462595,8.58587,-0.20048964,-0.7498768,0.7795178,-35.34,-16.619999,-13.86
1554100761979,0.51955765,7.082265,-0.5602603,0.43053415,-1.3204249,0.02632096,-35.28,-15.059999,-13.38
1554100761999,1.9010541,25.647472,0.20590763,0.7854468000000001,-0.8335653000000001,-1.2051834,-35.88,-15.0,-13.139999
1554100762019,-4.3863115,15.99615,0.19393626,-0.044719003,0.17619492,-0.9779415000000001,-36.96,-15.24,-12.66
1554100762039,0.29210153,3.6201434,-0.89067024,-0.25607836,-0.64908403,-0.85943365,-36.42,-15.24,-12.54
1554100762060,-0.6440599,3.014392,-0.5698373999999999,0.22772689,-1.3088184999999999,-0.8313339,-35.94,-15.719999,-11.34
1554100762079,-0.13168511,4.6640472,-2.2673783,1.0004715,-1.7138221000000002,-0.93701357,-36.0,-16.74,-10.44
1554100762100,-0.045491222000000005,10.527626,-4.6736245,1.7762703000000002,-1.3344748,-1.1276035,-35.82,-17.4,-10.5
1554100762119,1.4748733,11.861238,-4.07745,1.7787137,-0.5721149999999999,-1.3603431000000001,-36.54,-17.64,-9.179999
1554100762139,0.05985687,12.095877,0.57462597,1.1678485,-0.3943532,-1.12516,-36.719997,-17.82,-7.68
1554100762159,0.7709564999999999,10.381575999999999,2.8396098999999997,0.9344979999999999,-1.0052184000000002,-0.6376896,-35.94,-19.199999,-6.72
1554100762180,-0.076616794,9.696813,1.6305011999999999,1.02063,-1.6008121000000002,-0.08913257,-35.76,-20.64,-4.98
1554100762199,1.0391153,8.212361999999999,-1.3551594999999999,1.1287532,-1.446874,-0.11234545,-36.18,-21.06,-3.84
1554100762220,1.3216397,8.964165,0.600963,1.1037077,-0.9991098,-0.32003963,-35.579997999999996,-20.4,-2.82
1554100762240,1.7693691000000003,10.470163000000001,0.4764607,0.9039546999999999,-1.2452885,-0.36341107,-34.92,-20.82,0.0
1554100762259,2.1668186,9.9889145,0.19633053,0.81232494,-1.8457689999999998,-0.23024245,-35.16,-21.48,2.34
1554100762279,2.2889266,8.741497,0.67279124,0.8917374,-2.0125352999999997,-0.26200745,-34.62,-21.42,2.8799999
1554100762300,2.3416007000000003,9.074302000000001,-0.7110996,0.72619295,-1.6759485,-0.40067387,-34.68,-21.18,3.3
1554100762319,2.2625897,8.612206,0.8356019,0.52766174,-1.0241552999999999,-0.5423946,-35.04,-21.24,4.5
1554100762339,2.6145482,8.248277,-0.20111908,0.6443369999999999,-0.8134068,-0.79712534,-34.32,-20.939999,5.22
1554100762360,2.6432792999999997,8.039975,-1.1708003,0.84347904,-0.5201915,-0.9309049,-34.26,-20.46,5.8199997
1554100762379,2.640885,8.655303,-0.88588166,1.0432321,-0.18849164,-1.1056123,-33.899998,-21.66,7.44
1554100762399,2.8539755,8.8085375,-0.31125572,1.2460393,0.09556071,-1.0970601999999998,-33.12,-22.08,8.82
1554100762420,1.6664151999999999,8.815719999999999,0.16041641,1.1287532,0.14259733,-0.9712219999999999,-33.12,-22.56,9.3
1554100762439,2.3679377999999995,10.455798,-0.1699935,0.6431151999999999,0.15298204,-0.9913806000000001,-32.76,-23.279999,9.66
1554100762459,3.0048149,13.752714000000001,-0.32801566,0.29247862,0.18719049,-0.8624879999999999,-32.34,-23.34,9.9
1554100762479,1.489239,10.592272,0.6201171999999999,0.25155064,0.43031484,-0.39334348,-31.8,-23.58,10.2
1554100762499,2.0423164000000003,9.510059,-0.07901107,-0.011732277,0.56592697,-0.21802513,-31.8,-23.519999,9.96
1554100762520,2.7486273999999997,10.443827,0.30886146,-0.15406388,0.6459503000000001,-0.25712052,-31.859999,-23.16,10.08
1554100762539,3.4884584000000003,12.938661,0.9816527,-0.33426914,0.60990924,-0.12761708,-31.019999,-22.98,8.58
1554100762559,2.8635526000000002,13.556384,-0.39984390000000003,-0.78630936,0.44619736,0.13688758,-31.38,-22.92,7.5
1554100762579,2.4014575000000002,13.75032,-0.93616146,-1.4845283999999999,0.55859655,0.5040176,-31.98,-22.439999,7.74
1554100762599,0.84996754,13.053586,0.27055305,-2.2126796000000004,0.9110658000000001,0.96033394,-32.34,-22.26,6.7799997
1554100762620,-0.7996878000000001,11.322526,2.4086404,-2.8351514,1.0430127,1.4832346,-32.46,-21.779999,4.92
1554100762639,-1.4844503,11.485336,0.90024734,-3.1521904,0.75163,1.7141416,-32.7,-20.88,3.54
1554100762659,-2.9928436,12.7662735,-2.9377751,-2.8534772,1.2849153,1.8143235,-33.18,-19.619999,1.3199999
1554100762679,-2.8348215,13.340898999999999,-2.5235654999999997,-2.7349693999999998,0.9862021999999999,1.6396161,-34.32,-19.02,-1.38
1554100762699,-0.42618093,12.158128,1.324034,-2.5303297000000002,0.17436232,1.4013786,-35.579997999999996,-17.76,-2.34
1554100762719,3.2035396,11.681666,2.3535721,-1.9023602,-0.32166025,1.68482,-35.88,-16.32,-1.86
1554100762739,4.7143273,10.537204,1.3455825000000001,-1.7453678,-0.29050612,2.1411363999999997,-35.76,-15.179998999999999,-2.52
1554100762759,3.632115,9.399923,0.5243462,-1.7087159,0.4510843,1.8069931000000001,-36.66,-13.08,-3.78
1554100762780,1.7406378,8.791777,2.1668186,-1.5840994,0.9440526,1.4270348999999998,-37.26,-10.74,-4.56
1554100762799,1.0391153,8.504464,1.2881198,-1.1308373999999999,1.0399584000000002,1.2321688999999998,-36.66,-9.36,-4.44
1554100762819,0.30167863,8.28898,0.4764607,-0.8003593000000001,1.5084921,1.1087742,-36.66,-8.28,-5.7
1554100762839,0.22745611,7.3647895000000005,-0.8667275,-0.5175287000000001,1.8572959999999998,1.1295435,-36.899998,-7.02,-7.3799996
1554100762859,0.12210801,5.9880815,0.7853220999999999,-0.24019587,2.148068,1.0831178,-36.48,-6.0,-8.34
1554100762880,-0.05506832,4.7454529999999995,2.2386470000000003,0.056073766,1.8450787,0.8265544,-35.88,-4.8599997,-9.66
1554100762899,-0.14844504,3.2633965,2.9329867000000003,0.4861229,1.3875407,0.44109845,-34.98,-4.44,-9.84
1554100762920,-0.5794145,2.4780743,3.2897336000000004,0.94121754,0.765069,0.028153557000000003,-35.1,-4.02,-10.92
1554100762939,-0.8739103000000001,2.3487834999999997,3.2873392,1.3327821000000002,0.010650435,-0.3084332,-35.04,-3.3,-12.3
1554100762960,-1.1372806,2.5618742,3.4166303,1.7390076,-0.8372305,-0.71954554,-34.86,-3.54,-12.78
1554100762980,-0.6488484999999999,3.9721019999999996,3.3328303999999997,1.9222671000000002,-1.1677086,-1.1520381000000002,-34.739998,-4.08,-12.48
1554100762999,1.3216397,8.030397,4.70475,1.8917238999999997,-0.6973424,-1.5264986,-34.8,-4.98,-10.92
1554100763019,4.4318027,15.040834,9.613013,1.301017,-0.09441839,-1.4721315000000001,-35.16,-6.24,-8.94
1554100763040,7.113390400000001,27.59641,8.047157,-0.048384193,0.48101667,-0.020104798,-35.04,-7.259999799999999,-8.639999000000001
1554100763059,6.771008999999999,16.249943,4.2618093,-0.91031504,0.556764,1.0391355,-35.46,-7.56,-9.12
1554100763080,4.0128045,4.8172809999999995,8.049552,-0.80402446,0.03569591,0.8772562,-35.64,-7.259999799999999,-9.66
1554100763099,2.3032923,1.0822121999999998,6.4693303,-0.23591983,-1.0180466000000001,0.5412803,-35.16,-7.5,-9.9
1554100763119,-0.18914771,9.586677,1.0079896000000002,0.47451645,-1.4713086000000002,-0.1850384,-35.52,-6.8399997,-9.48
1554100763139,-0.12689656,22.606742999999998,1.6233183,0.72985816,-0.70894885,-1.238781,-36.059998,-5.52,-8.94
1554100763159,-3.6632404000000003,15.471804,0.24182175,-0.18949406,-0.091364056,-1.2455003999999998,-35.76,-6.3599997,-7.68
1554100763179,0.9289786,3.8906965,-1.3431882,-0.30311498,-0.6527491999999999,-1.0420824,-34.92,-7.08,-6.8999996
1554100763200,0.26097596,3.1388943,-1.0678465,0.322411,-1.4523718,-0.8600445,-35.28,-7.5,-6.8999996
1554100763219,0.35674694,6.411868,-2.4110348,1.1733463,-1.6166946000000002,-0.9235745000000001,-35.76,-8.639999000000001,-5.94
1554100763239,1.9704881999999997,11.358439,-4.326454599999999,1.9051628,-1.0320965,-1.0640733999999998,-35.82,-9.42,-4.62
1554100763259,2.6863763,11.748707000000001,-3.1580484,1.8043702000000001,-0.65946877,-0.9009725000000001,-36.3,-10.38,-3.36
1554100763279,0.90982443,11.286612,0.45730647,1.0218518,-0.26729324,-0.7464236,-35.94,-10.92,-2.22
1554100763300,-0.5123747999999999,9.4142885,2.9952377999999995,0.7634557,-0.96856654,-0.46542558,-35.76,-11.4,-1.56
1554100763320,0.21309046,9.069513,1.0391153,1.0242951999999999,-1.3509681,-0.19297966,-35.82,-12.059999000000001,0.06
1554100763339,1.3527653,8.906702000000001,-1.1229149,1.0145214,-0.8555564,-0.16976678,-36.18,-12.24,1.38
1554100763360,0.9385556999999999,9.431047999999999,0.09577099,0.8599724,-0.72238785,-0.23696196,-35.88,-12.599999,2.28
1554100763379,1.1420691,9.150917999999999,0.88588166,0.8728005999999999,-1.2123017,-0.28949636,-34.68,-12.36,2.7
1554100763400,1.333611,8.707977,-0.057462595,0.81965536,-1.3454704,-0.30782232,-35.1,-11.88,3.4199998
1554100763419,1.8603516,9.186832,0.5147691,0.7817816999999999,-1.4297698,-0.38051528,-35.399998,-12.059999000000001,5.22
1554100763439,2.1237217999999998,9.143736,-0.07901107,0.6137938000000001,-1.0785223,-0.46237126,-34.98,-12.42,6.2999997
1554100763459,2.135693,9.014444000000001,0.37350687,0.6040199,-1.0296531,-0.60836804,-34.559998,-12.78,6.8399997
1554100763479,2.3559662999999995,8.408693,-0.15562786,0.7646774000000001,-0.70406187,-0.7409258000000001,-34.079997999999996,-13.08,7.68
1554100763500,3.1293173,8.449396,-0.40463245,1.0383451,-0.40473795,-1.0121499,-33.899998,-13.38,8.7
1554100763519,3.5195839999999996,8.5882635,-0.723071,1.2497045,-0.14512020000000003,-1.0988928,-33.48,-13.86,9.599999
1554100763540,2.4373717,9.0838785,-0.30886146,1.228935,-0.024779747999999997,-1.0604083999999998,-32.64,-14.16,9.719999000000001
1554100763559,2.5427197999999995,10.453403,-0.26337022,0.9571,0.07234783,-0.98405015,-32.52,-14.46,9.78
1554100763579,2.4254005000000003,12.186859,0.043096945,0.5826395999999999,0.16031243,-0.89791816,-33.0,-14.519999499999999,10.92
1554100763600,2.6097596000000003,11.3105545,0.25858167,0.35295429999999994,0.42542794,-0.64685255,-32.64,-14.639999,10.92
1554100763619,3.2777622,10.738322,-0.8978530999999998,0.17335989999999998,0.6392308000000001,-0.3909,-32.399998,-15.0,10.679999
1554100763639,3.3424077000000003,10.3743925,-0.600963,0.1098299,1.0259085,-0.29010725,-32.16,-15.54,12.179999
1554100763660,2.8108785,11.370411,0.14844504,0.11838202,0.98559135,-0.1288388,-32.52,-15.54,11.099999
1554100763679,2.6887705000000004,12.433469,0.5411060999999999,-0.19071579,0.72230846,0.039759997000000005,-33.239998,-14.88,9.24
1554100763699,1.6855695,12.950632,0.6703969,-0.63237137,0.5720356,0.31037328,-33.6,-15.0,9.54
1554100763720,1.2354459,13.312168,0.6440599,-1.2811103000000001,0.66794145,0.60908645,-33.12,-15.36,9.059999000000001
1554100763739,-0.22027329,13.781445499999998,0.69194543,-2.1149414,0.86830527,0.95056003,-33.059998,-14.88,8.82
1554100763759,-1.1013663999999999,10.692831,1.7933118000000001,-2.9536592999999995,0.69970644,1.2492732,-33.54,-13.98,7.8599997
1554100763779,-1.3096683,10.276228,0.28970724,-3.3061287000000004,0.6184614,1.5290494,-33.48,-13.5,5.8799996
1554100763799,-2.3559662999999995,12.270658500000001,-2.5331428,-3.042235,1.322789,1.6964264999999998,-34.079997999999996,-12.9,4.62
1554100763819,-2.4110348,12.275447,-2.1141446,-2.9151747,0.95626986,1.5620361999999999,-34.8,-12.179999,4.02
1554100763839,-1.0870007,11.928277,1.4006507,-2.7343585,0.20124039,1.3329617,-35.1,-11.04,2.28
1554100763859,1.3096683,12.229956,3.3328303999999997,-2.0898957,-0.52385664,1.4728497999999999,-35.399998,-9.96,0.29999998
1554100763880,3.1484714,12.450229,2.1835787,-1.5486692,-0.5360739999999999,2.1539645,-35.219997,-9.059999000000001,0.59999996
1554100763899,3.3304362000000003,10.230737,-0.052674048,-1.6433533,0.22200981,2.0824933,-34.86,-7.5,0.78
1554100763920,1.5658557,8.6984005,1.9585168000000002,-1.6115883999999998,0.46879938,1.4942302,-35.399998,-5.7,0.53999996
1554100763939,0.6560313,8.219545,1.4748733,-1.2566756000000001,0.68748915,1.1582543,-35.46,-5.3399997,1.62
1554100763959,0.48124924,7.573091000000001,1.2522057,-0.7985267,0.97337407,0.90535605,-34.8,-4.56,2.82
1554100763980,0.36871833,6.826077499999999,-0.19633053,-0.42162287,1.3716582,0.8253326999999999,-35.16,-2.76,1.62
1554100763999,0.4956149,6.105400599999999,0.05027977,-0.15223128,1.685643,0.76607877,-35.82,-1.74,-1.0799999
1554100764019,0.12929083,4.343214499999999,1.1803774999999999,0.07195626,1.6703713,0.6231363,-35.16,-1.1999999,-1.9799999
1554100764039,-0.29210153,2.7677817000000005,2.6073654,0.42870158,1.2800285,0.29571253,-35.16,-1.0799999,-1.68
1554100764059,-0.60335726,1.8699286,3.512401,0.88379616,0.6459503000000001,-0.100128144,-34.98,-0.78,-1.56
1554100764079,-0.8571504000000001,1.6568381999999997,3.8763309,1.3718774,0.04241543,-0.45442998,-34.26,-0.29999998,-2.82
1554100764099,-1.010384,2.597788,4.309695,1.809868,-0.45910496,-0.82522523,-34.26,-0.65999997,-4.3199997
1554100764119,0.15562786,4.905869,4.601796,2.0163403000000004,-0.8005786,-1.2357267,-34.92,-1.74,-3.48
1554100764139,3.8811195,9.703996,7.175641499999999,1.7157947,-0.4560505999999999,-1.5191681000000001,-35.52,-2.82,-2.04
1554100764159,7.84125,22.92997,10.546781,0.7035909,-0.81462854,-0.89303124,-34.98,-3.36,-1.38
1554100764179,7.982512,21.000185000000002,4.209135,-0.35442767,-0.32104940000000004,0.6860554,-34.38,-3.84,-1.3199999
1554100764199,2.8420042999999997,9.780613,5.1764220000000005,-1.1204528,0.08578686,0.92246026,-33.84,-3.6599998,-1.0799999
1554100764219,1.6137413,5.6145744,5.9808984,-0.96773636,-0.1591701,0.97804904,-33.6,-2.6399999,-1.38
1554100764239,-0.55786604,7.941809700000001,3.1772027,-0.15284215,-0.7883613,0.47347432,-33.6,-2.58,-1.4399998999999999
1554100764259,-0.81644773,17.157373,3.0000262,0.5166661,-0.80668724,-0.9559504000000001,-33.18,-2.8799999,1.02
1554100764280,-2.6552507999999997,15.988967,0.5865973000000001,-0.076483995,-0.8579998999999999,-1.3603431000000001,-33.96,-2.52,1.9799999
1554100764299,1.4772675,7.283384,-3.0910087,0.06034982,-0.90320396,-0.98832625,-34.92,-3.12,1.4399998999999999
1554100764319,0.5913859,4.6137676,-1.1253091,0.41709512,-1.3967831,-0.80140144,-33.719997,-4.7999997,1.4399998999999999
1554100764340,0.6344828,5.873156,-1.8100717,1.1635725000000001,-1.6105858999999998,-0.8637097,-33.059998,-5.8799996,2.04
1554100764359,0.42378664,9.239507000000001,-3.2777622,1.6534863999999998,-1.5678253,-1.1111101,-33.239998,-6.66,4.5
1554100764379,1.7023293999999998,10.410307000000001,-2.1141446,1.4891635,-1.1438848999999998,-1.088508,-33.12,-7.14,6.2999997
1554100764399,1.2641771000000002,10.185245,1.446142,0.8960135,-1.0821875,-1.0695713,-32.94,-7.259999799999999,6.8999996
1554100764419,1.6448668000000002,11.157321000000001,3.3519847,0.78117085,-1.5427799,-0.7519214,-32.399998,-7.2,7.62
1554100764439,1.4700848,9.37598,-0.016759925,0.8587507,-1.5073497,-0.40800425,-31.98,-7.98,8.519999499999999
1554100764459,1.8316202000000001,8.449396,-0.0047885496,0.7616231,-0.9765078000000001,-0.15877122,-31.56,-8.82,10.32
1554100764479,1.3312168,8.365596,0.06464542,0.6089068,-0.72299874,-0.15082996,-31.74,-8.28,11.219999000000001
1554100764499,0.48364350000000006,9.028810499999999,-0.44054657,0.539879,-1.0382050999999999,-0.32737002,-31.5,-8.16,11.219999000000001
1554100764520,0.679974,8.133351,-1.7717633000000002,0.8227097,-1.4645891000000002,-0.74581265,-30.599998,-8.94,12.24
1554100764539,0.43096948,7.9944835,-1.2546,0.7408537,-1.2031388,-0.98527193,-29.82,-8.46,13.44
1554100764559,1.5490957,9.885961,0.6560313,0.5893590999999999,-1.1493826999999999,-1.2076268000000001,-29.279999,-8.58,14.58
1554100764580,4.3025117,12.742331,2.3846977000000003,0.58508307,-1.3845658,-1.3407954,-28.98,-9.54,15.719999
1554100764599,6.311308400000001,12.761485,0.23703320000000003,0.7854468000000001,-1.5745448999999998,-1.2638264,-27.96,-9.84,16.199999
1554100764619,6.162863300000001,9.316123,-1.8292258999999997,0.93327624,-0.5770019000000001,-0.9235745000000001,-27.24,-10.2,16.5
1554100764640,4.0151987,10.252285,-0.5961744000000001,1.1867851999999999,0.59402674,-0.48436239999999997,-26.699999,-10.44,17.699999
1554100764659,0.7709564999999999,15.555603,0.87151605,1.1916722,0.64289594,-0.34080905,-26.22,-10.98,18.3
1554100764680,-2.7749646,19.901213000000002,-0.08140534,0.70542353,-0.08647714,-0.36524364,-26.279999,-11.219999000000001,19.199999
1554100764699,-2.185973,17.116670000000003,1.0965778999999998,-0.5755609,0.085176,-0.28155512,-26.46,-10.44,19.619999
1554100764719,0.5650489000000001,13.599480999999999,2.7869357999999997,-1.6512946,-0.63442326,0.2914365,-26.519999,-10.559999000000001,18.48
1554100764740,0.105348095,9.28021,2.2985039,-2.4777951000000003,-1.3497465,0.7844047,-26.099998,-11.58,18.42
1554100764759,-0.27773590000000004,5.3919067,-0.86193895,-3.4124190000000003,-1.4279373,1.3152466,-25.32,-12.3,17.64
1554100764779,-0.014365649,2.1285102000000005,4.659259,-2.8162146,-1.0363725000000001,1.6396161,-25.14,-12.96,18.119999
1554100764799,-0.53392327,0.16281068,-3.1819912999999995,-1.7496439,-1.9141859,1.2755404,-25.14,-13.799999,18.9
1554100764820,-0.7110996,-2.5044115000000002,-3.5602864999999997,-0.88893473,-1.1548805,0.81739146,-24.84,-13.86,17.88
1554100764839,1.8172544999999998,-4.7813669999999995,-2.1668186,0.04019127,-1.0656941,-0.11845410000000002,-24.42,-13.139999,18.06
1554100764859,2.5163830000000003,-1.359948,-3.7949257000000003,0.17885768,-0.41267917,-0.6505177,-24.0,-12.96,17.64
1554100764880,0.723071,1.0127783000000001,-4.9585433,0.06340415,0.75896037,-0.37685009999999997,-23.64,-13.259998999999999,18.48
1554100764899,1.8100717,5.5116205,1.8268316999999998,-0.73438585,1.4687858,0.44659626,-23.46,-13.5,21.24
1554100764919,8.858817,22.348162,5.9808984,-0.41979024,0.5634835,2.134417,-23.4,-12.66,21.06
1554100764939,12.359246,33.764065,-10.702409,-0.36542326,2.9843425999999997,1.7471284,-24.0,-12.179999,17.64
1554100764959,-10.395941,23.641070000000003,-2.5810282000000004,0.13059932,4.4382014000000005,2.174123,-25.74,-12.059999000000001,15.0
1554100764979,-17.966639,6.2777886,11.775043499999999,1.0768296,-0.47254398,1.8503646,-27.119999,-11.4,14.58
1554100764999,-7.6736507,7.316903599999999,1.56825,0.5368246999999999,0.27882028,-0.8099536,-27.539998999999998,-10.92,14.759998999999999
1554100765019,-2.1740015,17.466234,4.7693954000000005,0.34623474,0.36739576,-1.0769016000000002,-28.439999,-10.139999000000001,14.639999
1554100765039,-0.102953814,23.495017999999998,2.0040080000000002,0.61745894,-1.5635493,-0.32859173,-29.099998,-10.019999499999999,14.099998999999999
1554100765059,-0.08858817,14.561979000000001,0.47885495,0.059738955999999996,-2.1805232000000005,0.23706947,-28.019999,-10.5,13.92
1554100765079,-0.32801566,11.617022,0.80208206,0.02430877,-2.1750255000000003,0.095959604,-27.18,-10.26,14.88
1554100765099,1.2976969999999999,12.100665,0.17478207,-0.008677952,-2.2128992000000003,-0.12517363,-25.92,-10.019999499999999,16.619999
1554100765119,0.89067024,12.648953,-0.9529214,-0.32144094,-2.049798,-0.5845443,-24.48,-10.2,17.46
1554100765139,0.23942748,9.845258,-0.9074302,-0.52424824,-0.8726607,-0.7262649999999999,-24.119999,-10.5,17.699999
1554100765159,-1.7071179,8.676852,1.8052831999999999,-0.33793432,-0.76209414,-0.7824646,-23.939999,-11.639999000000001,18.84
1554100765180,-2.0638650000000003,8.2578535,3.0335462000000004,-0.15833993,-1.2080258,-0.8954747,-23.699999,-12.48,18.84
1554100765199,-1.7478206000000003,7.2211327999999995,2.7366562,-0.19499186,-1.4798607,-0.96266985,-23.279999,-12.36,19.32
1554100765219,-1.6783867,6.4669360000000005,0.30886146,-0.35931462,-1.5311735,-1.0261997999999999,-22.38,-13.2,20.34
1554100765240,-1.6688095,6.349616999999999,-1.1253091,-0.36725587,-1.297212,-0.99932176,-21.359999,-13.799999,20.22
1554100765260,-0.339987,7.4868975,-1.3623424,-0.16444859,-1.4206069,-0.853325,-20.58,-14.4,20.64
1554100765279,-0.12929083,8.55235,0.41181526,-0.11252504,-1.6435727,-0.60653543,-19.68,-15.299999,21.0
1554100765299,0.19633053,8.767835,1.0391153,0.043245595,-2.2196186,-0.44648874,-19.08,-15.42,21.3
1554100765320,-0.8044763,8.3129225,1.6185298000000001,0.09822346,-2.5610923999999997,-0.36707628,-18.359999,-15.42,21.66
1554100765339,-1.4126221,8.303345,1.1564348,-0.022116987,-2.7907777,-0.26261827,-16.859999,-16.02,22.38
1554100765359,-2.1452703,8.633755,0.49800915,-0.09358822,-3.0674994,-0.10929112,-15.24,-15.78,23.58
1554100765380,-2.5570855,9.632168,-0.7948991999999999,-0.16628120000000002,-3.200668,0.026931827999999998,-13.86,-15.059999,24.66
1554100765399,-1.6185298000000001,10.122993,-1.0151725,-0.28845423,-3.0100782,0.016547117,-12.599999,-15.719999,25.859999
1554100765419,-0.14126222,10.400730000000001,0.19393626,-0.3996317,-2.8744662,-0.23207504,-11.04,-15.599998999999999,26.82
1554100765440,1.3479767,11.135772,1.2713598999999998,-0.42101198,-3.0901015,-0.38479134,-9.179999,-15.0,26.939999
1554100765459,1.8842942999999999,10.7479,1.7741576000000001,-0.5065331,-3.2629764,-0.37929356,-7.98,-15.719999,27.84
1554100765479,1.6065584,9.7135725,0.3328042,-0.71300554,-2.951435,-0.36585453,-7.5,-15.599998999999999,28.56
1554100765500,1.2067145000000001,8.415875999999999,0.85236186,-0.9005412,-2.4108193,-0.60470283,-5.04,-16.859999,29.279999
1554100765519,1.1995316999999999,8.470944,0.9433443000000001,-0.70262086,-1.8873078999999997,-0.74031496,-3.4199998,-17.58,28.8
1554100765540,1.0774237,7.3839436,1.5107874,-0.5108092000000001,-1.7541393,-0.84294033,-1.26,-17.4,28.019999
1554100765559,1.6855695,6.9888883,1.9010541,-0.20232223,-1.6649528999999998,-0.90036166,0.17999999,-17.58,26.82
1554100765579,2.2793495999999998,7.5180229999999995,2.1093562,0.11105163400000001,-1.7303156000000002,-0.77146906,1.0799999,-18.18,26.82
1554100765600,2.2386470000000003,7.9561753,1.9273912,0.29736555,-2.0821738,-0.46481469999999997,2.3999999,-18.539998999999998,26.76
1554100765619,1.3719195,9.122187,3.2969165,0.3419587,-2.6234004,-0.17648629999999998,4.02,-18.24,27.779999
1554100765639,1.1923488000000002,11.590684,3.4238129,0.40487779999999995,-2.8573618,0.058696818,5.04,-17.82,27.42
1554100765659,1.6783867,14.193260999999998,2.4852571,0.52888346,-2.9569327999999997,0.4508723,5.8799996,-17.46,25.92
1554100765679,2.2338583,12.251503999999999,-0.9289786,0.27109832,-2.9880872000000003,0.58587354,7.44,-17.16,25.92
1554100765699,-0.0047885496,10.508472,1.5897985000000001,0.21856391,-3.033291,0.48508075,8.94,-17.16,25.26
1554100765719,-1.0247495999999998,7.381549400000001,0.6057515,0.2888134,-2.7596235,0.180259,10.8,-17.699999,25.14
1554100765739,-0.8978530999999998,7.1732473,-2.762993,0.13976229999999998,-2.1964056,-0.5155165,12.9,-17.1,25.74
1554100765759,0.15083931,8.995291,-2.8874955,0.15381221,-1.6185272,-1.0060413000000001,13.559999,-16.44,24.96
1554100765780,2.1404817000000005,13.046403999999999,-1.637684,0.5514855,-0.9893360000000001,-0.9693894000000001,14.219999,-16.74,23.699999
1554100765799,4.2546263,12.129396,0.4956149,0.89784604,-1.2013061,-0.55339015,15.059999,-16.02,23.1
1554100765819,2.6169424,10.024828999999999,0.97446984,0.7915555000000001,-2.3252982999999996,-0.08058046,15.9,-15.179998999999999,23.939999
1554100765840,1.5874043,9.737515,-0.22266756,0.7481840999999999,-2.3729457999999997,0.06297288,17.4,-14.28,23.88
1554100765859,1.0271438,10.180456,-0.8284190999999999,0.7090887,-2.2483294,0.08313143,18.66,-13.679998999999999,22.38
1554100765879,0.8092649000000001,10.230737,-1.3048798000000001,0.57836354,-1.986268,0.13077891,18.96,-13.74,21.3
1554100765899,1.0534808999999998,9.387952,-0.7589851,0.39999092,-2.0296395,0.15154834,19.439999,-14.04,20.88
1554100765919,1.1660118,9.126975999999999,-0.9696813,0.14098404,-2.1603646,0.14971575,20.939999,-14.28,20.88
1554100765939,0.9912298,10.151725,-0.8284190999999999,-0.027614773999999998,-2.3136919,0.16193305,21.6,-13.86,19.619999
1554100765959,1.2474172,9.761458,-1.0391153,-0.103972934,-2.3051395,0.11367469,22.14,-13.679998999999999,17.76
1554100765979,2.0902019,9.668080999999999,-1.2186858999999999,-0.025171312999999997,-2.135319,0.032429612999999996,23.039998999999998,-14.099998999999999,17.1
1554100766000,2.4277947,9.431047999999999,-1.2234744,0.012091467,-2.140206,0.027542692,23.46,-14.28,16.02
1554100766019,2.6193366,9.256267,-1.0846065,0.09883433,-1.9856572000000001,-0.03781989,24.3,-13.86,15.059999
1554100766039,2.8420042999999997,9.079089999999999,-0.5219519,0.17091642,-1.8213345,-0.11234545,25.08,-13.679998999999999,15.24
1554100766059,2.3344178,9.182044,-0.38068968,0.19474018,-1.6698398999999997,-0.17831889,25.859999,-13.32,13.74
1554100766079,1.8531687,9.744699,-0.53392327,0.24483113,-1.4444306,-0.2888855,25.8,-13.86,12.059999000000001
1554100766099,1.8268316999999998,9.47654,0.0023942748,0.34867823,-1.3308096999999999,-0.41289115,25.92,-13.5,11.759999
1554100766120,1.5993756000000001,8.451789999999999,-0.098165266,0.503838,-1.266058,-0.57660306,26.22,-12.719999000000001,11.46
1554100766139,2.0423164000000003,9.143736,-0.47885495,0.57164407,-1.0278205,-0.69633263,26.699999,-13.2,11.34
1554100766159,2.9258040000000003,9.344854,-0.7709564999999999,0.50994664,-0.8072982,-0.68045014,28.38,-12.66,10.679999
1554100766179,3.2179053,10.472558,-1.0271438,0.3700585,-0.7003967,-0.66395676,28.8,-11.759999,9.42
1554100766199,3.605778,10.558752,-0.6057515,0.29431123,-0.5000329000000001,-0.5307881,28.56,-11.4,8.58
1554100766219,2.954535,9.39274,0.07901107,0.27598527,-0.36258823,-0.2534553,28.8,-10.86,8.7
1554100766239,3.265791,9.926663000000001,0.29449580000000003,0.22406171,-0.24774556,-0.112956315,28.92,-10.8,10.2
1554100766259,3.1939626,10.549175,0.5770202,0.15381221,-0.26423892,-0.040874213,29.699999,-10.92,11.04
1554100766279,2.6983478,12.033626,0.22266756,0.009037141,-0.16894394,0.1362767,29.88,-10.2,10.38
1554100766300,1.3838909,12.938661,0.9768641,-0.09297735,-0.29233873,0.41238779999999997,29.58,-10.44,9.48
1554100766319,0.7302538000000001,13.271465,0.25139886,-0.36481237,-0.2856192,0.5706019,30.0,-10.44,8.639999000000001
1554100766339,0.98404694,12.323333,-0.13647367,-0.92864096,-0.10480309,0.72942686,30.119999,-11.04,8.58
1554100766360,0.98404694,11.166898,-0.026337024,-1.5468366000000002,-0.041883975,0.90169084,29.699999,-12.3,8.88
1554100766379,0.46209505,9.907509,0.45730647,-2.1876342,0.01003957,1.0922806999999999,29.76,-12.42,7.62
1554100766399,-1.0582695,9.26345,1.8627458,-2.7129784,-0.18482645,1.1515348,29.88,-13.259998999999999,7.14
1554100766420,-2.3368123,11.128589999999999,1.2809371,-2.837595,-0.3662534,1.1674173,28.92,-14.16,6.8399997
1554100766439,-3.510007,12.208407000000001,-1.9824595,-2.6567787999999997,-0.21842402,0.9377319,28.26,-15.48,6.3599997
1554100766459,-3.2298767999999995,11.22436,-1.8819,-2.4753517999999994,-0.17749606,0.35924253,28.8,-16.38,5.2799997
1554100766479,-1.2809371,10.63058,0.67279124,-2.2963683999999995,-0.28867352,0.17781554,28.619999,-16.619999,4.14
1554100766499,1.5275473999999998,12.146156,2.2218869999999997,-1.9744422,-0.7058945,0.5070719,28.56,-17.1,3.4199998
1554100766519,2.6791935000000002,10.779025,1.7358493000000002,-1.6244165000000002,-0.7120032,0.9358993,29.22,-17.76,1.4399998999999999
1554100766539,2.3056867000000003,9.115005,1.812466,-1.3458618999999998,-0.47437656,0.8711476,28.859999,-18.06,0.48
1554100766559,0.8451790000000001,9.557945,2.5858168999999998,-1.0654749,-0.44688764,0.7269834,28.14,-18.9,0.65999997
1554100766579,0.6656084,9.179649000000001,1.6903580000000002,-0.70445347,-0.3173842,0.6982727,28.08,-20.16,0.17999999
1554100766599,-0.007182824399999999,8.317711,1.3360053,-0.5248590999999999,-0.13229203,0.6805576,27.72,-20.22,-0.48
1554100766619,0.13647367,7.020014,1.0606636999999999,-0.20171137,0.14809512,0.6298558000000001,27.42,-20.16,-1.62
1554100766640,0.6464542,5.930619,1.3886794,0.021254446,0.28553979999999995,0.48324817,27.06,-20.82,-0.96
1554100766659,0.96489275,5.035159999999999,1.8890828000000002,0.17274903,0.2641595,0.26944533,26.46,-21.66,-0.12
1554100766679,1.0415094999999999,4.640105,2.5427197999999995,0.3841084,0.08212166,0.07641191,26.519999,-22.199999,-0.06
1554100766699,0.85236186,4.5850363,3.241848,0.64678043,-0.12618338,-0.12273016,26.76,-22.5,-0.78
1554100766719,0.84996754,4.350397,3.4956412000000006,0.9668738000000001,-0.33021238,-0.35791326,26.64,-21.96,0.12
1554100766740,1.2953026,4.7334814000000005,3.493247,1.2442066999999999,-0.45299628,-0.63158095,27.119999,-21.42,1.14
1554100766759,2.0662591,6.660872500000001,3.2250881000000002,1.3248408,-0.48659387,-0.794071,28.08,-21.48,1.86
1554100766779,2.8108785,8.736709,3.8380224999999997,1.3676013999999999,-0.54035,-0.7842972,27.72,-20.88,1.86
1554100766800,3.1843855,12.277842,4.309695,1.3217865,-0.6429754,-0.5943181,27.779999,-20.58,1.1999999
1554100766819,4.6640472,16.221212,5.0950169999999995,0.46596435,-0.590441,-0.1288388,28.38,-20.4,1.02
1554100766840,5.6600657,19.472637,8.576292,-0.94330174,-0.84395003,0.7685221999999999,28.199999,-20.699999,1.0799999
1554100766859,4.972909,13.633,8.688824,-1.6500728999999998,-0.05165782,1.009814,28.199999,-20.82,1.3199999
1554100766880,3.5147953000000003,4.000833,7.4868975,-1.5315651000000001,-0.14573106,0.62130374,27.84,-20.58,0.71999997
1554100766899,2.2027327999999997,1.2138973,3.9840732000000005,-0.9573517,-0.1891025,0.0819097,27.3,-20.82,-0.24
1554100766919,0.94573855,4.965726,1.2713598999999998,0.0017067576000000001,0.26354864,-0.48863843,27.42,-21.24,-0.96
1554100766939,0.8044763,16.700067999999998,1.5969813,0.86669195,0.47368628,-1.0133716999999998,27.359999,-21.3,-1.02
1554100766959,-2.7558103,21.775928,-3.2969165,0.82759655,0.20307298,-0.8661530999999999,28.38,-20.76,-1.14
1554100766980,0.53392327,8.420665,2.0016138999999997,-0.13390534,-0.6936772,-0.29865935,29.519999,-20.82,1.62
1554100766999,-1.0343267,3.8523881,3.3088877,0.2985873,-1.7492523000000002,0.046479516,29.64,-20.76,3.0
1554100767019,-3.3591676,4.5970078,0.87630457,0.76284486,-2.5336032000000004,-0.3963978,29.88,-20.039998999999998,2.04
1554100767040,-3.4381785000000002,5.935407,-4.975303,0.92533505,-2.0620153,-1.0359738,29.519999,-19.74,1.14
1554100767059,-0.74701375,8.684034,-3.5842294999999997,1.0151322,-0.944132,-1.714645,29.519999,-19.74,-0.35999998
1554100767079,0.47885495,12.636982000000001,-0.723071,1.2497045,-0.68573594,-1.8557549,30.3,-19.74,-1.3199999
1554100767100,2.9162266,12.591491,-1.8651401,1.6363822000000001,-0.6454188,-1.3346868,30.66,-18.3,-2.04
1554100767119,3.4956412000000006,10.719169,-2.2625897,1.6638709999999999,-0.7126140000000001,-0.80445576,31.14,-17.46,-2.7
1554100767139,3.2083282000000004,9.591465,-1.0462981,1.409751,-0.9691774,-0.08180218,31.8,-16.8,-3.36
1554100767159,0.6895511,10.106233999999999,-0.10055954,1.1574638000000002,-0.916643,0.19003285,31.56,-16.38,-3.6599998
1554100767179,-1.7981004,11.3344965,-0.08619389,0.839203,-0.9435210999999999,0.18453507,31.5,-16.619999,-3.6
1554100767200,-2.1332988999999998,10.673677,1.0870007,0.50933576,-1.2685014,0.06297288,31.679997999999998,-16.5,-2.76
1554100767219,0.67757976,10.364816000000001,1.3838909,0.28270477,-1.41572,-0.06836315,31.859999,-17.279999,-2.9399998
1554100767239,2.8491871,9.905114999999999,0.7733508000000001,0.23017037,-1.6765593,-0.09585209,31.14,-17.46,-4.14
1554100767259,3.2633965,8.719949,-0.6273,0.28698084,-1.7352023999999997,-0.22291206,31.08,-17.52,-6.0
1554100767279,2.8874955,7.8101244,-0.98404694,0.4317559,-1.5256756999999999,-0.29010725,31.019999,-17.279999,-6.42
1554100767300,1.7765520000000001,8.451789999999999,-1.7430321,0.55026376,-1.1640434,-0.40617162,31.32,-16.859999,-6.8999996
1554100767319,1.1564348,8.755863,-1.8100717,0.58752656,-0.73827034,-0.48375154,31.26,-16.8,-7.3799996
1554100767344,1.8100717,9.29218,-1.2282629999999999,0.6962606,-0.30211258,-0.51795995,30.9,-16.68,-9.12
1554100767359,2.1835787,9.562733999999999,-0.72546524,0.8049946,-0.27889970000000003,-0.44587788,31.08,-16.68,-9.24
1554100767379,1.8555629,9.438231,0.16281068,0.94427186,-0.39374238,-0.44282356,31.32,-16.44,-8.519999499999999
1554100767399,0.7972935,9.598647999999999,0.25618739999999995,0.88074183,-0.47254398,-0.47764286,31.32,-16.5,-7.259999799999999
1554100767420,-0.06464542,9.838076,0.56265455,0.58080703,-0.46032667,-0.5704944000000001,31.32,-16.44,-7.56
1554100767439,1.2138973,10.937047,-0.21548474,0.32057843,-0.47254398,-0.7543648000000001,30.84,-16.14,-7.56
1554100767460,2.762993,11.782227,-0.7877164000000001,-0.013564873500000001,-0.39557496,-0.9186876,30.96,-15.42,-7.74
1554100767480,2.8707354,9.871595,-0.05506832,-0.028836504,-0.18421558,-0.69816524,31.56,-14.519999499999999,-8.16
1554100767499,2.22907,9.699207000000001,-0.22745611,0.0114806015,-0.0168385,-0.21313821,32.1,-14.4,-7.5
1554100767520,1.2617828000000002,10.527626,-0.5411060999999999,-0.124742344,0.17008626,0.009216735,32.7,-14.82,-7.98
1554100767539,0.6273,10.611426,0.0047885496,-0.16872464,0.12182791,0.04586865,32.28,-14.7,-8.099999
1554100767560,1.063058,12.759089999999999,0.22985038,-0.32327357,0.1114432,0.041592594,31.679997999999998,-15.179998999999999,-7.62
1554100767580,1.6879636999999998,13.379207999999998,-0.29210153,-0.60427153,0.2275076,0.20835881,32.16,-15.48,-7.9199996
1554100767600,3.4884584000000003,13.223579,-1.3743136999999999,-1.2511778999999998,0.78522754,0.4313246,33.239998,-15.24,-6.8999996
1554100767620,2.6863763,12.251503999999999,-0.55307746,-1.8547127,1.1670183,0.72576165,32.399998,-15.0,-6.48
1554100767639,1.3288225,10.8700075,0.56744313,-2.419152,1.2030594,1.1289327,32.28,-15.36,-7.56
1554100767659,-0.7877164000000001,10.532414,1.5275473999999998,-2.868138,0.7644581,1.3897722,32.579997999999996,-15.599998999999999,-7.68
1554100767679,-1.7717633000000002,12.191647999999999,0.29928434,-2.8296535,0.11510839,1.5589818000000002,32.28,-15.719999,-6.8999996
1554100767699,-3.265791,12.270658500000001,-3.5770466,-2.5358273999999996,0.8493684000000001,1.2113996,31.98,-16.199999,-6.24
1554100767719,-2.7989072999999998,11.312948,0.17478207,-2.5089495,0.31058526,0.7544724,32.579997999999996,-16.68,-6.0
1554100767740,2.0949904999999998,10.953807000000001,-1.6281068,-1.9359578000000002,-2.3931042999999996,0.7349246,31.38,-17.34,-6.6
1554100767759,4.041536,12.287417999999999,-1.0917894,-2.0184245,0.041193698,1.2260603,30.24,-17.279999,-9.48
1554100767779,4.5012364,9.680053,1.1300976999999999,-1.9988769,0.7937797,1.3806093000000002,29.88,-17.46,-10.8
1554100767800,3.545921,8.616995,2.3487834999999997,-1.6293035,0.98986745,1.1222132,29.88,-18.3,-12.48
