TimeStamp,Ax,Ay,Az,Gx,Gy,Gz,Mx,My,Mz
1554881374288,4.886715000000001,1.8411973999999998,8.207574000000001,-0.01331503,0.014370603999999999,-0.0053200256,-27.599998,34.32,-10.559999000000001
1554881374309,4.867561,1.7430321,8.214757,-0.013925895,0.009483683,-0.00043310347,-27.72,33.78,-10.559999000000001
1554881374328,4.896292,1.7406378,8.200391,-0.010260703000000001,0.0162032,-0.0010439687,-28.26,34.44,-13.86
1554881374348,4.905869,1.8196488999999998,8.212361999999999,-0.0065955119999999996,0.019868392,0.008729876,-28.619999,35.219997,-16.92
1554881374368,4.9106574,1.8292258999999997,8.224333999999999,-0.0023194554,0.011927143999999999,0.019114584,-29.039998999999998,34.8,-17.82
1554881374388,4.9106574,1.8220432,8.049552,-0.0017085902,0.02658791,0.033164486,-29.4,34.92,-17.699999
1554881374408,4.865166,1.8747171000000002,8.023214999999999,-0.02492147,0.088285305,0.033164486,-28.68,34.739998,-17.039998999999998
1554881374429,4.9633317,1.9656997,8.13814,-0.022478009,0.09805914,0.04782525,-28.619999,34.86,-16.859999
1554881374448,4.8148865999999995,1.9130256,8.499676,-0.018812817,0.07912232,0.042327464,-28.859999,35.88,-16.8
1554881374469,4.936994599999999,1.5275473999999998,8.583475,0.03311073,0.043081272000000004,0.08630976,-28.8,35.82,-16.98
1554881374488,4.9561486,1.4317763000000001,7.369578,0.028223807000000004,0.01498147,0.028888429,-29.279999,35.52,-17.58
1554881374509,4.8316464,2.0638650000000003,8.253065,0.00989785,0.00032070425,0.021558044,-28.92,35.76,-17.699999
1554881374528,4.896292,1.8340145,8.152505999999999,0.008065254,0.05102252,0.016671123,-28.56,35.399998,-17.4
1554881374549,5.0040345,1.7358493000000002,8.260247999999999,0.0007348709,0.11760683,0.016671123,-29.099998,36.48,-17.4
1554881374568,4.9992456,1.6448668000000002,8.492493,0.006232658,0.10050260000000001,0.006897279,-28.68,36.899998,-17.58
1554881374588,5.2314906,1.5347302,8.217151,0.037386786,0.0162032,0.025223237000000003,-28.32,35.88,-17.82
1554881374609,4.982486,1.7262721,8.178842999999999,0.016617367,-0.0045662179999999995,0.011173336,-28.019999,35.7,-18.18
1554881374628,4.8747435,1.6233183,8.095042999999999,-0.0029303206,0.012538008,0.009951605,-28.26,35.82,-17.64
1554881374648,4.786155,1.7190893,8.142928999999999,-0.02858666,0.037583485,0.011784201499999999,-28.199999,35.16,-15.24
1554881374669,4.5539107,1.8483802,8.559532,-0.029197527,0.04918992,0.04660352,-28.26,34.86,-15.54
1554881374688,4.6305275,1.7430321,8.657698,0.019671693,0.0027641652000000004,0.07592505,-28.74,35.219997,-17.52
1554881374709,4.800521,1.6664151999999999,8.676852,0.059377935,-0.0558789,0.08936409,-29.039998999999998,35.399998,-17.52
1554881374728,4.96812,1.6783867,8.308133,0.06915178,-0.08275697,0.05515563,-29.22,35.88,-17.88
1554881374749,4.9274178,1.7358493000000002,8.248277,0.05632361,-0.12001975,0.01606026,-28.74,36.059998,-17.64
1554881374769,4.908263,1.8986599999999998,8.217151,0.06793004,-0.15911512,-0.0047091604,-28.32,35.94,-17.22
1554881374788,5.114171,1.8531687,7.965752,0.039830245,-0.104748115,-0.017537331,-28.32,35.76,-17.64
1554881374809,5.236279,1.7885233,7.9011070000000005,-0.015147625500000001,-0.06626361,-0.036474152999999995,-28.439999,35.88,-17.039998999999998
1554881374829,5.2841644,1.7430321,7.8364615,-0.053632136,-0.04793765,-0.063963085,-27.779999,35.399998,-16.98
1554881374848,5.377541000000001,1.7238779,7.7861814,-0.08051021,-0.012507467,-0.09511722,-27.06,35.46,-16.859999
1554881374869,5.4733124,1.7406378,7.9370210000000005,-0.11349693,0.050411656,-0.12932567,-27.42,36.36,-16.56
1554881374888,5.5044379999999995,1.6903580000000002,7.970541000000001,-0.120216444,0.06385068599999999,-0.15864720000000002,-27.539998999999998,35.76,-16.38
1554881374908,5.296136,1.5538843999999998,8.114198,-0.13487722,0.091339625,-0.19285566,-29.22,35.219997,-16.44
1554881374929,5.1189594000000005,1.5490957,8.279403,-0.12937942,0.08950703,-0.20751642,-29.58,34.98,-16.38
1554881374948,4.9130519999999995,1.6520496999999998,8.224333999999999,-0.12876855,0.093172215,-0.19774258,-29.279999,35.1,-17.1
1554881374969,5.518803599999999,2.1644243999999997,9.708784,0.048382357,-0.30633366,-0.097560674,-28.32,35.04,-13.139999
1554881374989,4.9106574,1.2665714,8.152505999999999,0.092364654,-0.30999884,-0.08717597,-28.08,34.2,-9.78
1554881375008,4.0391417,2.0159793,8.109408,-0.05668646,0.13104586,-0.07190433,-27.359999,34.26,-5.8799996
1554881375029,4.276175,2.1907616,8.231517,-0.06951463,0.30941853,0.006897279,-28.32,34.02,-6.66
1554881375048,3.9074564,1.5347302,8.913885,-0.06096252,0.3362966,0.02461237,-28.32,33.84,-8.4
1554881375068,4.168432,1.7310607,9.028810499999999,0.09602985,-0.04671592,0.008729876,-27.72,34.14,-9.84
1554881375089,4.618556,1.9944308999999998,8.107014999999999,0.10702542,-0.11024590599999999,0.038051407999999995,-27.06,34.079997999999996,-9.3
1554881375108,4.7981267,2.2003386000000003,8.028004,0.031889,0.0162032,0.02216891,-27.18,33.239998,-7.8599997
1554881375128,5.042342700000001,1.9944308999999998,8.300951,0.0068435236,0.032085697999999996,0.041105732,-27.96,33.66,-7.259999799999999
1554881375148,5.1237483,2.0016138999999997,8.2578535,0.03311073,-0.06748534,0.052712172,-26.58,34.8,-7.7999997
1554881375168,5.071073999999999,2.3032923,8.375174000000001,0.03311073,-0.061376687,0.09425101,-26.4,34.26,-7.44
1554881375188,5.1716337,2.5163830000000003,8.741497,0.07342783,-0.12857187,0.17427436,-27.06,33.84,-7.44
1554881375208,4.936994599999999,1.4509305000000001,8.480521000000001,0.05082582,-0.1859932,0.22131097,-26.4,34.5,-9.059999000000001
1554881375228,4.642499,1.1540405,7.9011070000000005,0.019671693,-0.18110628,0.13578984,-26.16,34.5,-10.32
1554881375248,4.659259,1.6592325,7.731113400000001,-0.010871569,-0.049770243,0.06920554,-26.4,33.42,-9.0
1554881375268,4.776578400000001,1.7238779,7.7502675000000005,-0.054853868,0.12921327,0.06737294,-27.06,33.36,-7.68
1554881375288,4.903475,1.8651401,8.22194,-0.11044260000000002,0.29964468,0.08325543,-26.88,33.78,-7.62
1554881375308,5.1548739999999995,1.8004947,8.593052,-0.11655126,0.24894285,0.088753216,-26.16,34.62,-7.02
1554881375329,5.305713,2.0255566000000003,8.365596,-0.11288606400000001,0.22389738,0.14006591,-26.46,34.8,-7.9199996
1554881375348,5.205153500000001,1.5107874,8.018426,-0.08906232,0.20862575,0.14250937,-26.34,34.5,-10.2
1554881375368,4.8364353,1.4198049,7.922655000000001,-0.119605586,0.34912476,0.1137987,-26.099998,34.14,-9.12
1554881375388,4.7310870000000005,1.3791022,9.026416000000001,-0.07073636,0.21351267,0.10524658,-26.279999,34.079997999999996,-6.3599997
1554881375409,4.6999617,1.5658557,8.451789999999999,-0.02980839,0.058352903,0.14250937,-26.279999,34.079997999999996,-6.12
1554881375428,4.625739,1.7526091000000001,7.908289999999999,-0.07073636,0.17686076,0.16938743,-26.16,34.2,-6.2999997
1554881375448,4.527573599999999,1.4245936000000001,8.226728,-0.114107795,0.3185815,0.18465908,-25.859999,34.38,-6.42
1554881375469,4.520391,1.5419129999999999,8.482916000000001,-0.12571423,0.36683986,0.20542848,-26.039998999999998,34.86,-6.8999996
1554881375489,4.642499,1.4772675,8.904308,-0.0823428,0.24344507,0.23536089,-25.98,35.7,-7.74
1554881375508,4.6664414,1.673598,8.415875999999999,-0.038360503,0.13776538,0.25124338,-25.619999,35.82,-9.0
1554881375529,4.929812,2.308081,8.186026,-0.14770538,0.42487204,0.36730778,-25.199999,36.059998,-10.08
1554881375548,4.7334814000000005,1.8196488999999998,8.660092,-0.21184623,0.5592623999999999,0.52063495,-25.38,36.12,-10.019999499999999
1554881375569,4.3216662,0.38308397,9.502875999999999,-0.051799542999999997,0.1481501,0.44183335,-25.08,36.6,-11.639999000000001
1554881375588,4.2665977,0.7829279,8.712766,0.044106305,-0.17560849,0.30133432,-24.539998999999998,36.42,-12.48
1554881375608,4.199558000000001,1.4365649,7.9394155,0.0044000624,-0.06320928,0.30927557,-24.779999,36.54,-12.96
1554881375629,4.0128045,1.4078336,8.420665,-0.1281577,0.32530102,0.33981884,-24.48,37.86,-13.259998999999999
1554881375648,4.1157584,0.86193895,9.304152,-0.18741162,0.42731553,0.31904942,-24.06,38.219997,-13.259998999999999
1554881375669,4.0726614,0.44772938,9.076694999999999,-0.07317982599999999,0.11882856,0.23291741,-23.76,38.219997,-13.74
1554881375689,4.158855399999999,0.57462597,8.411087,-0.014536761,-0.078480914,0.12296168,-24.119999,37.98,-13.799999
1554881375708,4.065479,0.9696813,8.664881,-0.0041520509999999995,-0.06565274,0.047214385,-24.539998999999998,37.559998,-13.92
1554881375729,4.206741,0.9337671999999999,8.904308,0.02028256,-0.11146764,0.019114584,-24.06,37.5,-13.92
1554881375749,4.209135,0.9912298,8.5882635,0.041662842,-0.13956745,0.011173336,-24.18,38.34,-13.62
1554881375768,4.120547,1.0917894,8.439817999999999,0.027002078,-0.0821461,-0.01875906,-24.6,38.16,-13.74
1554881375789,4.06069,1.0893950000000001,8.597841,0.02150429,-0.005787948,-0.04563713,-24.3,37.32,-13.019999499999999
1554881375808,3.8452053,1.0965778999999998,8.925857,0.034332457999999996,-0.035109483,-0.07495867,-23.88,37.86,-12.78
1554881375828,3.6297207,0.9624985,8.2387,0.019671693,-0.0027336220000000002,-0.17086451,-24.42,37.8,-13.86
1554881375849,3.3783216,1.0893950000000001,7.903500999999999,-0.045690887,0.22939517,-0.31197438,-25.019999,37.98,-14.099998999999999
1554881375868,3.5507095,1.0391153,8.935433,-0.066460304,0.36012033,-0.46713415,-24.42,38.28,-13.559999
1554881375888,3.8547822999999997,1.3360053,9.545974000000001,-0.05668646,0.07484627,-0.4524734,-24.539998999999998,37.2,-12.84
1554881375908,4.697566999999999,1.8819,9.481328,-0.032251853,-0.2971707,-0.20507297,-25.14,37.2,-13.139999
1554881375929,5.6672482,1.9297855,9.136553,-0.010871569,-0.5231908,-0.06762828,-24.779999,37.68,-13.92
1554881375948,5.6385174000000005,1.6161355,8.099832000000001,-0.12937942,-0.12368494,-0.08228905,-24.96,36.899998,-13.92
1554881375968,4.7310870000000005,0.9984126,8.875577,-0.13243374,-0.056489766,-0.043804534000000006,-25.32,36.96,-13.799999
1554881375988,4.3791285,0.53392327,8.432636,-0.085397124,-0.044272455999999995,-0.07373693,-25.8,36.96,-13.259998999999999
1554881376009,4.3599744000000005,0.43336374,8.40151,-0.09944703,-0.018005254,-0.09633894,-25.38,36.84,-13.799999
1554881376028,4.522785,0.55307746,8.5331955,-0.11594039,0.01375974,-0.10000414,-25.199999,37.739998,-13.679998999999999
1554881376048,4.8579836,0.47167215,8.607418,-0.10494482,0.024144448,-0.08900857,-25.439999,37.8,-13.74
1554881376069,4.98488,0.4764607,8.741497,-0.061573382,0.0027641652000000004,-0.08778684,-25.019999,37.26,-13.259998999999999
1554881376088,4.7550297,0.57223165,8.61939,-0.0053737815,0.03697262,-0.10183673,-24.84,37.2,-12.66
1554881376108,4.608979,0.7972935,8.375174000000001,0.03066727,0.1322676,-0.09206289,-25.8,36.66,-14.46
1554881376128,4.580248,0.9026415999999999,8.502069,0.06915178,0.16586518,-0.061519627,-27.24,37.14,-17.22
1554881376149,4.5347567,1.1300976999999999,8.923461999999999,0.109468885,0.106000386,-0.007152621,-27.96,37.26,-18.72
1554881376168,4.4318027,1.2498114,9.131764,0.13390349,0.019868392,0.031942755,-26.88,36.6,-18.6
1554881376188,4.022382,1.5299416000000001,8.992896,0.14245561,-0.025946502000000003,0.053933904000000005,-25.92,37.44,-17.22
1554881376209,3.8308396,1.7454262999999999,8.746285,0.14428821,-0.047326785,0.06554034,-25.859999,37.32,-17.46
1554881376228,3.8380224999999997,1.8004947,8.664881,0.13940127,-0.05282457,0.068594664,-26.039998999999998,37.739998,-17.52
1554881376248,4.216318,1.333611,8.346442,0.105192825,-0.02105958,0.067983806,-27.0,37.559998,-18.18
1554881376269,4.4772940000000006,1.3910737,8.245882,0.053269282,0.087063566,0.05454477,-27.119999,37.62,-17.64
1554881376288,4.618556,1.2785428,8.557138,0.036165055,0.13348934,0.028888429,-26.279999,37.92,-18.119999
1554881376308,4.723904,1.3862851,8.76544,0.048382357,0.12799154,0.025223237000000003,-26.519999,37.68,-17.279999
1554881376329,4.6664414,1.0678465,8.777411,0.022115153999999998,0.12738067,0.011173336,-26.279999,37.26,-16.44
1554881376348,4.398283,1.2306572,8.806142999999999,-0.035306178,0.08156578,0.011173336,-26.34,37.26,-17.64
1554881376369,4.005622,1.3886794,8.46855,-0.09456010000000001,0.07851146,0.00811901,-27.24,37.38,-19.02
1554881376388,3.703943,1.4269878,8.492493,-0.1385424,0.14998269,0.014227662,-28.019999,37.26,-18.779999
1554881376408,3.5602864999999997,1.2761483999999998,8.729526,-0.18435729999999997,0.15303701,0.019725451,-27.779999,37.14,-18.3
1554881376428,3.5698638,1.1492518999999999,9.067119,-0.19962893,0.15609133,0.01606026,-27.18,37.5,-18.779999
1554881376448,3.6464806000000003,0.8882760000000001,9.323306,-0.15809008,0.08095492,0.0038429531,-26.4,37.62,-19.5
1554881376468,3.9242165,0.7972935,9.215564,-0.11227519999999999,0.039416082000000005,-0.0022656992,-26.4,37.739998,-19.26
1554881376488,3.8356282999999998,0.7134939,8.93304,-0.08112107,-0.011896601000000001,-0.046858862,-26.4,37.68,-19.32
1554881376510,3.9721019999999996,1.0271438,8.7822,-0.051799542999999997,-0.024113905,-0.0743478,-26.279999,37.559998,-18.539998999999998
1554881376529,4.494054,1.0055954,8.844451,0.0056217927,-0.038163807,-0.06762828,-25.74,37.26,-17.82
1554881376548,4.5970078,0.8236305,8.942616000000001,0.06365399,-0.09008735,-0.08595424,-25.56,37.32,-17.58
1554881376568,4.6568646,0.5770202,8.755863,0.10030591,-0.14140004,-0.10916711400000001,-26.039998999999998,37.62,-18.24
1554881376589,4.577853,0.57223165,8.719949,0.16872281,-0.12368494,-0.14459729999999998,-26.64,37.2,-18.42
1554881376609,4.3863115,1.2953026,8.432636,0.172388,-0.10535899,-0.13604519,-26.699999,36.84,-18.42
1554881376628,4.1804037,3.2202997000000004,7.953780999999999,0.013563041000000001,-0.066874474,-0.023645982000000003,-26.88,37.44,-18.3
1554881376648,4.5706706,2.2147042999999997,8.609812,-0.16114442,0.09439395,0.14189849999999998,-26.88,38.579997999999996,-18.359999
1554881376668,4.415043,1.515576,8.942616000000001,-0.14831625,0.11760683,0.21336974,-26.82,38.16,-17.58
1554881376688,4.252232,0.5698373999999999,8.820508,-0.07317982599999999,0.07606799,0.22497617,-26.76,37.68,-16.8
1554881376708,3.981679,-0.016759925,8.590658,0.0025674668,0.06873761,0.14128762,-26.58,37.38,-17.1
1554881376729,3.9505534,0.21309046,8.566715,0.02028256,0.1023352,0.042327464,-25.92,38.04,-16.02
1554881376748,3.9361877,0.5027977,8.8324795,0.04349544,0.120661154,-0.028532906,-26.099998,38.34,-16.56
1554881376769,4.046324299999999,0.81165916,9.117398,0.13146004,0.09439395,-0.110388845,-27.48,38.219997,-18.539998999999998
1554881376789,4.237866400000001,0.73743665,9.136553,0.19987693,0.08950703,-0.14154297,-26.22,37.92,-18.48
1554881376808,4.400677,0.57462597,9.150917999999999,0.26523954,0.005207626,-0.1464299,-26.279999,38.46,-19.5
1554881376829,4.051113,2.8946784,8.535589,0.1546729,-0.16766724,-0.09389549,-27.24,37.98,-19.8
1554881376848,4.4988421999999995,3.2873392,8.059128999999999,-0.09028405,-0.15667166,0.061875152999999995,-27.539998999999998,37.32,-19.98
1554881376869,4.271386,1.7981004,8.851633999999999,-0.1422076,-0.034498617,0.18710253,-27.359999,36.96,-18.48
1554881376889,3.8643596,1.0247495999999998,8.901914,-0.033473585,0.06446156,0.22253272,-27.06,37.26,-18.24
1554881376908,3.5794407999999995,0.42857520000000005,8.463761,0.07770389,0.09622655,0.15717013,-26.519999,37.68,-18.9
1554881376929,3.9242165,0.6560313,8.554744,0.008676119,0.1023352,0.06309688,-26.82,37.62,-19.14
1554881376948,4.0989985,0.9816527,8.875577,-0.063405976,0.09439395,0.021558044,-27.42,37.86,-18.96
1554881376969,4.0989985,1.4485363000000002,9.019233,-0.042025695999999994,0.043081272000000004,0.0020103576,-26.88,37.38,-17.76
1554881376991,4.1612496,1.4341706,8.91628,-0.0053737815,0.032085697999999996,0.011173336,-25.859999,37.079997999999996,-18.06
1554881377011,4.2833575999999995,1.1636176,8.968952999999999,0.01111958,0.010094549,0.038662273,-25.56,37.02,-18.42
1554881377029,4.2737803,0.9696813,8.760652,0.034943324,-0.057711492999999996,0.06370775,-26.699999,37.38,-19.26
1554881377048,4.163644000000001,0.9433443000000001,8.607418,0.04716063,-0.04549419,0.061264288,-26.16,37.26,-17.88
1554881377069,4.084633,0.88588166,8.693612,0.05571274,0.02658791,0.034997083,-25.38,37.02,-17.58
1554881377089,4.127730000000001,0.7877164000000001,8.772623,0.07098438,0.057742037,0.0038429531,-26.099998,37.559998,-19.619999
1554881377108,4.1660379999999995,0.6751855,8.755863,0.09480812400000001,0.08217664,-0.02792204,-26.039998999999998,37.98,-19.92
1554881377129,4.182798,0.70631105,8.786988000000001,0.1302383,0.12310462400000001,-0.038306747,-25.98,37.8,-19.38
1554881377148,4.0989985,2.3487834999999997,8.727132000000001,0.045328032000000004,0.03819435,0.015449393999999998,-26.34,37.86,-19.32
1554881377168,4.278569,2.4445546,8.959375999999999,-0.06707118,-0.057100628,0.085698895,-26.58,38.1,-20.1
1554881377188,4.268992,1.8004947,9.119793,-0.07745588,-0.07481572,0.15350494,-26.16,37.86,-19.98
1554881377209,3.9888617999999996,1.1923488000000002,8.822903,-0.032862715,-0.025335636,0.19198945,-25.98,37.98,-19.98
1554881377228,3.7781656000000003,0.69912827,8.607418,0.013563041000000001,-0.00029016097,0.16755484,-26.099998,38.04,-19.859999
1554881377249,3.8260512,0.61293435,8.542772,0.02516948,0.013148874,0.10707918,-26.82,38.16,-19.5
1554881377268,3.921822,0.6464542,8.686428999999999,0.02394775,0.029642237000000002,0.05026871,-25.439999,38.04,-18.72
1554881377288,3.9194279,0.84278476,8.772623,0.06548659,0.042470407,0.0026212228,-25.5,38.1,-18.9
1554881377308,4.063084,0.9122186999999999,8.856422,0.10702542,0.06385068599999999,-0.042582805999999994,-25.98,37.86,-19.5
1554881377328,4.1612496,0.8236305,9.021627,0.15100773,0.068126746,-0.07373693,-25.26,37.739998,-19.68
1554881377349,4.223500700000001,0.7685622,8.911489999999999,0.18949224,0.04063781,-0.07373693,-24.779999,38.04,-19.5
1554881377368,4.1804037,2.7821474,8.60263,0.08442341,-0.05526803,-0.019980792,-25.38,38.34,-19.02
1554881377388,4.4485626,2.5163830000000003,8.674458,-0.11777299,-0.054046303,0.071038134,-25.74,38.1,-18.779999
1554881377408,4.400677,1.5993756000000001,9.160496,-0.14648366,-0.010064005,0.13762243,-24.96,36.719997,-19.14
1554881377428,4.022382,0.7733508000000001,9.138947,-0.008428108,-0.032055154,0.14312023,-24.42,36.239998,-18.359999
1554881377449,3.6943660000000005,0.3232271,8.425453,0.07403871,-0.024724772000000002,0.08203371,-24.66,37.44,-18.72
1554881377468,3.8691480000000005,0.600963,8.432636,0.050214954000000006,-0.0039553526,0.02461237,-24.539998999999998,38.579997999999996,-18.84
1554881377489,3.9840732000000005,0.93616146,8.755863,0.03677592,0.054076847000000004,-0.024256847999999998,-25.8,38.46,-18.9
1554881377508,4.075055600000001,1.0606636999999999,8.9186735,0.08869946,0.07912232,-0.050524052,-25.98,37.98,-19.8
1554881377529,4.1349125,1.0774237,8.921068,0.14306647,0.060185496,-0.058465302000000004,-25.859999,38.16,-19.859999
1554881377548,4.168432,1.7478206000000003,8.8085375,0.08992119999999999,-0.005177083,-0.023035117999999997,-25.68,37.98,-19.619999
1554881377569,4.304906,2.1572416000000003,8.937828,-0.060351655,-0.08458956,0.04660352,-26.099998,37.86,-18.9
1554881377588,4.206741,1.6592325,8.980925,-0.079288475,-0.06809620599999999,0.078368515,-26.279999,37.8,-18.96
1554881377608,3.9026680000000002,1.036721,8.775017,-0.026754063999999998,-0.036942072,0.09913793,-25.68,38.28,-20.22
1554881377631,3.8619652,0.8140534,8.406299,0.01111958,-0.027779097000000003,0.06920554,-25.199999,37.86,-19.92
1554881377648,4.034353299999999,0.94573855,8.494887,-0.0010977248,0.0015424347,0.04293833,-25.199999,37.62,-19.619999
1554881377669,4.146884,1.1708003,8.767835,-0.0065955119999999996,0.052855115,0.03133189,-25.439999,38.46,-19.02
1554881377688,4.1564612,1.1516461,8.889942,0.03311073,0.060796365,0.019114584,-24.66,39.059998,-19.08
1554881377709,4.2115293,1.0678465,8.892337,0.06793004,0.02170099,0.00934074,-25.38,39.0,-19.8
1554881377728,4.233078,1.1372806,8.839663,0.07831476,-0.005787948,0.006897279,-25.5,38.82,-19.56
1554881377749,4.1756153,1.3455825000000001,8.763046000000001,0.07037351,-0.011285735,0.02094718,-25.14,38.7,-19.619999
1554881377768,4.149278,1.5419129999999999,8.693612,0.054491013,0.01375974,0.041105732,-25.619999,38.76,-19.859999
1554881377788,4.1301239999999995,1.4700848,8.801354,0.03799765,0.03452916,0.08325543,-25.92,37.2,-19.439999
1554881377809,4.120547,1.2976969999999999,8.830086,0.04716063,0.03819435,0.09974880000000001,-25.859999,36.96,-19.92
1554881377829,4.0678730000000005,1.2306572,8.786988000000001,0.06915178,0.03452916,0.120518215,-25.26,38.04,-20.34
1554881377848,4.106180999999999,1.3862851,8.722342999999999,0.05510188,0.0027641652000000004,0.13823329999999998,-25.38,38.46,-20.039998999999998
1554881377869,4.228289,1.3120626,8.693612,0.025780346000000003,0.0045967609999999996,0.14434196,-25.74,38.28,-20.64
1554881377888,4.237866400000001,1.2498114,8.777411,0.014173906000000002,0.02658791,0.14617456,-25.32,37.86,-20.52
1554881377909,4.084633,1.4964218,8.822903,0.022726017999999997,0.015592336000000002,0.16450052,-24.84,38.46,-20.16
1554881377929,4.0032277,1.647261,8.813326,-0.018201953,-0.036942072,0.18404820000000002,-25.38,38.82,-20.16
1554881377948,4.0726614,1.3431882,8.913885,-0.068903774,-0.032055154,0.20359589,-24.779999,38.76,-19.38
1554881377969,4.0989985,1.1803774999999999,8.925857,-0.086008,-0.011896601000000001,0.20603935,-23.76,38.94,-19.02
1554881377988,4.0439300000000005,0.84039044,8.839663,-0.05974079,-0.0027336220000000002,0.19321118,-23.939999,38.64,-17.64
1554881378008,3.9601305,0.45970076,8.664881,0.034332457999999996,-0.011896601000000001,0.15778099,-23.939999,38.34,-16.5
1554881378028,3.8691480000000005,0.38787252,8.557138,0.10824715,-0.008842275,0.09852707,-23.939999,39.0,-18.119999
1554881378049,3.9242165,0.60335726,8.743892,0.15711638,0.010705414,0.012395066000000001,-24.96,38.94,-20.22
1554881378069,4.065479,0.6847626,8.854028999999999,0.20598559,0.038805213,-0.047469727999999996,-24.96,38.82,-21.0
1554881378088,4.14449,0.68715686,8.940222,0.26890472,0.062018092999999996,-0.08351078,-24.359999,38.7,-20.699999
1554881378108,4.209135,1.1468576000000001,8.775017,0.28051114,0.046135597,-0.078012995,-24.119999,39.3,-20.34
1554881378128,4.348003,1.9944308999999998,8.633755,0.1546729,-0.046105053,-0.04197194,-24.359999,39.66,-20.699999
1554881378148,4.328849,3.7087317000000004,8.739103,-0.079288475,-0.12918273,0.00934074,-24.42,39.54,-21.06
1554881378169,4.4222255,1.9178141,9.028810499999999,-0.23933518,-0.077259175,0.07348159,-24.359999,39.18,-20.52
1554881378188,4.11097,1.0822121999999998,9.179649000000001,-0.21306796,-0.062598415,0.10219226,-24.9,38.879996999999996,-20.4
1554881378208,3.7733772000000005,0.4070267,8.547561,-0.11288606400000001,-0.091309085,0.089974955,-24.48,38.64,-20.039998999999998
1554881378228,3.8332339999999996,0.48603779999999996,8.360807000000001,-0.058519058,-0.06748534,0.060042556,-23.82,38.46,-19.68
1554881378248,3.9721019999999996,0.75659084,8.557138,-0.01575849,-0.05099198,0.024001507000000002,-24.06,38.34,-19.68
1554881378268,3.9433705999999997,0.8571504000000001,8.681641,0.06670832,0.0076510874,-0.03280896,-24.9,38.82,-19.8
1554881378289,4.07745,1.1061549,8.863605499999998,0.10885802,0.018646661000000002,-0.081067316,-24.84,38.7,-20.1
1554881378309,4.199558000000001,1.1540405,8.775017,0.10702542,-0.007620544,-0.09511722,-24.42,38.34,-20.4
1554881378328,4.362368599999999,1.201926,8.686428999999999,0.10274937,-0.036942072,-0.09633894,-24.3,38.399998,-19.98
1554881378349,4.37434,1.3144568,8.621783,0.12168619,-0.057100628,-0.08717597,-24.6,39.36,-19.8
1554881378368,4.3408203,1.350371,8.571504,0.1284057,-0.026557367000000002,-0.08717597,-24.18,38.82,-20.039998999999998
1554881378388,4.4174370000000005,1.5993756000000001,8.686428999999999,0.07037351,-0.010064005,-0.08412164400000001,-24.0,38.52,-20.22
1554881378409,4.336032,2.5666625,8.727132000000001,-0.10005789,-0.030833423,-0.042582805999999994,-23.699999,39.3,-20.1
1554881378428,4.450957,1.673598,9.009656,-0.21306796,-0.024724772000000002,0.0020103576,-23.939999,38.94,-19.8
1554881378448,4.182798,1.0846065,8.992896,-0.16847481,-0.062598415,0.017281988999999998,-25.08,38.7,-20.039998999999998
1554881378469,3.8571767999999995,0.68715686,8.55235,-0.0701255,-0.074204855,-0.0059308903,-24.779999,38.64,-20.039998999999998
1554881378488,3.8835137000000004,0.7302538000000001,8.487703999999999,-0.023088872000000003,-0.05282457,-0.041361075,-24.48,38.64,-20.4
1554881378509,4.0918155,0.9505271000000001,8.624178,0.0025674668,-0.027168231,-0.07129347,-24.539998999999998,38.52,-19.56
1554881378528,4.247443700000001,0.9888355,8.722342999999999,0.060599665999999996,-0.005177083,-0.10489106,-24.66,38.34,-19.08
1554881378548,4.314483,1.0893950000000001,8.703189,0.10824715,-0.009453139000000001,-0.13054739,-24.9,38.28,-19.92
1554881378568,4.3240604000000005,1.1085492000000001,8.593052,0.1284057,0.0058184913,-0.13787778,-25.26,38.04,-20.279999
1554881378588,4.4725056,1.5897985000000001,8.600235000000001,0.099084176,-0.019226983,-0.10733452,-25.019999,37.92,-20.88
1554881378609,4.4844766,3.3663504,8.499676,-0.060351655,-0.07298312,-0.02242425,-24.84,38.219997,-20.52
1554881378628,4.647287400000001,2.135693,8.889942,-0.19962893,-0.009453139000000001,0.07348159,-25.56,38.28,-19.98
1554881378648,4.2187123,1.2737542,9.198803999999999,-0.16969654,-0.039996404,0.113187835,-25.92,38.399998,-20.16
1554881378669,3.9433705999999997,0.60335726,8.715160000000001,-0.059129924,-0.107191585,0.08814236,-25.74,38.219997,-19.68
1554881378689,3.8835137000000004,0.5554718000000001,8.327288000000001,-0.010871569,-0.097417735,0.031942755,-25.8,37.739998,-19.8
1554881378708,4.017593,0.70631105,8.372779,-0.0023194554,-0.02350304,-0.023035117999999997,-25.859999,38.28,-19.74
1554881378728,4.2618093,0.8140534,8.597841,0.057545338,0.05102252,-0.09389549,-25.26,38.399998,-18.9
1554881378749,4.338426,1.0271438,8.734314999999999,0.11130148,0.05102252,-0.13238,-25.56,38.46,-20.22
1554881378768,4.4653225,1.1444633,8.794171,0.12718397,0.041859537,-0.14337556,-25.14,38.879996999999996,-20.58
1554881378789,4.5874305,1.5634614,8.743892,0.10702542,-0.035109483,-0.10366933,-24.9,38.7,-20.46
1554881378808,4.522785,3.4453614000000004,8.447001,-0.018201953,-0.12490667,-0.026089442999999997,-25.08,38.219997,-19.8
1554881378829,4.685596,2.3056867000000003,8.710372,-0.17275086,-0.030222557,0.08508803,-24.779999,37.86,-20.1
1554881378848,4.400677,1.2929084,9.016839,-0.16725306,-0.011285735,0.120518215,-25.26,38.28,-19.98
1554881378868,4.051113,0.70631105,8.7534685,-0.086008,-0.077259175,0.105857454,-25.14,37.92,-19.98
1554881378888,3.964919,0.6273,8.286585,-0.063405976,-0.06626361,0.056988227999999995,-24.84,37.5,-20.1
1554881378909,4.010410299999999,0.7877164000000001,8.442213,-0.068903774,0.0033750306,0.005064684,-24.3,38.34,-19.98
1554881378928,4.146884,0.8140534,8.736709,-0.0072063776,0.062018092999999996,-0.040139344,-23.88,38.34,-18.779999
1554881378949,4.1851926,0.92658436,8.755863,0.061210528,0.03819435,-0.0865651,-24.359999,38.04,-17.52
1554881378968,4.247443700000001,1.0558752,8.648121000000002,0.07648216,0.01375974,-0.115886636,-24.66,38.34,-17.94
1554881378990,4.314483,1.2354459,8.58587,0.057545338,0.023533582999999997,-0.12138442,-24.48,37.739998,-17.94
1554881379008,4.4653225,1.4605076000000001,8.667274,0.04349544,0.022311853,-0.10000414,-24.66,37.68,-17.88
1554881379028,4.5467277,2.126116,8.583475,0.0025674668,-0.007620544,-0.055410977,-25.08,37.86,-17.52
1554881379049,4.6065845,2.3535721,8.686428999999999,-0.11288606400000001,0.015592336000000002,0.02216891,-24.359999,37.5,-16.26
1554881379069,4.4749,1.6496553,8.92825,-0.16725306,0.027198775,0.07897938,-24.3,37.62,-16.5
1554881379091,4.228289,1.1300976999999999,8.784595,-0.15381405,-0.013729197,0.09913793,-24.6,38.219997,-17.52
1554881379110,4.0582957,0.6608198000000001,8.456578,-0.10861001,-0.0027336220000000002,0.06554034,-25.32,38.46,-18.779999
1554881379129,4.0966043,0.5913859,8.430242,-0.07867761,0.029642237000000002,0.02094718,-25.56,38.34,-19.02
1554881379148,4.1516724,0.6488484999999999,8.607418,-0.034695312,0.068126746,-0.034030695,-24.72,38.399998,-19.02
1554881379168,4.163644000000001,0.818842,8.703189,0.028834672999999998,0.10661126,-0.08045645,-24.42,38.64,-19.08
1554881379188,4.2187123,0.9481328000000001,8.636149000000001,0.063043125,0.109054714,-0.110388845,-24.66,38.28,-19.619999
1554881379208,4.415043,1.1468576000000001,8.660092,0.06793004,0.11516337,-0.12260616,-25.26,38.82,-19.199999
1554881379228,4.63771,1.3024855,8.889942,0.06426486,0.056520306,-0.10489106,-25.56,38.7,-18.9
1554881379248,4.5946136,1.9896424,8.892337,0.034332457999999996,-0.041828997,-0.058465302000000004,-25.439999,38.399998,-19.8
1554881379268,4.5132080000000006,2.5020173,8.978531,-0.07867761,-0.07237226,0.033164486,-25.56,38.399998,-20.279999
1554881379288,4.3216662,1.6568381999999997,9.160496,-0.10189049,-0.09069822,0.08814236,-25.56,38.16,-19.859999
1554881379308,4.245049,0.9864412,9.079089999999999,-0.04508002,-0.15606079,0.122350805,-25.5,38.219997,-19.02
1554881379328,4.075055600000001,0.39266106,8.58587,0.012952176000000001,-0.20554088,0.07348159,-25.56,37.98,-18.06
1554881379348,4.06069,0.38068968,8.293768,0.044106305,-0.17438675,-0.01875906,-25.8,38.76,-18.3
1554881379368,4.146884,0.68715686,8.243488000000001,0.07159524,-0.06320928,-0.09084116,-25.74,39.18,-18.359999
1554881379389,4.233078,0.9816527,8.430242,0.10641456,0.02903137,-0.13971037,-25.98,38.82,-18.66
1554881379408,4.2665977,1.1516461,8.657698,0.13940127,0.04857906,-0.17086451,-25.619999,38.219997,-19.56
1554881379428,4.5132080000000006,1.3288225,8.636149000000001,0.113744944,0.020479258,-0.17514056,-25.439999,37.559998,-19.38
1554881379448,4.558699,2.1596357999999998,8.676852,0.04349544,-0.043661594000000005,-0.13604519,-25.98,37.44,-18.779999
1554881379469,4.4246197,3.2705792999999996,8.514041,-0.08845145,-0.03755294,0.019725451,-25.619999,37.62,-18.6
1554881379488,4.264203500000001,1.812466,8.648121000000002,-0.17763779,0.051633384000000004,0.11257697,-25.619999,37.32,-19.38
1554881379508,4.1157584,0.9313729,8.930645,-0.15320317,0.019257527,0.13945504,-26.279999,37.32,-19.92
1554881379528,4.0199876,0.43096948,8.729526,-0.07501242,-0.042439863,0.08508803,-26.46,38.04,-20.22
1554881379548,4.1013927,0.29689008,8.576292,-0.026754063999999998,-0.041828997,0.019725451,-26.46,38.7,-19.68
1554881379569,4.415043,0.6656084,8.607418,0.00989785,0.007040222,-0.028532906,-26.16,39.12,-19.14
1554881379588,4.537151000000001,1.0654523,8.679246000000001,0.04716063,0.040026948,-0.05602184,-26.039998999999998,38.16,-19.14
1554881379608,4.5970078,1.4748733,8.734314999999999,0.0599888,0.009483683,-0.056632705,-25.26,37.739998,-19.02
1554881379629,4.618556,1.6927522000000002,8.664881,0.034943324,-0.034498617,-0.03280896,-25.26,38.28,-18.9
1554881379648,4.5898247,1.6568381999999997,8.607418,0.0044000624,-0.03633121,-0.0022656992,-26.22,38.16,-18.6
1554881379668,4.410254,1.4365649,8.528407000000001,-0.0004868596,-0.014950926000000002,0.011173336,-25.859999,37.38,-18.3
1554881379688,4.206741,1.2522057,8.511647,0.011730445,0.014370603999999999,0.0038429531,-25.32,37.14,-17.82
1554881379708,4.158855399999999,1.1684061000000001,8.600235000000001,0.027002078,0.04491387,-0.008374351,-25.38,37.68,-18.359999
1554881379729,4.235472,1.0989721000000001,8.674458,0.047771495,0.043692134,-0.024256847999999998,-25.439999,38.28,-19.14
1554881379748,4.336032,1.0391153,8.681641,0.06426486,0.027198775,-0.04197194,-25.859999,38.1,-19.32
1554881379769,4.3887057,0.9912298,8.729526,0.086256005,0.012538008,-0.06335222,-26.519999,38.04,-19.439999
1554881379788,4.455744999999999,1.4652961000000002,8.741497,0.08503427,-0.018616118,-0.06274136,-26.099998,38.52,-19.38
1554881379809,4.403071400000001,2.638491,8.55235,-0.0053737815,-0.04305073,0.016671123,-26.16,38.46,-19.74
1554881379828,4.4653225,1.7885233,8.633755,-0.102501355,0.019257527,0.09486188,-26.699999,38.879996999999996,-19.74
1554881379848,4.2546263,1.1013663999999999,8.746285,-0.10372309,0.003985896,0.124794275,-26.34,38.46,-19.32
1554881379868,4.0989985,0.6847626,8.626572999999999,-0.05729733,-0.025946502000000003,0.09058581,-25.26,37.2,-18.24
1554881379889,4.1181526,0.6201171999999999,8.583475,-0.008428108,-0.007620544,0.035607945,-24.66,37.5,-17.1
1554881379909,4.2833575999999995,0.84278476,8.696006,0.02639121,0.020479258,-0.01875906,-25.5,38.1,-18.06
1554881379928,4.3408203,0.97446984,8.664881,0.07220611,0.043081272000000004,-0.063963085,-26.039998999999998,37.739998,-19.199999
1554881379948,4.410254,1.1516461,8.681641,0.09480812400000001,0.032085697999999996,-0.095728084,-25.5,37.5,-19.32
1554881379968,4.4318027,1.6975409,8.688824,0.07098438,-0.019226983,-0.09084116,-25.68,37.5,-19.68
1554881379989,4.371946,2.7294734,8.494887,-0.021867143,-0.035720345,-0.019369926000000003,-26.22,37.38,-18.539998999999998
1554881380009,4.4533510000000005,2.3799092999999996,8.571504,-0.10861001,0.016814066000000003,0.052101307,-25.5,37.62,-17.88
1554881380029,4.343214499999999,1.4652961000000002,8.856422,-0.13487722,0.029642237000000002,0.09486188,-24.66,37.32,-18.539998999999998
1554881380048,4.163644000000001,0.8547561,8.830086,-0.08845145,-0.043661594000000005,0.072870724,-24.779999,37.38,-17.82
1554881380068,4.0894213,0.51955765,8.605023,-0.038360503,-0.060765818,0.030110157999999998,-25.08,38.579997999999996,-18.18
1554881380088,4.1612496,0.6751855,8.435030000000001,0.0019566014000000002,-0.018616118,-0.015093869499999999,-25.32,39.12,-18.42
1554881380108,4.3192715999999995,0.749408,8.523619,0.053269282,0.041859537,-0.059076168,-25.74,39.12,-19.14
1554881380129,4.4844766,0.84278476,8.672064,0.10091677,0.05896377,-0.10183673,-25.92,38.399998,-19.8
1554881380148,4.6544704,0.8978530999999998,8.806142999999999,0.14184473,0.043692134,-0.13054739,-26.039998999999998,37.98,-18.66
1554881380168,4.8484063,0.85954463,8.909097000000001,0.15772723,-0.005177083,-0.13543433,-26.099998,38.46,-18.6
1554881380189,4.362368599999999,3.4333901,8.705584,0.06976264,-0.14995214,-0.052967515,-26.039998999999998,37.5,-19.14
1554881380208,4.527573599999999,2.6456738,8.233911500000001,-0.12876855,-0.010064005,0.09669448,-25.859999,36.42,-19.38
1554881380228,4.259414700000001,1.5754328000000002,8.707977,-0.17091826,0.07606799,0.15839186,-25.56,37.26,-19.199999
1554881380249,4.0678730000000005,0.6392714,8.887547999999999,-0.07806674400000001,-0.013118331,0.13212465,-25.56,37.559998,-19.74
1554881380268,3.8045027,0.5865973000000001,8.595447,-0.004762916,-0.061376687,0.069816396,-25.32,37.62,-19.5
1554881380288,4.024776,0.9577099,8.494887,0.0025674668,-0.025946502000000003,0.01606026,-25.56,38.16,-18.3
1554881380308,4.1804037,1.1348863,8.523619,0.019671693,0.059574634,-0.012650409,-25.8,38.28,-18.42
1554881380328,4.2570205,1.2162915,8.655303,0.06793004,0.06446156,-0.037695885,-25.08,38.34,-19.02
1554881380348,4.3767343,1.1995316999999999,8.736709,0.092364654,0.0076510874,-0.0602979,-25.199999,38.16,-19.5
1554881380369,4.5108137,1.2402343999999998,8.73192,0.07648216,-0.006398813299999999,-0.07312607,-25.8,38.04,-19.56
1554881380388,4.5443335,1.5658557,8.60263,0.05204755,-0.014340061000000001,-0.063963085,-25.92,37.62,-18.3
1554881380409,4.436591,2.5187771,8.379961999999999,-0.031030122,0.0009315695,-0.008985217,-25.38,37.68,-18.6
1554881380428,4.5060253,1.8459859,8.583475,-0.12876855,0.058352903,0.04660352,-25.38,38.1,-19.92
1554881380449,4.4078599999999994,1.1803774999999999,8.892337,-0.14892711,0.046746462999999995,0.07225986,-26.22,37.32,-19.32
1554881380468,4.242655,0.7637736999999999,8.868394,-0.09944703,-0.025946502000000003,0.056377366,-25.74,37.26,-19.199999
1554881380489,4.1947694,0.5818088,8.633755,-0.039582234,-0.057711492999999996,0.013005932,-25.439999,38.16,-19.56
1554881380508,4.182798,0.84039044,8.454185,0.00989785,-0.0033444872,-0.038306747,-25.92,38.579997999999996,-18.6
1554881380528,4.2618093,0.9577099,8.573898,0.060599665999999996,0.05896377,-0.078012995,-26.099998,37.92,-18.48
1554881380548,4.3216662,1.0798178999999999,8.743892,0.10641456,0.06140723,-0.10428019599999999,-26.64,37.739998,-19.38
1554881380569,4.419831299999999,1.0941836,8.834874000000001,0.13512523,0.02903137,-0.12077356,-26.699999,37.68,-19.439999
1554881380589,4.582642,1.1157321000000002,8.930645,0.1461208,-0.03266602,-0.10977799,-26.82,37.559998,-18.96
1554881380608,4.558699,1.7526091000000001,8.803747999999999,0.12718397,-0.07603745,-0.096949816,-25.859999,37.26,-18.0
1554881380628,4.4749,2.4373717,8.348836,-0.16603135,0.023533582999999997,0.11685303,-26.099998,37.2,-19.199999
1554881380648,4.4126487,1.2857256000000001,8.921068,-0.17763779,0.06507242,0.15839186,-26.46,37.68,-19.619999
1554881380668,4.2618093,0.5411060999999999,8.873182,-0.07379068400000001,-0.030222557,0.12418339999999999,-26.88,37.68,-18.779999
1554881380689,4.075055600000001,0.42378664,8.427847,0.00989785,-0.062598415,0.041716598,-26.699999,37.62,-18.66
1554881380708,4.3240604000000005,0.9026415999999999,8.3679905,0.022726017999999997,-0.007009679,-0.01875906,-25.92,37.739998,-19.32
1554881380729,4.3240604000000005,1.0055954,8.458973,0.06609745,0.08645271,-0.05724357,-25.56,38.28,-19.26
1554881380748,4.355186,1.0870007,8.655303,0.121075325,0.10661126,-0.08351078,-25.5,37.86,-18.9
1554881380768,4.470111,1.0893950000000001,8.964165,0.14123388,0.041248675,-0.09206289,-25.68,37.5,-18.96
1554881380789,4.338426,2.4541316,8.952193,0.08136908,-0.057100628,-0.06457395,-25.56,37.8,-19.619999
1554881380808,4.4629283,2.9473522,8.394327,-0.11655126,-0.029000828,0.07470332,-25.26,38.04,-17.82
1554881380829,4.237866400000001,1.6688095,8.681641,-0.19535288,0.05102252,0.14678541,-25.68,37.62,-17.64
1554881380848,4.065479,0.8930645,8.921068,-0.13915327,0.009483683,0.13884418,-26.22,37.38,-19.8
1554881380868,3.9984387999999997,0.39505535,8.715160000000001,-0.047523484000000005,-0.038163807,0.06676207,-25.92,37.5,-19.92
1554881380888,4.216318,0.6703969,8.557138,-0.01575849,-0.039385535,-0.0034874296,-25.619999,37.26,-19.56
1554881380908,4.333637,1.0127783000000001,8.427847,0.013563041000000001,0.013148874,-0.03952848,-25.74,37.32,-18.9
1554881380929,4.326454599999999,1.1013663999999999,8.564321000000001,0.07098438,0.051633384000000004,-0.075569525,-25.68,37.2,-18.84
1554881380948,4.410254,1.1468576000000001,8.688824,0.11007975,0.029642237000000002,-0.10794539,-26.46,37.2,-19.02
1554881380968,4.5634879999999995,1.1013663999999999,8.822903,0.11496667599999999,0.0033750306,-0.11894096400000001,-27.18,37.38,-19.26
1554881380989,4.5515165,1.786129,8.806142999999999,0.09114293,-0.05526803,-0.09511722,-25.92,36.96,-18.9
1554881381008,4.3911,3.4238129,8.157294,-0.066460304,-0.053435437,0.04416006,-25.32,36.6,-17.88
1554881381028,4.4078599999999994,1.8579572,8.511647,-0.20634845,0.091339625,0.14556369,-25.08,37.559998,-17.58
1554881381048,4.2618093,0.9696813,9.009656,-0.17091826,0.054076847000000004,0.16816571,-24.84,38.52,-18.48
1554881381068,4.0894213,0.32801566,8.901914,-0.068903774,-0.04121813,0.116242155,-25.14,38.28,-19.32
1554881381089,4.1037870000000005,0.30167863,8.652909,0.011730445,-0.07115053,0.030721024,-25.8,37.86,-19.56
1554881381108,4.264203500000001,0.72546524,8.427847,0.0459389,-0.021670444,-0.03708502,-26.099998,37.62,-19.38
1554881381128,4.2546263,0.9577099,8.480521000000001,0.09725158,0.06934848,-0.09511722,-25.68,37.98,-18.779999
1554881381149,4.367157499999999,1.1157321000000002,8.707977,0.14550993,0.066905014,-0.12932567,-26.039998999999998,37.68,-18.96
1554881381168,4.522785,1.1348863,8.887547999999999,0.15528378,0.0027641652000000004,-0.13971037,-25.98,36.78,-19.02
1554881381188,4.541939299999999,2.0351336,8.844451,0.11069061599999999,-0.07115053,-0.10366933,-25.8,36.899998,-19.5
1554881381208,4.5156019999999994,3.4549387,8.214757,-0.068903774,-0.074204855,0.044770923,-26.039998999999998,37.32,-19.56
1554881381228,4.333637,1.9585168000000002,8.439817999999999,-0.19229855,0.047968194000000006,0.14495282,-26.16,37.86,-18.84
1554881381248,4.1373067,0.85954463,9.002473,-0.14648366,0.041248675,0.14922889,-25.38,37.559998,-17.22
1554881381268,4.000833,0.28013015,8.861211,-0.043858293,-0.04793765,0.08264457,-24.9,37.38,-14.94
1554881381288,4.1325183,0.38787252,8.60263,0.0074543890000000005,-0.06870707,0.0026212228,-24.359999,37.079997999999996,-14.4
1554881381308,4.3240604000000005,0.7877164000000001,8.4781275,0.027612941000000002,-0.007620544,-0.0602979,-23.82,36.66,-13.98
1554881381328,4.336032,0.93616146,8.511647,0.080147356,0.052855115,-0.10611279,-24.18,37.38,-13.2
1554881381349,4.4294085999999995,1.1061549,8.739103,0.13329263,0.035140023,-0.13421258,-24.24,37.68,-13.559999
1554881381368,4.5467277,1.525153,8.825297,0.12901658,-0.027779097000000003,-0.13054739,-24.539998999999998,37.2,-14.16
1554881381389,4.4892654,2.832427,8.638542999999999,0.02150429,-0.08275697,-0.04930232,-24.539998999999998,36.719997,-14.099998999999999
1554881381408,4.5515165,2.5211713,8.406299,-0.12937942,-0.005787948,0.07348159,-24.359999,36.48,-13.62
1554881381431,4.304906,1.498816,8.633755,-0.16175528,0.056520306,0.12601600000000002,-24.539998999999998,36.78,-13.799999
1554881381448,4.120547,0.8786988000000001,8.8324795,-0.102501355,0.01375974,0.1119661,-25.8,37.62,-15.24
1554881381468,4.087027,0.46688359999999995,8.770228,-0.018812817,-0.035109483,0.053933904000000005,-26.099998,38.28,-17.4
1554881381488,4.168432,0.7039168,8.58587,0.014784772,-0.03755294,-0.00043310347,-25.8,38.219997,-18.539998999999998
1554881381508,4.2019525,0.9241901,8.504464,0.045328032000000004,0.009483683,-0.044415403,-25.92,37.92,-19.02
1554881381528,4.247443700000001,1.0534808999999998,8.578687,0.09725158,0.042470407,-0.08717597,-25.8,37.68,-19.14
1554881381549,4.4270144,1.1348863,8.798960000000001,0.12779485,0.024755314,-0.11405404,-25.5,37.14,-18.119999
1554881381568,4.6065845,1.4102278999999998,8.849239,0.11985359,-0.03144429,-0.09939327,-25.439999,37.14,-18.6
1554881381588,4.4844766,3.1269228,8.537984,0.015395637,-0.08520043,-0.008374351,-25.5,37.38,-19.439999
1554881381608,4.5754589999999995,2.5044115000000002,8.320105,-0.12876855,0.0064293565,0.10158139,-25.019999,36.899998,-19.26
1554881381628,4.300117500000001,1.2689656,8.712766,-0.15564664,0.06873761,0.14434196,-25.5,36.899998,-18.9
1554881381648,4.1253357,0.6440599,8.827691,-0.0841754,-0.0015118915,0.1119661,-26.46,37.92,-18.779999
1554881381669,4.0080160000000005,0.39984390000000003,8.664881,-0.0072063776,-0.036942072,0.048436115999999994,-25.98,37.86,-19.32
1554881381688,4.1612496,0.7781393,8.564321000000001,0.02028256,-0.021670444,-0.0132612735,-25.98,38.04,-19.8
1554881381709,4.216318,0.99362403,8.564321000000001,0.05876707,0.043081272000000004,-0.05968703,-25.98,38.579997999999996,-19.38
1554881381728,4.268992,1.1468576000000001,8.691217,0.099695034,0.059574634,-0.08412164400000001,-25.38,38.52,-19.32
1554881381749,4.4485626,1.3958621999999998,8.722342999999999,0.09725158,0.009483683,-0.08595424,-25.199999,38.399998,-18.9
1554881381768,4.529968,2.1572416000000003,8.688824,0.034943324,-0.028389962,-0.042582805999999994,-25.26,37.8,-18.72
1554881381789,4.6544704,2.4110348,8.55235,-0.09272751,-0.010064005,0.056377366,-25.859999,37.2,-19.32
1554881381808,4.4413795,1.4245936000000001,8.693612,-0.12571423,0.028420506,0.09669448,-26.279999,38.04,-19.08
1554881381829,4.242655,0.88588166,8.700794,-0.07745588,-0.0015118915,0.07531419,-26.4,38.579997999999996,-19.5
1554881381848,4.1157584,0.6273,8.628966,-0.022478009,-0.022892175,0.030110157999999998,-25.92,37.5,-19.5
1554881381868,4.1947694,0.88109314,8.549955,0.014173906000000002,-0.016783523999999998,-0.016926466,-25.5,37.079997999999996,-19.08
1554881381888,4.247443700000001,1.0702409,8.5882635,0.03921938,0.025977045,-0.04502627,-25.68,37.8,-19.38
1554881381908,4.285752,1.2785428,8.693612,0.06548659,0.03819435,-0.06701742,-26.22,38.04,-18.96
1554881381929,4.348003,1.5897985000000001,8.712766,0.060599665999999996,0.0064293565,-0.05724357,-26.279999,37.62,-18.96
1554881381948,4.400677,2.020768,8.672064,0.017839098,-0.016783523999999998,-0.02547858,-25.68,37.32,-19.5
1554881381969,4.5156019999999994,1.7741576000000001,8.684034,-0.07256896,-0.00029016097,0.061264288,-25.92,37.68,-19.32
1554881381988,4.4174370000000005,1.2953026,8.672064,-0.07867761,-0.0009010262400000001,0.08203371,-26.58,37.38,-18.72
1554881382009,4.295329,0.90503585,8.652909,-0.046912617999999996,-0.0021227568,0.06676207,-25.98,36.6,-17.94
1554881382028,4.276175,0.7350424,8.684034,-0.0004868596,-0.008842275,0.025834102,-25.32,37.62,-17.52
1554881382049,4.2737803,0.8786988000000001,8.6433325,0.03311073,-0.009453139000000001,-0.019980792,-25.68,37.92,-17.22
1554881382068,4.2402606,1.0151725,8.614600999999999,0.053269282,0.008872818000000001,-0.04502627,-25.32,37.32,-15.78
1554881382092,4.2258949999999995,1.1636176,8.696006,0.08136908,0.0162032,-0.0761804,-24.96,37.26,-16.08
1554881382109,4.3073006,1.3192455,8.739103,0.09114293,0.0021533,-0.085343376,-25.619999,37.92,-17.88
1554881382128,4.4078599999999994,1.3048798000000001,8.777411,0.08869946,-0.021670444,-0.075569525,-26.039998999999998,37.98,-18.779999
1554881382148,4.3408203,2.2721667,8.657698,0.04960409,-0.06565274,-0.038306747,-25.8,37.2,-18.42
1554881382168,4.4270144,2.430189,8.346442,-0.07867761,-0.0033444872,0.05454477,-25.26,37.44,-17.94
1554881382188,4.3025117,1.4485363000000002,8.746285,-0.10616655,0.035140023,0.09364014,-25.439999,37.8,-18.359999
1554881382208,4.1947694,0.9194015,8.798960000000001,-0.06401685,-0.008231409,0.07959024,-25.74,38.34,-19.08
1554881382228,4.1181526,0.7541966,8.600235000000001,-0.017591087,-0.032055154,0.026444968,-25.92,38.16,-19.439999
1554881382249,4.252232,0.9313729,8.482916000000001,0.008065254,0.0021533,-0.010206947,-25.8,37.86,-18.9
1554881382268,4.3240604000000005,1.0582695,8.564321000000001,0.031889,0.051633384000000004,-0.040139344,-24.96,37.26,-18.48
1554881382289,4.4270144,1.1995316999999999,8.700794,0.06915178,0.05346598,-0.06274136,-25.26,36.96,-17.94
1554881382308,4.529968,1.0941836,8.865999,0.07526043,0.022311853,-0.06335222,-26.58,38.219997,-18.72
1554881382328,4.3791285,2.351178,8.825297,0.02394775,-0.06809620599999999,-0.024867713,-26.099998,38.64,-19.199999
1554881382349,4.4749,2.3775147999999997,8.420665,-0.12449251,-0.025335636,0.07592505,-25.92,37.739998,-19.619999
1554881382368,4.364763,1.6783867,8.679246000000001,-0.17091826,0.047968194000000006,0.13151379,-26.58,36.84,-20.279999
1554881382388,4.249838,1.1372806,8.834874000000001,-0.14281847,0.010094549,0.13640071,-26.22,37.2,-19.199999
1554881382409,4.2187123,0.51716334,8.676852,-0.076234154,-0.035109483,0.08264457,-25.859999,37.5,-19.199999
1554881382428,4.1397014,0.51716334,8.583475,-0.026754063999999998,-0.04305073,0.011784201499999999,-25.859999,37.2,-18.9
1554881382449,4.233078,0.9481328000000001,8.490098,0.010508713999999999,0.00032070425,-0.035863288,-25.26,37.559998,-18.06
1554881382468,4.199558000000001,1.0415094999999999,8.48531,0.04960409,0.043081272000000004,-0.07129347,-25.14,37.92,-18.539998999999998
1554881382488,4.276175,1.0965778999999998,8.624178,0.09602985,0.03819435,-0.10366933,-24.84,38.04,-18.42
1554881382509,4.450957,0.9313729,8.739103,0.13146004,0.04063781,-0.13421258,-24.42,38.16,-18.0
1554881382528,4.582642,0.6895511,8.961771,0.17666407,0.019257527,-0.15131682,-24.9,38.219997,-18.539998999999998
1554881382548,4.4437739999999994,2.6528566000000002,8.818114,0.14184473,-0.07909177,-0.11894096400000001,-25.8,38.16,-18.9
1554881382569,4.8771377000000005,3.5794407999999995,7.788575999999999,-0.140375,-0.019226983,0.08814236,-26.279999,37.86,-18.72
1554881382588,4.496448,1.8795058,8.61939,-0.24910901,0.12493722,0.20481761,-26.16,37.68,-18.6
1554881382608,4.271386,0.35674694,9.239507000000001,-0.13793154,0.040026948,0.19260031,-26.039998999999998,37.32,-18.48
1554881382628,3.7063375,-0.07422252,8.789383,0.025780346000000003,-0.07481572,0.07470332,-25.92,37.02,-18.9
1554881382648,3.929005,0.23463893,8.351231,0.053880147999999996,-0.06809620599999999,-0.02670031,-25.92,37.32,-19.38
1554881382669,4.206741,0.818842,8.358414,0.056934476,0.027198775,-0.08961943,-25.619999,37.739998,-19.8
1554881382688,4.2905407,1.0439038,8.607418,0.12657312,0.11577424,-0.13604519,-25.74,38.46,-19.5
1554881382708,4.541939299999999,1.0941836,9.007261999999999,0.19621174,0.06629415,-0.14765163,-25.619999,37.86,-18.96
1554881382728,4.577853,2.466103,9.064724,0.13573608,-0.09191994,-0.10916711400000001,-25.619999,36.96,-19.199999
1554881382748,4.7789725999999995,3.6033835,8.178842999999999,-0.11716212,-0.12307408,0.05943169,-26.099998,37.5,-19.26
1554881382769,4.355186,2.0830189999999997,8.346442,-0.2387243,0.03452916,0.17793955,-26.699999,37.92,-19.26
1554881382788,4.1301239999999995,0.7901106999999999,8.827691,-0.17397259,0.079733185,0.18038301,-26.519999,36.96,-18.84
1554881382809,3.8092911,0.13647367,8.758257,-0.023088872000000003,0.0045967609999999996,0.06370775,-25.56,36.84,-18.42
1554881382828,4.02717,0.24900457,8.578687,0.012952176000000001,-0.025946502000000003,-0.032198098,-25.56,37.62,-18.3
1554881382848,4.3216662,0.7853220999999999,8.595447,0.0068435236,0.008261953,-0.081067316,-26.16,37.44,-18.66
1554881382869,4.3791285,1.1037607,8.688824,0.06915178,0.060185496,-0.11955183,-25.92,37.32,-18.9
1554881382888,4.4533510000000005,1.1277034,8.791777,0.1320709,0.04552473,-0.13482346,-25.74,37.86,-18.48
1554881382908,4.5970078,0.8978530999999998,8.959375999999999,0.16566849,-0.012507467,-0.13421258,-25.859999,38.219997,-18.359999
1554881382929,4.3168774,3.6800002999999997,8.652909,0.05204755,-0.14567609,-0.04197194,-25.8,37.68,-19.02
1554881382948,4.652076,2.8731298,8.104619999999999,-0.16297702,-0.019837848999999998,0.09547274,-25.8,37.44,-19.859999
1554881382968,4.3575800000000005,1.9010541,8.600235000000001,-0.22528526,0.09989174,0.1877134,-26.4,37.86,-20.1
1554881382988,4.0822387,0.48364350000000006,9.040782,-0.12082732,0.022922718999999998,0.16205706,-26.279999,37.86,-18.9
1554881383008,3.8739367,0.014365649,8.791777,0.0007348709,-0.05160284,0.062486015,-24.779999,37.559998,-16.98
1554881383029,4.14449,0.4644893,8.48531,0.030056402000000003,-0.056489766,-0.029754635,-24.6,37.32,-17.22
1554881383048,4.300117500000001,0.88109314,8.46855,0.05632361,0.021090122000000003,-0.07679126,-25.8,37.32,-17.82
1554881383069,4.300117500000001,1.1085492000000001,8.616995,0.12046446,0.07179194,-0.11649749400000001,-26.34,37.62,-18.24
1554881383088,4.45814,1.0582695,8.827691,0.17483146,0.02903137,-0.13421258,-26.039998999999998,37.079997999999996,-19.5
1554881383108,4.6544704,1.3096683,8.91628,0.16505761,-0.050381113,-0.12504962,-26.039998999999998,37.26,-20.22
1554881383128,4.582642,4.010410299999999,8.363202000000001,-0.021867143,-0.1334588,0.007508144699999999,-26.34,37.14,-19.8
1554881383149,4.5443335,2.351178,8.277008,-0.20329413,0.031474832,0.14128762,-26.279999,37.02,-19.32
1554881383168,4.304906,1.1085492000000001,8.849239,-0.18741162,0.102946065,0.18099388,-25.98,37.68,-19.32
1554881383188,3.9721019999999996,0.24182175,8.925857,-0.047523484000000005,-0.00029016097,0.105857454,-25.859999,36.899998,-19.92
1554881383209,3.9194279,0.17717634,8.597841,0.028223807000000004,-0.056489766,0.0032320882,-24.96,37.02,-19.38
1554881383228,4.2618093,0.7781393,8.497281,0.031278133,-0.022892175,-0.056632705,-24.66,37.86,-18.0
1554881383249,4.3767343,0.9912298,8.640938,0.06793004,0.055909444,-0.10000414,-25.5,38.04,-18.42
1554881383268,4.410254,1.175589,8.820508,0.13390349,0.052855115,-0.12138442,-25.8,37.5,-19.68
1554881383288,4.527573599999999,1.2234744,8.892337,0.15345119,-0.016172657,-0.12382788,-25.92,37.62,-19.38
1554881383308,4.403071400000001,2.8635526000000002,8.758257,0.06609745,-0.11574369,-0.07129347,-25.38,38.16,-18.539998999999998
1554881383329,4.527573599999999,2.6600394,8.317711,-0.11899472,-0.04671592,0.061264288,-25.859999,37.5,-18.779999
1554881383348,4.2402606,1.620924,8.547561,-0.16480961,0.06385068599999999,0.13151379,-26.76,37.079997999999996,-19.5
1554881383368,4.084633,0.84996754,8.825297,-0.102501355,0.030253101,0.11807475,-26.46,37.14,-19.32
1554881383388,3.9984387999999997,0.5219519,8.655303,-0.02369974,-0.019226983,0.047214385,-26.039998999999998,37.38,-18.6
1554881383408,4.199558000000001,0.8475733,8.590658,-0.013925895,-0.010064005,-0.008374351,-25.98,37.5,-18.48
1554881383429,4.312089,1.0917894,8.636149000000001,0.0037891972,0.02658791,-0.033419825,-25.92,37.739998,-18.3
1554881383448,4.2977233,1.1037607,8.686428999999999,0.0599888,0.03452916,-0.05968703,-26.16,38.04,-18.24
1554881383469,4.3575800000000005,1.1444633,8.722342999999999,0.10152763,0.0009315695,-0.07984559,-25.619999,37.86,-18.6
1554881383489,4.494054,1.0870007,8.736709,0.105192825,-0.019837848999999998,-0.09084116,-25.199999,37.32,-19.199999
1554881383508,4.5132080000000006,1.8651401,8.746285,0.07770389,-0.054046303,-0.07679126,-25.74,37.079997999999996,-19.32
1554881383529,4.5970078,3.0119977000000002,8.174054,-0.07684502,-0.024724772000000002,0.03377535,-26.039998999999998,37.559998,-19.199999
1554881383548,4.4222255,1.7214836,8.61939,-0.16542047,0.07790059,0.120518215,-26.58,37.739998,-19.38
1554881383568,4.288146,0.8571504000000001,9.031203999999999,-0.11349693,0.01375974,0.12601600000000002,-26.16,37.44,-19.14
1554881383588,4.048719,0.39505535,8.775017,-0.026143200000000002,-0.057711492999999996,0.06065342,-25.619999,37.44,-19.5
1554881383609,4.127730000000001,0.57462597,8.454185,0.018449962,-0.049770243,-0.015093869499999999,-26.099998,37.92,-19.5
1554881383628,4.276175,0.9577099,8.408693,0.037386786,0.01742493,-0.060908765,-26.4,38.16,-18.359999
1554881383648,4.3240604000000005,1.0582695,8.609812,0.08931033,0.07362454,-0.09939327,-26.279999,37.739998,-18.18
1554881383669,4.4844766,0.9960183000000001,8.779805999999999,0.14856425,0.046746462999999995,-0.12260616,-26.46,37.68,-18.6
1554881383688,4.7191157,1.0343267,9.021627,0.16627936,-0.041828997,-0.12443875,-26.64,37.92,-19.26
1554881383708,4.5251794,4.0128045,8.279403,-0.02369974,-0.13712397,0.0032320882,-26.34,37.38,-20.16
1554881383729,4.3767343,2.4158232,8.296163,-0.19046596,0.032085697999999996,0.13395725,-26.58,36.48,-18.72
1554881383749,4.2570205,1.2067145000000001,8.861211,-0.18313557,0.10050260000000001,0.19076772,-26.4,36.719997,-17.88
1554881383768,3.8930907,0.41660379999999997,8.897125,-0.056075595,0.0015424347,0.11868562,-25.8,37.14,-19.199999
1554881383788,3.9840732000000005,0.37350687,8.605023,-0.0010977248,-0.04121813,0.025834102,-25.859999,37.32,-19.8
1554881383808,4.2905407,0.7733508000000001,8.549955,-0.0041520509999999995,-0.019837848999999998,-0.028532906,-26.46,37.559998,-19.439999
1554881383828,4.4389853,1.0295382,8.626572999999999,0.00989785,0.024144448,-0.046858862,-26.519999,37.2,-19.26
1554881383848,4.4389853,1.0295382,8.626572999999999,0.013563041000000001,0.02780964,-0.050524052,-26.519999,37.2,-19.26
1554881383869,4.455744999999999,1.0606636999999999,8.707977,0.13146004,-0.035109483,-0.09633894,-25.32,37.2,-19.8
1554881383888,4.5060253,1.4557191,8.722342999999999,0.1058037,-0.054046303,-0.09511722,-25.92,37.32,-18.779999
1554881383908,4.4725056,2.9617178,8.420665,-0.012704165,-0.035109483,-0.007152621,-26.699999,37.5,-18.9
1554881383928,4.4174370000000005,2.0518935000000003,8.492493,-0.13548808,0.060185496,0.08630976,-26.58,37.38,-19.619999
1554881383948,4.268992,1.1444633,8.861211,-0.12876855,0.056520306,0.10830091,-25.8,37.26,-18.0
1554881383968,4.07745,0.6153286,8.8324795,-0.049966946,-0.027779097000000003,0.069816396,-25.68,37.2,-17.76
1554881383988,4.048719,0.600963,8.638542999999999,0.00989785,-0.04549419,0.0026212228,-25.619999,37.68,-18.72
1554881384008,4.2570205,0.9529214,8.506859,0.031889,-0.0039553526,-0.046858862,-25.32,37.38,-18.119999
1554881384028,4.285752,1.0870007,8.583475,0.06426486,0.055298578,-0.078012995,-25.019999,37.44,-17.82
1554881384048,4.4078599999999994,1.201926,8.758257,0.1058037,0.05102252,-0.095728084,-25.74,37.62,-18.0
1554881384068,4.582642,1.1372806,8.913885,0.11924273,-0.029000828,-0.09267375,-26.279999,37.14,-18.9
1554881384089,4.4222255,2.9401696,8.628966,0.00989785,-0.114521965,-0.020591656,-26.64,37.2,-19.26
1554881384108,4.4892654,2.423006,8.351231,-0.12265991400000001,-0.014950926000000002,0.072870724,-25.92,37.14,-19.619999
1554881384128,4.2546263,1.3623424,8.739103,-0.13793154,0.07728972,0.13090292,-25.08,37.38,-19.92
1554881384149,4.065479,0.6464542,8.822903,-0.063405976,0.021090122000000003,0.09547274,-25.32,38.219997,-18.779999
1554881384168,3.991256,0.5985687,8.645726,-0.0065955119999999996,-0.025946502000000003,0.030110157999999998,-25.56,38.219997,-18.119999
1554881384188,4.264203500000001,0.91461295,8.581081,0.0044000624,-0.005177083,-0.02792204,-25.74,37.739998,-19.08
1554881384208,4.362368599999999,1.0726352,8.626572999999999,0.027612941000000002,0.04918992,-0.05235665,-25.619999,37.2,-19.199999
1554881384228,4.403071400000001,1.1277034,8.712766,0.074649565,0.043692134,-0.068239145,-25.619999,36.719997,-19.02
1554881384248,4.496448,1.0702409,8.786988000000001,0.09419725,-0.006398813299999999,-0.07923472,-26.279999,36.96,-19.38
1554881384268,4.4796879999999994,1.8483802,8.784595,0.06609745,-0.054046303,-0.06457395,-26.34,37.02,-19.56
1554881384289,4.494054,2.631308,8.363202000000001,-0.07073636,-0.010674871,0.037440542,-25.92,37.14,-19.8
1554881384308,4.2977233,1.7454262999999999,8.55235,-0.12571423,0.07179194,0.096083604,-26.039998999999998,38.04,-19.5
1554881384328,4.1756153,0.84278476,8.851633999999999,-0.08784059400000001,0.046135597,0.09241841,-25.74,38.399998,-18.9
1554881384349,4.0032277,0.6392714,8.722342999999999,-0.015147625500000001,-0.018005254,0.033164486,-25.68,37.86,-19.02
1554881384368,4.1804037,0.9074302,8.600235000000001,0.01111958,-0.02350304,-0.012650409,-25.8,37.92,-18.779999
1554881384388,4.3791285,1.1133378,8.61939,0.031889,0.032085697999999996,-0.047469727999999996,-25.8,37.739998,-19.439999
1554881384408,4.403071400000001,1.1731946000000002,8.676852,0.06426486,0.054076847000000004,-0.063963085,-25.619999,37.559998,-19.56
1554881384428,4.419831299999999,1.0798178999999999,8.696006,0.09602985,0.016814066000000003,-0.07007174,-25.98,38.1,-18.96
1554881384448,4.328849,2.0494993000000004,8.741497,0.050214954000000006,-0.047326785,-0.047469727999999996,-25.98,38.219997,-19.859999
1554881384468,4.4413795,2.6265194,8.497281,-0.07806674400000001,-0.015561792,0.045992658,-26.519999,37.44,-18.84
1554881384488,4.312089,1.802889,8.61939,-0.12571423,0.054076847000000004,0.11074437,-27.0,37.44,-18.3
1554881384508,4.1804037,1.1181264,8.791777,-0.11288606400000001,0.043692134,0.124794275,-25.98,38.1,-19.68
1554881384529,4.1085753,0.7541966,8.729526,-0.068903774,-0.0027336220000000002,0.08081197,-25.92,38.1,-19.92
1554881384548,4.199558000000001,0.7206767,8.703189,-0.04446916,-0.018005254,0.028888429,-25.859999,38.04,-19.74
1554881384569,4.3168774,0.93616146,8.712766,-0.015147625500000001,0.0021533,-0.012039543,-25.32,38.04,-19.38
1554881384588,4.295329,0.9792584000000001,8.674458,0.02394775,0.028420506,-0.037695885,-25.74,38.219997,-19.199999
1554881384609,4.2833575999999995,0.98404694,8.681641,0.07648216,0.0015424347,-0.07007174,-26.22,37.92,-18.779999
1554881384628,4.336032,1.0870007,8.679246000000001,0.09175379,-0.008231409,-0.091452025,-26.099998,37.559998,-19.26
1554881384648,4.4772940000000006,1.0079896000000002,8.743892,0.1058037,-0.010064005,-0.10611279,-26.099998,37.44,-19.619999
1554881384668,4.280963400000001,2.6169424,8.705584,0.07098438,-0.05160284,-0.0743478,-25.859999,37.14,-18.72
1554881384688,4.577853,2.9162266,8.231517,-0.09150578,0.0027641652000000004,0.04782525,-25.56,36.899998,-18.779999
1554881384708,4.367157499999999,1.7573976999999998,8.712766,-0.17336172,0.08889616,0.14067677,-25.74,37.5,-19.199999
1554881384728,4.206741,0.80687064,8.959375999999999,-0.1263251,0.013148874,0.15778099,-26.34,37.559998,-19.32
1554881384749,4.0080160000000005,0.27773590000000004,8.810931,-0.04141483,-0.039385535,0.08753149,-26.099998,37.2,-19.74
1554881384768,4.046324299999999,0.45012367,8.607418,0.00989785,-0.044272455999999995,-0.0077634864,-25.32,37.8,-19.619999
1554881384789,4.237866400000001,0.8092649000000001,8.514041,0.03311073,0.0033750306,-0.065184824,-25.74,37.68,-18.72
1554881384808,4.2833575999999995,0.9577099,8.578687,0.078925624,0.04857906,-0.10611279,-25.68,37.739998,-18.779999
1554881384828,4.400677,1.0247495999999998,8.648121000000002,0.12474052,0.036361753999999996,-0.13971037,-25.439999,38.04,-19.08
1554881384849,4.6688356,0.69912827,8.911489999999999,0.15711638,0.0015424347,-0.15376028,-26.519999,38.219997,-19.199999
1554881384868,4.400677,3.1149516,8.921068,0.105192825,-0.1297936,-0.11894096400000001,-26.64,38.46,-18.66
1554881384889,4.6903844,3.677606,7.834067299999999,-0.121438175,-0.05465717,0.06370775,-25.5,37.92,-17.88
1554881384908,4.292935,1.8459859,8.576292,-0.21734403,0.15486962,0.19443291,-25.92,37.02,-18.66
1554881384928,4.0918155,0.27534159999999996,9.210775,-0.119605586,0.08095492,0.18160474,-26.16,36.719997,-19.74
1554881384948,3.675212,-0.05027977,8.882759,0.031889,-0.060765818,0.05943169,-25.619999,37.32,-19.02
1554881384968,3.8715425000000003,0.27055305,8.581081,0.057545338,-0.08825475,-0.028532906,-25.68,37.32,-18.42
1554881384988,4.312089,0.9385556999999999,8.566715,0.044106305,0.023533582999999997,-0.09389549,-25.619999,36.899998,-16.859999
1554881385008,4.410254,1.1300976999999999,8.758257,0.102138504,0.07362454,-0.12382788,-24.359999,36.719997,-12.48
1554881385029,4.5347567,1.2498114,8.8324795,0.15406205,-0.00029016097,-0.11283231,-23.64,36.54,-9.599999
1554881385048,4.350397,2.7773588,8.763046000000001,0.08442341,-0.096196,-0.06885001,-24.24,36.239998,-9.54
1554881385068,4.608979,2.6025767,8.463761,-0.09578184,-0.05465717,0.06370775,-24.359999,36.42,-10.679999
1554881385089,4.336032,1.8747171000000002,8.530801,-0.1385424,0.019868392,0.1156313,-24.06,36.54,-11.04
1554881385108,4.0319586,0.7805335999999999,8.710372,-0.09883617,0.050411656,0.108911775,-24.24,37.2,-11.28
1554881385128,3.962525,0.5147691,8.703189,-0.018812817,-0.0045662179999999995,0.021558044,-24.48,37.26,-10.5
1554881385149,4.245049,0.7805335999999999,8.645726,0.010508713999999999,-0.016783523999999998,-0.033419825,-24.24,35.76,-9.24
1554881385168,4.362368599999999,1.0582695,8.6984005,0.022115153999999998,0.020479258,-0.06274136,-23.82,35.46,-9.9
1554881385188,4.3599744000000005,1.1636176,8.703189,0.060599665999999996,0.03452916,-0.08289991,-23.939999,36.239998,-10.8
1554881385209,4.410254,1.1444633,8.789383,0.087477736,-0.0039553526,-0.08961943,-23.16,35.76,-9.42
1554881385228,4.436591,1.7071179,8.784595,0.06915178,-0.057711492999999996,-0.07495867,-22.859999,35.7,-9.36
1554881385248,4.45814,2.5307484000000002,8.3679905,-0.05424299999999999,-0.024724772000000002,0.027055832000000002,-23.22,36.18,-10.38
1554881385269,4.280963400000001,1.5778271000000001,8.583475,-0.102501355,0.074235395,0.09302928,-22.92,36.42,-11.219999000000001
1554881385288,4.199558000000001,0.8834874,8.854028999999999,-0.076234154,0.05224425,0.08936409,-23.76,36.18,-11.759999
1554881385308,4.046324299999999,0.5602603,8.854028999999999,-0.009649838,-0.026557367000000002,0.03133189,-23.82,35.94,-10.38
1554881385329,4.2019525,0.90503585,8.595447,0.030056402000000003,-0.043661594000000005,-0.034030695,-23.279999,36.18,-9.48
1554881385349,4.3456087,1.1300976999999999,8.607418,0.04044111,0.018035797,-0.0602979,-23.22,36.54,-9.719999000000001
1554881385368,4.4078599999999994,1.2641771000000002,8.734314999999999,0.067319185,0.036361753999999996,-0.068239145,-23.16,36.36,-10.08
1554881385389,4.3958883,1.6951466,8.73192,0.07037351,-0.02350304,-0.048080593,-23.699999,36.42,-10.679999
1554881385409,4.4126487,2.2242813,8.576292,-0.010871569,-0.033276886,0.019114584,-24.24,36.719997,-12.42
1554881385428,4.333637,1.6592325,8.684034,-0.06279512,0.0027641652000000004,0.06309688,-24.119999,36.6,-11.7
1554881385449,4.163644000000001,1.1660118,8.645726,-0.056075595,0.011927143999999999,0.05943169,-23.88,36.96,-10.08
1554881385468,4.084633,0.9074302,8.614600999999999,-0.02980839,0.013148874,0.02461237,-23.64,37.38,-10.5
1554881385488,4.2187123,1.0079896000000002,8.696006,-0.0035411858000000004,0.0015424347,-0.009596081,-23.519999,36.719997,-10.26
1554881385508,4.355186,1.1300976999999999,8.727132000000001,0.017228233,0.01375974,-0.02792204,-22.98,36.36,-10.559999000000001
1554881385529,4.3695517,1.1899546,8.729526,0.041662842,0.013148874,-0.03952848,-23.22,36.66,-10.019999499999999
1554881385548,4.3575800000000005,1.3527653,8.686428999999999,0.0459389,-0.017394388,-0.037695885,-23.519999,36.54,-9.3
1554881385569,4.3025117,2.116539,8.636149000000001,-0.010260703000000001,-0.02350304,0.0044538183000000005,-23.22,36.54,-10.38
1554881385588,4.328849,1.8555629,8.660092,-0.0823428,0.020479258,0.061875152999999995,-23.88,36.719997,-11.219999000000001
1554881385608,4.285752,1.3431882,8.712766,-0.10189049,0.033307426,0.089974955,-23.88,36.48,-10.8
1554881385629,4.199558000000001,0.9768641,8.727132000000001,-0.085397124,0.0027641652000000004,0.07775764,-23.88,36.12,-11.34
1554881385649,4.182798,0.67279124,8.710372,-0.043858293,-0.022892175,0.027055832000000002,-23.88,36.78,-13.62
1554881385668,4.278569,0.81644773,8.652909,-0.0004868596,-0.007620544,-0.016926466,-24.06,37.559998,-14.219999
1554881385688,4.314483,0.92658436,8.633755,0.033721596,0.023533582999999997,-0.054800108,-24.66,37.62,-13.92
1554881385709,4.343214499999999,0.9529214,8.662486,0.080147356,0.02903137,-0.091452025,-25.38,36.719997,-14.34
1554881385728,4.371946,0.86193895,8.741497,0.11741013,0.018646661000000002,-0.12688221,-25.14,36.54,-13.679998999999999
1554881385749,4.577853,0.77574503,9.000079,0.15345119,-0.021670444,-0.14398643,-24.42,37.14,-13.679998999999999
1554881385768,4.11097,4.355186,8.372779,-0.0053737815,-0.14811955,-0.01875906,-25.019999,37.32,-14.46
1554881385789,4.4437739999999994,2.762993,8.229122,-0.19718547,0.05224425,0.14312023,-24.96,37.02,-14.28
1554881385808,4.2737803,1.5850098999999997,8.91628,-0.23139392,0.1322676,0.2402478,-24.42,36.66,-14.759998999999999
1554881385829,3.9098508,0.49800915,8.988108,-0.15503576,0.018035797,0.20787194,-24.24,36.84,-14.58
1554881385848,3.816474,-0.057462595,8.940222,-0.038360503,-0.04854851599999999,0.08936409,-24.3,37.02,-13.5
1554881385869,4.0942099999999995,0.28013015,8.612206,-0.0029303206,-0.058322362999999995,-0.023035117999999997,-24.66,37.26,-13.799999
1554881385888,4.278569,0.7398309000000001,8.492493,0.014784772,0.0076510874,-0.07495867,-24.779999,36.899998,-14.219999
1554881385909,4.278569,1.0079896000000002,8.559532,0.07526043,0.05102252,-0.12077356,-25.019999,36.66,-14.34
1554881385928,4.4294085999999995,0.9601042,8.696006,0.12351878,0.04918992,-0.1464299,-24.66,37.079997999999996,-13.98
1554881385949,4.6281333,0.81165916,8.947405,0.1546729,0.010094549,-0.16170153,-24.24,37.02,-13.98
1554881385968,4.5682764,1.7741576000000001,8.815719999999999,0.13940127,-0.09069822,-0.15864720000000002,-24.9,36.6,-14.34
1554881385988,4.278569,3.9337934999999997,8.265037,-0.010871569,-0.11085677,-0.024256847999999998,-25.019999,36.54,-13.98
1554881386009,4.398283,2.5283542000000003,8.379961999999999,-0.22223094,0.09928088,0.14189849999999998,-25.5,36.239998,-14.519999499999999
1554881386028,4.1373067,1.158829,9.016839,-0.22345267,0.11882856,0.20726107,-25.5,36.78,-14.639999
1554881386049,3.929005,0.23942748,9.038387,-0.12082732,0.0009315695,0.16633311,-24.539998999999998,37.559998,-14.219999
1554881386068,3.9601305,-0.20351335,8.91628,-0.0065955119999999996,-0.06565274,0.05332304,-24.18,37.62,-15.0
1554881386089,4.216318,0.3328042,8.593052,0.042273708,-0.066874474,-0.044415403,-24.66,37.62,-14.759998999999999
1554881386108,4.2977233,0.72546524,8.528407000000001,0.087477736,-0.010064005,-0.10794539,-25.08,37.62,-14.099998999999999
1554881386128,4.3240604000000005,1.0127783000000001,8.576292,0.13817956,0.047968194000000006,-0.15803634,-25.199999,37.079997999999996,-14.4
1554881386148,4.5012364,0.8786988000000001,8.818114,0.18765964,0.046746462999999995,-0.18552527,-25.14,36.78,-15.0
1554881386168,4.7262983,1.1277034,8.940222,0.20354213,-0.034498617,-0.17819488,-24.96,37.559998,-15.12
1554881386188,4.288146,4.9202347,8.377566999999999,0.010508713999999999,-0.20370828,-0.008985217,-24.779999,38.04,-14.219999
1554881386208,4.558699,3.0024207,8.016032000000001,-0.22162007,0.037583485,0.17305262,-24.9,37.62,-14.34
1554881386228,4.1516724,1.2330515,8.861211,-0.24605470000000002,0.184802,0.26529327,-25.5,38.1,-16.92
1554881386248,3.7853483999999997,-0.076616794,9.170073,-0.09394924,0.06507242,0.1962655,-26.099998,38.579997999999996,-19.56
1554881386268,3.7111259,-0.38308397,8.959375999999999,0.046549764,-0.054046303,0.04416006,-26.16,37.92,-19.92
1554881386288,4.2019525,0.33040990000000003,8.5882635,0.062432262999999995,-0.063820146,-0.061519627,-25.98,37.62,-19.859999
1554881386309,4.338426,0.7781393,8.5882635,0.07220611,-0.0009010262400000001,-0.12443875,-25.74,37.14,-19.439999
1554881386328,4.415043,1.0846065,8.772623,0.13756868,0.04552473,-0.16719931,-25.56,37.38,-19.199999
1554881386348,4.5443335,1.0247495999999998,8.854028999999999,0.18521617,0.0027641652000000004,-0.17636229,-25.56,37.559998,-19.14
1554881386369,4.280963400000001,2.9856608,8.889942,0.1058037,-0.14017829999999998,-0.10550192,-25.38,37.5,-19.08
1554881386389,4.63771,3.2897336000000004,8.025609,-0.13060115,-0.05099198,0.07959024,-25.98,37.559998,-19.5
1554881386408,4.1899809999999995,1.8531687,8.454185,-0.20757018,0.11027645,0.18710253,-26.64,37.079997999999996,-19.32
1554881386428,3.962525,0.50998056,9.002473,-0.14159672,0.09072876,0.16450052,-26.76,36.96,-19.02
1554881386448,3.7949257000000003,0.13886794,8.875577,-0.02369974,0.0015424347,0.06492948,-26.279999,37.62,-18.72
1554881386468,4.146884,0.42378664,8.679246000000001,0.01234131,-0.030833423,-0.027311174,-25.859999,38.1,-18.779999
1554881386488,4.3911,0.93616146,8.703189,0.01234131,0.0015424347,-0.06335222,-25.859999,37.86,-19.619999
1554881386509,4.405465599999999,1.1085492000000001,8.729526,0.05632361,0.025977045,-0.09023029,-25.8,37.98,-19.619999
1554881386528,4.364763,1.1516461,8.691217,0.10641456,-0.008842275,-0.10122587,-25.859999,38.52,-19.439999
1554881386549,4.520391,1.0199611,8.794171,0.11679927,-0.039996404,-0.10672366,-25.199999,37.86,-18.9
1554881386568,4.350397,2.5642683999999996,8.767835,0.08259081,-0.08642216,-0.07373693,-25.38,37.98,-18.6
1554881386588,4.5012364,2.8635526000000002,8.085466,-0.08845145,0.0058184913,0.06554034,-25.8,37.62,-19.38
1554881386609,4.223500700000001,1.6951466,8.607418,-0.16358787,0.12676981,0.15289408,-25.98,36.48,-19.68
1554881386629,4.1612496,0.68236834,9.031203999999999,-0.11594039,0.058352903,0.14617456,-26.34,37.14,-19.5
1554881386649,3.955342,0.24900457,8.9498,-0.007817242,-0.035720345,0.06065342,-25.8,37.86,-19.14
1554881386669,4.1037870000000005,0.5650489000000001,8.688824,0.045328032000000004,-0.046105053,-0.01875906,-25.92,37.62,-18.539998999999998
1554881386689,4.268992,0.88109314,8.652909,0.059377935,0.0076510874,-0.072515205,-26.46,37.739998,-18.6
1554881386709,4.312089,1.0415094999999999,8.703189,0.10152763,0.031474832,-0.11099971,-26.16,37.92,-18.84
1554881386729,4.450957,0.7685622,8.813326,0.14795339999999998,0.009483683,-0.12810394,-26.519999,37.92,-19.199999
1554881386749,4.300117500000001,2.3344178,8.913885,0.12290792,-0.10352639,-0.11527577,-26.88,37.5,-19.98
1554881386769,4.6496816,3.4333901,8.013638,-0.106777415,-0.060765818,0.06492948,-26.039998999999998,37.739998,-19.32
1554881386789,4.3240604000000005,2.0949904999999998,8.511647,-0.19413115,0.10355693,0.17427436,-25.5,37.739998,-18.539998999999998
1554881386808,4.163644000000001,0.6703969,8.952193,-0.14587279,0.079733185,0.1822156,-26.039998999999998,37.5,-19.14
1554881386828,3.8045027,0.15323359,8.887547999999999,-0.027975796,-0.008231409,0.08692063,-26.46,38.04,-19.38
1554881386849,4.017593,0.30886146,8.674458,0.030056402000000003,-0.05465717,-0.020591656,-26.46,38.1,-19.08
1554881386868,4.309695,0.8140534,8.636149000000001,0.028834672999999998,-0.015561792,-0.07190433,-26.34,37.739998,-19.199999
1554881386888,4.383917299999999,1.0534808999999998,8.667274,0.06915178,0.033307426,-0.11649749400000001,-26.279999,37.44,-19.439999
1554881386908,4.410254,1.0319325000000001,8.707977,0.118021,0.03819435,-0.13299087,-26.58,37.26,-19.56
1554881386929,4.623344400000001,0.92658436,8.93304,0.14795339999999998,-0.038163807,-0.14704075,-26.4,37.38,-19.14
1554881386948,4.280963400000001,3.849994,8.56911,0.039830245,-0.16400205,-0.04319367,-26.279999,37.8,-19.32
1554881386968,4.4772940000000006,2.5522968999999995,8.224333999999999,-0.1562575,0.040026948,0.11990735,-26.64,38.28,-19.32
1554881386989,4.206741,1.2665714,8.758257,-0.16175528,0.12738067,0.17610694,-26.64,38.04,-18.42
1554881387008,3.9098508,0.22506183,8.925857,-0.056075595,0.043692134,0.11013351,-25.74,37.38,-18.18
1554881387029,3.8643596,0.339987,8.760652,0.04349544,-0.05465717,-0.010206947,-25.74,37.68,-18.3
1554881387048,4.2905407,0.8571504000000001,8.621783,0.047771495,-0.018616118,-0.068239145,-26.4,37.5,-17.64
1554881387069,4.4820824,1.1636176,8.798960000000001,0.06670832,0.044302999999999995,-0.097560674,-26.16,35.82,-17.34
1554881387089,4.5036309999999995,1.333611,8.834874000000001,0.09480812400000001,0.025366178,-0.091452025,-26.039998999999998,36.12,-18.0
1554881387108,4.278569,2.4206119,8.679246000000001,0.05632361,-0.085811295,-0.023645982000000003,-26.58,37.86,-19.619999
1554881387129,4.4533510000000005,2.1883671000000002,8.514041,-0.07806674400000001,-0.016172657,0.08447716400000001,-27.0,37.86,-19.38
1554881387148,4.237866400000001,1.3551594999999999,8.73192,-0.09578184,0.043692134,0.11746389,-26.46,37.92,-19.08
1554881387168,4.0798445,0.7134939,8.693612,-0.06279512,0.032085697999999996,0.083866306,-25.98,37.739998,-19.38
1554881387189,3.9936504,0.47885495,8.715160000000001,-0.010871569,0.003985896,0.0013994923000000001,-26.279999,37.739998,-19.199999
1554881387208,4.271386,0.7853220999999999,8.705584,0.022726017999999997,-0.015561792,-0.051134918,-26.82,37.98,-18.6
1554881387228,4.410254,0.9864412,8.76544,0.053269282,0.0058184913,-0.08289991,-26.4,37.739998,-19.439999
1554881387248,4.434197,1.211503,8.751075,0.09053206,0.003985896,-0.091452025,-25.68,37.86,-19.619999
1554881387268,4.350397,1.9202085,8.650514999999999,0.06915178,-0.042439863,-0.06335222,-25.92,37.739998,-20.039998999999998
1554881387289,4.3934940000000005,2.3392065,8.545167,-0.046912617999999996,-0.015561792,0.037440542,-25.92,37.44,-19.199999
1554881387308,4.2618093,1.6352897,8.691217,-0.08906232,0.040026948,0.09425101,-26.039998999999998,37.44,-18.779999
1554881387328,4.1373067,1.1516461,8.710372,-0.07134723,0.020479258,0.089974955,-26.76,37.26,-19.26
1554881387350,4.0151987,0.8834874,8.648121000000002,-0.03652791,-0.0033444872,0.041716598,-25.74,37.32,-19.32
1554881387369,4.1971636,0.9074302,8.700794,-0.021867143,0.0009315695,0.0026212228,-25.859999,37.5,-19.32
1554881387389,4.403071400000001,1.0941836,8.751075,-0.0010977248,0.019868392,-0.018148195,-25.98,37.8,-19.14
1554881387408,4.3863115,1.1229149,8.755863,0.03311073,0.01742493,-0.030976366,-25.98,38.219997,-19.08
1554881387429,4.3192715999999995,1.1947431999999998,8.710372,0.06365399,-0.020448713,-0.04075021,-26.4,37.86,-19.08
1554881387448,4.2905407,1.3551594999999999,8.674458,0.05510188,-0.027779097000000003,-0.04319367,-26.099998,37.62,-19.38
1554881387469,4.247443700000001,1.8747171000000002,8.652909,0.01111958,-0.013118331,-0.020591656,-26.039998999999998,38.1,-19.199999
1554881387488,4.3192715999999995,1.7382435,8.609812,-0.05057781,0.023533582999999997,0.025223237000000003,-25.32,38.64,-18.119999
1554881387508,4.300117500000001,1.2713598999999998,8.746285,-0.063405976,0.030253101,0.049657848,-25.08,38.16,-18.24
1554881387528,4.2665977,1.0462981,8.751075,-0.039582234,-0.005177083,0.038662273,-25.92,37.68,-19.199999
1554881387549,4.278569,0.9433443000000001,8.739103,-0.0041520509999999995,-0.014950926000000002,0.010562471,-26.699999,37.5,-19.619999
1554881387568,4.271386,1.0822121999999998,8.681641,0.017228233,-0.007009679,-0.0077634864,-26.279999,37.38,-20.1
1554881387589,4.237866400000001,1.185166,8.669669,0.03249986,0.016814066000000003,-0.026089442999999997,-25.8,37.62,-19.56
1554881387608,4.2402606,1.2354459,8.705584,0.047771495,0.007040222,-0.04197194,-25.5,38.1,-19.14
1554881387628,4.278569,1.3623424,8.669669,0.046549764,-0.012507467,-0.044415403,-26.099998,38.34,-19.74
1554881387649,4.333637,1.5874043,8.712766,0.02394775,-0.018616118,-0.034641556000000004,-26.46,38.399998,-20.039998999999998
1554881387668,4.333637,2.1787900000000002,8.566715,-0.02369974,-0.010064005,0.014227662,-26.34,38.219997,-19.439999
1554881387688,4.350397,1.7358493000000002,8.607418,-0.067682035,0.02780964,0.06431861,-26.519999,37.62,-18.9
1554881387709,4.2402606,1.2138973,8.763046000000001,-0.06951463,0.032085697999999996,0.08692063,-26.279999,38.16,-19.08
1554881387729,4.158855399999999,0.91461295,8.743892,-0.04446916,0.0076510874,0.06492948,-26.099998,38.219997,-19.619999
1554881387748,4.1660379999999995,0.81644773,8.741497,-0.010871569,-0.0039553526,0.01606026,-25.92,37.739998,-19.26
1554881387768,4.2139235,0.9241901,8.717555,0.0007348709,0.0015424347,-0.010206947,-25.619999,37.62,-18.9
1554881387789,4.280963400000001,0.9888355,8.710372,0.028223807000000004,0.016814066000000003,-0.04502627,-25.74,37.14,-19.26
1554881387808,4.3216662,1.0798178999999999,8.707977,0.061821397,0.007040222,-0.07373693,-25.98,36.239998,-19.26
1554881387829,4.4246197,1.0415094999999999,8.763046000000001,0.08197995,-0.0045662179999999995,-0.09023029,-25.98,37.079997999999996,-19.199999
1554881387848,4.4461684,1.403045,8.846846000000001,0.07770389,-0.039996404,-0.0865651,-25.92,37.92,-20.4
1554881387868,4.364763,2.7462332000000003,8.372779,-0.04874521,-0.019837848999999998,0.030721024,-26.4,37.62,-20.039998999999998
1554881387888,4.268992,1.9417567999999998,8.571504,-0.11716212,0.06446156,0.1119661,-26.46,37.02,-20.039998999999998
1554881387908,4.149278,1.0941836,8.870789,-0.10922087,0.04735733,0.13212465,-26.34,36.899998,-19.26
1554881387928,4.0367475,0.69194543,8.822903,-0.068903774,-0.0045662179999999995,0.10463572,-26.039998999999998,37.14,-18.72
1554881387949,4.046324299999999,0.53392327,8.777411,-0.0059846467,-0.032055154,0.014227662,-25.74,37.38,-19.02
1554881387968,4.228289,0.9241901,8.679246000000001,0.008676119,-0.010064005,-0.02914377,-26.039998999999998,37.62,-19.26
1554881387988,4.3073006,0.9624985,8.662486,0.033721596,0.02170099,-0.06885001,-26.099998,37.38,-19.199999
1554881388009,4.314483,1.0247495999999998,8.674458,0.07770389,0.009483683,-0.10244760000000001,-25.74,36.719997,-17.46
1554881388029,4.410254,0.99362403,8.703189,0.109468885,-0.005177083,-0.13299087,-25.5,36.66,-17.039998999999998
1554881388048,4.623344400000001,0.9792584000000001,8.904308,0.12535138,-0.025335636,-0.13482346,-25.5,37.38,-17.58
1554881388068,4.285752,3.7614057,8.351231,0.0044000624,-0.104748115,-0.029754635,-25.5,37.02,-17.88
1554881388089,4.3408203,2.3128695,8.336864,-0.15686837,0.06995934,0.1137987,-25.8,36.84,-19.14
1554881388108,4.216318,1.0989721000000001,8.971347999999999,-0.14587279,0.121882886,0.17549609,-25.68,37.44,-20.279999
1554881388129,3.9266107000000003,0.28491869999999997,9.024022,-0.032862715,-0.0021227568,0.10158139,-25.859999,38.16,-20.1
1554881388148,3.8835137000000004,0.3232271,8.798960000000001,0.04044111,-0.074204855,0.00017776179,-26.099998,37.98,-19.38
1554881388168,4.2546263,0.89545876,8.614600999999999,0.041051976000000004,-0.029000828,-0.06335222,-25.92,37.8,-19.619999
1554881388189,4.3695517,1.0989721000000001,8.686428999999999,0.058156203,0.040026948,-0.09511722,-26.16,37.32,-18.48
1554881388208,4.3911,1.2043202,8.719949,0.10824715,0.024755314,-0.10611279,-25.859999,37.14,-17.16
1554881388228,4.4389853,1.5802213999999999,8.681641,0.10091677,-0.039996404,-0.0847325,-25.68,37.92,-16.68
1554881388248,4.5036309999999995,2.8539755,8.502069,-0.021867143,-0.04793765,0.008729876,-25.5,37.559998,-16.74
1554881388268,4.343214499999999,1.8938714,8.612206,-0.11044260000000002,0.030253101,0.09852707,-25.5,37.38,-17.94
1554881388288,4.063084,1.0870007,8.734314999999999,-0.09394924,0.044302999999999995,0.1119661,-26.34,38.04,-18.66
1554881388308,3.9122449999999995,0.71828246,8.741497,-0.04935608,0.013148874,0.06492948,-26.46,38.1,-18.779999
1554881388328,4.07745,0.6392714,8.741497,-0.010871569,-0.013729197,-0.0016548339000000002,-26.039998999999998,37.68,-19.08
1554881388349,4.2618093,0.90024734,8.746285,0.0056217927,-0.00029016097,-0.040139344,-25.14,37.68,-19.5
1554881388369,4.400677,1.0870007,8.772623,0.02516948,0.021090122000000003,-0.051134918,-25.38,37.86,-19.8
1554881388389,4.3575800000000005,1.0917894,8.724737,0.057545338,0.0009315695,-0.06457395,-26.099998,37.68,-19.5
1554881388408,4.3599744000000005,1.1827718,8.712766,0.074649565,-0.033887747999999995,-0.07923472,-26.279999,38.1,-18.9
1554881388429,4.3934940000000005,1.6807808999999998,8.6984005,0.048382357,-0.034498617,-0.062130492,-25.619999,37.739998,-19.08
1554881388448,4.405465599999999,2.1404817000000005,8.549955,-0.037138775,0.0076510874,0.00811901,-24.72,37.26,-18.779999
1554881388469,4.333637,1.6879636999999998,8.631361,-0.07317982599999999,0.046746462999999995,0.05515563,-25.14,37.26,-18.9
1554881388488,4.0798445,1.1923488000000002,8.775017,-0.05302127,0.0076510874,0.06492948,-26.4,37.559998,-19.14
1554881388509,4.075055600000001,0.90982443,8.729526,-0.020034548,-0.014950926000000002,0.04049487,-26.22,37.44,-19.38
1554881388528,4.087027,1.0415094999999999,8.739103,0.012952176000000001,-0.007620544,0.00811901,-25.74,36.78,-19.08
1554881388549,4.1804037,1.1420691,8.734314999999999,0.028834672999999998,0.01742493,-0.0077634864,-26.34,37.02,-18.42
1554881388568,4.182798,1.1396747999999999,8.755863,0.044717167,0.013148874,-0.021202521000000002,-26.22,37.739998,-18.72
1554881388589,4.223500700000001,1.1827718,8.696006,0.0599888,-0.02105958,-0.03708502,-26.279999,38.1,-19.32
1554881388608,4.3767343,1.3814965,8.693612,0.0459389,-0.033276886,-0.037695885,-26.279999,37.38,-18.84
1554881388628,4.367157499999999,2.1141446,8.638542999999999,0.0068435236,-0.03266602,-0.009596081,-25.38,37.14,-18.779999
1554881388649,4.529968,2.0183737,8.576292,-0.06951463,0.019257527,0.055766497000000005,-25.5,37.44,-18.359999
1554881388668,4.455744999999999,1.350371,8.772623,-0.07867761,0.023533582999999997,0.08081197,-25.8,36.96,-17.82
1554881388688,4.292935,0.9864412,8.796566,-0.04813435,-0.027168231,0.05820996,-25.98,37.2,-18.3
1554881388709,4.0989985,0.82123625,8.669669,-0.010260703000000001,-0.03266602,0.008729876,-25.199999,38.04,-18.6
1554881388728,4.122941,0.9122186999999999,8.628966,0.009286985,-0.006398813299999999,-0.028532906,-25.019999,37.739998,-19.08
1554881388749,4.2546263,0.97446984,8.640938,0.027612941000000002,0.021090122000000003,-0.05968703,-26.46,36.54,-18.6
1554881388768,4.2977233,1.0175668,8.60263,0.05143669,0.022922718999999998,-0.08289991,-26.76,36.78,-18.72
1554881388788,4.3575800000000005,1.1971374,8.700794,0.068540916,0.024144448,-0.096949816,-25.68,37.8,-19.08
1554881388808,4.338426,1.9297855,8.839663,0.039830245,-0.014340061000000001,-0.06946088,-25.019999,37.86,-18.6
1554881388828,4.3934940000000005,2.4684972999999997,8.614600999999999,-0.05424299999999999,-0.014340061000000001,0.03621881,-25.92,37.32,-18.84
1554881388848,4.173221,1.5083932,8.784595,-0.09456010000000001,0.030253101,0.1119661,-26.699999,37.14,-18.9
1554881388869,3.9673133000000003,0.95531565,8.806142999999999,-0.063405976,0.0064293565,0.10463572,-26.76,37.14,-18.96
1554881388888,3.9481592000000005,0.7829279,8.751075,-0.023088872000000003,-0.024113905,0.057599094,-26.64,37.26,-19.02
1554881388908,4.1612496,0.88109314,8.650514999999999,-0.010871569,-0.029611692000000002,0.007508144699999999,-26.34,37.38,-19.26
1554881388929,4.3192715999999995,1.1181264,8.607418,-0.0072063776,0.0058184913,-0.015704733999999998,-26.699999,37.5,-19.92
1554881388949,4.3599744000000005,1.1396747999999999,8.674458,0.019671693,0.02658791,-0.03708502,-25.859999,37.32,-19.08
1554881388969,4.371946,1.1875603000000001,8.684034,0.04288457,0.003985896,-0.05357838,-25.32,37.2,-18.0
1554881388988,4.419831299999999,1.3383996,8.638542999999999,0.036165055,-0.010674871,-0.065184824,-26.16,37.38,-17.76
1554881389008,4.4485626,1.3982565,8.76544,0.020893423,-0.0033444872,-0.04991319,-26.099998,37.26,-17.76
1554881389029,4.206741,2.310475,8.614600999999999,-0.022478009,-0.02228131,-0.0034874296,-25.32,37.559998,-17.46
1554881389048,4.192375,1.8579572,8.595447,-0.11044260000000002,0.043081272000000004,0.07775764,-25.32,36.96,-16.8
1554881389068,4.1612496,1.1731946000000002,8.813326,-0.11349693,0.046746462999999995,0.09058581,-25.38,37.2,-17.82
1554881389088,4.046324299999999,0.7134939,8.798960000000001,-0.07562328,-0.0015118915,0.021558044,-25.5,37.92,-19.02
1554881389109,4.120547,0.7685622,8.719949,-0.03652791,-0.010674871,-0.035252422,-26.039998999999998,37.559998,-19.08
1554881389128,4.398283,0.96489275,8.595447,-0.012093298999999998,0.04491387,-0.0883977,-25.98,37.8,-19.14
1554881389148,4.5682764,1.0726352,8.652909,-0.009649838,0.08400924,-0.085343376,-25.859999,38.16,-19.26
1554881389169,4.63771,1.0989721000000001,8.724737,0.01111958,0.04491387,-0.08228905,-25.5,37.38,-18.24
1554881389188,4.580248,1.1899546,8.755863,0.025780346000000003,-0.010674871,-0.078012995,-25.619999,36.6,-17.94
1554881389209,4.3815230000000005,1.594587,8.801354,0.023336885,-0.03266602,-0.048080593,-26.099998,36.96,-18.779999
1554881389228,4.084633,2.0925963,8.528407000000001,-0.043247424000000007,0.012538008,0.028277563,-26.22,37.86,-18.6
1554881389248,3.9721019999999996,1.5993756000000001,8.794171,-0.07134723,0.027198775,0.07164899,-26.099998,37.5,-19.14
1554881389269,3.816474,1.1300976999999999,8.889942,-0.05424299999999999,0.029642237000000002,0.08081197,-25.5,37.44,-19.68
1554881389288,3.938582,0.8667275,8.892337,-0.035917047,-0.0015118915,0.061264288,-25.8,38.04,-19.14
1554881389309,4.0678730000000005,0.84996754,8.854028999999999,-0.0010977248,-0.028389962,0.014838528,-25.8,37.739998,-18.84
1554881389328,4.206741,0.95531565,8.669669,0.018449962,-0.009453139000000001,-0.014483005,-26.099998,37.079997999999996,-19.26
1554881389349,4.242655,0.9481328000000001,8.691217,0.047771495,0.008872818000000001,-0.04197194,-26.099998,37.68,-19.439999
1554881389369,4.304906,1.0965778999999998,8.715160000000001,0.08503427,0.0027641652000000004,-0.06274136,-25.199999,38.1,-18.66
1554881389389,4.4294085999999995,1.0750294,8.763046000000001,0.09114293,0.0058184913,-0.07312607,-25.32,37.38,-18.72
1554881389408,4.4126487,1.6783867,8.851633999999999,0.06548659,-0.026557367000000002,-0.065184824,-26.22,37.2,-19.92
1554881389430,4.367157499999999,2.5355369999999997,8.394327,-0.067682035,-0.029611692000000002,0.05515563,-26.16,37.2,-19.619999
1554881389448,4.2402606,1.6855695,8.652909,-0.12571423,0.04918992,0.122350805,-25.92,37.44,-19.26
1554881389469,4.1037870000000005,1.0151725,8.856422,-0.10616655,0.043692134,0.13029206,-26.699999,37.079997999999996,-18.72
1554881389488,3.9744961,0.42618093,8.830086,-0.039582234,-0.008842275,0.067983806,-26.22,36.719997,-18.6
1554881389509,4.046324299999999,0.52913475,8.779805999999999,0.014784772,-0.047326785,-0.012039543,-25.68,37.26,-19.14
1554881389528,4.252232,0.8475733,8.640938,0.027612941000000002,-0.020448713,-0.054800108,-26.699999,36.899998,-19.199999
1554881389549,4.3168774,1.0055954,8.729526,0.053269282,0.020479258,-0.08412164400000001,-26.279999,36.899998,-18.9
1554881389568,4.3934940000000005,0.96489275,8.691217,0.099695034,0.01498147,-0.10794539,-25.92,37.26,-18.779999
1554881389589,4.5946136,0.6608198000000001,8.820508,0.12962744,-0.008842275,-0.13299087,-26.16,37.38,-19.38
1554881389608,4.312089,2.5738453999999997,8.844451,0.08564514,-0.08947649,-0.11649749400000001,-26.22,36.96,-19.26
1554881389628,4.5132080000000006,3.1748084999999997,8.0711,-0.10372309,-0.006398813299999999,0.07592505,-26.82,37.02,-18.84
1554881389649,4.170827,1.8962656000000002,8.657698,-0.18924421,0.13348934,0.20298502,-27.119999,37.86,-18.72
1554881389668,3.955342,0.7637736999999999,9.071907000000001,-0.14587279,0.08217664,0.20970455,-26.22,37.86,-18.84
1554881389689,3.7590114999999997,0.05027977,9.093455,-0.058519058,0.0058184913,0.14067677,-25.26,36.96,-18.66
1554881389708,3.9122449999999995,0.21069619,8.813326,0.041051976000000004,-0.08153524,-0.0053200256,-25.32,37.559998,-18.6
1554881389729,4.228289,0.73743665,8.667274,0.03311073,-0.050381113,-0.06885001,-25.56,38.34,-19.199999
1554881389748,4.300117500000001,1.0127783000000001,8.686428999999999,0.0599888,0.0033750306,-0.11344317,-26.039998999999998,37.92,-19.14
1554881389768,4.3599744000000005,1.0151725,8.600235000000001,0.10702542,0.015592336000000002,-0.14215384,-26.519999,37.98,-19.02
1554881389789,4.556305,0.92658436,8.73192,0.14001215,0.0027641652000000004,-0.15864720000000002,-25.859999,38.34,-18.9
1554881389808,4.336032,2.648068,8.820508,0.09847331,-0.078480914,-0.115886636,-25.68,37.68,-19.02
1554881389828,4.5515165,3.1484714,8.277008,-0.086618856,-0.027779097000000003,0.056377366,-26.4,36.96,-19.199999
1554881389849,4.1804037,1.8244373999999999,8.648121000000002,-0.17458345,0.08889616,0.16755484,-26.16,37.14,-19.26
1554881389868,3.9768906000000004,0.6847626,9.000079,-0.13548808,0.06568329,0.16327877,-26.279999,37.44,-19.5
1554881389888,3.7925312999999994,-0.016759925,8.961771,-0.024310604,-0.006398813299999999,0.060042556,-25.98,37.92,-19.08
1554881389908,4.005622,0.30167863,8.712766,0.04349544,-0.062598415,-0.04869146,-26.039998999999998,37.32,-19.199999
1554881389928,4.292935,0.7781393,8.648121000000002,0.047771495,-0.035720345,-0.097560674,-26.82,37.02,-19.439999
1554881389949,4.405465599999999,1.063058,8.717555,0.07770389,0.01498147,-0.13848865,-26.76,37.5,-19.02
1554881389969,4.486871,1.1013663999999999,8.803747999999999,0.12412965,-0.0021227568,-0.14581904,-26.4,37.739998,-18.84
1554881389989,4.5084195,1.6233183,8.758257,0.12962744,-0.056489766,-0.12077356,-26.34,37.68,-19.199999
1554881390009,4.4916596,3.605778,8.20518,-0.016980221,-0.08397869999999999,0.030110157999999998,-26.64,36.66,-18.72
1554881390028,4.3216662,1.9968252,8.535589,-0.15320317,0.09378309,0.18099388,-26.16,36.899998,-17.46
1554881390048,4.084633,0.82602483,8.961771,-0.12754683,0.088285305,0.19198945,-25.38,36.66,-17.94
1554881390068,3.859571,0.043096945,8.968952999999999,-0.032862715,0.01742493,0.089974955,-25.8,36.899998,-18.66
1554881390088,3.9577362999999997,0.16759923,8.842057,0.03677592,-0.05282457,-0.023035117999999997,-26.34,37.5,-18.84
1554881390108,4.235472,0.7350424,8.679246000000001,0.05082582,-0.03755294,-0.08595424,-25.32,37.02,-16.44
1554881390128,4.3025117,0.9912298,8.715160000000001,0.07953648,0.0076510874,-0.13543433,-25.26,36.899998,-16.5
1554881390149,4.4413795,0.9194015,8.791777,0.1320709,0.0015424347,-0.15376028,-25.859999,37.98,-19.32
1554881390168,4.4437739999999994,1.6520496999999998,8.789383,0.13390349,-0.061987553,-0.14154297,-25.26,37.86,-19.5
1554881390188,4.4916596,3.7877428999999996,8.226728,-0.032862715,-0.08764389,0.01850372,-25.74,36.899998,-19.74
1554881390209,4.336032,2.1883671000000002,8.4781275,-0.15747923,0.07301367,0.16083533,-26.64,36.3,-19.14
1554881390228,4.127730000000001,0.7398309000000001,8.882759,-0.13060115,0.106000386,0.18282647,-26.22,37.44,-18.3
1554881390248,3.8380224999999997,0.090982445,8.885154,-0.018201953,0.019257527,0.08081197,-25.5,37.8,-18.119999
1554881390268,3.8883023000000003,0.29210153,8.789383,0.041051976000000004,-0.04854851599999999,-0.035252422,-25.5,37.38,-18.3
1554881390289,4.3240604000000005,0.82602483,8.664881,0.041662842,-0.024113905,-0.096949816,-25.74,37.079997999999996,-19.74
1554881390308,4.4389853,1.1229149,8.786988000000001,0.063043125,0.024144448,-0.12749307,-25.859999,37.32,-19.56
1554881390328,4.486871,1.1803774999999999,8.834874000000001,0.109468885,-0.014340061000000001,-0.121995285,-26.16,38.219997,-18.72
1554881390349,4.158855399999999,3.189174,8.55235,0.044106305,-0.11024590599999999,-0.034641556000000004,-26.64,37.2,-20.22
1554881390368,4.494054,2.3894862999999997,8.382356,-0.10861001,0.011927143999999999,0.108911775,-26.519999,36.78,-19.68
1554881390388,4.230683999999999,1.525153,8.779805999999999,-0.12571423,0.08400924,0.17427436,-26.16,37.2,-18.42
1554881390409,3.981679,0.55307746,8.842057,-0.0701255,0.046135597,0.13578984,-26.16,37.02,-18.3
1554881390428,3.8763309,0.21069619,8.875577,-0.009038973,-0.013729197,0.02339064,-26.039998999999998,37.32,-19.02
1554881390449,4.1851926,0.6273,8.736709,0.015395637,-0.04854851599999999,-0.05357838,-26.099998,37.62,-19.14
1554881390468,4.3575800000000005,0.88109314,8.696006,0.037386786,-0.0045662179999999995,-0.09878241,-26.699999,37.26,-18.119999
1554881390489,4.415043,1.0295382,8.696006,0.09053206,0.025366178,-0.12932567,-27.0,37.079997999999996,-18.18
1554881390508,4.558699,0.6751855,8.815719999999999,0.13879041,-0.00029016097,-0.14581904,-26.76,37.44,-19.619999
1554881390528,4.2737803,2.9641123,8.846846000000001,0.08992119999999999,-0.13529138,-0.10916711400000001,-26.699999,37.5,-19.56
1554881390549,4.4653225,3.1125572,8.063917,-0.10066876599999999,-0.040607266,0.07959024,-26.519999,37.62,-18.72
1554881390568,4.1804037,1.9656997,8.607418,-0.14709452,0.12310462400000001,0.19382206,-26.519999,37.62,-18.779999
1554881390589,4.024776,0.36632404,8.909097000000001,-0.07806674400000001,0.090117894,0.15655926,-26.699999,37.44,-18.72
1554881390609,3.7638,0.3519584,8.844451,0.011730445,-0.009453139000000001,0.041716598,-26.22,37.44,-18.779999
1554881390629,4.1397014,0.7685622,8.696006,0.013563041000000001,-0.030833423,-0.032198098,-25.859999,37.14,-18.779999
1554881390648,4.371946,1.1947431999999998,8.8324795,-0.01331503,0.007040222,-0.051745784,-25.92,37.559998,-18.96
1554881390668,4.405465599999999,1.2186858999999999,8.772623,0.027612941000000002,0.025366178,-0.05968703,-26.279999,37.86,-19.02
1554881390689,4.295329,1.0989721000000001,8.664881,0.087477736,-0.0045662179999999995,-0.062130492,-26.039998999999998,37.86,-19.14
1554881390708,4.343214499999999,1.3383996,8.679246000000001,0.06670832,-0.04671592,-0.06274136,-26.099998,37.62,-18.72
1554881390729,4.355186,2.5882110000000003,8.511647,-0.046301752,-0.030833423,0.020336315,-26.16,36.96,-18.18
1554881390748,4.3192715999999995,1.9106313000000001,8.636149000000001,-0.1281577,0.066905014,0.096083604,-26.22,37.2,-19.08
1554881390768,4.1804037,1.2953026,8.813326,-0.14648366,0.082787514,0.13517898,-26.519999,37.32,-19.8
1554881390789,4.1037870000000005,0.58420306,8.863605499999998,-0.106777415,0.01498147,0.10463572,-26.279999,37.5,-19.5
1554881390809,4.0966043,0.16520496,8.921068,-0.043247424000000007,-0.036942072,0.033164486,-26.22,37.559998,-19.56
1554881390828,4.11097,0.6249057,8.662486,0.025780346000000003,-0.050381113,-0.059076168,-25.619999,38.579997999999996,-18.48
1554881390849,4.233078,0.9337671999999999,8.61939,0.044717167,-0.0027336220000000002,-0.09878241,-25.8,38.579997999999996,-18.3
1554881390868,4.2977233,1.0415094999999999,8.688824,0.08197995,0.01742493,-0.13238,-26.519999,37.68,-18.72
1554881390888,4.3934940000000005,0.84039044,8.779805999999999,0.13146004,0.00032070425,-0.15314941,-26.519999,38.1,-19.14
1554881390909,4.565882,1.5347302,8.818114,0.13573608,-0.057711492999999996,-0.14704075,-26.519999,37.68,-19.32
1554881390929,4.4485626,4.1373067,8.118986,-0.040803965,-0.09069822,0.021558044,-26.279999,36.6,-18.9
1554881390948,4.532362,2.6863763,8.286585,-0.18802249999999998,0.07179194,0.1559484,-26.699999,36.6,-18.6
1554881390969,4.2187123,1.4796618000000001,8.875577,-0.21306796,0.15548049,0.25551945,-26.34,36.719997,-18.84
1554881390988,3.938582,0.25139886,9.071907000000001,-0.11594039,0.035140023,0.20359589,-26.22,37.079997999999996,-19.199999
1554881391009,3.859571,-0.32801566,9.172467,-0.023088872000000003,-0.024724772000000002,0.09547274,-25.74,36.6,-17.76
1554881391028,3.9960446000000003,0.043096945,8.686428999999999,0.060599665999999996,-0.087033026,-0.051745784,-25.56,36.84,-16.38
1554881391048,4.2211065,0.77574503,8.614600999999999,0.067319185,-0.025946502000000003,-0.13238,-26.519999,38.219997,-17.76
1554881391068,4.2905407,0.9984126,8.676852,0.11313408,0.011927143999999999,-0.17391884,-26.46,38.28,-18.48
1554881391088,4.419831299999999,0.8379962,8.746285,0.1705554,0.025366178,-0.20018603,-26.4,37.38,-19.08
1554881391109,4.6640472,1.5036045,8.789383,0.17116627,-0.036942072,-0.18186007,-26.34,37.5,-19.08
1554881391128,4.352792,4.7143273,8.427847,-0.027975796,-0.14323263,0.007508144699999999,-26.76,37.32,-18.84
1554881391148,4.527573599999999,2.7653873,8.243488000000001,-0.19901806,0.035140023,0.17732869,-26.16,37.079997999999996,-18.3
1554881391168,4.0942099999999995,1.0678465,8.930645,-0.2106245,0.1622,0.27079108,-27.06,37.02,-19.14
1554881391189,3.8188684,-0.062251142999999995,9.103033,-0.062184248,0.062018092999999996,0.17732869,-25.92,37.92,-19.5
1554881391208,3.7326744,-0.36392978,8.980925,0.03249986,-0.026557367000000002,0.047214385,-25.26,38.04,-19.38
1554881391228,4.1947694,0.45491222,8.674458,0.046549764,-0.06626361,-0.06946088,-25.8,37.32,-19.74
1554881391248,4.295329,0.90503585,8.674458,0.044106305,-0.014950926000000002,-0.11283231,-25.98,37.2,-19.74
1554881391269,4.300117500000001,1.1708003,8.775017,0.09297553,0.013148874,-0.14520817,-24.96,37.62,-17.64
1554881391288,4.403071400000001,1.1779832000000001,8.7534685,0.1461208,-0.010064005,-0.14704075,-24.96,37.86,-16.8
1554881391308,4.4725056,1.9800651999999999,8.686428999999999,0.11007975,-0.054046303,-0.11527577,-25.74,37.32,-17.82
1554881391328,4.537151000000001,3.2394537999999997,8.353624,-0.042636562,-0.05526803,0.03255362,-26.279999,37.14,-17.22
1554881391348,4.295329,1.8507744,8.535589,-0.13793154,0.06385068599999999,0.14373109,-26.58,37.5,-17.34
1554881391368,4.084633,0.8786988000000001,8.851633999999999,-0.11349693,0.08767443,0.15533754,-25.74,37.86,-17.22
1554881391388,3.938582,0.083799616,8.9186735,-0.022478009,0.011927143999999999,0.05332304,-25.74,37.68,-17.76
1554881391408,4.0128045,0.28491869999999997,8.806142999999999,0.034943324,-0.04121813,-0.03280896,-25.68,37.32,-17.52
1554881391428,4.288146,0.85954463,8.648121000000002,0.056934476,-0.030222557,-0.09511722,-25.92,37.62,-18.3
1554881391449,4.331243,1.2546,8.743892,0.06487572,0.010705414,-0.12382788,-26.279999,37.5,-19.02
1554881391468,4.403071400000001,1.3072741,8.796566,0.09480812400000001,0.0009315695,-0.11405404,-26.16,37.8,-19.02
1554881391488,4.4078599999999994,1.6520496999999998,8.813326,0.092364654,-0.060154955999999996,-0.081067316,-26.46,37.739998,-19.02
1554881391509,4.383917299999999,3.093403,8.260247999999999,-0.042636562,-0.06748534,0.05332304,-26.699999,37.44,-19.08
1554881391528,4.2737803,1.9992193999999999,8.4781275,-0.12388164,0.054076847000000004,0.14983976,-26.46,36.84,-19.14
1554881391549,4.122941,1.0774237,8.777411,-0.11655126,0.091339625,0.17793955,-26.4,36.66,-19.199999
1554881391569,4.000833,0.32562137,8.880365,-0.051188674,0.028420506,0.09302928,-25.26,37.26,-19.199999
1554881391588,4.041536,0.21787901,8.897125,-0.0017085902,-0.018616118,0.011784201499999999,-25.32,37.44,-19.199999
1554881391608,4.2905407,0.75659084,8.707977,0.019671693,-0.03633121,-0.05357838,-26.22,37.86,-19.199999
1554881391628,4.2977233,0.99362403,8.724737,0.05204755,0.0064293565,-0.095728084,-26.099998,37.44,-18.6
1554881391649,4.312089,0.92658436,8.722342999999999,0.10885802,0.0076510874,-0.12688221,-26.039998999999998,36.96,-18.9
1554881391668,4.4629283,0.70631105,8.834874000000001,0.13879041,-0.032055154,-0.14398643,-26.099998,37.2,-19.02
1554881391689,4.0822387,3.354379,8.770228,0.061210528,-0.12001975,-0.08045645,-25.74,37.26,-19.439999
1554881391709,4.5251794,2.7055306,8.269825,-0.13182288,0.0162032,0.089974955,-25.859999,37.32,-19.5
1554881391728,4.247443700000001,1.6041641000000002,8.691217,-0.15320317,0.1163851,0.18649167,-26.58,36.84,-19.14
1554881391748,4.0559015,0.40223816,8.952193,-0.08173193,0.071181074,0.1522832,-26.22,37.02,-19.38
1554881391769,3.8236567999999997,0.08619389,8.877971,0.033721596,-0.029611692000000002,0.014227662,-26.039998999999998,37.44,-18.9
1554881391788,4.163644000000001,0.6656084,8.652909,0.05082582,-0.05282457,-0.060908765,-26.099998,37.98,-17.4
1554881391810,4.336032,1.0846065,8.76544,0.04716063,0.015592336000000002,-0.11405404,-25.56,37.2,-18.6
1554881391829,4.37434,1.1636176,8.806142999999999,0.08869946,0.02658791,-0.12321702,-25.439999,37.02,-18.48
1554881391848,4.450957,1.2522057,8.784595,0.12535138,-0.03755294,-0.10916711400000001,-25.92,36.54,-18.66
1554881391868,4.45814,3.3783216,8.2027855,-0.018201953,-0.093141675,0.027055832000000002,-26.519999,36.6,-18.3
1554881391889,4.4270144,2.0518935000000003,8.55235,-0.12449251,0.03391829,0.13517898,-26.279999,36.96,-17.82
1554881391908,4.2258949999999995,1.0798178999999999,8.830086,-0.09456010000000001,0.08400924,0.16816571,-26.16,36.719997,-18.42
1554881391929,3.8643596,0.29689008,8.806142999999999,-0.011482434,0.033307426,0.06615121,-26.4,37.2,-18.359999
1554881391948,3.9361877,0.5363176,8.755863,0.02394775,-0.033276886,-0.033419825,-26.34,37.98,-17.699999
1554881391968,4.2977233,0.9577099,8.719949,0.00989785,-0.016172657,-0.0761804,-26.22,37.92,-18.24
1554881391988,4.3863115,1.1827718,8.784595,0.03799765,0.023533582999999997,-0.09878241,-26.58,37.5,-18.6
1554881392009,4.364763,1.2306572,8.794171,0.09114293,-0.009453139000000001,-0.095728084,-26.46,37.02,-17.76
1554881392028,4.199558000000001,2.5020173,8.648121000000002,0.048382357,-0.07298312,-0.043804534000000006,-25.439999,37.2,-17.64
1554881392048,4.436591,2.0806248,8.58587,-0.07745588,-0.0009010262400000001,0.06920554,-25.38,36.96,-17.88
1554881392069,4.2402606,1.1636176,8.803747999999999,-0.06523858,0.041859537,0.11135524,-26.58,36.899998,-17.94
1554881392088,4.1660379999999995,0.89545876,8.739103,-0.046301752,0.025366178,0.06737294,-26.4,36.719997,-17.58
1554881392108,4.0391417,0.6560313,8.691217,0.022115153999999998,-0.019837848999999998,-0.02547858,-26.519999,36.899998,-18.72
1554881392128,4.328849,0.9960183000000001,8.717555,0.020893423,-0.016172657,-0.063963085,-27.0,37.32,-19.08
1554881392149,4.3815230000000005,1.2234744,8.784595,0.03799765,0.011927143999999999,-0.0761804,-26.4,36.84,-19.08
1554881392168,4.3240604000000005,1.6137413,8.739103,0.058156203,-0.007620544,-0.05968703,-26.64,36.78,-18.96
1554881392188,4.304906,2.3631492,8.494887,-0.012704165,-0.02105958,0.019725451,-27.3,37.2,-18.96
1554881392209,4.331243,1.6400781999999998,8.724737,-0.07317982599999999,0.0162032,0.08630976,-26.64,38.28,-18.96
1554881392228,4.206741,1.0702409,8.801354,-0.054853868,0.016814066000000003,0.0979162,-25.859999,37.92,-18.84
1554881392248,4.02717,0.7446195,8.681641,-0.018201953,0.007040222,0.05454477,-25.56,37.559998,-18.18
1554881392269,4.1349125,0.7733508000000001,8.703189,0.0019566014000000002,-0.0027336220000000002,-0.008374351,-25.5,37.68,-18.72
1554881392288,4.3192715999999995,0.9984126,8.743892,0.012952176000000001,0.00032070425,-0.043804534000000006,-26.519999,37.38,-20.039998999999998
1554881392308,4.333637,1.0893950000000001,8.767835,0.042273708,0.00032070425,-0.06640655,-25.92,37.32,-18.3
1554881392329,4.285752,1.4533247999999999,8.664881,0.056934476,-0.020448713,-0.06274136,-25.26,37.38,-17.88
1554881392349,4.312089,2.2889266,8.516436,-0.01942368,-0.013729197,0.00934074,-26.4,37.68,-18.84
1554881392368,4.367157499999999,1.9130256,8.667274,-0.07562328,0.02658791,0.058820825,-26.64,37.8,-18.48
1554881392389,4.237866400000001,1.2067145000000001,8.818114,-0.07317982599999999,0.03391829,0.09425101,-26.099998,36.899998,-18.24
1554881392409,4.0678730000000005,0.7541966,8.736709,-0.03408445,-0.00029016097,0.052101307,-26.039998999999998,37.26,-18.119999
1554881392429,4.0894213,0.6057515,8.741497,-0.0059846467,-0.016783523999999998,0.006897279,-26.519999,37.68,-18.24
1554881392448,4.2258949999999995,0.88109314,8.686428999999999,0.019671693,-0.012507467,-0.04563713,-26.279999,37.14,-18.84
1554881392468,4.268992,1.0008069,8.724737,0.04349544,0.0021533,-0.0761804,-25.439999,37.26,-18.96
1554881392489,4.343214499999999,1.0606636999999999,8.705584,0.080147356,0.0021533,-0.09633894,-25.74,37.8,-19.26
1554881392508,4.434197,1.1540405,8.755863,0.09541898,-0.030833423,-0.10244760000000001,-25.74,37.98,-17.82
1554881392529,4.2737803,3.1460772,8.523619,0.00989785,-0.0821461,-0.012039543,-25.619999,37.559998,-17.4
1554881392549,4.4294085999999995,2.1811842999999995,8.482916000000001,-0.11471866,0.054076847000000004,0.1278486,-26.699999,37.5,-18.539998999999998
1554881392570,4.271386,1.324034,8.770228,-0.10861001,0.09072876,0.16938743,-27.18,37.2,-18.539998999999998
1554881392588,4.0678730000000005,0.6608198000000001,8.818114,-0.063405976,0.030863967000000003,0.13212465,-26.76,37.26,-18.42
1554881392609,3.9505534,0.27534159999999996,8.856422,0.0025674668,-0.020448713,0.037440542,-26.58,37.8,-18.9
1554881392628,4.1301239999999995,0.7302538000000001,8.691217,0.022115153999999998,-0.03755294,-0.038306747,-26.519999,37.44,-18.96
1554881392649,4.237866400000001,0.9577099,8.710372,0.039830245,0.010705414,-0.08717597,-26.519999,37.44,-18.3
1554881392669,4.2665977,1.0247495999999998,8.736709,0.07770389,0.008872818000000001,-0.11405404,-26.22,37.2,-18.42
1554881392689,4.3887057,0.90503585,8.73192,0.113744944,-0.019226983,-0.13115826,-26.16,36.84,-19.08
1554881392709,4.278569,2.5235654999999997,8.825297,0.087477736,-0.07787005,-0.11527577,-26.279999,37.38,-18.779999
1554881392729,4.5850363,3.3088877,8.183631,-0.07440156,-0.02350304,0.061875152999999995,-26.46,37.739998,-18.359999
1554881392749,4.338426,1.8196488999999998,8.576292,-0.15137057,0.09500481,0.17060916,-26.279999,37.26,-18.779999
1554881392768,4.187587000000001,0.7829279,8.913885,-0.11716212,0.093172215,0.1822156,-26.099998,37.14,-18.96
1554881392788,3.9433705999999997,0.1340794,8.913885,-0.026754063999999998,0.008261953,0.08630976,-26.279999,37.14,-19.02
1554881392808,4.0582957,0.39026679999999997,8.691217,0.03249986,-0.047326785,-0.033419825,-26.4,37.02,-19.14
1554881392829,4.2546263,0.9313729,8.655303,0.02150429,-0.019226983,-0.075569525,-26.699999,37.68,-18.9
1554881392848,4.264203500000001,1.0654523,8.739103,0.05082582,0.020479258,-0.10550192,-26.58,37.44,-19.199999
1554881392868,4.2833575999999995,1.185166,8.743892,0.10091677,-0.018005254,-0.11527577,-26.22,37.38,-19.5
1554881392888,4.371946,1.6592325,8.633755,0.08564514,-0.04671592,-0.09633894,-26.46,37.44,-19.56
1554881392908,4.494054,2.7701759999999997,8.497281,-0.018812817,-0.034498617,0.008729876,-26.82,37.62,-19.56
1554881392928,4.4389853,1.8986599999999998,8.616995,-0.09883617,0.043692134,0.103413984,-26.82,37.44,-18.779999
1554881392949,4.187587000000001,1.0199611,8.76544,-0.08295367,0.06140723,0.12296168,-26.699999,37.44,-18.84
1554881392968,4.02717,0.43575802,8.743892,-0.027975796,0.018646661000000002,0.068594664,-26.58,37.62,-19.68
1554881392988,4.084633,0.45251793,8.791777,0.02150429,-0.024724772000000002,-0.0132612735,-26.22,37.38,-19.199999
1554881393008,4.264203500000001,0.9433443000000001,8.672064,0.0459389,-0.013729197,-0.06457395,-25.619999,36.96,-17.699999
1554881393029,4.2833575999999995,1.2426286,8.746285,0.0599888,0.01498147,-0.08717597,-25.859999,36.719997,-16.56
1554881393049,4.331243,1.2737542,8.751075,0.07526043,0.0033750306,-0.08778684,-26.099998,37.14,-16.619999
1554881393068,4.3073006,1.6328955,8.74868,0.06548659,-0.042439863,-0.060908765,-26.939999,37.86,-17.46
1554881393089,4.2665977,2.6025767,8.557138,0.01111958,-0.063820146,0.0032320882,-26.88,37.02,-17.82
1554881393108,4.292935,1.8340145,8.523619,-0.090894915,0.041248675,0.11929648,-27.119999,36.719997,-18.9
1554881393128,4.168432,1.0654523,8.741497,-0.08295367,0.059574634,0.13517898,-26.82,37.8,-19.08
1554881393148,4.07745,0.66800267,8.818114,-0.055464732999999995,0.028420506,0.088753216,-26.82,37.739998,-18.72
1554881393168,4.087027,0.531529,8.813326,-0.01331503,-0.015561792,0.010562471,-26.939999,37.32,-18.6
1554881393189,4.192375,0.90982443,8.712766,0.0074543890000000005,-0.019837848999999998,-0.041361075,-25.98,37.079997999999996,-18.24
1554881393208,4.242655,0.98404694,8.722342999999999,0.03311073,0.0058184913,-0.072515205,-25.74,36.48,-18.119999
1554881393228,4.264203500000001,0.98404694,8.707977,0.07281697,-0.0021227568,-0.096949816,-26.46,37.079997999999996,-18.359999
1554881393248,4.364763,0.9194015,8.739103,0.09297553,-0.022892175,-0.11710837,-25.8,37.62,-18.0
1554881393269,4.309695,2.0710478,8.794171,0.067319185,-0.061987553,-0.10428019599999999,-25.56,36.96,-18.18
1554881393288,4.527573599999999,2.8420042999999997,8.279403,-0.07684502,-0.011285735,0.03377535,-25.859999,37.14,-19.199999
1554881393308,4.328849,1.7143008000000002,8.638542999999999,-0.13182288,0.093172215,0.14006591,-26.16,37.559998,-19.08
1554881393329,4.1804037,0.679974,8.880365,-0.07562328,0.052855115,0.13395725,-26.519999,37.14,-18.96
1554881393348,3.955342,0.28013015,8.839663,0.00989785,-0.010674871,0.048436115999999994,-25.98,36.66,-18.779999
1554881393369,4.075055600000001,0.6847626,8.693612,0.046549764,-0.04305073,-0.034641556000000004,-26.22,36.66,-19.02
1554881393389,4.264203500000001,1.0319325000000001,8.700794,0.04044111,0.0045967609999999996,-0.0761804,-27.0,36.54,-19.199999
1554881393408,4.2737803,1.1827718,8.798960000000001,0.06670832,0.021090122000000003,-0.09511722,-27.0,36.36,-18.84
1554881393429,4.333637,1.3479767,8.734314999999999,0.09419725,-0.02228131,-0.08778684,-26.279999,37.02,-19.439999
1554881393448,4.288146,2.6959534,8.557138,0.019671693,-0.060765818,-0.013872138999999999,-25.98,37.2,-19.08
1554881393468,4.4749,2.0183737,8.609812,-0.08845145,0.008261953,0.09180755,-26.519999,37.26,-18.48
1554881393488,4.2187123,1.1803774999999999,8.7822,-0.068903774,0.051633384000000004,0.122350805,-26.699999,37.14,-18.72
1554881393508,4.0391417,0.6249057,8.722342999999999,-0.02858666,0.02903137,0.07714678,-26.22,37.32,-19.26
1554881393529,4.0151987,0.5554718000000001,8.743892,0.006232658,-0.019837848999999998,-0.008985217,-25.98,37.739998,-19.8
1554881393548,4.268992,0.9529214,8.667274,0.017228233,-0.018005254,-0.054800108,-26.34,36.84,-19.32
1554881393569,4.3192715999999995,1.1516461,8.743892,0.037386786,0.018035797,-0.08228905,-26.16,36.54,-18.9
1554881393588,4.280963400000001,1.2905141000000002,8.770228,0.068540916,0.00032070425,-0.08351078,-25.439999,36.66,-19.08
1554881393609,4.2402606,1.9489397000000002,8.676852,0.045328032000000004,-0.050381113,-0.051745784,-25.38,37.02,-19.32
1554881393629,4.3863115,2.1811842999999995,8.578687,-0.055464732999999995,-0.008231409,0.04049487,-26.46,36.899998,-19.439999
1554881393648,4.2665977,1.4341706,8.746285,-0.07440156,0.039416082000000005,0.09180755,-27.0,36.899998,-19.98
1554881393668,4.1349125,0.8643332,8.707977,-0.042025695999999994,0.022922718999999998,0.07592505,-26.279999,37.5,-19.68
1554881393688,4.0798445,0.6656084,8.688824,-0.0053737815,-0.005177083,0.019114584,-26.279999,37.62,-19.02
1554881393708,4.245049,0.8930645,8.707977,0.009286985,-0.02228131,-0.02792204,-26.76,37.559998,-19.439999
1554881393728,4.3456087,1.1037607,8.73192,0.031278133,0.0064293565,-0.056632705,-26.099998,37.44,-19.199999
1554881393749,4.304906,1.2976969999999999,8.717555,0.05571274,0.0076510874,-0.061519627,-26.039998999999998,37.26,-18.9
1554881393769,4.2737803,1.594587,8.681641,0.048382357,-0.019837848999999998,-0.044415403,-26.76,36.54,-18.3
1554881393789,4.333637,2.1117504,8.593052,-0.026143200000000002,-0.012507467,0.02339064,-26.76,37.079997999999996,-18.24
1554881393808,4.300117500000001,1.4317763000000001,8.74868,-0.061573382,0.02903137,0.069816396,-26.519999,37.14,-18.96
1554881393829,4.1851926,0.98404694,8.746285,-0.03774964,0.024144448,0.06676207,-26.82,36.42,-18.539998999999998
1554881393848,4.075055600000001,0.80208206,8.6984005,-0.0059846467,-0.0039553526,0.021558044,-27.24,36.96,-18.66
1554881393869,4.182798,0.9313729,8.719949,0.016617367,-0.016783523999999998,-0.017537331,-26.82,36.899998,-18.0
1554881393888,4.280963400000001,1.1181264,8.707977,0.027612941000000002,-0.00029016097,-0.043804534000000006,-26.82,36.899998,-18.119999
1554881393909,4.264203500000001,1.350371,8.691217,0.041051976000000004,0.0027641652000000004,-0.046247996,-25.92,37.26,-19.26
1554881393929,4.2211065,1.8890828000000002,8.626572999999999,0.016006501,-0.011896601000000001,-0.019369926000000003,-25.26,37.559998,-19.14
1554881393948,4.3408203,1.8795058,8.650514999999999,-0.059129924,0.012538008,0.045992658,-26.64,37.68,-18.9
1554881393969,4.304906,1.3719195,8.796566,-0.079288475,0.031474832,0.07959024,-26.279999,36.899998,-18.42
1554881393989,4.1253357,1.0127783000000001,8.7822,-0.057908192000000004,0.011316278,0.07164899,-25.74,36.6,-18.6
1554881394009,4.1013927,0.70870537,8.741497,-0.022478009,-0.013729197,0.025223237000000003,-26.279999,36.84,-18.42
1554881394029,4.1756153,0.81165916,8.710372,-0.0017085902,-0.016172657,-0.021202521000000002,-26.16,37.079997999999996,-17.58
1554881394048,4.2737803,0.9529214,8.707977,0.02150429,-0.0009010262400000001,-0.055410977,-26.039998999999998,37.14,-17.64
1554881394069,4.288146,1.0654523,8.712766,0.05571274,0.0015424347,-0.07923472,-25.8,36.12,-17.82
1554881394088,4.3456087,1.1133378,8.724737,0.080147356,-0.010674871,-0.09511722,-26.46,36.3,-17.699999
1554881394108,4.3934940000000005,1.4198049,8.755863,0.07403871,-0.035720345,-0.08351078,-26.099998,37.68,-18.359999
1554881394128,4.37434,2.9401696,8.403905,-0.020034548,-0.04305073,0.014227662,-25.98,37.32,-19.8
1554881394148,4.37434,1.9226026999999999,8.55235,-0.11655126,0.06568329,0.12173995,-26.699999,36.719997,-19.08
1554881394168,4.228289,1.1420691,8.877971,-0.10189049,0.076678865,0.15289408,-26.039998999999998,36.78,-18.3
1554881394188,4.051113,0.5147691,8.865999,-0.040193099999999995,0.007040222,0.10830091,-26.16,37.44,-18.9
1554881394208,4.000833,0.37350687,8.810931,0.020893423,-0.040607266,0.025223237000000003,-26.58,37.92,-18.72
1554881394229,4.02717,0.44294083,8.786988000000001,0.027002078,-0.04549419,0.005675549,-26.82,37.26,-18.42
1554881394248,4.206741,0.9768641,8.684034,0.04716063,0.0064293565,-0.0761804,-25.859999,37.26,-18.6
1554881394268,4.278569,1.010384,8.700794,0.086256005,0.0058184913,-0.10733452,-25.68,37.62,-18.66
1554881394289,4.405465599999999,0.9601042,8.734314999999999,0.11313408,-0.02228131,-0.12382788,-26.279999,37.14,-18.24
1554881394309,4.4653225,1.4964218,8.767835,0.09480812400000001,-0.05282457,-0.11955183,-26.699999,37.2,-18.84
1554881394328,4.582642,2.8180614,8.320105,-0.08112107,-0.011896601000000001,0.049046982,-26.519999,37.14,-18.9
1554881394348,4.300117500000001,1.6520496999999998,8.638542999999999,-0.13304462,0.090117894,0.14983976,-26.58,37.5,-19.08
1554881394371,4.1157584,0.61293435,8.875577,-0.06951463,0.056520306,0.13517898,-27.06,37.68,-18.9
1554881394389,3.9170337,0.21069619,8.846846000000001,0.01111958,-0.010064005,0.044770923,-27.06,37.5,-18.18
1554881394408,4.070266999999999,0.6751855,8.679246000000001,0.037386786,-0.04305073,-0.03952848,-26.58,37.38,-18.84
1554881394428,4.264203500000001,1.0678465,8.717555,0.031889,-0.0033444872,-0.08045645,-26.16,37.38,-18.539998999999998
1554881394448,4.2737803,1.2354459,8.8085375,0.058156203,0.011927143999999999,-0.095728084,-25.98,37.5,-17.64
1554881394469,4.333637,1.525153,8.684034,0.07953648,-0.029611692000000002,-0.081067316,-25.74,37.32,-17.52
1554881394488,4.300117500000001,2.3727264,8.593052,0.03921938,-0.0558789,-0.041361075,-25.74,37.079997999999996,-16.68
1554881394508,4.5012364,1.8340145,8.628966,-0.089673184,0.02170099,0.08814236,-25.98,36.96,-17.4
1554881394528,4.249838,1.0989721000000001,8.74868,-0.06951463,0.046746462999999995,0.11135524,-26.58,37.5,-18.84
1554881394549,4.075055600000001,0.6201171999999999,8.729526,-0.030419257,0.025366178,0.07225986,-27.119999,37.98,-19.5
1554881394568,4.075055600000001,0.6201171999999999,8.729526,-0.030419257,0.025366178,0.07225986,-27.119999,37.98,-19.5
1554881394588,4.1540666,0.7350424,8.727132000000001,0.022726017999999997,-0.025335636,-0.029754635,-27.0,38.04,-19.56
1554881394608,4.292935,1.1037607,8.743892,0.052658416,0.011927143999999999,-0.08351078,-26.82,37.26,-19.14
1554881394629,4.278569,1.2450229,8.74868,0.061821397,0.010705414,-0.08595424,-26.939999,37.079997999999996,-19.14
1554881394648,4.278569,1.2450229,8.74868,0.061821397,0.010705414,-0.08595424,-26.939999,37.079997999999996,-19.14
1554881394668,4.278569,1.2450229,8.74868,0.061821397,0.010705414,-0.08595424,-26.939999,37.079997999999996,-19.14
1554881394688,4.300117500000001,1.333611,8.760652,-0.06951463,0.040026948,0.10402486,-26.76,37.5,-19.08
1554881394708,4.1253357,0.80687064,8.684034,-0.035306178,0.014370603999999999,0.07714678,-26.099998,37.26,-18.42
1554881394728,4.1253357,0.80687064,8.684034,-0.035306178,0.014370603999999999,0.07714678,-26.099998,37.26,-18.42
1554881394749,4.1253357,0.80687064,8.684034,-0.035306178,0.014370603999999999,0.07714678,-26.099998,37.26,-18.42
1554881394769,4.1253357,0.80687064,8.684034,-0.035306178,0.014370603999999999,0.07714678,-26.099998,37.26,-18.42
1554881394788,4.309695,1.2402343999999998,8.710372,0.06548659,0.0027641652000000004,-0.08045645,-26.519999,37.079997999999996,-17.279999
1554881394809,4.3408203,1.23784,8.705584,0.06670832,-0.0021227568,-0.081067316,-26.64,36.78,-17.039998999999998
1554881394828,4.3408203,1.23784,8.705584,0.06670832,-0.0021227568,-0.081067316,-26.64,36.78,-17.039998999999998
1554881394848,4.3863115,2.3487834999999997,8.473338,-0.08784059400000001,0.008872818000000001,0.07653592,-25.74,37.2,-17.4
1554881394868,4.259414700000001,1.489239,8.755863,-0.12449251,0.07912232,0.15045060000000002,-25.859999,37.68,-17.4
1554881394888,4.1564612,0.8667275,8.815719999999999,-0.10433395,0.03575089,0.13884418,-26.34,37.14,-17.76
1554881394908,4.0966043,0.5913859,8.846846000000001,-0.08112107,0.018646661000000002,0.1156313,-26.46,37.14,-18.0
1554881394929,4.0894213,0.51716334,8.772623,-0.0072063776,-0.04121813,-0.004098295,-26.22,38.04,-17.94
1554881394948,4.187587000000001,0.91461295,8.640938,0.014784772,-0.016172657,-0.05968703,-25.859999,37.92,-17.88
1554881394968,4.192375,0.93616146,8.645726,0.022726017999999997,-0.0039553526,-0.06762828,-25.8,37.739998,-17.4
1554881394988,4.331243,0.9194015,8.715160000000001,0.09725158,-0.0021227568,-0.121995285,-26.039998999999998,37.38,-14.82
1554881395009,4.450957,0.81165916,8.767835,0.12657312,-0.017394388,-0.1482625,-25.199999,37.14,-12.96
1554881395028,4.460534,1.7214836,8.722342999999999,0.10641456,-0.06320928,-0.14581904,-24.42,36.66,-12.78
1554881395049,4.3791285,2.0614705,8.719949,0.09541898,-0.06565274,-0.13543433,-24.3,36.78,-12.78
1554881395068,4.4653225,2.073442,8.499676,-0.16847481,0.09256136,0.16205706,-25.199999,36.239998,-13.08
1554881395089,4.2570205,0.9816527,8.93304,-0.13426635,0.10844385599999999,0.19504377,-25.74,36.719997,-12.599999
1554881395108,3.921822,0.0670397,8.889942,0.00012400564,0.007040222,0.10952264,-25.8,36.96,-12.78
1554881395128,3.849994,0.009577099,8.870789,0.03799765,-0.028389962,0.05026871,-25.08,36.96,-12.78
1554881395149,4.209135,0.8643332,8.652909,0.04716063,-0.03877467,-0.06335222,-23.82,36.42,-13.139999
1554881395168,4.2019525,1.0582695,8.710372,0.04960409,0.005207626,-0.09633894,-24.6,36.36,-13.32
1554881395189,4.278569,1.2522057,8.770228,0.10091677,0.0027641652000000004,-0.11649749400000001,-25.56,36.96,-13.679998999999999
1554881395208,4.300117500000001,1.2713598999999998,8.76544,0.105192825,-0.0009010262400000001,-0.11344317,-25.5,37.32,-15.36
1554881395228,4.436591,2.743839,8.576292,0.009286985,-0.05282457,-0.0132612735,-26.4,37.739998,-19.74
1554881395248,4.4413795,1.7789462,8.621783,-0.102501355,0.041859537,0.11074437,-26.46,37.2,-18.72
1554881395268,4.216318,1.1372806,8.760652,-0.089673184,0.06507242,0.12907033,-25.98,37.38,-18.119999
1554881395289,4.216318,1.1372806,8.760652,-0.089673184,0.06507242,0.12907033,-25.98,37.38,-18.119999
1554881395308,4.065479,0.4764607,8.76544,0.016006501,-0.022892175,-0.020591656,-25.92,37.32,-18.42
1554881395328,4.1181526,0.69673395,8.717555,0.02516948,-0.026557367000000002,-0.04319367,-25.92,37.32,-18.66
1554881395348,4.2618093,1.1947431999999998,8.791777,0.048382357,0.013148874,-0.10000414,-26.279999,37.559998,-18.119999
1554881395369,4.2618093,1.1947431999999998,8.791777,0.048382357,0.013148874,-0.10000414,-26.279999,37.559998,-18.119999
1554881395388,4.2665977,1.2665714,8.798960000000001,0.054491013,0.013148874,-0.100615,-26.64,37.559998,-18.119999
