TimeStamp,Ax,Ay,Az,Gx,Gy,Gz,Mx,My,Mz
1554882906076,-3.232271,1.7550035,9.794978,-0.56270343,0.5062045000000001,-0.16896716,-4.2,37.38,-31.38
1554882906096,-3.4166303,1.786129,9.407105,-0.6244008000000001,0.75482666,-0.19706696,-3.48,37.8,-31.859999
1554882906116,-3.615355,1.647261,9.450203,-0.64578104,1.0181096,-0.20378648,-3.6599998,37.68,-32.76
1554882906137,-2.9736892999999998,1.3120626,9.72315,-0.73557824,0.8788323,-0.25204483,-3.84,37.739998,-32.76
1554882906156,-3.469304,1.0486923000000001,9.261055,-0.7441304,0.5782866,-0.26242954,-3.12,37.8,-32.7
1554882906177,-4.252232,0.076616794,8.473338,-0.6470028,0.4774938,-0.19401263,-2.9399998,38.64,-31.92
1554882906196,-3.9936504,-0.8571504000000001,8.454185,-0.4594672000000001,0.2966777,-0.11582188,-3.3,39.18,-30.66
1554882906216,-3.110163,-0.4956149,8.358414,-0.28292713,0.10669861,-0.1103241,-3.06,39.36,-30.72
1554882906236,-2.5187771,-0.37829542,8.394327,-0.13387601,-0.09671951,-0.10360458,-2.82,39.239998,-30.599998
1554882906256,-2.9401696,-1.0822121999999998,8.722342999999999,-0.014757282,-0.41559118,-0.09810679,-3.06,39.84,-30.48
1554882906277,-3.545921,-0.80208206,8.76544,0.058546547000000004,-0.71430427,-0.051681034,-2.22,40.32,-30.119999
1554882906296,-3.8284453999999997,-0.32801566,8.887547999999999,0.1630045,-0.8114318,0.025898853,-2.52,39.719997,-30.599998
1554882906316,-3.8308396,-0.09577099,9.421472,0.27051678,-0.85846853,0.115085185,-3.8999998999999996,38.82,-30.9
1554882906337,-3.4884584000000003,0.062251142999999995,9.464568,0.36825523,-0.9586504000000001,0.20793669,-4.08,38.76,-30.66
1554882906357,-2.569057,0.038308397,9.4142885,0.3743639,-1.1150318000000001,0.2873492,-4.62,39.48,-30.119999
1554882906376,-2.6744049,1.5514901,9.627379,0.11230269,-1.8682288,-0.011974791,-5.16,39.36,-29.519999
1554882906396,-2.9258040000000003,-0.38308397,10.168485,0.31510997,-1.3605998,0.43884376,-5.16,39.239998,-30.359999
1554882906416,-2.308081,0.8667275,9.615408,0.48493050000000004,-0.36305675,0.32277936,-5.1,39.66,-30.539998999999998
1554882906436,-1.7526091000000001,2.370332,10.041589,0.28151235,0.37364674,0.31972504,-5.52,39.18,-30.119999
1554882906457,-2.013585,2.5020173,10.716774000000001,-0.19679512,0.426792,0.32949886,-6.18,38.94,-30.72
1554882906476,-0.7781393,3.15326,11.102252,-0.5150559,0.7707090999999999,0.10347874,-5.46,38.82,-31.32
1554882906497,-3.5219781,0.28970724,9.397528999999999,-0.8363709999999999,0.68702054,0.36676165,-4.68,39.54,-30.9
1554882906516,-2.1500587,1.4293821000000002,8.956982,-0.8461449000000001,1.0547615,0.09126144,-5.04,40.02,-29.82
1554882906537,-2.5068057,1.0941836,8.813326,-0.809493,1.1189023,-0.035798535,-4.56,39.36,-29.58
1554882906556,-2.762993,-0.0047885496,8.61939,-0.8174342,0.9063211999999999,-0.071839586,-3.6599998,39.66,-30.3
1554882906576,-3.4238129,-0.72785956,8.628966,-0.7331348000000001,0.62593406,-0.14392169,-3.54,40.2,-29.699999
1554882906596,-4.1397014,-0.7302538000000001,9.026416000000001,-0.5229971999999999,0.458557,-0.11154583,-3.3,39.48,-28.619999
1554882906616,-3.7278860000000003,-0.89545876,9.086273,-0.27498588,0.36875979999999997,-0.12681746,-2.9399998,40.44,-28.859999
1554882906636,-3.9050622,-1.3862851,8.473338,-0.105776206,0.22642820000000002,-0.15736072,-2.82,42.3,-29.099998
1554882906656,-3.5052182999999997,-1.2881198,8.590658,0.15017633,-0.056402408,-0.09749593,-3.12,42.12,-28.38
1554882906677,-3.5315554,-1.3743136999999999,8.518829,0.37986165,-0.4534648,0.023455392999999998,-3.1799998,42.239998,-28.199999
1554882906696,-3.5339496,-1.2067145000000001,8.739103,0.6229859999999999,-0.85846853,0.12669162,-2.9399998,41.46,-26.22
1554882906716,-3.1772027,-0.87151605,8.190814,0.83068025,-1.1144209999999999,0.13829806,-2.1599998,40.079997999999996,-23.82
1554882906737,-2.8539755,-0.35435268,8.272219999999999,0.9583511,-1.2365941,0.060718175,-1.92,40.92,-23.699999
1554882906756,-2.7917243999999997,0.44054657,9.047964,1.0432614,-1.3068435,0.039337892,-3.12,41.1,-23.82
1554882906777,-2.2601955,1.5323358999999999,9.100638,0.91375786,-1.0179042999999999,0.0008533788000000001,-4.02,40.26,-26.099998
1554882906796,-1.2689656,3.1748084999999997,11.119012,0.35176188,-0.21889256,-0.15797159,-4.02,39.3,-27.96
1554882906816,-1.4078336,3.3448019999999996,11.846871,-0.21512108,0.5428564,-0.23310801,-4.2,38.94,-28.439999
1554882906836,-2.3248408,2.310475,10.901133999999999,-0.66349614,1.1915953000000001,-0.3174074,-5.16,39.36,-29.82
1554882906856,-2.8851009999999997,1.0822121999999998,10.395941,-0.7331348000000001,1.3974569,-0.3455072,-5.7,39.6,-30.0
1554882906877,-2.8396098999999997,0.25379312,8.746285,-0.68731993,1.0718657,-0.28136638,-5.1,39.899998,-29.519999
1554882906897,-2.9138324,-0.50998056,8.152505999999999,-0.54804265,0.7206182,-0.18790397,-4.62,40.26,-28.56
1554882906916,-3.347196,-1.2785428,8.272219999999999,-0.30919433,0.32661012,-0.07978083,-3.72,40.62,-27.599998
1554882906937,-3.0191805,-1.5323358999999999,8.20518,0.012731653999999999,-0.081447884,0.06988115,-3.24,40.739998,-26.88
1554882906956,-2.7749646,-1.1540405,8.60263,0.34015542,-0.49011672,0.15906748,-3.12,40.62,-27.119999
1554882906976,-2.8372157000000002,-0.91461295,9.122187,0.5814471999999999,-0.8859574,0.22504093,-3.4199998,40.32,-28.14
1554882906997,-3.0024207,-0.7398309000000001,9.466963,0.73599607,-1.2255985,0.26657978,-4.62,40.739998,-28.68
1554882907016,-2.8827069,-0.18675344,9.464568,0.7744806,-1.2811873,0.24947554,-4.56,40.62,-26.88
1554882907036,-2.597788,1.6520496999999998,8.815719999999999,0.5111977,-0.69231313,0.1480719,-4.62,40.079997999999996,-27.42
1554882907057,-1.4102278999999998,4.0080160000000005,11.22436,0.0011252137,0.27285394,-0.012585657,-5.58,39.36,-30.119999
1554882907076,-1.9513340000000001,2.743839,11.506885,-0.51322335,0.67480326,-0.08344602,-5.3399997,39.059998,-30.48
1554882907097,-2.8707354,1.1708003,10.192428,-0.74168694,0.9527469000000001,-0.13353696,-4.38,39.48,-31.08
1554882907116,-3.1436827000000003,0.21309046,8.861211,-0.6989263000000001,0.98390114,-0.10055026,-5.04,39.48,-30.42
1554882907137,-3.0024207,-0.14365649,8.454185,-0.6048531,0.76948744,-0.047404975,-5.2799997,39.54,-29.699999
1554882907157,-2.954535,-0.41660379999999997,8.207574000000001,-0.41792834,0.37975538,0.013070683999999999,-4.44,40.32,-29.4
1554882907176,-3.0119977000000002,-0.52913475,8.348836,-0.21206675,0.14701572,0.04178135,-3.9599998,40.02,-28.019999
1554882907196,-3.0622776000000003,-0.79250497,8.789383,0.013342518000000001,-0.10099558,0.06988115,-3.78,40.44,-28.08
1554882907217,-2.978478,-0.7972935,9.076694999999999,0.210652,-0.3215179,0.08698538,-3.36,40.98,-27.96
1554882907236,-3.0646717999999997,-0.28013015,8.739103,0.32060772,-0.411926,0.10836566,-3.24,40.86,-27.72
1554882907256,-3.4956412000000006,0.63208854,8.60263,0.3621466,-0.1779646,0.14501758,-3.72,41.16,-28.68
1554882907277,-3.3591676,1.0462981,9.557945,0.40124196,0.26369098,0.1395198,-4.02,40.8,-29.279999
1554882907296,-2.4134290000000003,1.9465453999999998,9.270632,0.054270487,0.54713243,-0.030911612999999998,-3.84,39.719997,-30.179997999999998
1554882907317,-2.8013015,2.4541316,12.050385,-0.274375,0.7407767,-0.27770117,-3.72,39.0,-30.779999
1554882907336,-3.4573328,2.6432792999999997,9.040782,-0.6751026,1.8995881000000001,-0.4157567,-3.54,39.239998,-30.66
1554882907357,-3.4716985,0.3615355,9.90272,-0.63722897,2.1408799,-0.60573584,-2.9399998,39.96,-30.599998
1554882907376,-3.1604427999999998,-0.37829542,9.833286,-0.8180451,1.6943374,-0.5611425999999999,-2.1599998,40.44,-30.66
1554882907397,-3.9529476000000003,-0.30886146,9.182044,-0.9964177,1.3962351,-0.47378892,-1.68,40.5,-30.599998
1554882907416,-4.73827,-1.6783867,8.389539,-0.5339927,0.85134333,-0.35467020000000005,-1.56,40.379996999999996,-30.179997999999998
1554882907437,-4.936994599999999,-1.9130256,7.781393,-0.1479259,0.33210787,-0.25326654,-0.65999997,40.8,-27.48
1554882907456,-4.8484063,-0.42378664,8.140533999999999,-0.33179635,0.42434853,-0.30824444,-0.48,41.34,-27.539998999999998
1554882907476,-5.150085,0.2466103,8.909097000000001,-0.44969332,0.35654250000000004,-0.5214364,-1.1999999,41.46,-28.8
1554882907497,-5.341627,-0.45491222,7.515629,-0.39471546,0.27224309999999996,-0.6039032,-1.14,42.48,-28.019999
1554882907516,-4.7071442999999995,-1.0750294,7.893924,-0.37150259999999996,0.2594149,-0.5134952,-1.1999999,42.78,-28.68
1554882907537,-4.3192715999999995,-1.1013663999999999,8.190814,-0.36844829999999995,0.21360002,-0.33023559999999996,-1.92,41.76,-28.14
1554882907556,-4.886715000000001,-0.86912173,8.365596,-0.36783740000000004,0.30095378,-0.22883196,-2.76,41.76,-27.3
1554882907576,-5.4445809999999994,-1.5538843999999998,8.609812,-0.30308568,0.38708577,-0.1524738,-2.76,42.84,-27.539998999999998
1554882907596,-5.2650104,-2.2027327999999997,8.300951,-0.26093596,0.35532078,-0.04679411,-2.58,43.5,-27.359999
1554882907617,-5.320079,-2.0087965,7.989694999999999,-0.23955570000000004,0.3107276,0.02528799,-2.28,43.62,-26.88
1554882907636,-5.5571117,-2.0997790000000003,7.843644,-0.18213436,0.25025195,0.12119383,-1.62,43.559998,-27.24
1554882907657,-5.590631500000001,-2.1237217999999998,7.7861814,-0.11371745,0.22520646,0.19633026,-1.68,43.26,-27.18
1554882907676,-5.193182,-2.1021732999999996,7.951386500000001,-0.049576603,0.15373524,0.27513188,-1.56,43.32,-26.699999
1554882907697,-4.869955,-1.8651401,8.099832000000001,0.017618576,-0.009976651500000001,0.35943127,-1.26,43.559998,-27.0
1554882907716,-4.812492400000001,-1.7143008000000002,8.140533999999999,0.10619404,-0.17857546,0.41563088,-1.26,43.559998,-27.42
1554882907737,-4.776578400000001,-2.3775147999999997,7.2450757,0.21737151,-0.28608775,0.40646788,-0.71999997,43.32,-26.699999
1554882907756,-4.788549400000001,-2.351178,8.011244,0.40490714,-0.38749138,0.33927274,-0.42,43.02,-26.64
1554882907776,-4.989669,-1.4509305000000001,8.961771,0.28212324,-0.5035558,0.19022161,-0.78,42.78,-27.72
1554882907796,-5.8779445,0.81165916,8.763046000000001,-0.08989370599999999,-0.25615534,-0.00036835176,-0.24,42.42,-28.019999
1554882907816,-6.246663,0.8834874,9.052753,-0.1937408,0.29789945,-0.25143397,-0.29999998,42.78,-27.539998999999998
1554882907836,-5.5882373,-1.2450229,8.911489999999999,-0.032472376000000004,0.56973445,-0.21722550000000002,-0.84,43.02,-27.48
1554882907856,-3.5890178999999995,-1.5227587,8.262642,0.02983588,0.060272854,0.09126144,0.17999999,42.96,-26.88
1554882907876,-4.2570205,-1.9513340000000001,7.508445699999999,-0.0055943043,-0.25432277,0.20182805,-0.12,43.379996999999996,-26.58
1554882907897,-5.7103453,-1.333611,7.0511394,0.17766526,-0.18468411,0.15845662,-1.56,43.8,-27.3
1554882907917,-5.9473785999999995,-0.65124273,8.061523,0.23997353,-0.075339235,0.04850087,-1.74,42.96,-26.82
1554882907936,-5.193182,-0.41660379999999997,8.954588000000001,0.15628499,-0.094276056,0.021622797000000003,-0.96,42.78,-26.34
1554882907956,-4.7526355,-0.56744313,8.779805999999999,0.114746146,-0.06312193,0.037505295,-0.06,43.14,-25.5
1554882907977,-4.625739,-0.90982443,8.516436,0.04632924,0.004073249,0.061329037,0.24,42.42,-25.859999
1554882907996,-5.042342700000001,-1.0582695,8.494887,-0.03430497,0.041946895,0.06988115,-0.48,42.66,-26.76
1554882908016,-5.2578273,-1.2354459,8.377566999999999,-0.026363721,0.13174409,0.04483568,-0.96,43.14,-26.939999
1554882908037,-5.4733124,-0.97446984,8.183631,-0.05629612,0.16289821,0.003907705,-0.84,42.84,-27.779999
1554882908056,-5.7223167,-0.6656084,8.473338,-0.026974589,0.27468655,-0.011974791,-0.78,42.6,-28.32
1554882908076,-5.549929,-0.5818088,7.910684,-0.07278948,0.41762903,-0.04557238,-0.35999998,42.3,-27.779999
1554882908096,-5.296136,-0.6751855,8.329682,-0.19496253,0.41213122,-0.12803918,0.06,42.0,-27.72
1554882908116,-5.1668449999999995,-1.0893950000000001,8.279403,-0.24261002,0.38097712,-0.1646911,-0.42,42.54,-27.96
1554882908136,-5.1716337,-1.4245936000000001,7.922655000000001,-0.21328849,0.24780849,-0.10726977,-0.96,43.2,-28.019999
1554882908156,-5.8396363,-1.4389591,8.049552,-0.09111544,0.20810224,-0.05107017,-0.59999996,43.26,-27.42
1554882908177,-6.2155375,-1.1803774999999999,7.620977000000001,0.14651114,0.23009339,0.0020751092,-0.65999997,42.3,-26.76
1554882908196,-5.4086666,-1.2665714,6.838049000000001,0.33587936,0.3351622,0.037505295,-0.24,41.94,-27.3
1554882908216,-4.860378,-1.0678465,7.4988684999999995,0.3548162,0.21176742,0.13890892,0.24,42.66,-27.66
1554882908237,-5.0375543,-1.2522057,8.12138,0.27906892,0.07798795,0.2256518,0.17999999,42.6,-27.0
1554882908256,-5.3966956,-1.8531687,8.162083,0.24791478,0.06821410000000001,0.17494997,0.65999997,41.7,-25.14
1554882908276,-5.2482505,-1.7765520000000001,8.102226,0.20759767,-0.09610865,0.11569604,0.96,41.82,-25.68
1554882908297,-5.2314906,-1.2976969999999999,7.6712565,0.23019968,-0.20178835,0.066215955,1.38,42.42,-27.84
1554882908317,-5.185999400000001,-0.6943397,7.7718163,0.2686842,-0.27203783,0.07354634,1.14,42.239998,-27.96
1554882908336,-5.1883935999999995,-0.17957062,7.8747697,0.26562986,-0.25615534,0.12852421,0.0,41.82,-28.439999
1554882908357,-5.4326096,0.043096945,7.9944835,0.31327733,-0.25310102,0.21648881,0.12,41.34,-29.46
1554882908376,-5.7199225,0.09337672,7.843644,0.48065442,-0.30197024,0.2873492,1.02,41.219997,-27.3
1554882908396,-5.643306,0.071828246,8.200391,0.57839286,-0.43391714,0.33988357,1.56,41.16,-26.939999
1554882908417,-5.305713,-0.03351985,8.190814,0.5967188,-0.6495525,0.40646788,1.38,41.219997,-29.4
1554882908436,-4.8579836,-0.21069619,7.8460383,0.67063355,-0.8621337,0.45594799999999996,0.84,40.86,-30.0
1554882908456,-4.309695,-0.51955765,7.266624,0.7769241,-0.90367246,0.5084824,0.71999997,40.62,-30.599998
1554882908476,-4.9609375,-0.7709564999999999,8.734314999999999,0.89787537,-0.8914552,0.401581,1.1999999,40.26,-28.56
1554882908496,-4.2211065,0.13647367,8.430242,0.6688009,-0.77478,0.31728157,1.4399998999999999,39.239998,-28.74
1554882908516,-4.982486,1.3719195,9.313728999999999,0.4336178,-0.61900926,-0.02480296,0.53999996,39.239998,-31.26
1554882908537,-5.5331693,1.1875603000000001,9.964972,0.09397673,-0.41925640000000003,-0.20989512,0.06,39.6,-31.439999
1554882908556,-4.8388295,1.2809371,9.421472,-0.23589051,-0.3184636,-0.2660947,0.12,39.18,-31.019999
1554882908576,-4.7310870000000005,1.2354459,8.470944,-0.39838064,-0.37588492,-0.27953377,0.24,38.46,-28.8
1554882908597,-4.7981267,0.66800267,8.470944,-0.24505349,-0.29158553,-0.17324321,0.71999997,38.28,-26.64
1554882908616,-3.7877428999999996,0.071828246,8.590658,0.058546547000000004,-0.1883493,0.039948753999999996,0.53999996,38.82,-25.14
1554882908636,-3.2155110000000002,-0.16041641,8.46855,0.23814093,-0.46384949999999997,0.20793669,0.24,39.66,-25.14
1554882908657,-3.3687446000000003,0.38308397,8.73192,0.36947697,-0.67948496,0.29467955,-0.53999996,39.6,-28.56
1554882908676,-3.5866237,0.27294734,9.318518,0.28517756,-0.41070426,0.081487596,-1.38,38.879996999999996,-29.88
1554882908696,-4.182798,2.5403256,10.661706,-0.05873958,0.26796705,-0.08588949,-1.02,39.42,-29.22
1554882908717,-5.0638914,2.5211713,10.027223,-0.36600479999999996,0.29423425,-0.18546052,-1.1999999,39.6,-31.08
1554882908736,-5.1261425,0.7972935,8.921068,-0.47046277,0.7224508000000001,-0.31374222,-1.4399998999999999,38.879996999999996,-32.16
1554882908756,-4.4246197,0.749408,9.361614,-0.6781569000000001,0.7096226,-0.33878767,-1.02,39.059998,-31.5
1554882908776,-4.1947694,0.25618739999999995,8.262642,-0.6702157,0.56851274,-0.32657040000000004,-1.56,38.7,-30.539998999999998
1554882908797,-4.4461684,-0.43815228,8.004061,-0.52666235,0.5966126,-0.34917238,-1.62,39.0,-28.56
1554882908816,-4.4749,-0.90503585,8.114198,-0.42098266,0.52086526,-0.30946615,-1.14,39.78,-28.98
1554882908837,-4.312089,-1.0486923000000001,7.946598,-0.29514444,0.27468655,-0.20928428,-1.92,40.8,-29.76
1554882908857,-4.276175,-1.0079896000000002,7.704776299999999,-0.10394361,-0.030135205,-0.10360458,-2.04,41.04,-29.099998
1554882908876,-4.4749,-1.0750294,7.9130783,0.15567411,-0.29280725,0.037505295,-1.62,39.84,-29.699999
1554882908896,-4.410254,-0.7637736999999999,8.300951,0.35176188,-0.5041666,0.13829806,-0.35999998,39.96,-28.439999
1554882908917,-4.3240604000000005,-0.26097596,8.449396,0.42934173,-0.6574938,0.19144332,-1.14,39.84,-27.0
1554882908937,-4.271386,0.20351335,8.640938,0.46599364,-0.74484754,0.20976929999999996,-2.22,39.239998,-28.08
1554882908957,-4.223500700000001,0.2466103,8.882759,0.55518,-0.8688531999999999,0.22504093,-1.38,39.84,-28.38
1554882908976,-4.1181526,0.15562786,8.961771,0.68040735,-0.90245074,0.28551656,-1.74,40.079997999999996,-28.08
1554882908996,-3.7829542000000003,0.24421602,9.138947,0.66147053,-0.8511380999999999,0.2690232,-1.92,39.36,-27.779999
1554882909017,-3.8859081,1.0486923000000001,9.545974000000001,0.32366204,-0.6281723000000001,0.09553749,-1.56,38.7,-26.039998999999998
1554882909036,-3.8739367,2.6863763,10.443827,-0.105776206,0.06882497,-0.099328525,-1.14,38.28,-24.72
1554882909056,-4.235472,1.5275473999999998,10.137360000000001,-0.41792834,0.48482418,-0.14758687,-1.62,38.1,-24.119999
1554882909076,-4.4749,0.17238778,8.767835,-0.41243055,0.6418166000000001,-0.16102591,-1.5,38.76,-24.66
1554882909097,-3.5602864999999997,0.21069619,8.760652,-0.43014565,0.5074261999999999,-0.09871766,-1.5,39.0,-26.88
1554882909116,-3.2873392,-0.26337022,8.346442,-0.28903577,0.23070425,0.024066257999999997,-2.22,38.82,-29.58
1554882909136,-3.5842294999999997,-0.7302538000000001,8.13814,-0.02269853,0.065159775,0.08270932,-2.28,39.3,-30.66
1554882909157,-3.849994,-0.53392327,8.511647,0.122076534,-0.07472837,0.08942884,-1.92,39.899998,-30.42
1554882909176,-3.8691480000000005,-0.41181526,8.724737,0.16972402,-0.23844025,0.1077548,-1.9799999,40.02,-30.539998999999998
1554882909196,-4.051113,-0.22745611,8.741497,0.23997353,-0.46446040000000005,0.11630691,-2.58,39.239998,-29.88
1554882909216,-4.1756153,-0.019154198,8.707977,0.319386,-0.62023103,0.115085185,-2.22,39.36,-30.24
1554882909236,-4.0439300000000005,0.21069619,8.786988000000001,0.35298359999999995,-0.69048053,0.10347874,-2.1,39.78,-31.859999
1554882909256,-3.921822,0.6703969,9.340066,0.18438478,-0.49133846,0.04483568,-1.9799999,39.18,-31.92
1554882909277,-3.6704233,1.8603516,10.242707000000001,-0.06668083,0.046833817,0.017346742,-2.7,39.059998,-30.66
1554882909296,-3.8643596,1.7047237000000002,9.8237095,-0.26215770000000005,0.26735616,-0.0083096,-3.1799998,39.54,-30.48
1554882909316,-4.024776,0.69673395,8.813326,-0.29392270000000004,0.39747044,-0.022359502000000003,-2.9399998,40.079997999999996,-30.42
1554882909337,-3.4884584000000003,0.55786604,8.911489999999999,-0.27498588,0.37059242,-0.011363926000000002,-2.8799999,40.079997999999996,-30.66
1554882909356,-3.1819912999999995,0.38068968,8.966559,-0.21817541,0.24903022,0.025898853,-2.82,39.3,-31.26
1554882909376,-3.5004299,-0.05027977,8.784595,-0.10760879999999999,0.16595255,-0.015639983,-2.34,38.82,-30.9
1554882909397,-3.8452053,0.10774237,8.947405,-0.07645468,0.18122417,-0.077948235,-1.5,39.66,-30.779999
1554882909416,-3.9960446000000003,-0.007182824399999999,9.014444000000001,-0.09233717,0.17694812,-0.09749593,-1.4399998999999999,39.96,-30.3
1554882909436,-4.046324299999999,-0.28970724,8.772623,-0.06790256,0.07432275,-0.07733737,-1.74,39.42,-30.359999
1554882909457,-4.022382,-0.40463245,8.612206,0.023116362999999997,-0.04479597,-0.042518053,-2.04,40.2,-30.9
1554882909476,-3.9744961,-0.45012367,8.530801,0.11596788,-0.17002335,0.0020751092,-2.52,40.62,-30.599998
1554882909497,-3.9146392,-0.339987,8.626572999999999,0.22775623,-0.34717426,0.04789000400000001,-2.3999999,40.079997999999996,-30.539998999999998
1554882909516,-3.7829542000000003,-0.11492519,8.772623,0.33465759999999994,-0.5273795,0.090650566,-1.92,39.84,-31.199999
1554882909537,-3.6560576,0.42378664,8.715160000000001,0.43056348,-0.6807066999999999,0.12791336,-2.04,39.3,-31.38
1554882909556,-3.641692,0.8978530999999998,9.138947,0.33465759999999994,-0.5163839,0.04483568,-2.46,39.18,-31.439999
1554882909576,-3.5147953000000003,2.2697724999999997,10.654523,-0.063626505,0.10486601,-0.0504593,-3.06,39.54,-31.5
1554882909597,-3.9098508,1.9034485,9.981731,-0.337905,0.4090769,-0.07978083,-3.36,39.66,-31.019999
1554882909616,-4.1851926,0.56265455,9.155706,-0.37333518,0.5984451,-0.12742832,-2.9399998,39.12,-29.279999
1554882909636,-3.4645156999999998,0.22506183,8.992896,-0.401435,0.6143276,-0.14269996,-2.7,39.54,-28.8
1554882909657,-3.1867797,-0.37111259,8.667274,-0.32507682,0.35898596,-0.06328747400000001,-2.82,40.14,-30.42
1554882909676,-3.572258,-0.7326481,8.260247999999999,-0.13143255,0.18000244,-0.023581231,-2.3999999,40.02,-31.08
1554882909696,-3.9792848,-0.6943397,8.526012,0.05182703,0.021788342000000002,-0.0076987348,-2.6399999,40.379996999999996,-30.72
1554882909717,-3.9266107000000003,-0.6081458000000001,8.607418,0.14712201,-0.15108652,0.008183761500000001,-3.3,39.78,-29.88
1554882909736,-3.9313992999999994,-0.37590113,8.607418,0.23142141,-0.30563542,0.027120585,-2.7,39.36,-27.96
1554882909756,-3.9840732000000005,-0.08858817,8.707977,0.32549465,-0.4082608,0.04544654,-1.74,39.719997,-27.539998999999998
1554882909777,-3.9433705999999997,0.23463893,8.875577,0.38047254,-0.48950586,0.0918723,-2.3999999,40.379996999999996,-28.619999
1554882909796,-3.9146392,0.30646718,8.930645,0.38719204,-0.49989057,0.10042442,-2.82,40.68,-28.68
1554882909817,-3.6225379,0.67757976,9.26345,0.31510997,-0.51271874,0.11019826,-3.48,39.96,-29.279999
1554882909836,-3.4381785000000002,2.3320236,10.158908,0.009677327,0.026675265,0.02528799,-3.4199998,39.6,-28.8
1554882909856,-3.806897,2.5355369999999997,10.125388000000001,-0.36356133,0.47260690000000005,-0.027246421,-3.24,39.18,-29.46
1554882909879,-4.0128045,1.515576,9.438231,-0.45030420000000004,0.78353727,-0.09138728,-2.7,39.18,-31.38
1554882909896,-3.5483153,0.9601042,9.196409,-0.6244008000000001,0.8678367,-0.17935187,-3.0,39.719997,-31.38
1554882909917,-3.4022646,0.51716334,9.088667,-0.68915254,0.7450528000000001,-0.17018889,-3.0,39.719997,-29.939999
1554882909936,-3.9074564,-0.50040346,8.212361999999999,-0.49489737,0.53491515,-0.12926093,-1.68,39.239998,-27.599998
1554882909956,-4.149278,-1.0415094999999999,8.360807000000001,-0.27559674,0.40113565,-0.08283516,-1.86,39.6,-27.42
1554882909977,-3.9601305,-1.2402343999999998,8.300951,-0.06240477,0.04133603,-0.0009792169999999999,-2.52,39.719997,-27.72
1554882909996,-3.842811,-1.333611,8.128563,0.1068049,-0.27142698,0.039337892,-2.1,40.14,-28.38
1554882910016,-3.962525,-1.2761483999999998,8.284191,0.32060772,-0.5218817,0.08942884,-1.9799999,40.86,-30.06
1554882910036,-3.9864676,-1.0702409,8.607418,0.5374649,-0.7191911999999999,0.15479143,-1.86,40.44,-28.019999
1554882910056,-4.024776,-0.7733508000000001,8.791777,0.70911807,-0.95254177,0.19816285,-1.9799999,40.14,-27.359999
1554882910076,-3.955342,-0.15323359,8.964165,0.80380213,-1.1614577,0.23970169,-2.82,39.84,-29.279999
1554882910097,-3.6392976999999997,0.5913859,9.201198,0.62909466,-0.9849176,0.1254699,-3.8999998999999996,39.66,-30.06
1554882910116,-3.1819912999999995,2.743839,10.652128,0.13734816,-0.0032571335,0.013070683999999999,-3.72,39.12,-31.08
1554882910136,-3.4262072999999997,3.6177492,10.594666499999999,-0.49550825,0.41701815,-0.06512007,-3.3,37.92,-29.58
1554882910157,-5.078257,0.5698373999999999,9.028810499999999,-0.5083364,1.0346029,-0.14758687,-3.54,38.1,-29.4
1554882910176,-3.8954852,0.42618093,8.961771,-0.5187210999999999,0.87516713,-0.19523436,-3.24,39.0,-31.08
1554882910196,-2.3631492,0.5363176,8.830086,-0.4820692,0.28568214,0.047279138,-2.7,39.36,-30.599998
1554882910216,-3.0119977000000002,-0.35435268,8.176449,-0.22000802,0.02728613,0.14868277,-2.7,39.6,-30.119999
1554882910237,-3.78056,-0.18675344,8.741497,-0.051409199999999995,0.0963139,0.087596245,-2.7,39.719997,-30.84
1554882910256,-3.9529476000000003,-0.016759925,9.179649000000001,-0.06606996,0.15862216,-0.008920466,-2.04,40.26,-28.92
1554882910277,-3.9074564,-0.052674048,8.990502000000001,-0.09233717,0.118915915,-0.06756353,-2.1599998,40.14,-28.439999
1554882910296,-4.113364,-0.17717634,8.820508,-0.03186151,0.07493362,-0.09077640599999999,-2.1,39.54,-30.359999
1554882910317,-4.0966043,-0.18914771,8.777411,0.007233865999999999,0.03705997,-0.085278615,-2.28,39.66,-30.359999
1554882910337,-3.9984387999999997,-0.20351335,8.76544,-0.009870361,-0.026470012999999997,-0.043739785,-2.6399999,40.079997999999996,-29.88
1554882910357,-4.017593,-0.3328042,8.679246000000001,0.028614148,-0.12848452,0.003907705,-1.02,39.66,-28.74
1554882910377,-4.0128045,-0.26337022,8.612206,0.14162423,-0.24210544,0.046668272000000004,-1.02,40.02,-29.279999
1554882910396,-3.9266107000000003,-0.10774237,8.559532,0.2760146,-0.40276300000000004,0.08698538,-2.34,40.98,-30.72
1554882910417,-3.8116856,0.10774237,8.722342999999999,0.35787052,-0.56952924,0.118139505,-2.6399999,40.8,-30.84
1554882910436,-3.6943660000000005,0.50998056,9.1628895,0.36825523,-0.58296824,0.10836566,-2.46,40.379996999999996,-30.96
1554882910457,-3.2610023,1.2450229,9.859624,0.20332160000000002,-0.28181168,0.0051294356,-2.82,40.26,-30.9
1554882910476,-3.4166303,1.3383996,10.130177,-0.09233717,0.14579399,-0.06817439,-3.36,40.379996999999996,-31.5
1554882910496,-3.8236567999999997,0.8379962,9.653716000000001,-0.29392270000000004,0.5117023,-0.1420891,-2.52,40.2,-31.56
1554882910516,-3.7973199999999996,0.11492519,9.237112,-0.3727243,0.55568457,-0.15736072,-2.76,39.54,-31.08
1554882910536,-3.5363437999999996,-0.31125572,8.705584,-0.34951144,0.39380527,-0.10299371,-2.52,39.239998,-30.779999
1554882910557,-3.581835,-0.54828894,8.466156,-0.22856012,0.21909781,-0.048626706,-1.9799999,40.379996999999996,-29.22
1554882910576,-3.7183087,-0.38547826,8.571504,-0.097224094,0.11525072,-0.02480296,-2.1,40.62,-29.099998
1554882910596,-3.964919,-0.30167863,8.710372,-0.0013182472,0.047444683,-0.016250848999999998,-2.04,40.62,-30.48
1554882910616,-4.084633,-0.22985038,8.779805999999999,0.076872505,-0.027080877000000003,-0.015639983,-2.04,41.1,-30.779999
1554882910636,-3.955342,-0.13647367,8.887547999999999,0.14406769,-0.1180998,0.001464244,-2.6399999,40.86,-30.48
1554882910657,-3.8739367,-0.038308397,8.815719999999999,0.20026729,-0.21339478,0.039337892,-3.12,39.66,-29.58
1554882910676,-3.7326744,0.014365649,8.746285,0.27173853,-0.31235495,0.08454192,-1.92,38.94,-28.019999
1554882910697,-3.5794407999999995,-0.045491222000000005,8.674458,0.35298359999999995,-0.42841935,0.1395198,-1.9799999,39.6,-29.099998
1554882910716,-3.5602864999999997,-0.0670397,8.849239,0.47149146,-0.6177876,0.2006063,-2.58,40.14,-30.9
1554882910736,-3.5267668,0.071828246,9.220352,0.5545690999999999,-0.82059485,0.22137573,-2.7,40.079997999999996,-30.3
1554882910757,-3.6608462,0.7446195,9.797373,0.37497473,-0.61900926,0.11447431,-3.48,39.78,-30.72
1554882910776,-2.9736892999999998,2.7582044999999997,10.412702000000001,-0.0917263,0.08165314,0.04178135,-3.06,39.48,-29.4
1554882910796,-3.8188684,2.1835787,9.249083500000001,-0.42464787,0.5599606,-0.057789683,-2.8799999,39.059998,-28.5
1554882910816,-4.383917299999999,0.29449580000000003,8.947405,-0.35134402,0.67602503,-0.10055026,-3.12,38.579997999999996,-30.72
1554882910837,-2.8491871,0.51955765,9.035994,-0.32690942,0.38830748,-0.026024692000000002,-2.82,38.46,-30.179997999999998
1554882910856,-2.2985039,0.057462595,8.600235000000001,-0.2462752,-0.024026552000000003,0.13218941,-3.06,38.82,-28.8
1554882910876,-3.3735332000000002,0.04070267,8.648121000000002,-0.07462208,-0.14558873,0.10408961,-2.04,38.52,-26.58
1554882910897,-3.8811195,0.41420954,9.249083500000001,-0.008037765,-0.021583091000000002,0.021622797000000003,-1.68,39.239998,-26.939999
1554882910916,-3.840417,0.45251793,9.526819,-0.06301564,0.08959439,-0.03274421,-2.58,40.559998,-29.34
1554882910937,-3.6464806000000003,0.32083282,9.093455,-0.11005226,0.12746802,-0.04923757,-2.52,40.26,-29.58
1554882910959,-3.806897,-0.031125572,8.983319,-0.07889813,0.13968533,-0.06512007,-2.04,39.239998,-29.519999
1554882910976,-3.6512692,-0.20590763,9.033599,-0.05629612,0.107309476,-0.04435065,-2.1,39.48,-28.019999
1554882910997,-3.5962007000000007,-0.45730647,9.002473,-0.024531126,0.025453534,0.0020751092,-2.3999999,40.079997999999996,-28.8
1554882911016,-3.6608462,-0.46927786,8.830086,0.06343347,-0.08755653,0.03017491,-2.04,40.379996999999996,-30.179997999999998
1554882911036,-3.668029,-0.26097596,8.664881,0.18927172,-0.1901819,0.04544654,-2.04,41.16,-30.0
1554882911057,-3.6632404000000003,-0.117319465,8.734314999999999,0.2912862,-0.29158553,0.068659425,-2.1599998,40.379996999999996,-30.539998999999998
1554882911076,-3.5315554,0.21309046,8.887547999999999,0.31327733,-0.38810223,0.07232462,-2.1,39.239998,-30.119999
1554882911096,-3.3615617999999996,0.69194543,9.364009,0.19415863,-0.27753562,0.017346742,-2.82,39.6,-29.64
1554882911116,-3.5746522000000005,1.3407938,9.871595,-0.018422473,0.05355333,-0.034576802999999996,-3.12,40.379996999999996,-30.24
1554882911136,-3.964919,1.3647367,9.469357,-0.20473637,0.36631635,-0.08588949,-3.12,39.96,-30.42
1554882911156,-4.065479,0.531529,9.172467,-0.21328849,0.42557028,-0.09077640599999999,-3.54,39.12,-30.3
1554882911176,-3.2849449999999996,0.21309046,8.868394,-0.1851887,0.23864551,-0.029079017999999998,-2.82,39.3,-30.539998999999998
1554882911196,-2.988055,-0.08140534,8.461367999999998,-0.07767639999999999,-0.0319678,0.03017491,-2.82,39.96,-30.48
1554882911216,-3.4812756,-0.13886794,8.609812,0.055492222,-0.12420845,0.011848953999999998,-3.12,40.079997999999996,-30.84
1554882911237,-3.5435266000000003,0.23703320000000003,9.076694999999999,0.13062865,-0.12115413,-0.005255274,-2.82,39.42,-31.08
1554882911256,-3.5842294999999997,0.409421,9.253872,0.13307211,-0.15536258,-0.016250848999999998,-2.6399999,39.059998,-30.599998
1554882911276,-3.6584517999999995,0.6249057,9.205987,0.1068049,-0.16635816,-0.025413826,-2.8799999,39.059998,-30.72
1554882911297,-3.7374629999999995,0.58420306,9.158101,0.062211737,-0.11565634,-0.024192097000000003,-2.82,39.6,-30.48
1554882911316,-3.5938065000000003,0.42378664,9.191621000000001,0.013953384,-0.05395895,-0.020526905,-2.9399998,40.02,-29.699999
1554882911337,-3.493247,0.4189981,9.244295,-0.023309397000000003,0.010181902,-0.008920466,-3.48,39.899998,-29.939999
1554882911356,-3.5076127,0.4764607,9.244295,-0.05079833,0.07615535,-0.021748636000000002,-3.36,39.719997,-30.66
1554882911376,-3.5195839999999996,0.32083282,9.179649000000001,-0.06179391,0.12135938,-0.035798535,-3.72,40.02,-31.019999
1554882911396,-3.4956412000000006,0.1340794,9.1628895,-0.063626505,0.11280727,-0.024192097000000003,-3.6599998,40.14,-30.72
1554882911417,-3.493247,0.035914123,8.971347999999999,-0.04285708,0.04133603,0.006962031600000001,-3.36,39.66,-30.3
1554882911436,-3.5914123,-0.0023942748,8.810931,0.016396845,-0.057013277,0.033229236,-3.6,39.66,-30.119999
1554882911457,-3.5746522000000005,0.04070267,8.913885,0.088478945,-0.14009094,0.04422481,-3.6,39.66,-30.119999
1554882911476,-3.476487,0.28731298,9.047964,0.12024394,-0.18529499,0.052166055999999995,-3.1799998,39.719997,-30.599998
1554882911496,-3.4549387,0.55307746,9.249083500000001,0.1068049,-0.14864306,0.02895318,-2.34,39.719997,-28.859999
1554882911516,-3.5531040000000003,0.67279124,9.344854,0.031668477,-0.03685472,0.0100163575,-2.28,40.2,-28.14
1554882911536,-3.6392976999999997,0.56265455,9.311335,-0.034915835,0.073711894,0.008183761500000001,-2.9399998,40.2,-30.119999
1554882911557,-3.4860642,0.35914123,9.110215,-0.04407881599999999,0.055996794,0.037505295,-3.0,40.02,-30.24
1554882911576,-3.2801563999999996,0.35914123,8.968952999999999,-0.03919189,-0.014252707,0.057663847000000004,-2.58,39.6,-30.66
1554882911597,-3.3831102999999993,0.54828894,9.0838785,-0.04285708,-0.0008136725,0.028342316,-2.76,38.52,-30.779999
1554882911616,-3.5531040000000003,0.7877164000000001,9.261055,-0.07278948,0.12013765,-0.03030075,-3.12,38.879996999999996,-30.179997999999998
1554882911637,-3.6225379,0.80687064,9.335278,-0.14303899,0.27224309999999996,-0.08161343,-2.7,40.02,-30.539998999999998
1554882911656,-3.632115,0.48843205,9.244295,-0.197406,0.31378192,-0.09627419,-2.28,39.96,-30.599998
1554882911677,-3.668029,-0.04070267,8.875577,-0.17113878,0.21421089999999998,-0.070617855,-2.9399998,39.54,-30.42
1554882911696,-3.6009892999999997,-0.1699935,8.655303,-0.06301564,0.06149458,-0.01991604,-2.9399998,39.6,-30.42
1554882911716,-3.6225379,-0.22985038,8.734314999999999,0.052437894000000006,-0.100384705,0.0197902,-3.06,40.379996999999996,-30.0
1554882911736,-3.675212,-0.05506832,8.846846000000001,0.14651114,-0.22255775,0.033229236,-3.78,40.32,-29.939999
1554882911757,-3.6536633999999997,0.0670397,8.964165,0.23630834,-0.30074850000000003,0.037505295,-3.8999998999999996,39.6,-30.0
1554882911776,-3.5746522000000005,0.07901107,9.04557,0.29800573,-0.38810223,0.05460952,-3.78,39.239998,-30.0
1554882911797,-3.4022646,0.22266756,9.239507000000001,0.26379728,-0.3752741,0.04789000400000001,-3.4199998,39.42,-30.48
1554882911816,-3.3352248999999996,1.1229149,9.502875999999999,0.08542462,-0.13459316,0.010627223,-2.7,38.7,-28.199999
1554882911837,-3.5770466,1.8292258999999997,9.636956,-0.20656897,0.24780849,-0.05595709,-2.46,38.52,-28.32
1554882911856,-3.955342,1.2809371,9.517242,-0.39227199999999995,0.6155494,-0.12803918,-2.76,39.719997,-30.48
1554882911877,-3.675212,0.5794145,9.471751,-0.45152593,0.74688536,-0.18179533,-3.48,39.54,-30.179997999999998
1554882911896,-3.2298767999999995,0.34716985,9.308941,-0.4979517,0.61921453,-0.17507579999999998,-3.6,39.48,-30.3
1554882911916,-3.4956412000000006,-0.14126222,8.427847,-0.4277022,0.42434853,-0.14269996,-3.12,40.079997999999996,-28.68
1554882911936,-3.8787252999999997,-0.47406640000000005,8.499676,-0.2676555,0.35593164,-0.11582188,-2.3999999,39.66,-27.539998999999998
1554882911956,-3.9505534,-0.7350424,8.660092,-0.05629612,0.12380284,-0.041907188,-1.86,39.48,-28.68
1554882911976,-3.806897,-0.679974,8.454185,0.10802663,-0.14742133,0.0057403008,-2.46,40.079997999999996,-29.88
1554882911997,-3.8667538,-0.54350036,8.557138,0.23019968,-0.29097468,0.031396642,-2.9399998,40.14,-29.88
1554882912016,-3.8811195,-0.43096948,8.772623,0.33343592,-0.38626966,0.06743769,-2.82,39.54,-28.019999
1554882912036,-3.7590114999999997,-0.27534159999999996,8.92825,0.42017877,-0.53898597,0.112641715,-2.3999999,39.6,-25.199999
1554882912057,-3.7326744,-0.13168511,8.956982,0.4898174,-0.6996435000000001,0.15784575,-2.22,39.719997,-23.1
1554882912076,-3.6225379,0.12210801,9.021627,0.55579084,-0.78455377,0.18289122,-2.3999999,39.719997,-26.519999
1554882912096,-3.3759273999999997,0.50040346,9.234717999999999,0.48554134,-0.67643064,0.11141999,-3.54,40.2,-30.72
1554882912116,-3.1460772,2.3894862999999997,10.290593,0.04816184,-0.028913473999999998,-0.0070878695999999995,-3.6,39.239998,-28.92
1554882912136,-3.5602864999999997,2.466103,9.91948,-0.46985190000000004,0.60638636,-0.059011415,-2.28,38.7,-25.5
1554882912157,-4.565882,0.27055305,9.454991,-0.51322335,0.9515253,-0.12620659,-1.5,39.059998,-24.359999
1554882912176,-3.5195839999999996,0.10055954,9.009656,-0.5046712000000001,0.7346680999999999,-0.12498486,-1.56,39.239998,-23.699999
1554882912197,-2.6696165,-0.17238778,8.4230585,-0.4643541,0.32050145,0.019179337,-1.8,38.82,-23.76
1554882912216,-3.3040992999999994,-0.56744313,8.248277,-0.25849253,0.106087744,0.081487596,-2.28,38.28,-24.96
1554882912236,-4.1037870000000005,-0.42857520000000005,8.739103,-0.03858103,0.050499007,0.014292413,-2.1,38.82,-24.72
1554882912257,-4.0295644,-0.28252444,8.959375999999999,0.03838799,0.01567969,-0.024192097000000003,-1.5,39.42,-23.76
1554882912276,-3.9170337,-0.21069619,8.794171,0.08542462,-0.100384705,-0.027246421,-1.5,39.66,-24.0
1554882912297,-4.0535073,-0.14605077,8.810931,0.15567411,-0.18590584,-0.006477004000000001,-2.1,39.3,-24.359999
1554882912316,-3.9840732000000005,-0.11253092,8.813326,0.20759767,-0.24149458,0.022233661000000002,-2.22,39.54,-24.18
1554882912336,-3.6967604,-0.105348095,8.818114,0.26807332,-0.3587807,0.07232462,-2.8799999,39.3,-25.8
1554882912357,-3.4597269999999996,-0.05027977,8.889942,0.35115100000000005,-0.52066,0.13524373,-3.54,39.78,-28.56
1554882912376,-3.354379,0.13647367,8.9498,0.45621982,-0.66238075,0.18533468,-2.76,40.32,-30.66
1554882912396,-3.2897336000000004,0.4956149,9.251478,0.4336178,-0.64222217,0.12852421,-3.24,39.66,-30.84
1554882912416,-3.1604427999999998,2.0614705,10.137360000000001,0.03899886,-0.024026552000000003,-0.012585657,-4.2,39.239998,-30.3
1554882912436,-3.5339496,2.2314641,9.917086999999999,-0.40571102,0.52086526,-0.07733737,-4.3199997,39.48,-30.179997999999998
1554882912457,-4.520391,0.22266756,9.364009,-0.47718227,0.83362824,-0.19034745,-4.38,39.899998,-30.539998999999998
1554882912476,-3.4286015,0.05506832,8.990502000000001,-0.44358468,0.69679445,-0.17385408,-3.9599998,39.54,-31.14
1554882912496,-2.6935592,-0.39505535,8.437425,-0.35684183,0.22581734,0.0045185704,-3.6,39.78,-30.48
1554882912516,-3.4525442,-0.6273,8.305738999999999,-0.14548245,0.004684115,0.06255077,-3.3,40.32,-29.76
1554882912536,-4.0678730000000005,-0.36632404,8.729526,0.0347228,-0.06312193,0.016735873999999998,-3.3,40.14,-29.46
1554882912557,-3.8835137000000004,-0.16041641,8.988108,0.1208548,-0.07717183,-0.020526905,-2.82,39.84,-29.34
1554882912576,-3.816474,-0.05506832,8.995291,0.11657874,-0.100384705,-0.033965938,-3.0,40.02,-29.76
1554882912596,-3.9122449999999995,0.04070267,9.009656,0.1263526,-0.12115413,-0.029689884,-3.06,40.44,-30.3
1554882912616,-3.955342,0.038308397,8.983319,0.13612643,-0.1339823,-0.0083096,-2.76,40.26,-30.66
1554882912636,-3.6632404000000003,0.0023942748,8.9498,0.14651114,-0.2005666,0.032007508,-3.0,40.2,-30.48
1554882912656,-3.4860642,0.028731298,8.863605499999998,0.20148902,-0.30746803,0.09553749,-3.0,40.079997999999996,-30.06
1554882912676,-3.4262072999999997,0.026337024,8.940222,0.31083390000000005,-0.45041049999999994,0.15295883,-3.3,39.12,-29.64
1554882912696,-3.3519847,0.11492519,9.057542,0.38902465,-0.55364674,0.16151094,-3.6599998,39.6,-29.76
1554882912717,-3.2705792999999996,0.67757976,9.577099,0.26379728,-0.38932398,0.08515279,-4.08,39.899998,-30.779999
1554882912736,-3.2370596000000003,1.8651401,10.10384,-0.063626505,0.025453534,0.024677123999999998,-3.78,39.54,-31.199999
1554882912756,-3.790137,1.5299416000000001,9.37598,-0.32813117,0.46894172,-0.05473536,-2.7,39.059998,-29.88
1554882912777,-3.8883023000000003,0.3232271,9.153313,-0.29819876,0.5416346,-0.10177198,-2.7,39.12,-29.699999
1554882912796,-2.8874955,0.35674694,8.990502000000001,-0.29086837,0.38158798,-0.047404975,-3.54,39.719997,-30.119999
1554882912816,-2.7725701000000003,-0.035914123,8.674458,-0.22611666,0.111585535,0.043003082000000005,-3.4199998,39.78,-28.56
1554882912837,-3.7661943,0.05506832,8.935433,-0.12471302599999999,0.060272854,0.003907705,-3.06,39.96,-27.48
1554882912856,-4.024776,0.28731298,9.2419,-0.06484824,0.15190263,-0.05473536,-3.24,39.78,-27.96
1554882912876,-3.7733772000000005,0.117319465,9.004868,-0.06423736,0.17878072,-0.06267661,-3.06,40.02,-28.5
1554882912896,-3.8188684,-0.15323359,8.7822,-0.04346795,0.08959439,-0.05473536,-2.46,39.78,-28.56
1554882912916,-3.842811,-0.22745611,8.746285,0.012120789,0.004073249,-0.039463725,-2.46,39.6,-28.98
1554882912936,-3.7973199999999996,-0.27294734,8.820508,0.065266065,-0.09061086,-0.0009792169999999999,-2.76,40.02,-28.56
1554882912956,-3.7063375,-0.2466103,8.8085375,0.13062865,-0.19079277,0.03261837,-1.62,40.2,-27.119999
1554882912976,-3.6536633999999997,-0.117319465,8.763046000000001,0.23325402,-0.3202962,0.058274712,-0.96,40.26,-27.539998999999998
1554882912997,-3.5674694,-0.014365649,8.880365,0.3615357,-0.46934733,0.08820711,-1.92,40.26,-29.58
1554882913016,-3.440573,0.16041641,9.033599,0.41651359999999993,-0.55914456,0.10103528,-2.9399998,40.44,-30.66
1554882913037,-3.2274826,0.84278476,9.629773,0.2686842,-0.36855453,0.038727023,-3.0,40.02,-30.66
1554882913056,-3.189174,1.9441511999999999,10.321719,-0.07156775,0.08654005,-0.018083444,-3.6599998,39.6,-30.179997999999998
1554882913076,-3.7015488,1.4102278999999998,9.411894,-0.3537875,0.5257522,-0.09138728,-3.6599998,40.26,-29.519999
1554882913096,-3.8978794000000003,0.1340794,9.074302000000001,-0.31591386,0.5740105,-0.117043614,-2.22,40.5,-30.359999
1554882913116,-3.0096035,-0.019154198,8.91628,-0.25971425,0.34982297,-0.033355076000000004,-2.28,39.66,-30.96
1554882913136,-2.8204557999999995,-0.40223816,8.494887,-0.10699793,-0.062511064,0.09553749,-2.46,39.6,-30.24
1554882913157,-3.5387383000000003,-0.35674694,8.518829,0.1086375,-0.26287484,0.09553749,-2.76,39.78,-29.939999
1554882913176,-3.684789,-0.028731298,8.9186735,0.26013207,-0.31357670000000004,0.10347874,-3.1799998,40.14,-29.699999
1554882913197,-3.615355,0.0670397,9.184438,0.32182947,-0.39726523,0.08576365,-2.8799999,40.44,-29.64
1554882913216,-3.3567734,0.61293435,9.387952,0.24119525,-0.31602013,0.05460952,-3.24,39.84,-29.88
1554882913236,-3.6488747999999998,1.1444633,9.943423,-0.0049834386,-0.0179179,-0.018083444,-3.12,39.48,-29.88
1554882913256,-3.8140797999999996,1.0127783000000001,9.387952,-0.18152349999999998,0.30645153,-0.06267661,-2.6399999,39.54,-30.06
1554882913276,-3.7302802,0.22266756,9.04557,-0.18702129,0.3302753,-0.046183247000000004,-3.0,39.059998,-29.4
1554882913297,-2.9904492,0.035914123,8.7822,-0.10638707,0.12074851,0.041170485,-2.82,39.36,-29.279999
1554882913317,-3.0407290000000002,-0.038308397,8.650514999999999,-0.002539978,-0.17124507,0.10042442,-2.34,40.079997999999996,-30.06
1554882913337,-3.4716985,0.47406640000000005,9.050359,0.07992683,-0.19262537,0.04422481,-2.82,40.079997999999996,-30.119999
1554882913356,-3.6608462,0.7805335999999999,9.522031,0.01822944,0.03461651,-0.035187672999999996,-3.48,40.02,-30.359999
1554882913376,-3.5890178999999995,0.7637736999999999,9.502875999999999,-0.08683938,0.22642820000000002,-0.05962228,-3.72,40.14,-29.88
1554882913397,-3.7254915,0.33759275,9.167678,-0.13082169,0.24841934,-0.082224295,-3.6,39.96,-30.0
1554882913416,-3.5507095,0.07901107,8.825297,-0.12715648,0.18488936,-0.06573094,-3.12,40.02,-30.179997999999998
1554882913437,-3.4573328,-0.16759923,8.830086,-0.07401121,0.05966199,0.0045185704,-2.8799999,40.26,-29.88
1554882913456,-3.5746522000000005,-0.24421602,8.844451,0.031668477,-0.08938913,0.039948753999999996,-2.82,40.26,-29.64
1554882913476,-3.6464806000000003,0.03351985,8.758257,0.13123952,-0.18773843,0.030785777,-3.0,39.66,-29.4
1554882913497,-3.5890178999999995,0.21787901,8.930645,0.20454334,-0.25249016,0.027120585,-3.3,39.18,-29.34
1554882913516,-3.5842294999999997,0.35914123,9.210775,0.19965641,-0.2671509,0.013681549,-3.06,39.48,-30.24
1554882913536,-3.5794407999999995,0.72785956,9.47654,0.09336587,-0.11443461,0.001464244,-3.24,40.02,-31.26
1554882913557,-3.6536633999999997,0.75180227,9.47654,-0.014757282,0.07615535,-0.015029117,-3.48,40.26,-30.96
1554882913576,-3.5387383000000003,0.40223816,9.225141,-0.056906987,0.16289821,-0.021748636000000002,-3.1799998,40.14,-30.359999
1554882913597,-3.2011453999999997,0.16041641,9.028810499999999,-0.040413626,0.073711894,0.017346742,-3.12,40.14,-30.9
1554882913616,-2.971295,0.11971374,8.968952999999999,0.010288193000000001,-0.08389134,0.0656051,-3.12,39.48,-30.42
1554882913636,-3.2274826,0.39505535,9.091061999999999,0.03777713,-0.117488936,0.04483568,-3.12,39.54,-30.06
1554882913656,-3.3615617999999996,0.90982443,9.402317,-0.0037617083,0.042557757,-0.016861713,-2.82,39.84,-31.019999
1554882913676,-3.4286015,0.9337671999999999,9.553157,-0.111884855,0.24108896,-0.044961512,-2.8799999,39.719997,-30.9
1554882913697,-3.615355,0.6703969,9.39274,-0.21206675,0.32172316,-0.06878526,-2.6399999,40.14,-30.179997999999998
1554882913716,-3.6009892999999997,0.30407290000000003,9.028810499999999,-0.23650137,0.2807952,-0.066341795,-2.6399999,40.079997999999996,-30.3
1554882913736,-3.512401,0.0,8.798960000000001,-0.18091263,0.19099802,-0.026024692000000002,-2.58,40.079997999999996,-30.599998
1554882913757,-3.562681,-0.12450229,8.746285,-0.079509,0.04927728,0.024066257999999997,-2.3999999,40.26,-30.599998
1554882913776,-3.7111259,-0.052674048,8.770228,0.029225016,-0.10282817,0.043003082000000005,-2.46,39.84,-30.06
1554882913796,-3.6895776,0.021548472000000003,8.818114,0.12879606,-0.2042318,0.061329037,-2.7,40.079997999999996,-29.76
1554882913816,-3.641692,0.21309046,8.980925,0.1666697,-0.24149458,0.055220387999999995,-2.9399998,40.5,-30.0
1554882913836,-3.562681,0.4956149,9.29218,0.117189616,-0.2042318,0.033229236,-3.06,40.26,-29.46
1554882913857,-3.6009892999999997,0.70870537,9.452597,-0.0031508429,-0.022193957,-0.026024692000000002,-3.3,39.84,-30.06
1554882913877,-3.6919718,0.6464542,9.452597,-0.08500678,0.15984389,-0.06573094,-3.1799998,39.6,-30.179997999999998
1554882913898,-3.6919718,0.3232271,9.256267,-0.15464541,0.26491272,-0.07550477,-2.46,39.899998,-29.22
1554882913917,-3.6369035000000003,0.0047885496,8.9186735,-0.15403455,0.1665634,-0.046183247000000004,-2.6399999,39.66,-29.4
1554882913936,-3.641692,-0.20351335,8.61939,-0.078287266,0.035838243,-0.010142196,-2.7,39.6,-29.699999
1554882913956,-3.6273263,-0.2657645,8.631361,0.054881357,-0.094886914,0.0026859746,-1.5,40.079997999999996,-28.92
1554882913977,-3.6369035000000003,-0.20830189999999998,8.794171,0.17461094,-0.22011429,0.013681549,-2.1,40.26,-28.32
1554882913996,-3.5387383000000003,-0.11492519,8.968952999999999,0.28517756,-0.36977628,0.038116157000000005,-3.12,39.6,-29.519999
1554882914016,-3.4262072999999997,-0.019154198,8.9976845,0.3884138,-0.55242497,0.07660067,-3.3,39.48,-30.72
1554882914036,-3.2610023,0.15802214,9.184438,0.39940935,-0.57441616,0.07415721,-3.4199998,40.02,-30.9
1554882914057,-3.1580484,1.0582695,9.809344,0.19721295,-0.23721851,0.02895318,-3.24,39.54,-31.32
1554882914076,-3.1772027,2.2170985,10.156514,-0.16747358,0.15190263,-0.006477004000000001,-3.48,39.239998,-30.72
1554882914096,-4.1420956,0.91700727,9.1628895,-0.29880962,0.46771997,-0.05840055,-3.54,39.84,-30.599998
1554882914117,-3.4429672,0.20111908,9.040782,-0.18457782,0.39747044,-0.043739785,-3.78,40.5,-29.76
1554882914136,-2.403852,0.32083282,8.885154,-0.13509773,0.07493362,0.050333462999999995,-3.6599998,39.36,-29.64
1554882914157,-2.9162266,0.25139886,8.775017,-0.05996131,-0.110158555,0.06682683,-2.46,38.94,-30.779999
1554882914176,-3.5985951000000003,0.69194543,9.332883,-0.045911413,0.041946895,-0.028468153,-2.34,39.36,-30.779999
1554882914196,-3.6895776,0.8379962,9.677659,-0.13876292,0.27957350000000003,-0.08894381,-3.54,39.36,-30.779999
1554882914217,-3.7015488,0.51955765,9.311335,-0.21512108,0.38097712,-0.09566333,-3.54,39.12,-29.76
1554882914236,-3.9577362999999997,-0.11253092,8.863605499999998,-0.19251907,0.27835175,-0.10177198,-3.3,38.94,-29.4
1554882914256,-3.684789,-0.35674694,8.703189,-0.111884855,0.1384636,-0.056567955999999996,-3.4199998,40.14,-30.0
1554882914277,-3.5435266000000003,-0.48603779999999996,8.631361,-0.0013182472,-0.030135205,0.008183761500000001,-2.9399998,40.62,-29.82
1554882914297,-3.677606,-0.43336374,8.719949,0.12024394,-0.19384709,0.027731448,-3.0,40.2,-30.0
1554882914317,-3.6584517999999995,-0.18196489,8.806142999999999,0.26196465,-0.33312437,0.03261837,-3.4199998,40.8,-29.939999
1554882914336,-3.5770466,-0.045491222000000005,8.925857,0.3621466,-0.44430184,0.037505295,-3.84,41.16,-30.119999
1554882914357,-3.387899,0.30407290000000003,9.071907000000001,0.3725313,-0.5139405,0.046057407,-4.02,40.14,-30.24
1554882914377,-3.3112822,0.9672870000000001,9.565128,0.20393248,-0.28669859999999997,0.006962031600000001,-3.54,39.3,-30.779999
1554882914396,-3.1580484,1.9345740000000002,10.412702000000001,-0.06240477,0.12991148,-0.030911612999999998,-2.9399998,39.239998,-31.74
1554882914416,-3.6704233,1.3407938,9.464568,-0.37333518,0.5239196,-0.099328525,-2.82,39.48,-30.9
1554882914437,-3.9337934999999997,0.16759923,9.172467,-0.39349374,0.6295991999999999,-0.13659132,-3.24,39.36,-30.3
1554882914456,-3.232271,-0.047885496,8.885154,-0.33851588,0.46710909999999994,-0.0803917,-3.36,38.7,-30.84
1554882914477,-2.978478,-0.44054657,8.46855,-0.18396695,0.06271631,0.04422481,-3.24,39.66,-30.96
1554882914496,-3.5267668,-0.6201171999999999,8.363202000000001,0.068320386,-0.18957102,0.08270932,-3.54,40.68,-31.019999
1554882914516,-3.5698638,-0.37111259,8.717555,0.25952122,-0.30380282,0.09675922,-3.12,40.2,-30.779999
1554882914536,-3.5674694,-0.13168511,9.091061999999999,0.39757675,-0.48217547,0.1077548,-2.7,39.6,-30.48
1554882914557,-3.4956412000000006,0.14844504,9.126975999999999,0.4531655,-0.6464982,0.10347874,-3.1799998,39.96,-30.42
1554882914576,-3.4645156999999998,0.28491869999999997,9.198803999999999,0.3914681,-0.5487598000000001,0.0656051,-3.72,40.079997999999996,-30.48
1554882914597,-3.3495904999999997,1.5706443,10.130177,0.07015298,-0.0081440555,-0.0046444084,-3.4199998,39.719997,-30.599998
1554882914616,-3.4429672,2.2099156000000004,10.072714,-0.25665992,0.28690386,-0.047404975,-3.36,39.6,-30.66
1554882914636,-4.113364,1.0415094999999999,9.194015499999999,-0.37883297,0.5691236,-0.101161115,-3.0,39.719997,-29.82
1554882914656,-3.2705792999999996,0.40463245,9.016839,-0.30736172,0.52941734,-0.08711121,-2.76,40.379996999999996,-29.939999
1554882914677,-2.6791935000000002,0.38787252,8.923461999999999,-0.296977,0.28323868,-0.020526905,-2.8799999,40.079997999999996,-30.96
1554882914696,-3.2873392,0.047885496,8.705584,-0.20534724,0.12380284,-0.006477004000000001,-2.46,39.719997,-30.539998999999998
1554882914717,-3.840417,-0.043096945,8.964165,-0.08439592,0.13052236,-0.041907188,-2.7,40.14,-30.48
1554882914736,-3.6967604,-0.10055954,9.059936,-0.015368148,0.07554448,-0.029689884,-3.06,40.2,-30.119999
1554882914756,-3.5938065000000003,-0.12450229,8.834874000000001,0.04938357,-0.07839356,-0.020526905,-2.82,40.14,-30.0
1554882914776,-3.7063375,-0.15802214,8.839663,0.11352442,-0.15597345,-0.02480296,-2.9399998,40.02,-30.72
1554882914796,-3.7374629999999995,-0.1699935,9.033599,0.17827614,-0.21095131,-0.010753061999999999,-3.36,40.079997999999996,-30.48
1554882914816,-3.572258,-0.105348095,9.081485,0.22775623,-0.28242254,0.021011932,-3.3,39.96,-29.88
1554882914837,-3.5004299,-0.0023942748,8.971347999999999,0.28090149999999997,-0.3832153,0.06682683,-3.36,39.96,-29.88
1554882914856,-3.3855044999999997,0.12210801,8.952193,0.3316033,-0.43758234,0.09737009,-3.72,39.66,-30.179997999999998
1554882914876,-3.354379,0.65842557,9.522031,0.19354776,-0.22072516,0.028342316,-4.3199997,39.059998,-30.599998
1554882914898,-3.2921278,0.65842557,9.522031,0.19354776,-0.22072516,0.028342316,-4.3199997,39.059998,-30.599998
1554882914916,-3.46691,1.5419129999999999,9.469357,-0.337905,0.42557028,-0.03763113,-3.36,38.879996999999996,-30.06
1554882914937,-3.9313992999999994,0.43096948,9.232324,-0.36966997,0.6027212,-0.087722085,-3.36,38.94,-28.32
1554882914956,-3.2514252999999997,0.32562137,9.103033,-0.34706795,0.49826324,-0.07978083,-2.9399998,39.3,-27.66
1554882914976,-2.9904492,-0.098165266,8.667274,-0.27193156,0.21848695,0.0051294356,-2.58,40.32,-29.16
1554882914996,-3.510007,-0.32562137,8.600235000000001,-0.12898909,0.039503433,0.03628356,-2.58,40.379996999999996,-29.76
1554882915016,-3.799714,-0.24182175,8.784595,0.055492222,-0.07595009,0.033229236,-2.46,39.899998,-30.359999
1554882915037,-3.6225379,-0.18675344,8.875577,0.16605882,-0.19751228,0.039948753999999996,-2.6399999,39.96,-30.599998
1554882915056,-3.6177492,-0.14605077,8.889942,0.2564669,-0.3343461,0.042392217,-2.8799999,40.62,-28.98
1554882915076,-3.6297207,-0.08140534,8.966559,0.35115100000000005,-0.47484508,0.068659425,-3.06,40.32,-29.22
1554882915097,-3.4381785000000002,-0.10055954,9.071907000000001,0.40246367,-0.5402077,0.0900397,-3.48,39.18,-30.48
1554882915116,-3.3064934999999998,0.25379312,9.498088000000001,0.29678398,-0.36305675,0.07110288,-3.54,39.42,-31.08
1554882915136,-3.1436827000000003,2.030345,10.340873,-0.06118304,0.055996794,0.0020751092,-3.4199998,39.899998,-31.32
1554882915156,-3.4860642,1.8292258999999997,9.385557,-0.31957904,0.39624876,-0.04679411,-2.6399999,39.059998,-30.359999
1554882915177,-3.9768906000000004,0.24421602,9.141341,-0.29514444,0.5825626,-0.09016554,-3.12,38.7,-30.3
1554882915197,-2.9258040000000003,0.32562137,9.026416000000001,-0.24138829,0.38036624,-0.051681034,-4.38,39.66,-31.019999
1554882915216,-2.5834224,0.16281068,8.7822,-0.19251907,0.07493362,0.033229236,-3.84,39.54,-31.08
1554882915237,-3.6081722000000003,0.04070267,8.777411,-0.08073073,-0.038076452999999996,0.0197902,-3.1799998,39.54,-30.9
1554882915257,-3.8811195,0.19154198,9.107821000000001,-0.0043725735,0.045612085999999996,-0.02480296,-2.9399998,39.66,-30.84
1554882915276,-3.641692,0.12450229,9.148524,0.027392418999999998,0.023010073,-0.029079017999999998,-3.06,39.54,-30.359999
1554882915297,-3.5770466,0.021548472000000003,8.909097000000001,0.06587693,-0.07961529,-0.026024692000000002,-3.06,39.6,-29.76
1554882915317,-3.6608462,-0.083799616,8.9186735,0.107415766,-0.14009094,-0.015029117,-3.24,39.18,-29.88
1554882915336,-3.5914123,-0.0670397,9.059936,0.14712201,-0.1920145,0.014292413,-3.6599998,38.76,-30.24
1554882915357,-3.4357843,-0.011971374,9.062330000000001,0.19599123,-0.28730947,0.06316163400000001,-2.58,38.579997999999996,-28.5
1554882915377,-3.347196,0.052674048,9.019233,0.24547131,-0.3587807,0.093704894,-1.8,39.54,-28.199999
1554882915396,-3.354379,0.43336374,9.284998,0.19843470000000002,-0.26959440000000007,0.052166055999999995,-3.06,40.14,-30.359999
1554882915417,-3.232271,1.4557191,9.761458,0.017618576,-0.0014245376999999998,-0.015639983,-3.54,39.719997,-31.019999
1554882915436,-3.3735332000000002,1.3814965,9.522031,-0.21023417,0.3211123,-0.04435065,-3.36,39.48,-30.9
1554882915456,-3.6536633999999997,0.55307746,9.332883,-0.27620763,0.49032200000000004,-0.095052466,-3.9599998,39.3,-30.779999
1554882915476,-3.2155110000000002,0.4070267,9.234717999999999,-0.27132067,0.41701815,-0.08833294,-2.8799999,39.36,-29.519999
1554882915497,-3.0886145000000003,0.05985687,8.810931,-0.21817541,0.18488936,-0.01869431,-2.6399999,39.78,-29.039998999999998
1554882915516,-3.4166303,-0.13886794,8.674458,-0.13082169,0.08837265,0.0020751092,-3.06,40.02,-30.599998
1554882915536,-3.756617,-0.16281068,8.794171,0.028003285,-0.02952434,0.0032968397999999996,-3.72,40.68,-29.76
1554882915557,-3.6488747999999998,-0.12929083,8.851633999999999,0.14223509,-0.16452555,0.022233661000000002,-3.6,40.079997999999996,-30.66
1554882915576,-3.5938065000000003,-0.15562786,8.899519999999999,0.23936266,-0.3013594,0.038116157000000005,-2.7,40.26,-29.099998
1554882915597,-3.5267668,-0.038308397,8.968952999999999,0.31694254,-0.44063666,0.057663847000000004,-2.28,39.84,-28.92
1554882915616,-3.407053,-0.028731298,9.105427,0.35664877,-0.49133846,0.07904412599999999,-3.4199998,39.48,-31.32
1554882915637,-3.265791,0.39266106,9.550761999999999,0.24669304,-0.31174409999999997,0.053998653,-3.36,39.78,-31.5
1554882915656,-3.1772027,2.0351336,10.182851,-0.06179391,0.076766215,-0.013807386999999999,-3.9599998,39.899998,-31.14
1554882915677,-3.5985951000000003,1.6807808999999998,9.387952,-0.32752028,0.44817227,-0.07611564,-4.68,39.059998,-28.32
1554882915696,-3.8045027,0.40223816,9.227535000000001,-0.32813117,0.5874496,-0.11887621,-3.78,38.52,-28.439999
1554882915717,-2.8803127,0.47167215,9.115005,-0.31774643,0.45000488,-0.092609,-3.3,38.82,-30.66
1554882915736,-2.8204557999999995,0.076616794,8.830086,-0.2780402,0.19893926,-0.011974791,-3.36,39.36,-30.42
1554882915757,-3.6345089999999995,-0.13647367,8.736709,-0.13631947,0.08776179,-0.0076987348,-3.48,39.78,-30.3
1554882915776,-3.8571767999999995,-0.17717634,8.909097000000001,-0.0049834386,0.04133603,-0.011974791,-2.22,39.899998,-28.08
1554882915797,-3.6392976999999997,-0.17238778,8.846846000000001,0.09703106,-0.107715085,0.001464244,-2.1599998,40.44,-27.96
1554882915816,-3.5938065000000003,-0.25379312,8.818114,0.20515421,-0.27020523,0.014292413,-3.3,40.379996999999996,-29.88
1554882915837,-3.6488747999999998,-0.19633053,8.875577,0.31449908,-0.40154126,0.03689443,-3.4199998,40.079997999999996,-30.359999
1554882915856,-3.5339496,-0.16520496,9.014444000000001,0.40612888,-0.5224926,0.0778224,-3.72,40.26,-30.179997999999998
1554882915876,-3.2490308,0.0,9.217958,0.38902465,-0.5163839,0.066215955,-3.1799998,39.48,-29.279999
1554882915896,-3.1125572,1.489239,9.907509,0.13734816,-0.15352999,0.0026859746,-3.1799998,39.239998,-29.82
1554882915916,-3.1508656000000004,2.370332,10.1206,-0.26643378,0.27835175,-0.04435065,-3.48,39.66,-29.76
1554882915936,-4.1780095,0.65363705,9.021627,-0.36722654,0.6314319,-0.09016554,-3.6,39.239998,-29.519999
1554882915957,-3.2825508,0.12450229,9.09585,-0.26826635,0.508648,-0.07855911,-4.02,39.12,-29.4
1554882915976,-2.4134290000000003,0.08140534,8.827691,-0.22489493,0.14273965,0.04483568,-4.08,39.239998,-28.14
1554882915996,-3.1341057,-0.22985038,8.461367999999998,-0.0758438,-0.14131269,0.09675922,-3.12,39.96,-27.0
1554882916017,-3.7853483999999997,0.009577099,8.873182,0.10069625,-0.1480322,0.046668272000000004,-2.6399999,40.079997999999996,-27.18
1554882916036,-3.6632404000000003,0.04070267,9.201198,0.16972402,-0.15658431,0.03628356,-3.1799998,39.48,-28.199999
1554882916056,-3.5650752,0.05506832,9.033599,0.23142141,-0.29341809999999996,0.033229236,-3.3,40.02,-29.22
1554882916076,-3.4046587999999995,0.07901107,8.947405,0.27662542,-0.39115655,0.043003082000000005,-3.54,40.079997999999996,-30.779999
1554882916096,-3.3807160000000005,0.17478207,9.399923,0.20148902,-0.27020523,0.04544654,-3.1799998,39.36,-30.06
1554882916116,-3.2969165,1.0870007,9.921875,0.013342518000000001,-0.02952434,0.017957605,-3.1799998,39.239998,-30.06
1554882916136,-3.5147953000000003,1.211503,9.354432000000001,-0.18274522,0.22459559,-0.00036835176,-3.4199998,39.42,-31.38
1554882916156,-3.6177492,0.6464542,9.105427,-0.20290378,0.33821654,-0.020526905,-3.6,40.2,-30.779999
1554882916177,-3.0263633999999997,0.5698373999999999,9.088667,-0.17113878,0.27041048,-0.014418252,-3.9599998,40.14,-30.42
1554882916196,-2.9234095,0.44294083,9.091061999999999,-0.15953235,0.12930062,-0.0083096,-3.6,39.54,-28.68
1554882916217,-3.354379,0.39505535,9.067119,-0.13021082,0.12258111,-0.027857289,-3.6,39.36,-28.68
1554882916236,-3.6800002999999997,0.29210153,9.165284,-0.105776206,0.19466321,-0.05534622,-3.1799998,39.54,-30.48
1554882916256,-3.6464806000000003,0.05506832,9.035994,-0.07156775,0.13663101,-0.041907188,-3.36,40.2,-30.66
1554882916276,-3.5531040000000003,-0.117319465,8.856422,-0.0031508429,-0.0014245376999999998,-0.025413826,-3.48,40.079997999999996,-30.599998
1554882916297,-3.5746522000000005,-0.20111908,8.786988000000001,0.05671395,-0.10527163,-0.010142196,-2.82,39.78,-28.92
1554882916317,-3.6009892999999997,-0.19154198,8.909097000000001,0.13429384,-0.19873402,0.011238088,-2.7,39.66,-28.92
1554882916337,-3.5363437999999996,-0.117319465,9.024022,0.24180612,-0.33007005,0.04850087,-2.9399998,39.6,-30.119999
1554882916356,-3.3950818,-0.0023942748,9.100638,0.32915986,-0.44979963,0.08087672,-3.06,39.96,-29.64
1554882916376,-3.318465,0.3328042,9.316123,0.27784717,-0.35511550000000003,0.05460952,-3.6,39.719997,-29.699999
1554882916397,-3.050306,1.7550035,10.055954,0.018840306,-0.0057005943,-0.0076987348,-4.3199997,39.239998,-30.48
1554882916416,-3.2921278,1.6065584,9.632168,-0.24077742,0.33210787,-0.035187672999999996,-4.14,39.48,-31.08
1554882916437,-3.7542229,0.29689008,9.246689,-0.25727078,0.4707742999999999,-0.060844008,-3.8999998999999996,39.899998,-31.199999
1554882916457,-3.0119977000000002,0.21069619,8.990502000000001,-0.18885387,0.30522984,-0.02480296,-3.4199998,39.84,-30.84
1554882916476,-2.7079248,0.06943397,8.779805999999999,-0.11493918,-0.002646268,0.060718175,-2.6399999,39.66,-30.179997999999998
1554882916497,-3.4884584000000003,0.12929083,8.813326,-0.021476801,-0.1040499,0.039337892,-2.82,39.54,-30.0
1554882916517,-3.7254915,0.4644893,9.208381,0.019451171,-0.011198381,-0.014418252,-3.6,40.079997999999996,-30.84
1554882916536,-3.632115,0.48843205,9.320911,-0.011092092,0.072490156,-0.037020266,-3.54,39.84,-31.199999
1554882916557,-3.572258,0.37590113,9.174861,-0.045300543,0.09081612,-0.038852863,-3.54,39.12,-30.599998
1554882916576,-3.6584517999999995,0.19154198,9.093455,-0.058128715,0.092648715,-0.041907188,-3.54,39.12,-30.599998
1554882916596,-3.5267668,0.04070267,9.088667,-0.05996131,0.071268424,-0.011363926000000002,-3.0,39.36,-30.42
1554882916616,-3.4573328,-0.0670397,9.019233,-0.022087665,-0.005089729,0.01612501,-3.6,39.3,-29.82
1554882916637,-3.5147953000000003,-0.031125572,8.892337,0.04388578,-0.08938913,0.025898853,-3.6599998,39.239998,-30.359999
1554882916656,-3.4788813999999997,0.07422252,8.952193,0.122076534,-0.17368853,0.032007508,-3.54,39.719997,-30.779999
1554882916677,-3.387899,0.09577099,9.064724,0.20087814,-0.2671509,0.052166055999999995,-3.4199998,39.84,-30.48
1554882916696,-3.2610023,0.11492519,9.0838785,0.24547131,-0.33556783,0.071713746,-3.06,40.02,-30.779999
1554882916716,-3.1915683999999995,0.43815228,9.407105,0.19843470000000002,-0.26287484,0.06499423,-3.48,39.96,-29.58
1554882916736,-3.2226939999999997,1.2330515,9.797373,0.023116362999999997,-0.049682893,0.0100163575,-3.72,39.719997,-29.64
1554882916756,-3.46691,1.2833313,9.512454,-0.22794925,0.3211123,-0.035798535,-4.02,39.059998,-31.32
1554882916777,-3.6943660000000005,0.46927786,9.160496,-0.25971425,0.4457288,-0.0645092,-3.54,39.96,-31.019999
1554882916796,-3.1388943,0.31604427,9.064724,-0.22428405,0.34371433,-0.04435065,-3.4199998,39.42,-30.48
1554882916817,-3.1029801,0.08858817,8.892337,-0.17785831,0.13418755,0.010627223,-3.3,38.82,-28.98
1554882916836,-3.6009892999999997,0.031125572,8.791777,-0.07401121,0.023010073,0.0057403008,-2.34,39.42,-27.66
1554882916857,-3.7685885000000003,0.18196489,9.019233,-0.00864863,0.04622295,-0.034576802999999996,-2.28,39.84,-29.46
1554882916877,-3.641692,0.14365649,9.110215,0.01822944,0.021177476,-0.041907188,-3.12,39.719997,-30.24
1554882916897,-3.615355,0.07422252,8.992896,0.04938357,-0.03868732,-0.04557238,-3.48,40.079997999999996,-29.039998999999998
1554882916916,-3.6392976999999997,0.016759925,9.000079,0.07198558,-0.07106317599999999,-0.043739785,-3.4199998,40.079997999999996,-28.5
1554882916936,-3.5914123,0.007182824399999999,9.055147,0.09703106,-0.11260201,-0.015639983,-3.72,40.02,-28.38
1554882916956,-3.469304,0.021548472000000003,9.059936,0.13429384,-0.18101892,0.015514145,-3.06,40.02,-28.38
1554882916977,-3.397476,0.12450229,9.071907000000001,0.18071958,-0.25126842,0.04178135,-2.76,40.5,-29.519999
1554882916996,-3.2705792999999996,0.15802214,9.088667,0.22103670000000003,-0.29463986,0.060107306,-3.4199998,40.2,-31.14
1554882917016,-3.2633965,0.37111259,9.332883,0.18743911,-0.25371188,0.046057407,-3.6,39.899998,-30.599998
1554882917037,-3.15326,1.2641771000000002,9.763853,0.01578598,-0.044185105999999995,-0.0028118126,-2.6399999,38.94,-27.72
1554882917056,-3.3495904999999997,1.333611,9.610619999999999,-0.20290378,0.27102137,-0.02113777,-2.1,37.98,-26.88
1554882917076,-3.6560576,0.66321415,9.294575,-0.28170538,0.47260690000000005,-0.06756353,-3.72,38.52,-29.279999
1554882917096,-3.3208592000000006,0.39026679999999997,9.153313,-0.28781405,0.44084188,-0.059011415,-4.62,39.42,-31.199999
1554882917116,-3.1795970000000002,0.0670397,8.9186735,-0.26032510000000003,0.23498031,-0.005255274,-4.3199997,39.54,-31.439999
1554882917136,-3.5243726000000004,-0.18914771,8.669669,-0.14059553,0.07798795,0.02528799,-3.78,38.879996999999996,-30.539998999999998
1554882917156,-3.7781656000000003,-0.24182175,8.796566,0.0066230013,-0.027691744,0.024066257999999997,-3.3,39.719997,-30.359999
1554882917176,-3.6273263,-0.17238778,8.894731,0.12024394,-0.1480322,0.02528799,-3.1799998,40.079997999999996,-30.72
1554882917197,-3.5842294999999997,-0.1340794,8.906702000000001,0.19721295,-0.25249016,0.033229236,-2.82,39.719997,-31.019999
1554882917216,-3.5578922999999993,-0.105348095,8.9186735,0.27357109999999996,-0.36611107,0.043003082000000005,-2.9399998,39.719997,-30.72
1554882917237,-3.4716985,-0.083799616,9.050359,0.35359445,-0.47423422,0.075989805,-3.36,39.899998,-30.0
1554882917257,-3.3831102999999993,0.32083282,9.483723,0.28823188,-0.39360005,0.07110288,-3.36,40.14,-29.88
1554882917276,-3.2011453999999997,1.8052831999999999,10.144542999999999,0.0066230013,-0.025859147000000002,-0.008920466,-3.8999998999999996,40.079997999999996,-30.359999
1554882917297,-3.4190245000000004,1.7166951000000001,9.526819,-0.27742934,0.36937067,-0.048626706,-4.98,40.079997999999996,-30.42
1554882917317,-3.8715425000000003,0.24900457,9.186832,-0.28292713,0.56668013,-0.082224295,-4.68,40.14,-30.48
1554882917336,-3.0335462000000004,0.20830189999999998,8.940222,-0.21817541,0.41090950000000004,-0.057178818,-3.84,39.48,-30.06
1554882917356,-2.6337023,-0.011971374,8.7534685,-0.14548245,0.030340454,0.056442115,-3.1799998,39.3,-30.119999
1554882917377,-3.4956412000000006,-0.0670397,8.751075,-0.025141992000000002,-0.13520403,0.047279138,-2.3999999,39.48,-30.66
1554882917396,-3.7614057,0.29928434,9.150917999999999,0.04816184,-0.06923059,-0.0058661387,-3.24,39.48,-30.96
1554882917416,-3.6991546000000004,0.37350687,9.282603,0.04632924,-0.0014245376999999998,-0.042518053,-3.6599998,40.02,-30.9
1554882917437,-3.5985951000000003,0.34477556,9.126975999999999,0.028003285,0.011403632,-0.0645092,-3.12,40.379996999999996,-30.539998999999998
1554882917456,-3.6201434,0.25618739999999995,9.069513,0.0060121357,0.041946895,-0.074893914,-2.82,40.2,-30.24
1554882917477,-3.545921,0.090982445,9.14613,-0.0049834386,0.047444683,-0.041907188,-3.4199998,39.84,-29.699999
1554882917496,-3.4621215,0.057462595,9.019233,0.003568675,-0.006922325,-0.0015900823000000001,-3.78,40.32,-30.0
1554882917517,-3.5363437999999996,0.047885496,8.935433,0.039609727000000004,-0.08328048,0.013681549,-3.12,40.14,-30.72
1554882917536,-3.4980354,0.08619389,9.040782,0.09397673,-0.14192353,0.023455392999999998,-2.58,39.18,-31.019999
1554882917557,-3.3735332000000002,0.11492519,9.0838785,0.16178277,-0.20972958,0.043613944,-3.0,39.0,-30.539998999999998
1554882917577,-3.2250881000000002,0.11971374,9.134158,0.21492806,-0.28914207,0.061939903,-3.12,38.82,-30.66
1554882917596,-3.1556542000000003,0.49800915,9.416683,0.1544524,-0.22988814,0.050333462999999995,-2.6399999,38.94,-30.9
1554882917617,-3.2538195,1.2138973,9.737515,-0.032472376000000004,0.004684115,0.0075728963,-2.8799999,39.66,-30.72
1554882917636,-3.45015,1.1660118,9.4932995,-0.2059581,0.30095378,-0.017472578,-3.3,39.239998,-31.08
1554882917656,-3.6081722000000003,0.409421,9.222747,-0.23222531,0.40235740000000003,-0.037020266,-3.6,39.36,-30.48
1554882917677,-3.1341057,0.2466103,9.000079,-0.20412551,0.27407570000000003,-0.00036835176,-3.8999998999999996,40.559998,-30.3
1554882917696,-3.1676257000000003,0.07422252,8.791777,-0.14426070000000002,0.06699237,0.043003082000000005,-4.08,40.14,-31.199999
1554882917717,-3.6464806000000003,0.057462595,8.875577,-0.05873958,-0.0063114595,0.022844529,-3.54,39.54,-31.199999
1554882917736,-3.7183087,0.25379312,9.141341,-0.000707382,0.026064398,-0.013196521000000001,-3.3,40.559998,-30.599998
1554882917757,-3.6273263,0.25139886,9.14613,0.009066461999999999,0.030340454,-0.026635557,-3.06,40.559998,-29.699999
1554882917776,-3.5962007000000007,0.15323359,9.059936,0.007844731,0.01567969,-0.03030075,-2.52,39.78,-29.88
1554882917796,-3.6273263,0.11253092,9.031203999999999,0.007233865999999999,0.004073249,-0.032133345,-2.3999999,40.079997999999996,-29.88
1554882917816,-3.5866237,0.031125572,9.038387,0.018840306,-0.034411263,-0.0070878695999999995,-2.3999999,40.26,-30.119999
1554882917837,-3.5674694,0.028731298,8.988108,0.06404433400000001,-0.100384705,0.0100163575,-2.58,39.78,-30.359999
1554882917856,-3.5004299,0.14605077,9.002473,0.1068049,-0.14925392,0.016735873999999998,-3.36,39.6,-29.64
1554882917876,-3.4286015,0.16041641,9.076694999999999,0.15323067,-0.19995575,0.027731448,-3.9599998,40.739998,-28.68
1554882917898,-3.2969165,0.16041641,9.110215,0.19232604,-0.24882497,0.04483568,-3.9599998,40.44,-28.98
1554882917917,-3.2298767999999995,0.42618093,9.366403,0.1526198,-0.22255775,0.04422481,-3.48,39.66,-29.519999
1554882917936,-3.258608,1.1085492000000001,9.670475999999999,0.0011252137,-0.039298184,-0.0046444084,-3.48,40.32,-29.4
1554882917956,-3.4214187000000007,1.1540405,9.543579,-0.1900756,0.28690386,-0.041296322,-2.8799999,40.2,-29.099998
1554882917977,-3.6273263,0.51716334,9.282603,-0.24932954,0.43290067,-0.070617855,-2.28,40.079997999999996,-27.96
1554882917996,-3.328042,0.1699935,9.107821000000001,-0.23711222,0.35654250000000004,-0.046183247000000004,-3.3,39.719997,-29.46
1554882918016,-3.241848,-0.0670397,8.8085375,-0.1851887,0.14640485,0.008794627,-3.24,39.3,-31.32
1554882918037,-3.5842294999999997,-0.19872479999999998,8.696006,-0.048965737,-0.014252707,0.03261837,-2.52,40.2,-30.3
1554882918056,-3.7159145,-0.09337672,8.887547999999999,0.0628226,-0.088778265,0.01856847,-2.8799999,40.739998,-30.179997999999998
1554882918076,-3.7159145,-0.09337672,8.887547999999999,0.0628226,-0.088778265,0.01856847,-2.8799999,40.739998,-30.179997999999998
1554882918096,-3.5554981,0.11492519,9.055147,0.13979162,-0.16696903,0.001464244,-2.9399998,39.899998,-30.0
1554882918116,-3.5674694,0.28013015,9.210775,0.12574172,-0.16086036,0.0026859746,-2.9399998,40.32,-30.359999
1554882918136,-3.5219781,0.31843856,9.27542,0.104361445,-0.14375614,0.016735873999999998,-2.6399999,40.559998,-30.9
1554882918156,-3.387899,0.28491869999999997,9.179649000000001,0.09153327,-0.13642575,0.041170485,-3.6599998,40.44,-30.06
1554882918176,-3.3328303999999997,0.22266756,9.067119,0.094587594,-0.13948008,0.058274712,-3.6,40.5,-29.88
1554882918196,-3.3112822,0.27294734,9.189227,0.09703106,-0.14070182,0.071713746,-2.7,40.86,-29.58
1554882918216,-3.3088877,0.50758624,9.294575,0.04632924,-0.08328048,0.043613944,-3.24,40.32,-30.359999
1554882918236,-3.4022646,0.74222517,9.364009,-0.010481226,0.012014498,0.01856847,-3.6599998,40.5,-30.599998
1554882918257,-3.3112822,0.7877164000000001,9.301758,-0.08500678,0.14518312,-0.0058661387,-3.6599998,39.719997,-30.66
1554882918276,-3.2610023,0.5794145,9.222747,-0.11432832,0.17145033,-0.014418252,-3.6599998,39.239998,-30.599998
1554882918297,-3.213117,0.47167215,9.138947,-0.12104784,0.14457224,-0.008920466,-2.8799999,39.42,-27.18
1554882918317,-3.3591676,0.37350687,9.170073,-0.1216587,0.13479842,-0.01991604,-1.5,39.54,-23.699999
1554882918336,-3.5411325,0.33040990000000003,9.138947,-0.11310659,0.14823744,-0.032133345,-1.5,39.239998,-25.199999
1554882918356,-3.6632404000000003,0.23703320000000003,9.052753,-0.098445825,0.1476266,-0.04068546,-1.74,39.18,-27.3
1554882918376,-3.6297207,0.07422252,8.971347999999999,-0.05996131,0.08592919,-0.033355076000000004,-2.52,40.079997999999996,-30.72
1554882918396,-3.5842294999999997,0.031125572,8.968952999999999,-0.030639779,0.041946895,-0.03274421,-3.1799998,40.86,-30.06
1554882918416,-3.562681,0.014365649,9.038387,0.0011252137,0.012014498,-0.033355076000000004,-3.0,40.379996999999996,-29.88
1554882918436,-3.5650752,0.05506832,9.062330000000001,0.02983588,-0.018528765,-0.029079017999999998,-2.52,39.54,-30.42
1554882918456,-3.5315554,0.105348095,9.067119,0.050605297,-0.056402408,-0.014418252,-2.7,40.02,-30.42
1554882918476,-3.5076127,0.11253092,8.992896,0.07259645,-0.11076941,0.0057403008,-3.1799998,39.899998,-30.179997999999998
1554882918496,-3.4429672,0.15802214,9.055147,0.10497229999999999,-0.15780604,0.022844529,-2.7,39.059998,-30.0
1554882918517,-3.3759273999999997,0.16041641,9.115005,0.1544524,-0.22133602,0.039337892,-2.52,39.239998,-29.939999
1554882918536,-3.2993107000000004,0.14365649,9.138947,0.19293691,-0.26470745,0.061329037,-3.3,39.78,-30.539998999999998
1554882918556,-3.2226939999999997,0.3328042,9.296969,0.18010874,-0.25432277,0.06316163400000001,-3.6599998,39.78,-31.08
1554882918577,-3.232271,1.0750294,9.6896305,0.016396845,-0.07656097,0.014903278999999998,-3.48,39.48,-31.14
1554882918596,-3.4046587999999995,1.2162915,9.596252999999999,-0.17480397,0.23681292,-0.015029117,-3.06,39.059998,-28.619999
1554882918616,-3.6273263,0.6105401,9.349642999999999,-0.24261002,0.426792,-0.041296322,-2.8799999,38.82,-28.5
1554882918636,-3.2681851,0.22027329,9.050359,-0.21328849,0.3547099,-0.020526905,-3.48,39.6,-30.42
1554882918656,-3.0910087,-0.023942748,8.842057,-0.1851887,0.16289821,0.035061833,-3.36,39.899998,-30.3
1554882918676,-3.581835,-0.057462595,8.770228,-0.07523294,-0.014252707,0.046668272000000004,-3.24,40.32,-30.779999
1554882918697,-3.790137,0.27055305,9.028810499999999,-0.0043725735,-0.011198381,-0.0015900823000000001,-2.82,40.68,-30.24
1554882918717,-3.6895776,0.3328042,9.136553,0.009677327,0.034005646,-0.0364094,-2.3999999,40.2,-30.24
1554882918737,-3.6297207,0.27294734,9.107821000000001,0.00417954,0.05538593,-0.047404975,-3.0,39.899998,-31.199999
1554882918757,-3.6464806000000003,0.15802214,9.107821000000001,-0.007426899399999999,0.05538593,-0.05351363,-3.1799998,40.079997999999996,-31.32
1554882918776,-3.605778,0.05506832,9.091061999999999,-0.006816034,0.023620937,-0.03274421,-2.8799999,39.84,-31.019999
1554882918796,-3.529161,-0.035914123,8.954588000000001,0.030446745,-0.05090462,0.0051294356,-2.58,39.6,-30.24
1554882918816,-3.5674694,0.035914123,8.894731,0.08175943,-0.12848452,0.013070683999999999,-2.76,40.02,-31.32
1554882918836,-3.510007,0.08140534,8.942616000000001,0.13001777,-0.18468411,0.021011932,-2.9399998,39.78,-31.439999
1554882918856,-3.387899,0.09577099,9.064724,0.20759767,-0.27203783,0.03628356,-2.8799999,39.96,-29.699999
1554882918876,-3.3064934999999998,0.117319465,9.107821000000001,0.25891033,-0.33556783,0.05460952,-3.1799998,39.96,-29.34
1554882918896,-3.1772027,0.5458947,9.471751,0.19599123,-0.28547686,0.04911173,-3.1799998,39.48,-30.48
1554882918916,-3.2633965,1.4006507,9.909904,-0.03674843,0.004073249,-0.012585657,-2.28,40.02,-27.9
1554882918936,-3.4166303,1.4245936000000001,9.672871,-0.26337942,0.37303585,-0.051681034,-2.1599998,39.78,-27.3
1554882918957,-3.7254915,0.39984390000000003,9.253872,-0.32080078,0.5617932,-0.09321987,-2.6399999,38.879996999999996,-28.38
1554882918976,-3.1987512000000002,0.18435916,9.055147,-0.2872032,0.43290067,-0.05534622,-2.6399999,39.239998,-29.099998
1554882918996,-3.1819912999999995,-0.13168511,8.681641,-0.22306234,0.16045476,0.021011932,-2.52,39.96,-30.0
1554882919016,-3.6105663999999997,-0.30407290000000003,8.607418,-0.09966755,0.014457958,0.04422481,-2.58,39.3,-29.4
1554882919036,-3.8643596,-0.16281068,8.906702000000001,0.06587693,-0.09183259,0.027731448,-3.12,39.96,-29.88
1554882919057,-3.6512692,0.05506832,8.990502000000001,0.13368297,-0.1584169,0.012459818999999999,-2.82,39.48,-30.179997999999998
1554882919076,-3.605778,0.16520496,9.009656,0.14345682,-0.17674285,-0.008920466,-2.76,39.42,-29.4
1554882919096,-3.675212,0.23224466,9.172467,0.103139706,-0.12237585,-0.029689884,-3.06,39.059998,-27.9
1554882919117,-3.6105663999999997,0.26337022,9.25866,0.07015298,-0.06800885,-0.018083444,-2.8799999,38.579997999999996,-26.22
1554882919136,-3.4046587999999995,0.22985038,9.215564,0.048772699999999995,-0.061900195,0.009405492,-3.24,39.6,-26.519999
1554882919156,-3.397476,0.18675344,9.069513,0.047550972999999996,-0.08083702,0.031396642,-3.3,40.02,-28.619999
1554882919177,-3.3950818,0.15802214,9.007261999999999,0.09214413,-0.14497787,0.05583125,-2.9399998,40.8,-30.119999
1554882919196,-3.3112822,0.11253092,9.021627,0.14406769,-0.21400565,0.07965499999999999,-3.4199998,40.92,-29.939999
1554882919217,-3.241848,0.39744959999999996,9.2419,0.15506326,-0.24760322,0.075989805,-4.02,40.079997999999996,-29.519999
1554882919236,-3.337619,0.99362403,9.5794935,0.01700771,-0.060678467,0.008794627,-3.3,39.54,-29.939999
1554882919257,-3.4597269999999996,1.1564348,9.57231,-0.16503014,0.25880405,-0.03763113,-3.36,39.78,-30.66
1554882919277,-3.6297207,0.5794145,9.390346000000001,-0.24932954,0.4219050999999999,-0.06817439,-3.72,40.079997999999996,-30.599998
1554882919296,-3.3615617999999996,0.26097596,9.100638,-0.24566436,0.38525316,-0.05290276,-3.4199998,40.079997999999996,-30.359999
1554882919316,-3.2179053,-0.038308397,8.887547999999999,-0.21389936,0.2123783,0.0008533788000000001,-2.8799999,40.44,-30.06
1554882919336,-3.562681,-0.18914771,8.722342999999999,-0.098445825,0.046833817,0.028342316,-3.06,40.44,-29.519999
1554882919357,-3.7638,-0.18435916,8.854028999999999,0.043274913,-0.07228491,0.0197902,-3.54,40.14,-29.099998
1554882919376,-3.6464806000000003,-0.16281068,8.906702000000001,0.13062865,-0.15902777,0.024677123999999998,-3.36,40.44,-29.519999
1554882919397,-3.5387383000000003,-0.08619389,8.913885,0.2350866,-0.294029,0.04055962,-2.7,40.5,-28.8
1554882919416,-3.493247,-0.043096945,8.93304,0.30167094,-0.3990978,0.060107306,-2.7,40.5,-29.16
1554882919437,-3.4022646,0.06943397,9.158101,0.33465759999999994,-0.46018434,0.08087672,-2.3999999,38.76,-29.22
1554882919456,-3.2179053,0.6105401,9.5483675,0.23753005,-0.29830506,0.06743769,-2.1,38.64,-28.5
1554882919477,-3.3256476000000004,1.5586729,9.751882,-0.08073073,0.10242255,-0.01869431,-3.72,39.36,-30.179997999999998
1554882919496,-3.5746522000000005,1.2593886,9.464568,-0.23527963,0.38891837,-0.06695267,-4.02,39.84,-29.939999
1554882919516,-3.2705792999999996,0.39266106,9.100638,-0.197406,0.38525316,-0.056567955999999996,-4.08,39.719997,-30.06
1554882919536,-2.7031362,0.28013015,8.964165,-0.14914764,0.19466321,-0.0046444084,-4.14,39.48,-29.64
1554882919556,-3.0383348,0.11971374,8.863605499999998,-0.078287266,-0.03563299,0.03017491,-3.48,39.66,-30.06
1554882919576,-3.5531040000000003,0.4070267,9.09585,-0.040413626,-0.030135205,-0.0015900823000000001,-3.36,39.239998,-30.119999
1554882919596,-3.7733772000000005,0.5506831999999999,9.335278,-0.063626505,0.11097467,-0.04435065,-3.48,39.239998,-30.119999
1554882919617,-3.6440864,0.41181526,9.253872,-0.09416976,0.18244591,-0.060233145999999994,-3.0,39.84,-30.0
1554882919636,-3.6608462,0.102953814,9.086273,-0.10638707,0.17755897,-0.07611564,-3.54,39.719997,-30.3
1554882919657,-3.6105663999999997,-0.15083931,9.04557,-0.10333274,0.14273965,-0.0645092,-3.06,39.239998,-30.48
1554882919676,-3.5674694,-0.17957062,8.988108,-0.05751785,0.06821410000000001,-0.022970365,-2.76,39.96,-30.48
1554882919697,-3.5866237,-0.1699935,8.844451,0.028614148,-0.055791546,0.006962031600000001,-3.6,40.559998,-29.88
1554882919717,-3.5890178999999995,-0.052674048,8.827691,0.09153327,-0.13886921,0.013681549,-3.6,40.5,-29.58
1554882919736,-3.5052182999999997,-0.007182824399999999,8.952193,0.16544797,-0.21583824,0.021622797000000003,-3.4199998,40.26,-29.88
1554882919757,-3.4094474000000003,0.047885496,9.040782,0.24302785,-0.32579398,0.051555194000000006,-3.12,39.96,-30.24
1554882919776,-3.2825508,0.08140534,9.081485,0.3126665,-0.43758234,0.09126144,-3.06,40.26,-30.24
1554882919796,-3.1580484,0.30167863,9.325700999999999,0.28884274,-0.39543262,0.08576365,-2.58,40.14,-30.119999
1554882919817,-3.1795970000000002,1.5562786,10.108628,-0.0043725735,-0.033800397,-0.0009792169999999999,-3.3,39.84,-31.14
1554882919836,-3.3112822,1.6855695,9.809344,-0.2591034,0.33943826,-0.030911612999999998,-4.02,40.079997999999996,-31.14
1554882919857,-3.849994,0.409421,9.194015499999999,-0.31591386,0.5605715,-0.06573094,-2.9399998,39.66,-29.22
1554882919876,-3.1293173,0.15802214,8.865999,-0.23222531,0.43473324,-0.0364094,-2.1599998,39.18,-28.439999
1554882919897,-2.892284,-0.011971374,8.8085375,-0.15464541,0.034005646,0.07415721,-2.6399999,39.3,-30.779999
1554882919916,-3.5339496,-0.05027977,8.722342999999999,-0.03919189,-0.13276055,0.081487596,-3.3,39.719997,-30.66
1554882919936,-3.7685885000000003,0.17717634,9.064724,0.06770953,-0.09855211,0.031396642,-2.8799999,39.66,-28.74
1554882919956,-3.6560576,0.21069619,9.141341,0.08481375,-0.07472837,0.0008533788000000001,-2.6399999,38.94,-27.779999
1554882919976,-3.529161,0.23942748,9.117398,0.09214413,-0.08694567,-0.01991604,-3.06,39.18,-27.96
1554882919997,-3.6009892999999997,0.23224466,9.182044,0.056103084000000004,-0.07167404,-0.03274421,-3.84,39.3,-30.24
1554882920016,-3.4812756,0.2466103,9.261055,0.021283767999999998,-0.014252707,-0.014418252,-4.38,39.48,-30.179997999999998
1554882920036,-3.4022646,0.1699935,9.172467,0.011509923,-0.019139629,0.01856847,-4.3199997,39.6,-30.179997999999998
1554882920056,-3.4525442,0.12210801,8.990502000000001,0.04388578,-0.07045231,0.024677123999999998,-3.3,39.78,-30.84
1554882920076,-3.4142358,0.1699935,9.093455,0.08114856,-0.107715085,0.031396642,-3.24,40.14,-30.179997999999998
1554882920096,-3.2993107000000004,0.25618739999999995,9.165284,0.104361445,-0.1425344,0.038116157000000005,-3.54,39.78,-29.82
1554882920117,-3.2394537999999997,0.57223165,9.244295,0.06404433400000001,-0.09855211,0.016735873999999998,-3.48,39.54,-30.119999
1554882920136,-3.4046587999999995,0.9217958,9.466963,-0.026974589,0.045612085999999996,-0.015029117,-3.1799998,39.96,-30.42
1554882920156,-3.3735332000000002,0.92658436,9.423865,-0.13998467,0.23620205,-0.052291896,-3.06,40.14,-30.599998
1554882920177,-3.3950818,0.5698373999999999,9.29218,-0.21817541,0.34921214,-0.06939612,-3.12,39.42,-29.88
1554882920197,-3.3400133000000003,0.28491869999999997,9.158101,-0.22856012,0.31805798,-0.061454877000000005,-3.06,39.0,-30.24
1554882920216,-3.4860642,0.031125572,8.952193,-0.18579954,0.21176742,-0.039463725,-2.6399999,39.18,-30.539998999999998
1554882920236,-3.675212,-0.16281068,8.794171,-0.08745025,0.0981465,-0.020526905,-3.06,39.12,-30.24
1554882920256,-3.6440864,-0.21548474,8.794171,0.01578598,-0.021583091000000002,-0.0046444084,-3.48,39.84,-30.179997999999998
1554882920276,-3.581835,-0.23463893,8.880365,0.1068049,-0.1461996,0.006962031600000001,-2.28,40.62,-28.199999
1554882920296,-3.5650752,-0.16281068,8.968952999999999,0.18499565,-0.24577063,0.020401066000000002,-2.1599998,40.26,-28.92
1554882920317,-3.5315554,-0.03351985,9.028810499999999,0.25341257,-0.35145032,0.04483568,-3.12,40.32,-30.539998999999998
1554882920336,-3.407053,-0.035914123,9.021627,0.32366204,-0.4430800999999999,0.08270932,-2.82,40.26,-29.699999
1554882920357,-3.2610023,0.13886794,9.289786,0.31327733,-0.41070426,0.0900397,-3.12,39.48,-29.46
1554882920376,-3.1963567999999998,1.2091087999999999,9.785401,0.10375057,-0.15169738,0.021622797000000003,-2.8799999,39.059998,-29.34
1554882920396,-3.3352248999999996,1.6520496999999998,9.703996,-0.17480397,0.22459559,-0.013196521000000001,-3.48,39.48,-29.939999
1554882920417,-3.7207031,0.69912827,9.28021,-0.2591034,0.45611352,-0.04923757,-4.5,39.96,-30.779999
1554882920437,-3.0886145000000003,0.28252444,8.964165,-0.1851887,0.34676865,-0.01869431,-3.72,39.84,-30.66
1554882920456,-2.6839821,0.22745611,8.923461999999999,-0.12837821,0.072490156,0.043613944,-3.1799998,39.84,-30.9
1554882920477,-3.3639562000000005,0.17717634,8.966559,-0.07401121,-0.062511064,0.039337892,-3.1799998,39.66,-30.359999
1554882920496,-3.7638,0.55307746,9.191621000000001,-0.05507439,0.05172074,-0.029079017999999998,-3.3,39.96,-30.72
1554882920516,-3.7326744,0.47167215,9.289786,-0.07156775,0.16778514,-0.05107017,-2.9399998,39.899998,-30.84
1554882920537,-3.6177492,0.21069619,9.122187,-0.077065535,0.16228735,-0.06328747400000001,-2.58,39.3,-30.66
1554882920556,-3.5962007000000007,0.011971374,8.968952999999999,-0.08928285,0.14212879999999997,-0.07611564,-2.7,39.12,-30.42
1554882920578,-3.6177492,-0.10774237,9.059936,-0.07034602,0.098757364,-0.051681034,-1.92,40.02,-28.859999
1554882920597,-3.632115,-0.11013664,9.004868,-0.020865934,0.02850786,-0.022970365,-2.28,40.379996999999996,-29.039998999999998
1554882920616,-3.6392976999999997,-0.05506832,8.856422,0.043274913,-0.056402408,-0.0083096,-2.82,40.62,-29.039998999999998
1554882920637,-3.5602864999999997,0.0047885496,8.887547999999999,0.104361445,-0.12481932,-0.0070878695999999995,-3.6,40.32,-29.58
1554882920656,-3.476487,0.05027977,9.012051,0.1526198,-0.1883493,0.0051294356,-3.1799998,39.84,-30.48
1554882920676,-3.3615617999999996,0.05506832,9.081485,0.21737151,-0.29647243,0.03261837,-3.12,39.66,-30.359999
1554882920696,-3.2705792999999996,0.08858817,9.021627,0.287621,-0.40337387,0.071713746,-3.84,39.36,-29.82
1554882920716,-3.2370596000000003,0.15562786,9.213169,0.3035035,-0.40215212,0.07904412599999999,-3.48,39.96,-30.179997999999998
1554882920737,-3.1245286,1.1372806,9.833286,0.11963307,-0.20178835,0.023455392999999998,-3.36,40.62,-30.48
1554882920756,-3.2442424,1.7166951000000001,9.933846,-0.197406,0.22276300000000002,-0.016861713,-4.2599998,39.6,-30.84
1554882920777,-3.7135203000000003,0.8236305,9.311335,-0.32018992,0.5245305,-0.05840055,-3.78,39.6,-30.84
1554882920796,-3.347196,0.23703320000000003,9.059936,-0.26337942,0.4829916,-0.05595709,-3.54,40.379996999999996,-30.359999
1554882920816,-2.832427,0.07901107,8.978531,-0.23466878,0.24414329,0.0197902,-3.48,40.44,-30.179997999999998
1554882920836,-3.3687446000000003,-0.076616794,8.779805999999999,-0.14670418,0.029118724,0.056442115,-2.7,39.899998,-30.48
1554882920856,-3.9242165,0.09337672,8.885154,-0.048965737,0.018734014,0.006962031600000001,-2.8799999,39.719997,-30.539998999999998
1554882920879,-3.806897,0.043096945,9.007261999999999,0.0206729,0.0034623842,-0.012585657,-3.4199998,40.32,-29.88
1554882920896,-3.5650752,0.0023942748,8.909097000000001,0.09214413,-0.09671951,-0.013196521000000001,-3.12,39.78,-29.64
1554882920916,-3.5866237,-0.0047885496,8.956982,0.13246125,-0.17491026,-0.011974791,-2.52,39.12,-29.82
1554882920936,-3.5746522000000005,0.035914123,9.14613,0.1611719,-0.22011429,0.003907705,-2.82,39.059998,-29.099998
1554882920958,-3.4429672,0.05027977,9.134158,0.20209989,-0.28242254,0.050333462999999995,-3.3,39.3,-28.8
1554882920976,-3.3208592000000006,0.08619389,9.059936,0.242417,-0.32335052,0.07660067,-3.54,39.719997,-29.34
1554882920996,-3.2298767999999995,0.5961744000000001,9.325700999999999,0.16911316,-0.2445489,0.039948753999999996,-3.8999998999999996,39.36,-28.98
1554882921017,-3.2610023,1.3814965,9.797373,-0.04835487,0.055996794,-0.0364094,-3.72,39.78,-29.519999
1554882921036,-3.3567734,1.2067145000000001,9.524425500000001,-0.23527963,0.3821988,-0.07428304,-3.0,40.02,-30.179997999999998
1554882921056,-3.5578922999999993,0.34477556,9.213169,-0.25299475,0.47505036,-0.095052466,-3.6599998,39.36,-30.06
1554882921077,-3.1029801,0.15083931,9.055147,-0.22122973,0.32966444,-0.05351363,-3.84,39.6,-30.359999
1554882921096,-3.189174,-0.12450229,8.796566,-0.14853677,0.082264,0.014903278999999998,-3.54,40.02,-30.3
1554882921116,-3.6967604,-0.16520496,8.779805999999999,-0.02269853,-0.04051991,0.013681549,-2.6399999,39.84,-29.519999
1554882921136,-3.6895776,-0.007182824399999999,8.956982,0.07931596,-0.094886914,0.00024251349999999998,-2.3999999,40.26,-29.88
1554882921156,-3.5890178999999995,-0.071828246,8.959375999999999,0.15872845,-0.1956797,0.010627223,-3.4199998,40.559998,-30.48
1554882921176,-3.4788813999999997,-0.019154198,8.945011000000001,0.2192041,-0.28914207,0.021622797000000003,-3.3,40.2,-30.66
1554882921196,-3.4046587999999995,0.026337024,9.098245,0.265019,-0.3569481,0.043613944,-2.9399998,40.62,-30.3
1554882921217,-3.347196,0.12689656,9.313728999999999,0.25707775,-0.32518309999999995,0.06255077,-2.8799999,40.44,-29.88
1554882921236,-3.1843855,0.69673395,9.557945,0.13734816,-0.18529499,0.04483568,-2.82,39.42,-30.599998
1554882921256,-3.3232534,1.2067145000000001,9.581888000000001,-0.05507439,0.06760323,0.0057403008,-3.24,39.42,-31.56
1554882921276,-3.4238129,0.9289786,9.294575,-0.14120638,0.24108896,-0.011363926000000002,-3.4199998,39.899998,-31.38
1554882921296,-3.4429672,0.6464542,9.189227,-0.13631947,0.25391713,-0.012585657,-3.6599998,39.96,-30.9
1554882921316,-2.8108785,0.48124924,9.091061999999999,-0.078287266,0.072490156,0.025898853,-2.7,39.66,-30.599998
1554882921336,-3.1987512000000002,0.45730647,9.119793,-0.054463524000000006,-0.020972226,0.0197902,-2.46,39.66,-30.9
1554882921357,-3.476487,0.679974,9.244295,-0.06729169,0.078598805,-0.030911612999999998,-3.36,39.36,-30.9
1554882921376,-3.5698638,0.5889916000000001,9.304152,-0.101500146,0.19099802,-0.048015844,-3.6,39.42,-30.48
1554882921396,-3.5435266000000003,0.28491869999999997,9.100638,-0.11249572,0.17145033,-0.04068546,-3.6599998,40.2,-30.72
1554882921417,-3.5435266000000003,0.011971374,9.012051,-0.09233717,0.1103638,-0.035187672999999996,-3.1799998,40.379996999999996,-30.42
1554882921436,-3.5363437999999996,-0.016759925,9.000079,-0.06118304,0.06454891,-0.023581231,-2.9399998,40.2,-30.3
1554882921456,-3.5698638,-0.011971374,9.024022,-0.01781161,0.024231803,-0.022970365,-2.6399999,40.26,-30.9
1554882921477,-3.5052182999999997,0.04070267,9.050359,0.028003285,-0.010587517,-0.026024692000000002,-2.9399998,40.02,-31.08
1554882921496,-3.4573328,0.105348095,9.071907000000001,0.059157412,-0.044185105999999995,-0.024192097000000003,-3.24,40.379996999999996,-30.779999
1554882921516,-3.3926873,0.16041641,9.117398,0.08359202,-0.09,-0.0083096,-3.36,40.379996999999996,-30.24
1554882921536,-3.3807160000000005,0.19872479999999998,9.064724,0.11657874,-0.15536258,0.013070683999999999,-3.72,40.32,-29.88
1554882921557,-3.3352248999999996,0.21309046,9.091061999999999,0.14712201,-0.20911872,0.027120585,-3.54,40.32,-30.06
1554882921576,-3.3064934999999998,0.36392978,9.167678,0.16056104,-0.22744468,0.038727023,-3.36,39.899998,-30.72
1554882921596,-3.2538195,0.8475733,9.474146000000001,0.08603548,-0.14314528,0.015514145,-3.6,39.84,-30.599998
1554882921617,-3.3064934999999998,1.1779832000000001,9.622589999999999,-0.088671975,0.10914207,-0.02113777,-3.72,40.2,-30.359999
1554882921636,-3.4357843,0.8475733,9.364009,-0.21817541,0.34371433,-0.054124492999999996,-4.2599998,40.079997999999996,-29.939999
1554882921657,-3.5004299,0.36871833,9.251478,-0.25604904,0.41885075,-0.066341795,-4.14,39.719997,-30.359999
1554882921676,-3.347196,0.09337672,9.079089999999999,-0.24199916,0.29179078,-0.032133345,-3.3,40.44,-31.019999
1554882921698,-3.354379,-0.11492519,8.842057,-0.17052792,0.12991148,0.013681549,-3.3,40.26,-30.779999
1554882921716,-3.6033835,-0.19393626,8.775017,-0.027585452000000003,-0.016696168,0.023455392999999998,-3.0,39.54,-31.199999
1554882921736,-3.6129606,-0.16041641,8.842057,0.07015298,-0.10954768,0.021622797000000003,-3.06,40.02,-30.48
1554882921756,-3.5339496,-0.105348095,8.937828,0.16605882,-0.21767084,0.02895318,-3.48,40.44,-29.58
1554882921776,-3.4980354,0.009577099,9.055147,0.23875180000000001,-0.31724188,0.039948753999999996,-3.1799998,40.14,-30.3
1554882921797,-3.4357843,0.09337672,9.057542,0.2998383,-0.4186455,0.06988115,-3.3,40.079997999999996,-30.9
1554882921816,-3.2633965,0.09577099,9.138947,0.3316033,-0.4168129,0.093704894,-4.14,39.84,-31.019999
1554882921837,-3.1748084999999997,0.51955765,9.5794935,0.20209989,-0.25310102,0.06255077,-3.54,39.18,-29.88
1554882921857,-3.1628369999999997,1.7573976999999998,10.053560000000001,-0.0935589,0.087150924,-0.012585657,-2.8799999,39.18,-29.88
1554882921876,-3.4597269999999996,1.3383996,9.354432000000001,-0.29209012,0.41213122,-0.057789683,-4.02,39.42,-31.08
1554882921906,-3.0359404,0.20830189999999998,9.009656,-0.19129734,0.36387286,-0.038241997,-4.08,39.059998,-30.72
1554882921917,-2.7845416000000003,0.19393626,9.026416000000001,-0.16930619,0.21665436,0.0032968397999999996,-3.36,39.36,-30.72
1554882921937,-3.0239692000000002,0.011971374,8.818114,-0.10516534,-0.027080877000000003,0.051555194000000006,-2.52,39.54,-29.88
1554882921956,-3.74704,0.28491869999999997,8.947405,-0.022087665,-0.04235251,-0.0009792169999999999,-2.7,39.0,-29.16
1554882921976,-3.7757714,0.39266106,9.220352,-0.000707382,0.045612085999999996,-0.032133345,-2.82,39.3,-29.46
1554882921996,-3.545921,0.35435268,9.220352,-0.009259495999999999,0.056607664,-0.04068546,-2.82,39.96,-28.98
1554882922016,-3.5339496,0.13168511,9.091061999999999,-0.018422473,0.054775067000000004,-0.054124492999999996,-2.9399998,40.559998,-30.24
1554882922036,-3.5650752,0.052674048,9.131764,-0.03308324,0.07493362,-0.051681034,-3.0,40.62,-30.599998
1554882922056,-3.4860642,0.0,9.136553,-0.028196317999999998,0.048055544000000006,-0.021748636000000002,-2.3999999,40.2,-29.039998999999998
1554882922076,-3.4884584000000003,-0.038308397,9.000079,0.013953384,-0.017307034,0.0008533788000000001,-2.52,39.719997,-29.58
1554882922096,-3.4812756,0.038308397,8.945011000000001,0.07748337,-0.09855211,0.0051294356,-2.76,39.84,-30.779999
1554882922119,-3.4238129,0.083799616,9.024022,0.12879606,-0.16635816,0.01612501,-2.6399999,40.2,-30.599998
1554882922137,-3.3304362000000003,0.105348095,9.093455,0.19538036,-0.26348573,0.035672699999999995,-3.6599998,40.02,-29.939999
1554882922156,-3.2490308,0.27055305,9.103033,0.2405844,-0.32273966,0.061939903,-4.3199997,39.3,-29.64
1554882922177,-3.1652312,0.71828246,9.421472,0.16605882,-0.23782939,0.037505295,-3.54,39.42,-29.76
1554882922196,-3.1772027,1.3192455,9.91948,-0.03674843,0.031562187,-0.006477004000000001,-3.0,39.3,-28.98
1554882922217,-3.4429672,1.0151725,9.486116,-0.26337942,0.40480083,-0.047404975,-3.0,39.3,-27.9
1554882922236,-3.6464806000000003,0.2657645,9.155706,-0.27193156,0.46771997,-0.05534622,-3.12,39.78,-27.539998999999998
1554882922257,-3.1819912999999995,0.06464542,8.937828,-0.21389936,0.28323868,0.0032968397999999996,-2.58,39.78,-27.84
1554882922276,-3.2083282000000004,-0.18196489,8.73192,-0.13265428,0.04133603,0.06927028,-2.1599998,39.899998,-29.46
1554882922296,-3.6440864,-0.1340794,8.760652,-0.009870361,-0.104660764,0.060718175,-2.7,39.84,-29.88
1554882922317,-3.675212,0.11492519,9.064724,0.0890898,-0.10099558,0.01612501,-3.06,40.62,-30.179997999999998
1554882922336,-3.5554981,0.25618739999999995,9.153313,0.101917975,-0.09366519,-0.008920466,-2.6399999,40.32,-30.96
1554882922356,-3.512401,0.27773590000000004,9.172467,0.09703106,-0.094276056,-0.02113777,-3.06,39.0,-30.42
1554882922376,-3.6033835,0.3328042,9.177256,0.06709866,-0.081447884,-0.02480296,-3.12,39.239998,-30.42
1554882922396,-3.397476,0.29689008,9.158101,0.040831453999999996,-0.051515486,-0.0046444084,-3.0,39.719997,-30.599998
1554882922416,-3.4142358,0.20590763,9.172467,0.035333667,-0.062511064,0.01612501,-3.4199998,39.78,-30.66
1554882922437,-3.440573,0.21787901,9.170073,0.06770953,-0.094276056,0.02895318,-3.3,39.66,-30.9
1554882922456,-3.3615617999999996,0.25379312,9.076694999999999,0.09764192,-0.12543018,0.035061833,-3.3,39.78,-30.779999
1554882922477,-3.318465,0.30407290000000003,9.105427,0.10008538,-0.12848452,0.03689443,-2.7,40.2,-29.699999
1554882922496,-3.3064934999999998,0.818842,9.500483000000001,-0.03430497,0.03644911,-0.015639983,-2.3999999,39.96,-29.099998
1554882922516,-3.3448019999999996,0.8284190999999999,9.443019999999999,-0.14853677,0.25513887,-0.05290276,-3.12,39.48,-29.76
1554882922537,-3.4573328,0.47406640000000005,9.28021,-0.21695368,0.36570546,-0.07611564,-2.82,40.2,-29.519999
1554882922556,-3.3759273999999997,0.19633053,9.055147,-0.22489493,0.29851028,-0.057178818,-2.52,39.719997,-29.46
1554882922576,-3.4908525999999998,-0.102953814,8.820508,-0.15403455,0.14396140000000002,-0.013196521000000001,-3.1799998,38.94,-28.98
1554882922596,-3.632115,-0.23224466,8.73192,-0.03919189,0.012014498,0.011238088,-3.36,39.12,-29.4
1554882922616,-3.6009892999999997,-0.17478207,8.813326,0.07992683,-0.12237585,0.025898853,-4.02,39.899998,-29.76
1554882922636,-3.5387383000000003,-0.11492519,8.92825,0.16544797,-0.22622295,0.03689443,-3.72,39.84,-29.699999
1554882922656,-3.4788813999999997,0.0023942748,9.038387,0.24852563,-0.34717426,0.056442115,-3.0,39.0,-30.48
1554882922676,-3.4022646,0.031125572,9.076694999999999,0.30472526,-0.43147367,0.0900397,-3.72,38.94,-30.48
1554882922696,-3.2897336000000004,0.19154198,9.296969,0.29556227,-0.39421088,0.09553749,-3.3,39.42,-30.3
1554882922716,-3.213117,1.175589,9.814133,0.082370296,-0.1339823,0.024677123999999998,-3.36,39.48,-31.199999
1554882922736,-3.2705792999999996,1.6831752,9.804555,-0.21939714,0.26552355,-0.024192097000000003,-3.78,39.6,-31.199999
1554882922757,-3.7087317000000004,0.7326481,9.332883,-0.30614,0.49276546,-0.06267661,-4.14,39.78,-30.599998
1554882922776,-3.1963567999999998,0.28731298,8.968952999999999,-0.23161444,0.4231268,-0.044961512,-3.54,38.76,-30.24
1554882922796,-2.7342618,0.20590763,8.971347999999999,-0.19435167,0.18733282,0.020401066000000002,-3.06,38.399998,-29.64
1554882922816,-3.3783216,-0.021548472000000003,8.825297,-0.1094414,-0.011809247,0.038116157000000005,-3.06,39.239998,-29.519999
1554882922836,-3.8619652,0.17478207,9.012051,-0.023309397000000003,0.010181902,-0.012585657,-2.46,39.719997,-30.179997999999998
1554882922857,-3.7422516000000003,0.15802214,9.105427,0.020062036999999998,0.017512286000000002,-0.021748636000000002,-2.6399999,40.02,-30.539998999999998
1554882922876,-3.5674694,0.05027977,9.016839,0.049994435,-0.04051991,-0.022359502000000003,-3.0,39.54,-29.88
1554882922897,-3.5531040000000003,-0.043096945,9.012051,0.0664878,-0.094276056,-0.023581231,-3.6,39.36,-30.179997999999998
1554882922916,-3.5219781,-0.0023942748,9.143736,0.08175943,-0.10649336,-0.0058661387,-3.72,39.66,-30.539998999999998
1554882922937,-3.4094474000000003,0.08619389,9.1628895,0.11108095,-0.15658431,0.025898853,-2.9399998,39.3,-29.88
1554882922956,-3.3328303999999997,0.12929083,9.064724,0.14467855,-0.20972958,0.050333462999999995,-2.76,39.0,-29.099998
1554882922976,-3.265791,0.21069619,9.12937,0.17400007,-0.22988814,0.055220387999999995,-3.24,39.3,-28.38
1554882922996,-3.2466366,0.5698373999999999,9.426260000000001,0.11841134,-0.17002335,0.038116157000000005,-2.76,39.6,-27.84
1554882923016,-3.3902931000000005,1.1061549,9.636956,-0.03858103,0.031562187,0.006962031600000001,-2.82,39.84,-29.099998
1554882923036,-3.46691,1.1947431999999998,9.507666,-0.22794925,0.34004915,-0.039463725,-4.5,40.14,-30.84
1554882923056,-3.5315554,0.6273,9.399923,-0.32263336,0.53124994,-0.09321987,-3.8999998999999996,39.84,-31.14
1554882923077,-3.3112822,0.27055305,9.261055,-0.35806355,0.5624041,-0.11093496,-3.4199998,39.899998,-30.84
1554882923096,-3.3352248999999996,-0.105348095,8.937828,-0.32935290000000006,0.4463397,-0.09566333,-3.72,39.78,-30.3
1554882923117,-3.605778,-0.34956414,8.743892,-0.20901243,0.2807952,-0.06939612,-3.48,39.96,-29.699999
1554882923136,-3.7829542000000003,-0.54350036,8.595447,-0.04346795,0.0804314,-0.018083444,-3.1799998,40.559998,-29.88
1554882923156,-3.6919718,-0.52674043,8.492493,0.14467855,-0.18529499,0.021011932,-2.76,40.379996999999996,-30.24
1554882923177,-3.7183087,-0.30646718,8.674458,0.2686842,-0.34534168,0.037505295,-2.7,39.719997,-30.0
1554882923196,-3.7590114999999997,-0.11971374,8.865999,0.35848138,-0.4540757,0.05460952,-2.46,40.92,-29.519999
1554882923216,-3.6704233,0.045491222000000005,8.995291,0.46599364,-0.6226745,0.09798095,-2.7,41.28,-29.4
1554882923236,-3.4525442,0.098165266,9.043175999999999,0.5289128000000001,-0.7173586,0.134022,-3.24,40.14,-29.82
1554882923256,-3.1460772,0.9960183000000001,9.763853,0.29922745,-0.40703908,0.050333462999999995,-3.4199998,39.54,-29.88
1554882923277,-2.9329867000000003,2.604971,10.709591,-0.18152349999999998,0.1928306,-0.030911612999999998,-3.9599998,39.18,-30.42
1554882923296,-3.6656345999999997,1.515576,9.440625,-0.44297382,0.630821,-0.08466776,-4.2,38.76,-30.3
1554882923317,-3.6201434,-0.023942748,9.002473,-0.31163779999999996,0.6186037,-0.08588949,-4.08,37.98,-30.119999
1554882923336,-2.3990633,0.08858817,8.889942,-0.22367321,0.29423425,0.023455392999999998,-4.02,38.219997,-30.24
1554882923356,-2.5858168999999998,-0.23463893,8.621783,-0.11066312,-0.14070182,0.12669162,-3.54,38.94,-30.3
1554882923376,-3.6919718,0.102953814,8.844451,0.024948957999999997,-0.18590584,0.058274712,-3.12,39.48,-30.599998
1554882923396,-3.840417,0.30886146,9.316123,0.07931596,-0.05090462,-0.0028118126,-2.8799999,39.84,-30.539998999999998
1554882923417,-3.5411325,0.4189981,9.273026,0.045718376,0.005905845,-0.027857289,-2.9399998,40.2,-30.179997999999998
1554882923436,-3.6033835,0.3423813,9.122187,0.012120789,0.010181902,-0.056567955999999996,-2.8799999,40.559998,-30.359999
1554882923457,-3.6895776,0.28013015,9.1628895,-0.034915835,0.07615535,-0.061454877000000005,-3.0,40.379996999999996,-30.9
1554882923476,-3.5650752,0.052674048,9.215564,-0.05629612,0.08654005,-0.013807386999999999,-3.12,40.02,-30.42
1554882923497,-3.5698638,-0.057462595,8.945011000000001,-0.02269853,-0.0008136725,0.023455392999999998,-2.52,39.899998,-30.0
1554882923516,-3.5698638,0.016759925,8.803747999999999,0.053659625,-0.08083702,0.016735873999999998,-2.8799999,39.36,-29.82
1554882923537,-3.4357843,0.076616794,8.945011000000001,0.10924836,-0.14558873,0.014903278999999998,-3.48,39.42,-29.82
1554882923556,-3.3352248999999996,0.11013664,9.170073,0.15995018,-0.21400565,0.023455392999999998,-3.6,40.02,-29.88
1554882923577,-3.189174,0.46209505,9.189227,0.17949787,-0.25065756,0.025898853,-3.54,40.559998,-30.599998
1554882923596,-3.2274826,0.9481328000000001,9.553157,0.049994435,-0.07656097,-0.016861713,-3.0,40.5,-31.14
1554882923617,-3.3759273999999997,1.0247495999999998,9.624985,-0.117382646,0.20565878,-0.057789683,-2.58,39.719997,-30.72
1554882923636,-3.5171897000000003,0.5770202,9.385557,-0.20901243,0.36387286,-0.0803917,-2.46,39.78,-30.96
1554882923657,-3.4094474000000003,0.22506183,9.059936,-0.21206675,0.32233405,-0.05473536,-3.4199998,40.379996999999996,-30.96
1554882923676,-3.3448019999999996,-0.045491222000000005,8.868394,-0.16441926,0.16595255,-0.005255274,-3.3,40.26,-30.84
1554882923696,-3.502824,-0.17478207,8.705584,-0.05873958,-0.0038679990000000004,0.02528799,-2.76,39.719997,-30.9
1554882923717,-3.5842294999999997,-0.04070267,8.92825,0.054270487,-0.088778265,0.014903278999999998,-2.76,39.42,-29.88
1554882923736,-3.510007,0.07901107,9.122187,0.10924836,-0.13703662,0.011238088,-2.76,39.899998,-29.46
1554882923757,-3.46691,0.16041641,9.14613,0.13185038,-0.1547517,0.013681549,-2.9399998,40.62,-30.179997999999998
1554882923776,-3.4573328,0.27294734,9.136553,0.12390912,-0.15597345,0.016735873999999998,-2.76,40.32,-29.939999
1554882923796,-3.4286015,0.2681588,9.232324,0.10558317,-0.15597345,0.033229236,-3.12,39.719997,-30.3
1554882923817,-3.3040992999999994,0.25139886,9.184438,0.10619404,-0.16269296,0.056442115,-4.02,40.079997999999996,-30.66
1554882923836,-3.2825508,0.27773590000000004,9.232324,0.09764192,-0.1425344,0.06499423,-4.2,39.84,-30.72
1554882923856,-3.3352248999999996,0.5913859,9.368797,0.0365554,-0.06861971,0.035672699999999995,-4.02,39.12,-31.439999
1554882923876,-3.4286015,0.8667275,9.411894,-0.04346795,0.060272854,0.0008533788000000001,-3.78,39.719997,-31.019999
1554882923896,-3.3591676,0.91461295,9.330489,-0.13876292,0.23681292,-0.037020266,-3.4199998,39.84,-30.42
1554882923916,-3.3735332000000002,0.5889916000000001,9.225141,-0.19801687,0.32477748,-0.05595709,-3.6599998,39.36,-30.119999
1554882923937,-3.3591676,0.31604427,9.172467,-0.21084504,0.27835175,-0.05107017,-2.9399998,39.36,-29.16
1554882923956,-3.502824,0.10774237,8.9976845,-0.17785831,0.20688051,-0.04312892,-3.0,39.54,-28.26
1554882923976,-3.6871831,-0.083799616,8.820508,-0.07217862,0.10425515,-0.034576802999999996,-3.9599998,40.62,-27.779999
1554882923996,-3.6273263,-0.16281068,8.786988000000001,0.028003285,-0.025859147000000002,-0.011363926000000002,-3.6599998,40.379996999999996,-29.099998
1554882924016,-3.5650752,-0.18914771,8.796566,0.11291355,-0.15902777,0.0020751092,-3.3,39.66,-30.119999
1554882924036,-3.5243726000000004,-0.062251142999999995,8.990502000000001,0.19965641,-0.27020523,0.011848953999999998,-3.72,39.3,-29.64
1554882924056,-3.469304,0.083799616,9.119793,0.2546343,-0.33129176,0.026509718999999998,-3.84,39.42,-29.88
1554882924076,-3.3495904999999997,0.14126222,9.148524,0.29372966,-0.38077185,0.051555194000000006,-3.3,39.96,-30.119999
1554882924097,-3.2370596000000003,0.29928434,9.378374,0.23203227,-0.29463986,0.04850087,-3.6,39.54,-30.0
1554882924116,-3.2035396,1.1612233,9.826103999999999,0.05793568,-0.08572394,0.008183761500000001,-3.4199998,39.42,-30.24
1554882924137,-3.3328303999999997,1.2593886,9.524425500000001,-0.15036938,0.20871309999999998,-0.015029117,-3.0,39.48,-30.3
1554882924156,-3.5435266000000003,0.39505535,9.165284,-0.17113878,0.29728857,-0.011363926000000002,-3.4199998,39.899998,-30.0
1554882924176,-2.9904492,0.25139886,8.940222,-0.101500146,0.15740041,0.028342316,-4.02,40.44,-30.48
1554882924196,-2.9066495999999997,0.17957062,8.952193,-0.037359294,-0.097330384,0.07843327,-3.48,40.02,-30.72
1554882924216,-3.3519847,0.39744959999999996,9.143736,0.029225016,-0.13276055,0.058885578,-2.9399998,39.059998,-30.359999
1554882924237,-3.512401,0.505192,9.29218,0.032279342,-0.006922325,0.026509718999999998,-3.0,38.879996999999996,-30.179997999999998
1554882924257,-3.469304,0.42378664,9.337671,-0.017200741999999998,0.055996794,0.014292413,-3.36,39.12,-30.24
1554882924276,-3.3950818,0.40463245,9.182044,-0.05079833,0.040725164,0.008183761500000001,-3.4199998,39.36,-30.9
1554882924297,-3.397476,0.29449580000000003,9.143736,-0.060572173,0.056607664,0.0026859746,-3.48,39.84,-30.42
1554882924316,-3.3926873,0.17717634,9.160496,-0.04407881599999999,0.071268424,0.0057403008,-3.48,39.96,-29.82
1554882924336,-3.397476,0.20351335,9.081485,-0.017200741999999998,0.033394784,0.0051294356,-3.0,39.0,-30.0
1554882924356,-3.4357843,0.23703320000000003,8.990502000000001,0.0066230013,-0.010587517,0.0057403008,-2.7,39.0,-30.0
1554882924376,-3.4812756,0.28013015,9.100638,0.026781553,-0.044185105999999995,0.0026859746,-2.82,39.899998,-30.119999
1554882924396,-3.4525442,0.41181526,9.191621000000001,0.033501074,-0.038076452999999996,0.001464244,-3.3,39.84,-30.119999
1554882924417,-3.4357843,0.531529,9.229928999999998,0.007844731,0.012014498,-0.011974791,-3.4199998,39.42,-30.599998
1554882924436,-3.3926873,0.48124924,9.222747,-0.021476801,0.05355333,-0.027246421,-3.8999998999999996,40.079997999999996,-31.019999
1554882924457,-3.3567734,0.38547826,9.201198,-0.040413626,0.07554448,-0.032133345,-3.06,39.78,-30.72
1554882924476,-3.2562137000000004,0.26337022,9.131764,-0.03919189,0.056607664,-0.0083096,-2.82,39.48,-29.939999
1554882924497,-3.2921278,0.17717634,9.117398,-0.011092092,-0.00020280726000000002,0.003907705,-3.9599998,40.02,-30.0
1554882924516,-3.3615617999999996,0.21309046,9.131764,0.01822944,-0.03563299,0.0057403008,-4.14,39.84,-30.42
1554882924536,-3.3902931000000005,0.39266106,9.179649000000001,0.023116362999999997,-0.024026552000000003,0.003907705,-3.78,39.42,-30.42
1554882924556,-3.3783216,0.42139238,9.268238,-0.006816034,0.016901418999999997,-0.0009792169999999999,-3.6,39.36,-30.599998
1554882924576,-3.3926873,0.39984390000000003,9.28021,-0.037970163,0.060883716,-0.0028118126,-3.24,39.78,-30.599998
1554882924597,-3.3998702000000005,0.32562137,9.215564,-0.045911413,0.084096596,0.0008533788000000001,-2.58,39.96,-30.66
1554882924616,-3.3902931000000005,0.21548474,9.14613,-0.04713314,0.072490156,0.0197902,-3.4199998,39.96,-30.779999
1554882924637,-3.4549387,0.12210801,9.019233,-0.020865934,0.014457958,0.029564045,-4.44,39.78,-30.3
1554882924657,-3.4525442,0.098165266,9.009656,0.013953384,-0.033189527999999996,0.02895318,-3.12,40.26,-29.279999
1554882924677,-3.4525442,0.21787901,9.093455,0.045718376,-0.06800885,0.022844529,-2.1,40.379996999999996,-29.82
1554882924696,-3.4645156999999998,0.35674694,9.160496,0.04510751,-0.06617625,0.01612501,-2.7,39.96,-30.179997999999998
1554882924717,-3.5147953000000003,0.50040346,9.261055,0.01578598,-0.013641843,-0.0028118126,-3.6,40.02,-29.64
1554882924736,-3.493247,0.5147691,9.268238,-0.02025507,0.059051123,-0.014418252,-3.6599998,40.14,-29.699999
1554882924757,-3.4238129,0.40463245,9.119793,-0.041635353,0.094481304,-0.02480296,-2.76,39.96,-30.06
1554882924776,-3.3950818,0.26097596,9.04557,-0.028807182,0.04622295,-0.0058661387,-3.36,39.78,-30.599998
1554882924797,-3.3567734,0.15562786,9.031203999999999,0.019451171,-0.03685472,0.0051294356,-4.3199997,40.32,-31.199999
1554882924816,-3.3926873,0.25139886,9.088667,0.059768274,-0.08450221,0.0008533788000000001,-3.36,39.78,-31.08
1554882924837,-3.3998702000000005,0.55786604,9.246689,0.049994435,-0.056402408,-0.016861713,-3.24,39.78,-30.359999
1554882924856,-3.469304,0.65842557,9.364009,-0.011702957,0.02972959,-0.032133345,-3.12,40.2,-30.66
1554882924876,-3.5195839999999996,0.5602603,9.344854,-0.08073073,0.13785274,-0.048626706,-2.52,40.2,-30.48
1554882924897,-3.4860642,0.41660379999999997,9.323306,-0.1375412,0.21482176,-0.066341795,-3.12,40.2,-29.699999
1554882924916,-3.512401,0.15802214,9.091061999999999,-0.13876292,0.18000244,-0.04923757,-3.9599998,39.719997,-29.699999
1554882924937,-3.4453614000000004,-0.06464542,8.930645,-0.063626505,0.07065756,-0.013807386999999999,-4.02,39.78,-29.16
1554882924956,-3.4716985,-0.083799616,8.837268,0.021283767999999998,-0.04235251,0.0051294356,-2.9399998,39.36,-28.5
1554882924976,-3.5004299,-0.014365649,8.973742,0.088478945,-0.1339823,0.013070683999999999,-2.52,38.76,-28.019999
1554882924997,-3.493247,0.16520496,9.110215,0.12818518,-0.17307767,0.017346742,-2.82,39.54,-28.92
1554882925016,-3.4333901,0.23942748,9.150917999999999,0.14101335,-0.17979720000000002,0.022844529,-3.0,40.5,-29.939999
1554882925036,-3.4022646,0.14605077,9.138947,0.14223509,-0.1779646,0.034450967,-3.12,40.26,-29.34
1554882925057,-3.3232534,0.14126222,9.12937,0.14345682,-0.17368853,0.052166055999999995,-3.12,39.96,-30.06
1554882925076,-3.2610023,0.4764607,9.352037,0.09825279,-0.14131269,0.05949644,-3.54,40.739998,-29.58
1554882925097,-3.476487,1.0271438,9.581888000000001,-0.037359294,0.024842668,0.013681549,-3.78,40.2,-29.279999
1554882925116,-3.4812756,1.0247495999999998,9.454991,-0.15647802,0.23498031,-0.02113777,-3.6,39.3,-29.46
1554882925137,-3.4094474000000003,0.63208854,9.179649000000001,-0.19435167,0.32233405,-0.04068546,-3.6,39.66,-29.34
1554882925157,-3.1676257000000003,0.339987,9.12937,-0.19129734,0.25330627,-0.020526905,-4.08,39.54,-30.3
1554882925176,-3.2633965,0.15323359,8.964165,-0.14853677,0.13418755,-0.0058661387,-2.8799999,39.18,-29.519999
1554882925197,-3.572258,0.019154198,8.892337,-0.04407881599999999,0.05172074,-0.004033543,-2.1,39.719997,-29.16
1554882925216,-3.5602864999999997,-0.062251142999999995,8.861211,0.043274913,-0.03624386,0.0008533788000000001,-2.82,40.2,-30.0
1554882925238,-3.529161,-0.047885496,8.899519999999999,0.10558317,-0.13825835,0.006962031600000001,-3.3,40.5,-30.3
1554882925256,-3.5387383000000003,0.026337024,9.031203999999999,0.15811758,-0.21583824,0.0057403008,-3.78,40.2,-29.76
1554882925276,-3.5531040000000003,0.14126222,9.160496,0.19843470000000002,-0.2463815,0.017346742,-3.1799998,39.12,-28.619999
1554882925296,-3.493247,0.17957062,9.126975999999999,0.20820853,-0.2573771,0.039337892,-2.76,38.94,-27.84
1554882925317,-3.4429672,0.38787252,9.325700999999999,0.16178277,-0.21034046,0.04483568,-3.1799998,39.42,-27.779999
1554882925336,-3.3998702000000005,0.73743665,9.474146000000001,0.048772699999999995,-0.069841444,0.014292413,-2.82,39.6,-28.14
1554882925357,-3.4286015,0.81165916,9.354432000000001,-0.048965737,0.08898352,-0.0009792169999999999,-3.06,39.719997,-28.92
1554882925376,-3.2873392,0.6560313,9.148524,-0.08011986,0.12685716,0.0026859746,-3.4199998,39.3,-29.82
1554882925397,-3.031152,0.6201171999999999,9.110215,-0.08256332599999999,0.07737707,0.010627223,-2.58,39.12,-29.88
1554882925416,-3.1029801,0.5243462,9.189227,-0.07217862,0.038281705,0.0032968397999999996,-2.82,39.66,-30.48
1554882925436,-3.265791,0.5602603,9.26345,-0.06301564,0.08654005,-0.028468153,-3.36,39.6,-31.26
1554882925456,-3.3256476000000004,0.51716334,9.28021,-0.07278948,0.12746802,-0.034576802999999996,-3.0,39.36,-31.26
1554882925476,-3.3998702000000005,0.24900457,9.153313,-0.059350445999999994,0.07310102,-0.023581231,-2.8799999,40.2,-31.5
1554882925496,-3.45015,0.11013664,9.012051,-0.026363721,0.007127576,-0.010753061999999999,-2.8799999,40.62,-30.779999
1554882925517,-3.4836697999999995,0.05027977,8.995291,0.007844731,-0.03624386,0.0032968397999999996,-2.8799999,40.02,-30.42
1554882925536,-3.5267668,0.10055954,9.088667,0.03838799,-0.06923059,-0.004033543,-3.24,40.2,-31.019999
1554882925556,-3.5315554,0.39266106,9.153313,0.032279342,-0.046017699999999995,-0.01869431,-3.36,40.02,-30.9
1554882925576,-3.5267668,0.46688359999999995,9.27542,-0.009870361,0.02728613,-0.027246421,-3.1799998,39.719997,-30.359999
1554882925596,-3.4621215,0.30886146,9.239507000000001,-0.036137566,0.07187930000000001,-0.01991604,-1.92,40.02,-29.039998999999998
1554882925616,-3.3352248999999996,0.15323359,9.103033,-0.015979014,0.026675265,0.010627223,-1.74,40.26,-28.98
1554882925636,-3.2705792999999996,0.05985687,8.983319,0.025559824,-0.07350664,0.050333462999999995,-2.52,40.14,-30.119999
1554882925656,-3.2993107000000004,0.1340794,9.012051,0.07259645,-0.16330384,0.06804855,-3.1799998,39.84,-29.4
1554882925676,-3.318465,0.39505535,9.201198,0.09886365400000001,-0.17063421,0.043613944,-3.72,39.6,-28.74
1554882925696,-3.2921278,0.8236305,9.361614,0.039609727000000004,-0.06312193,-0.0009792169999999999,-3.72,39.18,-29.22
1554882925716,-3.4166303,1.0846065,9.605830000000001,-0.12715648,0.20443705,-0.05290276,-2.8799999,39.239998,-29.58
1554882925736,-3.512401,0.71588814,9.399923,-0.23222531,0.3669272,-0.086500354,-2.7,39.48,-29.76
1554882925757,-3.387899,0.39026679999999997,9.217958,-0.28231627,0.39075094,-0.08833294,-3.1799998,39.78,-30.48
1554882925776,-3.4429672,-0.08619389,8.92825,-0.23772310000000002,0.27163222,-0.054124492999999996,-3.24,40.14,-30.9
1554882925797,-3.6225379,-0.4070267,8.633755,-0.10516534,0.10853121,-0.011974791,-3.72,39.78,-29.939999
1554882925817,-3.5842294999999997,-0.39505535,8.597841,0.07198558,-0.123597585,0.027120585,-3.36,40.32,-28.38
1554882925836,-3.5602864999999997,-0.22506183,8.775017,0.19476949999999998,-0.29525074,0.046668272000000004,-2.22,41.04,-28.8
1554882925856,-3.5578922999999993,-0.028731298,9.007261999999999,0.29617313,-0.4064282,0.04483568,-1.86,40.559998,-30.72
1554882925876,-3.476487,0.14126222,9.105427,0.34992927,-0.44735616,0.042392217,-2.52,39.96,-31.019999
1554882925896,-3.294522,0.19154198,9.244295,0.34870756,-0.39787605,0.047279138,-3.12,39.54,-30.9
1554882925917,-3.2083282000000004,0.47885495,9.7135725,0.20759767,-0.24393803,0.035672699999999995,-3.36,39.54,-30.179997999999998
1554882925936,-3.15326,1.6664151999999999,9.857229,-0.13082169,0.13785274,-0.010753061999999999,-3.54,39.239998,-29.58
1554882925957,-3.5147953000000003,1.4221992,9.526819,-0.29086837,0.38097712,-0.060233145999999994,-3.78,39.12,-29.039998999999998
1554882925976,-3.3040992999999994,0.52913475,9.105427,-0.27926195,0.47566122,-0.061454877000000005,-3.6,39.12,-28.92
1554882925996,-2.8013015,0.36871833,9.124581,-0.2707098,0.33577308,-0.03152248,-2.34,39.059998,-29.099998
1554882926016,-2.8707354,0.24900457,9.067119,-0.26215770000000005,0.24658674,-0.01991604,-1.86,38.94,-29.519999
1554882926036,-3.7446458,-0.04070267,8.784595,-0.10394361,0.11708332,-0.024192097000000003,-3.12,40.44,-29.46
1554882926057,-3.703943,-0.18435916,8.846846000000001,0.027392418999999998,-0.0008136725,-0.0028118126,-3.1799998,40.44,-30.0
1554882926076,-3.545921,-0.15323359,8.834874000000001,0.13185038,-0.20728613,0.03628356,-3.24,39.899998,-30.96
1554882926096,-3.5195839999999996,-0.052674048,8.882759,0.21004112,-0.33678955,0.043613944,-2.82,39.6,-30.9
1554882926116,-3.5171897000000003,0.10055954,9.0838785,0.26257554,-0.36244590000000004,0.035672699999999995,-2.76,39.18,-29.099998
1554882926136,-3.3855044999999997,0.39984390000000003,9.47654,0.21676065,-0.26654005,0.03017491,-3.36,39.48,-28.98
1554882926156,-3.3040992999999994,1.0079896000000002,9.866806,0.029225016,-0.028302607999999996,-0.01869431,-3.6599998,40.26,-30.48
1554882926177,-3.4094474000000003,0.89067024,9.517242,-0.16197579999999998,0.2594149,-0.048015844,-3.24,39.899998,-30.599998
1554882926196,-3.5147953000000003,0.05985687,9.091061999999999,-0.16258667,0.28812557,-0.02480296,-3.3,39.719997,-30.48
1554882926216,-3.0550947,-0.14844504,8.849239,-0.063626505,0.0981465,0.053998653,-4.08,39.48,-30.0
1554882926236,-3.0646717999999997,-0.20830189999999998,8.729526,0.048772699999999995,-0.21156219,0.10958739,-3.6,39.719997,-29.82
1554882926257,-3.3424077000000003,0.15802214,8.945011000000001,0.15384153,-0.29341809999999996,0.08698538,-3.48,40.44,-29.519999
1554882926278,-3.440573,0.43096948,9.143736,0.17216748,-0.23233160000000003,0.052776925,-3.84,40.079997999999996,-29.22
1554882926296,-3.512401,1.0223553,9.727939,-0.0019291125,0.06271631,-0.026635557,-3.9599998,40.44,-30.599998
1554882926317,-3.4980354,1.0343267,9.63935,-0.07340035,0.15190263,-0.04557238,-3.54,40.8,-31.019999
1554882926336,-3.4980354,1.0343267,9.63935,-0.07340035,0.15190263,-0.04557238,-3.54,40.8,-31.019999
1554882926357,-3.2394537999999997,0.22027329,8.92825,-0.13693033,0.20077187,-0.032133345,-4.2,40.8,-29.16
1554882926376,-3.2394537999999997,0.22027329,8.92825,-0.13693033,0.20077187,-0.032133345,-4.2,40.8,-29.16
1554882926396,-3.4597269999999996,0.016759925,8.858817,0.1068049,-0.20850787,0.0656051,-3.84,40.02,-30.3
1554882926416,-3.4573328,0.047885496,8.858817,0.11230269,-0.20911872,0.06682683,-3.84,40.02,-30.3
1554882926436,-3.4094474000000003,0.749408,9.471751,0.08114856,-0.100384705,0.0020751092,-4.2,40.379996999999996,-29.22
1554882926456,-3.4333901,0.87151605,9.577099,0.0347228,-0.033800397,-0.020526905,-4.02,39.84,-29.76
1554882926477,-3.5842294999999997,0.8643332,9.471751,-0.18579954,0.29117990000000005,-0.11093496,-3.3,40.2,-31.199999
1554882926496,-3.3519847,0.56265455,9.186832,-0.25543818,0.38952919999999996,-0.12681746,-3.24,39.48,-30.599998
1554882926516,-3.3519847,0.56265455,9.186832,-0.25543818,0.38952919999999996,-0.12681746,-3.24,39.48,-30.599998
1554882926537,-3.5578922999999993,-0.36632404,8.736709,-0.1216587,0.118915915,-0.022359502000000003,-3.12,40.8,-29.46
1554882926556,-3.6105663999999997,-0.339987,8.696006,0.024948957999999997,-0.06006759999999999,0.013681549,-3.24,40.5,-29.76
1554882926576,-3.6105663999999997,-0.339987,8.696006,0.024948957999999997,-0.06006759999999999,0.013681549,-3.24,40.5,-29.76
1554882926597,-3.3831102999999993,-0.06943397,8.980925,0.30228177,-0.42169982,0.0637725,-2.6399999,39.66,-30.24
1554882926616,-3.337619,0.22266756,9.153313,0.33404678,-0.44002578,0.04178135,-3.06,40.14,-30.779999
1554882926636,-3.294522,0.6847626,9.696813,0.19538036,-0.22072516,0.001464244,-4.44,39.54,-30.599998
1554882926656,-3.2777622,0.9481328000000001,9.833286,0.11596788,-0.12543018,-0.010753061999999999,-4.68,39.18,-30.359999
1554882926677,-3.2777622,0.9481328000000001,9.833286,0.11596788,-0.12543018,-0.010753061999999999,-4.68,39.18,-30.359999
1554882926696,-3.397476,0.009577099,8.901914,-0.14670418,0.23253685,0.027731448,-2.8799999,40.02,-29.699999
1554882926717,-3.0766432,-0.15323359,8.839663,-0.069735155,0.09936822,0.07843327,-3.0,40.26,-29.099998
1554882926736,-3.1173458,0.13886794,8.92825,0.06160087,-0.2573771,0.11936124,-2.52,40.26,-28.38
1554882926757,-3.4022646,0.73743665,9.304152,0.07626164,-0.18529499,0.056442115,-2.82,40.14,-28.32
1554882926776,-3.4022646,0.73743665,9.304152,0.07626164,-0.18529499,0.056442115,-2.82,40.14,-28.32
1554882926796,-3.4645156999999998,0.818842,9.356826,-0.20412551,0.36142942,-0.07855911,-3.78,40.14,-28.38
1554882926816,-3.4381785000000002,0.37829542,9.208381,-0.2462752,0.33455136,-0.09077640599999999,-3.78,39.899998,-29.099998
1554882926837,-3.4381785000000002,0.37829542,9.208381,-0.2462752,0.33455136,-0.09077640599999999,-3.78,39.899998,-29.099998
1554882926856,-3.5842294999999997,-0.35674694,8.686428999999999,-0.0758438,0.06882497,0.013070683999999999,-3.36,39.48,-29.699999
1554882926877,-3.6297207,-0.37350687,8.700794,-0.05873958,0.045612085999999996,0.0197902,-3.36,39.48,-29.699999
1554882926897,-3.5171897000000003,-0.20351335,8.796566,0.17400007,-0.26165313,0.043003082000000005,-2.8799999,40.02,-27.84
1554882926916,-3.4980354,-0.06464542,8.851633999999999,0.22225843,-0.3202962,0.04544654,-2.3999999,40.02,-26.279999
1554882926936,-3.3160705999999998,0.3423813,9.234717999999999,0.29739487,-0.36672196,0.037505295,-1.68,40.26,-24.0
1554882926957,-3.2897336000000004,0.7901106999999999,9.725544000000001,0.119022205,-0.14131269,-0.014418252,-2.3999999,39.84,-23.88
1554882926976,-3.4118416,1.0439038,9.960183,-0.041635353,0.082264,-0.049848437,-3.24,39.54,-24.0
1554882926996,-3.5267668,0.52674043,9.323306,-0.18030176,0.28812557,-0.05351363,-3.3,39.059998,-24.0
1554882927016,-3.3735332000000002,0.12210801,9.069513,-0.14670418,0.24108896,-0.012585657,-2.46,38.879996999999996,-24.66
1554882927036,-2.928198,-0.2657645,8.842057,0.007233865999999999,-0.08389134,0.090650566,-1.92,38.76,-24.66
1554882927056,-3.1819912999999995,0.11971374,8.913885,0.11352442,-0.27814648,0.08942884,-1.92,39.42,-23.76
