TimeStamp,Ax,Ay,Az,Gx,Gy,Gz,Mx,My,Mz
1554880651695,3.9697077000000003,1.1899546,8.844451,-9.712756999999999e-05,0.00094500853,-0.0032705725,-28.74,35.16,-16.02
1554880651715,4.000833,1.2067145000000001,8.827691,-9.712756999999999e-05,0.005221065,-0.0026597073,-28.98,34.559998,-15.54
1554880651735,3.9960446000000003,1.1971374,8.856422,-9.712756999999999e-05,0.008886257,-0.0014379768,-28.38,34.5,-15.66
1554880651756,3.962525,1.185166,8.873182,-0.0019297232999999998,0.0076645263,-0.0026597073,-28.019999,35.34,-16.08
1554880651776,3.9529476000000003,1.1396747999999999,8.894731,-9.712756999999999e-05,0.0070536607,0.0010054843,-28.68,35.28,-16.38
1554880651795,3.955342,1.1540405,8.901914,0.0029571984999999996,0.00094500853,-0.002048842,-29.46,35.52,-15.839998999999999
1554880651815,3.9601305,1.1803774999999999,8.882759,0.003568064,0.00094500853,-0.0038814377,-28.98,35.34,-15.9
1554880651835,3.9529476000000003,1.1612233,8.889942,-9.712756999999999e-05,0.0015558738,-0.00021624629,-28.26,35.04,-16.56
1554880651855,3.9457648,1.1540405,8.854028999999999,-0.0025405885999999996,0.0003341433,-0.0014379768,-28.08,34.8,-16.74
1554880651875,3.938582,1.1540405,8.854028999999999,-0.0043731844,0.0027776044,-0.00021624629,-28.32,34.62,-17.22
1554880651896,3.9337934999999997,1.1420691,8.9186735,-0.0025405885999999996,-0.00027672196,0.0046706759999999995,-28.92,34.38,-16.38
1554880651915,3.9242165,1.1444633,8.913885,-0.0019297232999999998,-0.0033310482,0.0040598107,-28.859999,34.92,-16.26
1554880651936,3.962525,1.1636176,8.889942,-9.712756999999999e-05,-0.0076071047,0.0022272146,-28.439999,34.8,-17.52
1554880651955,3.9960446000000003,1.185166,8.854028999999999,0.0029571984999999996,-0.011883162,0.0046706759999999995,-28.439999,34.739998,-17.4
1554880651976,4.0151987,1.1803774999999999,8.822903,-9.712756999999999e-05,-0.006996239499999999,0.0010054843,-28.019999,35.28,-17.34
1554880651995,4.0439300000000005,1.1229149,8.798960000000001,-0.0043731844,-0.0021093178,-0.0008271115400000001,-27.599998,34.98,-16.38
1554880652015,4.1181526,1.1420691,8.801354,-0.0025405885999999996,0.0082753915,-0.006324899,-28.32,34.68,-15.599998999999999
1554880652035,4.065479,1.2186858999999999,8.820508,0.0005137376999999999,0.016827505,-0.0075466293000000005,-29.039998999999998,35.04,-16.08
1554880652055,4.0080160000000005,1.211503,8.865999,0.005400659499999999,0.031488273,0.0016163494,-28.5,35.34,-16.32
1554880652075,3.955342,1.1875603000000001,8.913885,0.006622390400000001,0.032099135,0.010168463,-27.779999,35.399998,-16.199999
1554880652095,3.9194279,1.1779832000000001,8.930645,0.009065852,0.014994908999999999,0.011390193,-27.96,34.5,-15.719999
1554880652115,3.8619652,1.1779832000000001,8.885154,0.015174503,-0.004552779,0.013222788000000001,-28.38,34.44,-16.44
1554880652135,3.8332339999999996,1.1157321000000002,8.911489999999999,0.01945056,-0.015548353000000001,0.020553171999999998,-28.019999,35.579997999999996,-16.44
1554880652155,3.8212626000000003,1.1013663999999999,8.9186735,0.021283155,-0.017991813,0.02727269,-27.96,35.399998,-16.619999
1554880652175,3.8547822999999997,1.1444633,8.980925,0.02311575,-0.028376522999999997,0.033992205,-27.96,35.16,-16.8
1554880652196,3.9409763999999994,1.2905141000000002,8.873182,0.023726617999999998,-0.044869885,0.03215961,-28.98,35.399998,-16.38
1554880652215,3.9840732000000005,1.2713598999999998,8.789383,0.01822883,-0.021046141,0.034603074,-29.099998,35.52,-16.859999
1554880652236,4.065479,1.185166,8.873182,0.015174503,-0.010050566,0.029105285,-28.56,36.0,-16.859999
1554880652256,4.0798445,1.1923488000000002,8.870789,0.012731043000000001,-0.021046141,0.020553171999999998,-28.8,35.94,-16.5
1554880652275,4.106180999999999,1.1995316999999999,8.767835,0.005400659499999999,-0.029598252999999998,0.010168463,-28.56,35.04,-16.56
1554880652295,4.0989985,1.1660118,8.715160000000001,-0.0074275109999999995,-0.0033310482,-0.00021624629,-28.68,35.219997,-16.859999
1554880652315,4.0559015,1.1372806,8.772623,-0.014147028,0.016827505,-0.011822686499999999,-27.599998,35.579997999999996,-15.719999
1554880652335,4.06069,1.1277034,8.91628,-0.009870971999999999,0.02110356,-0.0099900905,-27.06,35.7,-15.719999
1554880652355,3.991256,1.1731946000000002,8.899519999999999,-0.00620578,0.0039993348,-0.009379225,-27.9,35.579997999999996,-17.4
1554880652375,3.9433705999999997,1.1708003,8.875577,-0.00620578,-0.005163644,-0.0051031685,-28.5,34.559998,-17.22
1554880652395,3.799714,1.2067145000000001,8.897125,-0.0031514538,-0.014937487,-0.0008271115400000001,-28.38,34.5,-16.32
1554880652415,3.8380224999999997,1.1444633,8.839663,0.0011246029,-0.008828836,0.0040598107,-27.539998999999998,35.04,-15.48
1554880652436,3.9433705999999997,1.132492,8.887547999999999,0.003568064,-0.006385374300000001,0.005281541,-27.359999,35.34,-15.66
1554880652455,4.0798445,1.1372806,8.889942,0.010287581,-0.021657005,0.005892405999999999,-27.72,35.46,-17.1
1554880652475,4.1564612,1.1372806,8.810931,0.010898447,-0.01982441,0.0022272146,-28.199999,34.739998,-17.46
1554880652495,4.1660379999999995,1.1731946000000002,8.784595,0.011509311000000001,-0.0076071047,-0.0026597073,-28.98,34.44,-17.64
1554880652515,4.1373067,1.2354459,8.755863,0.010898447,-0.0027201829999999997,-0.002048842,-28.92,34.98,-15.48
1554880652536,4.06069,1.2450229,8.779805999999999,0.007233255500000001,0.0046102,-0.00021624629,-28.619999,35.76,-14.58
1554880652555,4.0128045,1.2689656,8.7534685,-0.0019297232999999998,0.015605775,0.0065032714,-28.14,35.94,-16.02
1554880652575,3.921822,1.2546,8.901914,-0.0019297232999999998,0.0070536607,0.011390193,-28.08,35.46,-16.14
1554880652595,3.9337934999999997,1.2761483999999998,8.813326,-0.006816645,0.028433945,0.016887981,-28.32,35.46,-16.619999
1554880652615,3.8978794000000003,1.2043202,8.9186735,-0.008649241,0.021714427,0.022385767,-28.019999,34.68,-16.5
1554880652635,3.9577362999999997,1.1253091,8.9186735,-0.004984049,0.002166739,0.022385767,-28.92,34.26,-16.68
1554880652655,4.0295644,1.0893950000000001,8.909097000000001,-0.003762319,-0.010050566,0.012001059,-28.98,34.8,-17.64
1554880652675,4.0678730000000005,1.1013663999999999,8.827691,-9.712756999999999e-05,-0.009439701,0.0016163494,-28.199999,35.1,-17.64
1554880652695,4.046324299999999,1.1133378,8.794171,0.003568064,-0.006996239499999999,-0.0051031685,-28.439999,35.46,-16.68
1554880652717,4.0032277,1.158829,8.861211,0.0060115247,-0.0076071047,-0.0032705725,-28.019999,35.16,-15.839998999999999
1554880652735,3.9673133000000003,1.2043202,8.873182,0.005400659499999999,-0.006385374300000001,-0.0026597073,-26.76,35.1,-14.7
1554880652755,3.9242165,1.2354459,8.863605499999998,0.0060115247,-0.012494027,0.00039461894999999995,-27.3,35.46,-14.639999
1554880652775,3.9194279,1.2258687,8.861211,0.0060115247,-0.012494027,-0.0008271115400000001,-27.24,35.34,-15.12
1554880652795,3.9409763999999994,1.3000913,8.844451,0.0047897943,-0.028376522999999997,0.0065032714,-28.56,35.28,-16.44
1554880652816,4.0319586,1.2857256000000001,8.830086,0.0047897943,-0.028376522999999997,0.01444452,-28.26,34.98,-16.44
1554880652835,4.146884,1.2402343999999998,8.794171,0.0029571984999999996,-0.024100466,0.008946733,-28.26,34.38,-15.96
1554880652855,4.1564612,1.2210802,8.755863,-9.712756999999999e-05,-0.017991813,0.0028380797999999997,-28.92,34.68,-15.78
1554880652875,4.120547,1.1995316999999999,8.801354,-0.005594915,-0.005163644,0.0028380797999999997,-28.8,35.64,-16.68
1554880652895,4.1013927,1.1516461,8.839663,-0.006816645,0.005831930999999999,-0.006324899,-28.439999,35.94,-16.56
1554880652915,4.0798445,1.0989721000000001,8.846846000000001,-0.005594915,0.0039993348,-0.009379225,-28.5,35.46,-16.68
1554880652935,4.06069,1.0606636999999999,8.806142999999999,-0.0074275109999999995,0.0027776044,-0.016098743000000002,-28.439999,35.28,-16.08
1554880652956,4.005622,0.99362403,8.794171,-0.01659049,0.0082753915,-0.017931338,-28.38,35.1,-15.36
1554880652976,3.991256,1.0032011,8.92825,-0.006816645,0.0033884696,-0.018542204,-27.9,34.92,-15.36
1554880652995,4.0582957,1.0870007,8.913885,0.0041789290000000005,-0.005163644,-0.02526172,-28.32,35.82,-15.42
1554880653017,4.1037870000000005,1.1516461,8.911489999999999,0.009065852,-0.0076071047,-0.029537777999999997,-28.56,36.0,-15.96
1554880653036,4.1397014,1.2234744,8.801354,0.009065852,-0.019213544,-0.033813834,-27.84,34.98,-15.96
1554880653055,4.149278,1.2330515,8.6984005,0.0047897943,-0.015548353000000001,-0.030759507999999998,-27.72,34.38,-16.32
1554880653075,4.0966043,1.2929084,8.722342999999999,-0.0007079928,0.006442796,-0.03198124,-28.56,34.86,-16.92
1554880653095,4.087027,1.2617828000000002,8.760652,-0.006816645,0.025990483999999998,-0.027094316,-28.98,35.04,-16.98
1554880653115,4.0391417,1.2905141000000002,8.794171,-0.004984049,0.031488273,-0.021596529,-28.68,35.219997,-17.16
1554880653135,3.9697077000000003,1.2713598999999998,8.818114,-0.003762319,0.028433945,-0.016098743000000002,-28.38,34.86,-16.02
1554880653155,3.921822,1.2474172,8.887547999999999,0.0011246029,0.022936157999999998,-0.006324899,-28.619999,34.32,-14.94
1554880653175,3.8691480000000005,1.2258687,8.892337,0.005400659499999999,0.010718852,-0.0008271115400000001,-28.199999,34.68,-15.96
1554880653196,3.859571,1.1995316999999999,8.880365,0.0041789290000000005,-0.003941913,0.005892405999999999,-27.119999,34.92,-17.1
1554880653215,3.8787252999999997,1.1971374,8.846846000000001,0.0047897943,-0.010661432,0.012611923999999998,-27.84,35.34,-16.98
1554880653235,3.955342,1.1971374,8.863605499999998,0.0041789290000000005,-0.016770083,0.018720577,-28.32,35.219997,-16.74
1554880653255,4.041536,1.1684061000000001,8.822903,0.0060115247,-0.01738095,0.016277116,-27.539998999999998,34.68,-16.08
1554880653275,4.1301239999999995,1.1684061000000001,8.825297,0.00784412,-0.011272296000000001,0.010779328999999999,-27.84,34.739998,-15.96
1554880653295,4.1420956,1.1540405,8.791777,-9.712756999999999e-05,-0.009439701,0.0034489452,-28.8,34.92,-16.8
1554880653315,4.120547,1.1540405,8.806142999999999,-9.712756999999999e-05,-0.004552779,-0.0008271115400000001,-29.519999,35.219997,-16.92
1554880653336,4.07745,1.1564348,8.803747999999999,-0.0031514538,-0.004552779,-0.011211821,-28.98,35.16,-17.16
1554880653355,4.0391417,1.1971374,8.825297,-0.0019297232999999998,-0.0021093178,-0.016709609,-28.56,34.68,-16.8
1554880653376,4.02717,1.211503,8.827691,-0.0043731844,0.002166739,-0.013655282,-28.98,34.739998,-16.02
1554880653395,3.9864676,1.2426286,8.837268,-0.0019297232999999998,0.0015558738,-0.011822686499999999,-29.039998999999998,34.98,-16.32
1554880653416,3.9888617999999996,1.2593886,8.818114,-0.0031514538,-0.005774509000000001,-0.006324899,-28.68,34.739998,-16.98
1554880653435,3.9864676,1.2426286,8.837268,-0.0025405885999999996,-0.009439701,-0.0069357635999999995,-28.14,35.219997,-17.16
1554880653456,4.0080160000000005,1.2474172,8.844451,0.0011246029,-0.009439701,-0.0026597073,-28.619999,35.64,-15.9
1554880653475,4.0391417,1.2546,8.813326,0.0017354682,-0.006385374300000001,-0.0008271115400000001,-29.16,35.219997,-15.24
1554880653496,4.063084,1.2617828000000002,8.801354,-9.712756999999999e-05,-0.003941913,0.005281541,-28.619999,35.1,-16.08
1554880653516,4.0535073,1.2234744,8.791777,-0.0019297232999999998,0.0033884696,0.007725002,-28.199999,35.28,-16.44
1554880653535,4.0559015,1.185166,8.839663,-0.0007079928,0.005831930999999999,0.0022272146,-28.68,35.04,-16.44
1554880653556,4.034353299999999,1.1660118,8.842057,-0.0007079928,0.006442796,0.005892405999999999,-28.8,34.32,-16.26
1554880653575,4.000833,1.1420691,8.854028999999999,-9.712756999999999e-05,0.0046102,0.005892405999999999,-28.5,34.559998,-16.44
1554880653595,4.0151987,1.1253091,8.863605499999998,-0.0013188579999999998,0.002166739,0.0040598107,-28.019999,34.98,-16.92
1554880653615,4.0726614,1.1372806,8.865999,0.0029571984999999996,-0.005774509000000001,-0.0014379768,-28.08,35.1,-16.74
1554880653635,4.070266999999999,1.1803774999999999,8.8085375,0.0041789290000000005,-0.009439701,-0.006324899,-28.68,34.98,-16.68
1554880653655,4.0798445,1.1947431999999998,8.791777,0.005400659499999999,-0.006996239499999999,-0.0081574945,-28.619999,35.219997,-17.16
1554880653676,4.0966043,1.2546,8.74868,-0.0007079928,0.0015558738,-0.0099900905,-28.56,35.82,-16.98
1554880653695,4.0391417,1.3000913,8.8085375,-9.712756999999999e-05,0.006442796,-0.004492303,-28.439999,34.8,-15.96
1554880653716,4.0319586,1.2785428,8.837268,0.0017354682,0.002166739,0.0016163494,-27.84,34.44,-15.42
1554880653735,4.041536,1.2450229,8.820508,-9.712756999999999e-05,0.0027776044,0.0016163494,-27.84,35.28,-16.26
1554880653756,4.0319586,1.2569941999999998,8.8085375,-0.004984049,0.0076645263,0.0028380797999999997,-28.38,35.34,-17.279999
1554880653775,4.046324299999999,1.1971374,8.801354,-0.012314432,0.011940583999999999,0.005892405999999999,-28.74,34.02,-15.78
1554880653795,4.087027,1.1564348,8.822903,-0.012925298,0.011940583999999999,0.0034489452,-29.039998999999998,33.719997,-14.94
1554880653815,4.1373067,1.132492,8.803747999999999,-0.008649241,0.014384043000000001,-0.0075466293000000005,-28.38,34.62,-16.08
1554880653836,4.0559015,1.1277034,8.875577,-0.0007079928,0.016827505,-0.014877012,-28.56,35.04,-16.32
1554880653856,3.962525,1.1779832000000001,8.892337,0.0029571984999999996,0.016216641,-0.013044416000000001,-29.34,35.46,-17.039998999999998
1554880653875,3.8643596,1.2402343999999998,8.854028999999999,0.0047897943,0.0070536607,-0.010600955,-29.4,35.399998,-16.74
1554880653895,3.8308396,1.2138973,8.880365,0.0029571984999999996,-0.0027201829999999997,-0.00021624629,-29.4,35.1,-15.96
1554880653916,3.8236567999999997,1.2258687,8.921068,0.005400659499999999,-0.013715757,0.005281541,-28.92,35.46,-16.5
1554880653936,3.9050622,1.2593886,8.863605499999998,0.005400659499999999,-0.024711333,0.008946733,-28.32,35.7,-16.8
1554880653955,4.0319586,1.2905141000000002,8.818114,-9.712756999999999e-05,-0.028987389,0.013833653999999999,-28.14,35.399998,-16.98
1554880653975,4.122941,1.2737542,8.736709,-0.0007079928,-0.02593306,0.018720577,-28.38,34.92,-16.199999
1554880653997,4.233078,1.2210802,8.724737,-0.0019297232999999998,-0.013104891,0.01566625,-28.38,35.219997,-15.0
1554880654015,4.264203500000001,1.1827718,8.736709,-0.0013188579999999998,0.0015558738,0.005281541,-28.08,35.94,-16.02
1554880654035,4.235472,1.1612233,8.784595,-0.0019297232999999998,0.012551448,-0.0014379768,-28.5,35.76,-17.22
1554880654055,4.1397014,1.1157321000000002,8.784595,-0.00620578,0.019270966,-0.009379225,-28.859999,34.98,-16.44
1554880654075,4.0798445,1.0774237,8.827691,-0.008649241,0.01988183,-0.011822686499999999,-28.74,34.2,-16.08
1554880654095,4.017593,1.1205206,8.875577,-0.006816645,0.011940583999999999,-0.018542204,-29.279999,34.559998,-16.5
1554880654115,3.9744961,1.1492518999999999,8.880365,-0.0019297232999999998,0.010107988,-0.019153068,-29.22,35.04,-16.68
1554880654135,3.938582,1.2258687,8.849239,0.0005137376999999999,0.005831930999999999,-0.014266146,-28.98,35.16,-16.98
1554880654155,3.9050622,1.2737542,8.858817,-9.712756999999999e-05,0.002166739,-0.002048842,-28.92,35.04,-17.039998999999998
1554880654175,3.9074564,1.333611,8.861211,0.0060115247,-0.004552779,0.005281541,-28.619999,35.16,-16.74
1554880654196,3.9337934999999997,1.3216397,8.861211,0.010287581,-0.012494027,0.012001059,-27.9,35.52,-15.78
1554880654215,3.9888617999999996,1.3168511,8.810931,0.009676717,-0.009439701,0.0150553845,-27.539998999999998,34.92,-15.599998999999999
1554880654235,4.041536,1.2857256000000001,8.796566,0.0047897943,-0.005774509000000001,0.013222788000000001,-28.26,34.98,-16.619999
1554880654255,4.1037870000000005,1.2474172,8.758257,0.0023463335999999997,-0.0021093178,0.010779328999999999,-28.68,35.46,-17.16
1554880654275,4.113364,1.1923488000000002,8.791777,-0.0025405885999999996,0.0003341433,0.005892405999999999,-28.56,35.04,-15.839998999999999
1554880654295,4.1253357,1.1492518999999999,8.822903,-0.0043731844,0.0027776044,-0.0026597073,-27.779999,34.68,-12.3
1554880654316,4.0989985,1.1277034,8.820508,-0.0031514538,0.0070536607,-0.00876836,-27.359999,34.2,-10.08
1554880654335,4.0535073,1.1253091,8.844451,-0.006816645,0.010718852,-0.010600955,-26.88,34.68,-10.38
1554880654355,4.022382,1.1037607,8.820508,-0.0080383755,0.0082753915,-0.011822686499999999,-26.82,35.1,-10.98
1554880654375,4.017593,1.132492,8.844451,-0.0080383755,0.005831930999999999,-0.010600955,-27.66,34.559998,-11.099999
1554880654395,4.005622,1.1708003,8.901914,0.0005137376999999999,-0.0033310482,-0.013044416000000001,-27.3,34.32,-11.219999000000001
1554880654415,3.981679,1.1923488000000002,8.885154,0.0047897943,-0.006996239499999999,-0.009379225,-26.88,34.32,-10.92
1554880654436,4.0080160000000005,1.1947431999999998,8.834874000000001,0.008454986,-0.013104891,-0.0038814377,-27.3,34.5,-10.92
1554880654456,4.0367475,1.2330515,8.820508,0.010287581,-0.016159218,-0.0026597073,-27.539998999999998,34.559998,-11.099999
1554880654475,4.06069,1.3072741,8.822903,0.007233255500000001,-0.010050566,-0.0008271115400000001,-28.14,34.38,-11.04
1554880654495,4.0822387,1.333611,8.7534685,0.005400659499999999,-0.006385374300000001,-0.00021624629,-28.199999,34.68,-11.099999
1554880654515,4.07745,1.2905141000000002,8.746285,-0.0007079928,-0.00027672196,0.0022272146,-27.66,34.44,-10.5
1554880654535,4.0559015,1.2857256000000001,8.791777,-0.0025405885999999996,0.0046102,0.0028380797999999997,-27.359999,33.6,-10.26
1554880654555,4.02717,1.2641771000000002,8.803747999999999,-0.003762319,0.0082753915,0.0040598107,-26.76,33.66,-11.34
1554880654575,3.9792848,1.2354459,8.839663,-0.003762319,0.009497122,0.0071141366,-27.06,34.079997999999996,-11.34
1554880654595,3.964919,1.2162915,8.873182,-0.0031514538,0.005221065,0.008335867,-27.24,33.84,-10.62
1554880654615,3.9768906000000004,1.1947431999999998,8.834874000000001,-0.0074275109999999995,0.0015558738,0.010168463,-27.66,33.18,-10.559999000000001
1554880654636,4.0391417,1.1396747999999999,8.849239,-0.003762319,0.0003341433,0.008335867,-27.84,33.239998,-10.26
1554880654655,4.084633,1.1037607,8.861211,-0.006816645,0.005221065,0.0022272146,-28.08,34.14,-10.5
1554880654675,4.1325183,1.0917894,8.844451,-0.003762319,0.005831930999999999,-0.0032705725,-27.72,34.86,-10.92
1554880654695,4.1373067,1.0750294,8.815719999999999,-0.0043731844,0.0046102,-0.009379225,-26.519999,35.52,-10.62
1554880654715,4.1301239999999995,1.0822121999999998,8.834874000000001,0.0011246029,0.002166739,-0.015487878,-26.58,35.34,-10.08
1554880654735,4.084633,1.1540405,8.806142999999999,0.0047897943,0.0033884696,-0.02281826,-27.06,34.62,-10.2
1554880654755,4.0319586,1.2186858999999999,8.849239,0.005400659499999999,0.0027776044,-0.017320473,-27.359999,34.92,-11.04
1554880654775,3.9792848,1.3144568,8.818114,0.0041789290000000005,-0.0008875872,-0.013044416000000001,-27.539998999999998,34.92,-10.92
1554880654795,3.9529476000000003,1.3886794,8.806142999999999,0.003568064,-0.003941913,-0.0069357635999999995,-27.0,34.68,-10.139999000000001
1554880654816,3.9361877,1.3934678999999999,8.801354,0.0047897943,-0.005163644,0.0028380797999999997,-26.88,34.5,-10.62
1554880654835,3.955342,1.3575538,8.818114,0.0029571984999999996,0.002166739,0.011390193,-27.72,33.66,-11.099999
1554880654856,3.9768906000000004,1.3216397,8.806142999999999,-0.0007079928,0.005831930999999999,0.019331442,-27.42,33.66,-11.099999
1554880654875,4.0151987,1.2306572,8.837268,-0.003762319,0.002166739,0.022996634,-26.88,34.32,-11.4
1554880654895,4.07745,1.1684061000000001,8.834874000000001,-0.0025405885999999996,0.005221065,0.019331442,-26.58,34.92,-10.98
1554880654916,4.0822387,1.1253091,8.839663,-0.0013188579999999998,0.0039993348,0.008335867,-27.42,34.5,-10.44
1554880654935,4.113364,1.0462981,8.8324795,-0.0019297232999999998,0.0046102,0.00039461894999999995,-27.96,34.079997999999996,-10.8
1554880654955,4.1013927,1.0462981,8.844451,-0.004984049,0.0027776044,-0.0069357635999999995,-27.66,34.2,-10.98
1554880654975,4.1157584,1.0654523,8.849239,-0.0031514538,-0.004552779,-0.012433551000000001,-27.539998999999998,33.96,-10.62
1554880654995,4.0678730000000005,1.1205206,8.8324795,-0.0019297232999999998,-0.005774509000000001,-0.019763935,-27.359999,34.559998,-10.8
1554880655016,4.041536,1.1564348,8.827691,-0.0007079928,-0.0021093178,-0.017320473,-27.119999,34.68,-10.32
1554880655035,4.034353299999999,1.2426286,8.813326,-9.712756999999999e-05,-0.005163644,-0.016098743000000002,-26.34,34.62,-10.32
1554880655055,4.005622,1.3120626,8.806142999999999,0.0017354682,-0.0076071047,-0.012433551000000001,-27.359999,34.559998,-10.679999
1554880655075,3.981679,1.3814965,8.801354,0.003568064,-0.0033310482,-0.0032705725,-28.5,33.84,-10.5
1554880655095,3.9673133000000003,1.359948,8.806142999999999,0.0047897943,0.0015558738,0.0065032714,-27.539998999999998,34.14,-10.98
1554880655116,4.0080160000000005,1.3024855,8.779805999999999,0.0017354682,0.0039993348,0.010779328999999999,-27.06,34.32,-10.679999
1554880655135,4.017593,1.2976969999999999,8.818114,-0.0007079928,0.010107988,0.01566625,-26.88,33.719997,-10.2
1554880655156,4.02717,1.2306572,8.822903,-0.0007079928,0.005221065,0.01444452,-27.779999,34.2,-10.559999000000001
1554880655175,4.02717,1.1684061000000001,8.834874000000001,0.0017354682,-0.00027672196,0.010779328999999999,-27.599998,34.68,-10.8
1554880655195,4.046324299999999,1.0989721000000001,8.851633999999999,-0.003762319,0.00094500853,0.0065032714,-26.76,34.559998,-11.46
1554880655216,4.07745,1.0702409,8.846846000000001,-0.006816645,0.0003341433,-0.0014379768,-26.76,34.44,-11.759999
1554880655235,4.0942099999999995,1.1229149,8.842057,-0.0043731844,-0.0033310482,-0.009379225,-26.88,34.86,-10.98
1554880655255,4.106180999999999,1.1516461,8.834874000000001,-0.0043731844,-0.0027201829999999997,-0.013655282,-27.359999,34.92,-10.86
1554880655276,4.0894213,1.1947431999999998,8.834874000000001,-0.0013188579999999998,-0.005163644,-0.016098743000000002,-27.0,34.32,-11.099999
1554880655295,4.051113,1.2450229,8.798960000000001,-0.0013188579999999998,-0.004552779,-0.015487878,-27.42,33.899998,-10.44
1554880655315,4.0391417,1.2713598999999998,8.803747999999999,0.0011246029,-0.0014984523999999999,-0.011211821,-27.779999,33.78,-10.2
1554880655336,4.0080160000000005,1.2713598999999998,8.806142999999999,-0.0013188579999999998,0.0033884696,-0.004492303,-27.18,34.38,-10.8
1554880655355,4.017593,1.2809371,8.796566,-9.712756999999999e-05,-0.00027672196,-0.0014379768,-27.24,34.32,-11.219999000000001
1554880655376,4.010410299999999,1.2689656,8.830086,0.0023463335999999997,-0.0014984523999999999,0.005281541,-27.48,34.14,-11.519999499999999
1554880655395,4.0199876,1.2498114,8.8324795,0.005400659499999999,-0.004552779,0.0034489452,-28.26,34.14,-11.28
1554880655415,4.0199876,1.2857256000000001,8.825297,0.0041789290000000005,-0.005163644,0.008335867,-27.84,34.62,-13.019999499999999
1554880655435,4.017593,1.2450229,8.798960000000001,0.0017354682,-0.00027672196,0.011390193,-28.38,34.62,-14.82
1554880655455,4.0319586,1.2162915,8.810931,-0.0019297232999999998,0.0046102,0.008946733,-28.8,34.8,-14.58
1554880655475,4.048719,1.1731946000000002,8.827691,-0.0031514538,0.0070536607,0.008335867,-28.5,36.0,-16.619999
1554880655495,4.048719,1.1636176,8.846846000000001,0.0017354682,0.0039993348,0.0046706759999999995,-29.4,35.579997999999996,-17.699999
1554880655515,4.051113,1.1348863,8.849239,-0.0013188579999999998,0.005831930999999999,0.0016163494,-29.519999,35.34,-16.8
1554880655535,4.063084,1.1229149,8.846846000000001,-0.0043731844,-0.00027672196,-0.0014379768,-28.92,35.04,-17.039998999999998
1554880655556,4.0678730000000005,1.1372806,8.842057,-0.0013188579999999998,-0.0021093178,-0.0099900905,-27.539998999999998,34.44,-13.559999
1554880655575,4.0726614,1.1779832000000001,8.827691,-0.003762319,-0.004552779,-0.011822686499999999,-26.88,34.32,-10.2
1554880655595,4.06069,1.2258687,8.825297,0.0005137376999999999,-0.005163644,-0.011822686499999999,-27.359999,34.14,-10.5
1554880655616,4.048719,1.2665714,8.806142999999999,-9.712756999999999e-05,-0.0014984523999999999,-0.0038814377,-26.64,34.68,-10.92
1554880655635,4.034353299999999,1.3000913,8.810931,-0.0019297232999999998,-0.0008875872,-0.0038814377,-26.46,35.16,-10.74
1554880655655,4.02717,1.2809371,8.803747999999999,-0.0019297232999999998,0.0033884696,0.00039461894999999995,-27.359999,35.64,-10.38
1554880655675,3.991256,1.2905141000000002,8.844451,-0.0013188579999999998,0.0046102,0.0034489452,-27.42,35.1,-10.5
1554880655696,4.010410299999999,1.2498114,8.844451,-0.0007079928,0.002166739,0.0071141366,-27.599998,34.079997999999996,-10.2
1554880655715,4.010410299999999,1.2186858999999999,8.825297,-0.0007079928,0.002166739,0.005281541,-27.18,34.44,-10.44
1554880655735,4.024776,1.2067145000000001,8.854028999999999,-9.712756999999999e-05,0.0003341433,0.008946733,-27.3,34.2,-10.32
1554880655756,4.024776,1.1420691,8.834874000000001,0.0017354682,-0.0008875872,0.0065032714,-27.84,33.12,-9.66
1554880655775,4.051113,1.1731946000000002,8.858817,0.0011246029,-0.0033310482,0.0010054843,-27.779999,33.66,-10.44
1554880655796,4.0726614,1.1827718,8.822903,-0.0013188579999999998,-0.00821797,-0.0038814377,-27.48,34.739998,-10.44
1554880655816,4.06069,1.211503,8.8085375,-0.0007079928,-0.0027201829999999997,-0.0051031685,-27.779999,34.92,-10.5
1554880655835,4.0678730000000005,1.1779832000000001,8.803747999999999,-0.0025405885999999996,0.0015558738,-0.004492303,-27.72,34.739998,-11.46
1554880655855,4.0582957,1.1947431999999998,8.7822,-0.0013188579999999998,0.006442796,-0.0051031685,-27.359999,34.38,-10.679999
1554880655875,4.046324299999999,1.201926,8.858817,-0.004984049,0.0070536607,-0.004492303,-27.599998,34.26,-10.559999000000001
1554880655896,4.041536,1.175589,8.865999,-0.0019297232999999998,0.002166739,-0.0032705725,-26.82,34.68,-11.4
1554880655915,4.0032277,1.2043202,8.858817,0.0011246029,-0.00027672196,-0.002048842,-26.82,34.38,-11.34
1554880655936,3.9936504,1.1995316999999999,8.834874000000001,0.0023463335999999997,-0.0033310482,-0.0008271115400000001,-26.88,34.079997999999996,-10.74
1554880655955,4.0151987,1.2067145000000001,8.837268,0.003568064,-0.006996239499999999,-0.0008271115400000001,-26.699999,34.32,-10.8
1554880655975,4.051113,1.2186858999999999,8.810931,0.0041789290000000005,-0.009439701,0.0016163494,-27.24,34.38,-10.8
1554880655995,4.084633,1.23784,8.796566,0.0023463335999999997,-0.005163644,-0.0008271115400000001,-27.48,34.44,-9.96
1554880656015,4.087027,1.2210802,8.801354,-9.712756999999999e-05,-0.0027201829999999997,-0.002048842,-27.48,34.079997999999996,-10.019999499999999
1554880656035,4.065479,1.2402343999999998,8.794171,0.0017354682,0.0003341433,-0.002048842,-26.58,34.32,-10.5
1554880656055,4.034353299999999,1.2474172,8.813326,-0.003762319,0.0039993348,-0.0038814377,-27.0,34.38,-10.5
1554880656075,4.000833,1.2210802,8.820508,-0.0043731844,0.0039993348,0.0010054843,-27.18,34.26,-10.2
1554880656095,3.9864676,1.2067145000000001,8.837268,-0.0043731844,0.0039993348,0.0022272146,-26.82,34.38,-10.019999499999999
1554880656115,3.9936504,1.1827718,8.842057,-0.0007079928,0.00094500853,0.0016163494,-27.66,33.78,-9.54
1554880656136,4.005622,1.1779832000000001,8.849239,-0.0007079928,-0.003941913,0.00039461894999999995,-27.599998,33.3,-9.0
1554880656155,4.024776,1.175589,8.854028999999999,-0.0007079928,-0.0076071047,0.00039461894999999995,-27.119999,33.719997,-9.96
1554880656175,4.075055600000001,1.2043202,8.830086,0.0017354682,-0.006385374300000001,0.00039461894999999995,-27.42,33.84,-10.44
1554880656195,4.0918155,1.2186858999999999,8.801354,-9.712756999999999e-05,0.0015558738,-0.0008271115400000001,-27.539998999999998,34.14,-9.599999
1554880656215,4.1181526,1.2043202,8.818114,-0.0013188579999999998,0.002166739,-0.0038814377,-27.0,34.32,-8.82
1554880656235,4.0726614,1.2162915,8.822903,0.0017354682,0.0033884696,-0.0008271115400000001,-26.519999,33.239998,-9.48
1554880656255,4.070266999999999,1.1995316999999999,8.818114,0.0017354682,0.002166739,-0.00021624629,-26.519999,33.059998,-9.66
1554880656276,4.02717,1.2138973,8.822903,-0.0025405885999999996,0.0027776044,0.0010054843,-27.359999,34.02,-9.3
1554880656295,4.0391417,1.2091087999999999,8.842057,0.0005137376999999999,0.002166739,-0.0008271115400000001,-27.779999,33.6,-9.3
1554880656315,4.0559015,1.2258687,8.842057,0.0017354682,-0.00027672196,-0.0008271115400000001,-27.779999,33.42,-9.54
1554880656335,4.0391417,1.2402343999999998,8.818114,-0.0007079928,-0.0021093178,-0.0014379768,-28.199999,34.32,-10.62
1554880656355,4.051113,1.23784,8.806142999999999,0.0005137376999999999,0.0015558738,0.0010054843,-27.599998,34.079997999999996,-10.38
1554880656376,4.0439300000000005,1.2282629999999999,8.820508,-0.003762319,0.0039993348,0.0010054843,-26.88,34.38,-9.96
1554880656395,4.005622,1.2091087999999999,8.818114,-0.003762319,0.0046102,0.0034489452,-27.0,34.86,-10.38
1554880656416,4.0032277,1.1899546,8.849239,-0.0019297232999999998,0.005221065,0.0010054843,-26.939999,34.739998,-10.44
1554880656435,4.0128045,1.1995316999999999,8.846846000000001,0.0005137376999999999,0.0015558738,0.0022272146,-27.24,34.86,-10.62
1554880656455,4.010410299999999,1.1684061000000001,8.844451,-0.0031514538,0.0039993348,0.0040598107,-27.72,34.739998,-10.8
1554880656476,4.041536,1.1492518999999999,8.858817,0.0005137376999999999,-0.0008875872,0.0016163494,-28.26,34.38,-10.74
1554880656495,4.075055600000001,1.1731946000000002,8.842057,-9.712756999999999e-05,-0.004552779,0.00039461894999999995,-28.199999,34.44,-10.86
1554880656515,4.1013927,1.2258687,8.825297,0.003568064,-0.005774509000000001,-0.002048842,-27.0,34.559998,-11.04
1554880656536,4.0798445,1.211503,8.810931,0.0047897943,-0.005163644,-0.0032705725,-26.58,34.14,-11.099999
1554880656556,4.0966043,1.211503,8.775017,0.0029571984999999996,0.0015558738,-0.0038814377,-26.46,34.38,-11.16
1554880656575,4.063084,1.2450229,8.786988000000001,0.0017354682,0.005221065,-0.0026597073,-26.88,34.32,-11.4
1554880656595,4.051113,1.2569941999999998,8.8324795,-0.0025405885999999996,0.005831930999999999,-0.0038814377,-27.779999,33.96,-11.04
1554880656616,4.0151987,1.2282629999999999,8.846846000000001,-0.0013188579999999998,0.0046102,-0.002048842,-27.24,33.42,-9.54
1554880656635,4.0128045,1.211503,8.825297,-9.712756999999999e-05,0.0039993348,-0.0051031685,-26.76,32.82,-8.88
1554880656655,3.9984387999999997,1.1731946000000002,8.858817,-0.003762319,0.005221065,0.0028380797999999997,-26.22,33.719997,-9.84
1554880656676,3.9768906000000004,1.2043202,8.849239,-0.0013188579999999998,0.00094500853,0.0010054843,-25.98,34.44,-10.679999
1554880656695,4.024776,1.1827718,8.856422,-0.0019297232999999998,-0.0021093178,-0.00021624629,-27.539998999999998,34.38,-10.74
1554880656716,4.0295644,1.1923488000000002,8.837268,-0.0007079928,-0.0027201829999999997,0.0022272146,-28.199999,34.32,-10.74
1554880656735,4.06069,1.2210802,8.837268,-0.0007079928,-0.0076071047,-0.00021624629,-27.48,34.739998,-11.219999000000001
1554880656755,4.1037870000000005,1.211503,8.803747999999999,-0.0007079928,-0.006996239499999999,-0.0014379768,-27.539998999999998,34.98,-11.28
1554880656775,4.0966043,1.2234744,8.806142999999999,-9.712756999999999e-05,-0.004552779,-0.0026597073,-27.48,34.68,-11.28
1554880656795,4.0894213,1.2186858999999999,8.820508,-9.712756999999999e-05,0.0003341433,-0.0032705725,-27.119999,34.98,-10.92
1554880656816,4.0822387,1.2234744,8.825297,0.0011246029,0.006442796,-0.0014379768,-27.539998999999998,34.26,-10.559999000000001
1554880656835,4.034353299999999,1.2162915,8.825297,-9.712756999999999e-05,0.006442796,-0.002048842,-27.24,33.719997,-10.5
1554880656855,4.010410299999999,1.2043202,8.837268,0.0023463335999999997,0.0027776044,-0.0014379768,-26.699999,34.44,-10.32
1554880656875,4.022382,1.2162915,8.854028999999999,-0.0019297232999999998,0.0015558738,0.0010054843,-26.88,34.98,-10.8
1554880656895,4.0151987,1.2067145000000001,8.842057,0.0011246029,0.0003341433,-0.00021624629,-27.359999,34.559998,-11.04
1554880656915,4.024776,1.2067145000000001,8.844451,0.0023463335999999997,0.0003341433,0.0034489452,-27.539998999999998,34.14,-10.019999499999999
1554880656935,4.0199876,1.2043202,8.837268,-0.0007079928,0.0027776044,0.0028380797999999997,-27.24,34.8,-10.26
1554880656955,4.046324299999999,1.2043202,8.822903,-0.0025405885999999996,-0.0014984523999999999,0.0016163494,-27.06,34.26,-10.62
1554880656975,4.051113,1.185166,8.815719999999999,-9.712756999999999e-05,-0.0008875872,-0.0014379768,-26.82,33.78,-10.019999499999999
1554880656995,4.051113,1.2091087999999999,8.837268,-0.0025405885999999996,-0.0014984523999999999,-0.0014379768,-27.3,33.66,-10.74
1554880657016,4.07745,1.211503,8.820508,-0.0019297232999999998,-0.00027672196,-0.0008271115400000001,-27.18,34.14,-10.62
1554880657035,4.0535073,1.211503,8.830086,-0.0025405885999999996,-0.0027201829999999997,-0.0038814377,-26.699999,35.16,-10.5
1554880657055,4.075055600000001,1.2354459,8.8324795,-0.0013188579999999998,0.0015558738,-0.0026597073,-27.18,34.8,-10.8
1554880657075,4.0559015,1.2162915,8.818114,0.0011246029,0.002166739,-0.002048842,-27.42,34.38,-10.2
1554880657095,4.022382,1.2210802,8.806142999999999,-9.712756999999999e-05,0.002166739,-0.0038814377,-27.3,33.719997,-9.96
1554880657115,4.0199876,1.2210802,8.834874000000001,-0.0007079928,0.00094500853,0.0010054843,-26.76,33.12,-9.599999
1554880657135,4.0151987,1.211503,8.827691,-0.0007079928,0.0015558738,-0.0008271115400000001,-26.699999,34.32,-10.38
1554880657155,4.0199876,1.1923488000000002,8.856422,0.0005137376999999999,-0.00027672196,-0.0014379768,-27.48,35.04,-11.88
1554880657175,4.0391417,1.2450229,8.846846000000001,0.0023463335999999997,-0.0033310482,0.00039461894999999995,-27.779999,34.739998,-12.059999000000001
1554880657195,4.046324299999999,1.2306572,8.813326,0.003568064,-0.004552779,-0.002048842,-28.019999,33.96,-11.46
1554880657215,4.022382,1.2186858999999999,8.810931,-9.712756999999999e-05,0.00094500853,0.0040598107,-27.539998999999998,34.14,-10.8
1554880657235,4.0535073,1.1803774999999999,8.813326,-0.0019297232999999998,0.006442796,0.0010054843,-26.88,34.739998,-10.86
1554880657256,4.0798445,1.1708003,8.839663,-0.0025405885999999996,0.0039993348,-0.0008271115400000001,-27.24,34.62,-11.4
1554880657275,4.0582957,1.1995316999999999,8.842057,-0.0019297232999999998,0.002166739,-0.0051031685,-27.24,34.86,-10.679999
1554880657295,4.063084,1.201926,8.839663,0.0005137376999999999,-0.0027201829999999997,-0.004492303,-27.42,34.26,-10.2
1554880657316,4.0295644,1.2258687,8.815719999999999,-0.0031514538,-0.004552779,-0.0008271115400000001,-27.66,33.84,-10.86
1554880657335,4.034353299999999,1.2186858999999999,8.806142999999999,-0.0013188579999999998,0.00094500853,-0.0008271115400000001,-27.48,33.78,-11.34
1554880657355,4.0391417,1.2306572,8.815719999999999,-0.0031514538,0.0027776044,-0.0008271115400000001,-27.18,33.78,-11.4
1554880657375,4.0391417,1.2162915,8.846846000000001,0.0017354682,0.0033884696,-0.00021624629,-26.88,34.32,-10.98
1554880657395,4.041536,1.2162915,8.834874000000001,0.0005137376999999999,0.0003341433,0.0016163494,-27.119999,34.739998,-10.62
1554880657415,4.0151987,1.2258687,8.820508,-0.0007079928,-0.0014984523999999999,0.0010054843,-27.119999,34.92,-10.44
1554880657436,4.0391417,1.2354459,8.827691,-0.0007079928,0.0015558738,0.00039461894999999995,-26.699999,34.86,-10.26
1554880657455,4.048719,1.1827718,8.854028999999999,0.0023463335999999997,0.002166739,-0.0008271115400000001,-27.06,34.5,-11.16
1554880657475,4.046324299999999,1.2138973,8.837268,0.0005137376999999999,-0.004552779,-0.00021624629,-27.42,34.559998,-12.059999000000001
1554880657495,4.041536,1.2186858999999999,8.822903,-0.0007079928,-0.0027201829999999997,-0.0008271115400000001,-27.48,35.04,-11.219999000000001
1554880657516,4.0367475,1.1971374,8.815719999999999,-0.0007079928,-0.006385374300000001,-0.0014379768,-27.42,34.62,-10.679999
1554880657535,4.070266999999999,1.1947431999999998,8.825297,0.0005137376999999999,-0.00027672196,-0.0014379768,-27.72,33.96,-10.92
1554880657555,4.046324299999999,1.211503,8.839663,0.0011246029,-0.0021093178,-0.004492303,-27.84,34.559998,-11.28
1554880657576,4.0535073,1.2210802,8.818114,0.0023463335999999997,-0.005163644,-0.0008271115400000001,-27.599998,34.38,-10.98
1554880657595,4.048719,1.2210802,8.810931,0.0005137376999999999,-0.0021093178,-0.0008271115400000001,-27.48,34.079997999999996,-11.04
1554880657615,4.051113,1.211503,8.801354,0.0005137376999999999,0.0027776044,0.00039461894999999995,-26.88,34.38,-10.26
1554880657635,4.0367475,1.2043202,8.830086,0.0005137376999999999,0.0046102,-0.0014379768,-26.88,34.559998,-9.96
1554880657655,4.041536,1.1779832000000001,8.837268,-0.0007079928,0.0039993348,0.0022272146,-26.88,35.1,-11.099999
1554880657675,4.0391417,1.1995316999999999,8.851633999999999,-9.712756999999999e-05,0.00094500853,-0.00021624629,-27.24,34.8,-11.219999000000001
1554880657695,4.0439300000000005,1.1947431999999998,8.854028999999999,0.0017354682,0.002166739,0.0040598107,-27.3,34.44,-10.92
1554880657716,4.0391417,1.2091087999999999,8.827691,0.0029571984999999996,-0.0014984523999999999,0.0016163494,-26.939999,34.86,-10.74
1554880657735,4.0367475,1.2186858999999999,8.813326,-0.0007079928,-0.005774509000000001,-0.0008271115400000001,-26.939999,34.38,-9.42
1554880657755,4.048719,1.2258687,8.8085375,-0.0007079928,0.0033884696,0.0034489452,-26.88,34.2,-9.599999
1554880657776,4.0918155,1.2067145000000001,8.825297,-0.0019297232999999998,-0.0008875872,-0.002048842,-26.699999,34.739998,-10.8
1554880657795,4.0582957,1.2402343999999998,8.827691,-0.0013188579999999998,0.0033884696,-0.004492303,-27.18,34.38,-10.8
1554880657815,4.048719,1.201926,8.858817,-0.0007079928,0.006442796,-0.0014379768,-27.119999,34.14,-10.62
1554880657835,4.041536,1.211503,8.854028999999999,0.0023463335999999997,0.0033884696,-0.0038814377,-26.699999,33.78,-11.4
1554880657855,4.017593,1.211503,8.846846000000001,0.0023463335999999997,0.00094500853,-0.0051031685,-26.4,33.84,-10.019999499999999
1554880657875,4.005622,1.211503,8.844451,0.0011246029,0.0015558738,-0.00021624629,-26.22,34.32,-7.259999799999999
1554880657896,4.0032277,1.1947431999999998,8.818114,-0.0007079928,0.0046102,-0.0014379768,-26.88,33.96,-6.42
1554880657915,4.0295644,1.1971374,8.842057,0.0005137376999999999,-0.0033310482,-0.0026597073,-26.76,33.6,-6.06
1554880657935,4.048719,1.2210802,8.858817,0.0005137376999999999,-0.0021093178,-0.00021624629,-27.539998999999998,33.899998,-7.74
1554880657956,4.046324299999999,1.1971374,8.842057,0.0017354682,-0.0076071047,0.0040598107,-27.599998,34.26,-8.7
1554880657975,4.06069,1.2138973,8.798960000000001,0.0011246029,-0.0033310482,0.0016163494,-27.24,33.719997,-7.68
1554880657995,4.07745,1.2258687,8.810931,0.0023463335999999997,-0.00027672196,0.00039461894999999995,-26.58,33.719997,-7.44
1554880658016,4.0822387,1.2330515,8.820508,0.0005137376999999999,0.002166739,-0.0014379768,-26.279999,34.32,-7.9199996
1554880658035,4.0559015,1.2138973,8.813326,-0.0007079928,0.005831930999999999,-0.00021624629,-26.039998999999998,34.739998,-7.9199996
1554880658056,4.0559015,1.2043202,8.827691,-0.006816645,0.0046102,0.0010054843,-26.039998999999998,33.899998,-7.3799996
1554880658075,4.0582957,1.2043202,8.844451,-0.003762319,0.005831930999999999,0.0010054843,-26.279999,33.96,-7.08
1554880658095,4.0367475,1.1995316999999999,8.818114,-0.0007079928,0.0015558738,-0.0032705725,-27.0,34.44,-7.3799996
1554880658116,4.024776,1.1947431999999998,8.856422,-0.0007079928,0.0027776044,-0.0008271115400000001,-27.48,34.32,-8.34
1554880658135,4.000833,1.2210802,8.846846000000001,0.0005137376999999999,0.00094500853,0.0016163494,-27.42,34.5,-9.42
1554880658156,4.0080160000000005,1.201926,8.8324795,-0.0025405885999999996,-0.0033310482,0.0010054843,-26.699999,33.96,-8.639999000000001
1554880658175,4.048719,1.201926,8.837268,-9.712756999999999e-05,-0.0021093178,0.0016163494,-25.92,33.78,-7.62
1554880658195,4.048719,1.2282629999999999,8.820508,0.0017354682,-0.003941913,0.00039461894999999995,-26.279999,34.02,-7.68
1554880658215,4.065479,1.2282629999999999,8.815719999999999,0.0005137376999999999,-0.0033310482,0.0010054843,-26.58,33.96,-7.62
1554880658235,4.0726614,1.211503,8.806142999999999,-9.712756999999999e-05,0.002166739,0.0028380797999999997,-26.76,34.02,-7.74
1554880658256,4.063084,1.2210802,8.806142999999999,-0.0025405885999999996,0.0033884696,0.0016163494,-26.88,34.32,-8.76
1554880658275,4.0535073,1.185166,8.856422,-0.0013188579999999998,0.002166739,0.0010054843,-27.0,34.2,-9.24
1554880658295,4.034353299999999,1.1947431999999998,8.854028999999999,-0.0031514538,-0.00027672196,0.0010054843,-26.099998,33.48,-7.5
1554880658315,4.034353299999999,1.2138973,8.830086,0.0005137376999999999,-0.0027201829999999997,-0.0057140337,-26.76,34.02,-6.8999996
1554880658335,4.0391417,1.2091087999999999,8.827691,-0.0025405885999999996,-0.0014984523999999999,-0.00021624629,-26.88,34.14,-7.3799996
1554880658356,4.0726614,1.211503,8.834874000000001,-9.712756999999999e-05,0.0003341433,0.0010054843,-26.88,34.079997999999996,-7.3199997
1554880658375,4.084633,1.2306572,8.830086,-0.0013188579999999998,-0.00027672196,-0.002048842,-26.519999,33.899998,-6.48
1554880658396,4.0559015,1.1995316999999999,8.837268,-0.0007079928,0.002166739,-0.0026597073,-27.06,33.84,-6.72
1554880658415,4.0439300000000005,1.1899546,8.834874000000001,0.0017354682,0.0039993348,0.0022272146,-26.939999,34.32,-7.98
1554880658435,4.02717,1.2043202,8.844451,-0.0007079928,0.002166739,0.0016163494,-26.46,34.62,-9.0
1554880658456,4.0582957,1.2306572,8.825297,-0.0013188579999999998,-0.00027672196,0.0010054843,-26.34,33.78,-8.7
1554880658476,4.048719,1.2091087999999999,8.834874000000001,-0.0013188579999999998,0.0003341433,0.0016163494,-26.699999,33.719997,-8.58
1554880658495,4.065479,1.2186858999999999,8.844451,-0.0013188579999999998,0.0027776044,0.0022272146,-26.76,34.38,-8.7
1554880658515,4.0678730000000005,1.2258687,8.839663,0.0011246029,-0.0014984523999999999,-0.002048842,-26.88,34.559998,-8.639999000000001
1554880658536,4.065479,1.1995316999999999,8.834874000000001,-0.0007079928,0.005221065,-0.00021624629,-27.119999,34.739998,-8.4
1554880658556,4.02717,1.1875603000000001,8.849239,-9.712756999999999e-05,0.005221065,-0.00021624629,-26.46,34.92,-8.46
1554880658575,4.041536,1.1779832000000001,8.839663,-0.0007079928,0.005831930999999999,-0.0032705725,-26.46,34.5,-9.059999000000001
1554880658596,4.051113,1.1731946000000002,8.856422,-0.0013188579999999998,0.0046102,-0.0032705725,-27.3,34.5,-8.28
1554880658615,4.034353299999999,1.1899546,8.873182,0.0005137376999999999,-0.003941913,-0.0014379768,-27.66,34.32,-7.98
1554880658636,4.0080160000000005,1.211503,8.849239,0.0011246029,-0.0008875872,-0.0014379768,-26.58,34.8,-9.059999000000001
1554880658655,4.0199876,1.2234744,8.830086,0.0017354682,-0.0027201829999999997,-0.0014379768,-25.92,34.739998,-9.0
1554880658675,4.0559015,1.2450229,8.825297,-9.712756999999999e-05,-0.004552779,-0.0014379768,-26.22,34.2,-8.28
1554880658696,4.0678730000000005,1.2522057,8.820508,0.0005137376999999999,-0.006996239499999999,-0.0038814377,-26.64,33.78,-7.08
1554880658716,4.0798445,1.2234744,8.806142999999999,-0.0025405885999999996,-0.00027672196,-0.00021624629,-26.4,33.719997,-7.74
1554880658735,4.0391417,1.2450229,8.806142999999999,-0.003762319,0.0015558738,0.0010054843,-26.699999,34.02,-8.7
1554880658756,4.06069,1.2186858999999999,8.839663,0.0017354682,-0.0021093178,-0.002048842,-26.279999,33.84,-8.76
1554880658775,4.034353299999999,1.2210802,8.837268,-0.0031514538,0.00094500853,-0.0026597073,-26.039998999999998,33.96,-9.0
1554880658795,4.034353299999999,1.2138973,8.834874000000001,-0.003762319,0.0027776044,-0.002048842,-26.88,34.079997999999996,-8.58
1554880658816,4.0199876,1.1899546,8.842057,-0.0025405885999999996,0.0039993348,0.00039461894999999995,-26.939999,33.96,-8.099999
1554880658835,4.0319586,1.1803774999999999,8.851633999999999,-0.0031514538,-0.00027672196,0.0022272146,-26.699999,33.719997,-7.68
1554880658855,4.0439300000000005,1.185166,8.865999,-0.0019297232999999998,0.0003341433,-0.0014379768,-27.18,34.26,-9.12
1554880658875,4.07745,1.1660118,8.839663,-0.0013188579999999998,0.00094500853,0.0022272146,-27.359999,34.38,-9.599999
1554880658895,4.0822387,1.2186858999999999,8.815719999999999,-0.0007079928,-0.0008875872,-0.002048842,-26.939999,34.559998,-9.9
1554880658915,4.075055600000001,1.2186858999999999,8.825297,-0.0013188579999999998,0.002166739,-0.004492303,-26.82,34.079997999999996,-8.82
1554880658936,4.0582957,1.2091087999999999,8.851633999999999,0.0011246029,0.0033884696,-0.0026597073,-26.279999,33.899998,-9.36
1554880658955,4.0439300000000005,1.2210802,8.842057,-0.0007079928,0.0003341433,-0.0032705725,-26.279999,34.44,-9.42
1554880658976,4.0439300000000005,1.2234744,8.827691,0.0017354682,-0.0014984523999999999,-0.0051031685,-26.82,34.14,-8.88
1554880659001,4.048719,1.2402343999999998,8.837268,0.0023463335999999997,-0.0027201829999999997,-0.0038814377,-26.58,33.36,-8.82
1554880659016,4.0319586,1.2330515,8.815719999999999,-9.712756999999999e-05,-0.0021093178,-0.00021624629,-27.359999,33.18,-8.16
1554880659035,4.022382,1.2426286,8.815719999999999,-0.0013188579999999998,0.002166739,0.0010054843,-27.48,34.02,-8.28
1554880659055,4.02717,1.2282629999999999,8.846846000000001,-9.712756999999999e-05,0.0033884696,0.0022272146,-27.06,34.8,-9.3
1554880659075,4.0439300000000005,1.2354459,8.8324795,-0.0013188579999999998,0.00094500853,0.0022272146,-27.0,34.739998,-10.019999499999999
1554880659095,4.063084,1.2091087999999999,8.839663,-0.0025405885999999996,0.0015558738,0.0016163494,-26.64,34.68,-10.92
1554880659116,4.0582957,1.1995316999999999,8.794171,-0.0007079928,-0.0008875872,-0.00021624629,-26.82,34.26,-10.38
1554880659135,4.0678730000000005,1.1803774999999999,8.858817,-0.0043731844,0.0003341433,0.0028380797999999997,-26.76,34.5,-10.2
1554880659155,4.084633,1.1995316999999999,8.839663,-0.0007079928,-0.0014984523999999999,-0.0014379768,-26.88,34.5,-11.219999000000001
1554880659175,4.0798445,1.1899546,8.846846000000001,-0.0031514538,-0.0008875872,-0.0026597073,-26.88,34.32,-11.099999
1554880659195,4.046324299999999,1.1995316999999999,8.827691,0.0011246029,0.00094500853,-0.0026597073,-26.82,35.16,-10.62
1554880659216,4.0439300000000005,1.201926,8.837268,0.0005137376999999999,0.0027776044,0.00039461894999999995,-26.939999,35.16,-10.019999499999999
1554880659235,4.051113,1.1827718,8.820508,0.0017354682,-0.0021093178,-0.0051031685,-26.88,34.38,-10.139999000000001
1554880659256,4.063084,1.2162915,8.861211,0.0005137376999999999,0.0027776044,-0.00021624629,-27.0,34.739998,-10.38
1554880659276,4.0439300000000005,1.2282629999999999,8.856422,0.0041789290000000005,-0.005774509000000001,-0.0051031685,-27.24,34.92,-11.04
1554880659296,4.046324299999999,1.211503,8.806142999999999,0.0023463335999999997,-0.0027201829999999997,-0.0014379768,-27.18,34.559998,-11.4
1554880659315,4.0439300000000005,1.2282629999999999,8.8085375,0.0005137376999999999,-0.0027201829999999997,0.00039461894999999995,-27.0,34.68,-11.219999000000001
1554880659335,4.046324299999999,1.2282629999999999,8.834874000000001,-9.712756999999999e-05,-0.0014984523999999999,-0.002048842,-27.48,35.16,-11.519999499999999
1554880659355,4.051113,1.2354459,8.8324795,-0.0025405885999999996,0.00094500853,-0.0008271115400000001,-27.779999,34.98,-11.7
1554880659375,4.046324299999999,1.211503,8.825297,-9.712756999999999e-05,0.002166739,0.0010054843,-26.519999,34.2,-10.26
1554880659395,4.048719,1.1875603000000001,8.837268,-0.0025405885999999996,0.00094500853,0.00039461894999999995,-26.58,34.02,-10.62
1554880659415,4.0319586,1.1923488000000002,8.849239,-0.0007079928,0.002166739,-0.0032705725,-26.939999,34.559998,-11.04
1554880659435,4.0439300000000005,1.1995316999999999,8.849239,-9.712756999999999e-05,-0.0014984523999999999,-0.0014379768,-28.019999,35.16,-11.639999000000001
1554880659456,4.048719,1.2306572,8.854028999999999,0.0023463335999999997,-0.0027201829999999997,-0.00021624629,-27.84,35.219997,-12.0
1554880659475,4.022382,1.2282629999999999,8.822903,0.0029571984999999996,-0.006385374300000001,-0.002048842,-27.0,34.44,-11.94
1554880659495,4.046324299999999,1.2210802,8.827691,0.0047897943,-0.00027672196,0.00039461894999999995,-26.58,35.04,-11.46
1554880659516,4.048719,1.2306572,8.803747999999999,-0.0007079928,-0.0033310482,-0.0008271115400000001,-26.82,34.62,-10.8
1554880659536,4.0535073,1.2138973,8.822903,-0.0007079928,-0.00027672196,0.0010054843,-26.82,34.44,-11.28
1554880659555,4.063084,1.2043202,8.818114,-0.003762319,0.0027776044,0.0022272146,-26.699999,35.28,-12.059999000000001
1554880659575,4.0582957,1.201926,8.844451,-0.0013188579999999998,0.0015558738,-0.0026597073,-26.4,34.86,-12.179999
1554880659596,4.065479,1.1971374,8.837268,-0.0031514538,0.0027776044,-0.0014379768,-26.519999,34.739998,-11.4
1554880659615,4.034353299999999,1.2258687,8.810931,-0.006816645,0.0015558738,-0.00021624629,-27.0,34.739998,-11.28
1554880659635,4.0391417,1.211503,8.8085375,-0.0025405885999999996,0.002166739,-0.0014379768,-26.76,34.739998,-11.94
1554880659655,4.0582957,1.2258687,8.815719999999999,-0.003762319,0.00094500853,-0.0014379768,-26.4,34.2,-11.82
1554880659675,4.051113,1.2186858999999999,8.8324795,-0.0013188579999999998,0.0003341433,-0.0008271115400000001,-27.24,34.26,-11.4
1554880659695,4.0678730000000005,1.2043202,8.842057,-0.0013188579999999998,-0.00027672196,0.0034489452,-27.779999,34.86,-12.0
1554880659715,4.0726614,1.211503,8.803747999999999,-9.712756999999999e-05,-0.004552779,0.0010054843,-27.0,34.5,-11.46
1554880659735,4.0798445,1.2306572,8.818114,0.0011246029,-0.0008875872,0.00039461894999999995,-26.4,34.38,-10.74
1554880659755,4.0966043,1.2282629999999999,8.810931,0.0005137376999999999,-0.00027672196,-0.002048842,-26.699999,34.8,-11.88
1554880659775,4.075055600000001,1.2282629999999999,8.8085375,-9.712756999999999e-05,0.006442796,0.0010054843,-27.42,34.2,-12.96
1554880659795,4.070266999999999,1.2043202,8.806142999999999,0.0005137376999999999,0.005221065,-0.00021624629,-27.779999,34.26,-12.54
1554880659816,4.034353299999999,1.1971374,8.8324795,-0.0025405885999999996,0.005831930999999999,0.00039461894999999995,-27.48,34.68,-12.12
1554880659836,4.0582957,1.2138973,8.834874000000001,-0.0019297232999999998,0.0046102,-0.002048842,-27.66,34.559998,-13.019999499999999
1554880659856,4.0032277,1.1995316999999999,8.842057,-0.0007079928,0.0033884696,-0.00021624629,-28.38,34.559998,-15.66
1554880659875,4.0032277,1.1899546,8.846846000000001,0.0011246029,0.0039993348,-0.002048842,-28.019999,35.04,-17.52
1554880659895,4.010410299999999,1.1779832000000001,8.803747999999999,0.0005137376999999999,0.002166739,0.00039461894999999995,-27.42,35.76,-17.22
1554880659916,4.0439300000000005,1.1731946000000002,8.842057,-0.0019297232999999998,0.0003341433,-0.00021624629,-27.84,35.76,-17.1
1554880659935,4.046324299999999,1.1947431999999998,8.865999,-0.0031514538,-0.0014984523999999999,0.00039461894999999995,-27.359999,35.46,-16.26
1554880659955,4.046324299999999,1.2210802,8.8324795,-0.0007079928,0.00094500853,-0.002048842,-27.42,35.34,-16.26
1554880659975,4.0319586,1.2138973,8.830086,0.0005137376999999999,-0.0027201829999999997,-0.0026597073,-27.66,35.579997999999996,-16.92
1554880659996,4.048719,1.2498114,8.822903,-0.0019297232999999998,-0.005774509000000001,-0.0014379768,-27.72,35.34,-16.56
1554880660016,4.0559015,1.2713598999999998,8.806142999999999,0.0017354682,-0.005163644,-0.0038814377,-28.019999,35.16,-16.74
1554880660035,4.034353299999999,1.2617828000000002,8.786988000000001,-0.0043731844,-0.00027672196,0.00039461894999999995,-28.439999,35.46,-16.68
1554880660055,4.024776,1.2402343999999998,8.810931,-0.0031514538,0.0039993348,-0.00021624629,-29.279999,35.82,-17.16
1554880660075,4.0295644,1.1995316999999999,8.827691,-0.005594915,0.0046102,0.0022272146,-28.68,35.76,-17.52
1554880660096,4.0582957,1.201926,8.846846000000001,-0.003762319,0.0033884696,0.0010054843,-28.26,35.34,-16.74
1554880660115,4.0582957,1.1899546,8.865999,-0.0031514538,-0.00027672196,0.0028380797999999997,-28.56,35.64,-17.34
1554880660135,4.070266999999999,1.1947431999999998,8.810931,-0.0031514538,-0.0014984523999999999,0.0010054843,-28.199999,35.579997999999996,-17.16
1554880660155,4.0894213,1.2043202,8.803747999999999,-0.0019297232999999998,0.0033884696,0.0016163494,-27.539998999999998,35.76,-14.88
1554880660175,4.0989985,1.175589,8.822903,-0.0019297232999999998,0.005221065,-0.0014379768,-27.779999,36.12,-15.179998999999999
1554880660195,4.1085753,1.1899546,8.839663,0.0005137376999999999,0.00094500853,-0.0026597073,-28.98,36.059998,-17.039998999999998
1554880660215,4.06069,1.2162915,8.810931,0.003568064,-0.0008875872,-0.0014379768,-28.38,35.579997999999996,-17.279999
1554880660235,4.051113,1.2234744,8.794171,0.0011246029,-0.00027672196,-0.0014379768,-27.96,35.16,-16.74
1554880660255,4.0367475,1.2330515,8.796566,-0.0007079928,0.005831930999999999,-0.0014379768,-28.32,35.16,-15.78
1554880660275,4.017593,1.2426286,8.8324795,-9.712756999999999e-05,0.005831930999999999,0.0028380797999999997,-27.66,35.28,-15.719999
1554880660295,4.0151987,1.2234744,8.8324795,-9.712756999999999e-05,0.005831930999999999,0.0071141366,-27.359999,36.0,-16.199999
1554880660315,4.022382,1.2282629999999999,8.801354,-0.0025405885999999996,0.0046102,0.005892405999999999,-28.199999,36.36,-16.68
1554880660335,4.0080160000000005,1.2162915,8.810931,-0.004984049,0.0027776044,0.0065032714,-28.619999,36.059998,-16.619999
1554880660355,4.0367475,1.185166,8.830086,-0.004984049,0.002166739,0.0040598107,-28.199999,35.82,-16.68
1554880660375,4.065479,1.185166,8.818114,-0.003762319,-0.0021093178,0.0046706759999999995,-27.779999,35.82,-17.1
1554880660395,4.0559015,1.1971374,8.815719999999999,-0.0031514538,-0.0033310482,0.00039461894999999995,-28.08,35.7,-16.74
1554880660416,4.0391417,1.158829,8.815719999999999,-0.0043731844,0.0046102,0.0010054843,-28.5,35.64,-16.68
1554880660435,4.075055600000001,1.1779832000000001,8.8324795,-0.006816645,0.0070536607,0.0016163494,-28.019999,36.12,-17.1
1554880660455,4.0798445,1.1731946000000002,8.830086,-0.003762319,-0.00027672196,-0.00021624629,-27.84,35.46,-16.199999
1554880660475,4.0535073,1.1827718,8.856422,-0.0019297232999999998,-0.004552779,-0.0026597073,-27.24,34.38,-11.7
1554880660495,4.063084,1.1923488000000002,8.842057,-9.712756999999999e-05,-0.005163644,-0.004492303,-26.099998,33.719997,-7.9199996
1554880660515,4.0894213,1.2426286,8.818114,0.0029571984999999996,-0.006996239499999999,-0.004492303,-26.279999,33.84,-7.8599997
1554880660535,4.0966043,1.2737542,8.798960000000001,0.0047897943,-0.00821797,-0.0069357635999999995,-26.22,34.5,-8.16
1554880660555,4.0918155,1.2713598999999998,8.74868,0.0047897943,-0.0021093178,-0.0026597073,-26.519999,34.8,-9.059999000000001
1554880660575,4.106180999999999,1.2593886,8.741497,0.0017354682,0.005831930999999999,-0.0032705725,-26.88,33.96,-8.94
1554880660596,4.1037870000000005,1.2522057,8.794171,-0.0043731844,0.016216641,0.0010054843,-26.039998999999998,33.48,-8.16
1554880660615,4.046324299999999,1.23784,8.815719999999999,-0.004984049,0.014384043000000001,0.00039461894999999995,-26.099998,34.02,-7.259999799999999
1554880660635,3.991256,1.1947431999999998,8.863605499999998,-0.0025405885999999996,0.011329718,-0.0008271115400000001,-26.22,34.44,-7.5
1554880660655,3.962525,1.1492518999999999,8.856422,-0.003762319,0.010718852,0.0010054843,-26.34,34.38,-7.68
1554880660675,3.9529476000000003,1.1684061000000001,8.868394,-0.0031514538,0.005831930999999999,0.0046706759999999995,-26.34,33.96,-7.3199997
1554880660695,3.9697077000000003,1.1564348,8.858817,0.0017354682,-0.0014984523999999999,0.0034489452,-25.859999,34.079997999999996,-8.16
1554880660716,4.034353299999999,1.1731946000000002,8.846846000000001,0.0023463335999999997,-0.010050566,0.00039461894999999995,-25.98,34.079997999999996,-8.639999000000001
1554880660735,4.070266999999999,1.1684061000000001,8.827691,0.0023463335999999997,-0.008828836,-0.0014379768,-27.119999,33.899998,-8.4
1554880660755,4.1037870000000005,1.1923488000000002,8.830086,0.0017354682,-0.006996239499999999,0.0010054843,-27.0,33.96,-8.099999
1554880660775,4.113364,1.2234744,8.801354,0.0023463335999999997,-0.006385374300000001,-0.002048842,-26.279999,33.66,-7.7999997
1554880660795,4.1013927,1.2569941999999998,8.775017,-0.0007079928,-0.0014984523999999999,-0.0038814377,-26.82,33.3,-7.3199997
1554880660815,4.051113,1.2330515,8.801354,-0.0031514538,0.0039993348,-0.0032705725,-26.58,34.32,-7.98
1554880660835,4.0535073,1.2306572,8.794171,-0.003762319,0.0033884696,-0.0014379768,-25.92,35.579997999999996,-9.3
1554880660855,4.048719,1.2234744,8.830086,-0.0043731844,0.005221065,-0.002048842,-26.34,35.1,-9.48
1554880660875,4.0295644,1.2330515,8.844451,-0.0007079928,0.0033884696,0.0010054843,-26.699999,34.2,-7.62
1554880660895,4.024776,1.1947431999999998,8.846846000000001,-0.0007079928,-0.00027672196,0.0010054843,-26.82,33.78,-6.8999996
1554880660916,4.022382,1.1995316999999999,8.820508,-9.712756999999999e-05,-0.0014984523999999999,0.0034489452,-27.18,32.94,-7.3799996
1554880660935,4.046324299999999,1.1779832000000001,8.830086,-0.0013188579999999998,-0.0014984523999999999,-0.0008271115400000001,-26.939999,33.0,-7.14
1554880660956,4.048719,1.1684061000000001,8.825297,-0.0007079928,0.0003341433,0.00039461894999999995,-26.82,34.32,-7.98
1554880660975,4.070266999999999,1.1899546,8.8324795,-0.0025405885999999996,-0.00027672196,0.0022272146,-26.46,34.559998,-8.94
1554880660995,4.06069,1.1971374,8.813326,-9.712756999999999e-05,0.0003341433,0.0016163494,-26.16,34.14,-8.46
1554880661015,4.0559015,1.2091087999999999,8.798960000000001,-0.0019297232999999998,0.0015558738,0.0010054843,-27.06,34.2,-8.58
1554880661035,4.065479,1.2234744,8.803747999999999,-0.0013188579999999998,0.0046102,-0.0008271115400000001,-27.3,34.2,-9.36
1554880661056,4.048719,1.211503,8.813326,0.0005137376999999999,0.0033884696,-0.00021624629,-26.939999,33.66,-9.179999
1554880661075,4.051113,1.2210802,8.810931,-0.0013188579999999998,0.006442796,0.0028380797999999997,-26.279999,33.6,-9.0
1554880661095,4.048719,1.211503,8.830086,-0.0019297232999999998,0.006442796,0.0034489452,-26.88,35.28,-10.74
1554880661115,4.0367475,1.2210802,8.849239,0.0017354682,0.0039993348,-0.0014379768,-27.06,35.16,-11.82
1554880661135,4.010410299999999,1.2091087999999999,8.846846000000001,0.0023463335999999997,-0.00027672196,0.00039461894999999995,-27.0,35.46,-12.3
1554880661155,4.000833,1.2162915,8.813326,0.0011246029,-0.0008875872,-0.002048842,-27.119999,35.7,-12.179999
1554880661175,3.9984387999999997,1.2210802,8.825297,-0.0007079928,-0.0014984523999999999,0.00039461894999999995,-26.939999,34.92,-12.3
1554880661195,4.02717,1.2186858999999999,8.822903,-0.0031514538,0.00094500853,-0.00021624629,-27.599998,34.38,-11.88
1554880661216,4.022382,1.1899546,8.820508,-0.0031514538,0.0015558738,-0.00021624629,-28.08,34.68,-11.94
1554880661235,4.02717,1.1923488000000002,8.822903,-0.0025405885999999996,0.0015558738,0.0016163494,-27.72,35.219997,-13.259998999999999
1554880661255,4.063084,1.1731946000000002,8.856422,-0.005594915,-0.003941913,-0.00021624629,-27.539998999999998,34.98,-13.2
1554880661276,4.051113,1.1875603000000001,8.818114,-0.0007079928,-0.003941913,-0.0032705725,-27.18,34.8,-12.48
1554880661295,4.06069,1.1899546,8.801354,-0.0013188579999999998,-0.0027201829999999997,-0.002048842,-26.939999,35.28,-12.059999000000001
1554880661315,4.0989985,1.158829,8.803747999999999,-0.0007079928,-0.00027672196,-0.0038814377,-26.76,35.04,-11.88
1554880661335,4.122941,1.2091087999999999,8.786988000000001,0.0011246029,0.0033884696,-0.002048842,-27.06,34.14,-12.059999000000001
1554880661355,4.1037870000000005,1.2234744,8.827691,-0.0013188579999999998,0.005221065,-0.0051031685,-27.539998999999998,34.079997999999996,-11.94
1554880661375,4.0966043,1.2354459,8.796566,-0.0025405885999999996,0.009497122,-0.006324899,-27.18,34.8,-12.24
1554880661395,4.0080160000000005,1.2234744,8.813326,-0.0025405885999999996,0.010718852,0.0010054843,-27.119999,34.739998,-12.24
1554880661415,3.9481592000000005,1.2330515,8.856422,-9.712756999999999e-05,0.0076645263,0.0022272146,-27.119999,34.739998,-11.88
1554880661435,3.9433705999999997,1.2258687,8.882759,0.0023463335999999997,0.0039993348,0.007725002,-27.599998,35.52,-11.94
1554880661455,3.9721019999999996,1.2091087999999999,8.863605499999998,-9.712756999999999e-05,0.002166739,0.0065032714,-27.84,35.579997999999996,-12.059999000000001
1554880661475,4.000833,1.2067145000000001,8.827691,0.0005137376999999999,-0.0027201829999999997,0.0071141366,-27.0,35.28,-11.88
1554880661496,4.0391417,1.201926,8.842057,-0.0007079928,-0.0076071047,0.0065032714,-27.06,34.68,-12.96
1554880661515,4.0822387,1.1971374,8.786988000000001,-0.006816645,-0.003941913,0.0046706759999999995,-28.38,35.1,-15.78
1554880661535,4.0918155,1.1731946000000002,8.796566,-0.006816645,0.0003341433,0.0040598107,-28.619999,35.82,-17.16
1554880661555,4.1085753,1.175589,8.815719999999999,-0.008649241,0.0039993348,-0.0014379768,-28.26,35.52,-17.039998999999998
1554880661576,4.1013927,1.1564348,8.837268,-0.009260106,0.009497122,-0.0038814377,-28.32,35.579997999999996,-16.98
1554880661595,4.075055600000001,1.1492518999999999,8.839663,-0.008649241,0.005221065,-0.006324899,-28.38,36.0,-17.1
1554880661615,4.000833,1.1468576000000001,8.937828,-0.0025405885999999996,-0.008828836,-0.004492303,-27.779999,35.88,-16.56
1554880661636,3.9960446000000003,1.1995316999999999,8.877971,0.005400659499999999,-0.008828836,-0.0032705725,-27.48,35.52,-16.44
1554880661655,4.048719,1.1803774999999999,8.827691,0.0041789290000000005,-0.00027672196,-0.00876836,-28.019999,35.34,-17.34
1554880661675,4.0367475,1.2450229,8.777411,-0.0031514538,0.0082753915,-0.0032705725,-28.859999,34.92,-17.52
1554880661695,3.981679,1.3216397,8.751075,-0.004984049,0.010718852,0.0022272146,-28.92,35.28,-17.1
1554880661715,4.051113,1.2929084,8.724737,0.0017354682,0.005221065,0.016887981,-27.66,35.1,-15.66
1554880661735,4.1085753,1.1731946000000002,8.794171,0.0023463335999999997,0.0076645263,0.020553171999999998,-28.08,34.8,-15.36
1554880661755,4.146884,1.1205206,8.877971,-0.004984049,0.022936157999999998,0.010168463,-28.68,35.1,-16.26
1554880661775,4.1612496,1.1037607,8.956982,-0.011703568000000001,0.023547022,-0.002048842,-28.26,35.64,-16.92
1554880661795,3.9984387999999997,1.1253091,8.882759,-0.003762319,0.0070536607,-0.010600955,-28.26,35.94,-17.76
1554880661815,3.9242165,1.1157321000000002,8.822903,-9.712756999999999e-05,0.002166739,-0.009379225,-28.019999,35.76,-17.16
1554880661835,3.9170337,1.1420691,8.865999,-0.0007079928,0.0027776044,-0.0081574945,-28.14,35.64,-16.56
1554880661855,3.9361877,1.1779832000000001,8.937828,0.0029571984999999996,-0.0033310482,-0.00021624629,-28.26,35.28,-17.1
1554880661875,3.9721019999999996,1.2426286,8.882759,0.0047897943,-0.014326623,0.0010054843,-28.08,35.219997,-17.46
1554880661895,4.0319586,1.2569941999999998,8.825297,0.009065852,-0.020435274,0.0034489452,-28.5,35.52,-17.22
1554880661916,4.0942099999999995,1.2665714,8.798960000000001,0.007233255500000001,-0.019213544,-0.0008271115400000001,-28.14,35.28,-16.619999
1554880661935,4.070266999999999,1.2546,8.818114,0.0023463335999999997,-0.008828836,0.0010054843,-27.96,34.98,-16.38
1554880661956,4.048719,1.2426286,8.818114,-9.712756999999999e-05,0.0027776044,0.0022272146,-28.8,35.16,-16.619999
1554880661975,4.041536,1.2426286,8.794171,-0.0025405885999999996,0.006442796,-0.0008271115400000001,-28.199999,35.579997999999996,-16.8
1554880661995,4.0391417,1.201926,8.818114,-0.0074275109999999995,0.009497122,0.00039461894999999995,-28.019999,35.76,-17.1
1554880662015,4.0319586,1.1636176,8.887547999999999,-0.0025405885999999996,0.0046102,0.0010054843,-28.32,35.94,-17.46
1554880662035,4.051113,1.1731946000000002,8.882759,-0.0007079928,-0.003941913,-0.002048842,-28.019999,36.0,-17.039998999999998
1554880662055,4.0535073,1.185166,8.861211,-0.0025405885999999996,-0.0021093178,-0.00021624629,-28.68,35.34,-16.74
1554880662075,4.048719,1.1444633,8.8324795,0.0011246029,0.00094500853,-0.0057140337,-29.16,35.219997,-16.859999
1554880662095,4.0391417,1.1396747999999999,8.822903,-0.0013188579999999998,0.0027776044,-0.0038814377,-28.68,35.52,-17.279999
1554880662115,4.0582957,1.1636176,8.839663,0.0005137376999999999,0.0039993348,-0.0026597073,-28.08,35.76,-16.68
1554880662135,4.0535073,1.185166,8.8324795,0.0011246029,0.00094500853,-0.002048842,-28.38,35.1,-15.179998999999999
1554880662155,4.046324299999999,1.2043202,8.839663,0.0029571984999999996,0.0003341433,0.0016163494,-28.14,35.16,-15.839998999999999
1554880662175,4.034353299999999,1.211503,8.822903,0.0011246029,0.0015558738,-0.002048842,-27.72,35.88,-16.92
1554880662196,4.0128045,1.2043202,8.842057,-0.0031514538,0.009497122,0.0034489452,-28.32,35.579997999999996,-17.279999
1554880662215,3.981679,1.2043202,8.863605499999998,-0.0013188579999999998,0.005221065,0.0022272146,-28.32,35.52,-17.1
1554880662235,3.9936504,1.201926,8.846846000000001,-9.712756999999999e-05,0.0027776044,0.0016163494,-28.56,35.76,-16.38
1554880662255,3.9936504,1.1947431999999998,8.861211,0.0011246029,0.0015558738,0.0040598107,-28.56,35.76,-16.08
1554880662275,4.010410299999999,1.185166,8.846846000000001,0.0011246029,0.0003341433,0.0010054843,-27.48,35.28,-15.9
1554880662295,4.0295644,1.1731946000000002,8.861211,-0.0007079928,-0.0027201829999999997,-0.002048842,-27.66,35.7,-15.0
1554880662316,4.0559015,1.1971374,8.856422,-0.0013188579999999998,0.0015558738,-0.004492303,-28.439999,35.94,-14.759998999999999
1554880662335,4.1013927,1.201926,8.844451,-0.0007079928,0.0003341433,-0.00876836,-27.3,35.46,-14.519999499999999
1554880662356,4.034353299999999,1.1684061000000001,8.813326,0.0017354682,-0.0008875872,-0.0051031685,-26.64,35.34,-14.519999499999999
1554880662375,4.065479,1.1708003,8.798960000000001,-0.0043731844,0.00094500853,-0.0099900905,-28.14,34.92,-15.66
1554880662395,4.010410299999999,1.1731946000000002,8.842057,-0.003762319,0.002166739,-0.004492303,-29.22,35.1,-15.839998999999999
1554880662415,4.0319586,1.1947431999999998,8.851633999999999,-9.712756999999999e-05,0.0033884696,-0.006324899,-28.74,36.059998,-16.619999
1554880662435,4.0582957,1.1875603000000001,8.846846000000001,-0.0013188579999999998,0.0039993348,-0.0051031685,-28.439999,35.76,-16.8
1554880662455,4.0582957,1.1827718,8.868394,-0.0007079928,0.006442796,-0.0032705725,-28.74,35.579997999999996,-16.8
1554880662476,4.022382,1.175589,8.856422,-9.712756999999999e-05,0.00094500853,-0.0038814377,-29.099998,35.82,-17.52
1554880662495,4.0295644,1.211503,8.837268,0.0017354682,0.0003341433,-0.0032705725,-28.92,35.399998,-17.039998999999998
1554880662516,3.9792848,1.2186858999999999,8.818114,-9.712756999999999e-05,0.0015558738,-0.00021624629,-28.019999,35.7,-17.1
1554880662535,3.991256,1.2067145000000001,8.851633999999999,-0.0019297232999999998,0.0033884696,0.0022272146,-27.72,36.0,-17.4
1554880662556,4.005622,1.211503,8.865999,0.0005137376999999999,0.0027776044,0.0034489452,-26.699999,35.219997,-15.599998999999999
1554880662575,4.024776,1.201926,8.877971,0.0005137376999999999,-0.0008875872,0.0010054843,-26.76,35.28,-15.0
1554880662595,4.063084,1.1971374,8.839663,0.0005137376999999999,0.002166739,-0.002048842,-28.199999,35.76,-16.619999
1554880662615,3.991256,1.175589,8.846846000000001,-0.0031514538,0.0033884696,-0.0032705725,-27.779999,35.34,-17.46
1554880662637,4.000833,1.1827718,8.830086,-0.0013188579999999998,-0.0021093178,-0.002048842,-27.779999,35.64,-17.46
1554880662656,4.0151987,1.175589,8.854028999999999,-9.712756999999999e-05,-0.0008875872,-0.0026597073,-28.439999,35.94,-16.92
1554880662675,4.06069,1.1731946000000002,8.870789,-0.0013188579999999998,0.0027776044,-0.00021624629,-28.019999,35.399998,-16.8
1554880662695,4.06069,1.185166,8.844451,-0.0013188579999999998,-0.0021093178,-0.0057140337,-27.599998,35.88,-17.4
1554880662716,4.075055600000001,1.1971374,8.830086,0.0011246029,-0.0008875872,-0.0075466293000000005,-27.42,35.399998,-16.5
1554880662735,4.034353299999999,1.2330515,8.827691,-0.0019297232999999998,0.0015558738,-0.004492303,-27.359999,35.1,-15.66
1554880662755,4.0032277,1.2162915,8.837268,-0.0013188579999999998,0.006442796,-0.002048842,-27.42,35.76,-15.66
1554880662775,4.010410299999999,1.1636176,8.873182,-0.0007079928,0.006442796,-0.00021624629,-28.14,36.239998,-16.56
1554880662795,4.000833,1.2138973,8.875577,0.005400659499999999,-0.0033310482,0.00039461894999999995,-28.619999,36.18,-17.16
1554880662815,3.991256,1.2210802,8.822903,0.0017354682,-0.0021093178,0.005281541,-28.26,35.64,-16.92
1554880662835,4.0295644,1.2306572,8.825297,-9.712756999999999e-05,0.002166739,0.005892405999999999,-29.099998,35.219997,-16.98
1554880662856,4.0582957,1.2067145000000001,8.854028999999999,0.0005137376999999999,0.0027776044,0.0010054843,-29.64,35.1,-15.719999
1554880662875,4.075055600000001,1.1971374,8.856422,-0.0019297232999999998,0.0027776044,-0.0014379768,-29.039998999999998,35.219997,-14.46
1554880662895,4.0582957,1.1995316999999999,8.8324795,0.0011246029,0.00094500853,-0.004492303,-28.74,35.399998,-15.059999
1554880662916,4.0439300000000005,1.185166,8.825297,-0.0025405885999999996,0.0033884696,-0.0014379768,-28.8,35.579997999999996,-16.199999
1554880662935,4.0199876,1.1731946000000002,8.868394,-0.0025405885999999996,0.0027776044,-0.0038814377,-27.96,35.46,-16.68
1554880662955,4.005622,1.1708003,8.887547999999999,-9.712756999999999e-05,0.0033884696,-0.0026597073,-28.14,35.1,-16.619999
1554880662976,3.9888617999999996,1.2043202,8.875577,0.0005137376999999999,0.00094500853,-0.0026597073,-28.14,35.7,-15.9
1554880662995,3.964919,1.1995316999999999,8.882759,0.0011246029,0.0033884696,0.00039461894999999995,-28.08,36.12,-16.08
1554880663016,3.9936504,1.1708003,8.865999,0.0017354682,0.002166739,0.0022272146,-28.56,34.92,-16.74
1554880663035,4.0080160000000005,1.1779832000000001,8.863605499999998,-9.712756999999999e-05,0.0027776044,0.0028380797999999997,-28.38,34.92,-16.859999
1554880663055,4.046324299999999,1.1971374,8.873182,0.0011246029,-0.005774509000000001,0.0034489452,-28.5,35.94,-17.58
1554880663075,4.034353299999999,1.2162915,8.830086,0.0011246029,-0.0014984523999999999,0.0016163494,-28.14,35.1,-16.5
1554880663095,4.0391417,1.2402343999999998,8.815719999999999,-0.0025405885999999996,0.0015558738,0.0034489452,-27.72,34.44,-15.54
1554880663115,4.0295644,1.1923488000000002,8.837268,-0.003762319,0.0027776044,0.0010054843,-27.599998,34.86,-16.74
1554880663135,4.048719,1.2067145000000001,8.861211,0.0005137376999999999,0.0003341433,-0.0008271115400000001,-28.14,35.76,-16.859999
1554880663155,4.0367475,1.23784,8.842057,-0.0025405885999999996,-0.0021093178,-0.002048842,-28.68,35.82,-16.38
1554880663176,4.0295644,1.2426286,8.806142999999999,-0.0025405885999999996,0.00094500853,-0.00021624629,-28.199999,35.579997999999996,-16.26
1554880663195,4.0151987,1.2067145000000001,8.839663,-0.006816645,0.005831930999999999,0.00039461894999999995,-28.74,35.94,-17.16
1554880663216,4.022382,1.1995316999999999,8.854028999999999,-0.004984049,0.006442796,-0.002048842,-29.039998999999998,35.46,-17.52
1554880663235,3.9960446000000003,1.175589,8.887547999999999,-0.0007079928,0.0039993348,-0.002048842,-28.32,35.52,-16.74
1554880663255,3.9792848,1.175589,8.887547999999999,0.0017354682,0.0027776044,0.0028380797999999997,-28.5,36.12,-16.44
1554880663275,3.9984387999999997,1.1708003,8.851633999999999,-0.0019297232999999998,-0.00027672196,0.0016163494,-27.9,35.82,-15.599998999999999
1554880663295,4.017593,1.1899546,8.842057,-0.0013188579999999998,-0.00027672196,0.0046706759999999995,-27.779999,35.76,-15.66
1554880663316,4.0559015,1.1708003,8.861211,0.0011246029,-0.005163644,0.0016163494,-28.5,35.88,-17.16
1554880663335,4.0535073,1.1875603000000001,8.863605499999998,0.0041789290000000005,-0.006996239499999999,-0.002048842,-28.92,35.76,-17.46
1554880663355,4.0439300000000005,1.2186858999999999,8.834874000000001,0.0029571984999999996,-0.003941913,-0.00021624629,-28.98,35.88,-17.22
1554880663375,4.0535073,1.211503,8.820508,0.0011246029,-0.005163644,-0.0008271115400000001,-27.9,35.28,-16.92
1554880663396,4.0439300000000005,1.2210802,8.818114,0.0005137376999999999,-0.0033310482,-0.0032705725,-27.72,34.86,-16.56
1554880663415,4.046324299999999,1.2426286,8.8324795,-9.712756999999999e-05,-0.0008875872,-0.0014379768,-28.38,35.399998,-16.8
1554880663436,4.005622,1.2067145000000001,8.854028999999999,-0.0019297232999999998,0.0046102,0.0016163494,-28.74,35.76,-17.16
1554880663455,4.005622,1.1803774999999999,8.863605499999998,-0.0013188579999999998,0.006442796,-0.00021624629,-28.199999,36.239998,-16.8
1554880663476,4.0032277,1.185166,8.851633999999999,-0.003762319,0.0046102,0.00039461894999999995,-28.619999,35.94,-16.859999
1554880663495,4.034353299999999,1.1899546,8.868394,-0.003762319,0.0015558738,0.00039461894999999995,-28.26,35.579997999999996,-16.5
1554880663516,4.0295644,1.1684061000000001,8.868394,-9.712756999999999e-05,0.0033884696,-0.0008271115400000001,-27.359999,35.82,-16.199999
1554880663535,4.041536,1.1612233,8.827691,0.0011246029,0.0003341433,-0.0026597073,-28.68,35.46,-16.5
1554880663556,4.02717,1.2091087999999999,8.837268,0.0017354682,-0.0014984523999999999,-0.0014379768,-28.8,35.7,-16.38
1554880663575,4.048719,1.2258687,8.8324795,0.0017354682,-0.003941913,-0.0032705725,-28.199999,36.18,-16.5
1554880663595,4.02717,1.2234744,8.822903,-9.712756999999999e-05,-0.0008875872,0.0016163494,-28.439999,35.579997999999996,-16.14
1554880663615,4.024776,1.2234744,8.839663,0.0023463335999999997,0.002166739,0.0028380797999999997,-29.099998,35.219997,-16.14
1554880663635,4.0032277,1.2402343999999998,8.854028999999999,-0.003762319,0.005221065,0.005281541,-28.859999,34.98,-16.859999
1554880663655,4.0080160000000005,1.2043202,8.865999,-0.0025405885999999996,0.0070536607,0.0034489452,-28.14,35.399998,-17.46
1554880663675,4.0080160000000005,1.1827718,8.877971,-0.0007079928,0.0033884696,0.0022272146,-28.32,36.0,-17.46
1554880663696,4.0151987,1.1779832000000001,8.837268,-0.0013188579999999998,0.0039993348,0.0034489452,-28.08,35.88,-16.44
1554880663715,4.0128045,1.1875603000000001,8.873182,-0.0025405885999999996,-0.00027672196,0.0028380797999999997,-27.96,35.46,-15.719999
1554880663735,4.0367475,1.1708003,8.863605499999998,-0.0013188579999999998,-0.0027201829999999997,-0.002048842,-28.32,35.34,-15.9
1554880663756,4.063084,1.1923488000000002,8.849239,0.0005137376999999999,-0.003941913,-0.004492303,-28.14,35.28,-15.54
1554880663775,4.0080160000000005,1.1971374,8.904308,0.0041789290000000005,-0.005163644,-0.0057140337,-27.96,35.16,-16.08
1554880663796,4.0535073,1.185166,8.834874000000001,-0.0025405885999999996,0.00094500853,-0.0081574945,-28.5,34.98,-15.299999
1554880663815,4.0439300000000005,1.1923488000000002,8.825297,0.0005137376999999999,0.0003341433,-0.009379225,-29.279999,35.219997,-15.48
1554880663835,4.0535073,1.2258687,8.849239,0.0011246029,-0.00027672196,-0.0032705725,-28.68,35.52,-16.8
1554880663855,4.024776,1.2186858999999999,8.837268,0.0029571984999999996,-0.006385374300000001,-0.0014379768,-28.439999,34.92,-16.68
1554880663875,4.0080160000000005,1.2258687,8.818114,-0.0007079928,0.0015558738,0.0016163494,-28.32,35.52,-16.74
1554880663895,3.9864676,1.2138973,8.858817,-0.0007079928,0.0015558738,0.0040598107,-28.14,36.0,-16.5
1554880663915,3.991256,1.1971374,8.873182,0.0017354682,0.002166739,0.0040598107,-29.099998,35.46,-16.32
1554880663936,4.024776,1.175589,8.868394,0.003568064,-0.0027201829999999997,0.005281541,-29.34,35.399998,-16.5
1554880663956,4.005622,1.1779832000000001,8.856422,0.0023463335999999997,-0.003941913,0.0010054843,-29.46,35.579997999999996,-17.1
1554880663975,4.0032277,1.1636176,8.842057,-9.712756999999999e-05,0.00094500853,0.005281541,-29.34,35.76,-17.46
1554880663995,4.048719,1.1731946000000002,8.820508,0.0017354682,-0.00027672196,0.0010054843,-28.38,35.82,-17.16
1554880664016,4.0822387,1.1636176,8.861211,-9.712756999999999e-05,-0.00027672196,-0.002048842,-27.599998,35.94,-15.839998999999999
1554880664035,4.0822387,1.1564348,8.844451,-9.712756999999999e-05,-0.0008875872,-0.006324899,-27.96,35.94,-15.839998999999999
1554880664055,4.065479,1.1564348,8.827691,-0.0007079928,-0.0014984523999999999,-0.0069357635999999995,-28.38,34.98,-16.92
1554880664076,4.070266999999999,1.2210802,8.803747999999999,0.0029571984999999996,-0.005163644,-0.012433551000000001,-28.56,34.32,-17.279999
1554880664095,4.02717,1.2402343999999998,8.775017,-0.0007079928,-0.0021093178,-0.00876836,-28.26,35.34,-17.16
1554880664115,4.005622,1.2665714,8.794171,-0.0013188579999999998,0.005831930999999999,-0.004492303,-28.439999,35.88,-16.619999
1554880664135,3.991256,1.2546,8.849239,-0.0025405885999999996,0.0039993348,-0.0026597073,-28.74,35.82,-16.859999
1554880664155,3.9888617999999996,1.2593886,8.868394,-0.0019297232999999998,0.0027776044,0.0016163494,-28.439999,35.64,-16.98
1554880664175,4.005622,1.2258687,8.849239,0.0017354682,0.00094500853,0.0046706759999999995,-28.14,35.219997,-16.5
1554880664195,3.9792848,1.185166,8.868394,0.0029571984999999996,0.0015558738,0.005281541,-28.199999,35.219997,-16.38
1554880664215,4.005622,1.1708003,8.837268,-9.712756999999999e-05,0.0039993348,0.005892405999999999,-28.439999,35.94,-16.02
1554880664235,4.0391417,1.175589,8.842057,-0.0007079928,0.0033884696,0.005281541,-28.14,35.579997999999996,-15.839998999999999
1554880664256,4.046324299999999,1.1779832000000001,8.865999,-9.712756999999999e-05,-0.0021093178,0.0034489452,-28.26,35.28,-16.26
1554880664275,4.041536,1.1612233,8.856422,-9.712756999999999e-05,-0.0027201829999999997,0.00039461894999999995,-28.32,35.64,-16.74
1554880664295,4.051113,1.1612233,8.858817,0.0005137376999999999,-0.0076071047,-0.0026597073,-28.199999,35.579997999999996,-16.619999
1554880664315,4.034353299999999,1.1803774999999999,8.858817,0.0011246029,-0.005163644,-0.0038814377,-28.5,35.64,-16.02
1554880664335,4.048719,1.2067145000000001,8.820508,-0.003762319,-0.0008875872,-0.0026597073,-29.22,35.16,-16.44
1554880664355,4.034353299999999,1.1947431999999998,8.837268,-0.0007079928,-0.0008875872,-0.004492303,-29.22,35.399998,-16.92
1554880664376,4.0535073,1.2091087999999999,8.830086,-0.0019297232999999998,0.0015558738,-0.0032705725,-28.14,35.82,-17.34
1554880664395,4.017593,1.2043202,8.830086,-0.0007079928,0.0027776044,0.0022272146,-27.3,36.059998,-17.82
1554880664415,4.024776,1.2186858999999999,8.825297,-0.0013188579999999998,0.00094500853,-0.00021624629,-27.72,35.579997999999996,-17.22
1554880664435,4.051113,1.2258687,8.858817,-0.0025405885999999996,-0.0014984523999999999,0.0040598107,-28.26,35.46,-16.44
1554880664455,4.0391417,1.2138973,8.846846000000001,-0.0007079928,0.0003341433,0.0028380797999999997,-28.859999,35.64,-15.96
1554880664475,4.046324299999999,1.2138973,8.837268,0.0011246029,0.0003341433,0.0016163494,-29.279999,35.219997,-16.38
1554880664495,4.017593,1.201926,8.818114,0.0011246029,0.0033884696,0.0016163494,-28.8,35.1,-16.68
1554880664515,4.017593,1.1875603000000001,8.8324795,-0.0013188579999999998,0.0033884696,0.0028380797999999997,-28.5,35.64,-16.44
1554880664535,4.0295644,1.1827718,8.863605499999998,-0.0007079928,0.0015558738,0.0010054843,-27.84,35.399998,-15.96
1554880664555,4.0391417,1.1827718,8.842057,-0.0013188579999999998,0.0015558738,-0.0008271115400000001,-27.66,34.98,-16.02
1554880664575,4.0128045,1.1875603000000001,8.844451,-0.0013188579999999998,0.002166739,-0.0026597073,-27.9,35.64,-16.859999
1554880664595,4.0319586,1.1708003,8.856422,-0.0019297232999999998,0.0039993348,-0.0038814377,-27.84,35.579997999999996,-16.74
1554880664615,4.02717,1.1779832000000001,8.846846000000001,0.0005137376999999999,-0.00027672196,-0.0014379768,-27.84,35.399998,-16.68
1554880664635,4.0199876,1.201926,8.854028999999999,-0.0007079928,-0.0014984523999999999,-0.00021624629,-27.84,35.579997999999996,-16.68
1554880664655,4.017593,1.1971374,8.830086,0.0023463335999999997,-0.005163644,-0.002048842,-27.539998999999998,35.88,-16.56
1554880664675,4.02717,1.211503,8.844451,0.0005137376999999999,-0.0014984523999999999,-0.0014379768,-27.779999,35.579997999999996,-16.68
1554880664695,4.034353299999999,1.2354459,8.820508,0.0005137376999999999,-0.0021093178,0.0034489452,-28.199999,35.52,-17.039998999999998
1554880664715,4.0367475,1.2402343999999998,8.854028999999999,0.0011246029,-0.0027201829999999997,-0.00021624629,-28.26,35.94,-16.859999
1554880664735,4.046324299999999,1.2067145000000001,8.834874000000001,-9.712756999999999e-05,0.00094500853,-0.00021624629,-28.38,35.219997,-15.059999
1554880664755,4.041536,1.1923488000000002,8.849239,-0.0007079928,0.0027776044,0.0016163494,-27.779999,35.52,-15.059999
1554880664775,4.0151987,1.1995316999999999,8.827691,0.0005137376999999999,0.0003341433,-0.0008271115400000001,-27.96,36.0,-16.98
1554880664796,4.0391417,1.1875603000000001,8.830086,-0.0025405885999999996,0.0039993348,0.00039461894999999995,-28.5,35.76,-17.1
1554880664815,4.0391417,1.1827718,8.839663,-0.003762319,0.0039993348,-0.002048842,-28.32,35.52,-16.8
1554880664835,4.034353299999999,1.185166,8.842057,-0.0043731844,0.0033884696,-0.0014379768,-28.5,35.219997,-16.68
1554880664855,4.0439300000000005,1.1444633,8.880365,-0.0019297232999999998,0.0033884696,0.0022272146,-28.74,35.399998,-16.619999
1554880664875,4.0439300000000005,1.1779832000000001,8.875577,0.0011246029,-0.0014984523999999999,-0.0026597073,-28.619999,35.64,-17.039998999999998
1554880664895,4.0439300000000005,1.201926,8.830086,0.0011246029,-0.004552779,-0.0008271115400000001,-28.14,36.12,-16.8
1554880664915,4.0319586,1.2234744,8.827691,0.005400659499999999,-0.0014984523999999999,0.0010054843,-28.8,36.12,-16.8
1554880664935,4.0367475,1.1779832000000001,8.820508,0.0023463335999999997,0.0015558738,0.00039461894999999995,-28.8,35.52,-17.46
1554880664955,4.0391417,1.1971374,8.801354,0.0011246029,0.0027776044,-0.0038814377,-27.96,35.76,-16.32
1554880664975,4.0391417,1.211503,8.844451,-0.0013188579999999998,0.002166739,-0.00021624629,-28.8,35.399998,-15.839998999999999
1554880664996,4.017593,1.2186858999999999,8.834874000000001,0.003568064,-0.0021093178,-0.0026597073,-28.98,35.1,-16.74
1554880665015,3.991256,1.2162915,8.839663,-0.0013188579999999998,-0.0008875872,-0.0008271115400000001,-28.619999,35.64,-16.68
1554880665036,4.0080160000000005,1.1947431999999998,8.851633999999999,-0.0025405885999999996,0.002166739,0.00039461894999999995,-28.619999,36.0,-16.14
1554880665055,4.022382,1.1947431999999998,8.844451,-0.003762319,0.0003341433,-0.0008271115400000001,-28.56,35.76,-15.839998999999999
1554880665075,4.024776,1.1995316999999999,8.827691,-0.0031514538,-0.00027672196,-0.002048842,-28.32,35.52,-16.5
1554880665096,4.022382,1.2067145000000001,8.827691,-0.0025405885999999996,-0.0021093178,-0.0008271115400000001,-28.5,35.34,-16.8
1554880665115,4.02717,1.1684061000000001,8.8324795,-0.0025405885999999996,0.00094500853,0.0022272146,-28.56,34.98,-16.92
1554880665136,4.0367475,1.1899546,8.820508,-0.0013188579999999998,0.0033884696,0.00039461894999999995,-27.96,35.579997999999996,-16.859999
1554880665155,4.0582957,1.1803774999999999,8.830086,-0.0013188579999999998,0.002166739,-0.00021624629,-27.48,36.18,-16.26
1554880665175,4.063084,1.201926,8.858817,-0.0007079928,0.0003341433,-0.0014379768,-27.779999,35.76,-16.8
1554880665196,4.051113,1.1827718,8.825297,-0.0013188579999999998,0.0003341433,0.0010054843,-28.98,35.04,-17.4
1554880665215,4.0295644,1.1971374,8.827691,0.0005137376999999999,0.0027776044,0.0010054843,-28.859999,35.52,-16.98
1554880665235,4.0295644,1.1971374,8.839663,0.0005137376999999999,0.002166739,-0.0008271115400000001,-28.08,35.82,-17.039998999999998
1554880665255,4.0295644,1.1779832000000001,8.849239,0.0005137376999999999,0.0039993348,0.0022272146,-28.32,34.98,-16.56
1554880665275,4.02717,1.1899546,8.849239,-0.0007079928,0.0027776044,0.0028380797999999997,-28.68,35.16,-15.9
1554880665295,4.017593,1.2162915,8.842057,0.003568064,0.00094500853,0.00039461894999999995,-28.5,35.46,-16.5
1554880665316,4.02717,1.2186858999999999,8.846846000000001,-0.0007079928,-0.00027672196,0.00039461894999999995,-29.16,35.52,-17.16
1554880665335,4.022382,1.1923488000000002,8.830086,-0.0025405885999999996,0.0046102,0.0022272146,-28.8,35.04,-16.92
1554880665355,4.041536,1.185166,8.861211,-0.0019297232999999998,0.0015558738,0.0010054843,-27.84,35.16,-15.42
1554880665376,4.0582957,1.1731946000000002,8.849239,-0.0031514538,0.0033884696,-0.004492303,-26.82,34.44,-10.92
1554880665395,4.046324299999999,1.2091087999999999,8.830086,-0.0025405885999999996,0.0015558738,-0.0051031685,-25.859999,33.6,-6.54
1554880665416,4.017593,1.2138973,8.834874000000001,-0.003762319,0.00094500853,-0.0026597073,-26.279999,33.719997,-6.12
1554880665435,4.000833,1.2138973,8.834874000000001,-0.0031514538,-0.0027201829999999997,-0.0008271115400000001,-26.76,33.66,-6.42
1554880665456,4.02717,1.2091087999999999,8.842057,-0.0025405885999999996,-0.0008875872,0.00039461894999999995,-26.76,33.66,-6.42
1554880665475,4.024776,1.2450229,8.856422,-0.0019297232999999998,-0.00027672196,-0.0014379768,-27.539998999999998,33.54,-7.44
1554880665495,4.0535073,1.2282629999999999,8.839663,0.0023463335999999997,-0.0027201829999999997,-0.002048842,-27.599998,34.26,-7.98
1554880665516,4.0367475,1.2306572,8.846846000000001,0.0005137376999999999,-0.0008875872,0.0016163494,-27.0,33.84,-7.14
1554880665535,4.0151987,1.2330515,8.798960000000001,-9.712756999999999e-05,-0.00027672196,0.00039461894999999995,-26.46,33.059998,-6.8999996
1554880665555,4.046324299999999,1.1947431999999998,8.815719999999999,-0.0043731844,0.0039993348,0.0028380797999999997,-26.46,33.48,-7.62
1554880665575,4.02717,1.1660118,8.822903,-0.003762319,0.0070536607,0.0010054843,-26.699999,34.44,-8.34
1554880665595,4.034353299999999,1.158829,8.839663,-0.003762319,0.010107988,0.0022272146,-26.64,34.32,-8.34
1554880665615,4.0367475,1.1277034,8.882759,-0.0043731844,0.006442796,-0.00021624629,-26.519999,34.02,-7.7999997
1554880665635,4.0559015,1.1420691,8.861211,-0.0031514538,-0.00027672196,-0.002048842,-26.88,33.42,-7.7999997
1554880665656,4.048719,1.1731946000000002,8.8324795,-9.712756999999999e-05,-0.004552779,-0.004492303,-26.64,33.84,-8.82
1554880665675,4.022382,1.1300976999999999,8.8324795,-0.0007079928,-0.0021093178,-0.006324899,-26.82,34.38,-8.94
1554880665696,4.0535073,1.1731946000000002,8.820508,-9.712756999999999e-05,-0.0008875872,-0.0075466293000000005,-26.699999,33.6,-8.28
1554880665715,4.0439300000000005,1.2067145000000001,8.849239,-9.712756999999999e-05,-0.0027201829999999997,-0.0057140337,-26.4,33.3,-7.3199997
1554880665735,4.034353299999999,1.2234744,8.839663,0.0023463335999999997,-0.0033310482,-0.0026597073,-27.18,33.36,-6.54
1554880665755,4.010410299999999,1.2593886,8.820508,0.0017354682,-0.0014984523999999999,-0.0026597073,-26.88,33.78,-7.08
1554880665776,4.0080160000000005,1.2426286,8.801354,-0.0007079928,0.00094500853,-0.0014379768,-26.34,34.2,-7.2
1554880665795,3.9984387999999997,1.2354459,8.839663,-0.0013188579999999998,0.00094500853,0.0040598107,-26.76,34.26,-8.04
1554880665815,4.000833,1.2474172,8.856422,0.0017354682,0.0015558738,0.0071141366,-27.119999,34.079997999999996,-8.88
1554880665835,4.024776,1.1995316999999999,8.837268,-0.0013188579999999998,0.0033884696,0.0046706759999999995,-26.76,34.44,-7.5
1554880665855,4.0439300000000005,1.1803774999999999,8.8085375,-0.0019297232999999998,0.002166739,0.0046706759999999995,-27.18,34.14,-7.02
1554880665875,4.051113,1.1516461,8.820508,-0.004984049,0.0046102,0.0028380797999999997,-27.119999,33.3,-7.9199996
1554880665896,4.0582957,1.1636176,8.842057,-0.0007079928,-0.00027672196,-0.0008271115400000001,-26.16,34.079997999999996,-7.9199996
1554880665915,4.048719,1.1660118,8.858817,-9.712756999999999e-05,0.0003341433,-0.002048842,-26.46,34.44,-7.5
1554880665935,4.048719,1.1803774999999999,8.825297,-0.0025405885999999996,-0.0008875872,-0.0038814377,-27.18,34.5,-7.56
1554880665956,4.048719,1.1803774999999999,8.815719999999999,0.0011246029,-0.0008875872,-0.0038814377,-27.3,34.68,-8.16
1554880665975,4.048719,1.211503,8.825297,0.0041789290000000005,-0.0014984523999999999,-0.0051031685,-27.0,33.899998,-8.82
1554880665996,4.0032277,1.2162915,8.827691,0.0029571984999999996,0.00094500853,0.00039461894999999995,-26.4,33.719997,-9.179999
1554880666015,4.024776,1.2186858999999999,8.839663,0.0005137376999999999,-0.0021093178,0.0034489452,-26.88,33.66,-8.82
1554880666036,4.0439300000000005,1.2282629999999999,8.830086,0.0023463335999999997,-0.0027201829999999997,0.00039461894999999995,-26.939999,34.079997999999996,-8.7
1554880666055,4.017593,1.2234744,8.806142999999999,0.0005137376999999999,0.00094500853,0.0034489452,-26.82,34.68,-8.22
1554880666075,4.041536,1.1995316999999999,8.806142999999999,-0.003762319,0.005831930999999999,0.0034489452,-26.88,34.2,-7.14
1554880666096,4.017593,1.1875603000000001,8.863605499999998,-0.0019297232999999998,0.005831930999999999,0.0028380797999999997,-26.16,34.98,-8.94
1554880666115,4.041536,1.1684061000000001,8.868394,0.0005137376999999999,0.0033884696,-0.0014379768,-27.359999,35.28,-11.7
1554880666135,4.0367475,1.1660118,8.854028999999999,-9.712756999999999e-05,0.002166739,-0.0032705725,-27.9,35.28,-12.3
1554880666155,4.024776,1.1971374,8.825297,-0.0025405885999999996,-0.0021093178,-0.004492303,-27.359999,35.7,-12.84
1554880666175,4.046324299999999,1.1803774999999999,8.7822,-0.0031514538,0.0082753915,-0.0008271115400000001,-27.539998999999998,35.28,-12.84
1554880666195,4.06069,1.1827718,8.794171,-0.004984049,0.011329718,-0.0026597073,-27.539998999999998,34.86,-11.88
1554880666215,4.0439300000000005,1.2067145000000001,8.830086,-0.0019297232999999998,0.012551448,-0.0014379768,-27.18,34.559998,-11.94
1554880666235,4.0151987,1.2330515,8.873182,0.0011246029,0.008886257,0.0034489452,-26.88,34.86,-12.36
1554880666255,4.0080160000000005,1.2330515,8.8324795,-0.0019297232999999998,0.0039993348,0.005892405999999999,-27.359999,34.5,-11.88
1554880666275,3.9337934999999997,1.2091087999999999,8.882759,0.0005137376999999999,-0.0008875872,0.010779328999999999,-27.119999,34.98,-11.7
1554880666295,3.9577362999999997,1.175589,8.868394,0.0041789290000000005,-0.010050566,0.013833653999999999,-26.88,35.52,-12.42
1554880666315,3.9984387999999997,1.1875603000000001,8.877971,0.0029571984999999996,-0.013104891,0.0150553845,-27.3,34.68,-12.24
1554880666335,4.0439300000000005,1.2186858999999999,8.846846000000001,0.0041789290000000005,-0.01860268,0.008946733,-28.26,34.62,-12.48
1554880666356,4.0582957,1.2450229,8.820508,0.0047897943,-0.021657005,0.0065032714,-28.68,34.68,-13.019999499999999
1554880666375,4.06069,1.2067145000000001,8.772623,0.0041789290000000005,-0.014326623,0.0046706759999999995,-27.9,34.559998,-12.36
1554880666395,4.0798445,1.2162915,8.786988000000001,0.0011246029,-0.006385374300000001,0.00039461894999999995,-27.72,34.98,-11.94
1554880666416,4.1037870000000005,1.2091087999999999,8.822903,-0.003762319,-0.0033310482,-0.0057140337,-27.3,35.1,-10.74
1554880666436,4.0822387,1.1803774999999999,8.803747999999999,-0.004984049,-0.0021093178,-0.004492303,-26.76,34.8,-11.099999
1554880666455,4.0966043,1.175589,8.827691,-0.0043731844,-0.0014984523999999999,-0.010600955,-27.0,34.5,-12.42
1554880666475,4.051113,1.1612233,8.806142999999999,-0.005594915,-0.0033310482,-0.013655282,-27.06,34.68,-11.94
1554880666495,4.034353299999999,1.175589,8.8085375,-0.0043731844,0.002166739,-0.0099900905,-27.0,35.28,-11.46
1554880666515,4.0295644,1.1708003,8.825297,-0.003762319,0.005221065,-0.0051031685,-27.18,35.7,-10.98
1554880666537,4.0535073,1.1396747999999999,8.844451,-0.0019297232999999998,0.0046102,-0.0051031685,-27.539998999999998,34.98,-11.04
1554880666556,4.0295644,1.1803774999999999,8.863605499999998,0.0041789290000000005,-0.004552779,-0.0057140337,-27.359999,34.14,-11.639999000000001
1554880666575,4.024776,1.1971374,8.818114,0.005400659499999999,-0.006385374300000001,-0.002048842,-27.119999,34.38,-12.24
1554880666595,4.022382,1.2354459,8.775017,0.0041789290000000005,-0.005774509000000001,0.0010054843,-27.119999,34.62,-12.48
1554880666615,4.041536,1.2306572,8.830086,0.003568064,-0.0014984523999999999,-0.00021624629,-27.24,34.98,-13.08
1554880666635,4.0391417,1.2282629999999999,8.806142999999999,0.0011246029,0.0003341433,0.0040598107,-28.32,35.16,-15.0
1554880666655,4.0391417,1.2474172,8.798960000000001,0.003568064,0.0015558738,0.005281541,-28.56,35.16,-16.859999
1554880666676,4.0151987,1.2067145000000001,8.820508,-0.0007079928,0.005221065,0.007725002,-28.26,35.579997999999996,-16.74
1554880666695,4.0391417,1.1995316999999999,8.837268,-0.0013188579999999998,0.0015558738,0.0040598107,-28.74,35.16,-16.26
1554880666715,4.051113,1.1803774999999999,8.825297,-0.0007079928,-0.0008875872,0.00039461894999999995,-28.68,35.28,-16.74
1554880666736,4.048719,1.1564348,8.818114,0.0005137376999999999,-0.0014984523999999999,-0.002048842,-29.16,34.92,-16.5
1554880666755,4.065479,1.1779832000000001,8.796566,-0.003762319,0.0046102,-0.006324899,-28.68,35.64,-15.48
1554880666775,4.0559015,1.175589,8.8085375,-0.003762319,0.0039993348,-0.0057140337,-27.66,35.399998,-15.48
1554880666795,4.0678730000000005,1.1779832000000001,8.834874000000001,-0.0013188579999999998,0.0027776044,-0.0069357635999999995,-27.42,35.1,-15.599998999999999
1554880666815,4.048719,1.1708003,8.830086,0.0017354682,-0.00027672196,-0.006324899,-28.14,34.92,-16.44
1554880666836,4.0439300000000005,1.2043202,8.822903,0.0011246029,0.00094500853,-0.0051031685,-27.96,35.34,-16.68
1554880666855,4.017593,1.2354459,8.8085375,0.0047897943,-0.0027201829999999997,-0.0032705725,-28.019999,35.88,-16.74
1554880666875,4.010410299999999,1.2402343999999998,8.810931,0.0011246029,-0.0027201829999999997,0.0010054843,-28.199999,35.52,-16.98
1554880666895,4.0367475,1.2569941999999998,8.818114,0.0047897943,-0.005774509000000001,0.0046706759999999995,-27.66,35.16,-16.98
1554880666916,4.0582957,1.2330515,8.8085375,0.0017354682,-0.0008875872,0.0065032714,-28.56,35.219997,-17.279999
1554880666935,4.0391417,1.2282629999999999,8.806142999999999,0.0011246029,0.005221065,0.008335867,-29.039998999999998,35.1,-16.38
1554880666955,4.070266999999999,1.1444633,8.813326,-0.0007079928,0.0039993348,0.0071141366,-28.32,35.219997,-15.9
1554880666975,4.065479,1.1708003,8.858817,0.0017354682,0.00094500853,0.0016163494,-27.96,36.059998,-16.74
1554880666996,4.0535073,1.1923488000000002,8.830086,0.0029571984999999996,-0.006385374300000001,-0.002048842,-28.32,35.52,-16.56
1554880667016,4.034353299999999,1.1995316999999999,8.8085375,0.0023463335999999997,-0.006385374300000001,-0.0051031685,-28.68,35.399998,-16.74
1554880667036,4.0535073,1.1947431999999998,8.810931,0.0005137376999999999,-0.0021093178,-0.006324899,-28.619999,36.059998,-17.1
1554880667055,4.07745,1.175589,8.798960000000001,-0.0025405885999999996,0.0027776044,-0.006324899,-28.8,35.64,-17.4
1554880667075,4.063084,1.2067145000000001,8.849239,-0.0019297232999999998,0.0033884696,-0.0051031685,-28.98,35.46,-17.22
1554880667096,4.0822387,1.2306572,8.830086,-9.712756999999999e-05,0.00094500853,-0.004492303,-28.859999,35.76,-16.92
1554880667115,4.017593,1.2091087999999999,8.830086,0.0017354682,-0.0008875872,-0.004492303,-28.98,35.46,-17.039998999999998
1554880667136,4.0295644,1.2138973,8.794171,-9.712756999999999e-05,0.00094500853,-0.002048842,-28.619999,34.92,-16.14
1554880667155,4.02717,1.1995316999999999,8.839663,0.0005137376999999999,0.0003341433,-0.00021624629,-28.14,35.219997,-15.839998999999999
1554880667175,3.991256,1.2186858999999999,8.839663,0.0011246029,0.00094500853,0.0010054843,-28.26,35.88,-16.56
1554880667195,4.0199876,1.2162915,8.834874000000001,0.0029571984999999996,-0.0033310482,0.0034489452,-28.5,35.76,-16.68
1554880667215,4.0559015,1.1923488000000002,8.820508,-0.0019297232999999998,-0.003941913,0.0040598107,-28.199999,35.16,-16.98
1554880667235,4.0678730000000005,1.2138973,8.8085375,-9.712756999999999e-05,-0.003941913,0.0034489452,-28.199999,34.98,-17.46
1554880667255,4.0726614,1.2162915,8.786988000000001,-0.0013188579999999998,-0.0033310482,-0.0008271115400000001,-28.859999,35.579997999999996,-17.1
1554880667276,4.063084,1.2091087999999999,8.810931,-0.0007079928,0.0003341433,0.0022272146,-28.439999,35.7,-16.44
1554880667296,4.0966043,1.1971374,8.830086,-0.003762319,0.002166739,-0.0008271115400000001,-28.199999,35.1,-16.38
1554880667315,4.084633,1.1899546,8.822903,0.0011246029,0.0003341433,-0.0051031685,-29.22,35.1,-16.74
1554880667336,4.07745,1.1875603000000001,8.825297,0.0005137376999999999,0.00094500853,-0.0032705725,-28.56,35.46,-17.279999
1554880667355,4.0367475,1.201926,8.801354,0.003568064,-0.0014984523999999999,-0.0032705725,-28.019999,35.16,-16.32
1554880667376,4.02717,1.2186858999999999,8.813326,0.0017354682,0.0003341433,-0.0032705725,-28.98,35.1,-15.719999
1554880667395,4.02717,1.1995316999999999,8.8085375,0.0029571984999999996,0.0015558738,0.0010054843,-28.68,35.219997,-16.68
1554880667416,4.0080160000000005,1.211503,8.818114,0.0011246029,0.005831930999999999,0.0034489452,-28.38,35.34,-16.44
1554880667436,4.017593,1.211503,8.856422,-9.712756999999999e-05,-0.0021093178,0.0040598107,-28.859999,35.7,-16.44
1554880667455,4.0295644,1.1827718,8.834874000000001,0.0011246029,-0.005163644,0.0022272146,-28.38,35.16,-15.66
1554880667476,4.0439300000000005,1.158829,8.825297,0.0017354682,-0.0027201829999999997,0.005892405999999999,-28.08,35.34,-15.299999
1554880667495,4.084633,1.1540405,8.810931,0.0017354682,-0.003941913,0.0010054843,-28.199999,35.76,-16.44
1554880667515,4.1420956,1.1971374,8.806142999999999,0.0011246029,-0.0008875872,-0.002048842,-28.019999,35.46,-16.92
1554880667536,4.1157584,1.1923488000000002,8.779805999999999,0.0011246029,0.0003341433,-0.00876836,-28.199999,35.46,-17.16
1554880667555,4.1013927,1.2258687,8.772623,-0.0013188579999999998,-0.00027672196,-0.0099900905,-28.08,34.62,-15.24
1554880667576,4.0726614,1.2402343999999998,8.784595,-0.0013188579999999998,0.005831930999999999,-0.0069357635999999995,-27.72,34.62,-15.12
1554880667596,4.0199876,1.2354459,8.803747999999999,-0.003762319,0.0082753915,-0.004492303,-28.26,36.059998,-17.34
1554880667615,4.0080160000000005,1.2330515,8.865999,-0.0007079928,0.0039993348,-0.0026597073,-29.16,36.0,-17.1
1554880667635,3.9721019999999996,1.2617828000000002,8.846846000000001,0.0011246029,-0.0014984523999999999,0.0016163494,-28.859999,34.92,-16.199999
1554880667655,3.9792848,1.2593886,8.827691,0.0041789290000000005,-0.0076071047,0.005281541,-28.74,35.16,-16.44
1554880667676,3.9792848,1.2665714,8.8085375,0.0023463335999999997,-0.004552779,0.0065032714,-28.74,35.16,-16.44
1554880667698,4.0032277,1.1995316999999999,8.822903,0.007233255500000001,-0.0008875872,0.008946733,-29.16,35.399998,-17.22
1554880667716,4.065479,1.175589,8.810931,-0.0043731844,0.005831930999999999,0.012001059,-28.26,35.34,-16.92
1554880667735,4.1013927,1.1396747999999999,8.825297,-0.0019297232999999998,0.006442796,0.005281541,-28.199999,34.68,-16.44
1554880667755,4.1037870000000005,1.132492,8.818114,-0.004984049,0.00094500853,0.0016163494,-28.619999,35.34,-16.98
1554880667775,4.0918155,1.1181264,8.8085375,-0.00620578,0.0003341433,-0.0069357635999999995,-28.619999,36.059998,-16.8
1554880667795,4.1013927,1.1684061000000001,8.810931,-0.0043731844,0.00094500853,-0.011822686499999999,-27.48,35.7,-13.86
1554880667816,4.065479,1.2067145000000001,8.813326,-0.0025405885999999996,-0.00027672196,-0.009379225,-26.82,36.0,-12.24
1554880667835,4.0726614,1.2330515,8.815719999999999,-0.0031514538,-0.00027672196,-0.0069357635999999995,-27.72,35.579997999999996,-12.24
1554880667855,4.0678730000000005,1.2474172,8.815719999999999,-0.0013188579999999998,0.00094500853,-0.0038814377,-27.96,34.92,-11.82
1554880667875,4.0439300000000005,1.2330515,8.801354,0.0005137376999999999,0.0033884696,-0.0032705725,-27.0,34.62,-11.82
1554880667895,4.0439300000000005,1.2450229,8.815719999999999,0.0017354682,0.0027776044,0.0016163494,-26.82,34.98,-11.94
1554880667915,4.0391417,1.2498114,8.818114,-0.0007079928,0.0046102,0.0028380797999999997,-27.359999,35.82,-11.759999
1554880667936,4.051113,1.2450229,8.822903,-9.712756999999999e-05,0.005831930999999999,0.005892405999999999,-27.3,35.46,-11.639999000000001
1554880667955,4.051113,1.2450229,8.822903,-9.712756999999999e-05,0.005831930999999999,0.005892405999999999,-27.3,35.46,-11.639999000000001
1554880667975,4.0295644,1.1971374,8.822903,0.0017354682,0.0015558738,0.0034489452,-27.0,35.219997,-11.7
1554880667995,4.034353299999999,1.1875603000000001,8.803747999999999,-0.0013188579999999998,0.0033884696,0.005281541,-26.699999,34.86,-11.7
1554880668015,4.051113,1.1827718,8.825297,-0.0043731844,0.006442796,0.0040598107,-28.859999,35.7,-16.199999
1554880668035,4.051113,1.1827718,8.825297,-0.0043731844,0.006442796,0.0040598107,-28.859999,35.7,-16.199999
1554880668056,4.0582957,1.1684061000000001,8.818114,-0.004984049,0.0039993348,0.0028380797999999997,-29.34,36.18,-17.699999
1554880668076,4.06069,1.1899546,8.822903,-0.0031514538,0.0015558738,-0.002048842,-28.5,35.399998,-18.06
1554880668095,4.0582957,1.1947431999999998,8.825297,0.0005137376999999999,-0.0014984523999999999,-0.002048842,-28.619999,35.1,-16.44
1554880668116,4.0559015,1.1971374,8.796566,-0.0007079928,0.0003341433,-0.0032705725,-28.56,35.7,-16.08
1554880668135,4.0535073,1.2091087999999999,8.830086,0.003568064,0.0003341433,-0.002048842,-28.32,35.52,-15.9
1554880668155,4.0535073,1.2091087999999999,8.830086,0.003568064,0.0003341433,-0.002048842,-28.32,35.52,-15.9
1554880668175,4.0367475,1.2210802,8.830086,-9.712756999999999e-05,0.002166739,0.0010054843,-28.8,36.48,-16.92
1554880668196,4.051113,1.2402343999999998,8.842057,-0.0007079928,0.00094500853,0.0034489452,-28.92,36.42,-16.92
1554880668215,4.048719,1.211503,8.810931,-0.0019297232999999998,-0.0027201829999999997,0.0022272146,-28.019999,36.18,-17.1
1554880668235,4.063084,1.2282629999999999,8.834874000000001,0.0005137376999999999,0.0003341433,-0.002048842,-28.199999,35.579997999999996,-16.92
1554880668256,4.0391417,1.2067145000000001,8.8085375,-9.712756999999999e-05,0.0039993348,0.0016163494,-28.56,35.88,-16.199999
1554880668275,4.046324299999999,1.2138973,8.8324795,-0.0031514538,0.005831930999999999,-0.00021624629,-28.74,35.399998,-15.719999
1554880668295,4.046324299999999,1.2138973,8.8324795,-0.0031514538,0.005831930999999999,-0.00021624629,-28.74,35.399998,-15.719999
1554880668316,4.046324299999999,1.2138973,8.8324795,-0.0031514538,0.005831930999999999,-0.00021624629,-28.74,35.399998,-15.719999
1554880668335,4.063084,1.1708003,8.846846000000001,0.0005137376999999999,0.0027776044,-0.0038814377,-29.58,35.28,-17.279999
1554880668355,4.065479,1.185166,8.861211,-0.0013188579999999998,0.0039993348,-0.0032705725,-29.58,35.28,-17.279999
1554880668375,4.065479,1.185166,8.861211,-0.0013188579999999998,0.0039993348,-0.0032705725,-29.58,35.28,-17.279999
1554880668395,4.06069,1.1684061000000001,8.825297,0.003568064,-0.005163644,-0.0051031685,-29.039998999999998,35.46,-16.56
1554880668415,4.06069,1.1684061000000001,8.825297,0.003568064,-0.005163644,-0.0051031685,-29.039998999999998,35.46,-16.56
1554880668435,4.0726614,1.2186858999999999,8.834874000000001,-0.0007079928,0.00094500853,-0.0038814377,-28.5,35.76,-14.82
1554880668456,4.0319586,1.23784,8.820508,-0.0007079928,-0.0008875872,-0.00021624629,-28.38,35.82,-14.7
1554880668475,4.0295644,1.2354459,8.813326,-0.0031514538,-0.0021093178,-0.0008271115400000001,-28.26,36.12,-15.299999
1554880668495,4.063084,1.0917894,9.035994,-0.009260106,-0.024100466,-0.0069357635999999995,-28.26,35.88,-16.199999
1554880668518,4.063084,1.0917894,9.035994,-0.009260106,-0.024100466,-0.0069357635999999995,-28.26,35.88,-16.199999
1554880668535,4.046324299999999,1.2067145000000001,8.899519999999999,0.003568064,0.0039993348,0.0034489452,-28.38,36.36,-16.98
1554880668555,4.0535073,1.2067145000000001,8.858817,0.0011246029,-0.0076071047,0.00039461894999999995,-28.26,35.64,-16.26
1554880668576,4.0559015,1.185166,8.839663,-0.0031514538,-0.005163644,-0.0032705725,-28.14,34.86,-12.9
1554880668595,4.0559015,1.1971374,8.818114,0.0011246029,0.00094500853,-0.0051031685,-28.26,35.16,-12.12
1554880668615,4.065479,1.2067145000000001,8.815719999999999,0.0005137376999999999,0.0039993348,-0.0057140337,-27.24,34.98,-11.759999
1554880668636,4.063084,1.185166,8.844451,0.0005137376999999999,0.0039993348,-0.0051031685,-26.699999,35.16,-11.7
1554880668655,4.0535073,1.1899546,8.849239,-0.0025405885999999996,-0.0008875872,-0.00021624629,-26.88,35.52,-11.58
1554880668676,4.034353299999999,1.1731946000000002,8.834874000000001,0.0029571984999999996,0.002166739,-0.0008271115400000001,-26.939999,35.16,-11.759999
1554880668695,4.0199876,1.2091087999999999,8.834874000000001,0.0005137376999999999,0.0003341433,0.0028380797999999997,-26.76,35.64,-11.7
1554880668715,4.024776,1.1875603000000001,8.825297,0.003568064,0.0046102,-0.00021624629,-27.42,35.64,-11.28
1554880668736,4.048719,1.2091087999999999,8.827691,0.0017354682,0.0033884696,0.0034489452,-27.599998,34.86,-10.679999
1554880668755,4.022382,1.1923488000000002,8.844451,-0.0007079928,-0.0014984523999999999,0.0040598107,-26.699999,34.8,-9.78
1554880668775,4.046324299999999,1.2043202,8.834874000000001,-0.0013188579999999998,-0.0008875872,0.00039461894999999995,-26.099998,35.28,-10.92
1554880668795,4.034353299999999,1.1995316999999999,8.854028999999999,0.003568064,0.0003341433,0.0016163494,-26.4,34.68,-11.28
1554880668815,4.0319586,1.201926,8.846846000000001,0.0005137376999999999,-0.0008875872,-0.0026597073,-27.84,34.68,-11.7
1554880668835,4.034353299999999,1.2450229,8.796566,-0.005594915,0.0003341433,-0.0026597073,-27.599998,34.86,-11.4
1554880668856,4.0535073,1.2043202,8.815719999999999,-0.0007079928,0.0015558738,-0.0008271115400000001,-27.24,34.68,-11.759999
1554880668875,4.048719,1.2282629999999999,8.834874000000001,-0.0013188579999999998,0.00094500853,0.00039461894999999995,-26.939999,34.62,-11.639999000000001
1554880668895,4.084633,1.2091087999999999,8.842057,-0.0019297232999999998,0.00094500853,-0.0026597073,-26.64,34.739998,-11.639999000000001
1554880668915,4.084633,1.2091087999999999,8.842057,-0.0019297232999999998,0.00094500853,-0.0026597073,-26.64,34.739998,-11.639999000000001
1554880668935,4.046324299999999,1.175589,8.830086,-0.0019297232999999998,0.002166739,0.00039461894999999995,-27.42,34.739998,-12.42
1554880668955,4.0559015,1.1779832000000001,8.837268,-0.0007079928,0.005831930999999999,0.0010054843,-27.24,34.86,-12.0
1554880668976,4.0726614,1.1899546,8.834874000000001,0.0005137376999999999,0.0027776044,0.0016163494,-27.24,34.98,-11.7
1554880668995,4.0726614,1.1899546,8.834874000000001,0.0005137376999999999,0.0027776044,0.0016163494,-27.24,34.98,-11.7
1554880669015,4.0295644,1.1899546,8.825297,-0.0031514538,0.0003341433,0.0034489452,-28.14,35.82,-16.68
1554880669035,4.041536,1.1899546,8.846846000000001,0.0029571984999999996,0.0003341433,0.0022272146,-28.32,35.579997999999996,-16.32
1554880669055,4.0535073,1.201926,8.851633999999999,0.0023463335999999997,-0.0008875872,0.00039461894999999995,-28.56,35.34,-16.199999
1554880669076,4.063084,1.2450229,8.844451,0.003568064,-0.0027201829999999997,-0.002048842,-29.279999,35.219997,-16.98
1554880669095,4.022382,1.2210802,8.830086,0.0017354682,-0.0008875872,0.0010054843,-28.56,35.64,-17.4
1554880669115,4.0319586,1.201926,8.825297,-0.0007079928,0.0015558738,0.0010054843,-28.019999,35.82,-16.199999
1554880669135,4.034353299999999,1.2234744,8.810931,-0.0019297232999999998,0.0015558738,0.0010054843,-28.019999,35.82,-16.199999
1554880669155,4.06069,1.201926,8.861211,-0.0031514538,-0.0008875872,-0.0014379768,-27.96,35.34,-16.74
1554880669175,4.063084,1.2234744,8.839663,0.0011246029,0.0015558738,-0.002048842,-27.96,35.16,-16.859999
1554880669195,4.0559015,1.1995316999999999,8.822903,0.0011246029,-0.0021093178,-0.004492303,-28.26,35.219997,-16.859999
1554880669216,4.0559015,1.1995316999999999,8.822903,0.0011246029,-0.0021093178,-0.004492303,-28.26,35.219997,-16.859999
1554880669235,4.0559015,1.1995316999999999,8.815719999999999,0.0017354682,-0.0027201829999999997,-0.0026597073,-27.96,35.82,-17.279999
1554880669256,4.0391417,1.1947431999999998,8.825297,0.0005137376999999999,-0.00027672196,-0.00021624629,-28.26,35.64,-16.98
1554880669275,4.0678730000000005,1.1875603000000001,8.837268,-0.0007079928,0.005221065,0.00039461894999999995,-28.019999,35.219997,-15.78
1554880669295,4.0726614,1.1899546,8.834874000000001,0.0005137376999999999,0.0039993348,0.0034489452,-28.019999,35.219997,-15.78
1554880669316,4.0726614,1.1899546,8.834874000000001,0.0005137376999999999,0.0039993348,0.0034489452,-28.019999,35.219997,-15.78
1554880669335,4.041536,1.211503,8.825297,-9.712756999999999e-05,0.0033884696,0.0034489452,-29.099998,35.579997999999996,-17.16
1554880669356,4.0151987,1.185166,8.822903,0.0005137376999999999,0.0015558738,0.0034489452,-29.34,35.7,-17.279999
1554880669375,4.0199876,1.1923488000000002,8.827691,-0.0025405885999999996,0.002166739,0.0046706759999999995,-29.58,36.059998,-17.699999
1554880669396,4.0199876,1.1923488000000002,8.827691,-0.0025405885999999996,0.002166739,0.0046706759999999995,-29.58,36.059998,-17.699999
1554880669415,4.0559015,1.185166,8.858817,-9.712756999999999e-05,-0.0021093178,0.0028380797999999997,-28.8,35.7,-16.38
1554880669435,4.034353299999999,1.1923488000000002,8.834874000000001,-0.0025405885999999996,-0.0014984523999999999,0.0016163494,-28.92,35.64,-16.26
1554880669455,4.0582957,1.1971374,8.8324795,0.0005137376999999999,-0.0027201829999999997,-0.0038814377,-27.84,35.88,-16.92
1554880669475,4.041536,1.1971374,8.839663,-0.0019297232999999998,-0.0008875872,-0.00021624629,-27.84,35.88,-16.92
1554880669495,4.041536,1.1971374,8.839663,-0.0019297232999999998,-0.0008875872,-0.00021624629,-27.84,35.88,-16.92
1554880669515,4.063084,1.201926,8.8324795,0.0023463335999999997,-0.0021093178,-0.0026597073,-28.26,35.04,-16.8
1554880669535,4.075055600000001,1.2186858999999999,8.813326,-0.0007079928,0.00094500853,-0.0014379768,-28.5,34.8,-16.92
1554880669558,4.0559015,1.211503,8.8324795,0.0011246029,-0.00027672196,-0.004492303,-28.56,35.579997999999996,-17.34
1554880669575,4.051113,1.2330515,8.856422,0.0017354682,0.0033884696,0.0016163494,-28.439999,36.059998,-16.92
1554880669595,4.051113,1.2330515,8.856422,0.0017354682,0.0033884696,0.0016163494,-28.439999,36.059998,-16.92
1554880669615,4.051113,1.2330515,8.856422,0.0017354682,0.0033884696,0.0016163494,-28.439999,36.059998,-16.92
1554880669635,4.017593,1.2186858999999999,8.854028999999999,0.0029571984999999996,0.00094500853,-0.00021624629,-28.08,34.86,-16.5
1554880669655,4.017593,1.2234744,8.822903,0.0029571984999999996,-0.003941913,-0.0008271115400000001,-28.26,35.579997999999996,-16.74
1554880669675,4.0319586,1.2091087999999999,8.822903,-9.712756999999999e-05,0.0003341433,0.0028380797999999997,-27.779999,35.579997999999996,-16.98
1554880669695,4.0319586,1.2091087999999999,8.822903,-9.712756999999999e-05,0.0003341433,0.0028380797999999997,-27.779999,35.579997999999996,-16.98
1554880669715,4.051113,1.1779832000000001,8.882759,-0.0013188579999999998,0.0076645263,0.0016163494,-27.9,35.579997999999996,-17.1
1554880669735,4.0535073,1.1684061000000001,8.868394,0.0005137376999999999,0.002166739,0.0028380797999999997,-29.099998,36.239998,-17.64
1554880669756,4.0199876,1.1636176,8.882759,0.0023463335999999997,-0.004552779,-0.0026597073,-28.98,35.46,-16.74
1554880669775,4.041536,1.1803774999999999,8.851633999999999,-9.712756999999999e-05,-0.0014984523999999999,0.00039461894999999995,-28.98,35.46,-16.74
1554880669796,4.041536,1.1803774999999999,8.851633999999999,-9.712756999999999e-05,-0.0014984523999999999,0.00039461894999999995,-28.98,35.46,-16.74
1554880669815,4.041536,1.1803774999999999,8.851633999999999,-9.712756999999999e-05,-0.0014984523999999999,0.00039461894999999995,-28.98,35.46,-16.74
1554880669835,4.0559015,1.23784,8.820508,-0.003762319,0.0027776044,-0.0008271115400000001,-28.199999,35.52,-15.599998999999999
1554880669855,4.0559015,1.23784,8.820508,-0.003762319,0.0027776044,-0.0008271115400000001,-28.199999,35.52,-15.599998999999999
1554880669876,4.0559015,1.23784,8.820508,-0.003762319,0.0027776044,-0.0008271115400000001,-28.199999,35.52,-15.599998999999999
1554880669896,4.034353299999999,1.2258687,8.827691,-0.0019297232999999998,0.0003341433,0.00039461894999999995,-27.96,35.52,-17.699999
1554880669916,4.02717,1.2162915,8.834874000000001,-0.004984049,0.0046102,0.0016163494,-28.38,35.76,-17.88
1554880669935,4.048719,1.2210802,8.868394,-0.003762319,0.0039993348,-0.0008271115400000001,-28.199999,35.88,-17.82
1554880669955,4.048719,1.2210802,8.868394,-0.003762319,0.0039993348,-0.0008271115400000001,-28.199999,35.88,-17.82
1554880669975,4.0319586,1.1947431999999998,8.837268,0.0041789290000000005,0.0003341433,0.0016163494,-28.859999,35.04,-16.92
1554880669996,4.0199876,1.175589,8.842057,0.0005137376999999999,0.0003341433,0.0016163494,-28.68,35.399998,-17.16
1554880670016,4.024776,1.1779832000000001,8.844451,0.0005137376999999999,0.0033884696,0.0046706759999999995,-28.26,35.46,-17.22
1554880670035,4.0439300000000005,1.1803774999999999,8.844451,0.0005137376999999999,-0.0027201829999999997,0.0028380797999999997,-29.279999,35.1,-16.8
1554880670055,4.046324299999999,1.175589,8.844451,-9.712756999999999e-05,-0.0021093178,0.0028380797999999997,-29.279999,35.1,-16.8
1554880670076,4.046324299999999,1.175589,8.844451,-9.712756999999999e-05,-0.0021093178,0.0028380797999999997,-29.279999,35.1,-16.8
1554880670095,4.048719,1.1899546,8.8324795,0.0017354682,-0.00027672196,-0.0014379768,-29.22,36.18,-18.119999
1554880670115,4.06069,1.1947431999999998,8.849239,0.0017354682,0.0003341433,-0.0008271115400000001,-28.8,35.82,-17.58
1554880670136,4.034353299999999,1.1971374,8.870789,0.0017354682,-0.0014984523999999999,-0.0014379768,-28.38,35.219997,-16.74
1554880670155,4.034353299999999,1.1971374,8.870789,0.0017354682,-0.0014984523999999999,-0.0014379768,-28.38,35.219997,-16.74
1554880670175,4.034353299999999,1.1971374,8.870789,0.0017354682,-0.0014984523999999999,-0.0014379768,-28.38,35.219997,-16.74
1554880670195,4.048719,1.2210802,8.839663,-0.0019297232999999998,0.00094500853,-0.002048842,-28.8,35.88,-17.16
1554880670215,4.051113,1.2282629999999999,8.837268,-9.712756999999999e-05,-0.0021093178,-0.002048842,-28.38,35.88,-17.699999
1554880670235,4.0439300000000005,1.2067145000000001,8.849239,-0.0019297232999999998,0.00094500853,-0.0008271115400000001,-28.38,35.88,-17.34
1554880670256,4.0439300000000005,1.2067145000000001,8.849239,-0.0019297232999999998,0.00094500853,-0.0008271115400000001,-28.38,35.88,-17.34
1554880670275,4.046324299999999,1.2138973,8.858817,-9.712756999999999e-05,-0.00027672196,-0.00021624629,-28.439999,35.64,-17.34
1554880670295,4.0319586,1.2162915,8.815719999999999,-0.003762319,0.0015558738,0.00039461894999999995,-28.68,35.82,-16.8
1554880670315,4.0535073,1.2067145000000001,8.851633999999999,-0.0019297232999999998,0.002166739,0.00039461894999999995,-29.279999,35.82,-16.8
1554880670336,4.0535073,1.2067145000000001,8.851633999999999,-0.0019297232999999998,0.002166739,0.00039461894999999995,-29.279999,35.82,-16.8
1554880670355,4.084633,1.1827718,8.863605499999998,0.0023463335999999997,0.0033884696,0.00039461894999999995,-28.619999,35.52,-17.64
1554880670375,4.06069,1.1803774999999999,8.844451,0.0005137376999999999,0.0003341433,-0.0014379768,-28.859999,35.34,-16.98
1554880670395,4.0319586,1.1827718,8.851633999999999,0.0017354682,0.00094500853,-0.002048842,-28.439999,35.399998,-16.56
1554880670416,4.0319586,1.1947431999999998,8.880365,-9.712756999999999e-05,-0.0014984523999999999,0.0022272146,-28.439999,35.399998,-16.56
1554880670436,4.0319586,1.1947431999999998,8.880365,-9.712756999999999e-05,-0.0014984523999999999,0.0022272146,-28.439999,35.399998,-16.56
1554880670455,4.046324299999999,1.1899546,8.870789,-9.712756999999999e-05,0.002166739,-0.00021624629,-28.38,35.579997999999996,-17.22
1554880670476,4.0295644,1.1899546,8.861211,-0.0019297232999999998,0.002166739,0.0010054843,-28.439999,35.64,-17.1
1554880670495,4.0295644,1.2234744,8.863605499999998,0.0023463335999999997,-0.004552779,-0.0008271115400000001,-28.92,35.88,-16.26
1554880670515,4.034353299999999,1.2354459,8.849239,-0.0013188579999999998,-0.0021093178,-0.00021624629,-28.92,35.88,-16.26
1554880670535,4.034353299999999,1.2354459,8.849239,-0.0013188579999999998,-0.0021093178,-0.00021624629,-28.92,35.88,-16.26
1554880670556,4.034353299999999,1.1803774999999999,8.842057,-9.712756999999999e-05,0.0027776044,-0.0014379768,-28.199999,34.92,-16.92
1554880670576,4.051113,1.1923488000000002,8.851633999999999,-0.0019297232999999998,0.0033884696,-0.0032705725,-28.859999,34.62,-16.74
1554880670595,4.063084,1.1875603000000001,8.861211,-0.0019297232999999998,0.0015558738,-0.002048842,-28.619999,35.16,-16.26
1554880670617,4.063084,1.1875603000000001,8.861211,-0.0019297232999999998,0.0015558738,-0.002048842,-28.619999,35.16,-16.26
1554880670636,4.063084,1.1875603000000001,8.861211,-0.0019297232999999998,0.0015558738,-0.002048842,-28.619999,35.16,-16.26
1554880670655,4.0726614,1.1827718,8.844451,-0.0013188579999999998,-0.0014984523999999999,-0.0032705725,-29.039998999999998,35.1,-17.16
1554880670675,4.0559015,1.2138973,8.873182,-0.0007079928,0.0027776044,0.0040598107,-28.92,35.7,-17.4
1554880670696,4.0798445,1.1875603000000001,8.851633999999999,0.0011246029,0.00094500853,-0.00021624629,-28.32,35.88,-17.58
1554880670715,4.0798445,1.1875603000000001,8.851633999999999,0.0011246029,0.00094500853,-0.00021624629,-28.32,35.88,-17.58
1554880670736,4.046324299999999,1.211503,8.861211,-0.0013188579999999998,0.005221065,0.005281541,-28.98,35.76,-17.4
1554880670755,4.046324299999999,1.1899546,8.873182,0.0017354682,0.00094500853,0.0010054843,-28.8,35.88,-17.4
1554880670775,4.041536,1.1995316999999999,8.880365,0.0005137376999999999,0.0039993348,0.0022272146,-28.68,35.64,-17.34
1554880670796,4.041536,1.1995316999999999,8.880365,0.0005137376999999999,0.0039993348,0.0022272146,-28.68,35.64,-17.34
1554880670815,4.02717,1.1947431999999998,8.861211,-0.0019297232999999998,-0.0021093178,-0.002048842,-28.14,35.52,-17.4
1554880670836,4.048719,1.2186858999999999,8.868394,0.0005137376999999999,-0.00027672196,-0.0008271115400000001,-28.26,35.34,-17.52
1554880670856,4.063084,1.2186858999999999,8.868394,-9.712756999999999e-05,-0.0033310482,-0.0026597073,-28.199999,35.46,-17.64
1554880670876,4.0535073,1.2282629999999999,8.851633999999999,0.0011246029,-0.0033310482,-0.0026597073,-28.439999,35.52,-17.1
1554880670895,4.0559015,1.2258687,8.813326,-0.0031514538,-0.0008875872,-0.0008271115400000001,-29.099998,35.579997999999996,-16.68
1554880670916,4.0295644,1.2067145000000001,8.822903,-0.005594915,0.005221065,-0.002048842,-28.92,35.28,-17.52
1554880670935,4.034353299999999,1.1923488000000002,8.875577,-0.0019297232999999998,0.0076645263,0.00039461894999999995,-28.38,35.219997,-16.68
1554880670955,4.0439300000000005,1.1875603000000001,8.861211,-0.0043731844,0.0027776044,0.00039461894999999995,-28.26,35.52,-16.74
1554880670976,4.0439300000000005,1.1875603000000001,8.861211,-0.0043731844,0.0027776044,0.00039461894999999995,-28.26,35.52,-16.74
1554880670996,4.0439300000000005,1.1923488000000002,8.863605499999998,-0.0031514538,0.00094500853,0.0040598107,-28.32,35.88,-17.279999
1554880671015,4.034353299999999,1.1684061000000001,8.861211,-0.0007079928,-0.0014984523999999999,0.0022272146,-28.74,35.88,-16.8
1554880671035,4.0439300000000005,1.1779832000000001,8.849239,-9.712756999999999e-05,-0.0008875872,0.0010054843,-28.859999,35.64,-17.58
1554880671056,4.065479,1.2234744,8.861211,0.0005137376999999999,-0.0008875872,0.0016163494,-28.92,34.739998,-17.34
1554880671075,4.065479,1.2234744,8.861211,0.0005137376999999999,-0.0008875872,0.0016163494,-28.92,34.739998,-17.34
1554880671096,4.1013927,1.2546,8.827691,-9.712756999999999e-05,-0.0014984523999999999,-0.00021624629,-29.46,34.559998,-17.16
1554880671116,4.1157584,1.2474172,8.842057,0.0005137376999999999,-0.0008875872,-0.0014379768,-29.279999,34.5,-16.8
1554880671135,4.075055600000001,1.2354459,8.822903,-0.0043731844,0.006442796,-0.0014379768,-28.56,35.52,-17.22
1554880671155,4.075055600000001,1.2354459,8.822903,-0.0043731844,0.006442796,-0.0014379768,-28.56,35.52,-17.22
1554880671175,4.02717,1.1899546,8.868394,-0.0031514538,0.013773178999999998,-0.0026597073,-28.859999,36.12,-17.76
1554880671195,3.9936504,1.1636176,8.877971,-0.0019297232999999998,0.010718852,0.0010054843,-28.26,35.579997999999996,-17.279999
1554880671215,3.9505534,1.1420691,8.921068,-9.712756999999999e-05,0.00094500853,0.005892405999999999,-29.039998999999998,35.7,-17.039998999999998
