TimeStamp,Ax,Ay,Az,Gx,Gy,Gz,Mx,My,Mz
1554879965327,-4.618556,12.790216000000001,-1.6712039,0.060556293,0.32298097,-0.22911112,-13.139999,-21.66,18.84
1554879965346,-5.106987999999999,9.8237095,-1.1995316999999999,-0.09887953,0.78296244,0.26935490000000006,-13.2,-22.98,19.439999
1554879965366,-5.4517636,9.450203,0.8356019,-0.032295223,0.5789335,0.6352631999999999,-13.679998999999999,-22.74,18.779999
1554879965386,-5.482889,9.038387,-1.7478206000000003,-0.24304374,-0.21824566,1.0989098999999998,-14.099998999999999,-22.08,17.76
1554879965407,-4.163644000000001,8.41827,-0.03351985,-0.33589527,-0.6770054,1.5772175,-14.34,-22.5,17.64
1554879965426,-2.8372157000000002,9.27542,-0.28970724,-0.096436076,-0.7325941999999999,1.6157019,-14.519999499999999,-22.08,17.699999
1554879965447,-2.4708917,9.73991,-0.5770202,0.045895528,-0.8969169,1.6749558,-15.36,-21.06,17.16
1554879965466,-0.5794145,11.092675,-0.9505271000000001,-0.013358401,-0.90363646,1.5863804,-16.92,-20.58,17.4
1554879965486,0.4189981,9.780613,-0.31843856,0.056280237000000004,-0.71915513,1.1459465,-17.4,-19.98,17.16
1554879965506,-0.102953814,9.344854,-1.0319325000000001,-0.02007792,-0.46075916,0.6212133000000001,-17.34,-19.68,17.279999
1554879965526,-1.5443072,8.607418,-0.87630457,-0.06589281599999999,-0.23779336,0.2889026,-17.88,-19.92,17.88
1554879965547,-1.5562786,8.803747999999999,-1.4150163999999998,-0.1734051,-0.06003156,-0.0128648225,-17.16,-19.859999,17.699999
1554879965566,-1.2641771000000002,8.480521000000001,-0.9194015,-0.22838296,-0.03681868,-0.21322863,-16.56,-20.58,19.08
1554879965587,-1.9226026999999999,9.929058,-1.0223553,-0.29008034,0.0829109,-0.24804795,-17.1,-20.699999,19.26
1554879965606,-1.8842942999999999,9.972155,-0.3615355,-0.25892624,0.22585338,-0.30119320000000005,-17.279999,-19.74,18.0
1554879965626,-2.5187771,10.292988000000001,0.38547826,-0.15813346,0.27838778,-0.27248254,-17.22,-19.8,18.18
1554879965647,-2.291321,10.041589,1.0654523,0.038565143999999996,0.21791212,-0.2926411,-17.46,-20.76,17.88
1554879965666,-2.432583,9.981731,0.8643332,0.20655309,0.027933035,-0.2596544,-17.4,-21.42,17.76
1554879965687,-3.1388943,9.900327,0.25858167,0.27497,-0.094850875,-0.19123748,-17.76,-21.0,17.64
1554879965706,-3.301705,9.622589999999999,-0.062251142999999995,0.23404202,-0.18648067,-0.07089702,-17.88,-20.52,17.76
1554879965726,-2.8180614,9.680053,-0.39026679999999997,0.17051204,-0.26406056,0.05494122,-16.68,-20.939999,17.64
1554879965747,-2.7318675999999997,10.3743925,-0.48364350000000006,0.13141666,-0.30376679999999995,0.14657101,-16.619999,-21.119999,17.52
1554879965766,-3.0024207,11.097464,-0.38068968,0.11858849,-0.3263688,0.26507884,-17.039998999999998,-20.64,19.619999
1554879965786,-3.4333901,10.427067,-0.28491869999999997,0.10026254,-0.31964928,0.40741047,-16.38,-20.58,22.8
1554879965807,-2.7917243999999997,10.960989999999999,-0.6751855,0.033678222,-0.22068912,0.5631811,-15.9,-20.939999,24.18
1554879965826,-2.2793495999999998,8.241094,0.96489275,0.08254744,-0.28421912,0.6102177,-16.14,-21.3,24.3
1554879965847,1.5012103,5.1692395,-0.8475733,0.06666495,-0.31537324,0.08487362,-16.38,-21.18,24.24
1554879965866,-0.9289786,9.550761999999999,-0.76137936,-0.084829636,-0.16448952,-0.02996905,-16.26,-20.82,24.0
1554879965886,-1.2785428,10.132571,-0.6703969,0.014130536,-0.03437522,-0.015308283,-16.68,-19.8,21.119999
1554879965907,-1.5730386,10.127783,-0.47167215,0.033067357,0.0987934,0.00485027,-17.16,-19.32,18.66
1554879965926,-1.6616267,9.656111,-0.3615355,0.07582793,0.15010607,0.0011850786,-17.22,-19.199999,19.26
1554879965946,-2.0231621,9.495694,-0.35674694,0.09842994,0.17637329,-0.008588765,-17.82,-19.439999,19.8
1554879965967,-2.1141446,9.45978,-0.47167215,0.103927724,0.13666706,0.010348056,-16.92,-18.66,21.3
1554879965986,-2.3583608,9.498088000000001,-0.51955765,0.0990408,0.08718696,0.008515462,-16.38,-18.42,20.76
1554879966006,-2.5953939999999998,9.5483675,-0.52913475,0.08926696,0.034652552999999996,0.00485027,-16.14,-18.0,20.58
1554879966027,-2.597788,9.567522,-0.44294083,0.08071484400000001,0.0047201556,-0.013475687,-16.92,-17.88,20.88
1554879966046,-2.5427197999999995,9.708784,-0.39266106,0.08071484400000001,-0.027655702,-0.026914722999999998,-17.46,-18.3,21.48
1554879966067,-2.308081,9.646533,-0.39266106,0.097819075,-0.083244435,-0.023860397000000002,-16.92,-18.0,21.359999
1554879966086,-2.1069617000000003,9.603436,-0.37829542,0.12775147,-0.10951164,-0.022027802000000003,-16.5,-18.84,22.859999
1554879966106,-2.0518935000000003,9.596252999999999,-0.38787252,0.15646215,-0.12722674,-0.0079779,-16.74,-19.5,25.68
1554879966126,-1.9633054,9.536397000000001,-0.4189981,0.18028589,-0.12172895,0.0036285396000000003,-16.199999,-18.84,26.34
1554879966146,-2.013585,9.57231,-0.409421,0.18150762,-0.13455711,0.013402384,-16.92,-18.3,25.74
1554879966166,-1.9680939,9.534002000000001,-0.41181526,0.18578367,-0.12600501,-0.00064751715,-16.8,-18.72,26.16
1554879966187,-1.908237,9.708784,-0.45730647,0.18272933,-0.10095953,-0.0360777,-15.9,-18.84,25.14
1554879966206,-1.6233183,9.644139,-0.69194543,0.17051204,-0.069805406,-0.0678427,-16.859999,-17.94,22.439999
1554879966228,-1.3479767,9.529214,-1.158829,0.13935791,-0.00994061,-0.0941099,-17.039998999999998,-17.94,21.06
1554879966247,-1.0726352,9.653716000000001,-1.5012103,0.08010398,0.1305584,-0.08677952,-16.74,-18.3,21.06
1554879966266,-1.0175668,10.024828999999999,-1.376708,0.041008607,0.27960953,-0.06478837,-17.46,-18.119999,21.18
1554879966286,-1.3168511,10.187639,-1.2737542,0.011076208999999998,0.38528922,-0.031190779,-17.279999,-18.359999,21.96
1554879966306,-1.7741576000000001,9.998491,-0.9481328000000001,-0.00969321,0.44271055,0.020732768000000002,-16.199999,-19.5,25.14
1554879966326,-2.0806248,9.737515,-0.65124273,-0.007249749000000001,0.41216728,0.06654766,-15.78,-19.74,27.539998999999998
1554879966346,-2.2625897,9.622589999999999,-0.5147691,0.0013023647,0.29671374,0.09037141,-16.38,-19.02,27.119999
1554879966366,-2.2721667,9.574705,-0.6105401,-0.0011410962,0.1727081,0.060439005,-17.039998999999998,-19.199999,26.16
1554879966386,-2.0447106,9.478933999999999,-0.6249057,0.00069149944,0.060308892,0.059217278,-17.279999,-19.5,26.58
1554879966406,-2.2194927000000004,9.665688000000001,-0.7805335999999999,0.024515243,0.009607078,0.023176227,-18.119999,-18.9,24.9
1554879966427,-2.0159793,9.646533,-0.9912298,0.045284662,-0.008108014,-0.0030909781,-18.3,-17.94,21.779999
1554879966446,-1.8747171000000002,9.555551,-1.1277034,0.04345207,-0.02643397,0.009737191999999999,-18.18,-17.699999,20.82
1554879966466,-1.6712039,9.613013,-1.211503,0.041619472000000005,0.019991787,0.012791518,-18.42,-18.42,20.58
1554879966486,-1.3814965,9.730332,-1.2522057,0.034289087999999995,0.10673465,0.0140132485,-18.539998999999998,-18.18,20.939999
1554879966506,-1.1827718,9.771035000000001,-1.2138973,0.015963131999999998,0.22463164,0.01767844,-18.42,-18.84,23.939999
1554879966526,-1.0415094999999999,9.615408,-1.2067145000000001,-0.0066388836,0.33397654,0.013402384,-17.94,-19.32,29.4
1554879966547,-1.1013663999999999,9.610619999999999,-1.1348863,-0.037182145,0.42621717,-0.0079779,-17.64,-18.48,31.92
1554879966566,-1.1396747999999999,9.742303999999999,-0.9888355,-0.053675506,0.48608196,-0.034245107000000004,-17.699999,-18.48,31.439999
1554879966586,-1.1995316999999999,9.699207000000001,-1.010384,-0.059173292999999995,0.55266625,-0.05196019599999999,-18.539998999999998,-18.539998999999998,29.099998
1554879966607,-1.3695252,9.603436,-1.1061549,-0.062227618,0.63024616,-0.07395135,-18.84,-18.18,27.9
1554879966626,-1.2857256000000001,9.663293,-1.1181264,-0.060395025,0.7084369,-0.08372519,-18.18,-18.24,29.34
1554879966646,-1.2689656,9.675264,-1.0702409,-0.055508102999999996,0.78540593,-0.088001244,-18.42,-18.359999,29.699999
1554879966666,-0.99362403,9.557945,-1.1253091,-0.062227618,0.88375527,-0.08067087,-19.199999,-18.3,28.68
1554879966686,-1.1300976999999999,9.699207000000001,-1.0510867,-0.06344935,0.9570591,-0.058068853,-19.68,-18.779999,28.619999
1554879966706,-1.2474172,9.842864,-1.1181264,-0.06406022,0.98271537,-0.039132025,-20.46,-18.9,28.5
1554879966726,-1.1995316999999999,9.845258,-1.1803774999999999,-0.07383406,0.98943496,-0.033634238,-20.88,-18.119999,28.439999
1554879966747,-1.4629020000000001,9.821315,-1.1875603000000001,-0.09399261,1.0040957,-0.023249531,-22.439999,-17.58,27.779999
1554879966766,-1.4413534,9.799767,-1.1827718,-0.11659463,1.0535758,-0.04951673400000001,-23.58,-17.76,26.88
1554879966786,-1.1899546,9.775824,-1.2785428,-0.1398075,1.0804539,-0.07517308,-23.58,-17.76,26.34
1554879966807,-0.7877164000000001,9.636956,-1.3575538,-0.17096163,1.1482598999999998,-0.13137268,-23.82,-18.06,25.619999
1554879966826,-1.5897985000000001,9.615408,-0.8834874,-0.14897048,1.1067209999999998,-0.10877067,-24.18,-18.18,26.519999
1554879966846,-1.5993756000000001,9.495694,-0.91700727,-0.09521434,1.0291411,-0.07272962,-24.6,-17.94,26.64
1554879966867,-1.2426286,9.522031,-1.1971374,-0.093381755,1.052354,-0.12282056,-24.539998999999998,-17.82,25.619999
1554879966886,-1.2091087999999999,9.811738,-1.5826156,-0.11720549,1.0871733000000001,-0.20162217,-25.32,-18.0,24.96
1554879966906,-1.3814965,9.917086999999999,-1.3264283000000001,-0.14958134,1.0725126,-0.18390709,-26.16,-18.42,23.4
1554879966926,-1.4916332,10.029617,-1.2162915,-0.14652702,1.0016521999999999,-0.15153123,-27.0,-18.72,22.859999
1554879966947,-1.2617828000000002,9.996098,-1.1660118,-0.14102924,0.9222396999999999,-0.108159795,-27.359999,-18.6,24.0
1554879966966,-1.4341706,9.80695,-1.2857256000000001,-0.1593552,0.86848366,-0.07089702,-27.06,-17.58,24.0
1554879966986,-1.5586729,9.761458,-1.4700848,-0.20028317,0.8226687,-0.04524068,-27.119999,-17.64,23.279999
1554879967007,-1.6903580000000002,9.909904,-1.6999351000000003,-0.25465018,0.7964015,-0.034245107000000004,-27.539998999999998,-17.699999,22.26
1554879967026,-1.6999351000000003,10.113417,-1.8268316999999998,-0.33345178,0.79090375,0.008515462,-27.779999,-17.64,21.18
1554879967047,-1.6113469999999999,10.108628,-1.515576,-0.39514917,0.75730616,0.08487362,-27.9,-18.24,20.16
1554879967066,-1.3479767,10.022434,-1.2498114,-0.47028562,0.73042804,0.1343537,-28.619999,-17.88,19.02
1554879967086,-1.1277034,9.8787775,-1.1444633,-0.5967347,0.7230977,0.17405994,-30.66,-16.98,18.42
1554879967106,-1.063058,9.73991,-0.81165916,-0.73295766,0.6803371,0.20338146,-32.1,-15.599998999999999,18.66
1554879967126,-0.9481328000000001,9.680053,-0.7637736999999999,-0.8740674999999999,0.6601786000000001,0.22415090000000001,-31.98,-14.7,19.859999
1554879967146,-0.64166564,9.581888000000001,-0.66321415,-1.0359466999999998,0.6522373,0.24186598,-32.399998,-15.36,19.74
1554879967167,-0.41181526,9.531608,-0.68715686,-1.1990478,0.6100876000000001,0.25102895,-32.46,-15.42,18.96
1554879967186,-0.409421,9.311335,-0.7972935,-1.4165158000000002,0.563051,0.28951350000000003,-32.16,-15.179998999999999,18.779999
1554879967207,-0.9289786,9.194015499999999,-0.32083282,-1.6046623,0.52273387,0.38297585,-31.5,-15.179998999999999,18.66
1554879967226,-1.1468576000000001,9.754275,0.18914771,-1.6400925,0.49646667,0.45017102,-30.359999,-15.299999,18.359999
1554879967246,-1.3886794,10.800573,0.45012367,-1.7897545,0.6546808000000001,0.43856459999999997,-29.16,-15.54,16.92
1554879967266,-1.185166,11.080703999999999,1.7047237000000002,-2.1483326000000003,0.61069846,0.48865554,-27.96,-15.36,13.92
1554879967286,-0.94095,10.858036,1.9297855,-2.336479,0.50318617,0.6884085,-27.48,-15.12,10.26
1554879967306,-0.61293435,10.601849000000001,2.19555,-2.3719091,0.31137452,1.0030040999999998,-28.14,-15.48,7.3199997
1554879967326,-0.5650489000000001,10.922682,2.0806248,-2.194147,0.20874915,1.2559023,-28.019999,-16.26,5.58
1554879967346,-0.12450229,10.697619,2.918621,-1.6962921999999998,0.058476295,1.3811296,-27.9,-15.839998999999999,3.78
1554879967366,0.32562137,10.204399,3.3040992999999994,-1.0799291000000002,0.09268475,1.4037316999999998,-28.56,-15.12,1.4399998999999999
1554879967387,0.6751855,9.471751,2.978478,-0.42141637,0.28327470000000005,1.4006773000000001,-29.519999,-15.719999,-0.71999997
1554879967406,0.5123747999999999,8.375174000000001,1.7286664,0.20716396,0.67972624,1.420836,-30.119999,-15.48,-2.46
1554879967426,0.33759275,7.704776299999999,0.9624985,0.6243849,1.0315846,1.3847948,-29.58,-13.92,-3.3
1554879967446,0.52913475,7.556331,1.3982565,0.9542521,1.0786213,1.320654,-28.32,-12.66,-4.5
1554879967467,0.67279124,8.011244,1.4820561,1.2645716999999999,0.9399548000000001,1.2271916999999999,-28.68,-11.759999,-6.48
1554879967486,0.54350036,7.9873009999999995,1.5059988000000002,1.4203423000000002,0.7426454,1.094023,-30.3,-11.34,-8.88
1554879967506,1.2905141000000002,8.358414,1.5347302,1.7410467,1.0590736,0.7953099,-31.38,-11.28,-10.44
1554879967526,1.3647367,8.784595,1.1492518999999999,1.9768406000000003,1.5715895,0.5057598,-32.46,-11.04,-11.099999
1554879967547,1.3791022,7.067899000000001,0.42618093,1.9517951,1.528829,0.3646499,-32.88,-11.099999,-11.58
1554879967566,0.009577099,8.935433,0.80687064,2.0678593999999997,1.8220443,0.06776939,-33.48,-11.28,-12.3
1554879967587,-0.9816527,10.537204,0.42378664,1.7825855,1.7194189999999998,-0.18146363,-34.559998,-11.519999499999999,-12.54
1554879967606,-1.6879636999999998,12.44544,1.5203645000000001,1.4734875,1.370004,-0.23949583,-35.52,-11.88,-12.24
1554879967627,-0.88109314,14.935486,1.4820561,0.5278682,0.5490010999999999,0.01523498,-35.28,-12.24,-11.759999
1554879967646,1.1516461,14.054393,1.5299416000000001,0.03001303,-0.09607261,0.20765753,-34.8,-12.48,-11.28
1554879967666,-0.18196489,9.000079,0.11253092,-0.097046934,0.07008274,-0.11487932,-35.219997,-12.54,-11.28
1554879967686,-2.1141446,7.0774764999999995,0.023942748,-0.26564574,0.29732463,-0.64449954,-35.219997,-11.88,-11.58
1554879967706,-3.6967604,7.21395,1.0846065,-0.7769399,1.1836901000000002,-1.2462018,-34.02,-11.82,-11.219999000000001
1554879967727,-2.3224466,9.876384,0.9026415999999999,-0.681645,0.7994558,-1.4135788999999999,-33.78,-12.66,-12.179999
1554879967746,0.25379312,11.284217,-1.0726352,-0.30962804,0.13605618,-1.086155,-34.739998,-13.259998999999999,-14.88
1554879967767,3.3495904999999997,9.680053,-2.7893302,0.3122328,0.30282238,-0.20895256,-34.44,-14.219999,-15.599998999999999
1554879967786,4.1756153,8.923461999999999,-1.8411973999999998,0.3574368,0.77502126,0.22781609,-34.2,-14.46,-16.199999
1554879967806,4.1804037,8.514041,-0.14605077,-0.19234192,0.8690945,0.29134607,-34.739998,-14.099998999999999,-17.699999
1554879967827,2.9760835,9.701602000000001,1.158829,-0.59917814,1.1592555,0.21498792,-35.16,-13.62,-18.539998999999998
1554879967846,1.3407938,10.405519,1.6448668000000002,-0.53442645,0.9124658999999999,0.20215975,-36.3,-12.719999000000001,-19.38
1554879967866,0.27055305,10.769447999999999,0.9241901,-0.33528438,0.6528482,0.11419515,-37.38,-10.92,-19.859999
1554879967886,0.021548472000000003,10.498895,0.10774237,-0.07566666,0.35841113,0.10319958,-36.719997,-10.139999000000001,-20.34
1554879967906,-0.019154198,10.187639,0.32083282,-0.06833627,0.28266385,0.14107323,-36.12,-10.98,-19.859999
1554879967926,-0.30886146,9.890749000000001,0.8356019,-0.10559905,0.1849254,0.1679513,-36.42,-12.0,-19.08
1554879967946,-0.59378016,9.591465,-0.69673395,-0.18623327,0.1830928,0.04944343,-36.0,-13.38,-18.3
1554879967966,-0.9529214,9.694419,-0.505192,-0.30718458,0.22402078,0.008515462,-36.18,-13.92,-17.1
1554879967987,0.38547826,9.526819,-0.28013015,-0.38109928,0.31992665,-0.15519643,-35.94,-13.5,-17.52
1554879968006,0.37590113,9.747093,0.86193895,-0.36949283,0.32053748,-0.23094371,-36.12,-13.08,-18.42
1554879968030,0.011971374,10.611426,0.3615355,-0.359719,0.25150973,-0.27126083,-36.66,-13.44,-17.82
1554879968047,0.11253092,10.755082000000002,0.035914123,-0.42508158,0.23074029999999998,-0.26209784,-36.48,-13.74,-17.039998999999998
1554879968066,-0.15562786,10.130177,0.90982443,-0.5038832000000001,-0.008108014,-0.13564874,-36.239998,-13.679998999999999,-17.22
1554879968087,-0.05985687,9.4932995,0.9960183000000001,-0.5283178000000001,-0.06308589,-0.10205115,-35.28,-13.86,-18.42
1554879968106,0.03351985,9.857229,0.48603779999999996,-0.5277069000000001,-0.07408146,-0.12282056,-34.68,-14.28,-20.52
1554879968127,0.028731298,10.331296,0.27294734,-0.5490871999999999,-0.10034867,-0.09960769,-33.84,-14.28,-21.3
1554879968146,-0.37829542,9.984126,0.016759925,-0.67431456,-0.18648067,-0.08739038,-32.76,-13.559999,-21.84
1554879968166,-1.2186858999999999,9.301758,0.44054657,-0.84046996,-0.3141515,-0.07089702,-32.64,-13.139999,-22.26
1554879968186,-2.152453,8.825297,1.3551594999999999,-1.0933681999999998,-0.59637123,-0.09166644,-32.94,-12.179999,-22.02
1554879968207,-2.9832664,9.016839,2.4277947,-1.3438228,-1.1626433,-0.1277075,-34.14,-11.639999000000001,-23.1
1554879968226,-2.2721667,9.11261,2.4637089,-1.3670357,-1.7594587,-0.16069421,-35.1,-11.7,-23.76
1554879968247,-1.1660118,8.990502000000001,1.6975409,-1.3694793,-2.3782651,-0.26270872,-35.94,-10.92,-22.92
1554879968266,0.4189981,8.55235,0.6344828,-1.3181665,-2.651933,-0.4087055,-36.66,-10.8,-22.32
1554879968286,1.9537282,7.802942,-0.19633053,-1.3780313999999998,-2.6446023,-0.5296568,-36.84,-11.099999,-21.779999
1554879968306,3.241848,7.3576064,-0.028731298,-1.4849328000000002,-2.315346,-0.5565349,-37.5,-11.219999000000001,-20.64
1554879968326,3.3687446000000003,8.135746000000001,2.640885,-1.5075347,-2.2493724999999998,-0.40626204,-37.62,-11.28,-19.619999
1554879968346,3.5243726000000004,11.10704,3.0024207,-1.6297078999999999,-1.8608623,0.072045445,-38.1,-11.4,-18.539998999999998
1554879968366,6.229903,12.134185,2.6648278,-1.9076514999999998,-0.79856765,0.44345150000000005,-38.399998,-11.759999,-17.46
1554879968387,6.842837299999999,8.734314999999999,2.2242813,-2.0615897000000003,0.25639665,0.38297585,-37.739998,-10.44,-16.92
1554879968406,4.869955,4.867561,2.9689007000000003,-2.3279269,1.0633496,-0.01958434,-37.92,-9.24,-17.34
1554879968427,1.8771113999999998,4.7909440000000005,4.9202347,-2.345031,1.0578518,-0.3470081,-38.579997999999996,-9.179999,-18.6
1554879968447,-1.1540405,6.014418,7.0152254,-2.3022704,0.55877495,-0.38732523,-37.98,-8.639999000000001,-20.52
1554879968466,-2.3128695,6.2873654000000005,9.8787775,-1.9571316000000003,-0.28421912,-0.39343387,-37.62,-8.82,-22.619999
1554879968487,-1.5802213999999999,6.5028505,7.307327000000001,-1.5997754,-1.0850635,-0.41542503,-37.62,-9.3,-23.16
1554879968506,-0.16520496,5.949773,5.025583,-1.3939138999999998,-1.0551311,-0.38549262,-37.86,-8.22,-23.039998999999998
1554879968527,1.3886794,4.4988421999999995,5.133325,-1.3090036,-0.7539745,-0.32196265,-38.16,-8.04,-23.34
1554879968546,1.9920366000000003,4.235472,6.4573593,-1.3059492,-0.6269145,-0.21139602,-38.04,-8.28,-22.92
1554879968566,1.9297855,5.590631500000001,8.4781275,-1.4055203,-0.73198336,-0.17046805,-38.1,-7.62,-22.8
1554879968586,0.9624985,6.366377,9.086273,-1.4953174999999999,-0.9946554,-0.21139602,-38.399998,-7.2,-23.16
1554879968606,0.083799616,6.773403599999999,7.9561753,-1.492874,-1.1571455,-0.23888497,-37.92,-6.96,-23.46
1554879968626,0.07422252,6.478907599999999,6.766220599999999,-1.569843,-1.1229371000000001,-0.13320528,-37.92,-6.42,-24.18
1554879968647,0.34477556,4.96812,6.8787518,-1.5411323000000001,-0.99160105,-0.13870306,-38.64,-5.94,-23.939999
1554879968666,0.5602603,4.051113,8.315316000000001,-1.3609271,-1.1113307,-0.18757229,-39.48,-5.64,-23.699999
1554879968686,1.5658557,5.5642949999999995,8.9498,-1.3059492,-1.218232,-0.1399248,-39.6,-6.18,-23.16
1554879968706,2.8156672,6.5387645,8.020821,-1.3645923,-1.1107197,0.032339208,-39.3,-5.8799996,-22.32
1554879968726,3.258608,5.506832,8.945011000000001,-1.5063131,-0.824224,0.076321505,-40.02,-5.1,-22.5
1554879968747,1.924997,4.1420956,9.735122,-1.4873762,-0.61775154,-0.045851544,-39.96,-5.1,-22.14
1554879968766,1.1899546,3.8571767999999995,9.028810499999999,-1.4476701,-0.6550143,-0.057457983,-39.78,-4.38,-21.96
1554879968787,4.7789725999999995,4.7693954000000005,7.8723755,-1.5814495000000002,0.048702452,0.08853881,-40.26,-4.38,-22.859999
1554879968806,2.4948344,2.5115943,11.092675,-1.4867654,0.50074273,0.09770179,-41.04,-3.78,-22.98
1554879968826,0.9792584000000001,2.7893302,10.371999,-1.4983718000000001,0.31198537,-0.10388374,-41.1,-2.46,-23.039998999999998
1554879968846,1.5203645000000001,0.71588814,11.980951,-1.4623308000000002,0.20325136,-0.070286155,-40.739998,-1.92,-24.06
1554879968866,2.126116,0.9505271000000001,14.885206,-1.2234824,0.3797914,-0.06601010000000002,-39.899998,-1.74,-24.72
1554879968887,2.3152637,2.3751206000000002,15.71602,-0.75128365,0.39017612,-0.04279722,-39.36,-2.04,-25.199999
1554879968906,-0.18914771,2.5115943,12.806975999999999,-0.359719,0.040761202999999996,0.09709092,-38.82,-2.1599998,-24.96
1554879968927,-0.5913859,1.4389591,9.648928,-0.13003366,-0.33492094,0.25102895,-38.34,-1.14,-25.199999
1554879968946,0.6177229000000001,0.6560313,9.395133999999999,-0.05489724,-0.4619809,0.32799798,-39.719997,-0.29999998,-26.16
1554879968967,1.9848539,-0.083799616,9.780613,0.09598648,-0.44365492,0.38297585,-39.96,-0.65999997,-25.68
1554879968986,2.7246847,0.105348095,8.648121000000002,0.16134906,-0.43815714,0.4538362,-40.14,-0.96,-26.099998
1554879969006,3.0167862999999997,0.36632404,8.609812,0.23526375,-0.49802193,0.5088140999999999,-41.52,-0.53999996,-26.099998
1554879969027,3.328042,1.0391153,7.336058,0.17906415,-0.5010763,0.46177748,-40.86,-0.06,-24.3
1554879969046,3.8859081,1.3431882,7.9920893,0.14424482,-0.51023924,0.36953685,-40.079997999999996,0.71999997,-23.699999
1554879969066,4.1899809999999995,2.0231621,10.941835000000001,0.21571606,-0.8065089,0.29501125,-40.379996999999996,0.29999998,-23.82
1554879969086,3.6536633999999997,3.493247,8.818114,0.1992227,-0.8071196999999999,0.26568973,-40.559998,0.06,-23.34
1554879969107,4.7143273,4.0822387,8.535589,0.116755895,-0.58781916,0.2595811,-40.86,0.9,-21.72
1554879969126,5.657671499999999,4.3192715999999995,9.948212,0.06544322,-0.738092,0.29867646,-41.52,1.26,-21.06
1554879969147,4.783761,4.326454599999999,9.196409,-0.010304076,-0.76558095,0.39152798,-42.12,1.0799999,-21.539998999999998
1554879969166,3.7781656000000003,3.6895776,7.56112,-0.18501154,-0.42288554,0.3982475,-42.78,1.56,-20.88
1554879969186,3.8188684,2.9018610000000002,9.210775,-0.23021556,-0.3984509,0.37869980000000003,-43.14,2.52,-20.1
1554879969206,3.3567734,2.6289136,9.165284,-0.2503741,-0.43143760000000003,0.40435615,-43.26,2.76,-19.68
1554879969227,2.3918805,1.5802213999999999,9.421472,-0.26686750000000004,-0.26650402,0.43062335,-43.079997999999996,2.82,-17.52
1554879969246,2.1332988999999998,0.86912173,9.399923,-0.14469443,-0.42777243,0.35121086,-42.899998,3.48,-18.0
1554879969267,1.6975409,0.24900457,8.727132000000001,0.018406592,-0.6947205,0.20582494,-43.739998,4.3199997,-19.26
1554879969286,1.6400781999999998,0.18435916,7.6712565,0.16806857,-0.8804235999999999,0.019511037,-43.98,4.5,-18.539998999999998
1554879969307,2.8898897,0.29210153,7.946598,0.36293459999999994,-1.1107197,-0.15336382,-44.1,4.3199997,-18.42
1554879969326,4.3408203,0.52674043,7.7742105,0.49304888,-1.2335037,-0.25476745,-44.16,4.7999997,-17.46
1554879969346,6.0096297,1.4054393,7.843644,0.11614503,-1.1229371000000001,-0.14481172,-43.92,4.68,-16.38
1554879969366,8.743892,4.680807,9.627379,-0.18806586,-0.62080586,0.20521407,-43.98,3.8999998999999996,-15.839998999999999
1554879969387,7.24747,3.5243726000000004,7.788575999999999,0.42402112,-0.87003887,0.37625635,-44.399998,4.08,-14.34
1554879969406,3.6129606,0.31125572,5.9282246,0.22060297,-0.6476839,0.064715065,-44.04,3.72,-13.32
1554879969427,3.2250881000000002,0.8786988000000001,7.2043729999999995,-0.020688783,-0.27872129999999995,-0.21994814,-43.62,3.12,-12.54
1554879969446,5.0447370000000005,2.1787900000000002,7.869981299999999,-0.13186626,-0.26711488,-0.28897592,-44.04,3.48,-11.639999000000001
1554879969466,7.0535336,3.6823947,8.952193,-0.17645943,-0.31354064,-0.28286725,-44.52,3.72,-11.519999499999999
1554879969486,6.572284,3.8835137000000004,8.439817999999999,-0.12209242,-0.38317925,-0.18940488,-44.28,3.84,-11.16
1554879969506,5.3799353,3.0335462000000004,7.563514,-0.09154916,-0.20663922,-0.12098797,-44.34,3.48,-11.16
1554879969526,4.759818599999999,2.638491,7.4892917,-0.035960413999999996,-0.046592525999999995,-0.07517308,-44.94,3.24,-10.62
1554879969547,4.735875599999999,2.291321,7.7095647,0.0037458257,0.023046114,-0.045851544,-44.399998,2.82,-10.74
1554879969567,5.114171,2.6767993,8.035186,-0.0005302310500000001,-0.07652493,-0.030579912999999997,-43.62,2.58,-10.98
1554879969586,5.377541000000001,2.7773588,7.898712599999999,-0.055508102999999996,-0.10034867,-0.010421361,-44.219997,2.6399999,-10.92
1554879969607,5.403878,2.317658,7.4868975,-0.09154916,-0.018492723,0.0036285396000000003,-44.7,3.24,-11.46
1554879969626,5.401484,2.0279508,7.49408,-0.083607905,0.07496966,0.01767844,-44.82,3.3,-10.74
1554879969647,5.5331693,2.0686533,7.649708,-0.05672983,0.09146302,0.026230552999999997,-45.059998,3.12,-10.98
1554879969666,5.521198,2.1500587,7.7909703,-0.055508102999999996,0.0847435,0.028063148,-44.82,3.48,-11.4
1554879969687,5.3799353,2.205127,7.8268843,-0.066503674,0.06886101,0.0341718,-44.399998,3.24,-11.639999000000001
1554879969706,5.286558599999999,2.1811842999999995,7.798153,-0.060395025,0.06947187,0.037836995,-44.219997,3.72,-11.759999
1554879969727,5.310501599999999,2.013585,7.8053360000000005,-0.05978416,0.089630425,0.03172834,-44.7,3.6,-11.16
1554879969746,5.4158497,2.030345,7.941809700000001,-0.062227618,0.10001513,0.017067576,-44.219997,3.24,-10.38
1554879969767,5.559506,2.1117504,8.020821,-0.04817772,0.08901956,-0.0067561697,-43.92,3.3,-11.28
1554879969786,5.6145744,2.1452703,7.814913000000001,-0.034738686,0.08168918,-0.01836261,-44.7,3.24,-12.84
1554879969806,5.4924664000000005,2.2314641,7.8316726999999995,-0.040236472999999995,0.07985658,-0.01836261,-44.64,3.0,-12.42
1554879969828,5.2458563,2.2266755000000003,7.9489923,-0.043901663,0.084132634,-0.014086553,-44.52,3.12,-12.36
1554879969846,5.1309309999999995,2.1596357999999998,8.126168,-0.03290609,0.08840869,-0.0079779,-43.379996999999996,3.1799998,-10.62
1554879969867,5.047130999999999,2.1476645,8.315316000000001,-0.0066388836,0.057254568,-0.00064751715,-42.36,2.76,-7.9199996
1554879969887,4.972909,2.2075214,8.28898,0.016573995,0.005331021,0.0024068089999999998,-42.6,2.52,-6.72
1554879969906,4.9633317,2.2242813,8.126168,0.021460919,-0.02399051,-0.00064751715,-42.719997,2.22,-6.42
1554879969927,5.0567082999999995,2.310475,7.977723599999999,0.0104653435,-0.021547051,-0.01958434,-43.26,2.58,-6.72
1554879969946,5.1524790000000005,2.4493432,7.953780999999999,-0.0066388836,-0.006886284,-0.028747317999999997,-43.739998,3.06,-8.46
1554879969966,5.2913475,2.5714512000000003,7.9370210000000005,-0.019467053999999998,0.015104865,-0.034245107000000004,-44.16,3.3,-11.28
1554879969986,5.375147,2.6289136,7.8556156,-0.032295223,0.037706878,-0.033023376,-44.7,3.06,-12.719999000000001
1554879970006,5.3823300000000005,2.5044115000000002,7.721536,-0.05245378,0.070693605,-0.03241251,-44.34,3.12,-13.139999
1554879970027,5.3368387,2.3727264,7.759844999999999,-0.06894714,0.0865761,-0.02996905,-44.28,3.12,-12.3
1554879970046,5.138114,2.1835787,7.989694999999999,-0.07383406,0.09573907400000001,-0.027525587,-44.34,3.3,-10.98
1554879970066,5.047130999999999,2.126116,8.214757,-0.054286372,0.065195814,-0.020195205,-43.86,3.1799998,-10.8
1554879970086,4.9585433,2.0327394,8.324894,-0.019467053999999998,0.025489573999999997,-0.0037018436,-43.8,3.1799998,-11.4
1554879970106,4.932206,2.0494993000000004,8.305738999999999,0.009854478,-0.021547051,0.00057421334,-43.86,3.1799998,-12.599999
1554879970126,4.982486,2.0662591,8.224333999999999,0.037343413,-0.06614021,-0.0018692476,-43.739998,3.06,-12.54
1554879970146,5.0591025,2.1404817000000005,8.126168,0.044673797,-0.084466174,-0.004923574,-44.52,2.6399999,-12.42
1554879970167,5.2243075,2.2194927000000004,8.042369,0.03917601,-0.09057482,-0.015308283,-44.52,2.76,-12.719999000000001
1554879970186,5.355993,2.300898,7.92505,0.033067357,-0.08690963,-0.025082126,-44.34,3.24,-12.3
1554879970206,5.3871183,2.3487834999999997,7.8316726999999995,0.023293513999999998,-0.070416264,-0.030579912999999997,-44.76,3.06,-12.599999
1554879970227,5.3871183,2.3679377999999995,7.8197017,0.006800151999999999,-0.055755503,-0.03241251,-44.579997999999996,2.9399998,-12.66
1554879970246,5.286558599999999,2.3894862999999997,7.893924,-0.0017519614000000001,-0.04353819999999999,-0.033634238,-45.42,2.52,-12.66
1554879970266,5.2314906,2.432583,8.020821,0.007411017,-0.04109474,-0.015919149,-45.239998,3.24,-12.54
1554879970286,5.2027593,2.3775147999999997,8.020821,0.020850051,-0.042316467,0.0024068089999999998,-44.64,3.72,-12.48
1554879970306,5.071073999999999,2.2147042999999997,8.011244,0.025736975,-0.05392291,0.0030176741999999998,-44.64,3.0,-12.9
1554879970326,4.975303,2.2266755000000003,7.989694999999999,0.022682648,-0.06675108,0.0011850786,-44.34,2.3999999,-12.54
1554879970346,4.929812,2.264984,8.128563,0.031234762000000003,-0.07469233,0.0060720006,-44.34,2.82,-11.94
1554879970366,4.9417834,2.2889266,8.104619999999999,0.033678222,-0.08202271,0.015845845,-44.94,2.82,-11.519999499999999
1554879970386,5.006428700000001,2.2362528,8.028004,0.04039774,-0.09607261,0.013402384,-45.3,2.8799999,-11.759999
1554879970406,5.1429024000000005,2.1117504,7.877164,0.036732547000000004,-0.102181256,0.0060720006,-45.12,3.1799998,-12.3
1554879970426,5.3248672,2.0997790000000003,7.783787299999999,0.034899954,-0.09546175,-0.005534439,-44.399998,3.24,-12.12
1554879970447,5.3679643,2.2170985,7.877164,0.03917601,-0.087520495,0.00057421334,-43.98,3.1799998,-11.82
1554879970466,5.4326096,2.2793495999999998,7.814913000000001,0.029402167000000003,-0.09424001,-0.014086553,-44.82,3.06,-11.58
1554879970486,5.3583870000000005,2.3463893,7.7694216,0.03551082,-0.0979052,-0.0043127090000000005,-45.48,3.12,-11.519999499999999
1554879970506,5.3966956,2.2721667,7.695199000000001,0.044673797,-0.07774665,0.0011850786,-45.059998,2.6399999,-12.059999000000001
1554879970527,5.4254265,2.2578009999999997,7.6975937000000005,0.037343413,-0.058809828,-0.0012583825,-44.28,2.46,-11.639999000000001
1554879970546,5.4158497,2.3368123,7.731113400000001,0.028791300000000002,-0.06003156,-0.005534439,-44.46,2.82,-11.099999
1554879970567,5.4086666,2.3559662999999995,7.7909703,0.020850051,-0.051479448,-0.007367035,-43.739998,2.82,-9.66
1554879970586,5.482889,2.3655436,7.7742105,0.01351967,-0.030099162999999998,-0.017140878000000002,-43.2,2.76,-9.12
1554879970607,5.4350038,2.3559662999999995,7.7502675000000005,-0.0017519614000000001,-0.010551476,-0.023860397000000002,-44.16,3.3,-9.96
1554879970626,5.4110613,2.308081,7.7239304,-0.012136671000000002,0.007163617,-0.033023376,-44.76,3.24,-10.559999000000001
1554879970646,5.499649,2.2697724999999997,7.728719,-0.027408302000000002,0.03648515,-0.047073275,-44.879996999999996,2.82,-11.099999
1554879970666,5.609786,2.2242813,7.7071705,-0.04451253,0.052367646,-0.07272962,-45.42,2.6399999,-10.92
1554879970686,5.643306,2.2003386000000003,7.6473135999999995,-0.06344935,0.06641755,-0.09105557,-44.76,2.52,-8.76
1554879970707,5.4685235,2.2027327999999997,7.726325,-0.07139060000000001,0.0829109,-0.10449461,-44.16,2.82,-9.059999000000001
1554879970726,5.4134555,2.2721667,7.920261,-0.06833627,0.10001513,-0.10999239,-44.76,3.0,-11.34
1554879970747,5.4445809999999994,2.2123098,7.903500999999999,-0.059173292999999995,0.09329562,-0.100829415,-44.28,2.7,-11.7
1554879970766,5.619363,2.1285102000000005,8.032792,-0.047566857000000004,0.1305584,-0.12587489,-44.219997,2.28,-12.0
1554879970787,6.1892004,1.9130256,8.358414,-0.020688783,0.18614714,-0.1942918,-44.16,1.74,-10.32
1554879970806,7.3576064,1.594587,8.308133,-0.02374311,0.22646423,-0.31402138,-43.98,1.62,-10.679999
1554879970826,7.685622,1.6688095,7.132544500000001,-0.118427224,0.15438214,-0.46123990000000004,-44.219997,1.86,-12.54
1554879970846,5.830058999999999,1.8340145,6.6010156,-0.23326989,0.20447308,-0.5259916,-44.46,1.74,-12.3
1554879970866,4.8938975,1.5634614,7.534783,-0.26014796,0.24356847,-0.56508696,-44.399998,1.26,-12.599999
1554879970887,5.0638914,1.2833313,8.578687,-0.24060026,0.24601193,-0.63961256,-44.1,0.12,-12.48
1554879970907,5.39909,2.0590763,8.58587,-0.23632422,0.27594432,-0.69214696,-44.34,0.12,-12.54
1554879970926,4.869955,2.8204557999999995,7.9394155,-0.22960469,0.29121596,-0.6109019,-44.34,0.0,-13.38
1554879970946,3.9840732000000005,3.0718546,7.4557720000000005,-0.24060026,0.34069604,-0.52049387,-43.86,-0.84,-14.099998999999999
1554879970967,3.806897,2.8252442,7.738296000000001,-0.24670893,0.45370612,-0.42764235,-43.92,-0.59999996,-14.099998999999999
1554879970986,4.000833,3.1939626,7.941809700000001,-0.22227432,0.50318617,-0.34089944,-43.079997999999996,-0.78,-13.259998999999999
1554879971007,3.7087317000000004,3.5219781,8.032792,-0.18684413,0.48058417,-0.19856785,-42.66,-1.38,-13.74
1554879971026,3.3783216,3.4309957000000004,8.327288000000001,-0.15507913,0.43171495,-0.105105475,-43.739998,-1.86,-14.519999499999999
1554879971047,2.9736892999999998,3.5267668,8.497281,-0.11292943,0.39445218,-0.022027802000000003,-43.559998,-2.46,-14.04
1554879971066,2.6169424,3.5650752,8.487703999999999,-0.093381755,0.35718940000000005,0.06288247,-43.26,-2.3999999,-14.46
1554879971087,2.2817439999999998,3.3998702000000005,8.435030000000001,-0.09460348,0.29671374,0.13374284,-43.559998,-2.6399999,-15.24
1554879971106,1.838803,3.2825508,8.442213,-0.10193386,0.27288997,0.20949012,-43.02,-2.7,-16.02
1554879971127,1.9944308999999998,2.7366562,9.404712,-0.07627752,0.24051414,0.28707,-42.719997,-1.4399998999999999,-16.68
1554879971146,2.7294734,2.4373717,9.981731,-0.04573426,0.19958617,0.30539596,-42.78,-1.26,-16.74
1554879971167,3.387899,2.3296294,9.5483675,-0.0127475355,0.09085216,0.31455895,-42.66,-1.5,-17.22
1554879971186,3.4333901,2.2769554,9.131764,-0.0060280184,0.015104865,0.3151698,-43.079997999999996,-1.4399998999999999,-17.22
1554879971206,3.1412885,2.073442,8.842057,0.0013023647,-0.07713579,0.30967203,-43.379996999999996,0.0,-17.1
1554879971227,3.4740927000000004,1.9848539,8.973742,0.012908804,-0.15471567,0.28645915,-43.5,0.17999999,-17.1
1554879971246,4.0582957,1.9585168000000002,8.937828,0.029402167000000003,-0.22191085,0.24797463,-43.379996999999996,-0.06,-17.34
1554879971266,4.405465599999999,2.0471049999999997,8.5331955,0.037954282,-0.30315593,0.21804224,-43.379996999999996,0.12,-17.22
1554879971287,4.4294085999999995,2.030345,8.3679905,0.039786875,-0.32942313,0.21376619,-43.379996999999996,0.12,-17.22
1554879971306,4.7670010000000005,1.802889,8.540379,0.036732547000000004,-0.37829235,0.17161648,-43.559998,-0.53999996,-15.66
1554879971326,5.183605,1.8507744,8.449396,0.046506394000000006,-0.3947857,0.14534928,-43.44,0.24,-15.24
1554879971346,5.197970400000001,1.8340145,8.2387,0.062999755,-0.41677687,0.13007765,-42.66,0.12,-13.559999
1554879971366,5.255433,1.8459859,8.051947,0.0587237,-0.40455958,0.09098226599999999,-42.12,-0.29999998,-11.04
1554879971386,5.3033185,1.8076775,8.006455,0.060556293,-0.38012493,0.06410419999999999,-42.719997,0.53999996,-10.44
1554879971406,5.1309309999999995,1.9297855,8.013638,0.059945427,-0.34835994,0.059217278,-42.6,0.42,-9.36
1554879971426,4.96812,2.0447106,7.989694999999999,0.060556293,-0.31354064,0.072045445,-42.239998,0.42,-8.76
1554879971447,5.339233,1.9824595,8.159689,0.07704965,-0.27078006,0.04089132,-42.54,0.29999998,-9.36
1554879971466,5.851608000000001,2.1332988999999998,8.083072,0.0886561,-0.25062153,0.010348056,-42.78,0.17999999,-9.24
1554879971487,5.4685235,2.2841382,7.776604700000001,0.09109955,-0.23351729,0.040280454,-42.66,-0.24,-8.22
1554879971506,5.111777,2.2673783,7.640130999999999,0.08254744,-0.17365250000000002,0.051886894,-42.78,-0.59999996,-8.639999000000001
1554879971526,5.109382599999999,2.248224,7.745479,0.08132572,-0.102181256,0.06532593,-43.02,-0.24,-9.059999000000001
1554879971546,5.39909,2.2147042999999997,7.9944835,0.0886561,-0.04353819999999999,0.061049875,-43.02,0.17999999,-9.719999000000001
1554879971567,5.559506,2.2147042999999997,8.001666,0.08987782,-0.037429545,0.062271602,-43.32,0.48,-11.94
1554879971586,5.537957700000001,2.2123098,7.80773,0.08438004,0.0059418865,0.050665166,-43.8,0.78,-12.84
1554879971607,5.4589467,2.2410412,7.783787299999999,0.07582793,0.06641755,0.02928488,-44.46,0.29999998,-12.36
1554879971626,5.274587599999999,2.2961093999999997,7.85801,0.07094099999999999,0.09390648,0.028674016,-44.04,0.42,-10.62
1554879971647,5.1524790000000005,2.2793495999999998,7.963358,0.06605407599999999,0.12261715,0.0060720006,-43.44,0.71999997,-8.76
1554879971666,5.0686800000000005,2.3152637,8.039975,0.04711726,0.14644089999999998,-0.014086553,-43.44,0.0,-8.46
1554879971687,4.9537544,2.2841382,8.075889,0.02756957,0.1568256,-0.034855973,-43.2,-0.53999996,-9.0
1554879971706,4.783761,2.300898,8.063917,0.0037458257,0.17698416,-0.061123177,-43.739998,-0.48,-9.54
1554879971727,4.7262983,2.3296294,8.245882,-0.02129965,0.18553627,-0.0922773,-43.92,0.35999998,-8.88
1554879971747,4.810098,2.3799092999999996,8.300951,-0.035349548,0.19042319,-0.11854451,-43.02,0.59999996,-8.7
1554879971766,4.7622127999999995,2.423006,8.236305,-0.053064644,0.18736887,-0.14664432,-42.54,0.65999997,-8.639999000000001
1554879971787,4.6065845,2.4541316,8.209969000000001,-0.066503674,0.19042319,-0.15397470000000002,-42.719997,0.42,-8.7
1554879971806,4.4653225,2.4134290000000003,8.277008,-0.07444492,0.18003848,-0.16069421,-43.079997999999996,-0.12,-9.48
1554879971826,4.352792,2.3751206000000002,8.420665,-0.07505579,0.17148638,-0.15153123,-43.32,-0.35999998,-9.42
1554879971847,4.352792,2.3152637,8.528407000000001,-0.054286372,0.13666706,-0.13809219,-43.32,-0.06,-11.82
1554879971867,4.309695,2.3320236,8.487703999999999,-0.031073494,0.0865761,-0.117933646,-43.559998,0.53999996,-14.519999499999999
1554879971886,4.1516724,2.3487834999999997,8.413482,-0.018245323,0.043204665,-0.10266201,-44.16,0.17999999,-14.94
1554879971906,4.0726614,2.3966691000000004,8.41827,-0.010304076,0.01571573,-0.081892595,-44.219997,-0.24,-15.54
1554879971926,4.087027,2.5092,8.420665,-0.0005302310500000001,-0.0032210925,-0.056236256,-42.84,-0.12,-13.5
1554879971946,4.0822387,2.5642683999999996,8.432636,0.004967556,-0.015438397,-0.034245107000000004,-42.12,-0.35999998,-10.62
1554879971967,4.1780095,2.6073654,8.332075999999999,0.007411017,-0.019103589,-0.0128648225,-43.14,-0.96,-9.54
1554879971986,4.1516724,2.5834224,8.389539,0.0025240954,-0.020936184,0.0201219,-43.379996999999996,-0.78,-9.66
1554879972006,4.2665977,2.4277947,8.473338,0.0104653435,-0.002610227,0.029895745,-42.899998,-0.48,-9.599999
1554879972026,4.338426,2.4852571,8.514041,0.014130536,-0.03559695,0.03966959,-42.78,-0.9,-9.42
1554879972046,4.1516724,2.4852571,8.217151,0.012908804,-0.080190115,0.0659368,-42.42,-0.42,-9.599999
1554879972066,4.0798445,2.3727264,8.209969000000001,0.0104653435,-0.104624726,0.09098226599999999,-42.3,-0.59999996,-9.3
1554879972087,4.237866400000001,2.2530127,8.375174000000001,0.020239187,-0.1382223,0.10503217599999999,-42.96,-0.65999997,-9.179999
1554879972106,4.4437739999999994,2.3344178,8.490098,0.03001303,-0.15715913,0.118471205,-43.14,-0.35999998,-9.179999
1554879972126,4.7119327,2.439766,8.444607000000001,0.055058505,-0.19625452,0.13191025,-42.84,-0.59999996,-9.719999000000001
1554879972146,4.8986864,2.4373717,8.277008,0.07643879,-0.21519133,0.13679716,-43.32,-0.53999996,-10.26
1554879972166,5.047130999999999,2.3631492,8.083072,0.08376917,-0.20602836,0.12641245,-43.26,-0.42,-8.88
1554879972187,5.078257,2.3583608,8.008849,0.07338446400000001,-0.17365250000000002,0.1080865,-42.42,-0.53999996,-8.46
1554879972206,5.1285367,2.3799092999999996,7.9873009999999995,0.06361062,-0.13700058,0.09586919,-43.079997999999996,-0.17999999,-9.12
1554879972226,5.1237483,2.343995,8.025609,0.033067357,-0.116842024,0.063493334,-43.44,-0.42,-8.82
1554879972247,5.0375543,2.351178,8.061523,0.02512611,-0.102181256,0.047610834000000005,-43.2,-0.9,-8.4
1554879972266,4.96812,2.308081,8.130958,0.023293513999999998,-0.094850875,0.042113047,-42.96,-0.48,-8.7
1554879972286,4.8986864,2.2625897,8.150111,0.02390438,-0.09362915,0.033560935,-42.719997,-0.42,-8.82
1554879972307,4.829252200000001,2.3056867000000003,8.166871,0.036121685,-0.10095953,0.03661526,-42.78,0.65999997,-8.7
1554879972326,4.8172809999999995,2.2985039,8.073495,0.05444764,-0.10767905,0.043334782,-43.32,0.96,-11.219999000000001
1554879972346,4.936994599999999,2.3535721,8.037580499999999,0.06849754599999999,-0.11439857,0.04883257,-44.04,0.35999998,-12.96
1554879972367,5.035159999999999,2.3607549999999997,8.059128999999999,0.06849754599999999,-0.116231166,0.046999972,-44.28,1.14,-12.48
1554879972386,5.145296599999999,2.4014575000000002,7.9873009999999995,0.06727581,-0.111955106,0.04944343,-44.46,1.4399998999999999,-12.66
1554879972406,5.195576,2.466103,7.9489923,0.06727581,-0.10034867,0.043945644000000006,-45.059998,1.26,-12.9
1554879972426,5.1548739999999995,2.466103,8.056735,0.06422148,-0.09118568,0.047610834000000005,-45.3,1.26,-13.2
1554879972446,5.2314906,2.4014575000000002,8.104619999999999,0.07216273,-0.10828992,0.040280454,-44.579997999999996,0.48,-11.82
1554879972466,5.269798799999999,2.5139885,8.063917,0.07766052,-0.111955106,0.028063148,-43.2,0.17999999,-8.639999000000001
1554879972487,5.111777,2.597788,7.960963700000001,0.069108404,-0.09301828,0.03172834,-42.6,0.53999996,-7.14
1554879972506,5.011217,2.5163830000000003,7.884347,0.056891102,-0.07713579,0.041502185,-43.079997999999996,0.59999996,-7.259999799999999
1554879972527,5.0638914,2.4254005000000003,7.759844999999999,0.05200418,-0.06797281,0.042723915999999994,-43.98,0.35999998,-7.259999799999999
1554879972546,5.2267017,2.4541316,7.623371000000001,0.033678222,-0.027655702,0.03050661,-43.86,-0.24,-6.42
1554879972567,5.341627,2.4972286,7.699988,0.0031349603,0.019991787,0.020732768000000002,-43.44,-0.29999998,-6.12
1554879972586,5.360780999999999,2.5618742,7.834067299999999,-0.023132246000000002,0.04381553,0.008515462,-43.379996999999996,0.71999997,-6.6
1554879972607,5.181210500000001,2.6241252,7.9394155,-0.04206907,0.06641755,0.009737191999999999,-43.02,1.02,-6.48
1554879972627,4.965726,2.6432792999999997,7.941809700000001,-0.043290798,0.08840869,0.021343632,-43.44,-0.17999999,-6.72
1554879972646,4.764607,2.6289136,8.032792,-0.04573426,0.10978898,0.04089132,-43.5,-0.42,-6.48
1554879972667,4.68799,2.6217308,8.147717,-0.043901663,0.12811492,0.06532593,-43.26,-0.12,-6.72
1554879972686,4.6544704,2.6552507999999997,8.12138,-0.04206907,0.13422358,0.083651885,-43.379996999999996,0.12,-7.3799996
1554879972707,4.807704,2.657645,7.9944835,-0.053064644,0.15560387,0.09403660000000001,-43.62,0.71999997,-8.76
1554879972726,4.946572,2.5858168999999998,8.016032000000001,-0.06955801,0.16171253,0.092204005,-44.1,1.1999999,-11.519999499999999
1554879972746,4.989669,2.5163830000000003,8.051947,-0.08788396400000001,0.16843204,0.08426275,-44.94,1.56,-12.84
1554879972766,4.972909,2.4517374,8.099832000000001,-0.10376645599999999,0.17576241,0.07082371400000001,-45.36,1.4399998999999999,-12.78
1554879972786,4.8747435,2.3775147999999997,8.241094,-0.10620992,0.16476685,0.07082371400000001,-45.48,1.0799999,-12.78
1554879972807,4.721509999999999,2.2841382,8.470944,-0.08849483,0.12322801,0.07754324,-44.64,1.3199999,-13.139999
1554879972826,4.625739,2.2266755000000003,8.492493,-0.05672983,0.05908716,0.07876496,-43.62,1.8,-13.44
1554879972847,4.652076,2.2003386000000003,8.470944,-0.035960413999999996,0.012050538999999999,0.08304102,-43.98,1.8,-13.62
1554879972866,4.652076,2.1332988999999998,8.40151,-0.012136671000000002,-0.039262142,0.08670621,-43.8,2.22,-12.48
1554879972887,4.7789725999999995,2.056682,8.305738999999999,0.009243613000000001,-0.086298764,0.07998669,-43.379996999999996,2.28,-9.36
1554879972906,5.0136113,1.9561224999999998,8.130958,0.014741398999999999,-0.12050722,0.063493334,-42.78,2.1,-7.3199997
1554879972927,5.1692395,1.9154198,7.982512,0.0055784215,-0.1278376,0.04577824,-42.239998,1.86,-7.7999997
1554879972946,5.2578273,1.838803,8.037580499999999,0.006800151999999999,-0.12478328,0.031117475,-42.66,1.3199999,-7.98
1554879972967,5.3033185,1.8364087,8.004061,0.0104653435,-0.119285494,0.028063148,-43.079997999999996,0.9,-7.98
1554879972988,5.3033185,1.8675343999999998,7.896318400000001,0.018406592,-0.09851607,0.026841419,-42.66,0.78,-8.34
1554879973006,5.28177,1.9513340000000001,7.84125,0.029402167000000003,-0.09057482,0.016456708,-42.36,1.14,-8.519999499999999
1554879973027,5.39909,1.9465453999999998,7.783787299999999,0.032456495,-0.061864156,0.012791518,-42.3,1.68,-7.9199996
1554879973046,5.3966956,2.0758362,7.74069,0.02634784,-0.031931758,-0.0012583825,-43.14,1.74,-7.44
1554879973067,5.439792,2.1668186,7.764633,0.019628322,0.008385347,-0.007367035,-43.26,1.8,-7.7999997
1554879973086,5.3631754,2.1811842999999995,7.8053360000000005,0.0043566907,0.037706878,-0.013475687,-43.079997999999996,1.68,-8.099999
1554879973107,5.197970400000001,2.1931557999999995,7.946598,-0.002973692,0.060919758,-0.011032226499999999,-44.1,1.56,-9.12
1554879973126,4.992063,2.22907,8.13814,0.0031349603,0.081078306,-0.008588765,-44.46,2.1599998,-11.46
1554879973147,4.867561,2.2841382,8.188419999999999,0.004967556,0.09329562,-0.0043127090000000005,-44.7,2.34,-13.139999
1554879973166,4.7502413,2.2985039,8.219545,0.0043566907,0.0865761,-0.0018692476,-44.46,1.9799999,-12.96
1554879973186,4.735875599999999,2.264984,8.162083,0.0043566907,0.084132634,-0.0037018436,-43.8,1.92,-11.639999000000001
1554879973207,4.7933383,2.317658,8.099832000000001,-0.005417153,0.09146302,-0.0091996305,-44.04,2.7,-12.48
1554879973226,4.8938975,2.3056867000000003,7.989694999999999,-0.02618657,0.11528677,-0.011032226499999999,-44.28,3.06,-13.5
1554879973246,5.030371,2.2937152000000003,7.953780999999999,-0.037182145,0.15010607,-0.016530015,-44.1,2.3999999,-13.32
1554879973267,5.1261425,2.2601955,7.980117999999999,-0.053064644,0.17942761,-0.028136455,-44.76,1.86,-13.86
1554879973286,5.133325,2.2673783,7.980117999999999,-0.060395025,0.20202963,-0.027525587,-45.18,1.68,-13.559999
1554879973307,5.090228,2.248224,8.018426,-0.06772541,0.22157732,-0.022027802000000003,-44.399998,1.86,-13.559999
1554879973326,5.0040345,2.2242813,8.116591,-0.060395025,0.23012942,-0.012253957,-44.28,2.1599998,-13.62
1554879973346,4.8531949999999995,2.2242813,8.190814,-0.05245378,0.22829683,-3.6651913e-05,-43.98,2.46,-13.98
1554879973366,4.702356,2.2194927000000004,8.214757,-0.043901663,0.22585338,0.018289305,-44.34,2.34,-14.58
1554879973386,4.573065,2.2003386000000003,8.315316000000001,-0.038403876,0.22035559,0.033560935,-44.219997,2.46,-14.16
1554879973406,4.486871,2.1740015,8.427847,-0.031073494,0.19592097,0.04089132,-43.8,2.3999999,-14.519999499999999
1554879973426,4.410254,2.1548474,8.475733,-0.025575707000000003,0.16415599,0.04516738,-44.399998,1.92,-15.719999
1554879973447,4.367157499999999,2.1332988999999998,8.509253,-0.017634458999999998,0.12811492,0.043334782,-45.0,1.68,-15.78
1554879973466,4.3025117,2.0902019,8.502069,-0.015190997,0.08901956,0.035393532000000005,-45.059998,1.74,-15.719999
1554879973486,4.3073006,2.116539,8.523619,-0.015801862,0.058476295,0.024397957999999997,-43.8,1.86,-15.299999
1554879973506,4.350397,2.1237217999999998,8.595447,-0.011525805,0.032819957000000004,0.01767844,-43.2,2.1,-15.48
1554879973526,4.4270144,2.0949904999999998,8.516436,-0.0048062876000000004,0.013883135,0.0140132485,-43.92,2.8799999,-15.78
1554879973546,4.4461684,2.0231621,8.439817999999999,0.0061892867,-0.019714454,0.010958922,-44.1,2.82,-15.9
1554879973566,4.4844766,2.011191,8.449396,0.009854478,-0.049035985,0.005461135400000001,-43.739998,2.34,-16.26
1554879973587,4.5539107,2.0925963,8.432636,0.011076208999999998,-0.07774665,-0.005534439,-44.04,2.7,-15.9
1554879973606,4.5994019999999995,2.126116,8.408693,0.014130536,-0.08690963,-0.004923574,-43.86,3.0,-14.4
1554879973626,4.652076,2.1452703,8.353624,0.017795727,-0.08813136,-0.015308283,-43.92,2.9399998,-12.9
1554879973647,4.68799,2.1979442000000002,8.281796,0.015963131999999998,-0.08202271,-0.016530015,-43.739998,2.8799999,-13.08
1554879973666,4.6688356,2.2386470000000003,8.255460000000001,0.009854478,-0.07224886,-0.020195205,-43.739998,2.8799999,-13.799999
1554879973687,4.659259,2.1931557999999995,8.272219999999999,0.0043566907,-0.057588099999999996,-0.02080607,-44.219997,2.7,-14.759998999999999
1554879973706,4.6903844,2.2123098,8.284191,-0.0023628268,-0.049035985,-0.021416934,-44.28,1.5,-14.7
1554879973727,4.6712303,2.2027327999999997,8.284191,-0.0066388836,-0.047203388,-0.020195205,-44.399998,1.4399998999999999,-15.059999
1554879973746,4.661653,2.176396,8.274613,-0.004195423,-0.039873008,-0.016530015,-44.1,2.52,-15.78
1554879973767,4.659259,2.1811842999999995,8.296163,-0.0035845571999999996,-0.032542624,-0.013475687,-43.98,2.82,-15.12
1554879973786,4.685596,2.1931557999999995,8.317711,-0.004195423,-0.028877432,-0.0091996305,-44.46,2.34,-14.94
1554879973807,4.6664414,2.2194927000000004,8.3129225,-0.0005302310500000001,-0.02643397,-0.0018692476,-44.46,2.52,-14.639999
1554879973826,4.644893,2.1907616,8.272219999999999,0.0019132298999999999,-0.01788186,0.0030176741999999998,-43.92,2.76,-14.28
1554879973846,4.63771,2.1620302000000002,8.269825,0.0013023647,-0.00994061,0.009737191999999999,-43.8,2.1599998,-14.759998999999999
1554879973867,4.659259,2.152453,8.248277,-0.0017519614000000001,0.0022766949,0.013402384,-44.219997,2.28,-15.839998999999999
1554879973886,4.6832013,2.1811842999999995,8.260247999999999,8.0634214e-05,0.012661404,0.014624113999999999,-44.76,2.3999999,-16.14
1554879973907,4.6760187,2.1716073,8.272219999999999,-0.0005302310500000001,0.020602651,0.0121806525,-44.219997,1.9799999,-14.46
1554879973926,4.6832013,2.1500587,8.284191,8.0634214e-05,0.024878709,0.0140132485,-43.14,2.22,-13.139999
1554879973947,4.6832013,2.1500587,8.284191,8.0634214e-05,0.024267842999999997,0.010348056,-43.14,2.9399998,-14.219999
1554879973966,4.6760187,2.1596357999999998,8.284191,-0.0048062876000000004,0.028543898999999998,0.010958922,-43.98,2.8799999,-15.42
1554879973986,4.6688356,2.135693,8.291373,-0.004195423,0.025489573999999997,0.0121806525,-44.46,2.34,-15.42
1554879974008,4.659259,2.1548474,8.303345,-0.0023628268,0.021213517999999997,0.011569788000000001,-44.399998,1.68,-15.24
1554879974026,4.6305275,2.152453,8.336864,-0.0017519614000000001,0.01571573,0.009737191999999999,-44.46,2.28,-14.4
1554879974046,4.6281333,2.1668186,8.327288000000001,-0.002973692,0.010828808,0.010348056,-44.579997999999996,2.34,-14.34
1554879974066,4.6065845,2.1668186,8.329682,-0.0011410962,0.005331021,0.011569788000000001,-43.98,2.22,-14.759998999999999
1554879974086,4.5898247,2.1213273999999998,8.341654,-0.0017519614000000001,0.00288756,0.010958922,-44.46,2.7,-14.94
1554879974106,4.6305275,2.1596357999999998,8.353624,8.0634214e-05,-0.0062754187,0.005461135400000001,-44.7,2.22,-15.48
1554879974126,4.642499,2.1237217999999998,8.346442,0.0019132298999999999,-0.012384071000000002,-0.00064751715,-44.46,2.46,-14.759998999999999
1554879974147,4.6544704,2.1596357999999998,8.329682,-0.0023628268,-0.019103589,-0.0024801127,-44.52,2.9399998,-14.58
1554879974166,4.6544704,2.1500587,8.322499,-0.0005302310500000001,-0.021547051,-0.005534439,-44.579997999999996,2.58,-15.599998999999999
1554879974187,4.6544704,2.1668186,8.300951,-0.0023628268,-0.018492723,-0.0030909781,-44.16,2.9399998,-15.54
1554879974206,4.6568646,2.1740015,8.300951,8.0634214e-05,-0.016660128,-0.0037018436,-44.7,3.3,-14.82
1554879974226,4.659259,2.1740015,8.300951,-0.0011410962,-0.012384071000000002,0.0011850786,-44.94,1.9799999,-14.16
1554879974246,4.6544704,2.169213,8.317711,8.0634214e-05,-0.00994061,0.0017959438,-44.64,1.62,-14.04
1554879974266,4.6544704,2.1668186,8.322499,0.0013023647,-0.009329746,0.0011850786,-44.219997,2.28,-14.88
1554879974286,4.6832013,2.1452703,8.305738999999999,-0.004195423,-0.0013884967000000002,-3.6651913e-05,-44.1,2.1,-15.0
1554879974306,4.678413,2.1644243999999997,8.293768,-0.0035845571999999996,0.0034984252000000004,-0.0024801127,-44.04,2.1,-14.94
1554879974330,4.6712303,2.152453,8.286585,-0.005417153,0.009607078,-0.00064751715,-43.62,3.3,-14.759998999999999
1554879974347,4.6688356,2.1237217999999998,8.277008,-0.005417153,0.008385347,-0.0030909781,-44.28,3.24,-14.7
1554879974366,4.6736245,2.135693,8.3129225,-0.005417153,0.009607078,-0.0037018436,-44.879996999999996,2.46,-15.42
1554879974386,4.6736245,2.1237217999999998,8.320105,-0.004195423,0.008996212,-0.0043127090000000005,-44.34,2.46,-15.9
1554879974406,4.6736245,2.1237217999999998,8.327288000000001,-0.0005302310500000001,0.008385347,-0.004923574,-44.34,2.76,-15.299999
1554879974426,4.647287400000001,2.1620302000000002,8.329682,-0.0011410962,0.0016658296,-0.005534439,-44.579997999999996,1.92,-14.28
1554879974446,4.623344400000001,2.1572416000000003,8.344047999999999,0.00069149944,-0.0038319575,-0.007367035,-44.64,1.26,-14.82
1554879974466,4.5946136,2.1668186,8.310528,8.0634214e-05,-0.0062754187,-0.007367035,-44.52,2.52,-15.36
1554879974486,4.6041903,2.1979442000000002,8.336864,0.0013023647,-0.00994061,-0.007367035,-44.52,2.76,-15.42
1554879974507,4.618556,2.1835787,8.365596,-0.0017519614000000001,-0.010551476,-0.0018692476,-45.0,2.6399999,-15.599998999999999
1554879974526,4.5682764,2.1835787,8.324894,-0.0011410962,-0.006886284,0.0060720006,-45.0,3.48,-15.059999
1554879974546,4.601796,2.1572416000000003,8.320105,-0.0017519614000000001,-0.004442823,0.009126327,-44.7,3.4199998,-15.059999
1554879974567,4.6712303,2.1117504,8.317711,-0.0023628268,-0.0056645535,0.004239404600000001,-43.98,2.52,-15.0
1554879974586,4.6760187,2.135693,8.300951,-0.0017519614000000001,-0.00871888,0.0030176741999999998,-43.739998,2.58,-14.82
1554879974606,4.6927786,2.1572416000000003,8.291373,-0.0035845571999999996,-0.005053688,0.0030176741999999998,-43.8,3.0,-14.82
1554879974626,4.6760187,2.142876,8.274613,-0.0023628268,-0.0038319575,0.0011850786,-44.04,2.6399999,-14.82
1554879974646,4.6664414,2.1500587,8.293768,-0.0023628268,-0.001999362,0.0036285396000000003,-43.86,2.28,-14.519999499999999
1554879974667,4.644893,2.1596357999999998,8.334471,0.0019132298999999999,-0.001999362,0.0024068089999999998,-44.46,2.7,-14.4
1554879974686,4.6496816,2.1668186,8.308133,0.0025240954,-0.006886284,0.0060720006,-45.3,2.58,-14.58
1554879974706,4.661653,2.1548474,8.315316000000001,0.00069149944,-0.0056645535,0.005461135400000001,-44.46,1.5,-14.7
1554879974726,4.647287400000001,2.1644243999999997,8.322499,0.00069149944,-0.0032210925,0.0036285396000000003,-44.399998,2.04,-14.759998999999999
1554879974746,4.6640472,2.176396,8.317711,8.0634214e-05,-0.005053688,0.0036285396000000003,-45.0,3.36,-14.82
1554879974766,4.659259,2.1716073,8.303345,-0.0011410962,0.0022766949,0.0036285396000000003,-44.7,3.12,-15.0
1554879974787,4.647287400000001,2.1644243999999997,8.320105,-0.0035845571999999996,0.0010549643,-3.6651913e-05,-44.04,2.3999999,-15.24
1554879974806,4.659259,2.1476645,8.329682,-0.005417153,0.0016658296,0.00057421334,-43.92,2.28,-15.48
1554879974826,4.6640472,2.1572416000000003,8.305738999999999,-0.004195423,0.0022766949,-0.0024801127,-44.34,2.34,-15.719999
1554879974847,4.6760187,2.1309047000000003,8.322499,8.0634214e-05,0.0010549643,-3.6651913e-05,-44.52,1.62,-14.099998999999999
1554879974866,4.635316,2.1500587,8.291373,-0.0005302310500000001,0.0010549643,-0.0018692476,-44.52,2.28,-13.92
1554879974887,4.63771,2.1380875,8.322499,8.0634214e-05,-0.00016676621,0.0017959438,-44.82,3.1799998,-15.48
1554879974906,4.647287400000001,2.1476645,8.336864,0.0025240954,-0.0038319575,-3.6651913e-05,-44.46,2.1,-15.78
1554879974927,4.635316,2.135693,8.324894,-0.0017519614000000001,-0.0032210925,-0.0012583825,-44.04,1.74,-15.96
1554879974946,4.652076,2.1213273999999998,8.310528,8.0634214e-05,-0.004442823,0.0011850786,-44.76,1.62,-15.24
1554879974967,4.642499,2.142876,8.322499,8.0634214e-05,-0.005053688,-0.0030909781,-44.28,1.4399998999999999,-14.82
1554879974987,4.6568646,2.152453,8.310528,0.00069149944,-0.0062754187,-0.00064751715,-43.98,1.56,-14.759998999999999
1554879975006,4.659259,2.1404817000000005,8.315316000000001,0.0019132298999999999,-0.0062754187,-0.0018692476,-44.219997,1.62,-15.059999
1554879975026,4.6568646,2.142876,8.298556,-0.0011410962,-0.004442823,0.0011850786,-44.399998,1.92,-15.0
1554879975046,4.6664414,2.1548474,8.308133,0.0013023647,-0.0062754187,0.00057421334,-44.52,2.28,-14.519999499999999
1554879975066,4.6688356,2.1572416000000003,8.308133,-0.0005302310500000001,-0.005053688,0.0030176741999999998,-44.1,3.6,-14.28
1554879975086,4.647287400000001,2.1572416000000003,8.300951,-0.0011410962,-0.0038319575,0.0017959438,-44.579997999999996,3.4199998,-15.179998999999999
1554879975107,4.632921700000001,2.1548474,8.320105,8.0634214e-05,-0.0032210925,-0.00064751715,-45.18,1.9799999,-15.48
1554879975126,4.6281333,2.1668186,8.317711,-0.004195423,-0.0032210925,0.0011850786,-45.059998,2.04,-14.88
1554879975146,4.618556,2.1332988999999998,8.329682,-0.0011410962,0.00044409905,0.00057421334,-44.219997,3.12,-15.12
1554879975167,4.6544704,2.1452703,8.322499,-0.0023628268,-0.0007776314999999999,0.00057421334,-43.8,2.82,-14.7
1554879975186,4.652076,2.1404817000000005,8.324894,-0.0048062876000000004,-0.0013884967000000002,0.0030176741999999998,-44.28,2.82,-14.94
1554879975206,4.678413,2.135693,8.351231,0.00069149944,-0.0056645535,0.00057421334,-43.92,3.06,-14.58
1554879975227,4.6281333,2.152453,8.305738999999999,0.0013023647,-0.0062754187,0.0072937314000000005,-44.28,2.3999999,-15.54
1554879975246,4.6496816,2.1309047000000003,8.303345,0.0037458257,-0.0013884967000000002,0.0036285396000000003,-44.64,2.52,-15.719999
1554879975266,4.6999617,2.135693,8.308133,0.00069149944,-0.0062754187,0.00057421334,-43.86,2.58,-13.98
1554879975287,4.685596,2.1404817000000005,8.320105,-0.0035845571999999996,-0.0062754187,-0.00064751715,-43.079997999999996,2.04,-11.219999000000001
1554879975306,4.6640472,2.176396,8.329682,-0.004195423,-0.0032210925,-0.0012583825,-42.84,1.8,-10.08
1554879975327,4.63771,2.1596357999999998,8.327288000000001,-0.004195423,-0.00016676621,-0.0012583825,-42.899998,1.9799999,-10.139999000000001
1554879975346,4.644893,2.1979442000000002,8.322499,-0.0048062876000000004,-0.004442823,-0.0018692476,-42.78,1.62,-9.9
1554879975366,4.62095,2.1740015,8.332075999999999,-0.0060280184,-0.002610227,0.0030176741999999998,-42.66,1.74,-9.599999
1554879975387,4.6041903,2.1787900000000002,8.320105,-0.0066388836,-0.0038319575,0.005461135400000001,-43.079997999999996,2.28,-12.48
1554879975406,4.6065845,2.1380875,8.324894,-0.007860614,-0.0013884967000000002,0.007904597,-43.5,2.1,-14.16
1554879975426,4.62095,2.135693,8.329682,-0.00847148,0.00044409905,0.0036285396000000003,-44.52,2.04,-16.08
1554879975446,4.7071442999999995,2.1189332000000003,8.286585,-0.007860614,-0.004442823,0.0024068089999999998,-44.16,2.52,-15.179998999999999
1554879975466,4.7119327,2.0494993000000004,8.305738999999999,-0.009082344000000001,0.0059418865,0.0017959438,-44.76,2.22,-15.179998999999999
1554879975487,4.652076,2.0614705,8.279403,-0.007249749000000001,0.0022766949,-0.0012583825,-44.64,2.1,-15.179998999999999
1554879975506,4.644893,2.0758362,8.336864,8.0634214e-05,0.0041092904,-0.0079779,-44.28,2.1,-14.58
1554879975526,4.7143273,2.0902019,8.324894,0.004967556,-0.010551476,-0.0043127090000000005,-44.16,2.58,-15.059999
1554879975546,4.6832013,2.1189332000000003,8.291373,0.0043566907,-0.009329746,-0.0012583825,-44.16,2.8799999,-15.299999
1554879975567,4.647287400000001,2.1452703,8.274613,0.0037458257,-0.009329746,-0.0024801127,-44.04,2.46,-14.82
1554879975586,4.6832013,2.1093562,8.269825,0.0031349603,-0.0032210925,-0.0037018436,-43.68,1.62,-14.28
1554879975606,4.6688356,2.1572416000000003,8.336864,0.0019132298999999999,-0.00016676621,-0.0030909781,-43.92,1.9799999,-14.46
1554879975627,4.652076,2.1740015,8.346442,8.0634214e-05,-0.0038319575,-0.0018692476,-44.579997999999996,2.6399999,-15.54
1554879975646,4.6065845,2.1476645,8.329682,0.00069149944,-0.005053688,-3.6651913e-05,-44.64,2.52,-14.94
1554879975667,4.6137676,2.1309047000000003,8.320105,8.0634214e-05,-0.004442823,-0.0030909781,-44.28,2.3999999,-13.679998999999999
1554879975686,4.618556,2.1572416000000003,8.327288000000001,8.0634214e-05,-0.004442823,-0.0018692476,-44.28,2.3999999,-13.679998999999999
1554879975706,4.6544704,2.1644243999999997,8.322499,-0.0005302310500000001,-0.002610227,0.0030176741999999998,-44.28,2.34,-14.219999
1554879975726,4.6544704,2.1548474,8.329682,-0.0035845571999999996,-0.001999362,0.0017959438,-44.04,2.1,-14.46
1554879975746,4.6760187,2.1644243999999997,8.329682,-0.0017519614000000001,-0.002610227,-3.6651913e-05,-44.28,2.04,-13.92
1554879975766,4.661653,2.169213,8.303345,-0.0017519614000000001,-0.001999362,0.0024068089999999998,-43.98,2.34,-14.219999
1554879975786,4.6736245,2.1021732999999996,8.327288000000001,-0.0023628268,0.00044409905,-0.0012583825,-43.8,2.46,-13.98
1554879975806,4.644893,2.1907616,8.123775,-0.0011410962,0.0016658296,-3.6651913e-05,-43.92,2.46,-13.92
1554879975826,4.4126487,2.2147042999999997,8.183631,-0.0023628268,-0.006886284,0.022565362999999998,-44.34,2.28,-14.58
1554879975846,4.4677167,2.1907616,8.353624,-0.0011410962,-0.006886284,0.013402384,-45.239998,2.1,-14.58
1554879975866,4.632921700000001,2.1883671000000002,8.324894,-0.0023628268,-0.012994936,0.0017959438,-44.879996999999996,2.22,-15.0
1554879975886,4.6832013,2.142876,8.3129225,0.00069149944,-0.0062754187,-0.00064751715,-43.86,2.34,-15.42
1554879975906,4.6664414,2.1668186,8.336864,-0.002973692,-0.008108014,-0.004923574,-44.16,1.62,-14.34
1554879975927,4.6281333,2.1644243999999997,8.320105,-0.0017519614000000001,-0.0032210925,-3.6651913e-05,-45.0,1.9799999,-14.34
1554879975946,4.642499,2.1093562,8.320105,-0.0048062876000000004,-0.0007776314999999999,-3.6651913e-05,-44.94,2.46,-15.299999
1554879975966,4.7119327,2.0782306,8.315316000000001,-0.004195423,-0.00016676621,-0.0043127090000000005,-44.64,2.1,-14.94
1554879975986,4.6544704,2.1093562,8.303345,-0.0048062876000000004,-0.0056645535,-0.004923574,-44.46,1.86,-14.639999
1554879976006,4.7933383,1.9848539,8.308133,-0.004195423,-0.0013884967000000002,-0.0067561697,-43.98,2.58,-14.82
1554879976026,4.7191157,2.0447106,8.262642,-0.0011410962,-0.00994061,-0.0030909781,-43.86,2.9399998,-14.639999
1554879976046,4.632921700000001,2.142876,8.334471,0.0019132298999999999,-0.007497149,-0.0043127090000000005,-44.28,2.1599998,-13.92
1554879976067,4.6137676,2.142876,8.300951,0.0013023647,-0.0032210925,0.0017959438,-44.1,2.1599998,-13.38
1554879976086,4.640105,2.1572416000000003,8.308133,0.0037458257,-0.004442823,0.0011850786,-44.16,2.58,-14.58
1554879976106,4.616162,2.1500587,8.279403,0.0031349603,-0.0032210925,0.004239404600000001,-44.28,2.52,-12.78
1554879976126,4.623344400000001,2.1620302000000002,8.303345,0.0019132298999999999,-0.0038319575,0.004239404600000001,-43.379996999999996,2.04,-9.719999000000001
1554879976147,4.6688356,2.1740015,8.317711,0.0019132298999999999,-0.0038319575,0.0036285396000000003,-43.32,1.68,-9.9
1554879976166,4.642499,2.152453,8.3129225,0.00069149944,-0.001999362,0.0060720006,-43.32,1.4399998999999999,-9.96
1554879976186,4.632921700000001,2.135693,8.322499,0.00069149944,-0.0038319575,0.0036285396000000003,-43.079997999999996,1.02,-9.9
1554879976206,4.652076,2.142876,8.327288000000001,0.00069149944,-0.0032210925,0.00485027,-43.92,1.38,-10.98
1554879976226,4.6688356,2.1332988999999998,8.317711,8.0634214e-05,-0.0032210925,0.0011850786,-44.46,2.1599998,-13.799999
1554879976246,4.6568646,2.1213273999999998,8.315316000000001,-0.0017519614000000001,-0.004442823,0.0011850786,-44.46,2.58,-15.0
1554879976267,4.6760187,2.142876,8.320105,-0.0005302310500000001,-0.0056645535,-0.0012583825,-44.16,2.46,-14.4
1554879976286,4.6640472,2.152453,8.3129225,0.0013023647,-0.0032210925,-0.0030909781,-44.219997,2.1,-14.519999499999999
1554879976306,4.6640472,2.1452703,8.300951,-0.0017519614000000001,-0.0007776314999999999,-0.0012583825,-44.34,2.22,-13.799999
1554879976326,4.6544704,2.1740015,8.305738999999999,-0.004195423,-0.00016676621,-0.0012583825,-44.76,2.52,-14.4
1554879976346,4.659259,2.1476645,8.332075999999999,-0.0005302310500000001,-0.0038319575,-0.0030909781,-44.82,2.52,-15.66
1554879976366,4.625739,2.1548474,8.341654,-0.0023628268,0.0010549643,-0.00064751715,-44.52,1.92,-15.599998999999999
1554879976386,4.640105,2.1668186,8.317711,8.0634214e-05,-0.0013884967000000002,-0.0030909781,-44.16,2.1,-15.42
1554879976407,4.623344400000001,2.152453,8.3129225,8.0634214e-05,-0.0038319575,-0.0024801127,-44.219997,2.1599998,-15.179998999999999
1554879976426,4.642499,2.1572416000000003,8.317711,0.00069149944,-0.002610227,-0.00064751715,-44.34,2.46,-15.179998999999999
1554879976446,4.640105,2.1500587,8.332075999999999,-0.0017519614000000001,0.00044409905,-0.0024801127,-43.86,2.58,-14.759998999999999
1554879976466,4.6640472,2.1548474,8.3129225,-0.0023628268,0.0016658296,0.0017959438,-44.219997,1.9799999,-14.4
1554879976486,4.632921700000001,2.1380875,8.346442,8.0634214e-05,-0.002610227,0.00057421334,-43.8,2.52,-14.46
1554879976506,4.644893,2.1596357999999998,8.305738999999999,0.0025240954,-0.006886284,0.0017959438,-43.92,2.52,-15.24
1554879976526,4.635316,2.1332988999999998,8.291373,-0.0017519614000000001,-0.0038319575,0.0017959438,-43.62,1.9799999,-14.519999499999999
1554879976546,4.632921700000001,2.1572416000000003,8.336864,-0.0023628268,-0.008108014,0.0036285396000000003,-43.32,2.6399999,-14.4
1554879976566,4.652076,2.1596357999999998,8.255460000000001,0.0025240954,-0.011773205,0.00057421334,-43.98,3.24,-15.299999
1554879976586,4.640105,2.1596357999999998,8.303345,-0.0005302310500000001,-0.002610227,0.0030176741999999998,-43.92,2.8799999,-15.059999
1554879976607,4.6688356,2.1404817000000005,8.327288000000001,0.00069149944,-0.004442823,0.0011850786,-43.86,3.0,-14.7
1554879976626,4.6568646,2.152453,8.308133,0.0025240954,-0.005053688,0.00057421334,-44.04,3.0,-14.7
1554879976646,4.6640472,2.1380875,8.296163,-0.0011410962,0.00288756,0.0030176741999999998,-43.98,2.3999999,-14.82
1554879976666,4.6951730000000005,2.1380875,8.310528,-0.002973692,0.0034984252000000004,-0.0012583825,-43.86,1.9799999,-13.92
1554879976686,4.68799,2.1452703,8.315316000000001,-0.0060280184,-0.001999362,-0.005534439,-43.86,1.92,-13.62
1554879976706,4.6544704,2.1596357999999998,8.317711,-0.0035845571999999996,-0.001999362,-0.004923574,-43.739998,2.04,-13.139999
1554879976726,4.618556,2.169213,8.317711,-0.0023628268,0.0016658296,-0.0037018436,-43.559998,1.92,-12.84
1554879976746,4.62095,2.1716073,8.341654,-0.002973692,0.0010549643,0.00057421334,-43.559998,2.1,-13.98
1554879976767,4.592219,2.1644243999999997,8.363202000000001,0.0013023647,-0.005053688,-0.00064751715,-44.16,2.58,-14.639999
1554879976786,4.5970078,2.152453,8.327288000000001,-0.0005302310500000001,-0.00016676621,0.00485027,-44.46,2.34,-14.519999499999999
1554879976806,4.6305275,2.142876,8.329682,-0.0011410962,-0.0038319575,0.005461135400000001,-44.28,2.46,-15.12
1554879976826,4.6496816,2.1476645,8.300951,8.0634214e-05,-0.005053688,0.005461135400000001,-44.16,2.04,-14.82
1554879976846,4.644893,2.1596357999999998,8.320105,8.0634214e-05,-0.0032210925,0.006682866,-44.1,2.22,-14.7
1554879976866,4.6760187,2.1476645,8.317711,-0.0011410962,-0.00016676621,0.00485027,-44.52,3.0,-14.88
1554879976886,4.6544704,2.116539,8.308133,8.0634214e-05,-0.00016676621,0.0030176741999999998,-45.0,2.46,-14.46
1554879976907,4.6927786,2.135693,8.320105,0.00069149944,-0.002610227,0.0011850786,-44.879996999999996,2.3999999,-14.759998999999999
1554879976926,4.68799,2.1380875,8.277008,-0.0023628268,-0.0038319575,-0.0037018436,-44.76,2.7,-15.48
1554879976946,4.6760187,2.1476645,8.274613,-0.0017519614000000001,-0.0032210925,-0.0079779,-44.399998,3.1799998,-14.46
1554879976966,4.680807,2.1740015,8.3129225,-0.005417153,-0.0007776314999999999,-0.0030909781,-44.46,2.7,-14.4
1554879976987,4.6281333,2.142876,8.329682,-0.007249749000000001,-0.00016676621,-0.0030909781,-45.3,1.9799999,-15.059999
1554879977006,4.618556,2.126116,8.324894,-0.0011410962,-0.002610227,0.00057421334,-45.6,1.92,-15.599998999999999
1554879977026,4.608979,2.1404817000000005,8.341654,-0.0023628268,-0.005053688,0.0036285396000000003,-45.059998,1.62,-15.42
1554879977046,4.601796,2.135693,8.322499,0.0055784215,-0.009329746,0.0060720006,-43.32,1.1999999,-11.34
1554879977066,4.659259,2.1309047000000003,8.324894,0.0043566907,-0.0038319575,0.010348056,-41.94,1.1999999,-6.3599997
1554879977086,4.63771,2.1668186,8.320105,0.008021882,-0.007497149,0.009126327,-41.82,1.56,-5.1
1554879977106,4.652076,2.1835787,8.310528,0.0025240954,-0.00016676621,0.008515462,-42.36,0.9,-5.94
1554879977127,4.652076,2.1620302000000002,8.305738999999999,0.00069149944,0.0016658296,0.0060720006,-42.36,0.59999996,-6.8399997
1554879977146,4.661653,2.176396,8.308133,-0.002973692,0.0047201556,0.0024068089999999998,-42.42,0.84,-7.08
1554879977166,4.6832013,2.1332988999999998,8.303345,-0.005417153,0.008996212,0.00057421334,-42.6,0.78,-6.18
1554879977187,4.6640472,2.116539,8.324894,-0.00847148,0.007163617,-0.0037018436,-42.059998,0.59999996,-5.94
1554879977206,4.702356,2.0782306,8.303345,-0.011525805,0.0077744815,-0.0043127090000000005,-41.399998,0.53999996,-5.94
1554879977226,4.623344400000001,2.1189332000000003,8.341654,-0.005417153,-0.004442823,-0.0024801127,-41.399998,1.0799999,-6.0
1554879977246,4.608979,2.1213273999999998,8.344047999999999,-0.0017519614000000001,-0.012994936,-0.0018692476,-42.42,0.84,-6.12
1554879977266,4.644893,2.1285102000000005,8.334471,0.0055784215,-0.014827532,0.0017959438,-42.719997,0.42,-5.46
1554879977286,4.6496816,2.1572416000000003,8.324894,0.0043566907,-0.019103589,0.0030176741999999998,-43.02,0.53999996,-5.4
1554879977306,4.6664414,2.152453,8.310528,0.004967556,-0.012994936,0.005461135400000001,-43.62,0.59999996,-6.3599997
1554879977327,4.659259,2.152453,8.298556,0.006800151999999999,-0.012384071000000002,0.006682866,-43.2,1.38,-7.98
1554879977346,4.652076,2.1548474,8.291373,8.0634214e-05,0.0010549643,0.007904597,-42.6,1.56,-8.4
1554879977366,4.6736245,2.1452703,8.305738999999999,-0.002973692,0.008996212,0.004239404600000001,-41.94,0.84,-6.72
1554879977386,4.6832013,2.1189332000000003,8.305738999999999,-0.0048062876000000004,0.008385347,-0.00064751715,-42.18,0.78,-5.94
1554879977406,4.6712303,2.152453,8.344047999999999,-0.007249749000000001,0.0059418865,-0.0043127090000000005,-42.3,0.84,-5.7599998
1554879977426,4.640105,2.1644243999999997,8.358414,-0.004195423,0.0077744815,-0.0043127090000000005,-42.3,1.3199999,-6.0
1554879977447,4.63771,2.1141446,8.329682,-0.002973692,0.0034984252000000004,-0.0018692476,-42.36,2.04,-6.6
1554879977466,4.6041903,2.1452703,8.339259,-0.0017519614000000001,0.00044409905,0.0024068089999999998,-42.42,1.9799999,-7.14
1554879977486,4.601796,2.1596357999999998,8.356019,-0.0011410962,-0.0062754187,-3.6651913e-05,-42.54,0.9,-6.48
1554879977507,4.642499,2.126116,8.327288000000001,-0.002973692,-0.008108014,0.0011850786,-42.3,0.84,-5.2799997
1554879977527,4.632921700000001,2.1668186,8.324894,-0.0011410962,-0.010551476,-0.00064751715,-42.0,0.71999997,-5.2799997
1554879977546,4.652076,2.1452703,8.327288000000001,-0.0005302310500000001,-0.006886284,-0.0030909781,-42.0,0.48,-5.2799997
1554879977566,4.6664414,2.126116,8.320105,-0.0011410962,-0.007497149,-0.0024801127,-42.239998,1.02,-5.3399997
1554879977587,4.6640472,2.0973847,8.3129225,-0.004195423,-0.0062754187,-0.0037018436,-42.239998,0.96,-5.7
1554879977607,4.678413,2.1476645,8.324894,0.0013023647,-0.00994061,-0.006145304,-42.12,0.84,-5.94
1554879977626,4.6688356,2.1332988999999998,8.279403,-0.002973692,-0.008108014,-0.005534439,-42.36,1.3199999,-6.12
1554879977647,4.678413,2.1404817000000005,8.320105,-0.0005302310500000001,-0.002610227,-0.0067561697,-42.48,1.3199999,-7.44
1554879977667,4.6568646,2.1620302000000002,8.320105,8.0634214e-05,-0.002610227,-0.006145304,-42.899998,1.74,-7.7999997
1554879977686,4.644893,2.1596357999999998,8.324894,-0.0011410962,-0.0013884967000000002,-0.0043127090000000005,-43.44,2.22,-8.7
1554879977707,4.6281333,2.135693,8.315316000000001,-0.004195423,0.0034984252000000004,-3.6651913e-05,-43.02,2.1,-10.86
1554879977727,4.618556,2.1787900000000002,8.344047999999999,-0.002973692,0.005331021,-0.0012583825,-42.78,1.3199999,-10.98
1554879977747,4.618556,2.1548474,8.346442,-0.0048062876000000004,0.00044409905,-0.0030909781,-42.96,0.96,-10.62
1554879977766,4.618556,2.1189332000000003,8.300951,-0.0023628268,0.00288756,0.0017959438,-42.78,1.0799999,-10.38
1554879977787,4.63771,2.1835787,8.363202000000001,8.0634214e-05,-0.0013884967000000002,-0.0037018436,-43.32,1.74,-10.019999499999999
1554879977806,4.6640472,2.152453,8.336864,-0.0023628268,-0.005053688,-0.0043127090000000005,-42.899998,1.8,-10.62
1554879977826,4.6664414,2.1189332000000003,8.262642,-0.0048062876000000004,-0.005053688,0.0017959438,-43.739998,1.68,-10.5
1554879977847,4.6688356,2.1620302000000002,8.296163,-0.004195423,-0.00871888,-0.0030909781,-43.68,2.3999999,-10.019999499999999
1554879977866,4.6736245,2.1548474,8.293768,-0.0048062876000000004,-0.009329746,-0.0024801127,-43.44,2.3999999,-9.84
1554879977886,4.723904,2.1117504,8.279403,-0.010304076,-0.01116234,-0.008588765,-44.16,1.86,-9.78
1554879977907,4.7550297,2.1093562,8.315316000000001,-0.0127475355,-0.016049261999999998,-0.008588765,-43.559998,1.4399998999999999,-9.66
1554879977927,4.735875599999999,2.1141446,8.379961999999999,-0.007860614,-0.048425123,-0.0079779,-42.84,1.92,-9.84
1554879977947,4.70475,2.116539,8.334471,0.0025240954,-0.068583675,-0.0037018436,-43.26,1.86,-10.32
1554879977966,4.5515165,2.1548474,8.324894,0.009243613000000001,-0.084466174,0.009126327,-43.68,1.0799999,-10.32
1554879977987,4.4174370000000005,2.1668186,8.415875999999999,0.020239187,-0.09607261,0.02928488,-42.899998,0.71999997,-9.84
1554879978006,4.4533510000000005,2.1404817000000005,8.487703999999999,0.037343413,-0.11378769999999999,0.04883257,-42.719997,0.78,-10.08
1554879978026,4.494054,2.126116,8.497281,0.06422148,-0.14249837,0.05982814,-43.079997999999996,2.22,-9.78
1554879978046,4.450957,2.135693,8.420665,0.06544322,-0.15654826,0.058606412000000004,-43.079997999999996,2.34,-9.66
1554879978066,4.573065,2.1093562,8.344047999999999,0.057501968,-0.16754384,0.038447857,-43.02,2.28,-10.139999000000001
1554879978087,4.6712303,2.1548474,8.296163,0.04833899,-0.16876557,0.023787092000000003,-43.32,1.56,-8.519999499999999
1554879978107,4.867561,2.1548474,8.245882,0.041008607,-0.16754384,0.004239404600000001,-43.5,2.1599998,-8.519999499999999
1554879978127,4.972909,2.1835787,8.159689,0.028791300000000002,-0.1718199,-0.0091996305,-42.78,2.28,-8.46
1554879978147,5.05192,2.185973,8.061523,0.028791300000000002,-0.16632211,-0.01958434,-42.96,2.3999999,-9.0
1554879978166,5.0447370000000005,2.2194927000000004,8.049552,0.025736975,-0.15288307,-0.01958434,-43.26,2.28,-9.3
1554879978186,5.011217,2.2338583,8.090255,0.028791300000000002,-0.13333538,-0.013475687,-42.96,2.58,-9.059999000000001
1554879978206,5.027977,2.2099156000000004,8.078283,0.033678222,-0.123561546,-0.005534439,-43.14,2.52,-8.58
1554879978226,4.9537544,2.2170985,8.128563,0.036732547000000004,-0.116842024,-0.0018692476,-43.98,1.92,-9.719999000000001
1554879978247,4.925023,2.1716073,8.109408,0.036121685,-0.11317684,-0.0018692476,-43.559998,2.3999999,-9.24
1554879978266,4.9130519999999995,2.1811842999999995,8.114198,0.028180435,-0.11500943,-0.010421361,-44.219997,2.22,-9.24
1554879978286,4.932206,2.22907,8.080677,0.025736975,-0.10828992,-0.015308283,-45.059998,2.3999999,-10.679999
1554879978307,4.989669,2.2769554,8.059128999999999,0.019017456000000002,-0.09546175,-0.015308283,-45.12,2.82,-12.3
1554879978326,4.9202347,2.2745612,8.104619999999999,0.015963131999999998,-0.086298764,-0.011643091000000001,-44.34,2.82,-13.32
1554879978346,4.8723493,2.2889266,8.104619999999999,0.021460919,-0.08202271,-0.0037018436,-44.28,2.28,-13.019999499999999
1554879978367,5.042342700000001,2.2554069,7.9873009999999995,0.018406592,-0.054533772,-0.0012583825,-44.76,1.8,-13.08
1554879978386,5.238673,2.2697724999999997,7.886741000000001,0.011076208999999998,-0.023379646,-0.0067561697,-44.579997999999996,1.9799999,-13.019999499999999
1554879978406,5.4445809999999994,2.2266755000000003,7.764633,-0.007249749000000001,0.011439673999999999,-0.021416934,-44.16,2.3999999,-12.12
1554879978426,5.5355635,2.2194927000000004,7.6880164,-0.026797436,0.048091587000000005,-0.0360777,-44.399998,2.34,-12.42
1554879978446,5.5164089999999995,2.2075214,7.6377369999999996,-0.058562428,0.11039984,-0.053181927999999996,-44.1,2.9399998,-12.719999000000001
1554879978467,5.4541580000000005,2.2242813,7.702382000000001,-0.07505579,0.16293424,-0.06478837,-44.34,2.46,-12.0
1554879978486,5.360780999999999,2.2338583,7.802942,-0.08238618,0.19592097,-0.06539923,-44.219997,2.52,-11.639999000000001
1554879978506,5.2219133,2.2721667,7.898712599999999,-0.079331845,0.24295759,-0.05440366,-44.399998,1.86,-11.099999
1554879978526,5.0854397,2.2625897,8.095042999999999,-0.07139060000000001,0.26678133,-0.035466835,-44.7,2.1,-12.36
1554879978546,4.932206,2.2458298,8.099832000000001,-0.06283849,0.29976806,-0.0128648225,-44.16,2.52,-13.5
1554879978566,4.7789725999999995,2.2194927000000004,8.241094,-0.053064644,0.2979355,-0.00064751715,-44.16,2.3999999,-13.98
1554879978587,4.6305275,2.2386470000000003,8.329682,-0.050010316,0.2991572,0.01523498,-45.12,2.28,-14.639999
1554879978606,4.5251794,2.2147042999999997,8.3679905,-0.04817772,0.28816164,0.022565362999999998,-44.7,2.22,-14.639999
1554879978627,4.486871,2.176396,8.38475,-0.051232047,0.26739222,0.025619687999999998,-44.04,2.1,-13.98
1554879978646,4.4413795,2.1716073,8.394327,-0.053675506,0.2570075,0.027452284,-43.86,2.1,-14.28
1554879978667,4.3887057,2.1716073,8.487703999999999,-0.053064644,0.23379461,0.03050661,-44.46,2.22,-14.94
1554879978687,4.3815230000000005,2.1452703,8.46855,-0.042679932000000004,0.20141876,0.033560935,-44.34,2.1,-15.12
1554879978706,4.3695517,2.1213273999999998,8.55235,-0.031684357999999996,0.16476685,0.046999972,-44.34,2.1,-15.42
1554879978727,4.37434,2.0830189999999997,8.628966,-0.010304076,0.11834109599999999,0.056162953,-44.16,2.22,-15.719999
1554879978746,4.403071400000001,2.1021732999999996,8.542772,0.009854478,0.0829109,0.061049875,-44.219997,2.52,-15.42
1554879978767,4.4246197,2.0854135,8.509253,0.022071782,0.053589374,0.07082371400000001,-43.98,2.46,-15.78
1554879978786,4.5060253,2.0351336,8.458973,0.021460919,0.017548326,0.06532593,-43.739998,1.92,-15.12
1554879978807,4.5491223,2.013585,8.554744,0.017795727,-0.032542624,0.05249776,-43.739998,2.1599998,-15.24
1554879978826,4.520391,2.030345,8.597841,0.016573995,-0.10767905,0.036004398,-44.04,2.82,-14.58
1554879978847,4.4796879999999994,2.0614705,8.514041,0.019628322,-0.1614352,0.019511037,-43.92,2.82,-14.94
1554879978866,4.4437739999999994,2.0902019,8.528407000000001,0.02634784,-0.20053056,0.021954495,-44.219997,2.22,-14.7
1554879978886,4.3408203,2.1285102000000005,8.504464,0.041619472000000005,-0.22252170000000002,0.02928488,-44.52,2.7,-14.519999499999999
1554879978907,4.3216662,2.1380875,8.578687,0.060556293,-0.25306496,0.043334782,-45.12,2.34,-14.519999499999999
1554879978926,4.3575800000000005,2.1668186,8.497281,0.08987782,-0.27933220000000003,0.055552088,-43.68,2.1599998,-14.519999499999999
1554879978946,4.436591,2.152453,8.470944,0.10087339599999999,-0.29582554,0.06532593,-42.78,2.22,-14.7
1554879978966,4.5491223,2.1404817000000005,8.432636,0.10820378,-0.32942313,0.06288247,-44.219997,2.28,-14.94
1554879978987,4.5994019999999995,2.1548474,8.322499,0.11370157,-0.34041869999999996,0.05738468,-45.0,2.34,-14.519999499999999
1554879979006,4.6760187,2.152453,8.262642,0.11431243,-0.34897083,0.047610834000000005,-45.059998,2.58,-14.46
1554879979026,4.8316464,2.1787900000000002,8.181237,0.11797763,-0.35202515,0.041502185,-44.34,2.7,-13.86
1554879979047,4.9585433,2.2266755000000003,8.104619999999999,0.119810216,-0.34652737,0.03172834,-44.16,2.82,-12.599999
1554879979067,5.035159999999999,2.2266755000000003,8.075889,0.121031955,-0.34713823,0.028674016,-44.219997,3.0,-12.599999
1554879979086,5.2314906,2.2123098,7.869981299999999,0.11858849,-0.33064488,0.01890017,-44.46,2.52,-12.78
1554879979107,5.33205,2.2434354,7.783787299999999,0.10881465,-0.30804285,0.0060720006,-44.82,2.34,-13.559999
1554879979126,5.3799353,2.291321,7.731113400000001,0.09476475,-0.2860517,0.0024068089999999998,-45.36,2.3999999,-13.2
1554879979146,5.4110613,2.3368123,7.685622,0.07521705,-0.24145854,-0.007367035,-44.04,2.22,-11.58
1554879979167,5.4086666,2.343995,7.692805,0.055058505,-0.19564365,-0.01836261,-42.96,3.12,-11.219999000000001
1554879979187,5.4230323,2.3727264,7.625765299999999,0.041008607,-0.18159375,-0.04035376,-44.1,3.24,-11.7
1554879979206,5.4421870000000006,2.3224466,7.570697,0.008632747,-0.14249837,-0.05501452,-45.18,2.6399999,-11.759999
1554879979227,5.571477400000001,2.3416007000000003,7.515629,-0.028019167,-0.081411846,-0.07211875,-44.76,3.36,-11.639999000000001
1554879979246,5.7821736,2.308081,7.4246464,-0.066503674,-0.014216666999999999,-0.09288817,-43.86,3.3,-11.219999000000001
1554879979267,5.89231,2.264984,7.398308999999999,-0.10071213,0.053589374,-0.10999239,-43.92,3.06,-10.92
1554879979286,5.8587904,2.2266755000000003,7.407886,-0.13125539,0.10490205,-0.11365759,-44.579997999999996,3.1799998,-11.16
1554879979306,5.784568,2.2027327999999997,7.453377199999999,-0.14835963,0.1568256,-0.117933646,-45.0,2.9399998,-11.34
1554879979326,5.674431299999999,2.2458298,7.592245599999999,-0.14897048,0.19836444,-0.11365759,-44.7,2.22,-11.4
1554879979346,5.542746,2.2578009999999997,7.74069,-0.14102924,0.23074029999999998,-0.09960769,-44.34,2.76,-11.4
1554879979366,5.401484,2.2506182,7.822096000000001,-0.12209242,0.25456405,-0.07700568,-44.1,2.28,-11.639999000000001
1554879979387,5.2937417,2.2625897,7.896318400000001,-0.09460348,0.27655518,-0.056236256,-44.82,1.92,-12.059999000000001
1554879979406,5.162056400000001,2.2625897,7.963358,-0.07383406,0.30526587,-0.024471262,-44.82,2.1599998,-12.059999000000001
1554879979427,5.0854397,2.2458298,8.044764,-0.062227618,0.33031133,0.0036285396000000003,-44.1,1.9799999,-12.12
1554879979446,4.9633317,2.2721667,8.085466,-0.05245378,0.34375036,0.0201219,-44.1,1.9799999,-12.48
1554879979467,4.8579836,2.300898,8.140533999999999,-0.05489724,0.3553568,0.032339208,-43.8,2.28,-12.599999
1554879979486,4.7191157,2.2889266,8.190814,-0.06406022,0.37246102,0.0341718,-44.219997,2.04,-12.96
1554879979506,4.697566999999999,2.2841382,8.22194,-0.07994271,0.38284573,0.025619687999999998,-44.64,2.04,-13.62
1554879979527,4.6041903,2.2673783,8.363202000000001,-0.090938285,0.36879584,0.0201219,-44.76,2.76,-13.74
1554879979546,4.558699,2.2194927000000004,8.430242,-0.09765781,0.35291335,0.01890017,-44.28,3.48,-13.86
1554879979566,4.517997,2.205127,8.432636,-0.09216002,0.33153304,0.0201219,-43.68,3.12,-14.34
1554879979586,4.5060253,2.1572416000000003,8.46855,-0.080553584,0.29732463,0.024397957999999997,-43.92,2.7,-15.24
1554879979606,4.4677167,2.135693,8.557138,-0.059173292999999995,0.24845539,0.034782667,-43.92,2.7,-15.48
1554879979627,4.4126487,2.0973847,8.540379,-0.03779301,0.20080789999999998,0.046389107,-44.16,2.22,-15.78
1554879979646,4.348003,2.0447106,8.535589,-0.02252138,0.15987992,0.050054297000000005,-44.46,2.1599998,-15.839998999999999
1554879979667,4.2665977,1.9537282,8.624178,-0.007860614,0.11039984,0.05249776,-43.98,1.92,-15.299999
1554879979686,4.2258949999999995,1.9489397000000002,8.712766,0.0031349603,0.03587428,0.04455651,-44.219997,1.86,-15.719999
1554879979708,4.14449,1.9226026999999999,8.779805999999999,0.017184861000000003,-0.05636637,0.033560935,-44.219997,2.9399998,-16.5
1554879979726,4.206741,1.9944308999999998,8.688824,0.028791300000000002,-0.13150279,0.028674016,-43.68,2.8799999,-16.5
1554879979747,4.285752,2.0494993000000004,8.595447,0.038565143999999996,-0.19136758,0.0201219,-43.26,1.9799999,-15.599998999999999
1554879979766,4.410254,2.0423164000000003,8.56911,0.034899954,-0.2420694,0.0140132485,-43.62,1.86,-14.94
1554879979786,4.4749,2.1093562,8.571504,0.048949853,-0.29032776,0.018289305,-44.64,1.92,-15.059999
1554879979807,4.4318027,2.205127,8.5331955,0.07155187,-0.32087103,0.04455651,-44.579997999999996,2.6399999,-15.42
1554879979826,4.400677,2.1716073,8.377566999999999,0.0868235,-0.32392535,0.05127603,-44.7,2.76,-15.42
1554879979847,4.5467277,2.126116,8.360807000000001,0.09171042,-0.32514706,0.04516738,-44.64,2.46,-15.0
1554879979866,4.680807,2.176396,8.322499,0.10026254,-0.3459165,0.040280454,-43.559998,2.82,-14.28
1554879979886,4.6736245,2.2266755000000003,8.298556,0.09598648,-0.33125573,0.035393532000000005,-43.68,2.82,-14.099998999999999
1554879979906,4.6281333,2.19555,8.372779,0.08926696,-0.33125573,0.021343632,-44.16,2.7,-14.7
1554879979926,4.6760187,2.1596357999999998,8.334471,0.09415389,-0.33797526,0.009126327,-44.1,2.28,-14.099998999999999
1554879979946,4.7981267,2.1883671000000002,8.262642,0.10270599,-0.35935554,-0.0067561697,-44.579997999999996,2.46,-13.44
1554879979967,4.9130519999999995,2.2386470000000003,8.13814,0.11186897,-0.3672968,-0.012253957,-44.82,2.82,-13.44
1554879979987,5.078257,2.2554069,8.008849,0.122253686,-0.34897083,-0.013475687,-44.52,2.46,-12.66
1554879980007,5.3033185,2.2793495999999998,7.822096000000001,0.109425515,-0.32820140000000003,-0.02080607,-44.46,2.58,-12.719999000000001
1554879980026,5.437398,2.3535721,7.676044999999999,0.088045225,-0.298269,-0.025692992,-44.34,3.0,-12.9
1554879980047,5.4134555,2.3918805,7.6066113,0.06788667,-0.26039535,-0.031801645,-44.52,2.7,-11.219999000000001
1554879980066,5.5044379999999995,2.4517374,7.508445699999999,0.04711726,-0.19747624,-0.031190779,-45.0,1.62,-9.9
1554879980087,5.7917510000000005,2.3942747000000004,7.388732000000001,0.018406592,-0.13150279,-0.042186357,-44.04,1.9799999,-9.599999
1554879980106,6.0048413,2.4134290000000003,7.3049326,-0.02129965,-0.07102714,-0.07272962,-43.92,3.24,-10.62
1554879980127,6.0335727,2.3200524,7.194795599999999,-0.06894714,0.00288756,-0.09288817,-44.16,3.06,-11.88
1554879980146,5.968927,2.2697724999999997,7.242681500000001,-0.102544725,0.073747925,-0.09655336,-44.34,2.52,-11.7
1554879980167,5.8013277,2.116539,7.4102807,-0.1257576,0.15316042,-0.10144029,-44.879996999999996,2.58,-11.46
1554879980187,5.648094,2.1620302000000002,7.570697,-0.12881194,0.20264049,-0.089222975,-44.28,1.56,-10.86
1554879980206,5.506832,2.2170985,7.798153,-0.10804251,0.22768597,-0.06845356,-44.04,1.0799999,-11.46
1554879980226,5.3464155,2.1644243999999997,7.903500999999999,-0.080553584,0.23807068,-0.048295005999999994,-44.34,2.22,-12.12
1554879980246,5.217125,2.1644243999999997,7.927444,-0.05978416,0.24234673,-0.02996905,-44.76,2.34,-11.88
1554879980266,5.1357193,2.2003386000000003,7.975329400000001,-0.045123395,0.25578576,-0.011643091000000001,-44.76,2.52,-12.54
1554879980286,5.073468,2.2170985,7.965752,-0.036571282999999996,0.26494876,-0.0018692476,-44.46,2.7,-12.3
1554879980306,4.975303,2.2817439999999998,8.042369,-0.03779301,0.28999424,0.013402384,-45.059998,1.8,-12.42
1554879980326,4.901080599999999,2.2865324,8.080677,-0.04451253,0.30221152,0.0121806525,-45.12,1.62,-13.2
1554879980346,4.7957325,2.2937152000000003,8.066312,-0.061616755999999995,0.31809402,0.009126327,-45.0,1.92,-13.139999
1554879980366,4.7334814000000005,2.3248408,8.186026,-0.07627752,0.33580909999999997,0.0060720006,-44.7,1.92,-13.44
1554879980387,4.6496816,2.3344178,8.243488000000001,-0.084829636,0.32847872,0.007904597,-44.82,1.62,-12.9
1554879980406,4.6281333,2.343995,8.365596,-0.07872099,0.3150397,0.022565362999999998,-45.0,1.86,-13.44
1554879980427,4.5874305,2.3056867000000003,8.396722,-0.05489724,0.28999424,0.038447857,-44.34,2.1599998,-14.639999
1554879980447,4.62095,2.2841382,8.518829,-0.029240899,0.24784453,0.056162953,-44.34,2.04,-14.46
1554879980467,4.625739,2.2506182,8.557138,0.009854478,0.20080789999999998,0.07448891,-44.7,1.9799999,-14.58
1554879980486,4.608979,2.1931557999999995,8.346442,0.031234762000000003,0.17148638,0.08548448,-44.34,2.22,-14.94
1554879980507,4.4892654,2.0973847,8.317711,0.017795727,0.16782118,0.08304102,-44.1,3.12,-15.179998999999999
1554879980526,4.4078599999999994,2.0997790000000003,8.473338,0.0061892867,0.12933667,0.06776939,-44.879996999999996,2.7,-15.599998999999999
1554879980546,4.333637,2.0997790000000003,8.509253,-0.0017519614000000001,0.089630425,0.051886894,-44.399998,1.9799999,-15.839998999999999
1554879980566,4.3168774,2.0902019,8.526012,-0.004195423,0.04686986,0.03661526,-44.399998,2.34,-15.54
1554879980586,4.3408203,1.9944308999999998,8.595447,-0.0023628268,-0.020936184,0.0201219,-44.7,2.46,-15.78
1554879980606,4.398283,1.9680939,8.581081,-0.00847148,-0.084466174,0.0011850786,-43.92,2.46,-15.059999
1554879980626,4.5060253,2.0399222,8.605023,-0.005417153,-0.14066577,-0.0079779,-44.46,2.7,-14.759998999999999
1554879980646,4.4126487,2.1572416000000003,8.739103,0.017184861000000003,-0.21580221,0.006682866,-45.18,2.82,-15.48
1554879980666,4.14449,2.2793495999999998,8.729526,0.055058505,-0.2823865,0.064715065,-43.98,2.58,-15.9
1554879980686,4.070266999999999,2.3248408,8.593052,0.10698205,-0.29154949999999996,0.12274726,-43.26,2.46,-15.78
1554879980706,4.304906,2.2147042999999997,8.470944,0.1466883,-0.3055994,0.15267965,-44.1,2.1,-14.94
1554879980726,4.743058,2.1189332000000003,8.372779,0.17234464,-0.3330883,0.14412755,-44.04,2.28,-15.0
1554879980746,4.98488,2.2314641,8.181237,0.15218608,-0.34469476,0.10197785,-44.16,2.6399999,-14.759998999999999
1554879980766,4.800521,2.1931557999999995,8.102226,0.11492329999999999,-0.3233145,0.054330355999999996,-45.0,2.82,-14.099998999999999
1554879980787,4.8029150000000005,2.1213273999999998,8.102226,0.06422148,-0.29093862,-0.011032226499999999,-44.399998,2.76,-14.04
1554879980806,5.047130999999999,2.1596357999999998,8.037580499999999,0.05078245,-0.31109717,-0.056847117999999995,-43.739998,2.7,-13.019999499999999
1554879980827,5.2650104,2.2362528,7.9346266000000005,0.056280237000000004,-0.34347302,-0.07761654,-44.1,3.36,-12.599999
1554879980846,5.4158497,2.3775147999999997,7.678439,0.056891102,-0.31231892,-0.08250346,-44.04,3.4199998,-13.08
1554879980866,5.5331693,2.3655436,7.6377369999999996,0.050171584000000005,-0.25611928,-0.06478837,-43.86,2.6399999,-12.78
1554879980887,5.4948606,2.2985039,7.7335076,0.04406293,-0.20602836,-0.035466835,-44.16,2.34,-13.08
1554879980906,5.4230323,2.22907,7.728719,0.045284662,-0.17548509,-0.025082126,-44.94,2.52,-12.719999000000001
1554879980927,5.384723999999999,2.19555,7.668862299999999,0.031234762000000003,-0.14310923,-0.039742894,-44.579997999999996,2.82,-10.44
1554879980946,5.3631754,2.2554069,7.582668300000001,0.0031349603,-0.10890078,-0.06601010000000002,-44.46,3.0,-10.44
1554879980967,5.36557,2.2961093999999997,7.609005499999999,-0.028630031,-0.08385531,-0.08494692,-44.579997999999996,2.82,-12.24
1554879980986,5.3535986,2.291321,7.656891000000001,-0.048788585,-0.049035985,-0.088001244,-44.34,3.0,-11.639999000000001
1554879981007,5.3464155,2.2865324,7.726325,-0.057951565999999996,-0.012384071000000002,-0.07211875,-44.7,3.06,-11.16
1554879981026,5.274587599999999,2.343995,7.6975937000000005,-0.055508102999999996,0.005331021,-0.06845356,-44.34,3.6599998,-11.099999
1554879981046,5.437398,2.1716073,7.6353425999999995,-0.06589281599999999,0.039539475,-0.061123177,-43.92,3.1799998,-10.44
1554879981067,5.554717500000001,2.2266755000000003,7.6616793,-0.079331845,0.08779783,-0.061123177,-44.64,1.9799999,-10.679999
1554879981086,5.585843,2.2841382,7.685622,-0.07505579,0.10673465,-0.061123177,-44.82,1.74,-11.219999000000001
1554879981106,5.554717500000001,2.2554069,7.692805,-0.072001465,0.13239099,-0.052571066,-44.52,2.22,-11.82
1554879981127,5.506832,2.2410412,7.745479,-0.06711454,0.1568256,-0.045851544,-44.28,2.7,-10.5
1554879981146,5.4062724,2.3032923,7.814913000000001,-0.061616755999999995,0.18920146,-0.034855973,-44.04,2.1599998,-10.44
1554879981167,5.253039,2.3751206000000002,7.843644,-0.05672983,0.22340990000000002,-0.022027802000000003,-44.1,1.74,-12.12
1554879981186,5.157268,2.3918805,7.910684,-0.05489724,0.24967712,-0.009810495,-44.52,2.3999999,-12.12
1554879981207,5.0184,2.3870918999999997,8.030397,-0.054286372,0.27227914,0.0024068089999999998,-45.12,2.28,-12.48
1554879981226,4.9202347,2.4086404,7.989694999999999,-0.061616755999999995,0.30404413,0.011569788000000001,-45.059998,2.34,-13.139999
1554879981247,4.843618,2.351178,8.159689,-0.07016887,0.31137452,0.010348056,-45.0,2.6399999,-13.86
1554879981266,4.810098,2.3128695,8.166871,-0.08421877,0.32603530000000003,0.00057421334,-45.18,1.86,-13.92
1554879981286,4.7454529999999995,2.3296294,8.260247999999999,-0.09460348,0.32786787,-0.0024801127,-45.12,1.62,-13.5
1554879981306,4.678413,2.2865324,8.286585,-0.09460348,0.32175922,0.0011850786,-44.399998,1.56,-13.74
1554879981326,4.640105,2.2266755000000003,8.348836,-0.08727309,0.30343327,0.005461135400000001,-44.16,1.8,-13.62
1554879981346,4.582642,2.2099156000000004,8.396722,-0.07261233,0.27655518,0.017067576,-44.52,2.04,-13.86
1554879981367,4.537151000000001,2.1979442000000002,8.451789999999999,-0.06344935,0.25089884,0.031117475,-44.579997999999996,1.8,-15.48
1554879981386,4.486871,2.1716073,8.456578,-0.043290798,0.22279905,0.047610834000000005,-44.7,1.74,-15.9
1554879981406,4.4318027,2.1596357999999998,8.466156,-0.028019167,0.18859059,0.056773815,-44.76,2.04,-15.599998999999999
1554879981426,4.333637,2.1213273999999998,8.542772,-0.015801862,0.14827348,0.06288247,-43.98,2.22,-15.48
1554879981447,4.314483,2.0973847,8.557138,-0.005417153,0.10429119,0.05738468,-43.62,2.1,-15.179998999999999
1554879981466,4.288146,2.0854135,8.609812,-0.0011410962,0.060919758,0.050665166,-44.1,1.68,-15.599998999999999
1554879981487,4.295329,2.0614705,8.576292,-0.0005302310500000001,0.013883135,0.03966959,-44.28,2.04,-16.14
1554879981507,4.280963400000001,1.9633054,8.559532,-0.0005302310500000001,-0.039262142,0.01767844,-44.1,2.04,-16.32
1554879981526,4.326454599999999,1.9968252,8.499676,-0.0005302310500000001,-0.07774665,0.0017959438,-44.04,1.8,-15.719999
1554879981547,4.4772940000000006,2.011191,8.461367999999998,0.0061892867,-0.102181256,-0.015919149,-43.62,1.9799999,-15.179998999999999
1554879981566,4.5682764,2.0423164000000003,8.4230585,0.009243613000000001,-0.1174529,-0.021416934,-43.02,2.46,-15.299999
1554879981587,4.6544704,2.0949904999999998,8.377566999999999,0.008632747,-0.12539414,-0.026914722999999998,-43.86,3.4199998,-15.599998999999999
1554879981606,4.6927786,2.1452703,8.300951,0.0104653435,-0.1278376,-0.026914722999999998,-44.82,2.9399998,-15.839998999999999
1554879981627,4.6999617,2.1668186,8.274613,0.015352265,-0.12478328,-0.029358182000000003,-44.399998,2.22,-15.78
1554879981646,4.70475,2.1811842999999995,8.233911500000001,0.018406592,-0.1156203,-0.025692992,-44.1,2.04,-15.9
1554879981666,4.70475,2.2003386000000003,8.272219999999999,0.022071782,-0.10890078,-0.02080607,-44.1,2.1,-15.54
1554879981686,4.7310870000000005,2.2554069,8.260247999999999,0.021460919,-0.10034867,-0.011643091000000001,-44.219997,2.28,-14.88
1554879981706,4.721509999999999,2.2410412,8.248277,0.015352265,-0.08507703,-0.0043127090000000005,-44.52,1.92,-15.0
1554879981726,4.6951730000000005,2.1835787,8.260247999999999,0.015963131999999998,-0.07774665,-0.006145304,-44.579997999999996,2.04,-15.36
1554879981747,4.6568646,2.2170985,8.245882,0.01351967,-0.071638,-0.0012583825,-44.28,2.82,-14.099998999999999
1554879981766,4.6951730000000005,2.2170985,8.255460000000001,0.006800151999999999,-0.056977235,-3.6651913e-05,-43.5,2.34,-11.519999499999999
1554879981787,4.735875599999999,2.1835787,8.219545,0.0043566907,-0.046592525999999995,-0.0024801127,-43.32,1.5,-9.78
1554879981806,4.774183799999999,2.1716073,8.20518,-0.0005302310500000001,-0.039262142,-0.0012583825,-43.14,1.68,-9.24
1554879981827,4.8029150000000005,2.1572416000000003,8.181237,-0.0011410962,-0.030710027999999997,-0.0012583825,-43.2,1.5,-9.179999
1554879981846,4.8220696,2.1835787,8.166871,-0.004195423,-0.016049261999999998,0.0017959438,-42.96,1.68,-8.94
1554879981867,4.8412237000000005,2.1979442000000002,8.130958,-0.0035845571999999996,0.010828808,0.00057421334,-42.78,2.1,-9.78
1554879981886,4.865166,2.1716073,8.166871,-0.0066388836,0.029154766000000002,0.004239404600000001,-42.899998,1.68,-9.66
1554879981907,4.8316464,2.1931557999999995,8.157294,-0.007860614,0.040761202999999996,0.010348056,-42.84,1.5,-8.4
1554879981926,4.8148865999999995,2.1620302000000002,8.200391,-0.004195423,0.041372072,0.006682866,-42.719997,1.5,-8.639999000000001
1554879981947,4.771789599999999,2.1668186,8.229122,-0.005417153,0.049924184,0.007904597,-42.36,1.62,-8.46
1554879981966,4.723904,2.152453,8.262642,-0.007860614,0.053589374,0.0060720006,-42.059998,2.1,-10.44
1554879981987,4.6927786,2.142876,8.291373,-0.00847148,0.048702452,0.0060720006,-42.78,1.9799999,-13.559999
1554879982006,4.6496816,2.152453,8.320105,-0.0023628268,0.041982938,0.0030176741999999998,-43.86,2.1599998,-14.7
1554879982026,4.6281333,2.1596357999999998,8.317711,-0.0066388836,0.038317744,0.00057421334,-43.92,1.8,-15.12
1554879982046,4.635316,2.152453,8.310528,-0.0066388836,0.035263415,-0.0012583825,-43.68,1.74,-13.799999
1554879982066,4.616162,2.1620302000000002,8.360807000000001,-0.0035845571999999996,0.021824382000000003,0.00057421334,-43.86,2.28,-12.66
1554879982087,4.616162,2.1883671000000002,8.370385,-0.0017519614000000001,0.011439673999999999,0.005461135400000001,-44.579997999999996,2.1599998,-13.679998999999999
1554879982106,4.6137676,2.2027327999999997,8.363202000000001,0.0031349603,0.0065527516,0.0121806525,-44.879996999999996,2.46,-15.059999
1554879982127,4.601796,2.2027327999999997,8.336864,0.007411017,0.0022766949,0.0140132485,-44.82,2.22,-14.759998999999999
1554879982146,4.6065845,2.1620302000000002,8.334471,0.0061892867,-0.0062754187,0.014624113999999999,-44.399998,2.58,-14.46
1554879982166,4.6568646,2.1404817000000005,8.336864,0.006800151999999999,-0.016049261999999998,0.009126327,-44.28,3.12,-13.62
1554879982188,4.659259,2.1332988999999998,8.305738999999999,0.0037458257,-0.023379646,0.005461135400000001,-44.64,3.0,-13.2
1554879982207,4.678413,2.1237217999999998,8.298556,-0.0017519614000000001,-0.027655702,-0.0018692476,-45.0,2.82,-14.88
1554879982226,4.6736245,2.1285102000000005,8.274613,-0.0017519614000000001,-0.030099162999999998,-0.0043127090000000005,-44.879996999999996,2.1,-15.299999
1554879982246,4.6832013,2.1380875,8.296163,-0.0017519614000000001,-0.028266568,-0.0067561697,-44.64,2.46,-14.88
1554879982266,4.68799,2.1476645,8.300951,0.00069149944,-0.032542624,-0.008588765,-43.68,2.52,-13.92
1554879982286,4.7310870000000005,2.1596357999999998,8.265037,0.0019132298999999999,-0.028877432,-0.005534439,-43.44,2.6399999,-13.5
1554879982306,4.757423999999999,2.142876,8.233911500000001,0.0031349603,-0.025212241,-0.0067561697,-44.16,2.58,-14.219999
1554879982326,4.776578400000001,2.1548474,8.197997,-0.0005302310500000001,-0.02032532,-0.005534439,-44.579997999999996,2.28,-14.519999499999999
1554879982346,4.774183799999999,2.169213,8.193209,0.0019132298999999999,-0.019714454,-0.007367035,-44.64,2.46,-14.4
1554879982366,4.7622127999999995,2.19555,8.233911500000001,-0.002973692,-0.011773205,-0.0037018436,-44.52,2.1599998,-14.88
1554879982387,4.7191157,2.2075214,8.265037,0.0043566907,-0.0056645535,-0.00064751715,-43.92,2.1599998,-15.299999
1554879982406,4.6832013,2.2242813,8.272219999999999,0.0031349603,0.0022766949,0.0072937314000000005,-44.28,2.28,-14.7
1554879982426,4.6664414,2.2242813,8.269825,0.004967556,0.011439673999999999,0.015845845,-45.059998,2.58,-14.28
1554879982446,4.6664414,2.1979442000000002,8.286585,0.00069149944,0.018159192,0.01523498,-44.46,2.3999999,-14.82
1554879982466,4.6999617,2.1787900000000002,8.286585,-0.0017519614000000001,0.021213517999999997,0.010348056,-44.52,2.1599998,-15.48
1554879982487,4.7071442999999995,2.1548474,8.293768,-0.004195423,0.024878709,0.009737191999999999,-43.68,2.3999999,-14.219999
1554879982506,4.70475,2.1404817000000005,8.284191,-0.005417153,0.024878709,0.0030176741999999998,-43.62,1.62,-13.74
1554879982526,4.6927786,2.135693,8.310528,-0.005417153,0.020602651,-0.0037018436,-44.879996999999996,1.3199999,-14.639999
1554879982546,4.735875599999999,2.1285102000000005,8.317711,-0.0060280184,0.018770056,-0.0043127090000000005,-44.82,1.68,-14.759998999999999
1554879982567,4.721509999999999,2.1452703,8.303345,-0.0035845571999999996,0.0077744815,-0.009810495,-44.76,2.22,-15.0
1554879982586,4.68799,2.1380875,8.303345,-0.002973692,0.005331021,-0.009810495,-44.7,2.34,-14.639999
1554879982607,4.68799,2.1740015,8.300951,-0.0011410962,0.0016658296,-0.011643091000000001,-44.34,1.8,-14.4
1554879982626,4.6688356,2.1811842999999995,8.346442,-0.0048062876000000004,-0.004442823,-0.0091996305,-44.399998,2.22,-15.0
1554879982647,4.661653,2.185973,8.336864,-0.004195423,-0.00994061,-0.011032226499999999,-44.52,2.52,-15.839998999999999
1554879982666,4.625739,2.2003386000000003,8.310528,-0.0048062876000000004,-0.014216666999999999,-0.008588765,-44.879996999999996,2.3999999,-15.54
1554879982687,4.635316,2.1644243999999997,8.322499,-0.0048062876000000004,-0.00871888,-0.0091996305,-44.64,2.9399998,-14.58
1554879982706,4.659259,2.1500587,8.300951,-0.007249749000000001,-0.012384071000000002,-0.010421361,-44.34,2.9399998,-14.639999
1554879982726,4.6951730000000005,2.1644243999999997,8.291373,-0.0060280184,-0.01788186,-0.0128648225,-44.76,2.28,-14.82
1554879982746,4.68799,2.1309047000000003,8.298556,-0.0023628268,-0.01788186,-0.009810495,-44.16,2.28,-14.82
1554879982767,4.6903844,2.1716073,8.293768,8.0634214e-05,-0.016660128,-0.009810495,-43.8,2.3999999,-14.94
1554879982786,4.702356,2.176396,8.255460000000001,0.0019132298999999999,-0.012994936,-0.0037018436,-44.1,2.22,-14.7
1554879982807,4.680807,2.2027327999999997,8.260247999999999,0.0031349603,-0.006886284,0.0011850786,-44.04,1.8,-14.219999
1554879982826,4.678413,2.1931557999999995,8.245882,0.0055784215,-0.004442823,0.004239404600000001,-44.219997,1.8,-13.44
1554879982847,4.68799,2.1907616,8.281796,0.0025240954,0.0016658296,0.005461135400000001,-44.28,1.74,-13.44
1554879982866,4.680807,2.2027327999999997,8.272219999999999,0.0019132298999999999,0.007163617,0.0072937314000000005,-43.98,1.92,-14.219999
1554879982886,4.7071442999999995,2.1620302000000002,8.281796,-0.0023628268,0.0077744815,0.0024068089999999998,-44.34,2.58,-14.219999
1554879982906,4.6951730000000005,2.152453,8.277008,-0.0011410962,0.010828808,0.00057421334,-45.059998,2.6399999,-13.679998999999999
1554879982926,4.6712303,2.1332988999999998,8.298556,-0.0005302310500000001,0.007163617,-0.00064751715,-44.76,2.1,-13.799999
1554879982947,4.6903844,2.142876,8.336864,0.0019132298999999999,-0.00016676621,-0.004923574,-44.28,2.3999999,-14.4
1554879982966,4.6927786,2.1548474,8.327288000000001,0.0055784215,-0.0062754187,-0.0012583825,-44.7,2.7,-14.759998999999999
1554879982986,4.678413,2.135693,8.291373,0.006800151999999999,-0.00994061,-0.0018692476,-45.239998,2.82,-14.639999
1554879983007,4.652076,2.1668186,8.3129225,0.0043566907,-0.012384071000000002,0.0011850786,-44.34,2.58,-13.559999
1554879983026,4.680807,2.176396,8.305738999999999,0.0025240954,-0.012384071000000002,-0.00064751715,-44.16,2.04,-13.799999
1554879983047,4.6903844,2.1668186,8.284191,0.0025240954,-0.011773205,-0.0024801127,-44.34,2.3999999,-13.679998999999999
1554879983066,4.6903844,2.1620302000000002,8.305738999999999,0.00069149944,-0.012384071000000002,-0.006145304,-44.16,2.52,-12.9
1554879983086,4.697566999999999,2.1835787,8.310528,-0.005417153,-0.008108014,-0.0043127090000000005,-44.82,1.92,-13.92
1554879983107,4.7262983,2.19555,8.300951,0.00069149944,-0.00994061,-0.007367035,-44.04,2.04,-13.2
1554879983126,4.7071442999999995,2.2099156000000004,8.2578535,-0.0017519614000000001,-0.0056645535,-0.004923574,-43.739998,2.3999999,-13.08
1554879983147,4.7143273,2.1811842999999995,8.272219999999999,-0.0023628268,-0.0038319575,-0.0067561697,-44.16,2.46,-14.519999499999999
1554879983166,4.7191157,2.1787900000000002,8.274613,-0.002973692,-0.0013884967000000002,-0.006145304,-44.46,2.04,-14.519999499999999
1554879983186,4.7143273,2.2003386000000003,8.267431,-0.0011410962,0.0016658296,-0.005534439,-44.399998,1.74,-14.82
1554879983207,4.702356,2.1811842999999995,8.260247999999999,-0.0035845571999999996,0.0047201556,-0.0067561697,-43.62,2.04,-14.34
1554879983226,4.697566999999999,2.1452703,8.281796,-0.0048062876000000004,0.0047201556,-0.008588765,-43.739998,2.28,-13.679998999999999
1554879983246,4.6688356,2.1716073,8.310528,-0.0060280184,0.0065527516,-0.0091996305,-44.34,1.9799999,-14.219999
1554879983267,4.68799,2.1572416000000003,8.353624,0.0013023647,0.0034984252000000004,-0.009810495,-44.7,1.68,-14.4
1554879983286,4.642499,2.169213,8.310528,8.0634214e-05,-0.00016676621,-0.0067561697,-44.879996999999996,1.92,-14.759998999999999
1554879983306,4.6496816,2.169213,8.293768,8.0634214e-05,-0.0013884967000000002,-0.006145304,-44.7,2.34,-14.759998999999999
1554879983327,4.632921700000001,2.1835787,8.315316000000001,0.00069149944,-0.0038319575,-0.0012583825,-44.52,2.7,-14.46
1554879983346,4.661653,2.205127,8.298556,0.0025240954,-0.0056645535,0.0017959438,-44.52,2.9399998,-14.94
1554879983366,4.70475,2.1787900000000002,8.293768,0.0013023647,-0.0062754187,0.005461135400000001,-44.399998,2.04,-14.82
1554879983386,4.678413,2.1787900000000002,8.284191,0.00069149944,-0.00871888,0.0030176741999999998,-44.28,1.62,-14.88
1554879983406,4.6903844,2.185973,8.269825,-0.0017519614000000001,-0.005053688,0.0060720006,-44.1,1.9799999,-15.179998999999999
1554879983426,4.6927786,2.1835787,8.322499,8.0634214e-05,-0.008108014,0.0060720006,-43.86,2.58,-14.7
1554879983447,4.6832013,2.1716073,8.260247999999999,8.0634214e-05,-0.0056645535,0.00485027,-43.62,2.3999999,-15.42
1554879983466,4.6951730000000005,2.185973,8.296163,0.0019132298999999999,-0.0056645535,0.0036285396000000003,-43.92,1.5,-15.9
1554879983487,4.7119327,2.1787900000000002,8.317711,0.006800151999999999,-0.01116234,0.004239404600000001,-44.34,1.86,-15.0
1554879983506,4.685596,2.1668186,8.272219999999999,0.006800151999999999,-0.00994061,0.009737191999999999,-44.16,2.04,-14.4
1554879983526,4.6760187,2.185973,8.284191,0.0037458257,-0.005053688,0.006682866,-44.34,1.3199999,-13.679998999999999
1554879983546,4.68799,2.185973,8.296163,0.0031349603,-0.005053688,0.0072937314000000005,-44.34,1.8,-13.679998999999999
1554879983566,4.697566999999999,2.1931557999999995,8.322499,0.0025240954,-0.005053688,0.0036285396000000003,-44.04,2.28,-14.7
1554879983586,4.743058,2.2003386000000003,8.339259,0.008021882,-0.0032210925,-3.6651913e-05,-44.34,1.86,-15.299999
1554879983607,4.685596,2.2194927000000004,8.315316000000001,0.012908804,-0.004442823,0.0036285396000000003,-44.7,2.3999999,-15.0
1554879983626,4.6736245,2.1979442000000002,8.286585,0.011687073999999999,-0.001999362,0.0036285396000000003,-44.04,2.9399998,-13.86
1554879983646,4.680807,2.1787900000000002,8.2578535,0.008632747,-0.002610227,0.00057421334,-43.98,2.46,-13.799999
1554879983666,4.7071442999999995,2.1572416000000003,8.269825,0.0013023647,-0.0062754187,-0.0018692476,-44.579997999999996,1.86,-14.34
1554879983686,4.723904,2.1907616,8.291373,-0.0005302310500000001,-0.011773205,-0.004923574,-44.219997,2.58,-14.16
1554879983706,4.70475,2.2147042999999997,8.296163,0.0031349603,-0.00871888,-0.0067561697,-43.92,2.82,-14.519999499999999
1554879983727,4.6760187,2.205127,8.2578535,-0.0005302310500000001,-0.008108014,-0.0024801127,-44.46,2.34,-14.519999499999999
1554879983746,4.678413,2.1979442000000002,8.253065,-0.0023628268,-0.006886284,-0.0018692476,-45.239998,1.8,-14.88
1554879983767,4.6927786,2.2170985,8.284191,-0.0060280184,-0.004442823,-0.0018692476,-45.0,1.9799999,-16.02
1554879983786,4.6760187,2.2099156000000004,8.226728,-0.009082344000000001,0.0016658296,-0.0018692476,-44.64,2.7,-15.839998999999999
1554879983807,4.6951730000000005,2.1716073,8.245882,-0.010914938999999999,0.0059418865,-0.0030909781,-44.7,2.3999999,-15.12
1554879983826,4.6736245,2.1740015,8.28898,-0.015801862,0.0059418865,-3.6651913e-05,-44.219997,1.74,-14.88
1554879983847,4.640105,2.1668186,8.300951,-0.0127475355,0.011439673999999999,-3.6651913e-05,-44.16,2.04,-15.0
1554879983867,4.644893,2.1620302000000002,8.298556,-0.010914938999999999,0.0065527516,0.0024068089999999998,-44.52,2.34,-15.0
1554879983886,4.6712303,2.1883671000000002,8.315316000000001,-0.007860614,0.0022766949,0.0030176741999999998,-44.7,2.04,-14.82
1554879983906,4.697566999999999,2.19555,8.300951,-0.0060280184,-0.0007776314999999999,0.00485027,-44.64,1.92,-14.219999
1554879983926,4.7191157,2.1811842999999995,8.28898,-0.0023628268,-0.00016676621,0.0036285396000000003,-44.76,2.1,-14.4
1554879983947,4.697566999999999,2.1811842999999995,8.274613,-0.007249749000000001,-0.0007776314999999999,0.004239404600000001,-44.46,1.9799999,-14.519999499999999
1554879983966,4.70475,2.1883671000000002,8.310528,-0.007860614,-0.0013884967000000002,0.00485027,-44.46,1.68,-14.34
1554879983987,4.7095385,2.1979442000000002,8.310528,-0.007249749000000001,-0.0007776314999999999,0.0060720006,-44.879996999999996,1.9799999,-15.299999
1554879984006,4.6736245,2.1740015,8.308133,-0.004195423,-0.002610227,0.005461135400000001,-44.52,2.1,-14.46
1554879984026,4.678413,2.1787900000000002,8.303345,-0.0011410962,-0.001999362,0.0036285396000000003,-44.34,2.04,-14.519999499999999
1554879984046,4.702356,2.1668186,8.298556,-0.0035845571999999996,-0.005053688,0.00057421334,-44.52,1.5,-14.16
1554879984066,4.6999617,2.185973,8.28898,-0.0023628268,-0.002610227,0.00485027,-44.34,1.1999999,-13.5
1554879984086,4.7071442999999995,2.1811842999999995,8.279403,-0.0017519614000000001,-0.001999362,0.0030176741999999998,-44.7,2.1599998,-13.98
1554879984106,4.6927786,2.1835787,8.291373,-0.002973692,0.0022766949,0.0036285396000000003,-44.82,2.76,-14.639999
1554879984127,4.68799,2.176396,8.28898,-0.005417153,0.0059418865,0.0011850786,-44.399998,3.12,-15.12
1554879984146,4.697566999999999,2.1668186,8.293768,-0.007860614,0.0065527516,-0.00064751715,-43.98,3.48,-14.46
1554879984167,4.6927786,2.1716073,8.296163,-0.0060280184,0.0016658296,-0.0037018436,-43.68,2.9399998,-13.799999
1554879984187,4.70475,2.1572416000000003,8.303345,-0.005417153,0.0034984252000000004,-0.0037018436,-44.34,1.9799999,-14.4
1554879984206,4.6832013,2.169213,8.298556,-0.007860614,-0.00016676621,-0.0037018436,-44.219997,1.74,-14.7
1554879984226,4.3025117,2.248224,8.581081,0.0031349603,-0.03681868,0.005461135400000001,-44.34,2.3999999,-15.0
1554879984247,4.6496816,2.1117504,8.403905,8.0634214e-05,-0.014827532,0.00057421334,-44.399998,2.58,-15.12
1554879984266,4.7095385,2.0902019,8.332075999999999,-0.0005302310500000001,-0.014827532,-0.004923574,-44.219997,2.28,-15.12
1554879984286,4.6568646,2.1644243999999997,8.298556,0.00069149944,-0.0062754187,-0.0024801127,-44.52,2.46,-14.759998999999999
1554879984306,4.680807,2.1811842999999995,8.253065,-0.0023628268,0.0022766949,-0.0024801127,-44.52,2.6399999,-14.58
1554879984327,4.6712303,2.1668186,8.277008,-0.0011410962,-0.001999362,-3.6651913e-05,-44.76,2.7,-14.46
1554879984346,4.6688356,2.1740015,8.322499,-0.0005302310500000001,0.00044409905,-0.0012583825,-45.059998,2.6399999,-14.34
1554879984366,4.6760187,2.1596357999999998,8.296163,-0.0017519614000000001,0.00044409905,0.0017959438,-44.46,2.3999999,-14.16
1554879984386,4.678413,2.1644243999999997,8.284191,-0.0035845571999999996,0.00044409905,0.00057421334,-44.579997999999996,2.1,-14.4
1554879984406,4.6712303,2.1548474,8.28898,0.0013023647,-0.00016676621,-3.6651913e-05,-45.42,2.1599998,-15.0
1554879984427,4.6736245,2.176396,8.28898,-0.0005302310500000001,0.0016658296,0.00057421334,-44.82,2.58,-14.639999
1554879984446,4.6832013,2.1476645,8.286585,0.0013023647,-0.001999362,-0.0018692476,-44.64,2.22,-14.34
1554879984467,4.680807,2.1907616,8.310528,0.00069149944,-0.005053688,0.0011850786,-44.16,1.38,-13.799999
1554879984487,4.702356,2.1883671000000002,8.298556,-0.0011410962,-0.004442823,-0.0024801127,-44.16,1.5,-13.799999
1554879984506,4.6664414,2.1716073,8.279403,8.0634214e-05,-0.0056645535,-0.0018692476,-44.82,1.62,-14.759998999999999
1554879984526,4.6664414,2.1716073,8.284191,-0.0011410962,-0.007497149,-0.0043127090000000005,-44.579997999999996,1.5,-15.059999
1554879984547,4.6951730000000005,2.1668186,8.308133,-0.0011410962,-0.0056645535,0.00057421334,-45.0,1.92,-15.059999
1554879984566,4.6951730000000005,2.1716073,8.310528,0.00069149944,-0.009329746,-0.0018692476,-44.52,2.58,-14.639999
1554879984586,4.680807,2.2003386000000003,8.296163,0.0019132298999999999,-0.005053688,0.0036285396000000003,-44.28,2.6399999,-14.519999499999999
1554879984607,4.68799,2.185973,8.269825,8.0634214e-05,-0.001999362,0.0024068089999999998,-44.579997999999996,1.8,-14.639999
1554879984627,4.721509999999999,2.1620302000000002,8.284191,-0.0023628268,-0.0013884967000000002,-0.0024801127,-44.34,1.02,-14.58
1554879984646,4.721509999999999,2.1548474,8.300951,-0.004195423,0.0022766949,-0.0037018436,-44.7,1.1999999,-14.94
1554879984666,4.697566999999999,2.1883671000000002,8.308133,-0.0023628268,-0.00016676621,-0.007367035,-44.64,1.4399998999999999,-14.219999
1554879984686,4.6568646,2.185973,8.293768,-0.002973692,-0.00016676621,-0.0018692476,-44.64,2.04,-14.759998999999999
1554879984706,4.6640472,2.1811842999999995,8.308133,-0.0048062876000000004,0.0016658296,-3.6651913e-05,-44.579997999999996,2.82,-15.599998999999999
1554879984727,4.635316,2.1620302000000002,8.3129225,-0.0023628268,-0.002610227,0.00057421334,-44.28,2.6399999,-15.12
1554879984746,4.6568646,2.176396,8.308133,0.0013023647,-0.002610227,0.00057421334,-43.92,2.58,-14.7
1554879984767,4.659259,2.1835787,8.305738999999999,0.0043566907,-0.004442823,0.0060720006,-44.28,2.46,-14.58
1554879984786,4.685596,2.1668186,8.293768,0.00069149944,-0.005053688,0.006682866,-44.94,2.58,-15.12
1554879984807,4.702356,2.1716073,8.281796,-0.0011410962,-0.0032210925,0.0017959438,-44.64,2.34,-14.88
1554879984826,4.697566999999999,2.169213,8.277008,-0.0017519614000000001,-0.0038319575,-0.0012583825,-44.04,2.22,-14.759998999999999
1554879984847,4.7095385,2.1572416000000003,8.279403,-0.002973692,-0.0013884967000000002,0.00057421334,-44.04,2.3999999,-14.519999499999999
1554879984866,4.702356,2.1811842999999995,8.291373,-0.002973692,-0.002610227,-0.0024801127,-44.16,2.04,-15.059999
1554879984887,4.6951730000000005,2.1548474,8.28898,-0.0066388836,-0.002610227,-0.00064751715,-43.8,2.04,-15.059999
1554879984906,4.661653,2.169213,8.274613,-0.0023628268,-0.002610227,-0.0067561697,-44.1,2.1,-14.519999499999999
1554879984927,4.661653,2.1835787,8.293768,-0.0017519614000000001,-0.004442823,-0.0018692476,-44.76,1.8,-14.82
1554879984947,4.661653,2.1907616,8.317711,-0.0011410962,-0.005053688,-3.6651913e-05,-44.76,1.9799999,-14.7
1554879984967,4.644893,2.19555,8.327288000000001,0.0013023647,-0.00016676621,0.00485027,-44.399998,2.76,-14.759998999999999
1554879984986,4.6568646,2.185973,8.296163,-0.0005302310500000001,-0.0013884967000000002,0.004239404600000001,-44.94,2.04,-14.46
1554879985007,4.6664414,2.176396,8.298556,-0.002973692,-0.0007776314999999999,0.005461135400000001,-44.94,1.14,-13.92
1554879985026,4.678413,2.1716073,8.305738999999999,-0.0011410962,-0.0038319575,0.0024068089999999998,-44.52,1.9799999,-14.099998999999999
1554879985047,4.680807,2.176396,8.300951,-0.0005302310500000001,0.00044409905,0.0036285396000000003,-44.28,2.34,-13.44
1554879985066,4.70475,2.185973,8.317711,0.0019132298999999999,-0.005053688,0.0030176741999999998,-44.399998,1.86,-12.54
1554879985086,4.6903844,2.1620302000000002,8.291373,-0.0017519614000000001,-0.0038319575,0.0017959438,-44.1,1.74,-12.24
1554879985106,4.7095385,2.1811842999999995,8.279403,-0.002973692,-0.0013884967000000002,0.00485027,-43.8,1.62,-12.96
1554879985126,4.7191157,2.1716073,8.291373,-0.0023628268,-0.0032210925,0.0011850786,-44.34,1.86,-14.099998999999999
1554879985147,4.7095385,2.1716073,8.284191,-0.004195423,-0.004442823,0.00057421334,-44.46,2.1599998,-13.2
1554879985166,4.7334814000000005,2.1596357999999998,8.279403,-0.007249749000000001,-0.0038319575,-0.0012583825,-44.28,2.04,-13.08
1554879985186,4.757423999999999,2.1596357999999998,8.329682,-0.0066388836,-0.012384071000000002,-0.00064751715,-44.28,1.86,-13.74
1554879985206,4.810098,2.1979442000000002,8.379961999999999,0.0025240954,-0.03437522,0.013402384,-44.76,2.1599998,-14.4
1554879985226,4.807704,2.2099156000000004,8.391933,0.017795727,-0.06614021,0.023176227,-44.7,2.52,-15.36
1554879985246,4.7334814000000005,2.152453,8.269825,0.02756957,-0.10401385,0.037836995,-44.399998,2.46,-14.7
1554879985266,4.723904,2.152453,8.255460000000001,0.03001303,-0.11500943,0.040280454,-44.399998,2.58,-14.099998999999999
1554879985286,4.680807,2.205127,8.322499,0.052615043,-0.12050722,0.058606412000000004,-44.879996999999996,2.46,-13.98
1554879985306,4.5491223,2.2147042999999997,8.415875999999999,0.06849754599999999,-0.14372009,0.07693236,-44.82,3.12,-13.62
1554879985326,4.3911,2.1380875,8.372779,0.07521705,-0.15349394,0.07754324,-45.12,2.9399998,-13.92
1554879985346,4.436591,2.0614705,8.334471,0.06727581,-0.14738528,0.056773815,-45.12,2.46,-13.679998999999999
1554879985366,4.5012364,2.0854135,8.413482,0.055058505,-0.1614352,0.03050661,-44.46,2.46,-14.099998999999999
1554879985386,4.608979,2.1045675,8.3679905,0.04772812,-0.20053056,0.010958922,-44.1,2.3999999,-14.34
1554879985406,4.6736245,2.1309047000000003,8.3129225,0.045284662,-0.22618690000000002,-0.006145304,-43.98,2.1599998,-13.019999499999999
1554879985427,4.8340406,2.2314641,8.22194,0.053836777999999995,-0.23962595,-0.005534439,-44.7,1.9799999,-13.019999499999999
1554879985446,4.996851400000001,2.2506182,8.05434,0.060556293,-0.24817805,-0.004923574,-45.3,2.52,-13.799999
1554879985467,5.087834,2.3056867000000003,8.020821,0.062999755,-0.23229556,-0.0018692476,-45.18,2.9399998,-13.559999
1554879985486,5.1644505999999994,2.2937152000000003,7.970541000000001,0.06361062,-0.22007824,0.0036285396000000003,-45.18,2.82,-13.2
1554879985506,5.219519,2.2937152000000003,7.922655000000001,0.05811283,-0.19197845,0.00057421334,-45.0,3.0,-13.259998999999999
1554879985526,5.219519,2.3152637,7.905895,0.041619472000000005,-0.16265692,-0.014086553,-44.879996999999996,3.0,-12.84
1554879985547,5.195576,2.351178,7.908289999999999,0.030623896,-0.1382223,-0.01958434,-44.879996999999996,2.28,-12.42
1554879985566,5.2314906,2.3583608,7.865193,0.021460919,-0.116231166,-0.030579912999999997,-45.0,2.22,-12.36
1554879985586,5.334444,2.3775147999999997,7.802942,0.007411017,-0.07896838,-0.031190779,-45.059998,2.52,-12.12
1554879985606,5.506832,2.3775147999999997,7.609005499999999,-0.016412728,-0.028266568,-0.041575488,-44.219997,2.34,-10.8
1554879985626,5.6337285,2.3032923,7.563514,-0.05245378,0.037096012000000005,-0.05440366,-44.64,1.92,-10.86
1554879985646,5.643306,2.2266755000000003,7.549148599999999,-0.08299704,0.08596523,-0.07150788599999999,-45.059998,1.92,-11.94
1554879985666,5.576266,2.152453,7.625765299999999,-0.10071213,0.12628233,-0.07578394599999999,-44.94,1.92,-12.48
1554879985686,5.4565525,2.1117504,7.728719,-0.10315559,0.1586582,-0.07395135,-45.0,1.86,-12.96
1554879985706,5.3440213,2.1644243999999997,7.85801,-0.09032743,0.18675799999999998,-0.061734042999999995,-45.12,2.34,-12.9
1554879985726,5.193182,2.2362528,8.004061,-0.062227618,0.19714272,-0.042186357,-44.879996999999996,2.3999999,-13.08
1554879985746,5.0662856,2.2554069,8.063917,-0.04939945,0.21058173,-0.023860397000000002,-44.7,2.3999999,-13.139999
1554879985766,4.98488,2.2458298,8.061523,-0.03901474,0.218523,-0.005534439,-44.82,2.1599998,-12.66
1554879985787,4.846012,2.2721667,8.188419999999999,-0.035960413999999996,0.241125,0.0121806525,-44.82,1.56,-12.599999
1554879985806,4.824464,2.2578009999999997,8.140533999999999,-0.03901474,0.24601193,0.0140132485,-45.12,1.9799999,-13.2
1554879985826,4.759818599999999,2.2530127,8.178842999999999,-0.05184291,0.25822923,0.007904597,-44.64,2.04,-12.84
1554879985846,4.6832013,2.2506182,8.253065,-0.061616755999999995,0.26006183,0.00485027,-44.52,1.56,-12.719999000000001
1554879985867,4.63771,2.2123098,8.358414,-0.06406022,0.25822923,0.00057421334,-44.64,1.62,-13.019999499999999
1554879985886,4.640105,2.2123098,8.382356,-0.06344935,0.24540105,0.00485027,-44.399998,1.74,-12.66
