TimeStamp,Ax,Ay,Az,Gx,Gy,Gz,Mx,My,Mz
1554877944196,-0.5554718000000001,9.725544000000001,1.0678465,-0.019360151000000003,-0.053371295,-0.017308256,-7.3199997,-28.019999,-32.34
1554877944217,-0.56265455,9.749487,1.0726352,-0.019971019,-0.049095243,-0.015475661000000002,-7.08,-28.019999,-30.84
1554877944237,-0.5027977,9.773430000000001,1.063058,-0.02607967,-0.05398216,-0.016086523999999998,-7.08,-28.32,-30.539998999999998
1554877944256,-0.48364350000000006,9.754275,1.0606636999999999,-0.037686113,-0.060090814000000006,-0.012421334,-8.04,-28.08,-32.34
1554877944276,-0.46927786,9.73991,0.9984126,-0.050514277,-0.0674212,-0.012421334,-7.8599997,-27.84,-32.64
1554877944296,-0.46688359999999995,9.759064,0.9792584000000001,-0.06212072,-0.06253427,-0.013643065,-7.3799996,-27.96,-32.28
1554877944316,-0.47885495,9.75667,1.0415094999999999,-0.06639677,-0.069253795,-0.018529985,-8.099999,-27.72,-32.52
1554877944337,-0.5458947,9.751882,1.0678465,-0.06761850400000001,-0.063756004,-0.016697392,-7.62,-27.84,-31.679997999999998
1554877944356,-0.5506831999999999,9.75667,1.0343267,-0.07006197,-0.068032056,-0.018529985,-7.62,-27.84,-31.679997999999998
1554877944376,-0.56265455,9.747093,1.010384,-0.08289014,-0.07780591,-0.016086523999999998,-8.22,-27.42,-32.46
1554877944397,-0.5243462,9.749487,1.0558752,-0.08289014,-0.10040792,-0.016086523999999998,-8.099999,-27.72,-32.579997999999996
1554877944417,-0.5219519,9.747093,1.0295382,-0.07739235,-0.116901286,-0.012421334,-8.04,-27.9,-32.219997
1554877944436,-0.61293435,9.730332,1.0343267,-0.07739235,-0.12972945,-0.014864795,-8.16,-28.019999,-31.5
1554877944456,-0.57223165,9.735122,1.132492,-0.07983581,-0.14744455,-0.017919121,-8.28,-27.72,-32.16
1554877944476,-0.5123747999999999,9.672871,1.0989721000000001,-0.080446675,-0.14805539999999998,-0.034412485,-7.7999997,-27.119999,-31.92
1554877944497,-0.531529,9.665688000000001,1.0917894,-0.103659555,-0.16149445,-0.05823623,-7.62,-26.82,-31.56
1554877944517,-0.51955765,9.651321000000001,1.1971374,-0.11832032,-0.18104213,-0.06617747,-7.98,-26.76,-31.92
1554877944536,-0.50998056,9.624985,1.350371,-0.119542055,-0.20303328,-0.062512286,-8.28,-26.939999,-32.219997
1554877944556,-0.37829542,9.605830000000001,1.3934678999999999,-0.1348137,-0.23663087,-0.048462383,-8.88,-27.24,-32.64
1554877944576,-0.36632404,9.577099,1.2522057,-0.17635253,-0.21952665,-0.017919121,-9.179999,-27.359999,-32.579997999999996
1554877944596,-0.31843856,9.500483000000001,1.3264283000000001,-0.25515413,-0.16821396,0.013845872,-8.88,-27.0,-32.52
1554877944617,-0.29928434,9.366403,1.5012103,-0.3858793,-0.18837251,0.06332596,-9.179999,-26.88,-32.28
1554877944636,-0.32801566,9.205987,1.8747171000000002,-0.45796138,-0.22930048,0.12074729,-9.599999,-27.119999,-32.16
1554877944656,-0.46209505,9.184438,1.6999351000000003,-0.54103905,-0.22868963,0.1592318,-9.42,-26.4,-32.34
1554877944677,-0.63208854,9.107821000000001,1.7166951000000001,-0.5905191999999999,-0.17371175,0.16534045,-9.66,-25.98,-32.64
1554877944697,-0.5411060999999999,9.239507000000001,2.3368123,-0.58990824,-0.12239907,0.15556660000000003,-9.12,-25.92,-31.92
1554877944716,-0.4956149,9.699207000000001,2.6600394,-0.4982785,-0.13705982,0.14640363,-8.639999000000001,-25.74,-30.96
1554877944739,-0.28970724,10.039194,2.9210152999999996,-0.39137706,-0.17187916,0.13540804,-9.599999,-25.439999,-30.9
1554877944756,0.102953814,10.10384,2.988055,-0.26126277,-0.20486587,0.121969014,-9.84,-24.72,-31.98
1554877944779,0.34477556,10.1206,2.8156672,-0.10915734,-0.18287472,0.088371426,-9.54,-24.6,-32.82
1554877944796,0.34956414,10.015251,2.6456738,0.013626571,-0.06436687,0.06454768,-9.0,-24.72,-32.1
1554877944816,0.0047885496,9.842864,2.7031362,0.12174971400000001,0.033371568,0.022397986,-9.179999,-24.66,-31.38
1554877944837,-0.37829542,9.672871,2.4469488,0.25797266,0.090182036,-0.020973448,-9.9,-24.48,-31.439999
1554877944857,-0.6440599,9.519637,2.2769554,0.29523546,0.10972972,-0.044797193,-9.42,-25.14,-31.5
1554877944876,-0.9194015,9.340066,2.2027327999999997,0.2787421,0.11583838,-0.064344876,-9.42,-25.5,-32.52
1554877944896,-0.9864412,9.234717999999999,2.011191,0.24086843,0.12316876,-0.078394786,-10.32,-24.72,-33.6
1554877944917,-0.9217958,9.222747,1.8459859,0.17550586,0.14882511,-0.09488814,-10.26,-24.6,-33.12
1554877944937,-0.6847626,9.330489,1.8196488999999998,0.11380847,0.17020538,-0.09672074,-9.66,-24.96,-32.88
1554877944957,-0.5650489000000001,9.531608,1.8771113999999998,0.05088935,0.17203797,-0.08205997,-9.599999,-25.14,-32.219997
1554877944976,-0.2681588,9.565128,2.0351336,-0.005921116999999999,0.15615548,-0.052127574,-9.96,-24.84,-31.98
1554877944997,-0.27294734,9.725544000000001,2.126116,-0.035853516,0.11706010000000001,-0.01425393,-9.9,-25.199999,-33.3
1554877945017,-0.30646718,9.718361999999999,2.1141446,-0.05417947,0.10117761,0.018732794,-9.599999,-25.5,-33.84
1554877945036,-0.36392978,9.617802000000001,2.020768,-0.07617062,0.10728626,0.037669617999999995,-9.42,-24.96,-33.66
1554877945057,-0.46209505,9.682447,1.9106313000000001,-0.09571831,0.11950357,0.053552113,-8.76,-25.199999,-32.82
1554877945077,-0.5363176,9.75667,1.9034485,-0.10610302,0.12744482,0.06393682,-8.58,-25.08,-32.7
1554877945097,-0.6153286,9.677659,1.9417567999999998,-0.073116295,0.10728626,0.06515855,-9.0,-24.6,-33.239998
1554877945116,-0.68715686,9.608225,2.0614705,-0.0273014,0.082851656,0.058439035,-9.3,-24.84,-33.239998
1554877945136,-0.8140534,9.615408,2.0878077,0.013015706,0.078575596,0.03583702,-9.66,-24.84,-33.3
1554877945157,-0.8379962,9.72315,2.1069617000000003,0.03683945,0.05780618,0.00040683625,-9.42,-24.359999,-33.3
1554877945177,-0.71828246,9.754275,2.1069617000000003,0.03806118,0.030928109,-0.04235373,-8.46,-24.539998999999998,-33.12
1554877945197,-0.79250497,9.718361999999999,2.0231621,0.047835025999999996,0.009547824,-0.062512286,-8.519999499999999,-24.779999,-33.54
1554877945216,-0.82602483,9.735122,1.8459859,0.04233724,0.008936958,-0.06373401,-9.48,-24.779999,-33.96
1554877945237,-0.6296943,9.629773,1.9178141,0.019124359,0.007104363000000001,-0.05823623,-9.24,-24.18,-34.2
1554877945257,-0.505192,9.500483000000001,2.0183737,0.017291763999999998,-0.013665055,-0.047851517999999996,-8.7,-24.42,-33.48
1554877945277,-0.5506831999999999,9.524425500000001,2.0159793,0.019735225,-0.027714957000000002,-0.029525561000000002,-8.46,-25.199999,-32.04
1554877945297,-0.50998056,9.58907,2.0159793,0.016070031999999998,-0.026493225,-0.009367007,-8.639999000000001,-24.6,-32.76
1554877945316,-0.4070267,9.636956,1.9561224999999998,0.015459167,-0.0038912115,-0.008145277,-8.28,-24.84,-33.239998
1554877945337,-0.27294734,9.63935,1.9513340000000001,0.0020201313,0.017489071999999998,-0.025249504,-7.98,-24.96,-33.42
1554877945357,-0.39026679999999997,9.730332,1.9561224999999998,-0.012640635,0.0052717673,-0.018529985,-8.76,-24.6,-34.14
1554877945376,-0.38547826,9.603436,1.8555629,-0.029133997999999998,-0.01183246,-0.017919121,-8.94,-25.08,-33.48
1554877945397,-0.45012367,9.586677,1.8148602999999999,-0.032188322000000005,-0.013665055,-0.013032199,-8.88,-25.14,-33.3
1554877945417,-0.5411060999999999,9.567522,1.7502148999999998,-0.03524265,0.007715228,-0.0069235469999999995,-9.059999000000001,-24.9,-33.84
1554877945437,-0.5219519,9.481328,1.8747171000000002,-0.023025342999999997,0.032760706,-0.011199603,-8.82,-24.84,-34.26
1554877945456,-0.35914123,9.555551,1.9896424,0.008739648000000001,0.045588872999999995,-0.020973448,-8.76,-24.84,-34.26
1554877945476,-0.31843856,9.644139,1.9513340000000001,0.018513493,0.052919254000000006,-0.021584312999999997,-8.88,-25.14,-33.6
1554877945497,-0.22506183,9.584282,1.9441511999999999,0.037450317000000004,0.08407339,-0.041132,-8.94,-24.9,-32.88
1554877945516,-0.28013015,9.617802000000001,1.9752767,0.06432839,0.13538606,-0.06373401,-8.639999000000001,-24.66,-33.54
1554877945537,-0.35914123,9.569917,2.0064023,0.07410223,0.15798809,-0.075951315,-8.58,-25.019999,-34.079997999999996
1554877945556,-0.5865973000000001,9.624985,2.0854135,0.08387607,0.15982068,-0.07228612,-8.82,-25.38,-34.02
1554877945576,-0.7685622,9.778217999999999,2.0351336,0.08265434,0.15310115,-0.064344876,-8.4,-26.039998999999998,-33.6
1554877945596,-0.7709564999999999,9.706389999999999,1.9992193999999999,0.07654569,0.16043153,-0.06373401,-8.22,-26.34,-33.66
1554877945616,-0.82123625,9.610619999999999,2.0351336,0.073491365,0.16226412,-0.06984267,-8.4,-25.56,-34.14
1554877945637,-0.8882760000000001,9.562733999999999,1.9944308999999998,0.07226964,0.15004683,-0.068620935,-8.22,-24.84,-33.96
1554877945656,-0.8978530999999998,9.505271,1.9154198,0.06677185,0.115227506,-0.06984267,-8.28,-25.08,-33.66
1554877945676,-0.84278476,9.536397000000001,1.8172544999999998,0.06005233,0.09995588,-0.07961651,-8.34,-25.5,-33.719997
1554877945697,-0.74701375,9.608225,1.8459859,0.06127406,0.08040819,-0.10649458,-7.3199997,-25.56,-32.34
1554877945717,-0.8571504000000001,9.699207000000001,1.7526091000000001,0.063106656,0.07063434,-0.14375736,-6.72,-25.56,-31.26
1554877945737,-1.010384,9.593859,1.908237,0.0710479,0.07185608,-0.14986601,-6.66,-25.74,-32.04
1554877945757,-0.90982443,9.636956,1.7262721,0.058219735,0.13172087,-0.14375736,-6.6,-25.92,-31.74
1554877945777,-1.0534808999999998,9.63935,1.8651401,0.059441462,0.11950357,-0.16697024,-6.8999996,-26.039998999999998,-32.94
1554877945797,-1.175589,9.945818,1.5826156,0.048445888,0.15982068,-0.17063543,-6.8999996,-26.22,-33.239998
1554877945816,-1.1947431999999998,9.893144,1.5921928,0.03561772,0.13905126,-0.17491148,-6.3599997,-26.46,-32.52
1554877945837,-1.0917894,9.840469,1.9010541,0.04050464,0.15371202,-0.16941370000000003,-6.6,-26.699999,-33.0
1554877945856,-0.9241901,9.828498,2.1452703,0.0710479,0.1805901,-0.16697024,-6.8999996,-26.58,-32.82
1554877945877,-0.9313729,9.830893,2.205127,0.13335615,0.14760336,-0.18040927,-6.3599997,-26.82,-33.239998
1554877945896,-1.0558752,9.960183,1.8795058,0.16817547,0.09812328,-0.19445919,-5.7599998,-26.699999,-33.18
1554877945916,-0.9816527,9.742303999999999,1.673598,0.1571799,0.10117761,-0.1889614,-5.7,-26.34,-32.28
1554877945937,-1.498816,9.790189999999999,1.5562786,0.11808453,0.04742147,-0.17857668,-6.12,-26.699999,-32.219997
1554877945956,-1.4916332,9.708784,1.6520496999999998,0.10525636,0.08529511,-0.15597467,-5.64,-27.0,-32.82
1554877945977,-1.5036045,9.682447,1.812466,0.09181732,0.09873415,-0.13703784,-5.16,-26.88,-32.16
1554877945997,-1.5371244,9.349642999999999,1.9130256,0.08998472,0.046810605,-0.09000122,-5.2799997,-26.699999,-31.74
1554877946017,-1.7119064,9.105427,1.7023293999999998,0.060663197,0.032149836,-0.033801615,-5.3399997,-26.699999,-32.76
1554877946037,-1.7214836,8.861211,1.6688095,0.049667623,0.033371568,0.02545231,-4.74,-26.699999,-33.719997
1554877946057,-1.5658557,8.875577,1.5706443,0.058219735,0.0028283063,0.06454768,-4.62,-26.88,-33.66
1554877946077,-1.4293821000000002,8.956982,1.3192455,0.08387607,-0.033212744,0.11219518,-5.1,-26.58,-33.3
1554877946097,-1.2761483999999998,8.9186735,0.9672870000000001,0.089373864,-0.042986587,0.18000121,-5.22,-27.539998999999998,-33.18
1554877946117,-1.2043202,9.124581,0.7901106999999999,0.059441462,-0.02221717,0.21726399999999998,-5.3399997,-28.38,-32.64
1554877946137,-1.1109436000000001,9.450203,0.818842,0.019124359,0.008326094000000001,0.22459437,-5.64,-27.779999,-33.0
1554877946156,-1.0223553,9.967366,1.0271438,-0.02852313,0.07552127,0.2050467,-6.12,-27.779999,-33.54
1554877946176,-0.97446984,10.202005,1.5371244,-0.043794762,0.09201463,0.21420968,-6.24,-27.72,-33.18
1554877946197,-1.0941836,10.225947,1.8579572,-0.021192746000000002,0.0016065756,0.2276487,-6.12,-27.599998,-33.36
1554877946216,-1.5227587,10.106233999999999,2.0231621,-0.0022559254,-0.15844013,0.2594137,-5.94,-27.3,-32.88
1554877946237,-1.6855695,9.672871,1.8220432,0.0032418616999999998,-0.22135924,0.2734636,-6.06,-27.0,-32.88
1554877946257,-1.8962656000000002,9.141341,1.3120626,-0.073116295,-0.24762645,0.22215092,-6.2999997,-26.34,-33.6
1554877946277,-1.9633054,9.136553,0.9313729,-0.21056098,-0.17187916,0.11158431,-6.54,-26.4,-33.78
1554877946297,-1.1779832000000001,9.165284,1.1468576000000001,-0.3614447,-0.09613187,-0.047851517999999996,-6.8999996,-26.58,-33.719997
1554877946317,-0.16041641,9.189227,1.5227587,-0.43658109999999994,-0.11079263,-0.16330506,-7.2,-26.46,-33.84
1554877946336,0.52674043,9.668080999999999,1.7789462,-0.51110667,-0.17004655,-0.19995697,-7.259999799999999,-26.82,-33.78
1554877946357,0.22745611,10.489317999999999,2.631308,-0.45673966,-0.23601999999999998,-0.09122296,-7.3199997,-25.92,-33.78
1554877946376,-0.50758624,10.666494,3.0215747000000004,-0.16657868,-0.23601999999999998,0.09203662,-7.259999799999999,-25.08,-33.239998
1554877946396,-0.82123625,10.309747999999999,2.1285102000000005,0.070437044,-0.104073115,0.19649458,-6.8999996,-25.199999,-33.0
1554877946417,-0.5411060999999999,9.457385,1.6017698,0.18711229999999998,0.095068954,0.22887044,-6.66,-25.199999,-33.239998
1554877946437,-0.035914123,9.088667,1.5036045,0.1730624,0.2190746,0.1909968,-7.259999799999999,-25.5,-33.0
1554877946457,0.57223165,9.126975999999999,1.9944308999999998,0.119917125,0.23007017,0.13785152,-7.56,-25.56,-33.3
1554877946476,0.90982443,9.411894,2.2123098,0.07654569,0.0926255,0.08287364,-7.259999799999999,-25.619999,-33.48
1554877946496,0.016759925,9.557945,1.9656997,0.039893776,-0.0045020767,0.055995576,-7.5,-25.859999,-33.66
1554877946518,-0.21787901,9.967366,1.6664151999999999,0.02401128,0.041312817,0.014456736999999999,-7.68,-25.74,-33.84
1554877946537,-0.6201171999999999,10.032011,1.5562786,0.036228586,0.1207253,-0.00020402900000000002,-6.8399997,-25.8,-32.7
1554877946556,-0.59378016,9.766247,1.664021,0.020956952,0.23007017,-0.005701816,-6.48,-25.74,-32.46
1554877946577,-0.48364350000000006,9.435837,1.9130256,-0.0022559254,0.26672209999999996,0.007737219300000001,-6.8399997,-25.5,-33.239998
1554877946596,-0.47406640000000005,9.304152,1.9992193999999999,-0.016305827,0.26366776,0.038280483,-6.6,-25.68,-33.899998
1554877946617,-0.46209505,9.433442999999999,2.0087965,-0.004699386,0.22701585,0.0712672,-6.3599997,-26.22,-34.14
1554877946636,-0.37829542,9.500483000000001,1.8172544999999998,0.017902628,0.17997923,0.08165192,-5.8199997,-26.58,-33.42
1554877946656,-0.45730647,9.644139,1.6903580000000002,0.033785127000000005,0.13049914,0.07676499,-5.94,-26.279999,-33.3
1554877946677,-0.49800915,9.742303999999999,1.6664151999999999,0.019735225,0.07307781,0.05416298,-6.54,-26.16,-33.36
1554877946696,-0.5363176,9.744699,1.6257126,-0.009586308,0.029095512,0.031560965,-6.12,-25.74,-33.78
1554877946717,-0.6153286,9.873989,1.7382435,-0.00042332962,0.03948022,-0.0099778725,-5.4,-25.74,-33.36
1554877946736,-0.5794145,9.577099,1.7430321,0.016070031999999998,0.06635829,-0.021584312999999997,-5.52,-26.039998999999998,-32.04
1554877946756,-0.47406640000000005,9.598647999999999,1.6688095,0.026454741,0.10423193,-0.028914696,-5.64,-25.859999,-31.5
1554877946776,-0.38308397,9.627379,1.7789462,0.04722416,0.15126856,-0.028914696,-6.12,-25.8,-32.82
1554877946796,-0.31843856,9.694419,1.924997,0.08326521,0.14454904,-0.031969022,-6.48,-25.26,-34.38
1554877946817,-0.33759275,9.687236,1.9010541,0.12052799,0.12866655,-0.02586037,-6.24,-25.92,-34.62
1554877946836,-0.38787252,9.665688000000001,1.7789462,0.1290801,0.115227506,-0.027082099999999998,-5.8199997,-26.64,-33.899998
1554877946857,-0.45012367,9.613013,1.7238779,0.11441933,0.12805568,-0.030136427,-5.64,-26.699999,-33.78
1554877946876,-0.4070267,9.63935,1.7023293999999998,0.10159116,0.16226412,-0.04601892,-5.7599998,-26.58,-34.2
1554877946896,-0.4070267,9.636956,1.6807808999999998,0.08570867,0.20135951,-0.064344876,-5.64,-26.34,-33.6
1554877946916,-0.28252444,9.629773,1.8435916,0.07654569,0.2209072,-0.07045353,-5.8199997,-26.4,-33.899998
1554877946936,-0.28731298,9.617802000000001,1.7430321,0.092428185,0.22457239,-0.072896995,-5.8799996,-26.4,-33.96
1554877946956,-0.27294734,9.617802000000001,1.7502148999999998,0.11441933,0.24350922,-0.06739921,-5.46,-26.279999,-33.719997
1554877946976,-0.2681588,9.584282,1.7238779,0.14129741,0.24473093,-0.054571035999999996,-4.68,-26.46,-33.66
1554877946997,-0.31125572,9.445414999999999,1.7382435,0.1712298,0.24961786,-0.053349305,-4.2,-26.46,-33.0
1554877947017,-0.30407290000000003,9.390346000000001,1.7286664,0.19322094,0.26244605,-0.07167526,-4.38,-26.279999,-33.84
1554877947037,-0.28491869999999997,9.4095,1.5059988000000002,0.18161452,0.28626978,-0.0991642,-4.74,-26.82,-33.899998
1554877947057,-0.29689008,9.512454,1.4652961000000002,0.13946481,0.28382632,-0.10038593400000001,-4.14,-26.76,-32.46
1554877947076,-0.46209505,9.474146000000001,1.2665714,0.09303906,0.27405247,-0.07534046,-3.78,-27.119999,-33.48
1554877947096,-0.6751855,9.361614,1.0439038,-0.0034776558000000003,0.2783285,-0.027082099999999998,-3.8999998999999996,-27.42,-34.14
1554877947116,-0.8379962,9.320911,0.9481328000000001,-0.09144225,0.30215228,0.029117502000000003,-3.48,-26.939999,-33.96
1554877947137,-1.1708003,9.45978,1.0893950000000001,-0.18246117,0.32841950000000003,0.07859759,-3.6,-27.06,-34.38
1554877947157,-1.6257126,9.953,1.472479,-0.25454327,0.35224320000000003,0.10669739,-3.24,-27.24,-34.26
1554877947177,-1.7597919999999998,10.008069,1.8890828000000002,-0.27836700000000003,0.35102150000000004,0.13418633,-2.76,-26.88,-33.96
1554877947197,-1.6041641000000002,9.809344,2.185973,-0.26614973,0.2526722,0.15251228,-2.6399999,-26.82,-34.02
1554877947217,-1.2282629999999999,10.000886,2.1979442000000002,-0.20323059,0.033982433,0.16289699,-2.3999999,-27.24,-34.26
1554877947236,-0.92658436,9.93624,1.8627458,-0.12687244,-0.14011417,0.15862094,-2.46,-26.88,-34.2
1554877947257,-0.9074302,9.833286,1.3024855,-0.029744862,-0.15233147,0.09753441,-2.9399998,-27.0,-33.96
1554877947277,-0.9984126,9.845258,1.3024855,0.06616098,-0.042986587,0.01934366,-3.0,-26.82,-34.14
1554877947296,-1.2569941999999998,9.924269,1.5395187,0.1553473,0.037647624,-0.054571035999999996,-2.9399998,-26.039998999999998,-34.62
1554877947316,-1.4269878,9.814133,1.5850098999999997,0.25797266,0.077353865,-0.09061208,-2.9399998,-26.22,-34.86
1554877947337,-1.5538843999999998,9.560339,1.4605076000000001,0.3343308,0.081629924,-0.109548904,-2.34,-26.34,-34.5
1554877947357,-1.6496553,9.318518,1.1827718,0.36059803,0.08040819,-0.116268426,-2.34,-26.699999,-33.18
1554877947377,-1.5921928,9.306546,1.0008069,0.3343308,0.107897125,-0.1254314,-2.6399999,-27.18,-32.7
1554877947396,-1.4868447,9.4142885,0.9984126,0.29218113,0.11156232,-0.12298795,-2.46,-27.06,-33.66
1554877947416,-1.3192455,9.603436,1.0654523,0.2365924,0.09201463,-0.09977506,-2.1,-27.119999,-33.78
1554877947437,-1.2761483999999998,9.766247,1.0678465,0.15840162,0.078575596,-0.04540806,-2.3999999,-27.0,-33.48
1554877947456,-1.2186858999999999,9.80695,1.0151725,0.08448694,0.077353865,-0.008756143000000001,-2.82,-27.24,-33.66
1554877947476,-1.0415094999999999,9.735122,1.0870007,-0.08594447,0.077353865,0.038280483,-2.46,-28.5,-32.399998
1554877947497,-0.9385556999999999,9.656111,1.3743136999999999,-0.201398,0.05414099,0.045,-1.9799999,-28.019999,-32.88
1554877947517,-1.1612233,9.727939,1.5179702,-0.23743904,0.004660902,0.058439035,-2.28,-27.9,-33.719997
1554877947536,-1.3383996,9.742303999999999,1.3216397,-0.2520998,-0.01305419,0.09264749,-2.6399999,-27.72,-33.66
1554877947557,-1.2905141000000002,10.067925,1.0271438,-0.24049337,-0.014886786,0.11952556,-2.82,-27.539998999999998,-33.719997
1554877947576,-1.2186858999999999,10.125388000000001,1.1277034,-0.15802656,-0.06253427,0.11952556,-2.04,-27.779999,-33.78
1554877947596,-1.1133378,10.041589,1.3120626,-0.030966592999999997,-0.15966184,0.09509095,-1.62,-26.82,-33.96
1554877947617,-1.1731946000000002,9.962578,1.2593886,0.124193184,-0.30565864,0.05416298,-1.8,-26.82,-33.899998
1554877947636,-1.1420691,9.811738,0.9912298,0.18711229999999998,-0.37407556,0.016289333,-2.04,-27.119999,-33.84
1554877947656,-1.0439038,9.58907,0.7853220999999999,0.19383182,-0.36735603,-0.036245078,-2.22,-27.48,-34.079997999999996
1554877947677,-0.9289786,9.438231,0.7805335999999999,0.16817547,-0.32031938,-0.09549901,-1.92,-27.84,-33.059998
1554877947697,-0.88109314,9.478933999999999,0.9624985,0.15351471,-0.31176729999999997,-0.14192475,-2.58,-27.42,-33.3
1554877947717,-0.90503585,9.601042,1.0726352,0.14435174,-0.32826066,-0.15108773,-3.06,-27.539998999999998,-33.48
1554877947736,-0.90024734,9.627379,1.0893950000000001,0.115641065,-0.32642806,-0.12909658,-2.8799999,-28.619999,-31.5
1554877947756,-0.83081335,9.569917,1.0702409,0.053332813,-0.27633709999999995,-0.10099679,-2.82,-28.74,-31.32
1554877947779,-0.72546524,9.584282,1.0846065,-0.023025342999999997,-0.20242241,-0.07167526,-2.76,-28.5,-31.5
1554877947796,-0.53392327,9.668080999999999,1.1995316999999999,-0.103659555,-0.11445782,-0.02586037,-3.36,-28.68,-31.859999
1554877947817,-0.37829542,9.732727,1.4221992,-0.15069619,-0.058258217,0.029117502000000003,-3.24,-28.08,-32.219997
1554877947837,-0.3423813,9.72315,1.5083932,-0.15008532,-0.055203892000000004,0.07065634400000001,-3.48,-27.18,-31.619999
1554877947857,-0.44772938,9.785401,1.5347302,-0.12137465,-0.05276043,0.10486479,-3.78,-27.0,-31.619999
1554877947877,-0.5794145,9.890749000000001,1.4365649,-0.08655533,-0.017330248,0.11524951,-3.4199998,-27.3,-31.56
1554877947896,-0.70870537,9.907509,1.4150163999999998,-0.037686113,0.05353012,0.10608652,-3.84,-27.359999,-31.92
1554877947916,-0.8356019,9.797373,1.3791022,0.0075179185,0.112173185,0.07859759,-4.68,-27.359999,-32.82
1554877947936,-0.90982443,9.651321000000001,1.2737542,0.043558966,0.12500136,0.044389132000000005,-4.3199997,-27.48,-33.239998
1554877947957,-0.99362403,9.605830000000001,1.1899546,0.070437044,0.112173185,0.012624141,-3.54,-27.359999,-33.42
1554877947977,-1.1300976999999999,9.694419,1.0606636999999999,0.09181732,0.10301021,-0.019751716000000002,-3.72,-27.48,-33.18
1554877947997,-1.2043202,9.763853,0.9577099,0.108310685,0.10362107,-0.04601892,-4.2599998,-27.539998999999998,-33.12
1554877948017,-1.2258687,9.727939,0.96489275,0.108310685,0.09995588,-0.064344876,-4.14,-27.0,-33.36
1554877948037,-1.2091087999999999,9.763853,0.9601042,0.09609338,0.08773858,-0.06739921,-3.84,-27.42,-32.76
1554877948057,-1.1564348,9.735122,0.91700727,0.06555012,0.05841704,-0.06739921,-3.24,-27.84,-32.579997999999996
1554877948077,-1.1181264,9.72315,0.94095,0.023400415,0.016878206,-0.05396017,-3.1799998,-27.84,-33.059998
1554877948097,-1.0941836,9.703996,0.9026415999999999,-0.00164506,-0.019162841,-0.032579888,-3.9599998,-27.66,-32.16
1554877948117,-1.0606636999999999,9.706389999999999,0.95531565,-0.016305827,-0.057647355,-0.009367007,-3.6599998,-27.66,-32.28
1554877948136,-1.0223553,9.680053,1.0199611,-0.023636209,-0.0918558,0.013235006499999999,-3.3,-27.66,-32.7
1554877948157,-1.0295382,9.7135725,1.0798178999999999,-0.029744862,-0.11079263,0.026674042000000002,-3.6,-27.48,-31.8
1554877948177,-0.9912298,9.751882,1.1396747999999999,-0.03402092,-0.11445782,0.032782696,-3.6,-27.66,-31.679997999999998
1554877948197,-0.8978530999999998,9.730332,1.1085492000000001,-0.041962165,-0.10651657,0.030339234,-3.48,-28.38,-30.9
1554877948217,-0.8739103000000001,9.711179,1.175589,-0.043794762,-0.09002321,0.023619715,-3.84,-28.38,-30.9
1554877948236,-0.84039044,9.732727,1.2929084,-0.037686113,-0.08757975,0.019954525,-4.08,-28.019999,-32.76
1554877948256,-0.85954463,9.730332,1.3288225,-0.026690535,-0.07902763,0.017511062,-3.54,-28.199999,-33.84
1554877948276,-0.8571504000000001,9.735122,1.3647367,-0.012029769,-0.06070168,0.010791546,-3.4199998,-27.84,-33.78
1554877948296,-0.8547561,9.708784,1.3575538,0.0032418616999999998,-0.04237572,-0.0020366246,-4.2599998,-27.119999,-33.42
1554877948317,-0.8356019,9.668080999999999,1.3479767,0.009350514,-0.02466063,-0.006312681999999999,-4.98,-26.699999,-33.719997
1554877948336,-0.81644773,9.663293,1.3791022,0.008128785,-0.008167269,-0.0044800859999999994,-4.92,-27.18,-33.719997
1554877948356,-0.84039044,9.694419,1.359948,0.006296188,0.008936958,-0.0038692203999999997,-4.68,-27.42,-33.719997
1554877948377,-0.8475733,9.699207000000001,1.376708,0.0032418616999999998,0.032149836,-0.0044800859999999994,-4.2,-27.3,-34.02
1554877948397,-0.85954463,9.701602000000001,1.3264283000000001,0.0014092660999999998,0.037647624,-0.0032583552,-3.48,-27.539998999999998,-33.12
1554877948417,-0.8475733,9.706389999999999,1.3383996,-0.004699386,0.04070195,-0.0014257594,-3.8999998999999996,-27.66,-32.88
1554877948437,-0.8739103000000001,9.670475999999999,1.3383996,-0.009586308,0.04070195,0.0016285668,-4.5,-27.359999,-33.6
1554877948456,-0.85954463,9.660899,1.3455825000000001,-0.016305827,0.033371568,0.0065154885,-3.8999998999999996,-27.48,-33.78
1554877948476,-0.87630457,9.672871,1.3096683,-0.016305827,0.03520416,0.016289333,-3.48,-27.779999,-33.239998
1554877948501,-0.89067024,9.675264,1.2689656,-0.017527558000000002,0.028484646000000002,0.01934366,-3.84,-27.539998999999998,-33.059998
1554877948516,-0.8930645,9.699207000000001,1.23784,-0.021192746000000002,0.029095512,0.026674042000000002,-4.56,-27.539998999999998,-33.239998
1554877948537,-0.9385556999999999,9.660899,1.2569941999999998,-0.019360151000000003,0.031538974,0.030950097000000003,-4.74,-27.42,-32.94
1554877948556,-0.96489275,9.656111,1.2857256000000001,-0.013862365,0.027262917,0.027895773,-4.2,-27.42,-33.18
1554877948576,-0.9864412,9.727939,1.3072741,-0.016305827,0.004660902,0.022397986,-4.38,-27.42,-33.3
1554877948597,-0.9864412,9.773430000000001,1.3048798000000001,-0.016305827,-0.010610729,0.023619715,-4.3199997,-27.48,-33.18
1554877948616,-1.0151725,9.775824,1.2689656,-0.012029769,-0.013665055,0.019954525,-3.9599998,-27.359999,-32.7
1554877948636,-0.9960183000000001,9.790189999999999,1.2785428,-0.008364579,-0.01305419,0.018732794,-4.02,-27.539998999999998,-32.7
1554877948657,-0.9194015,9.725544000000001,1.2953026,0.0026309968,-0.024049763999999998,0.0071263537,-3.36,-27.9,-33.18
1554877948677,-0.8547561,9.641745,1.3264283000000001,0.018513493,-0.041153993,-0.0032583552,-3.24,-27.3,-33.239998
1554877948696,-0.7996878000000001,9.610619999999999,1.2976969999999999,0.026454741,-0.049706105,-0.012421334,-3.48,-26.76,-33.12
1554877948716,-0.75180227,9.711179,1.2593886,0.017902628,-0.044819184000000005,-0.023416907999999997,-3.6599998,-28.199999,-32.16
1554877948737,-0.7853220999999999,9.778217999999999,1.2713598999999998,0.005685323000000001,-0.022828032999999998,-0.017919121,-3.8999998999999996,-28.68,-30.9
1554877948756,-0.7829279,9.792584,1.2881198,0.0075179185,-0.01305419,-0.017919121,-3.84,-27.72,-31.5
1554877948777,-0.75659084,9.73991,1.2857256000000001,0.0044635925,-0.007556403000000001,-0.0118104685,-3.6599998,-27.24,-32.16
1554877948797,-0.7685622,9.646533,1.2522057,-0.0010341948,-0.002058616,-0.0044800859999999994,-3.48,-27.24,-32.52
1554877948817,-0.7446195,9.598647999999999,1.2258687,-0.005921116999999999,0.004660902,-0.0008148942999999999,-3.8999998999999996,-27.42,-32.46
1554877948836,-0.74701375,9.617802000000001,1.2593886,-0.0077537126000000005,0.009547824,0.0065154885,-3.84,-27.48,-32.88
1554877948856,-0.75659084,9.665688000000001,1.2689656,-0.0108080385,0.017489071999999998,0.012013276000000002,-3.6599998,-27.359999,-33.3
1554877948877,-0.7805335999999999,9.711179,1.2402343999999998,-0.0077537126000000005,0.029706378,0.016289333,-4.02,-27.42,-33.12
1554877948897,-0.7853220999999999,9.7135725,1.2282629999999999,-0.0077537126000000005,0.04986493,0.016900198999999998,-4.08,-27.42,-33.48
1554877948917,-0.76137936,9.749487,1.2306572,-0.004699386,0.055362716,0.017511062,-3.72,-27.599998,-33.059998
1554877948937,-0.7637736999999999,9.73991,1.2593886,-0.0034776558000000003,0.04619974,0.01018068,-2.9399998,-28.019999,-32.46
1554877948957,-0.7685622,9.718361999999999,1.3000913,-0.004699386,0.037036757999999996,0.00895895,-3.12,-27.66,-32.64
1554877948977,-0.8092649000000001,9.708784,1.3096683,-0.005921116999999999,0.020543398,0.01018068,-3.8999998999999996,-27.18,-33.12
1554877948996,-0.8643332,9.672871,1.2689656,-0.0034776558000000003,0.007715228,0.013235006499999999,-3.84,-27.539998999999998,-32.76
1554877949016,-0.9217958,9.701602000000001,1.2354459,-0.0010341948,0.008326094000000001,0.012013276000000002,-4.02,-28.019999,-33.12
1554877949036,-0.9194015,9.742303999999999,1.2043202,0.00018753561999999997,0.01138042,0.01018068,-3.78,-27.84,-32.28
1554877949057,-0.8475733,9.694419,1.2474172,-0.0071428474,0.01138042,0.010791546,-3.1799998,-27.599998,-31.859999
1554877949077,-0.83081335,9.646533,1.3048798000000001,-0.0022559254,0.0009957103999999998,0.0040720277000000004,-3.84,-27.359999,-32.52
1554877949097,-0.81644773,9.648928,1.3192455,0.005685323000000001,-0.017941112,0.0016285668,-4.02,-27.119999,-32.88
1554877949117,-0.84278476,9.708784,1.3120626,0.0020201313,-0.028936688,-0.0008148942999999999,-3.36,-27.42,-33.239998
1554877949136,-0.8284190999999999,9.718361999999999,1.3192455,0.00018753561999999997,-0.024049763999999998,0.0028502971000000004,-3.48,-27.599998,-31.98
1554877949156,-0.82123625,9.715967,1.3383996,-0.0034776558000000003,-0.024049763999999998,0.009569814,-3.6599998,-27.48,-32.16
1554877949177,-0.79250497,9.672871,1.3216397,-0.0034776558000000003,-0.015497651000000001,0.008348084,-4.3199997,-27.72,-33.239998
1554877949197,-0.7853220999999999,9.706389999999999,1.333611,-0.008364579,-0.0063346727,0.0065154885,-4.2,-27.9,-33.36
1554877949216,-0.7733508000000001,9.730332,1.3527653,-0.01691669,0.007715228,0.01018068,-3.8999998999999996,-27.48,-33.18
1554877949236,-0.7877164000000001,9.744699,1.3862851,-0.018749287,0.010769553999999999,0.01140241,-4.2599998,-27.48,-32.82
1554877949257,-0.8044763,9.763853,1.3575538,-0.018138422,0.01382388,0.016900198999999998,-3.84,-27.72,-33.3
1554877949277,-0.82123625,9.73991,1.3264283000000001,-0.0108080385,0.02543032,0.016900198999999998,-3.6,-27.119999,-34.26
1554877949296,-0.8236305,9.7135725,1.3120626,-0.0028667906,0.038869355,0.00895895,-3.78,-27.48,-34.26
1554877949316,-0.7829279,9.692024,1.2833313,0.0032418616999999998,0.044367142000000005,0.0022394322,-4.2599998,-28.08,-33.36
1554877949337,-0.80208206,9.648928,1.2665714,0.008739648000000001,0.041923682999999996,-0.00264749,-3.78,-27.42,-32.7
1554877949357,-0.84039044,9.687236,1.2713598999999998,0.013015706,0.033371568,-0.0038692203999999997,-3.6599998,-26.88,-32.1
1554877949377,-0.85236186,9.7135725,1.2593886,0.013015706,0.03581503,-0.0038692203999999997,-4.2599998,-26.64,-32.82
1554877949398,-0.8643332,9.737515,1.2067145000000001,0.011793975,0.029706378,-0.0038692203999999997,-3.8999998999999996,-27.0,-33.84
1554877949416,-0.87630457,9.730332,1.185166,0.0020201313,0.019932533,0.0016285668,-3.9599998,-27.0,-33.66
1554877949436,-0.8667275,9.742303999999999,1.2043202,-0.012029769,0.008326094000000001,0.01018068,-3.8999998999999996,-27.0,-33.42
1554877949456,-0.88588166,9.747093,1.2091087999999999,-0.024857938,-0.00022602014,0.012013276000000002,-3.9599998,-27.48,-33.54
1554877949477,-0.8786988000000001,9.763853,1.2091087999999999,-0.033410054,-0.015497651000000001,0.015678466999999998,-4.2599998,-27.48,-34.38
1554877949496,-0.89067024,9.732727,1.1779832000000001,-0.04501649,-0.029547552,0.02300885,-4.02,-27.119999,-34.32
1554877949517,-0.9074302,9.747093,1.1779832000000001,-0.051736012000000005,-0.04237572,0.024841446,-4.02,-27.3,-33.899998
1554877949536,-0.90024734,9.747093,1.1875603000000001,-0.06089899,-0.05642562,0.026063178,-3.9599998,-27.66,-33.84
1554877949557,-0.9505271000000001,9.780613,1.185166,-0.05784466,-0.069253795,0.026063178,-3.4199998,-27.3,-33.899998
1554877949576,-0.91700727,9.790189999999999,1.1708003,-0.061509855,-0.08024937,0.022397986,-3.72,-27.24,-33.6
1554877949597,-0.90024734,9.778217999999999,1.185166,-0.061509855,-0.09307754,0.013235006499999999,-4.2,-26.939999,-33.36
1554877949616,-0.87151605,9.735122,1.2689656,-0.04807082,-0.116901286,-0.00020402900000000002,-4.68,-26.58,-33.66
1554877949637,-0.8475733,9.72315,1.2306572,-0.046238225,-0.13461637,-0.009367007,-4.38,-26.82,-33.48
1554877949656,-0.81165916,9.754275,1.2354459,-0.047459953,-0.14194676,-0.012421334,-4.5,-27.18,-33.36
1554877949677,-0.75659084,9.75667,1.2162915,-0.051125145999999996,-0.1340055,-0.013032199,-4.2599998,-26.939999,-34.02
1554877949697,-0.72785956,9.744699,1.2785428,-0.05784466,-0.12484253,-0.0099778725,-4.2599998,-26.64,-34.14
1554877949717,-0.72546524,9.783007000000001,1.3288225,-0.06334245,-0.12606426,-0.0075344117,-4.62,-27.48,-33.18
1554877949737,-0.7206767,9.797373,1.4006507,-0.07067284,-0.12056647,-0.00020402900000000002,-4.2,-28.14,-31.98
1554877949756,-0.69673395,9.787795,1.4509305000000001,-0.06761850400000001,-0.111403495,0.0040720277000000004,-4.56,-27.18,-31.199999
1554877949776,-0.6488484999999999,9.759064,1.4509305000000001,-0.06884024,-0.10468397,0.0052937586,-4.68,-26.46,-32.399998
1554877949797,-0.62251145,9.668080999999999,1.4437478000000001,-0.07250543,-0.09307754,0.00895895,-4.7999997,-26.76,-34.32
1554877949816,-0.679974,9.610619999999999,1.472479,-0.0712837,-0.07169725,0.01140241,-4.98,-26.699999,-34.38
1554877949836,-0.7709564999999999,9.555551,1.4940275,-0.06639677,-0.049095243,0.01140241,-5.2799997,-26.4,-34.02
1554877949857,-0.82602483,9.517242,1.620924,-0.04807082,-0.031991012,0.0071263537,-4.98,-26.58,-33.48
1554877949876,-0.87151605,9.574705,1.6305011999999999,-0.022414477999999998,-0.03382361,-0.0032583552,-4.8599997,-26.699999,-33.239998
1554877949896,-0.8475733,9.58907,1.5897985000000001,-0.014473231000000001,-0.026493225,-0.009367007,-5.04,-26.88,-33.42
1554877949917,-0.8140534,9.598647999999999,1.5419129999999999,-0.019360151000000003,-0.02832582,-0.024027772000000003,-4.8599997,-26.099998,-34.26
1554877949937,-0.7996878000000001,9.543579,1.5419129999999999,-0.02852313,-0.048484374000000004,-0.030136427,-4.98,-25.74,-33.96
1554877949957,-0.80208206,9.567522,1.5562786,-0.03890784,-0.075362444,-0.027692964,-5.22,-26.16,-33.96
1554877949977,-0.7948991999999999,9.624985,1.6137413,-0.04501649,-0.09918619,-0.019140853,-5.2799997,-26.64,-33.6
1554877949996,-0.76616794,9.675264,1.6759924,-0.051125145999999996,-0.11629041,-0.0038692203999999997,-4.92,-27.0,-33.48
1554877950016,-0.73743665,9.6896305,1.6783867,-0.05662293400000001,-0.12667513,0.0071263537,-5.16,-26.82,-33.899998
1554877950037,-0.7015225,9.636956,1.7166951000000001,-0.06273159,-0.13705982,0.017511062,-6.0,-26.039998999999998,-34.2
1554877950057,-0.6560313,9.615408,1.6879636999999998,-0.0694511,-0.14866628,0.021787117999999998,-6.3599997,-25.8,-34.02
1554877950076,-0.64166564,9.555551,1.637684,-0.07189456400000001,-0.14805539999999998,0.02423058,-5.8199997,-26.58,-33.54
1554877950097,-0.6201171999999999,9.560339,1.673598,-0.06395332,-0.13522723,0.026063178,-5.7599998,-26.519999,-33.0
1554877950117,-0.57223165,9.591465,1.664021,-0.051736012000000005,-0.11995561,0.018732794,-5.8199997,-26.4,-33.66
1554877950137,-0.5363176,9.665688000000001,1.6017698,-0.054790337,-0.098575324,0.013235006499999999,-5.7,-26.279999,-34.079997999999996
1554877950157,-0.5219519,9.747093,1.6592325,-0.054790337,-0.08574715,-0.006312681999999999,-6.24,-25.859999,-34.14
1554877950176,-0.54828894,9.696813,1.7262721,-0.04501649,-0.10590571,-0.019751716000000002,-6.72,-25.8,-34.2
1554877950196,-0.5770202,9.622589999999999,1.7645805,-0.025468806,-0.13828157,-0.039299402000000004,-6.54,-26.099998,-33.78
1554877950217,-0.62251145,9.541185,1.8052831999999999,-0.0108080385,-0.16943570000000002,-0.04968411,-6.24,-26.34,-33.899998
1554877950237,-0.6368771,9.565128,1.8771113999999998,0.00996138,-0.1834856,-0.053349305,-6.3599997,-26.039998999999998,-34.14
1554877950256,-0.5794145,9.502875999999999,1.9633054,0.028898204,-0.1798204,-0.047851517999999996,-6.3599997,-25.859999,-33.899998
1554877950276,-0.54350036,9.445414999999999,2.0231621,0.039282914,-0.15782925,-0.034412485,-5.8799996,-25.92,-33.12
1554877950296,-0.5027977,9.498088000000001,2.0782306,0.033785127000000005,-0.13522723,-0.011199603,-5.8799996,-25.5,-32.94
1554877950316,-0.5602603,9.780613,1.9896424,0.0038527271000000003,-0.11079263,0.026063178,-6.48,-25.26,-33.36
1554877950336,-0.65124273,9.838076,1.8531687,-0.04012957,-0.08086023,0.06454768,-6.72,-25.98,-33.42
1554877950357,-0.74222517,9.828498,1.838803,-0.10427042,-0.016719381999999998,0.09875614,-6.72,-26.099998,-33.66
1554877950377,-0.7781393,9.73991,1.8795058,-0.14397667,0.03581503,0.108529985,-7.14,-25.92,-33.059998
1554877950397,-0.74222517,9.680053,1.9178141,-0.16169176,0.06819089,0.10486479,-7.02,-26.279999,-32.88
1554877950416,-0.723071,9.632168,1.8699286,-0.14397667,0.09812328,0.083484516,-7.02,-25.74,-33.899998
1554877950437,-0.65842557,9.560339,1.8100717,-0.09449658,0.13233174,0.04988692,-7.02,-24.96,-33.78
1554877950456,-0.5865973000000001,9.541185,1.7238779,-0.04012957,0.15004683,0.023619715,-6.8399997,-25.08,-33.48
1554877950477,-0.5123747999999999,9.581888000000001,1.6807808999999998,0.015459167,0.17631404,-0.009367007,-7.08,-25.26,-34.14
1554877950497,-0.5027977,9.627379,1.6831752,0.049056754,0.18486615,-0.020973448,-7.2,-25.019999,-34.14
1554877950516,-0.5554718000000001,9.651321000000001,1.7645805,0.09487165,0.16837278,-0.030136427,-6.24,-24.72,-33.0
1554877950536,-0.6153286,9.632168,1.7717633000000002,0.11441933,0.14393817,-0.031969022,-6.2999997,-24.96,-33.42
1554877950556,-0.679974,9.577099,1.7430321,0.10036944,0.12744482,-0.02463864,-6.06,-25.38,-33.78
1554877950576,-0.7302538000000001,9.545974000000001,1.7837347,0.073491365,0.11156232,-0.013032199,-5.8799996,-25.619999,-34.02
1554877950597,-0.7972935,9.586677,1.7526091000000001,0.043558966,0.08529511,0.0028502971000000004,-6.42,-26.039998999999998,-33.3
1554877950616,-0.84996754,9.593859,1.7526091000000001,0.013015706,0.06513656,0.021176254,-6.12,-26.279999,-32.64
1554877950637,-0.82123625,9.653716000000001,1.7526091000000001,-0.011418903999999999,0.056584447999999996,0.03583702,-6.0,-25.98,-33.78
1554877950657,-0.81165916,9.706389999999999,1.7669748,-0.035853516,0.04314541,0.06027163,-5.94,-25.439999,-34.559998
1554877950677,-0.84039044,9.672871,1.8244373999999999,-0.04929255,0.028484646000000002,0.06454768,-5.7599998,-25.619999,-34.079997999999996
1554877950697,-0.88588166,9.634561999999999,1.8340145,-0.046849087000000005,0.027262917,0.056606437999999995,-5.7599998,-25.38,-33.66
1554877950717,-0.9313729,9.567522,1.8747171000000002,-0.03890784,0.02298686,0.046832595,-5.52,-25.619999,-33.12
1554877950736,-0.91461295,9.555551,1.9369683000000002,-0.019971019,0.017489071999999998,0.033393558,-5.58,-26.4,-32.04
1554877950756,-0.7709564999999999,9.656111,1.9465453999999998,0.0050744577,0.02420859,0.0150676025,-5.52,-25.859999,-31.32
1554877950777,-0.58420306,9.845258,1.9226026999999999,0.028287336,0.0626931,-0.015475661000000002,-5.46,-25.92,-32.1
1554877950796,-0.31125572,9.828498,1.8914771000000001,0.047835025999999996,0.101788476,-0.044797193,-5.52,-26.16,-32.82
1554877950816,0.22745611,9.979338,1.9369683000000002,0.056998003,0.0907929,-0.10710545,-5.8199997,-26.46,-32.579997999999996
1554877950837,-0.117319465,10.063137,1.525153,0.062495794,0.044367142000000005,-0.14009216,-6.42,-26.46,-33.239998
1554877950856,-0.70631105,9.510059,1.1875603000000001,0.045391562999999996,0.11583838,-0.12482054,-6.12,-25.92,-34.079997999999996
1554877950876,-0.8475733,9.378374,1.525153,0.05760887,0.18425527,-0.10771631,-5.64,-25.619999,-34.079997999999996
1554877950897,-1.0510867,9.320911,1.6688095,0.12236059,0.17264885,-0.10038593400000001,-5.52,-26.34,-32.94
1554877950917,-0.9888355,9.330489,1.5921928,0.12969096,0.17325970000000002,-0.09122296,-5.52,-26.34,-32.94
1554877950936,-0.6560313,9.531608,1.4293821000000002,0.08387607,0.15615548,-0.046629786,-5.04,-26.58,-32.82
1554877950957,-0.5458947,9.641745,1.5610671999999999,0.05516541,0.1207253,-0.009367007,-4.2599998,-26.34,-33.059998
1554877950977,-0.5554718000000001,9.617802000000001,1.7143008000000002,0.049667623,0.104842804,0.013235006499999999,-4.3199997,-26.34,-33.3
1554877950996,-0.53392327,9.617802000000001,1.786129,0.03683945,0.071245216,0.020565389,-4.62,-26.16,-34.02
1554877951016,-0.5363176,9.692024,1.7430321,-0.004699386,0.020543398,0.030950097000000003,-4.3199997,-26.279999,-33.96
1554877951037,-0.600963,9.744699,1.6328955,-0.065785915,0.010769553999999999,0.043778267,-4.08,-26.039998999999998,-33.719997
1554877951057,-0.6440599,9.675264,1.6616267,-0.12198551,0.051697525999999994,0.062104225,-4.44,-25.8,-34.739998
1554877951076,-0.6847626,9.634561999999999,1.786129,-0.14947446,0.08834944,0.08226278,-4.38,-25.859999,-34.44
1554877951096,-0.82602483,9.620196,1.8411973999999998,-0.15802656,0.13049914,0.11524951,-4.2599998,-26.22,-34.44
1554877951117,-0.9529214,9.682447,1.8531687,-0.14886358,0.14393817,0.14029498,-4.2599998,-26.519999,-34.02
1554877951137,-1.0893950000000001,9.771035000000001,1.8795058,-0.12381811,0.12133617,0.1470145,-4.02,-26.16,-33.6
1554877951157,-1.1947431999999998,9.8237095,1.7645805,-0.080446675,0.06635829,0.14396018,-4.02,-26.22,-33.54
1554877951177,-1.2857256000000001,9.864412,1.5490957,-0.032188322000000005,0.0003848451,0.11769296,-4.08,-25.74,-34.92
1554877951197,-1.3216397,9.785401,1.4365649,-0.0132515,-0.036267072000000004,0.09142576,-4.44,-25.68,-34.38
1554877951217,-1.3120626,9.711179,1.4557191,-0.0071428474,-0.06253427,0.058439035,-4.8599997,-25.14,-33.719997
1554877951236,-1.2737542,9.684841,1.4868447,-0.004699386,-0.12850772,0.01018068,-4.74,-24.9,-33.899998
1554877951256,-1.2330515,9.706389999999999,1.515576,-0.0034776558000000003,-0.20914194,-0.027692964,-4.7999997,-25.14,-34.02
1554877951277,-1.1899546,9.708784,1.5036045,-0.0089754425,-0.32276288,-0.07045353,-5.16,-25.5,-34.559998
1554877951296,-1.1396747999999999,9.660899,1.489239,-0.013862365,-0.40217537,-0.09122296,-5.04,-25.8,-34.5
1554877951316,-1.0606636999999999,9.603436,1.4341706,-0.024857938,-0.43577296,-0.10160766,-4.98,-25.56,-34.8
1554877951336,-0.9313729,9.598647999999999,1.4365649,-0.05784466,-0.43882728,-0.10282939,-5.04,-25.68,-34.26
1554877951357,-0.723071,9.634561999999999,1.6185298000000001,-0.1256507,-0.42966428,-0.09427728,-6.06,-25.38,-33.239998
1554877951377,-0.5219519,9.620196,1.9154198,-0.16474608,-0.45348805,-0.08022738,-6.48,-25.56,-34.5
1554877951396,-0.39026679999999997,9.577099,2.1380875,-0.15985917,-0.4925834,-0.06373401,-6.6,-25.5,-34.68
1554877951416,-0.29928434,9.557945,2.0973847,-0.14642012,-0.5280136,-0.048462383,-6.42,-25.38,-34.2
1554877951436,-0.27055305,9.531608,2.0830189999999997,-0.1433658,-0.5365656999999999,-0.033190752999999996,-6.72,-25.019999,-32.88
1554877951457,-0.21548474,9.596252999999999,2.1620302000000002,-0.14580926,-0.5011355,-0.019140853,-7.44,-25.019999,-33.42
1554877951477,-0.16520496,9.620196,2.2099156000000004,-0.1311485,-0.4412707,-0.005090951,-7.5,-24.9,-34.68
1554877951496,-0.17478207,9.569917,2.2506182,-0.11648773,-0.38507113,0.0034611626,-7.68,-24.359999,-34.68
1554877951516,-0.17238778,9.601042,2.2147042999999997,-0.09755090599999999,-0.31298903,0.010791546,-7.98,-24.779999,-33.78
1554877951536,-0.19633053,9.629773,2.1404817000000005,-0.092053115,-0.20547675,0.015678466999999998,-8.04,-25.8,-33.3
1554877951556,-0.20830189999999998,9.57231,2.2578009999999997,-0.07555975,-0.14377935,0.010791546,-8.22,-25.38,-33.48
1554877951576,-0.30167863,9.454991,2.2937152000000003,-0.032799188,-0.11262523,-0.0008148942999999999,-8.4,-24.18,-33.54
1554877951596,-0.33759275,9.404712,2.2434354,-0.0040885209999999995,-0.11079263,-0.008145277,-8.639999000000001,-24.0,-33.42
1554877951616,-0.45012367,9.454991,2.116539,0.008739648000000001,-0.09735359,-0.021584312999999997,-8.7,-24.24,-33.3
1554877951636,-0.4764607,9.531608,2.1069617000000003,0.0020201313,-0.06986465,-0.031969022,-9.12,-24.66,-33.239998
1554877951656,-0.47406640000000005,9.531608,2.1404817000000005,-0.008364579,-0.057647355,-0.036245078,-9.3,-24.539998999999998,-33.239998
1554877951677,-0.47406640000000005,9.555551,2.1404817000000005,-0.031577457,-0.049706105,-0.031358156,-9.36,-24.06,-33.18
1554877951696,-0.45970076,9.593859,2.1644243999999997,-0.043183897,-0.05276043,-0.018529985,-9.059999000000001,-24.539998999999998,-33.6
1554877951716,-0.48124924,9.500483000000001,2.2123098,-0.040740438,-0.054593027,-0.005701816,-8.639999000000001,-24.72,-32.94
1554877951737,-0.48364350000000006,9.507666,2.2338583,-0.037686113,-0.063756004,0.0052937586,-8.4,-25.019999,-32.76
1554877951757,-0.47406640000000005,9.483723,2.3056867000000003,-0.031577457,-0.07475158,0.01812193,-8.519999499999999,-24.359999,-32.579997999999996
1554877951776,-0.45730647,9.481328,2.3320236,-0.030355725,-0.0796385,0.019954525,-8.88,-24.18,-33.059998
1554877951796,-0.44294083,9.560339,2.3152637,-0.031577457,-0.07902763,0.02545231,-9.059999000000001,-24.72,-34.26
1554877951817,-0.45730647,9.598647999999999,2.2601955,-0.032799188,-0.050927836,0.024841446,-8.94,-24.42,-33.719997
1554877951836,-0.42139238,9.622589999999999,2.2554069,-0.03524265,-0.02588236,0.02300885,-9.48,-23.88,-33.78
1554877951857,-0.39505535,9.596252999999999,2.3152637,-0.04257303,-0.0014477507,0.018732794,-8.7,-24.0,-33.3
1554877951877,-0.34956414,9.474146000000001,2.3846977000000003,-0.03524265,0.0003848451,0.013235006499999999,-8.4,-24.119999,-34.2
1554877951897,-0.38308397,9.450203,2.3368123,-0.017527558000000002,-0.010610729,0.0059046233,-8.519999499999999,-23.82,-34.32
1554877951917,-0.4189981,9.519637,2.248224,-0.015694961,-0.002058616,-0.0014257594,-8.76,-23.699999,-33.78
1554877951937,-0.45491222,9.531608,2.2721667,-0.013862365,0.015045611,-0.011199603,-8.94,-23.88,-33.899998
1554877951957,-0.43575802,9.524425500000001,2.2889266,-0.0132515,0.041312817,-0.011199603,-9.719999000000001,-24.0,-32.399998
1554877951977,-0.39984390000000003,9.524425500000001,2.3200524,-0.020581882,0.06391483,-0.0044800859999999994,-9.84,-23.82,-32.399998
1554877951996,-0.37111259,9.464568,2.3679377999999995,-0.016305827,0.059027907000000004,0.0022394322,-9.3,-24.18,-33.96
1554877952016,-0.3519584,9.440625,2.3344178,-0.004699386,0.048032332000000004,0.008348084,-9.179999,-24.359999,-33.719997
1554877952037,-0.43815228,9.512454,2.22907,0.010572244,0.049254067,0.012624141,-9.179999,-24.18,-32.1
1554877952056,-0.47167215,9.526819,2.2266755000000003,0.008128785,0.06635829,0.0150676025,-9.36,-24.779999,-31.56
1554877952076,-0.43096948,9.529214,2.2961093999999997,0.0038527271000000003,0.07491041,0.014456736999999999,-9.84,-24.72,-31.26
1554877952097,-0.43096948,9.541185,2.317658,0.0038527271000000003,0.07185608,0.016289333,-9.48,-24.0,-31.26
1554877952116,-0.46688359999999995,9.553157,2.2721667,0.0050744577,0.07368868,0.0150676025,-8.76,-24.48,-31.439999
1554877952136,-0.50998056,9.545974000000001,2.2601955,0.011793975,0.078575596,0.012624141,-9.24,-24.42,-31.859999
1554877952157,-0.49082634,9.577099,2.2147042999999997,0.016680896,0.078575596,0.01140241,-8.76,-24.42,-30.84
1554877952177,-0.51716334,9.562733999999999,2.2194927000000004,0.020956952,0.07307781,0.0071263537,-8.7,-24.66,-30.24
1554877952196,-0.54828894,9.553157,2.2147042999999997,0.020346088000000002,0.06941262,-0.0020366246,-9.0,-24.6,-30.06
1554877952217,-0.5602603,9.57231,2.205127,0.014237436499999999,0.05841704,-0.0044800859999999994,-8.46,-24.24,-32.7
1554877952237,-0.5602603,9.553157,2.2099156000000004,0.0075179185,0.04375628,-0.0044800859999999994,-8.34,-24.24,-34.2
1554877952257,-0.6177229000000001,9.5483675,2.2123098,0.0020201313,0.029095512,0.0010177015,-7.98,-24.96,-34.02
1554877952277,-0.59378016,9.536397000000001,2.2194927000000004,-0.011418903999999999,0.016267342,0.0065154885,-7.56,-24.48,-33.12
1554877952297,-0.55786604,9.529214,2.2506182,-0.033410054,0.0009957103999999998,0.02423058,-7.9199996,-23.88,-33.3
1554877952316,-0.53871185,9.519637,2.22907,-0.05295774,-0.011221595,0.038891345,-8.7,-24.539998999999998,-34.02
1554877952337,-0.54828894,9.512454,2.2338583,-0.065785915,-0.021606304,0.06515855,-8.7,-24.3,-34.14
1554877952357,-0.56265455,9.421472,2.2793495999999998,-0.046238225,-0.036267072000000004,0.07981932,-7.68,-24.24,-34.079997999999996
1554877952376,-0.5650489000000001,9.474146000000001,2.2434354,-0.029744862,-0.035656203,0.07554326,-7.98,-24.06,-33.239998
1554877952397,-0.52674043,9.498088000000001,2.2530127,-0.023025342999999997,0.006493496999999999,0.0590499,-8.58,-23.82,-33.12
1554877952417,-0.40223816,9.553157,2.4277947,-0.012640635,0.03948022,0.04011308,-8.58,-23.76,-33.719997
1554877952437,-0.32562137,9.610619999999999,2.4565259999999998,-0.0065319818,0.03948022,0.026063178,-8.7,-23.519999,-33.48
1554877952457,-0.37350687,9.622589999999999,2.4182177000000005,0.0075179185,0.041312817,0.012013276000000002,-8.7,-23.4,-34.2
1554877952476,-0.43336374,9.634561999999999,2.3416007000000003,0.017291763999999998,0.0486432,-0.00264749,-8.34,-23.76,-34.02
1554877952497,-0.48603779999999996,9.608225,2.317658,0.025233012000000003,0.05108666,-0.017919121,-8.099999,-23.82,-32.399998
1554877952516,-0.5554718000000001,9.536397000000001,2.2721667,0.036228586,0.056584447999999996,-0.027082099999999998,-8.16,-23.699999,-32.219997
1554877952537,-0.5961744000000001,9.507666,2.2601955,0.04722416,0.041923682999999996,-0.03502335,-8.16,-24.539998999999998,-31.859999
1554877952556,-0.61293435,9.4932995,2.2338583,0.053332813,0.03520416,-0.035634212,-8.16,-24.779999,-31.8
1554877952576,-0.60335726,9.502875999999999,2.2003386000000003,0.048445888,0.028484646000000002,-0.039299402000000004,-8.4,-24.66,-31.98
1554877952596,-0.56744313,9.517242,2.248224,0.03806118,0.024819453999999998,-0.038077675,-8.099999,-24.119999,-31.32
1554877952617,-0.5363176,9.57231,2.2338583,0.032563392000000004,-0.00022602014,-0.032579888,-8.28,-24.18,-31.679997999999998
1554877952636,-0.5411060999999999,9.536397000000001,2.2889266,0.033174258,-0.019773709,-0.02586037,-8.28,-24.42,-31.98
1554877952656,-0.5794145,9.510059,2.2889266,0.053943675,-0.043597452,-0.025249504,-8.58,-24.539998999999998,-31.619999
1554877952677,-0.5650489000000001,9.538791,2.1931557999999995,0.07226964,-0.058869082,-0.03746681,-8.46,-24.24,-31.019999
1554877952696,-0.5650489000000001,9.617802000000001,2.2362528,0.08204348,-0.07780591,-0.0551819,-8.16,-24.359999,-31.38
1554877952716,-0.531529,9.670475999999999,2.2961093999999997,0.09120646,-0.09063408,-0.07534046,-8.04,-24.66,-31.019999
1554877952736,-0.48843205,9.816526,2.2147042999999997,0.096704245,-0.0833037,-0.09305555,-8.34,-24.42,-30.779999
1554877952756,-0.41660379999999997,9.775824,2.1069617000000003,0.09487165,-0.06681033,-0.109548904,-8.58,-24.72,-31.14
1554877952777,-0.41181526,9.63935,2.1141446,0.108310685,-0.07902763,-0.12420967,-7.7999997,-24.779999,-31.199999
1554877952796,-0.49082634,9.557945,2.0710478,0.12052799,-0.10590571,-0.13154006,-7.7999997,-24.779999,-30.84
1554877952817,-0.5818088,9.514847999999999,1.960911,0.12236059,-0.12789686,-0.12604226,-8.4,-25.14,-31.439999
1554877952837,-0.6153286,9.505271,1.9226026999999999,0.10159116,-0.13095118,-0.10649458,-8.7,-25.26,-33.059998
1554877952857,-0.6201171999999999,9.483723,1.9369683000000002,0.06860445,-0.13278379,-0.08022738,-8.34,-25.019999,-33.239998
1554877952877,-0.5889916000000001,9.462174000000001,1.9704881999999997,0.013015706,-0.13889243,-0.038077675,-8.7,-24.48,-33.059998
1554877952896,-0.5243462,9.431047999999999,1.9633054,-0.0413513,-0.14744455,0.014456736999999999,-8.58,-24.72,-32.94
1554877952916,-0.47885495,9.416683,2.0183737,-0.09266398,-0.15599667,0.07920845,-8.519999499999999,-24.96,-33.12
1554877952937,-0.5123747999999999,9.37598,2.0375278000000003,-0.1256507,-0.16515964,0.13357545,-9.179999,-24.48,-33.48
1554877952956,-0.49800915,9.438231,2.0447106,-0.1519179,-0.15233147,0.16656218,-9.3,-24.539998999999998,-33.6
1554877952977,-0.44294083,9.529214,2.0973847,-0.1641352,-0.10101879,0.17694690000000002,-8.94,-24.9,-33.12
1554877952996,-0.30886146,9.598647999999999,2.2506182,-0.17329818,-0.034434475,0.16595133,-9.0,-25.26,-32.7
1554877953017,-0.15802214,9.63935,2.4589202,-0.15863742,0.010769553999999999,0.1470145,-9.179999,-25.26,-31.859999
1554877953036,-0.090982445,9.605830000000001,2.4589202,-0.11160081,0.037036757999999996,0.121358156,-9.42,-24.48,-32.7
1554877953056,-0.10055954,9.557945,2.403852,-0.050514277,0.05353012,0.09142576,-9.48,-24.119999,-33.899998
1554877953077,-0.23224466,9.557945,2.3152637,0.017291763999999998,0.08101906,0.048054325999999994,-9.719999000000001,-24.24,-33.54
1554877953096,-0.3615355,9.577099,2.3487834999999997,0.073491365,0.10667539999999999,0.008348084,-9.66,-24.539998999999998,-33.54
1554877953117,-0.4764607,9.63935,2.3248408,0.11747366,0.108508,-0.016697392,-9.48,-24.779999,-33.059998
1554877953137,-0.60335726,9.644139,2.248224,0.1345779,0.09934501,-0.026471235,-9.3,-24.48,-33.48
1554877953157,-0.65124273,9.58907,2.1404817000000005,0.13396703,0.0926255,-0.028303832,-9.059999000000001,-23.939999,-33.3
1554877953177,-0.65124273,9.538791,2.0638650000000003,0.11197588,0.088960305,-0.020362582,-9.3,-24.18,-31.859999
1554877953196,-0.58420306,9.498088000000001,2.011191,0.09059559,0.081629924,-0.015475661000000002,-9.24,-25.08,-30.96
1554877953217,-0.5818088,9.483723,2.0183737,0.06616098,0.06941262,-0.011199603,-9.0,-25.26,-30.72
1554877953236,-0.5818088,9.531608,2.0925963,0.027676472,0.0486432,0.00040683625,-9.36,-24.84,-30.779999
1554877953257,-0.5961744000000001,9.5483675,2.0973847,0.0014092660999999998,0.016267342,0.01018068,-9.54,-24.66,-30.48
1554877953276,-0.5985687,9.534002000000001,2.152453,-0.016305827,-0.006945538,0.016289333,-8.82,-24.48,-30.06
1554877953296,-0.6105401,9.58907,2.1835787,-0.02607967,-0.035045337,0.01812193,-8.4,-24.9,-29.88
1554877953317,-0.6392714,9.696813,2.1620302000000002,-0.048681684,-0.0674212,0.01934366,-9.059999000000001,-25.5,-29.519999
1554877953336,-0.6895511,9.830893,2.1476645,-0.08166841,-0.10957089999999998,0.016289333,-8.94,-25.08,-29.82
1554877953356,-0.749408,9.761458,2.1883671000000002,-0.10182696,-0.17554434,0.0065154885,-8.34,-24.6,-30.42
1554877953377,-0.7709564999999999,9.680053,2.2601955,-0.09877264,-0.26289806,-0.008145277,-8.88,-24.539998999999998,-30.66
1554877953397,-0.76616794,9.648928,2.2673783,-0.08411187,-0.3643017,-0.027692964,-9.84,-24.72,-31.74
1554877953416,-0.72546524,9.634561999999999,2.1907616,-0.07983581,-0.42538825,-0.03991027,-9.96,-24.779999,-31.98
1554877953436,-0.6440599,9.610619999999999,2.0902019,-0.080446675,-0.48097697,-0.057014495,-10.38,-24.24,-33.36
1554877953457,-0.58420306,9.466963,2.0087965,-0.08960966,-0.50541157,-0.07961651,-10.679999,-23.699999,-34.38
1554877953477,-0.48603779999999996,9.361614,2.0423164000000003,-0.09144225,-0.5090768,-0.09244468,-11.04,-23.699999,-33.78
1554877953496,-0.38068968,9.270632,2.1740015,-0.07494889,-0.49075082,-0.08389257,-11.219999000000001,-23.4,-33.059998
1554877953516,-0.17717634,9.3280945,2.2721667,-0.051125145999999996,-0.41927958,-0.06495574,-10.38,-23.46,-33.36
1554877953537,0.098165266,9.395133999999999,2.370332,-0.02607967,-0.30626950000000003,-0.04601892,-10.74,-23.64,-32.52
1554877953556,0.33519846,9.464568,2.5738453999999997,0.0038527271000000003,-0.16943570000000002,-0.015475661000000002,-11.46,-24.18,-31.619999
1554877953577,0.5506831999999999,9.47654,2.7366562,0.03439599,-0.041153993,0.01018068,-11.04,-24.359999,-32.1
1554877953596,0.65363705,9.426260000000001,2.7725701000000003,0.07410223,0.115227506,0.030950097000000003,-11.28,-23.76,-32.1
1554877953617,0.7039168,9.4095,2.7462332000000003,0.10892155,0.28810240000000004,0.038891345,-11.88,-24.18,-31.8
1554877953636,0.68236834,9.352037,2.700742,0.13763222,0.42982313,0.037669617999999995,-11.519999499999999,-24.119999,-31.199999
1554877953657,0.5770202,9.385557,2.5666625,0.1571799,0.5556614000000001,0.037669617999999995,-11.099999,-23.939999,-31.56
1554877953676,0.37590113,9.438231,2.482863,0.16084509,0.65584326,0.03583702,-11.4,-24.3,-32.82
1554877953697,0.17478207,9.505271,2.3727264,0.14679520000000001,0.72731453,0.044389132000000005,-10.92,-24.0,-33.6
1554877953716,-0.016759925,9.531608,2.205127,0.12052799,0.7859576,0.048054325999999994,-10.62,-24.539998999999998,-33.42
1554877953737,-0.19393626,9.57231,2.0710478,0.089373864,0.82627463,0.048665192,-10.2,-25.199999,-31.679997999999998
1554877953757,-0.37829542,9.632168,1.9968252,0.06005233,0.84154624,0.05782817,-9.3,-24.72,-31.8
1554877953776,-0.55307746,9.665688000000001,1.8100717,0.025233012000000003,0.8366594,0.0730998,-8.7,-23.88,-33.3
1554877953797,-0.72546524,9.620196,1.8268316999999998,0.00996138,0.8091704000000001,0.08653884,-8.46,-24.0,-33.719997
1554877953816,-0.8930645,9.536397000000001,1.7717633000000002,0.0075179185,0.7651880999999999,0.096923545,-8.94,-24.539998999999998,-34.739998
1554877953837,-1.0415094999999999,9.560339,1.8076775,0.0069070532999999995,0.7163189,0.09997787,-8.4,-24.72,-34.079997999999996
1554877953856,-1.0941836,9.644139,1.8220432,0.009350514,0.6564541,0.10058874,-7.08,-24.84,-33.719997
1554877953877,-1.1229149,9.675264,1.802889,0.026454741,0.5819286,0.11036258,-6.42,-24.779999,-34.5
1554877953896,-1.1660118,9.687236,1.786129,0.049667623,0.5049595,0.11524951,-6.0,-24.779999,-34.2
1554877953916,-1.1803774999999999,9.641745,1.7406378,0.08143261,0.4334883,0.109751716,-5.58,-24.96,-34.5
1554877953936,-1.2186858999999999,9.605830000000001,1.6975409,0.09853684,0.37484524,0.08287364,-5.7,-24.9,-34.86
1554877953956,-1.2162915,9.677659,1.733455,0.11136501,0.31681305,0.05110865,-5.64,-25.019999,-32.94
1554877953977,-1.1947431999999998,9.763853,1.7789462,0.11625193,0.26183520000000005,0.016900198999999998,-5.1,-25.619999,-31.619999
1554877953996,-1.1253091,9.792584,1.8483802,0.12297145,0.21052249,-0.020362582,-4.44,-25.859999,-32.64
1554877954017,-1.0678465,9.744699,1.8651401,0.12236059,0.15004683,-0.056403632999999995,-4.38,-25.619999,-32.579997999999996
1554877954037,-1.036721,9.703996,1.8100717,0.11258674,0.08651684,-0.08022738,-4.38,-25.32,-31.98
1554877954056,-1.0055954,9.696813,1.8004947,0.09426078,0.033982433,-0.09855334,-3.84,-25.56,-32.52
1554877954076,-1.010384,9.699207000000001,1.8004947,0.06982617,-0.009388999,-0.103440255,-3.84,-25.32,-33.6
1554877954097,-0.9385556999999999,9.670475999999999,1.8220432,0.05211108,-0.042986587,-0.10221852,-3.72,-24.66,-34.2
1554877954116,-0.88588166,9.63935,1.8220432,0.041115504,-0.0674212,-0.09305555,-3.54,-24.96,-34.32
1554877954137,-0.7996878000000001,9.591465,1.7885233,0.031952526,-0.092466675,-0.07411872,-3.9599998,-25.38,-34.68
1554877954156,-0.7829279,9.593859,1.7693691000000003,0.022178682999999998,-0.10834917,-0.048462383,-4.02,-25.8,-33.239998
1554877954177,-0.6895511,9.656111,1.7573976999999998,0.009350514,-0.111403495,-0.027082099999999998,-4.3199997,-25.68,-33.42
1554877954196,-0.64166564,9.668080999999999,1.7382435,-0.00164506,-0.10773830000000001,-0.00264749,-4.56,-25.5,-34.32
1554877954216,-0.5794145,9.687236,1.7526091000000001,-0.004699386,-0.11445782,0.012013276000000002,-4.56,-25.439999,-33.78
1554877954237,-0.55307746,9.680053,1.7119064,0.0050744577,-0.12362079,0.015678466999999998,-4.08,-25.5,-34.68
1554877954256,-0.5506831999999999,9.682447,1.5778271000000001,0.006296188,-0.111403495,0.016900198999999998,-4.14,-26.34,-34.38
1554877954276,-0.5889916000000001,9.682447,1.515576,0.0075179185,-0.09063408,0.0028502971000000004,-4.98,-26.039998999999998,-33.899998
1554877954296,-0.66321415,9.682447,1.5562786,0.0075179185,-0.07230812,-0.0075344117,-5.3399997,-24.9,-33.96
1554877954316,-0.74701375,9.651321000000001,1.5586729,0.0032418616999999998,-0.08086023,-0.008756143000000001,-5.52,-24.9,-33.96
1554877954337,-0.67757976,9.63935,1.6089526,0.013015706,-0.102851376,-0.01425393,-5.04,-25.56,-34.559998
1554877954356,-0.6201171999999999,9.608225,1.56825,0.02401128,-0.13156204,-0.010588738,-4.56,-25.439999,-34.26
1554877954376,-0.54350036,9.569917,1.5467016000000002,0.028287336,-0.16088358,-0.02463864,-4.74,-25.619999,-33.6
1554877954397,-0.6464542,9.620196,1.5371244,0.00996138,-0.17615521,-0.024027772000000003,-5.22,-25.56,-34.2
1554877954416,-0.7015225,9.632168,1.6975409,-0.015084096000000002,-0.19692463,-0.017308256,-5.58,-25.439999,-34.98
1554877954437,-0.81644773,9.687236,1.7837347,-0.03646438,-0.22074836,0.0028502971000000004,-5.46,-26.039998999999998,-34.86
1554877954456,-0.8571504000000001,9.742303999999999,1.8004947,-0.06212072,-0.24518298,0.01934366,-5.22,-25.5,-34.2
1554877954477,-0.7948991999999999,9.775824,1.8675343999999998,-0.08289014,-0.26411979999999996,0.033393558,-5.1,-25.56,-33.54
1554877954497,-0.7350424,9.778217999999999,1.9465453999999998,-0.08960966,-0.2958848,0.034615293,-5.52,-25.5,-33.78
1554877954516,-0.6273,9.699207000000001,1.9656997,-0.08411187,-0.30749124,0.034615293,-6.06,-25.32,-34.14
1554877954537,-0.5794145,9.6585045,1.9297855,-0.059677258,-0.31482163,0.01812193,-5.8199997,-25.26,-34.02
1554877954556,-0.5027977,9.648928,1.7981004,-0.041962165,-0.29955,-0.009367007,-6.18,-25.199999,-34.26
1554877954576,-0.38787252,9.591465,1.7430321,-0.027912267,-0.27328277,-0.031969022,-6.66,-25.68,-33.6
1554877954596,-0.3232271,9.557945,1.7119064,-0.014473231000000001,-0.24396126,-0.064344876,-7.14,-25.5,-33.6
1554877954616,-0.28491869999999997,9.560339,1.7573976999999998,0.0026309968,-0.20792020000000003,-0.08205997,-6.8399997,-25.68,-34.32
1554877954637,-0.27294734,9.622589999999999,1.8842942999999999,0.017902628,-0.17798781,-0.084503435,-6.8999996,-25.38,-33.6
1554877954656,-0.27534159999999996,9.663293,1.9106313000000001,0.028898204,-0.16332704,-0.07717305,-7.3199997,-25.199999,-33.6
1554877954677,-0.33040990000000003,9.656111,1.8603516,0.027676472,-0.15599667,-0.06556661400000001,-7.3199997,-25.68,-32.82
1554877954696,-0.3423813,9.622589999999999,1.8148602999999999,0.017902628,-0.14561196,-0.04968411,-7.3199997,-25.5,-33.059998
1554877954717,-0.38547826,9.598647999999999,1.7837347,0.0032418616999999998,-0.13583810000000002,-0.035634212,-7.3199997,-25.56,-34.26
1554877954737,-0.4189981,9.603436,1.7597919999999998,-0.004699386,-0.11812301,-0.022806042999999998,-7.259999799999999,-25.68,-33.42
1554877954756,-0.41420954,9.591465,1.7981004,-0.012029769,-0.09918619,-0.008145277,-6.8999996,-25.56,-32.04
1554877954777,-0.41660379999999997,9.57231,1.8220432,-0.020581882,-0.09491013,0.008348084,-7.08,-25.68,-31.26
1554877954796,-0.44772938,9.529214,1.7957061999999997,-0.025468806,-0.097964466,0.016900198999999998,-7.62,-25.199999,-32.16
1554877954817,-0.4764607,9.519637,1.8244373999999999,-0.030966592999999997,-0.10162965,0.017511062,-8.099999,-25.08,-33.54
1554877954836,-0.4932206,9.610619999999999,1.8172544999999998,-0.037075244,-0.09735359,0.013235006499999999,-7.98,-25.199999,-33.84
1554877954857,-0.51716334,9.675264,1.8747171000000002,-0.051125145999999996,-0.09735359,0.0052937586,-7.68,-25.439999,-33.42
1554877954876,-0.5219519,9.629773,1.9680939,-0.060288124000000005,-0.09918619,0.0016285668,-7.98,-26.16,-32.88
1554877954896,-0.50040346,9.593859,2.0614705,-0.05417947,-0.09918619,0.0010177015,-7.9199996,-25.8,-33.719997
1554877954916,-0.43575802,9.555551,2.0973847,-0.039518702999999995,-0.09002321,0.0040720277000000004,-8.22,-24.96,-34.32
1554877954936,-0.43815228,9.469357,2.126116,-0.02852313,-0.07841677,0.010791546,-9.059999000000001,-25.14,-33.6
1554877954957,-0.43575802,9.505271,2.1572416000000003,-0.01691669,-0.06619947,0.0071263537,-8.88,-25.38,-33.0
1554877954976,-0.3615355,9.543579,2.1069617000000003,-0.008364579,-0.04237572,0.0052937586,-7.9199996,-25.14,-33.18
1554877954997,-0.30407290000000003,9.534002000000001,2.1069617000000003,-0.0034776558000000003,-0.019162841,0.0028502971000000004,-8.04,-25.32,-32.82
1554877955017,-0.22745611,9.629773,2.0925963,-0.00042332962,0.01138042,0.0016285668,-8.7,-25.199999,-32.34
1554877955037,-0.16520496,9.720756,2.0710478,-0.008364579,0.05414099,0.0059046233,-9.3,-24.84,-33.3
1554877955056,-0.13647367,9.663293,2.1476645,-0.014473231000000001,0.08834944,0.007737219300000001,-9.3,-24.779999,-34.079997999999996
1554877955078,-0.30407290000000003,9.620196,2.0997790000000003,-0.005921116999999999,0.104842804,0.012624141,-8.76,-24.84,-33.78
1554877955097,-0.45491222,9.550761999999999,2.0471049999999997,0.0044635925,0.117670976,0.02545231,-8.76,-25.199999,-33.3
1554877955116,-0.5243462,9.502875999999999,1.9920366000000003,0.0075179185,0.13294260000000002,0.03705875,-8.46,-24.779999,-33.719997
1554877955137,-0.60335726,9.4932995,2.0159793,0.010572244,0.14454904,0.053552113,-7.9199996,-24.84,-33.66
1554877955156,-0.6249057,9.4932995,2.0183737,0.01118311,0.14882511,0.06027163,-7.68,-25.38,-33.54
1554877955176,-0.66800267,9.481328,1.9800651999999999,0.010572244,0.14821424,0.06393682,-7.68,-25.199999,-33.84
1554877955198,-0.70870537,9.545974000000001,1.9704881999999997,0.005685323000000001,0.13905126,0.06638028,-7.9199996,-25.439999,-32.76
1554877955216,-0.7134939,9.605830000000001,1.9728824,-0.0010341948,0.12927741,0.059660766,-8.04,-25.68,-32.64
1554877955237,-0.6608198000000001,9.696813,2.011191,-0.008364579,0.115227506,0.05416298,-7.62,-25.439999,-33.0
1554877955257,-0.65363705,9.699207000000001,2.020768,-0.013862365,0.09995588,0.04927605400000001,-7.56,-25.14,-31.92
1554877955276,-0.69673395,9.668080999999999,2.020768,-0.0077537126000000005,0.08773858,0.038891345,-7.62,-25.199999,-31.08
1554877955296,-0.723071,9.6585045,2.0016138999999997,-0.0065319818,0.07552127,0.035226155,-6.48,-25.38,-30.72
1554877955317,-0.7326481,9.646533,2.0064023,-0.005310252,0.0626931,0.03217183,-6.48,-25.26,-31.199999
1554877955336,-0.7398309000000001,9.651321000000001,1.9920366000000003,-0.004699386,0.052919254000000006,0.033393558,-6.48,-25.26,-31.199999
1554877955357,-0.7996878000000001,9.641745,1.8890828000000002,0.0069070532999999995,0.0052717673,0.02300885,-7.7999997,-25.26,-32.76
1554877955376,-0.7733508000000001,9.670475999999999,1.9273912,0.014237436499999999,-0.008778133,0.016289333,-7.14,-24.9,-33.239998
1554877955397,-0.67757976,9.644139,1.9297855,0.023400415,-0.019162841,0.0059046233,-7.14,-25.439999,-32.219997
1554877955416,-0.600963,9.569917,1.9513340000000001,0.025843875,-0.013665055,-0.0032583552,-7.02,-25.14,-31.74
1554877955437,-0.53392327,9.567522,1.9656997,0.02278955,-0.007556403000000001,-0.008145277,-7.2,-24.48,-32.52
1554877955456,-0.5219519,9.569917,1.960911,0.018513493,0.0034391712,-0.008145277,-7.5,-24.9,-32.94
1554877955477,-0.50998056,9.601042,1.9728824,0.018513493,0.017489071999999998,-0.00264749,-7.62,-25.14,-33.54
1554877955496,-0.49800915,9.636956,1.977671,0.014237436499999999,0.040091086,0.008348084,-7.7999997,-25.439999,-34.2
1554877955517,-0.45012367,9.624985,2.0087965,0.013015706,0.055973582,0.01812193,-7.5,-25.68,-33.96
1554877955536,-0.44533512,9.624985,1.9992193999999999,0.01118311,0.06880175,0.02545231,-7.44,-25.14,-34.02
1554877955556,-0.42139238,9.57231,1.9872481,0.0038527271000000003,0.090182036,0.038280483,-7.3199997,-25.08,-33.899998
1554877955576,-0.43096948,9.57231,1.9537282,-0.0028667906,0.11034059,0.047443457,-7.08,-25.26,-34.02
1554877955596,-0.42857520000000005,9.562733999999999,1.9417567999999998,-0.0089754425,0.12988828,0.055384707000000005,-7.3799996,-25.26,-34.739998
1554877955617,-0.46209505,9.557945,1.8819,-0.004699386,0.15615548,0.0590499,-6.8399997,-25.26,-33.54
1554877955636,-0.505192,9.557945,1.9202085,-0.0077537126000000005,0.17936836,0.06454768,-6.8999996,-24.48,-32.94
1554877955657,-0.50040346,9.581888000000001,1.9226026999999999,-0.0071428474,0.19219653,0.07004547,-7.3199997,-24.06,-34.38
1554877955676,-0.5219519,9.58907,1.9585168000000002,-0.0028667906,0.19830519,0.077986725,-6.96,-24.6,-34.8
1554877955696,-0.53871185,9.58907,1.9656997,0.0014092660999999998,0.20380297,0.08226278,-7.02,-25.14,-34.62
1554877955717,-0.5913859,9.567522,1.9920366000000003,0.0050744577,0.19891605,0.084095374,-7.08,-25.32,-33.66
1554877955736,-0.6105401,9.624985,1.9537282,0.0007984009,0.20074864,0.09264749,-6.66,-25.08,-32.46
1554877955757,-0.6464542,9.665688000000001,1.960911,0.0014092660999999998,0.1928074,0.09081489599999999,-6.66,-25.14,-32.82
1554877955776,-0.65124273,9.6896305,1.9513340000000001,0.011793975,0.18730962,0.083484516,-6.42,-25.26,-32.579997999999996
1554877955796,-0.6273,9.656111,1.9704881999999997,0.018513493,0.18975307,0.0712672,-6.2999997,-25.08,-33.059998
1554877955817,-0.6177229000000001,9.670475999999999,1.977671,0.031952526,0.17814663,0.05477384,-6.42,-25.14,-33.54
1554877955836,-0.58420306,9.663293,1.9920366000000003,0.047835025999999996,0.17387058,0.030950097000000003,-5.7599998,-24.779999,-33.54
1554877955856,-0.57223165,9.703996,1.9345740000000002,0.05516541,0.16592932,0.016289333,-6.12,-24.779999,-34.02
1554877955876,-0.54350036,9.670475999999999,1.924997,0.05088935,0.15432289,0.0040720277000000004,-6.12,-25.08,-34.2
1554877955897,-0.57462597,9.648928,1.8890828000000002,0.041726373,0.12683396,-0.0044800859999999994,-5.94,-24.779999,-34.5
1554877955917,-0.6153286,9.620196,1.8651401,0.041726373,0.095068954,-0.01425393,-6.12,-24.72,-34.86
1554877955936,-0.6249057,9.617802000000001,1.8699286,0.048445888,0.07491041,-0.022195177000000003,-6.0,-25.26,-34.739998
1554877955956,-0.5698373999999999,9.622589999999999,1.9273912,0.059441462,0.059027907000000004,-0.019751716000000002,-5.7599998,-25.74,-34.38
1554877955977,-0.51716334,9.687236,1.9345740000000002,0.0710479,0.05108666,-0.018529985,-5.64,-25.74,-34.739998
1554877955996,-0.42618093,9.727939,1.9992193999999999,0.07410223,0.042534545,-0.0044800859999999994,-6.0,-25.5,-34.92
1554877956016,-0.42139238,9.703996,1.9106313000000001,0.07410223,0.033982433,0.004682893,-5.7,-25.08,-34.92
1554877956037,-0.41420954,9.682447,1.8603516,0.073491365,0.04314541,0.0059046233,-5.1,-25.199999,-33.84
1554877956057,-0.36871833,9.63935,1.8292258999999997,0.080821745,0.046810605,0.0040720277000000004,-5.1,-25.98,-33.54
1554877956076,-0.3328042,9.641745,1.7478206000000003,0.07898915,0.06391483,0.0059046233,-5.64,-26.16,-34.62
1554877956096,-0.31125572,9.663293,1.7023293999999998,0.07471309599999999,0.083462514,0.013235006499999999,-5.7,-25.68,-34.62
1554877956117,-0.33040990000000003,9.7135725,1.6041641000000002,0.050278485,0.13660778,0.021176254,-5.46,-25.859999,-34.32
1554877956136,-0.28252444,9.7135725,1.7286664,0.036228586,0.15676634,0.022397986,-5.04,-26.039998999999998,-33.719997
1554877956157,-0.28013015,9.665688000000001,1.8603516,0.050278485,0.16959451,0.024841446,-5.7599998,-25.38,-33.54
1554877956176,-0.24182175,9.565128,1.8148602999999999,0.07226964,0.17020538,0.028506637999999997,-5.22,-25.32,-34.5
1554877956197,-0.20111908,9.555551,1.6879636999999998,0.07898915,0.14515992,0.038280483,-4.08,-25.74,-34.68
1554877956217,-0.23463893,9.624985,1.5131816999999999,0.08204348,0.15249029,0.043778267,-4.56,-25.92,-34.38
1554877956236,-0.22985038,9.591465,1.5562786,0.0710479,0.18120095,0.04194567,-4.5,-26.34,-33.54
1554877956257,-0.23224466,9.620196,1.637684,0.06616098,0.18181182,0.043167405,-4.02,-26.4,-33.6
1554877956277,-0.23942748,9.641745,1.4940275,0.052721947000000005,0.18364443,0.048054325999999994,-4.14,-25.8,-34.739998
1554877956296,-0.24182175,9.675264,1.4629020000000001,0.027676472,0.18914221,0.043778267,-4.3199997,-25.859999,-34.8
1554877956317,-0.30407290000000003,9.663293,1.3886794,0.013015706,0.21602029,0.037669617999999995,-3.9599998,-25.619999,-34.2
1554877956336,-0.27773590000000004,9.703996,1.4221992,-0.016305827,0.22212893,0.038891345,-4.3199997,-25.98,-33.84
1554877956357,-0.27773590000000004,9.620196,1.2833313,-0.032799188,0.21968547,0.038280483,-4.44,-26.58,-32.7
1554877956376,-0.22266756,9.5794935,1.3671309,-0.026690535,0.20624644,0.040723942,-3.9599998,-26.039998999999998,-32.52
1554877956396,-0.20830189999999998,9.624985,1.446142,-0.00042332962,0.16959451,0.055995576,-4.02,-25.74,-33.6
1554877956417,-0.25618739999999995,9.656111,1.4557191,0.018513493,0.14393817,0.061493362999999995,-3.78,-25.619999,-34.38
1554877956437,-0.28013015,9.732727,1.3910737,0.017902628,0.14393817,0.056606437999999995,-3.48,-25.619999,-34.98
1554877956456,-0.25618739999999995,9.773430000000001,1.3719195,0.01118311,0.15615548,0.047443457,-3.36,-25.859999,-33.66
1554877956477,-0.21069619,9.751882,1.4557191,0.0026309968,0.15371202,0.035226155,-3.1799998,-26.099998,-33.899998
1554877956496,-0.18914771,9.754275,1.4796618000000001,0.01118311,0.13599694,0.026063178,-3.0,-25.74,-35.219997
1554877956516,-0.18914771,9.763853,1.4485363000000002,0.024622144,0.12927741,0.024841446,-3.0,-25.98,-34.26
1554877956536,-0.23224466,9.727939,1.4509305000000001,0.028898204,0.12133617,0.026674042000000002,-2.9399998,-26.22,-33.0
1554877956556,-0.25858167,9.742303999999999,1.4557191,0.028287336,0.104842804,0.027895773,-2.6399999,-26.4,-31.8
1554877956576,-0.29210153,9.699207000000001,1.4820561,0.028898204,0.090182036,0.023619715,-2.52,-26.099998,-32.399998
1554877956596,-0.29928434,9.701602000000001,1.498816,0.023400415,0.08773858,0.015678466999999998,-2.3999999,-25.439999,-34.32
1554877956616,-0.2681588,9.735122,1.5227587,0.016070031999999998,0.07552127,0.014456736999999999,-2.82,-26.039998999999998,-35.219997
1554877956636,-0.27055305,9.730332,1.5299416000000001,0.014848301999999999,0.06147137,0.01018068,-3.12,-26.34,-35.219997
1554877956657,-0.27773590000000004,9.72315,1.4796618000000001,0.0069070532999999995,0.041312817,0.008348084,-2.28,-25.859999,-34.26
1554877956677,-0.29210153,9.675264,1.4269878,0.0069070532999999995,0.038869355,0.0022394322,-2.22,-25.619999,-33.66
1554877956696,-0.29928434,9.670475999999999,1.4317763000000001,0.0050744577,0.038869355,-0.0075344117,-2.7,-25.859999,-33.899998
1554877956717,-0.33519846,9.708784,1.5083932,0.005685323000000001,0.041312817,-0.013032199,-2.8799999,-25.619999,-34.8
1554877956737,-0.34716985,9.703996,1.5371244,0.0075179185,0.03459330000000001,-0.016697392,-2.6399999,-25.98,-34.26
1554877956757,-0.38547826,9.715967,1.5179702,0.0069070532999999995,0.019932533,-0.017919121,-1.68,-26.519999,-32.34
1554877956777,-0.4189981,9.708784,1.4964218,0.009350514,0.007715228,-0.020973448,-1.56,-25.5,-32.88
1554877956796,-0.43575802,9.684841,1.4844503,0.0014092660999999998,0.0052717673,-0.02463864,-2.1,-25.74,-34.26
1554877956817,-0.42378664,9.694419,1.5012103,0.0050744577,-0.01305419,-0.023416907999999997,-2.3999999,-26.039998999999998,-35.1
1554877956836,-0.40463245,9.634561999999999,1.4341706,0.01240484,-0.008778133,-0.03502335,-2.7,-26.039998999999998,-35.52
1554877956856,-0.47167215,9.771035000000001,1.4174107,0.009350514,-0.0045020767,-0.031358156,-2.58,-26.4,-34.98
1554877956877,-0.48364350000000006,9.711179,1.4940275,-0.0010341948,-0.0063346727,-0.036855947,-2.3999999,-26.279999,-34.32
1554877956896,-0.46688359999999995,9.6896305,1.6017698,0.0007984009,-0.040543124,-0.03502335,-2.76,-26.34,-33.78
1554877956917,-0.4764607,9.715967,1.5467016000000002,0.0038527271000000003,-0.05703649,-0.033190752999999996,-2.82,-26.279999,-34.8
1554877956936,-0.4764607,9.718361999999999,1.5107874,0.006296188,-0.05703649,-0.027082099999999998,-2.82,-26.039998999999998,-35.64
1554877956957,-0.47885495,9.727939,1.5083932,0.011793975,-0.05642562,-0.022195177000000003,-2.9399998,-26.039998999999998,-35.64
1554877956976,-0.4932206,9.711179,1.5107874,0.013626571,-0.05703649,-0.014864795,-2.1599998,-26.16,-34.559998
1554877956997,-0.4644893,9.6896305,1.5107874,0.010572244,-0.061312545,-0.012421334,-1.4399998999999999,-25.74,-34.02
1554877957017,-0.48603779999999996,9.672871,1.5299416000000001,0.011793975,-0.07230812,-0.014864795,-2.58,-25.08,-34.559998
1554877957037,-0.50998056,9.715967,1.4868447,0.0050744577,-0.069253795,-0.014864795,-3.4199998,-25.619999,-34.559998
1554877957057,-0.48603779999999996,9.711179,1.5131816999999999,-0.005310252,-0.0674212,-0.02463864,-3.24,-26.58,-34.739998
1554877957077,-0.50040346,9.692024,1.5275473999999998,-0.0065319818,-0.06864293,-0.025249504,-3.1799998,-27.359999,-33.18
1554877957096,-0.5243462,9.687236,1.4748733,-0.0010341948,-0.06986465,-0.032579888,-2.6399999,-26.939999,-32.399998
1554877957116,-0.5147691,9.711179,1.4820561,0.0020201313,-0.06070168,-0.035634212,-2.82,-26.34,-33.0
1554877957136,-0.4932206,9.718361999999999,1.5467016000000002,0.0032418616999999998,-0.058869082,-0.035634212,-2.7,-26.46,-33.18
1554877957157,-0.49800915,9.663293,1.4916332,0.01118311,-0.06619947,-0.038688537,-2.7,-26.039998999999998,-33.96
1554877957177,-0.46927786,9.687236,1.4652961000000002,0.0044635925,-0.06619947,-0.03991027,-2.34,-25.619999,-33.96
1554877957196,-0.43815228,9.684841,1.5203645000000001,0.0032418616999999998,-0.071086384,-0.039299402000000004,-2.22,-25.74,-33.84
1554877957216,-0.45012367,9.675264,1.5059988000000002,0.0069070532999999995,-0.076584175,-0.03502335,-3.4199998,-26.22,-34.2
1554877957237,-0.47167215,9.675264,1.5371244,0.008739648000000001,-0.07597331,-0.031969022,-2.8799999,-25.98,-34.2
1554877957257,-0.42618093,9.708784,1.5969813,0.0020201313,-0.07902763,-0.027692964,-2.46,-25.26,-34.38
1554877957277,-0.44533512,9.663293,1.5179702,0.005685323000000001,-0.07291898,-0.028303832,-3.1799998,-25.859999,-34.14
1554877957296,-0.43336374,9.665688000000001,1.4964218,0.0014092660999999998,-0.058258217,-0.031969022,-3.36,-26.4,-33.18
1554877957316,-0.42139238,9.699207000000001,1.5586729,0.0014092660999999998,-0.052149568,-0.028914696,-3.4199998,-25.5,-33.899998
1554877957337,-0.42618093,9.675264,1.56825,0.0014092660999999998,-0.04604091,-0.02463864,-3.3,-25.619999,-35.34
1554877957356,-0.44054657,9.665688000000001,1.56825,0.0069070532999999995,-0.053371295,-0.02586037,-3.1799998,-26.099998,-35.04
1554877957376,-0.48364350000000006,9.687236,1.5323358999999999,0.0038527271000000003,-0.058258217,-0.022806042999999998,-3.4199998,-25.859999,-34.559998
1554877957397,-0.4764607,9.636956,1.4868447,0.0026309968,-0.052149568,-0.025249504,-2.76,-26.279999,-32.94
1554877957416,-0.47406640000000005,9.656111,1.5538843999999998,-0.0028667906,-0.050927836,-0.025249504,-2.34,-26.34,-32.04
1554877957437,-0.46688359999999995,9.692024,1.5490957,0.0014092660999999998,-0.070475526,-0.023416907999999997,-2.6399999,-26.279999,-33.719997
1554877957456,-0.4956149,9.684841,1.5490957,0.005685323000000001,-0.075362444,-0.016697392,-3.4199998,-26.279999,-34.5
1554877957477,-0.50758624,9.699207000000001,1.5083932,0.0050744577,-0.070475526,-0.013643065,-3.6,-25.74,-34.98
1554877957497,-0.48843205,9.699207000000001,1.5059988000000002,0.0026309968,-0.06864293,-0.013032199,-2.6399999,-26.34,-33.48
1554877957516,-0.47406640000000005,9.641745,1.5299416000000001,0.0014092660999999998,-0.07169725,-0.014864795,-3.0,-27.06,-33.48
1554877957537,-0.49082634,9.677659,1.5323358999999999,0.0007984009,-0.07291898,-0.013032199,-3.6,-26.4,-35.04
1554877957556,-0.49800915,9.668080999999999,1.5467016000000002,0.0075179185,-0.07352985,-0.011199603,-3.24,-26.16,-34.38
1554877957577,-0.50040346,9.706389999999999,1.5347302,0.01240484,-0.071086384,-0.013032199,-3.4199998,-25.859999,-34.559998
1554877957596,-0.505192,9.703996,1.5538843999999998,0.010572244,-0.07230812,-0.014864795,-3.24,-25.98,-34.02
1554877957616,-0.5123747999999999,9.706389999999999,1.5586729,0.008739648000000001,-0.08086023,-0.019140853,-3.6599998,-26.519999,-33.66
1554877957637,-0.531529,9.708784,1.5275473999999998,0.010572244,-0.0814711,-0.020973448,-4.3199997,-26.22,-34.2
1554877957656,-0.5411060999999999,9.682447,1.498816,0.016070031999999998,-0.08024937,-0.028914696,-4.3199997,-26.279999,-33.66
1554877957676,-0.54350036,9.665688000000001,1.5107874,0.02156782,-0.071086384,-0.031358156,-4.2,-26.46,-33.84
1554877957697,-0.50040346,9.6896305,1.498816,0.025233012000000003,-0.063756004,-0.033801615,-4.02,-26.46,-33.899998
1554877957716,-0.49800915,9.694419,1.5203645000000001,0.028898204,-0.06619947,-0.033190752999999996,-4.02,-26.64,-34.2
1554877957737,-0.53871185,9.694419,1.489239,0.030730799,-0.06314514,-0.033801615,-3.6599998,-26.76,-33.96
1554877957756,-0.51955765,9.701602000000001,1.4964218,0.025843875,-0.05276043,-0.033190752999999996,-3.48,-26.46,-32.28
1554877957776,-0.50040346,9.699207000000001,1.5179702,0.020346088000000002,-0.048484374000000004,-0.032579888,-3.54,-27.24,-31.26
1554877957797,-0.47167215,9.665688000000001,1.4868447,0.017902628,-0.05031697,-0.028914696,-3.54,-27.24,-31.08
1554877957816,-0.48843205,9.648928,1.498816,0.015459167,-0.05703649,-0.025249504,-3.6,-26.22,-31.679997999999998
1554877957837,-0.52913475,9.663293,1.4533247999999999,0.0075179185,-0.050927836,-0.018529985,-3.6,-26.46,-31.92
1554877957856,-0.52913475,9.682447,1.4844503,0.0026309968,-0.050927836,-0.016697392,-4.02,-26.76,-32.1
1554877957876,-0.53871185,9.7135725,1.4413534,0.0032418616999999998,-0.047262646,-0.015475661000000002,-4.74,-26.76,-32.34
1554877957896,-0.5506831999999999,9.72315,1.446142,0.0020201313,-0.034434475,-0.018529985,-4.56,-27.359999,-32.52
1554877957916,-0.5219519,9.677659,1.4940275,0.0038527271000000003,-0.035656203,-0.022195177000000003,-3.9599998,-26.519999,-32.219997
1554877957937,-0.5123747999999999,9.694419,1.4820561,0.0026309968,-0.039321396,-0.017308256,-3.54,-25.74,-31.98
1554877957956,-0.53871185,9.703996,1.4820561,0.008128785,-0.049095243,-0.019140853,-3.6599998,-26.279999,-32.28
1554877957977,-0.56744313,9.7135725,1.4150163999999998,0.006296188,-0.036877934,-0.020362582,-3.9599998,-26.58,-32.579997999999996
1554877957997,-0.5770202,9.711179,1.4437478000000001,0.0050744577,-0.023438900000000002,-0.021584312999999997,-3.8999998999999996,-26.939999,-33.12
1554877958017,-0.5554718000000001,9.701602000000001,1.4533247999999999,0.00018753561999999997,-0.020995437999999998,-0.017308256,-4.08,-27.06,-32.579997999999996
1554877958036,-0.57223165,9.680053,1.4365649,-0.00164506,-0.02466063,-0.01425393,-4.14,-26.88,-32.82
1554877958056,-0.5770202,9.672871,1.4868447,-0.005921116999999999,-0.02832582,-0.0069235469999999995,-4.44,-26.58,-34.2
1554877958077,-0.60335726,9.682447,1.4820561,-0.005921116999999999,-0.034434475,-0.0099778725,-4.7999997,-26.58,-34.38
1554877958096,-0.59378016,9.699207000000001,1.4557191,-0.005310252,-0.031380147000000004,-0.0099778725,-5.16,-26.4,-34.559998
1554877958117,-0.5913859,9.696813,1.4700848,-0.0022559254,-0.02221717,-0.0118104685,-4.74,-26.22,-33.66
1554877958136,-0.5818088,9.727939,1.4844503,-0.005921116999999999,-0.024049763999999998,-0.014864795,-4.02,-26.519999,-33.54
1554877958156,-0.5770202,9.732727,1.4676905,-0.0034776558000000003,-0.028936688,-0.018529985,-3.72,-26.699999,-34.2
1554877958177,-0.6368771,9.7135725,1.4341706,-0.0034776558000000003,-0.030158417000000003,-0.017308256,-3.6599998,-26.4,-33.899998
1554877958196,-0.65363705,9.715967,1.3910737,-0.005310252,-0.02221717,-0.014864795,-4.38,-26.099998,-34.26
1554877958216,-0.6440599,9.754275,1.4629020000000001,-0.012640635,-0.02466063,-0.019751716000000002,-4.56,-26.88,-34.02
1554877958237,-0.6608198000000001,9.682447,1.4676905,-0.005921116999999999,-0.047262646,-0.016086523999999998,-4.08,-27.06,-33.239998
1554877958256,-0.7039168,9.696813,1.4365649,0.0026309968,-0.050927836,-0.019140853,-4.56,-26.34,-33.18
1554877958276,-0.69912827,9.699207000000001,1.4150163999999998,0.0069070532999999995,-0.04787351,-0.022806042999999998,-5.16,-26.34,-33.78
1554877958297,-0.6703969,9.715967,1.4509305000000001,0.0007984009,-0.043597452,-0.027692964,-4.62,-25.98,-33.78
1554877958317,-0.6608198000000001,9.684841,1.4437478000000001,0.0007984009,-0.049706105,-0.031358156,-4.68,-25.8,-33.12
1554877958336,-0.66800267,9.6896305,1.4533247999999999,0.005685323000000001,-0.05398216,-0.03502335,-4.68,-26.279999,-31.619999
1554877958356,-0.6608198000000001,9.696813,1.4269878,0.0026309968,-0.055814758,-0.036855947,-3.78,-26.64,-31.08
1554877958377,-0.6392714,9.656111,1.4700848,0.00018753561999999997,-0.05703649,-0.035634212,-3.72,-26.88,-30.96
1554877958396,-0.6656084,9.653716000000001,1.4581133,0.00018753561999999997,-0.058258217,-0.031358156,-4.2599998,-26.82,-31.019999
1554877958416,-0.67279124,9.653716000000001,1.4676905,-0.0028667906,-0.055203892000000004,-0.027082099999999998,-4.62,-26.58,-32.219997
1554877958437,-0.65124273,9.675264,1.4940275,-0.009586308,-0.055203892000000004,-0.022195177000000003,-3.84,-27.0,-31.98
1554877958456,-0.6608198000000001,9.668080999999999,1.5371244,-0.014473231000000001,-0.059479948,-0.019140853,-3.6599998,-26.82,-32.399998
1554877958477,-0.6608198000000001,9.668080999999999,1.5059988000000002,-0.0108080385,-0.069253795,-0.019751716000000002,-5.04,-26.4,-33.6
1554877958496,-0.65842557,9.694419,1.5323358999999999,-0.008364579,-0.069253795,-0.019140853,-5.58,-26.34,-33.78
1554877958516,-0.66321415,9.677659,1.5323358999999999,-0.0108080385,-0.06681033,-0.019140853,-5.04,-26.22,-34.32
1554877958537,-0.6488484999999999,9.646533,1.5754328000000002,-0.012640635,-0.07169725,-0.017308256,-4.98,-26.34,-33.42
1554877958556,-0.69673395,9.668080999999999,1.5490957,-0.012029769,-0.07841677,-0.016697392,-4.7999997,-26.279999,-33.3
1554877958576,-0.7039168,9.653716000000001,1.515576,-0.015694961,-0.068032056,-0.017308256,-4.14,-26.34,-34.14
1554877958596,-0.6847626,9.677659,1.5347302,-0.019971019,-0.06864293,-0.016086523999999998,-4.08,-26.34,-33.899998
1554877958616,-0.6943397,9.706389999999999,1.5610671999999999,-0.021803614,-0.07230812,-0.015475661000000002,-4.68,-26.4,-33.96
1554877958637,-0.723071,9.699207000000001,1.5802213999999999,-0.023636209,-0.07841677,-0.016086523999999998,-4.8599997,-26.64,-33.6
1554877958656,-0.7039168,9.682447,1.6065584,-0.023636209,-0.0833037,-0.016697392,-5.1,-26.519999,-33.54
1554877958676,-0.70631105,9.680053,1.5562786,-0.023025342999999997,-0.095520996,-0.016086523999999998,-5.64,-26.46,-33.84
1554877958697,-0.7015225,9.699207000000001,1.56825,-0.02607967,-0.10468397,-0.023416907999999997,-5.8799996,-26.699999,-33.84
1554877958716,-0.71828246,9.73991,1.5706443,-0.026690535,-0.104073115,-0.020973448,-5.4,-26.16,-34.2
1554877958737,-0.7326481,9.665688000000001,1.5538843999999998,-0.019971019,-0.10590571,-0.028303832,-4.5,-26.16,-32.7
1554877958756,-0.7637736999999999,9.644139,1.5993756000000001,-0.0108080385,-0.10773830000000001,-0.03074729,-4.68,-26.82,-30.779999
1554877958777,-0.76616794,9.680053,1.5993756000000001,-0.0010341948,-0.118733875,-0.03502335,-5.1,-26.699999,-31.439999
1554877958796,-0.73743665,9.670475999999999,1.5706443,0.0007984009,-0.12606426,-0.035634212,-5.46,-26.279999,-32.7
1554877958817,-0.7326481,9.651321000000001,1.5658557,0.006296188,-0.13095118,-0.042964595999999994,-5.46,-26.22,-33.3
1554877958836,-0.7110996,9.665688000000001,1.5419129999999999,0.008739648000000001,-0.13583810000000002,-0.04968411,-5.4,-26.039998999999998,-33.96
1554877958856,-0.69194543,9.670475999999999,1.5443072,0.006296188,-0.13583810000000002,-0.04601892,-5.58,-26.099998,-34.2
1554877958877,-0.67757976,9.672871,1.5754328000000002,0.0044635925,-0.14500108,-0.048462383,-5.46,-26.519999,-34.079997999999996
1554877958896,-0.68236834,9.634561999999999,1.5921928,0.0014092660999999998,-0.14194676,-0.044186324000000006,-5.7,-26.039998999999998,-33.96
1554877958917,-0.68236834,9.672871,1.6233183,-0.0089754425,-0.14011417,-0.040521134,-6.0,-25.859999,-33.899998
1554877958936,-0.69194543,9.644139,1.6281068,-0.012640635,-0.1395033,-0.038077675,-6.06,-26.279999,-33.54
1554877958956,-0.65842557,9.629773,1.6448668000000002,-0.019360151000000003,-0.14011417,-0.034412485,-6.24,-26.76,-33.42
1554877958977,-0.6177229000000001,9.627379,1.6041641000000002,-0.025468806,-0.13705982,-0.026471235,-6.06,-26.82,-33.36
1554877958996,-0.6105401,9.641745,1.620924,-0.031577457,-0.13644898,-0.023416907999999997,-5.58,-25.859999,-33.12
1554877959016,-0.6081458000000001,9.651321000000001,1.6592325,-0.032799188,-0.13705982,-0.01425393,-5.94,-25.98,-33.6
1554877959036,-0.58420306,9.665688000000001,1.6807808999999998,-0.029744862,-0.13217291,-0.0099778725,-6.66,-26.34,-33.84
1554877959057,-0.6201171999999999,9.653716000000001,1.6712039,-0.022414477999999998,-0.12056647,-0.01425393,-6.72,-26.039998999999998,-33.66
1554877959077,-0.6296943,9.656111,1.6975409,-0.020581882,-0.110181764,-0.013643065,-6.72,-26.22,-33.239998
1554877959096,-0.6177229000000001,9.634561999999999,1.7047237000000002,-0.015694961,-0.10590571,-0.013643065,-6.96,-26.34,-33.3
1554877959117,-0.6153286,9.632168,1.7023293999999998,-0.008364579,-0.09918619,-0.015475661000000002,-6.6,-25.98,-33.84
1554877959136,-0.63208854,9.622589999999999,1.6616267,-0.005921116999999999,-0.08757975,-0.017308256,-6.6,-25.74,-33.78
1554877959156,-0.61293435,9.646533,1.7023293999999998,-0.0089754425,-0.069253795,-0.013643065,-7.3199997,-26.099998,-33.0
1554877959176,-0.5889916000000001,9.668080999999999,1.7238779,-0.005310252,-0.061923407,-0.0099778725,-6.6,-26.039998999999998,-32.88
1554877959196,-0.600963,9.651321000000001,1.7023293999999998,0.0007984009,-0.061923407,-0.011199603,-6.2999997,-25.98,-33.48
1554877959217,-0.6177229000000001,9.660899,1.7119064,-0.0022559254,-0.054593027,-0.01425393,-7.74,-25.92,-34.02
1554877959237,-0.6344828,9.641745,1.7262721,-0.0028667906,-0.049095243,-0.017919121,-7.44,-25.619999,-33.719997
1554877959256,-0.6488484999999999,9.656111,1.7166951000000001,-0.0040885209999999995,-0.05031697,-0.020973448,-6.8399997,-25.74,-33.66
1554877959282,-0.6656084,9.651321000000001,1.6879636999999998,-0.00042332962,-0.052149568,-0.022195177000000003,-7.02,-25.98,-33.54
1554877959296,-0.69194543,9.651321000000001,1.673598,-0.0022559254,-0.04543005,-0.019751716000000002,-7.02,-25.98,-33.84
1554877959318,-0.6847626,9.672871,1.7023293999999998,-0.0065319818,-0.050927836,-0.021584312999999997,-7.3799996,-26.099998,-33.96
1554877959337,-0.6943397,9.651321000000001,1.673598,-0.0077537126000000005,-0.04604091,-0.019140853,-7.5,-26.039998999999998,-33.6
1554877959357,-0.723071,9.670475999999999,1.6496553,-0.012029769,-0.040543124,-0.015475661000000002,-7.44,-25.92,-33.78
1554877959377,-0.72785956,9.677659,1.6975409,-0.012640635,-0.042986587,-0.017308256,-6.8399997,-26.46,-33.0
1554877959397,-0.7398309000000001,9.636956,1.6951466,-0.0040885209999999995,-0.05642562,-0.017919121,-7.08,-26.519999,-32.219997
1554877959417,-0.723071,9.641745,1.6783867,-0.0022559254,-0.06253427,-0.020973448,-7.14,-25.92,-32.88
1554877959437,-0.73743665,9.641745,1.6424724999999998,-0.0089754425,-0.054593027,-0.021584312999999997,-6.96,-25.68,-33.239998
1554877959456,-0.7326481,9.672871,1.6592325,-0.012029769,-0.039321396,-0.022806042999999998,-7.259999799999999,-26.039998999999998,-33.54
1554877959477,-0.7446195,9.648928,1.6783867,-0.0089754425,-0.02832582,-0.017919121,-6.7799997,-26.939999,-32.88
1554877959496,-0.7637736999999999,9.651321000000001,1.6712039,-0.005310252,-0.023438900000000002,-0.022806042999999998,-6.6,-26.699999,-32.1
1554877959516,-0.7637736999999999,9.646533,1.6568381999999997,-0.004699386,-0.019162841,-0.017919121,-7.3799996,-25.74,-32.94
1554877959537,-0.7781393,9.641745,1.6879636999999998,-0.0077537126000000005,-0.020995437999999998,-0.019751716000000002,-7.56,-26.939999,-33.96
1554877959556,-0.7685622,9.660899,1.7023293999999998,-0.005921116999999999,-0.026493225,-0.021584312999999997,-7.259999799999999,-27.0,-33.719997
1554877959577,-0.74701375,9.644139,1.6520496999999998,-0.0071428474,-0.021606304,-0.020362582,-7.08,-26.699999,-33.059998
1554877959596,-0.7996878000000001,9.648928,1.6305011999999999,-0.0071428474,-0.017941112,-0.022195177000000003,-7.08,-26.58,-32.399998
1554877959616,-0.7709564999999999,9.648928,1.6712039,-0.0065319818,-0.016108517,-0.022195177000000003,-7.259999799999999,-25.92,-31.679997999999998
1554877959637,-0.81165916,9.636956,1.6616267,-0.0022559254,-0.017941112,-0.017919121,-7.3799996,-26.22,-32.04
1554877959657,-0.7996878000000001,9.627379,1.6831752,-0.0065319818,-0.018551977,-0.017308256,-7.74,-26.099998,-33.36
1554877959677,-0.7996878000000001,9.632168,1.664021,-0.0108080385,-0.017330248,-0.01425393,-7.3199997,-26.34,-33.6
1554877959696,-0.80208206,9.615408,1.6855695,-0.0108080385,-0.019162841,-0.013643065,-7.259999799999999,-26.76,-33.0
1554877959716,-0.8140534,9.617802000000001,1.6783867,-0.009586308,-0.014275921,-0.0118104685,-7.68,-26.699999,-32.7
1554877959736,-0.7805335999999999,9.629773,1.6831752,-0.009586308,-0.009388999,-0.012421334,-7.44,-26.64,-31.439999
1554877959756,-0.7589851,9.651321000000001,1.7071179,-0.010197173,-0.009999864,-0.006312681999999999,-7.02,-27.0,-30.359999
1554877959777,-0.7781393,9.629773,1.6975409,-0.014473231000000001,-0.014886786,-0.005090951,-7.2,-26.82,-31.199999
1554877959797,-0.7972935,9.629773,1.6879636999999998,-0.014473231000000001,-0.01183246,-0.0044800859999999994,-7.14,-25.68,-31.859999
1554877959816,-0.8284190999999999,9.641745,1.6855695,-0.016305827,-0.007556403000000001,-0.005701816,-7.02,-25.619999,-32.64
1554877959836,-0.80208206,9.648928,1.7430321,-0.01691669,-0.007556403000000001,-0.008145277,-6.8399997,-26.099998,-33.84
1554877959857,-0.7972935,9.636956,1.7573976999999998,-0.018749287,-0.010610729,-0.0069235469999999995,-6.72,-25.92,-34.2
1554877959876,-0.7853220999999999,9.646533,1.7286664,-0.019360151000000003,-0.01183246,-0.0038692203999999997,-7.08,-25.74,-33.719997
1554877959897,-0.80687064,9.641745,1.7262721,-0.020581882,-0.008167269,-0.0032583552,-7.3799996,-26.46,-33.36
1554877959917,-0.80687064,9.648928,1.7310607,-0.019360151000000003,-0.0026694809999999996,-0.0032583552,-7.74,-26.46,-33.899998
1554877959936,-0.7901106999999999,9.672871,1.7573976999999998,-0.020581882,-0.0026694809999999996,-0.0020366246,-7.74,-26.16,-33.96
1554877959957,-0.7853220999999999,9.665688000000001,1.7406378,-0.019971019,-0.010610729,-0.0008148942999999999,-7.259999799999999,-26.279999,-33.3
1554877959977,-0.7972935,9.608225,1.7693691000000003,-0.015084096000000002,-0.015497651000000001,-0.0014257594,-7.44,-25.98,-33.36
1554877959997,-0.8236305,9.629773,1.7478206000000003,-0.01691669,-0.013665055,-0.00020402900000000002,-7.74,-25.8,-32.88
1554877960016,-0.7996878000000001,9.632168,1.7909175,-0.013862365,-0.015497651000000001,-0.0008148942999999999,-7.44,-25.859999,-32.579997999999996
1554877960037,-0.80687064,9.605830000000001,1.7502148999999998,-0.01691669,-0.017330248,0.0034611626,-7.3799996,-26.4,-33.36
1554877960056,-0.8140534,9.644139,1.7669748,-0.018749287,-0.017941112,0.0034611626,-7.3199997,-26.64,-33.3
1554877960076,-0.80208206,9.608225,1.7813405,-0.02607967,-0.018551977,0.0071263537,-7.3199997,-26.039998999999998,-33.3
1554877960097,-0.8140534,9.624985,1.7765520000000001,-0.032188322000000005,-0.020995437999999998,0.010791546,-7.02,-25.859999,-33.0
1554877960119,-0.7948991999999999,9.615408,1.8052831999999999,-0.038296975,-0.024049763999999998,0.017511062,-6.72,-26.279999,-32.579997999999996
1554877960137,-0.7853220999999999,9.646533,1.8292258999999997,-0.04257303,-0.036267072000000004,0.024841446,-7.2,-26.279999,-32.46
1554877960156,-0.8236305,9.629773,1.8483802,-0.041962165,-0.03871053,0.032782696,-7.68,-26.279999,-31.74
1554877960177,-0.818842,9.615408,1.8579572,-0.038296975,-0.036877934,0.034615293,-7.3199997,-26.46,-31.32
1554877960196,-0.7996878000000001,9.613013,1.8627458,-0.03646438,-0.033212744,0.033393558,-6.96,-26.519999,-31.439999
1554877960219,-0.7685622,9.620196,1.908237,-0.030966592999999997,-0.036877934,0.027284907,-7.259999799999999,-26.16,-31.679997999999998
1554877960237,-0.74222517,9.581888000000001,1.9369683000000002,-0.029744862,-0.039932262,0.021787117999999998,-7.02,-25.859999,-32.579997999999996
1554877960256,-0.7446195,9.591465,1.9393626,-0.027912267,-0.0374888,0.012624141,-7.2,-25.619999,-34.32
1554877960277,-0.7637736999999999,9.557945,1.9202085,-0.024857938,-0.03382361,0.0034611626,-7.7999997,-25.619999,-35.04
1554877960296,-0.74222517,9.586677,1.8866886000000003,-0.017527558000000002,-0.022828032999999998,-0.00020402900000000002,-7.74,-26.039998999999998,-34.079997999999996
1554877960317,-0.7733508000000001,9.569917,1.9273912,-0.01691669,-0.009388999,-0.0118104685,-7.3799996,-26.099998,-32.64
1554877960336,-0.7829279,9.613013,1.9513340000000001,-0.014473231000000001,0.0028283063,-0.011199603,-7.3799996,-25.8,-32.64
1554877960356,-0.7829279,9.622589999999999,1.9369683000000002,-0.012029769,0.004660902,-0.008145277,-7.44,-25.32,-33.84
1554877960377,-0.7781393,9.620196,1.9585168000000002,-0.010197173,-0.0014477507,0.00040683625,-7.68,-25.74,-33.54
1554877960396,-0.7637736999999999,9.641745,1.9321798,-0.0028667906,-0.010610729,0.0052937586,-8.22,-25.98,-33.12
1554877960416,-0.7805335999999999,9.632168,1.8962656000000002,-0.00042332962,-0.015497651000000001,0.0065154885,-7.98,-26.16,-32.28
1554877960436,-0.7781393,9.598647999999999,1.8531687,0.0014092660999999998,-0.008167269,0.004682893,-7.9199996,-25.98,-32.52
1554877960457,-0.7709564999999999,9.610619999999999,1.8603516,-0.00164506,-0.0032803463,0.0022394322,-7.98,-25.14,-33.54
1554877960476,-0.7781393,9.5794935,1.8842942999999999,0.0038527271000000003,-0.009388999,-0.0014257594,-7.56,-25.199999,-33.899998
1554877960497,-0.7733508000000001,9.601042,1.8723229,0.0038527271000000003,-0.011221595,-0.0038692203999999997,-7.56,-25.74,-33.42
1554877960517,-0.7901106999999999,9.622589999999999,1.8435916,0.0014092660999999998,-0.01183246,-0.0038692203999999997,-7.7999997,-25.199999,-32.64
1554877960536,-0.75180227,9.624985,1.8555629,0.0020201313,-0.0124433255,-0.010588738,-7.5,-24.84,-33.12
1554877960557,-0.7589851,9.620196,1.8675343999999998,0.010572244,-0.016719381999999998,-0.013032199,-7.9199996,-25.439999,-33.48
1554877960576,-0.7541966,9.613013,1.8723229,0.013626571,-0.020384572,-0.012421334,-8.16,-25.8,-33.6
1554877960596,-0.749408,9.624985,1.8842942999999999,0.009350514,-0.029547552,-0.0099778725,-7.9199996,-25.619999,-33.42
1554877960616,-0.75659084,9.622589999999999,1.8603516,0.0038527271000000003,-0.02710409,-0.0099778725,-7.98,-25.619999,-33.12
1554877960636,-0.7589851,9.617802000000001,1.8771113999999998,-0.004699386,-0.020995437999999998,-0.008756143000000001,-8.22,-25.859999,-33.3
1554877960657,-0.7350424,9.636956,1.8890828000000002,-0.0071428474,-0.031380147000000004,-0.008756143000000001,-8.099999,-25.439999,-33.42
1554877960678,-0.7302538000000001,9.615408,1.8459859,-0.0089754425,-0.040543124,-0.0044800859999999994,-7.8599997,-25.019999,-33.54
1554877960697,-0.7446195,9.603436,1.8627458,-0.010197173,-0.042986587,-0.0032583552,-7.7999997,-25.619999,-33.18
1554877960716,-0.7350424,9.613013,1.9130256,-0.01691669,-0.041153993,0.0034611626,-7.3199997,-26.039998999999998,-33.18
1554877960736,-0.72785956,9.610619999999999,1.9273912,-0.022414477999999998,-0.03871053,0.00895895,-7.2,-26.16,-32.64
1554877960757,-0.70631105,9.593859,1.9202085,-0.014473231000000001,-0.044208317999999996,0.004682893,-7.7999997,-26.76,-31.26
1554877960777,-0.7015225,9.591465,1.8914771000000001,-0.0132515,-0.04787351,0.01018068,-8.099999,-26.519999,-31.32
1554877960797,-0.70870537,9.586677,1.8914771000000001,-0.009586308,-0.039932262,0.008348084,-7.74,-26.099998,-32.46
1554877960817,-0.70631105,9.608225,1.9058428,-0.010197173,-0.030769282999999998,0.0071263537,-7.74,-25.56,-33.42
1554877960837,-0.69194543,9.603436,1.9441511999999999,-0.0108080385,-0.020995437999999998,0.0016285668,-8.16,-25.8,-32.76
1554877960856,-0.68236834,9.593859,1.9226026999999999,-0.010197173,-0.014886786,0.0022394322,-8.46,-25.859999,-32.46
1554877960876,-0.68236834,9.622589999999999,1.8819,-0.005310252,-0.014275921,0.0016285668,-8.88,-25.439999,-33.18
1554877960897,-0.6847626,9.596252999999999,1.9058428,-0.0040885209999999995,-0.013665055,-0.00020402900000000002,-8.34,-25.56,-33.66
1554877960917,-0.70631105,9.617802000000001,1.908237,-0.0077537126000000005,-0.01183246,-0.0008148942999999999,-9.179999,-25.32,-32.94
1554877960936,-0.70631105,9.620196,1.9226026999999999,-0.0071428474,-0.011221595,0.0040720277000000004,-9.36,-26.039998999999998,-32.76
1554877960957,-0.69912827,9.601042,1.9273912,-0.004699386,-0.0124433255,0.0040720277000000004,-8.28,-26.16,-33.12
1554877960976,-0.69673395,9.620196,1.9010541,-0.00164506,-0.01305419,0.004682893,-7.74,-25.439999,-32.7
1554877960997,-0.68715686,9.624985,1.8675343999999998,-0.005310252,-0.010610729,0.0071263537,-7.56,-25.8,-32.46
1554877961016,-0.7110996,9.603436,1.8890828000000002,-0.0089754425,-0.0124433255,0.0059046233,-8.04,-25.439999,-31.98
1554877961036,-0.70870537,9.598647999999999,1.8986599999999998,-0.014473231000000001,-0.017941112,0.0065154885,-7.7999997,-25.74,-30.539998999999998
1554877961057,-0.7110996,9.613013,1.8866886000000003,-0.014473231000000001,-0.020384572,0.0052937586,-7.8599997,-25.56,-30.72
1554877961077,-0.73743665,9.624985,1.8914771000000001,-0.0108080385,-0.023438900000000002,0.0052937586,-7.8599997,-25.74,-31.859999
1554877961097,-0.69673395,9.629773,1.8938714,-0.012029769,-0.027714957000000002,0.0016285668,-7.8599997,-25.92,-31.74
1554877961117,-0.7015225,9.596252999999999,1.9226026999999999,-0.011418903999999999,-0.029547552,0.0016285668,-8.34,-25.859999,-31.26
1554877961136,-0.6895511,9.574705,1.9034485,-0.004699386,-0.031991012,-0.00264749,-8.22,-26.279999,-30.96
1554877961156,-0.6895511,9.605830000000001,1.9178141,-0.004699386,-0.030158417000000003,-0.00264749,-7.7999997,-26.039998999999998,-30.66
1554877961177,-0.69194543,9.624985,1.9321798,-0.00164506,-0.02588236,-0.00264749,-8.16,-25.5,-30.779999
1554877961197,-0.6847626,9.622589999999999,1.9297855,-0.0034776558000000003,-0.021606304,-0.0020366246,-8.04,-25.56,-31.32
1554877961217,-0.67279124,9.596252999999999,1.9226026999999999,-0.005310252,-0.013665055,-0.0014257594,-7.98,-25.08,-32.52
1554877961237,-0.6656084,9.58907,1.9585168000000002,-0.005310252,-0.010610729,0.0022394322,-8.34,-25.199999,-33.3
1554877961256,-0.6608198000000001,9.603436,1.9441511999999999,-0.004699386,-0.007556403000000001,0.0028502971000000004,-8.04,-25.26,-32.219997
1554877961278,-0.65363705,9.615408,1.9633054,-0.0077537126000000005,-0.0008368853999999999,0.008348084,-8.519999499999999,-26.039998999999998,-32.76
1554877961296,-0.66321415,9.610619999999999,1.924997,-0.0108080385,0.007715228,0.009569814,-8.4,-25.8,-33.66
1554877961316,-0.68236834,9.617802000000001,1.9154198,-0.009586308,0.018710801000000003,0.012013276000000002,-8.34,-25.14,-33.42
1554877961337,-0.6703969,9.586677,1.8962656000000002,-0.005310252,0.02665205,0.010791546,-8.22,-25.08,-33.0
1554877961357,-0.66800267,9.598647999999999,1.9178141,-0.00164506,0.02176513,0.0059046233,-8.099999,-25.98,-33.18
1554877961378,-0.6895511,9.598647999999999,1.9537282,0.0026309968,0.018099938,0.0022394322,-8.7,-26.039998999999998,-33.3
1554877961397,-0.7039168,9.627379,1.9226026999999999,0.0050744577,0.02176513,0.0034611626,-9.059999000000001,-25.5,-33.12
1554877961417,-0.723071,9.632168,1.9417567999999998,0.005685323000000001,0.016267342,0.0022394322,-8.16,-25.859999,-33.12
1554877961437,-0.73743665,9.627379,1.9130256,0.006296188,0.0058826325,0.0034611626,-7.68,-25.56,-32.94
1554877961456,-0.73743665,9.629773,1.9178141,0.0044635925,-0.010610729,0.0034611626,-7.7999997,-25.859999,-31.74
1554877961477,-0.74701375,9.608225,1.8819,-0.00042332962,-0.02466063,0.0016285668,-7.8599997,-26.16,-31.26
1554877961496,-0.7350424,9.605830000000001,1.9106313000000001,-0.004699386,-0.034434475,-0.0020366246,-7.68,-25.26,-32.04
1554877961516,-0.7206767,9.605830000000001,1.9537282,-0.0132515,-0.04543005,-0.0032583552,-7.56,-25.439999,-32.52
1554877961536,-0.7134939,9.596252999999999,1.977671,-0.0132515,-0.057647355,-0.00264749,-7.9199996,-25.439999,-32.82
1554877961556,-0.7039168,9.591465,1.9585168000000002,-0.019360151000000003,-0.06558860000000001,0.0010177015,-8.639999000000001,-25.74,-32.219997
1554877961577,-0.69673395,9.560339,1.9752767,-0.021192746000000002,-0.07902763,0.0016285668,-8.58,-26.64,-32.34
1554877961596,-0.7134939,9.593859,1.9297855,-0.024857938,-0.08880148,0.0052937586,-8.28,-26.099998,-33.239998
1554877961616,-0.6560313,9.603436,1.9393626,-0.03463178,-0.10040792,0.0065154885,-8.7,-25.5,-33.899998
1554877961636,-0.66321415,9.562733999999999,1.924997,-0.044405627999999996,-0.116901286,0.009569814,-8.82,-25.26,-34.14
1554877961657,-0.6656084,9.538791,1.9680939,-0.049903415,-0.13095118,0.018732794,-8.82,-25.14,-33.6
1554877961676,-0.6943397,9.541185,1.9345740000000002,-0.05906639599999999,-0.14683367,0.034615293,-9.42,-25.26,-33.48
1554877961697,-0.6847626,9.569917,1.9297855,-0.06822937,-0.15599667,0.043778267,-9.78,-25.26,-33.239998
1554877961716,-0.6943397,9.529214,1.9130256,-0.07006197,-0.16027272,0.05110865,-9.36,-25.439999,-33.0
1554877961737,-0.70870537,9.490905999999999,2.0016138999999997,-0.06639677,-0.14805539999999998,0.060882498,-8.76,-25.14,-32.399998
1554877961757,-0.69673395,9.371192,2.126116,-0.05356861,-0.1395033,0.07065634400000001,-8.519999499999999,-25.26,-31.859999
1554877961777,-0.59378016,9.337671,2.1332988999999998,-0.030966592999999997,-0.10101879,0.083484516,-9.059999000000001,-25.68,-31.08
1554877961796,-0.5147691,9.505271,2.1740015,-0.025468806,-0.022828032999999998,0.088371426,-9.12,-25.8,-31.14
1554877961817,-0.41181526,9.735122,2.300898,-0.019360151000000003,0.081629924,0.085317105,-9.78,-25.08,-31.74
1554877961837,-0.38308397,9.8787775,2.4158232,-0.0108080385,0.13844039,0.07615413,-9.78,-25.199999,-32.219997
1554877961857,-0.35674694,9.859624,2.4900458,0.013626571,0.17631404,0.055384707000000005,-10.08,-24.96,-33.42
1554877961877,-0.35674694,9.742303999999999,2.4277947,0.041115504,0.19097479999999997,0.026063178,-9.9,-25.26,-33.6
1554877961896,-0.44533512,9.677659,2.2697724999999997,0.06127406,0.20502470000000003,-0.0038692203999999997,-9.78,-24.72,-32.64
1554877961917,-0.5554718000000001,9.687236,2.0806248,0.06555012,0.24228747,-0.03502335,-8.82,-24.66,-33.48
1554877961937,-0.6057515,9.7135725,1.9656997,0.050278485,0.24473093,-0.05029498,-9.179999,-24.84,-33.78
1554877961957,-0.66321415,9.6896305,1.8411973999999998,0.027065607000000002,0.21846375,-0.06373401,-9.599999,-24.66,-33.36
1554877961977,-0.68236834,9.63935,1.7837347,0.01240484,0.17814663,-0.06373401,-9.179999,-24.84,-32.94
1554877961998,-0.7972935,9.433442999999999,1.6568381999999997,-0.0034776558000000003,0.08040819,-0.06190142,-9.12,-24.9,-31.74
1554877962016,-0.8475733,9.385557,1.6281068,0.00018753561999999997,0.030928109,-0.047240652,-9.3,-25.199999,-32.34
1554877962037,-0.9194015,9.397528999999999,1.6400781999999998,0.0038527271000000003,-0.05398216,-0.021584312999999997,-8.22,-25.019999,-33.42
1554877962056,-0.9481328000000001,9.4095,1.7358493000000002,-0.00042332962,-0.12056647,0.02545231,-8.4,-24.84,-33.36
1554877962076,-0.84996754,9.423865,1.8531687,-0.00042332962,-0.18104213,0.0590499,-9.3,-25.56,-33.54
1554877962096,-0.7134939,9.450203,1.8459859,-0.011418903999999999,-0.20853107,0.085317105,-8.76,-25.859999,-32.46
1554877962117,-0.6177229000000001,9.545974000000001,1.9369683000000002,-0.02852313,-0.204255,0.09997787,-8.34,-25.32,-33.059998
1554877962137,-0.54828894,9.720756,2.0902019,-0.03890784,-0.18226387,0.096923545,-8.76,-25.019999,-33.48
1554877962156,-0.46688359999999995,9.818921000000001,2.2123098,-0.032188322000000005,-0.15233147,0.0871497,-8.639999000000001,-24.539998999999998,-33.42
1554877962176,-0.3615355,9.821315,2.3224466,-0.019971019,-0.105294846,0.07004547,-8.46,-24.6,-33.36
1554877962196,-0.25858167,9.785401,2.3392065,-0.0065319818,-0.071086384,0.041334808,-9.0,-24.48,-32.04
1554877962216,-0.25139886,9.684841,2.2841382,0.0007984009,-0.032601878,0.0071263537,-9.42,-24.72,-31.8
1554877962237,-0.3328042,9.617802000000001,2.1548474,0.01240484,0.021154262000000004,-0.029525561000000002,-10.019999499999999,-25.38,-33.0
1554877962256,-0.38068968,9.581888000000001,2.0854135,0.018513493,0.059638776,-0.047851517999999996,-9.96,-24.9,-33.6
1554877962276,-0.43575802,9.526819,2.1069617000000003,0.028287336,0.07552127,-0.06495574,-9.42,-24.18,-33.3
1554877962297,-0.49082634,9.481328,2.0590763,0.04661329,0.06391483,-0.06617747,-9.179999,-24.3,-33.059998
1554877962317,-0.5698373999999999,9.486116,1.9824595,0.05211108,0.051697525999999994,-0.054571035999999996,-9.42,-24.96,-32.88
1554877962336,-0.5913859,9.505271,1.9489397000000002,0.049056754,0.041312817,-0.03502335,-9.179999,-25.08,-33.239998
1554877962357,-0.5865973000000001,9.488511,1.9489397000000002,0.03439599,0.02787378,-0.006312681999999999,-9.48,-24.48,-34.14
1554877962377,-0.55786604,9.45978,1.9537282,0.017902628,0.008936958,0.015678466999999998,-9.24,-24.539998999999998,-34.2
1554877962396,-0.50998056,9.498088000000001,2.0016138999999997,0.0014092660999999998,-0.0026694809999999996,0.03950221,-8.7,-24.42,-33.239998
1554877962417,-0.47167215,9.536397000000001,2.0327394,-0.005310252,-0.0124433255,0.05477384,-8.58,-24.539998999999998,-32.88
1554877962437,-0.45012367,9.593859,2.0087965,-0.011418903999999999,-0.0032803463,0.057217304000000004,-8.7,-24.96,-33.12
1554877962457,-0.39026679999999997,9.648928,2.0351336,-0.020581882,0.015656477,0.05782817,-9.3,-25.26,-33.96
1554877962477,-0.3519584,9.634561999999999,2.1117504,-0.025468806,0.02787378,0.052330382,-8.7,-25.199999,-33.719997
1554877962497,-0.35914123,9.634561999999999,2.0973847,-0.023025342999999997,0.038869355,0.048665192,-8.639999000000001,-24.96,-33.719997
1554877962516,-0.41181526,9.617802000000001,2.0590763,-0.0010341948,0.06941262,0.03583702,-8.94,-25.08,-33.66
1554877962537,-0.46927786,9.598647999999999,2.0159793,0.017291763999999998,0.10911886,0.030339234,-9.12,-24.96,-34.02
1554877962556,-0.45970076,9.577099,2.0710478,0.028287336,0.12255789,0.030339234,-8.82,-25.26,-33.6
1554877962577,-0.4764607,9.545974000000001,2.0590763,0.042948099999999996,0.13049914,0.029117502000000003,-9.24,-25.26,-33.6
1554877962596,-0.505192,9.596252999999999,1.9752767,0.051500215999999994,0.14821424,0.029117502000000003,-9.36,-24.84,-33.719997
1554877962616,-0.4932206,9.5794935,1.9848539,0.04661329,0.15982068,0.022397986,-8.94,-25.14,-32.88
1554877962636,-0.49800915,9.58907,1.9944308999999998,0.044169836,0.1610424,0.02423058,-9.059999000000001,-25.38,-33.48
1554877962657,-0.48843205,9.613013,1.9345740000000002,0.042948099999999996,0.16165328,0.026674042000000002,-8.82,-25.08,-34.2
1554877962676,-0.4764607,9.610619999999999,1.9585168000000002,0.045391562999999996,0.16715106,0.027284907,-8.82,-24.84,-33.42
1554877962697,-0.50758624,9.63935,1.9273912,0.043558966,0.17264885,0.031560965,-8.7,-25.08,-33.84
1554877962716,-0.5219519,9.617802000000001,1.9154198,0.037450317000000004,0.162875,0.03583702,-8.28,-25.439999,-33.36
1554877962736,-0.53871185,9.608225,1.8483802,0.025233012000000003,0.14149472,0.043167405,-8.16,-25.56,-32.16
1554877962757,-0.57462597,9.57231,1.812466,0.014848301999999999,0.13538606,0.047443457,-7.56,-25.8,-32.34
1554877962777,-0.5889916000000001,9.545974000000001,1.838803,0.0075179185,0.13172087,0.052330382,-7.5,-25.26,-33.12
1554877962797,-0.57462597,9.557945,1.9202085,0.01118311,0.12683396,0.061493362999999995,-7.68,-25.199999,-32.34
1554877962816,-0.48603779999999996,9.543579,1.9824595,0.02401128,0.13172087,0.067602016,-7.62,-25.38,-31.38
1554877962836,-0.47885495,9.574705,2.030345,0.047835025999999996,0.12561221,0.07065634400000001,-8.099999,-25.619999,-32.7
1554877962857,-0.4189981,9.591465,1.9800651999999999,0.061884925,0.14088385,0.06882375,-8.16,-25.199999,-33.899998
1554877962876,-0.38787252,9.608225,1.9728824,0.06616098,0.17509229999999998,0.05782817,-7.9199996,-25.019999,-34.2
1554877962896,-0.37350687,9.617802000000001,2.0279508,0.06616098,0.19891605,0.046832595,-7.74,-25.14,-34.14
1554877962916,-0.37590113,9.663293,2.0590763,0.06860445,0.21113336,0.038280483,-7.3199997,-25.199999,-33.239998
1554877962936,-0.39026679999999997,9.660899,2.030345,0.07654569,0.21174422,0.035226155,-7.74,-25.38,-33.66
1554877962956,-0.41420954,9.672871,2.0159793,0.073491365,0.22029634,0.032782696,-7.74,-25.439999,-34.5
1554877962977,-0.45970076,9.6585045,1.9561224999999998,0.0710479,0.23190278,0.029117502000000003,-7.14,-25.14,-34.02
1554877962997,-0.48364350000000006,9.617802000000001,1.8699286,0.067993574,0.23984402,0.029117502000000003,-7.2,-25.14,-33.84
1554877963018,-0.46927786,9.622589999999999,1.9058428,0.062495794,0.22579410000000003,0.03217183,-7.02,-25.26,-33.84
1554877963037,-0.4956149,9.653716000000001,1.8627458,0.06982617,0.18730962,0.041334808,-7.08,-25.8,-33.54
1554877963056,-0.5219519,9.6585045,1.7789462,0.07960001400000001,0.18730962,0.043167405,-6.6,-25.5,-33.899998
1554877963076,-0.5411060999999999,9.656111,1.7717633000000002,0.07898915,0.18975307,0.043167405,-6.6,-25.5,-33.899998
1554877963096,-0.47167215,9.682447,1.8220432,0.0728805,0.19097479999999997,0.047443457,-6.42,-26.099998,-33.54
1554877963116,-0.41420954,9.651321000000001,1.8052831999999999,0.06982617,0.16531846,0.053552113,-6.3599997,-26.46,-33.899998
1554877963136,-0.42618093,9.581888000000001,1.7119064,0.07715656,0.14821424,0.052330382,-6.12,-26.039998999999998,-33.84
1554877963156,-0.4764607,9.615408,1.637684,0.08693039400000001,0.14577077,0.047443457,-6.06,-26.039998999999998,-33.899998
1554877963176,-0.46688359999999995,9.684841,1.5969813,0.08876299,0.15920979999999998,0.040723942,-6.12,-26.34,-34.02
1554877963196,-0.43096948,9.7135725,1.6520496999999998,0.08998472,0.162875,0.029728367999999998,-5.8199997,-26.22,-34.32
1554877963217,-0.40223816,9.703996,1.6592325,0.09364992,0.15920979999999998,0.027895773,-5.58,-25.439999,-34.8
1554877963236,-0.38308397,9.684841,1.6089526,0.09303906,0.15982068,0.02545231,-4.98,-26.16,-33.059998
1554877963256,-0.36871833,9.601042,1.5730386,0.08815213,0.15493375,0.024841446,-5.04,-26.58,-31.8
1554877963277,-0.39266106,9.610619999999999,1.5467016000000002,0.08815213,0.14210558,0.030339234,-5.46,-26.58,-31.74
1554877963296,-0.42139238,9.648928,1.4581133,0.08876299,0.13111,0.027284907,-5.46,-26.76,-31.92
1554877963317,-0.46688359999999995,9.708784,1.4150163999999998,0.080821745,0.13782953,0.019954525,-5.04,-26.099998,-32.16
1554877963336,-0.49082634,9.814133,1.446142,0.07226964,0.15554462,0.00895895,-4.8599997,-26.279999,-32.82
1554877963357,-0.46927786,9.852441,1.4940275,0.060663197,0.15493375,-0.00264749,-5.2799997,-26.46,-33.36
1554877963376,-0.39984390000000003,9.787795,1.5562786,0.05516541,0.13355346,-0.008756143000000001,-5.4,-26.519999,-33.48
1554877963397,-0.32562137,9.773430000000001,1.4796618000000001,0.053943675,0.0907929,-0.0044800859999999994,-4.98,-26.4,-33.66
1554877963416,-0.31125572,9.759064,1.3719195,0.06371752,0.08040819,0.004682893,-4.68,-26.4,-34.14
1554877963436,-0.32083282,9.747093,1.2689656,0.080821745,0.09323636,0.0150676025,-4.38,-27.0,-33.719997
1554877963457,-0.34956414,9.708784,1.2426286,0.09364992,0.118281834,0.027895773,-4.38,-26.58,-33.36
1554877963476,-0.34477556,9.651321000000001,1.1971374,0.10159116,0.12744482,0.038280483,-4.44,-26.16,-34.02
1554877963497,-0.3519584,9.603436,1.2282629999999999,0.10159116,0.12866655,0.038280483,-4.7999997,-26.58,-34.2
1554877963516,-0.36632404,9.586677,1.1971374,0.09426078,0.118281834,0.030339234,-5.16,-26.699999,-33.78
1554877963536,-0.39505535,9.646533,1.1468576000000001,0.08448694,0.12133617,0.027895773,-4.92,-26.519999,-33.48
1554877963556,-0.43096948,9.773430000000001,1.1253091,0.073491365,0.12866655,0.021787117999999998,-4.2599998,-26.519999,-32.88
1554877963577,-0.42139238,9.75667,1.1348863,0.06616098,0.13782953,0.01812193,-3.84,-27.119999,-31.92
1554877963597,-0.36632404,9.747093,1.1205206,0.06127406,0.14210558,0.024841446,-3.9599998,-27.48,-32.04
1554877963616,-0.36632404,9.747093,1.1205206,0.06127406,0.14210558,0.024841446,-3.9599998,-27.48,-32.04
1554877963636,-0.35674694,9.794978,1.0870007,0.067382716,0.12194703,0.043167405,-3.8999998999999996,-26.88,-33.66
1554877963656,-0.3328042,9.835681,1.0822121999999998,0.06982617,0.12988828,0.045610864,-3.4199998,-26.88,-33.36
1554877963676,-0.33519846,9.802161,1.0798178999999999,0.07226964,0.12866655,0.044389132000000005,-3.72,-27.06,-33.239998
1554877963697,-0.34477556,9.818921000000001,1.0534808999999998,0.07898915,0.1207253,0.043778267,-4.38,-27.359999,-33.6
1554877963717,-0.35435268,9.814133,1.0319325000000001,0.08021089,0.11950357,0.04988692,-4.2,-27.42,-34.079997999999996
1554877963738,-0.32562137,9.80695,0.9696813,0.077767424,0.117670976,0.04255654,-3.48,-27.96,-33.059998
1554877963756,-0.3232271,9.751882,0.95531565,0.07898915,0.115227506,0.037669617999999995,-2.82,-28.019999,-31.619999
1554877963777,-0.3328042,9.706389999999999,0.9672870000000001,0.089373864,0.10911886,0.030339234,-2.8799999,-27.84,-32.1
1554877963796,-0.36392978,9.7135725,0.9433443000000001,0.09303906,0.11095145,0.02423058,-2.8799999,-27.66,-33.36
1554877963816,-0.35674694,9.732727,0.8978530999999998,0.09120646,0.112173185,0.021787117999999998,-3.54,-27.779999,-33.78
1554877963837,-0.3328042,9.816526,0.9194015,0.08387607,0.112173185,0.021787117999999998,-4.02,-27.96,-33.66
1554877963856,-0.3232271,9.804555,0.90024734,0.07715656,0.108508,0.02545231,-3.9599998,-27.359999,-33.48
1554877963877,-0.28731298,9.804555,0.91461295,0.07654569,0.10728626,0.024841446,-3.36,-27.599998,-33.48
1554877963896,-0.27534159999999996,9.799767,0.9074302,0.07410223,0.10423193,0.027895773,-3.36,-28.199999,-33.059998
1554877963917,-0.2466103,9.821315,0.9026415999999999,0.07226964,0.11034059,0.034615293,-3.4199998,-27.96,-32.399998
1554877963936,-0.23463893,9.804555,0.88588166,0.06555012,0.112173185,0.033393558,-3.12,-28.019999,-33.059998
1554877963957,-0.23703320000000003,9.775824,0.84996754,0.06432839,0.113394916,0.033393558,-2.9399998,-28.08,-33.42
1554877963976,-0.23942748,9.75667,0.85236186,0.06616098,0.118281834,0.030339234,-2.82,-27.48,-32.7
1554877963997,-0.25139886,9.73991,0.82602483,0.06432839,0.13172087,0.030950097000000003,-2.76,-27.48,-32.579997999999996
1554877964016,-0.22266756,9.73991,0.8379962,0.061884925,0.14760336,0.027284907,-2.8799999,-27.359999,-33.239998
1554877964036,-0.18675344,9.75667,0.8284190999999999,0.059441462,0.15432289,0.023619715,-2.76,-27.48,-33.78
1554877964057,-0.19633053,9.744699,0.8475733,0.054554544,0.15920979999999998,0.023619715,-2.82,-27.84,-33.719997
1554877964076,-0.21309046,9.75667,0.82602483,0.04661329,0.16898365,0.022397986,-2.76,-27.84,-33.3
1554877964097,-0.21548474,9.787795,0.82123625,0.03806118,0.17387058,0.019954525,-2.52,-28.38,-33.239998
1554877964116,-0.22985038,9.833286,0.81165916,0.029509068,0.17203797,0.01934366,-2.46,-28.439999,-33.36
1554877964136,-0.21309046,9.8237095,0.8044763,0.023400415,0.1769249,0.01934366,-2.46,-27.66,-32.94
1554877964157,-0.19633053,9.794978,0.83081335,0.018513493,0.16592932,0.019954525,-2.46,-27.24,-33.6
1554877964176,-0.20111908,9.792584,0.83081335,0.014237436499999999,0.14882511,0.023619715,-1.86,-27.96,-32.52
1554877964197,-0.22745611,9.816526,0.7781393,0.014848301999999999,0.14515992,0.026063178,-1.14,-28.32,-31.8
1554877964216,-0.26337022,9.826103999999999,0.7853220999999999,0.01240484,0.1469925,0.022397986,-1.5,-27.84,-33.42
1554877964236,-0.2657645,9.814133,0.7948991999999999,0.014848301999999999,0.13844039,0.022397986,-2.1,-28.14,-33.48
1554877964257,-0.23942748,9.876384,0.7781393,0.019124359,0.12500136,0.0150676025,-2.1599998,-28.98,-34.2
1554877964276,-0.23703320000000003,9.830893,0.75659084,0.020346088000000002,0.10728626,0.0059046233,-1.0799999,-28.68,-33.48
1554877964297,-0.23463893,9.749487,0.72785956,0.024622144,0.09690155,-0.00020402900000000002,-0.96,-28.08,-33.12
1554877964316,-0.26337022,9.775824,0.7446195,0.033174258,0.081629924,-0.005090951,-1.62,-28.199999,-33.18
1554877964336,-0.28252444,9.775824,0.66321415,0.03561772,0.07796473,-0.0038692203999999997,-1.56,-28.56,-33.18
1554877964357,-0.30167863,9.783007000000001,0.68236834,0.036228586,0.083462514,-0.006312681999999999,-1.1999999,-28.74,-33.78
1554877964377,-0.28252444,9.785401,0.7326481,0.03561772,0.07796473,-0.0075344117,-1.26,-29.039998999999998,-33.239998
1554877964397,-0.28013015,9.826103999999999,0.723071,0.033174258,0.0626931,-0.0069235469999999995,-1.86,-28.38,-33.0
1554877964416,-0.26097596,9.818921000000001,0.70631105,0.029509068,0.060860502999999996,-0.0099778725,-1.8,-27.3,-33.18
1554877964437,-0.25379312,9.797373,0.70631105,0.027676472,0.057195313,-0.010588738,-0.96,-27.539998999999998,-33.66
1554877964457,-0.22266756,9.809344,0.69673395,0.025233012000000003,0.0486432,-0.013643065,-1.1999999,-28.68,-34.32
1554877964476,-0.23463893,9.768641,0.7015225,0.020956952,0.04314541,-0.014864795,-1.8,-29.039998999999998,-34.14
1554877964497,-0.2466103,9.759064,0.6943397,0.023400415,0.051697525999999994,-0.013032199,-1.3199999,-28.619999,-33.239998
1554877964517,-0.26097596,9.790189999999999,0.70870537,0.026454741,0.05230839,-0.014864795,-1.26,-28.019999,-32.94
1554877964536,-0.25379312,9.826103999999999,0.69912827,0.024622144,0.052919254000000006,-0.012421334,-1.14,-28.199999,-33.48
1554877964557,-0.23463893,9.814133,0.6943397,0.020346088000000002,0.049254067,-0.0118104685,-0.84,-28.68,-33.42
1554877964576,-0.2466103,9.775824,0.679974,0.022178682999999998,0.050475795,-0.0099778725,-1.0799999,-28.859999,-32.94
