TimeStamp,Ax,Ay,Az,Gx,Gy,Gz,Mx,My,Mz
1554878828788,0.09337672,9.63935,2.1811842999999995,0.0014092660999999998,-0.009999864,0.00040683625,-21.96,-18.96,-31.92
1554878828809,0.098165266,9.593859,2.1668186,0.0032418616999999998,-0.00022602014,0.0028502971000000004,-22.32,-19.92,-32.52
1554878828828,0.071828246,9.581888000000001,2.176396,0.008128785,-0.0014477507,0.0022394322,-22.5,-19.8,-31.619999
1554878828848,0.071828246,9.538791,2.1835787,0.010572244,-0.01305419,-0.00264749,-22.439999,-19.02,-32.34
1554878828868,0.076616794,9.569917,2.2003386000000003,0.011793975,-0.020384572,-0.0099778725,-22.32,-19.32,-32.7
1554878828888,0.11013664,9.601042,2.2075214,0.0069070532999999995,-0.021606304,-0.013032199,-21.66,-19.32,-32.219997
1554878828909,0.102953814,9.581888000000001,2.2194927000000004,0.0032418616999999998,-0.019162841,-0.0118104685,-22.02,-18.6,-32.28
1554878828928,0.12689656,9.57231,2.2386470000000003,-0.005310252,-0.017330248,-0.011199603,-22.859999,-19.199999,-32.52
1554878828948,0.14605077,9.526819,2.2458298,-0.019360151000000003,-0.011221595,-0.0099778725,-22.619999,-19.8,-33.42
1554878828969,0.16520496,9.474146000000001,2.3128695,-0.024857938,-0.0124433255,-0.005090951,-22.619999,-19.439999,-33.48
1554878828988,0.14605077,9.507666,2.2841382,-0.030966592999999997,-0.014275921,0.0052937586,-22.32,-18.9,-32.64
1554878829009,0.16520496,9.641745,2.2410412,-0.04257303,0.007715228,0.022397986,-22.32,-19.14,-32.52
1554878829028,0.15083931,9.636956,2.300898,-0.037075244,0.015656477,0.027895773,-22.619999,-19.32,-33.0
1554878829048,0.1340794,9.596252999999999,2.317658,-0.014473231000000001,0.022375992999999997,0.027895773,-22.26,-19.32,-32.94
1554878829068,0.13647367,9.567522,2.3056867000000003,0.008128785,0.015656477,0.013235006499999999,-21.42,-19.68,-32.28
1554878829089,0.15562786,9.577099,2.291321,0.02278955,0.007104363000000001,-0.0014257594,-21.779999,-19.32,-32.34
1554878829109,0.14365649,9.562733999999999,2.2314641,0.030730799,0.01138042,-0.01425393,-22.68,-18.84,-32.52
1554878829128,0.10055954,9.543579,2.2147042999999997,0.03439599,0.018099938,-0.020362582,-22.32,-18.66,-32.94
1554878829149,0.10774237,9.534002000000001,2.2147042999999997,0.031952526,0.019932533,-0.019140853,-22.08,-18.539998999999998,-32.94
1554878829168,0.08140534,9.500483000000001,2.2673783,0.029509068,0.019932533,-0.017919121,-21.6,-18.6,-31.98
1554878829188,0.08140534,9.543579,2.2625897,0.022178682999999998,0.024819453999999998,-0.017919121,-21.66,-18.72,-31.859999
1554878829209,0.1699935,9.529214,2.2721667,0.013015706,0.02420859,-0.012421334,-22.199999,-19.199999,-32.1
1554878829228,0.21787901,9.488511,2.3224466,0.008128785,0.022375992999999997,-0.010588738,-21.9,-19.32,-32.46
1554878829249,0.19872479999999998,9.4932995,2.3535721,0.0050744577,0.026041185,-0.0020366246,-22.14,-19.199999,-32.76
1554878829268,0.22027329,9.536397000000001,2.3559662999999995,0.013015706,0.03581503,0.01018068,-22.02,-19.32,-32.579997999999996
1554878829288,0.25139886,9.536397000000001,2.3416007000000003,0.02278955,0.055973582,0.016289333,-21.42,-19.199999,-32.34
1554878829308,0.24182175,9.567522,2.3296294,0.030730799,0.08224079,0.01812193,-20.939999,-18.66,-33.059998
1554878829329,0.27055305,9.567522,2.3344178,0.041726373,0.11034059,0.012624141,-21.24,-19.32,-33.3
1554878829349,0.25139886,9.531608,2.308081,0.04722416,0.13172087,0.0065154885,-22.199999,-19.439999,-32.7
1554878829368,0.19633053,9.545974000000001,2.2793495999999998,0.045391562999999996,0.13905126,-0.00020402900000000002,-21.779999,-18.84,-32.52
1554878829388,0.13886794,9.608225,2.2218869999999997,0.03439599,0.14638163,0.0028502971000000004,-21.06,-18.779999,-31.74
1554878829408,0.05506832,9.57231,2.135693,0.028287336,0.15126856,0.00895895,-21.539998999999998,-19.02,-32.1
1554878829429,-0.023942748,9.545974000000001,2.1141446,0.019124359,0.15798809,0.012013276000000002,-21.96,-19.32,-33.3
1554878829448,-0.07901107,9.593859,2.126116,0.011793975,0.15493375,0.020565389,-22.439999,-19.14,-33.36
1554878829468,-0.07901107,9.641745,2.0638650000000003,0.0020201313,0.14577077,0.026063178,-21.84,-19.02,-33.239998
1554878829488,-0.043096945,9.663293,2.0710478,-0.012029769,0.13905126,0.026063178,-20.64,-18.9,-33.239998
1554878829509,-0.007182824399999999,9.605830000000001,2.0758362,-0.021803614,0.115227506,0.020565389,-20.64,-19.5,-33.48
1554878829528,-0.0023942748,9.593859,2.0351336,-0.023636209,0.09140376,0.01018068,-20.76,-19.859999,-33.48
1554878829548,-0.045491222000000005,9.620196,2.0423164000000003,-0.023636209,0.06819089,0.008348084,-20.76,-19.26,-32.94
1554878829569,-0.045491222000000005,9.646533,2.0399222,-0.029133997999999998,0.045588872999999995,0.010791546,-21.0,-19.38,-33.059998
1554878829589,-0.083799616,9.699207000000001,2.0040080000000002,-0.029744862,0.018099938,0.012013276000000002,-21.3,-19.98,-33.18
1554878829608,-0.105348095,9.720756,2.013585,-0.032799188,0.0009957103999999998,0.016900198999999998,-21.42,-19.98,-33.059998
1554878829628,-0.14605077,9.708784,2.116539,-0.020581882,-0.015497651000000001,0.019954525,-21.42,-19.56,-33.66
1554878829649,-0.13168511,9.670475999999999,2.2578009999999997,0.006296188,-0.036877934,0.017511062,-20.939999,-19.02,-33.84
1554878829668,-0.10055954,9.665688000000001,2.2961093999999997,0.039282914,-0.061923407,0.0052937586,-20.939999,-19.02,-33.719997
1554878829688,-0.057462595,9.668080999999999,2.3368123,0.06555012,-0.07841677,-0.0075344117,-21.66,-19.08,-33.719997
1554878829709,-0.014365649,9.665688000000001,2.2817439999999998,0.07593483,-0.0814711,-0.024027772000000003,-21.96,-18.6,-33.42
1554878829728,0.011971374,9.5794935,2.2625897,0.06616098,-0.070475526,-0.03991027,-21.9,-18.84,-33.36
1554878829748,0.045491222000000005,9.440625,2.2793495999999998,0.042948099999999996,-0.06864293,-0.052127574,-21.48,-18.779999,-33.719997
1554878829769,-0.06943397,9.366403,2.2242813,0.013015706,-0.07352985,-0.057014495,-20.88,-18.72,-33.96
1554878829788,-0.17478207,9.478933999999999,2.2314641,-0.03646438,-0.07475158,-0.041742865,-20.64,-19.74,-33.54
1554878829808,-0.25379312,9.591465,2.2530127,-0.07250543,-0.08086023,-0.019140853,-20.64,-20.1,-32.28
1554878829829,-0.25618739999999995,9.550761999999999,2.2841382,-0.09266398,-0.082692824,0.014456736999999999,-21.06,-19.92,-32.7
1554878829849,-0.30646718,9.534002000000001,2.3392065,-0.09999436,-0.104073115,0.044389132000000005,-21.84,-19.439999,-33.719997
1554878829868,-0.37111259,9.538791,2.308081,-0.09388571,-0.12667513,0.06393682,-21.3,-18.9,-33.54
1554878829888,-0.35674694,9.5483675,2.291321,-0.07617062,-0.14561196,0.07432153,-21.06,-18.779999,-33.0
1554878829909,-0.2681588,9.553157,2.2841382,-0.043183897,-0.15416406,0.06515855,-21.84,-18.359999,-33.12
1554878829928,-0.17238778,9.553157,2.310475,-0.008364579,-0.15905099,0.05110865,-21.48,-18.3,-33.6
1554878829949,-0.12929083,9.498088000000001,2.3799092999999996,0.017291763999999998,-0.15966184,0.030950097000000003,-21.6,-18.359999,-33.239998
1554878829968,-0.009577099,9.483723,2.4804687999999997,0.04722416,-0.15660752,0.012013276000000002,-22.08,-18.48,-33.059998
1554878829988,0.071828246,9.495694,2.5666625,0.06616098,-0.1517206,-0.0032583552,-21.9,-18.9,-33.18
1554878830009,0.20590763,9.435837,2.5475084999999997,0.06921531,-0.13278379,-0.0118104685,-21.84,-18.96,-32.34
1554878830028,0.35674694,9.421472,2.52596,0.04722416,-0.104073115,-0.017308256,-21.9,-19.02,-32.219997
1554878830049,0.5027977,9.474146000000001,2.5810282000000004,0.017291763999999998,-0.08574715,-0.019140853,-22.08,-18.9,-32.82
1554878830068,0.6464542,9.471751,2.6073654,-0.012029769,-0.06314514,-0.018529985,-22.14,-18.779999,-32.82
1554878830088,0.7805335999999999,9.500483000000001,2.5929997000000005,-0.03646438,-0.0374888,-0.010588738,-22.02,-18.96,-32.16
1554878830109,0.8092649000000001,9.517242,2.5379312,-0.055401202000000004,-0.01183246,0.0034611626,-21.48,-19.38,-31.019999
1554878830128,0.82123625,9.502875999999999,2.5068057,-0.06212072,0.015656477,0.01018068,-21.72,-19.38,-31.32
1554878830148,0.8284190999999999,9.524425500000001,2.4948344,-0.056012064,0.030928109,0.009569814,-21.42,-18.84,-32.219997
1554878830169,0.8643332,9.534002000000001,2.4852571,-0.056012064,0.030928109,0.009569814,-22.26,-18.48,-32.82
1554878830188,0.76137936,9.569917,2.2578009999999997,-0.0071428474,0.12561221,-0.008756143000000001,-22.38,-19.5,-32.88
1554878830208,0.5506831999999999,9.464568,2.205127,0.04233724,0.16348587,-0.008145277,-22.439999,-18.72,-32.579997999999996
1554878830229,0.38547826,9.411894,2.2027327999999997,0.09120646,0.16348587,-0.008756143000000001,-21.9,-18.119999,-31.859999
1554878830248,0.22027329,9.423865,2.1716073,0.1345779,0.14149472,-0.011199603,-21.48,-18.359999,-32.579997999999996
1554878830268,0.27055305,9.512454,2.0686533,0.15107127,0.13538606,-0.0118104685,-22.439999,-18.72,-33.96
1554878830289,0.17957062,9.596252999999999,1.9345740000000002,0.14129741,0.14577077,-0.008756143000000001,-22.26,-18.96,-33.84
1554878830308,0.090982445,9.605830000000001,1.9441511999999999,0.12052799,0.15371202,-0.0118104685,-22.32,-19.199999,-33.48
1554878830328,-0.057462595,9.63935,2.0471049999999997,0.096704245,0.13905126,-0.005701816,-22.26,-19.56,-32.88
1554878830349,-0.071828246,9.431047999999999,2.2889266,0.08998472,0.11706010000000001,-0.008145277,-21.48,-19.439999,-32.7
1554878830368,-0.03351985,9.598647999999999,2.3583608,0.09914771,0.088960305,-0.0020366246,-21.06,-18.66,-33.059998
1554878830388,0.021548472000000003,9.531608,2.2745612,0.056998003,0.0626931,0.0010177015,-21.84,-19.56,-31.92
1554878830409,0.105348095,9.63935,2.343995,0.03561772,0.038258493,-0.0044800859999999994,-22.02,-19.92,-32.28
1554878830428,0.076616794,9.727939,2.2865324,0.01118311,0.037036757999999996,-0.0032583552,-21.72,-19.02,-32.94
1554878830448,0.011971374,9.550761999999999,2.3679377999999995,0.008739648000000001,0.033371568,0.012624141,-21.6,-18.66,-32.82
1554878830468,0.038308397,9.519637,2.2338583,-0.0010341948,0.03948022,0.019954525,-21.539998999999998,-19.26,-32.88
1554878830488,0.15083931,9.593859,2.1309047000000003,-0.025468806,0.060860502999999996,0.022397986,-21.18,-19.26,-33.0
1554878830509,0.20590763,9.541185,2.126116,-0.0413513,0.07613213,0.022397986,-21.3,-19.5,-33.12
1554878830528,0.34716985,9.342461,2.2434354,-0.027912267,0.13660778,0.021176254,-21.66,-20.16,-32.219997
1554878830548,0.41660379999999997,9.399923,2.3128695,0.0007984009,0.18120095,0.008348084,-21.119999,-19.859999,-32.16
1554878830569,0.53871185,9.536397000000001,2.2314641,0.016680896,0.22457239,0.0034611626,-20.52,-19.26,-33.0
1554878830588,0.6105401,9.747093,2.2242813,0.031341664,0.27344159999999995,-0.0099778725,-20.699999,-19.68,-32.7
1554878830608,0.5818088,9.917086999999999,2.0806248,0.053943675,0.32536516,-0.02586037,-20.52,-19.859999,-33.3
1554878830629,0.35674694,9.890749000000001,2.0183737,0.07410223,0.37545612,-0.019751716000000002,-20.52,-19.619999,-34.02
1554878830648,0.062251142999999995,9.701602000000001,2.030345,0.10281289,0.3827865,-0.0075344117,-21.359999,-19.859999,-33.84
1554878830668,-0.30167863,9.495694,1.9345740000000002,0.12236059,0.35041064,0.020565389,-21.06,-20.279999,-33.899998
1554878830688,-0.4956149,9.421472,1.7909175,0.1309127,0.30459574,0.04255654,-19.92,-19.68,-34.68
1554878830708,-0.5363176,9.385557,1.6544438999999997,0.12174971400000001,0.26183520000000005,0.05477384,-19.92,-19.26,-34.079997999999996
1554878830728,-0.49800915,9.474146000000001,1.5802213999999999,0.10892155,0.22029634,0.052941247999999996,-19.74,-19.92,-33.42
1554878830749,-0.46688359999999995,9.615408,1.6233183,0.100980304,0.18608788,0.040723942,-18.779999,-20.52,-31.74
1554878830768,-0.39984390000000003,9.665688000000001,1.7238779,0.08876299,0.14577077,0.029117502000000003,-18.24,-20.279999,-29.4
1554878830789,-0.29928434,9.730332,1.8411973999999998,0.06921531,0.090182036,0.01934366,-18.0,-20.64,-28.5
1554878830808,-0.20590763,9.847652,1.9369683000000002,0.05211108,0.028484646000000002,0.0052937586,-17.82,-21.42,-28.619999
1554878830828,-0.1699935,9.864412,1.9513340000000001,0.030730799,-0.027714957000000002,-0.0075344117,-17.58,-21.42,-28.56
1554878830849,-0.12210801,9.835681,1.9178141,0.013626571,-0.075362444,-0.021584312999999997,-17.46,-20.52,-29.699999
1554878830868,-0.11971374,9.744699,1.9226026999999999,0.0007984009,-0.10468397,-0.04235373,-18.6,-20.1,-32.88
1554878830889,-0.11013664,9.694419,1.9058428,0.010572244,-0.10834917,-0.04540806,-19.32,-20.4,-34.26
1554878830908,-0.08858817,9.6896305,1.8531687,0.020956952,-0.09491013,-0.04968411,-19.32,-20.46,-34.2
1554878830928,-0.038308397,9.680053,1.8364087,0.031952526,-0.08574715,-0.04968411,-19.56,-20.039998999999998,-34.02
1554878830948,-0.019154198,9.620196,1.812466,0.044780698,-0.07841677,-0.055792768,-19.08,-19.32,-33.3
1554878830969,0.0047885496,9.593859,1.8244373999999999,0.048445888,-0.07902763,-0.055792768,-18.84,-19.56,-32.82
1554878830992,-0.016759925,9.63935,1.8483802,0.053332813,-0.07352985,-0.051516708,-19.439999,-20.4,-33.6
1554878831009,-0.009577099,9.636956,1.8531687,0.056998003,-0.06619947,-0.04968411,-19.619999,-20.699999,-33.96
1554878831028,-0.014365649,9.629773,1.8100717,0.05088935,-0.04787351,-0.042964595999999994,-19.859999,-20.939999,-33.719997
1554878831049,-0.007182824399999999,9.624985,1.7789462,0.044169836,-0.02710409,-0.035634212,-19.619999,-20.939999,-33.3
1554878831068,-0.016759925,9.613013,1.7909175,0.036228586,-0.008778133,-0.03074729,-19.74,-20.4,-33.0
1554878831089,-0.0670397,9.608225,1.8483802,0.029509068,0.015656477,-0.020973448,-20.16,-20.58,-33.3
1554878831108,-0.07422252,9.632168,1.8699286,0.029509068,0.02176513,-0.016086523999999998,-19.8,-20.58,-33.3
1554878831128,-0.11013664,9.706389999999999,1.8675343999999998,0.024622144,0.019932533,-0.006312681999999999,-19.56,-20.52,-33.54
1554878831149,-0.16281068,9.711179,1.8435916,0.022178682999999998,0.004660902,-0.00264749,-19.56,-20.16,-33.54
1554878831168,-0.21069619,9.696813,1.8100717,0.020956952,-0.0038912115,0.0016285668,-19.68,-20.1,-32.82
1554878831188,-0.23942748,9.6896305,1.7789462,0.017291763999999998,-0.0038912115,0.0022394322,-19.8,-20.4,-32.82
1554878831208,-0.22985038,9.692024,1.7550035,0.017291763999999998,0.0003848451,-0.0008148942999999999,-19.68,-20.939999,-33.36
1554878831229,-0.25379312,9.682447,1.7190893,0.015459167,0.0034391712,-0.0020366246,-19.199999,-20.88,-33.18
1554878831248,-0.22985038,9.701602000000001,1.7310607,0.019124359,-0.01183246,-0.0044800859999999994,-19.5,-20.279999,-33.84
1554878831269,-0.24182175,9.703996,1.7214836,0.022178682999999998,-0.033212744,-0.0069235469999999995,-19.439999,-21.119999,-33.0
1554878831288,-0.2657645,9.737515,1.7214836,0.02278955,-0.04665178,-0.0044800859999999994,-19.439999,-21.66,-32.52
1554878831308,-0.28731298,9.732727,1.7071179,0.016680896,-0.068032056,-0.011199603,-19.74,-20.939999,-33.3
1554878831329,-0.25379312,9.718361999999999,1.6807808999999998,0.014848301999999999,-0.0814711,-0.017308256,-19.38,-20.58,-33.059998
1554878831348,-0.21309046,9.696813,1.6975409,0.00996138,-0.09368839999999999,-0.023416907999999997,-19.14,-20.58,-32.579997999999996
1554878831368,-0.21309046,9.680053,1.6879636999999998,0.0069070532999999995,-0.099797055,-0.026471235,-19.439999,-21.24,-32.46
1554878831391,-0.22985038,9.72315,1.7166951000000001,0.0050744577,-0.116901286,-0.028303832,-19.8,-21.48,-32.7
1554878831408,-0.19633053,9.737515,1.7047237000000002,0.0020201313,-0.11934474,-0.022806042999999998,-19.859999,-21.359999,-32.7
1554878831429,-0.16520496,9.703996,1.7286664,0.00018753561999999997,-0.11629041,-0.019140853,-19.8,-21.72,-32.88
1554878831448,-0.12210801,9.617802000000001,1.7358493000000002,-0.00042332962,-0.117512144,-0.019140853,-20.1,-21.72,-32.94
1554878831468,-0.07901107,9.610619999999999,1.7981004,0.0032418616999999998,-0.11567955,-0.020362582,-19.8,-21.66,-31.92
1554878831488,-0.04070267,9.641745,1.8196488999999998,0.0069070532999999995,-0.10101879,-0.01425393,-19.8,-21.42,-31.98
1554878831508,0.009577099,9.653716000000001,1.8052831999999999,0.00996138,-0.07352985,-0.011199603,-19.56,-21.0,-32.94
1554878831529,0.06943397,9.629773,1.7813405,0.00996138,-0.026493225,-0.0014257594,-19.92,-20.88,-32.82
1554878831548,0.045491222000000005,9.668080999999999,1.8100717,0.00996138,0.0126021495,0.00895895,-20.16,-20.88,-33.18
1554878831569,0.05506832,9.656111,1.7741576000000001,0.010572244,0.041923682999999996,0.020565389,-19.439999,-20.64,-33.239998
1554878831588,-0.007182824399999999,9.651321000000001,1.7286664,0.0069070532999999995,0.06819089,0.022397986,-19.92,-20.58,-33.18
1554878831608,-0.014365649,9.617802000000001,1.733455,0.0007984009,0.078575596,0.023619715,-20.34,-20.4,-33.48
1554878831629,-0.08619389,9.6896305,1.733455,-0.00164506,0.07674301,0.019954525,-19.68,-20.22,-33.3
1554878831648,-0.21548474,9.759064,1.6975409,-0.005310252,0.06574743,0.02300885,-19.859999,-20.64,-33.12
1554878831668,-0.25139886,9.742303999999999,1.6568381999999997,-0.004699386,0.05108666,0.029117502000000003,-19.98,-21.359999,-32.88
1554878831688,-0.24182175,9.718361999999999,1.5850098999999997,-0.0077537126000000005,0.03459330000000001,0.029117502000000003,-19.8,-21.539998999999998,-32.64
1554878831708,-0.21309046,9.653716000000001,1.5562786,-0.008364579,0.015045611,0.018732794,-19.98,-21.42,-32.7
1554878831728,-0.18196489,9.615408,1.5993756000000001,0.0038527271000000003,-0.0038912115,0.00895895,-19.5,-21.42,-33.239998
1554878831749,-0.15323359,9.593859,1.5802213999999999,0.0044635925,-0.016719381999999998,-0.0020366246,-19.98,-21.24,-33.6
1554878831768,-0.098165266,9.660899,1.6257126,0.00018753561999999997,-0.036877934,-0.005701816,-20.279999,-21.66,-33.12
1554878831789,-0.045491222000000005,9.768641,1.6759924,-0.010197173,-0.04787351,-0.0038692203999999997,-20.34,-21.72,-32.219997
1554878831808,-0.014365649,9.80695,1.6951466,-0.019360151000000003,-0.040543124,0.0065154885,-20.34,-21.539998999999998,-32.399998
1554878831828,-0.007182824399999999,9.771035000000001,1.7214836,-0.023025342999999997,-0.027714957000000002,0.01812193,-20.1,-21.539998999999998,-33.18
1554878831849,0.047885496,9.682447,1.7358493000000002,-0.026690535,-0.010610729,0.021787117999999998,-19.619999,-21.6,-33.48
1554878831869,0.08619389,9.653716000000001,1.7478206000000003,-0.024247074,0.0028283063,0.019954525,-19.5,-20.939999,-33.18
1554878831888,0.11253092,9.634561999999999,1.7143008000000002,-0.016305827,0.0126021495,0.013845872,-19.74,-19.859999,-32.52
1554878831908,0.047885496,9.648928,1.7597919999999998,-0.009586308,0.0058826325,0.0040720277000000004,-19.8,-19.68,-32.76
1554878831929,-0.08858817,9.759064,1.7406378,-0.0065319818,-0.0026694809999999996,0.00040683625,-19.859999,-20.16,-32.88
1554878831948,-0.13168511,9.775824,1.7430321,-0.012640635,0.008326094000000001,-0.006312681999999999,-19.8,-20.64,-33.239998
1554878831968,-0.10774237,9.699207000000001,1.7789462,-0.01691669,0.023597725,-0.013032199,-19.98,-20.699999,-33.12
1554878831989,-0.05985687,9.6585045,1.8435916,-0.0273014,0.037647624,-0.016697392,-19.68,-21.3,-32.28
1554878832009,-0.016759925,9.629773,1.8435916,-0.032799188,0.049254067,-0.0075344117,-19.74,-21.24,-32.46
1554878832028,-0.011971374,9.562733999999999,1.8244373999999999,-0.03524265,0.06147137,0.013235006499999999,-19.32,-20.699999,-32.579997999999996
1554878832049,-0.026337024,9.529214,1.8220432,-0.031577457,0.0626931,0.033393558,-19.199999,-21.42,-33.0
1554878832068,-0.062251142999999995,9.598647999999999,1.802889,-0.027912267,0.06880175,0.055384707000000005,-20.34,-21.18,-34.079997999999996
1554878832088,-0.03351985,9.636956,1.7765520000000001,-0.027912267,0.07491041,0.067602016,-20.22,-20.58,-33.84
1554878832108,-0.038308397,9.668080999999999,1.7933118000000001,-0.030355725,0.088960305,0.07615413,-19.5,-20.58,-32.399998
1554878832129,0.0,9.677659,1.8316202000000001,-0.030966592999999997,0.096290685,0.07554326,-19.619999,-20.58,-32.52
1554878832148,-0.0047885496,9.672871,1.8555629,-0.035853516,0.101788476,0.07187807,-19.68,-21.0,-33.6
1554878832168,-0.083799616,9.682447,1.8699286,-0.037686113,0.11400578,0.0730998,-19.02,-21.06,-33.239998
1554878832189,-0.10774237,9.694419,1.8316202000000001,-0.038296975,0.1207253,0.07004547,-19.08,-20.939999,-33.18
1554878832208,-0.1340794,9.684841,1.8340145,-0.041962165,0.11644924400000001,0.062104225,-20.1,-21.3,-33.3
1554878832228,-0.14126222,9.699207000000001,1.8531687,-0.037075244,0.10423193,0.05416298,-20.4,-21.119999,-33.239998
1554878832249,-0.13886794,9.701602000000001,1.8747171000000002,-0.029744862,0.08957118,0.04255654,-19.74,-20.34,-33.66
1554878832268,-0.117319465,9.763853,1.9058428,-0.025468806,0.07674301,0.038891345,-19.619999,-20.279999,-33.12
1554878832289,-0.098165266,9.787795,1.9297855,-0.023636209,0.059638776,0.029728367999999998,-19.38,-20.699999,-32.94
1554878832308,-0.10774237,9.732727,1.8866886000000003,-0.019360151000000003,0.03581503,0.02300885,-19.02,-20.52,-33.0
1554878832329,-0.090982445,9.670475999999999,1.812466,-0.018749287,0.017489071999999998,0.012013276000000002,-19.32,-20.22,-32.88
1554878832348,-0.13168511,9.651321000000001,1.8052831999999999,-0.018138422,0.0009957103999999998,0.004682893,-19.08,-20.64,-33.12
1554878832368,-0.14844504,9.598647999999999,1.8220432,-0.019360151000000003,-0.018551977,-0.0044800859999999994,-19.02,-21.359999,-33.059998
1554878832388,-0.14126222,9.593859,1.838803,-0.0273014,-0.040543124,-0.0038692203999999997,-19.14,-21.0,-33.18
1554878832408,-0.105348095,9.656111,1.8890828000000002,-0.04012957,-0.05398216,0.00040683625,-18.18,-20.22,-32.52
1554878832428,-0.045491222000000005,9.629773,1.8986599999999998,-0.04807082,-0.049706105,0.01140241,-17.699999,-20.76,-32.76
1554878832448,0.011971374,9.586677,1.9656997,-0.05295774,-0.04665178,0.01812193,-18.779999,-20.46,-33.899998
1554878832468,0.021548472000000003,9.591465,2.0159793,-0.046849087000000005,-0.063756004,0.02300885,-19.619999,-19.619999,-33.899998
1554878832488,0.08619389,9.615408,2.0662591,-0.037075244,-0.08086023,0.02423058,-19.92,-19.56,-33.84
1554878832510,0.083799616,9.610619999999999,2.0542877,-0.02852313,-0.09124494,0.017511062,-20.34,-19.859999,-33.6
1554878832528,0.007182824399999999,9.629773,2.0973847,-0.01691669,-0.08941235,0.0059046233,-20.1,-20.22,-33.3
1554878832549,0.0023942748,9.641745,2.135693,-0.0089754425,-0.09124494,-0.005090951,-19.68,-20.52,-33.48
1554878832569,-0.016759925,9.684841,2.2218869999999997,-0.0022559254,-0.099797055,-0.014864795,-19.8,-20.52,-34.26
1554878832588,-0.019154198,9.648928,2.1740015,0.0026309968,-0.11445782,-0.019140853,-19.14,-20.16,-33.899998
1554878832608,-0.062251142999999995,9.620196,2.1309047000000003,-0.0022559254,-0.117512144,-0.019751716000000002,-19.14,-20.1,-34.2
1554878832628,-0.0023942748,9.557945,2.0614705,-0.0071428474,-0.12239907,-0.022806042999999998,-19.439999,-19.8,-33.66
1554878832649,0.06464542,9.498088000000001,2.0399222,-0.013862365,-0.12362079,-0.021584312999999997,-19.32,-19.8,-33.18
1554878832668,0.25618739999999995,9.536397000000001,2.0231621,-0.0108080385,-0.12117734,-0.018529985,-19.619999,-19.68,-33.18
1554878832688,0.68715686,9.648928,1.9800651999999999,0.0044635925,-0.12362079,-0.040521134,-19.8,-19.619999,-32.579997999999996
1554878832708,1.0774237,9.72315,1.9800651999999999,0.017291763999999998,-0.09613187,-0.07350786,-19.5,-19.619999,-33.6
1554878832729,0.7541966,9.550761999999999,1.9680939,0.044169836,-0.04665178,-0.07717305,-19.32,-20.039998999999998,-33.18
1554878832748,0.76616794,9.311335,2.1716073,0.07960001400000001,0.059027907000000004,-0.062512286,-19.859999,-20.52,-32.52
1554878832768,0.68715686,9.435837,2.4158232,0.13946481,0.11461665,-0.057014495,-20.16,-19.98,-33.48
1554878832788,0.6296943,9.538791,2.2386470000000003,0.17489499,0.19158566,-0.033801615,-19.92,-19.8,-33.84
1554878832809,0.6057515,9.608225,1.9800651999999999,0.1638994,0.28993496,-0.008756143000000001,-19.68,-20.4,-33.239998
1554878832828,0.49800915,9.567522,1.8555629,0.13335615,0.39378208,0.012624141,-19.68,-20.34,-32.82
1554878832848,0.27534159999999996,9.462174000000001,1.9154198,0.09853684,0.43226656,0.028506637999999997,-19.619999,-20.46,-33.18
1554878832869,0.083799616,9.419077,1.9800651999999999,0.07471309599999999,0.39378208,0.035226155,-19.32,-20.939999,-33.54
1554878832888,-0.19872479999999998,9.531608,1.9273912,0.039282914,0.32169995,0.04988692,-18.84,-21.0,-34.02
1554878832908,-0.47406640000000005,9.699207000000001,1.8148602999999999,-0.020581882,0.24045488,0.0730998,-18.3,-20.82,-34.5
1554878832929,-0.7446195,9.75667,1.664021,-0.08716619,0.1769249,0.09081489599999999,-18.119999,-21.119999,-33.48
1554878832948,-0.9481328000000001,9.75667,1.525153,-0.13542454,0.09995588,0.10058874,-18.359999,-21.42,-33.54
1554878832969,-1.0654523,9.790189999999999,1.5874043,-0.14519839,-0.0014477507,0.11036258,-18.359999,-20.76,-34.14
1554878832988,-1.0822121999999998,9.828498,1.5921928,-0.12809417,-0.13095118,0.11402777,-19.14,-20.64,-34.14
1554878833008,-0.9912298,9.885961,1.5634614,-0.12015291,-0.23296568,0.10669739,-19.199999,-20.88,-34.5
1554878833028,-0.82123625,9.924269,1.5419129999999999,-0.10854648,-0.34780836,0.08226278,-18.96,-20.82,-34.32
1554878833048,-0.5363176,9.881172,1.6328955,-0.08289014,-0.46937049999999997,0.032782696,-19.56,-20.16,-33.899998
1554878833068,-0.23942748,9.835681,1.7430321,-0.04807082,-0.5787154,-0.027692964,-19.74,-19.74,-33.66
1554878833088,0.035914123,9.816526,1.8340145,-0.01691669,-0.6507975,-0.075951315,-20.039998999999998,-19.98,-33.719997
1554878833108,0.3328042,9.778217999999999,1.9010541,0.0038527271000000003,-0.65263015,-0.109548904,-19.5,-20.16,-33.84
1554878833129,0.5363176,9.680053,1.9273912,0.0044635925,-0.6000956999999999,-0.1254314,-19.32,-20.34,-32.82
1554878833148,0.6847626,9.557945,2.0159793,-0.0028667906,-0.50785506,-0.12420967,-20.16,-20.279999,-31.019999
1554878833169,0.7805335999999999,9.488511,2.0902019,-0.010197173,-0.41805786,-0.109548904,-21.119999,-19.92,-31.92
1554878833188,0.87151605,9.435837,2.1476645,-0.015694961,-0.34841922,-0.08816863,-21.66,-20.52,-32.46
1554878833208,0.88109314,9.3831625,2.2458298,-0.020581882,-0.27572626,-0.057014495,-21.42,-20.64,-32.399998
1554878833229,0.89067024,9.373586,2.2218869999999997,-0.027912267,-0.21097453,-0.023416907999999997,-22.199999,-19.8,-32.579997999999996
1554878833248,0.7829279,9.440625,2.1835787,-0.032799188,-0.116901286,0.01018068,-22.68,-20.4,-31.74
1554878833269,0.600963,9.512454,2.1045675,-0.03890784,-0.026493225,0.03705875,-22.26,-21.06,-31.619999
1554878833288,0.45012367,9.5794935,2.0183737,-0.048681684,0.020543398,0.04622173,-22.5,-20.279999,-31.679997999999998
1554878833309,0.23703320000000003,9.656111,1.9226026999999999,-0.05662293400000001,0.032760706,0.05110865,-22.14,-19.56,-31.679997999999998
1554878833328,0.12450229,9.75667,1.9297855,-0.056012064,0.02665205,0.03950221,-21.48,-19.92,-32.28
1554878833348,0.12450229,9.778217999999999,1.9202085,-0.04501649,-0.0014477507,0.0022394322,-21.48,-20.52,-32.04
1554878833368,0.16281068,9.7135725,1.9321798,-0.03463178,-0.04176486,-0.023416907999999997,-21.84,-20.279999,-31.92
1554878833388,0.18675344,9.57231,1.8268316999999998,-0.031577457,-0.082692824,-0.03502335,-22.32,-19.92,-32.579997999999996
1554878833409,0.14844504,9.397528999999999,1.7813405,-0.02852313,-0.09307754,-0.033801615,-22.199999,-19.8,-32.46
1554878833428,0.18675344,9.423865,1.9178141,-0.016305827,-0.0918558,-0.019751716000000002,-22.199999,-19.859999,-32.399998
1554878833449,0.19154198,9.500483000000001,1.9992193999999999,0.0014092660999999998,-0.085136294,-0.00020402900000000002,-22.32,-20.16,-31.92
1554878833468,0.28970724,9.608225,2.0494993000000004,0.005685323000000001,-0.058258217,0.026063178,-22.199999,-20.16,-31.679997999999998
1554878833488,0.37590113,9.617802000000001,2.0973847,0.0032418616999999998,-0.017330248,0.04011308,-22.56,-19.199999,-32.28
1554878833509,0.4070267,9.596252999999999,2.0997790000000003,0.00018753561999999997,0.033371568,0.036447886,-22.14,-19.38,-32.219997
1554878833528,0.45012367,9.656111,2.116539,-0.0010341948,0.07674301,0.027284907,-21.48,-20.1,-31.859999
1554878833548,0.40463245,9.711179,2.0758362,0.00018753561999999997,0.10911886,0.013845872,-22.26,-20.1,-32.1
1554878833568,0.339987,9.744699,2.030345,-0.0022559254,0.14515992,0.0040720277000000004,-21.48,-20.52,-30.9
1554878833588,0.23942748,9.742303999999999,1.9058428,-0.010197173,0.16226412,-0.0044800859999999994,-20.76,-20.22,-31.32
1554878833609,0.10055954,9.651321000000001,1.8938714,-0.012029769,0.15187943,-0.015475661000000002,-21.42,-19.98,-33.18
1554878833628,-0.0670397,9.586677,1.8579572,-0.015084096000000002,0.12500136,-0.020362582,-21.48,-20.039998999999998,-32.28
1554878833649,-0.14365649,9.550761999999999,1.924997,-0.012029769,0.085905984,-0.020973448,-21.779999,-19.74,-31.74
1554878833668,-0.1340794,9.598647999999999,1.9585168000000002,-0.00164506,0.050475795,-0.010588738,-21.3,-19.98,-31.92
1554878833688,-0.052674048,9.644139,1.9800651999999999,0.00996138,0.029095512,0.0016285668,-21.359999,-20.039998999999998,-32.52
1554878833709,0.043096945,9.574705,2.0375278000000003,0.019124359,0.016267342,0.018732794,-21.66,-19.98,-32.7
1554878833728,0.14605077,9.512454,2.013585,0.020346088000000002,0.007104363000000001,0.017511062,-21.06,-19.859999,-32.579997999999996
1554878833748,0.21548474,9.524425500000001,2.0231621,0.0075179185,0.0003848451,0.012624141,-21.42,-19.859999,-33.36
1554878833768,0.26097596,9.593859,2.0662591,-0.0028667906,0.010769553999999999,0.009569814,-21.779999,-19.68,-33.18
1554878833788,0.31843856,9.663293,2.185973,-0.005921116999999999,0.030928109,0.0071263537,-21.42,-18.9,-32.1
1554878833808,0.339987,9.735122,2.2003386000000003,-0.0034776558000000003,0.05414099,0.0016285668,-21.42,-19.619999,-31.8
1554878833829,0.37111259,9.72315,2.205127,-0.0022559254,0.08224079,-0.0014257594,-21.18,-19.859999,-31.5
1554878833848,0.37350687,9.591465,2.1452703,-0.00042332962,0.107897125,-0.008145277,-21.24,-19.5,-32.52
1554878833869,0.3328042,9.474146000000001,2.1189332000000003,0.005685323000000001,0.12622309,-0.013032199,-21.0,-20.1,-32.46
1554878833888,0.24182175,9.517242,2.0854135,0.013015706,0.1469925,-0.012421334,-21.119999,-20.1,-32.34
1554878833908,0.18196489,9.601042,2.030345,0.014848301999999999,0.15859894,-0.0038692203999999997,-20.939999,-19.56,-33.18
1554878833928,0.09577099,9.641745,2.0375278000000003,0.022178682999999998,0.17203797,0.010791546,-20.76,-19.68,-33.6
1554878833948,0.035914123,9.601042,2.0255566000000003,0.030730799,0.162875,0.010791546,-21.3,-20.34,-33.96
1554878833968,-0.0047885496,9.536397000000001,2.0399222,0.033174258,0.12622309,0.007737219300000001,-21.0,-20.82,-33.36
1554878833988,0.011971374,9.534002000000001,2.020768,0.028898204,0.088960305,0.0065154885,-20.46,-20.52,-32.1
1554878834008,0.0047885496,9.577099,1.9896424,0.023400415,0.06147137,0.0052937586,-20.699999,-20.039998999999998,-32.46
1554878834028,0.047885496,9.596252999999999,1.9872481,0.01240484,0.049254067,0.01140241,-21.3,-19.98,-33.48
1554878834048,0.09577099,9.629773,2.0614705,0.006296188,0.046810605,0.013845872,-20.4,-19.8,-33.42
1554878834068,0.15802214,9.617802000000001,2.0878077,0.0044635925,0.050475795,0.0150676025,-20.22,-19.619999,-33.899998
1554878834088,0.21787901,9.567522,2.1045675,-0.00042332962,0.066969156,0.017511062,-19.92,-20.52,-33.12
1554878834109,0.22985038,9.603436,2.0997790000000003,0.0032418616999999998,0.0907929,0.0150676025,-19.56,-20.4,-32.82
1554878834128,0.20351335,9.675264,2.073442,0.006296188,0.117670976,0.0150676025,-20.64,-19.56,-33.66
1554878834148,0.19393626,9.742303999999999,2.056682,0.02278955,0.12744482,0.009569814,-21.119999,-19.14,-33.54
1554878834168,0.13647367,9.725544000000001,2.0614705,0.044169836,0.12255789,0.0034611626,-20.82,-19.439999,-33.3
1554878834189,0.06943397,9.620196,2.0854135,0.073491365,0.112173185,-0.0069235469999999995,-20.4,-19.74,-32.94
1554878834208,0.098165266,9.538791,2.0375278000000003,0.07715656,0.10606453,-0.0118104685,-20.34,-19.68,-32.76
1554878834229,0.14605077,9.5794935,2.0064023,0.06555012,0.11644924400000001,-0.006312681999999999,-20.1,-19.56,-33.239998
1554878834249,0.117319465,9.610619999999999,1.9441511999999999,0.049667623,0.13660778,0.0022394322,-20.039998999999998,-20.039998999999998,-34.14
1554878834269,0.098165266,9.601042,1.9178141,0.03683945,0.1610424,0.0059046233,-20.34,-19.619999,-34.14
1554878834288,0.1340794,9.543579,1.8938714,0.023400415,0.18120095,0.0040720277000000004,-20.039998999999998,-19.92,-33.66
1554878834309,0.14126222,9.57231,1.9321798,0.017902628,0.20380297,0.0028502971000000004,-19.98,-20.52,-33.6
1554878834328,0.11971374,9.610619999999999,1.9992193999999999,0.017902628,0.22029634,0.0010177015,-19.8,-20.34,-33.12
1554878834349,0.08140534,9.672871,2.030345,0.022178682999999998,0.2349571,-0.0008148942999999999,-20.039998999999998,-20.34,-32.88
1554878834369,0.011971374,9.737515,1.9680939,0.03439599,0.2312919,0.0052937586,-19.8,-20.82,-33.6
1554878834388,-0.028731298,9.763853,1.9010541,0.047835025999999996,0.22396152,0.007737219300000001,-19.199999,-20.64,-33.6
1554878834409,-0.08858817,9.699207000000001,1.812466,0.05516541,0.20991161,0.0071263537,-19.38,-20.16,-33.48
1554878834428,-0.117319465,9.696813,1.7741576000000001,0.051500215999999994,0.18303356,0.0022394322,-19.619999,-20.279999,-33.3
1554878834449,-0.16041641,9.653716000000001,1.7262721,0.041726373,0.14821424,0.00040683625,-18.539998999999998,-20.52,-34.14
1554878834468,-0.17957062,9.620196,1.7358493000000002,0.028898204,0.12194703,-0.0038692203999999997,-18.66,-20.58,-34.38
1554878834488,-0.15802214,9.610619999999999,1.7214836,0.019735225,0.09384723,-0.0075344117,-19.02,-20.4,-34.5
1554878834508,-0.16520496,9.601042,1.7597919999999998,0.013015706,0.07613213,-0.0069235469999999995,-18.779999,-19.5,-33.84
1554878834528,-0.076616794,9.651321000000001,1.8052831999999999,0.009350514,0.05353012,-0.0069235469999999995,-18.6,-19.98,-33.899998
1554878834549,-0.057462595,9.672871,1.8196488999999998,0.0044635925,0.03520416,-0.0069235469999999995,-18.84,-20.88,-34.38
1554878834568,-0.014365649,9.675264,1.7957061999999997,-0.0034776558000000003,0.033982433,-0.008756143000000001,-18.9,-20.58,-34.2
1554878834589,0.0047885496,9.668080999999999,1.8507744,-0.0010341948,0.036425896,-0.006312681999999999,-18.72,-20.52,-34.559998
1554878834608,-0.023942748,9.692024,1.8747171000000002,0.005685323000000001,0.03459330000000001,-0.0014257594,-18.84,-21.119999,-34.02
1554878834628,-0.03351985,9.668080999999999,1.8962656000000002,0.013015706,0.026041185,0.0052937586,-18.9,-21.119999,-33.12
1554878834649,-0.098165266,9.656111,1.8866886000000003,0.016680896,0.022375992999999997,0.012013276000000002,-18.72,-20.52,-33.899998
1554878834668,-0.09577099,9.684841,1.8723229,0.014848301999999999,0.019321669,0.010791546,-19.02,-20.1,-33.96
1554878834688,-0.09577099,9.651321000000001,1.8483802,0.011793975,0.018099938,0.009569814,-18.779999,-20.52,-33.899998
1554878834709,-0.05027977,9.636956,1.8244373999999999,0.008739648000000001,0.021154262000000004,0.0040720277000000004,-19.02,-20.46,-33.78
1554878834728,-0.05506832,9.629773,1.8507744,0.0069070532999999995,0.022375992999999997,0.0016285668,-19.199999,-20.64,-34.14
1554878834748,-0.035914123,9.641745,1.8771113999999998,0.005685323000000001,0.015656477,-0.010588738,-18.359999,-20.88,-34.62
1554878834768,0.0,9.668080999999999,1.8603516,0.00018753561999999997,0.013213015,-0.014864795,-18.72,-20.34,-34.32
1554878834789,-0.021548472000000003,9.648928,1.8651401,-0.00164506,0.021154262000000004,-0.01425393,-19.02,-20.279999,-34.32
1554878834808,-0.05985687,9.668080999999999,1.9130256,-0.008364579,0.023597725,-0.0075344117,-18.6,-21.06,-33.239998
1554878834829,-0.14605077,9.634561999999999,1.9058428,-0.010197173,0.006493496999999999,-0.00020402900000000002,-18.42,-20.46,-33.54
1554878834848,-0.19393626,9.63935,1.8866886000000003,-0.005921116999999999,-0.007556403000000001,0.00895895,-18.359999,-20.34,-33.54
1554878834868,-0.23942748,9.610619999999999,1.8004947,-0.0028667906,-0.0374888,0.017511062,-18.18,-20.939999,-34.38
1554878834888,-0.22027329,9.624985,1.7502148999999998,-0.014473231000000001,-0.058258217,0.02545231,-18.779999,-20.76,-34.739998
1554878834909,-0.21309046,9.651321000000001,1.7789462,-0.026690535,-0.07475158,0.029117502000000003,-19.26,-21.06,-34.739998
1554878834928,-0.20590763,9.682447,1.8220432,-0.037075244,-0.083914556,0.029117502000000003,-18.3,-21.0,-34.5
1554878834948,-0.18914771,9.696813,1.8316202000000001,-0.043183897,-0.09063408,0.028506637999999997,-18.24,-20.58,-34.2
1554878834968,-0.117319465,9.718361999999999,1.8723229,-0.04257303,-0.10162965,0.02545231,-18.119999,-20.4,-34.32
1554878834989,-0.083799616,9.680053,1.8842942999999999,-0.037075244,-0.105294846,0.017511062,-18.119999,-20.16,-34.02
1554878835008,-0.076616794,9.675264,1.9417567999999998,-0.030355725,-0.10040792,0.0040720277000000004,-18.539998999999998,-20.16,-34.02
1554878835029,-0.03351985,9.687236,1.9441511999999999,-0.023025342999999997,-0.08452542,-0.00264749,-19.26,-20.1,-33.0
1554878835049,-0.0023942748,9.687236,1.9202085,-0.018138422,-0.06558860000000001,-0.0014257594,-19.08,-20.64,-33.66
1554878835069,-0.0047885496,9.684841,1.9321798,-0.012640635,-0.049706105,-0.0014257594,-19.14,-20.46,-34.5
1554878835089,-0.076616794,9.672871,1.9154198,-0.0132515,-0.030769282999999998,0.0059046233,-19.14,-20.22,-34.5
1554878835108,-0.14605077,9.7135725,1.9441511999999999,-0.012029769,-0.026493225,0.010791546,-19.08,-20.699999,-34.26
1554878835129,-0.16041641,9.7135725,1.9369683000000002,-0.015084096000000002,-0.036267072000000004,0.009569814,-19.26,-20.22,-33.96
1554878835148,-0.14365649,9.620196,1.9537282,-0.013862365,-0.05703649,-0.0020366246,-19.32,-20.34,-33.66
1554878835168,-0.08619389,9.481328,1.977671,-0.013862365,-0.08635802,-0.021584312999999997,-18.9,-19.92,-33.84
1554878835188,-0.098165266,9.557945,2.0255566000000003,-0.024247074,-0.09307754,-0.03074729,-19.199999,-19.74,-34.02
1554878835208,-0.05506832,9.859624,1.9417567999999998,-0.046238225,-0.08452542,-0.019140853,-19.32,-19.92,-34.38
1554878835229,-0.007182824399999999,9.917086999999999,1.8627458,-0.06639677,-0.088190615,0.0022394322,-19.32,-19.08,-33.66
1554878835248,0.06464542,9.684841,1.8268316999999998,-0.06334245,-0.11812301,-0.005701816,-19.32,-19.439999,-33.719997
1554878835268,0.062251142999999995,9.545974000000001,1.8076775,-0.051125145999999996,-0.14988800000000002,-0.02463864,-19.32,-19.32,-33.42
1554878835288,0.07901107,9.517242,1.8052831999999999,-0.03463178,-0.18226387,-0.044797193,-18.9,-19.56,-33.0
1554878835309,0.083799616,9.550761999999999,1.7933118000000001,-0.021803614,-0.18959425,-0.05029498,-18.9,-19.68,-33.239998
1554878835328,0.076616794,9.545974000000001,1.8052831999999999,-0.011418903999999999,-0.17798781,-0.043575462,-19.08,-19.619999,-33.54
1554878835348,0.09577099,9.488511,1.8172544999999998,-0.0071428474,-0.16454877,-0.035634212,-19.859999,-19.98,-33.54
1554878835368,0.098165266,9.462174000000001,1.8771113999999998,-0.0132515,-0.15966184,-0.018529985,-20.279999,-20.4,-33.54
1554878835389,0.14126222,9.510059,1.9154198,-0.023025342999999997,-0.15110974,-0.0044800859999999994,-20.039998999999998,-20.1,-33.36
1554878835409,0.12929083,9.534002000000001,1.9633054,-0.032188322000000005,-0.15049887,0.012624141,-19.8,-19.74,-33.18
1554878835428,0.15083931,9.613013,2.0255566000000003,-0.04929255,-0.1376707,0.029728367999999998,-19.92,-19.859999,-33.3
1554878835449,0.12689656,9.675264,1.8555629,-0.08777706,-0.08635802,0.045,-20.039998999999998,-19.92,-32.579997999999996
1554878835468,0.20830189999999998,9.603436,2.0710478,-0.11465513,-0.05642562,0.052330382,-19.98,-19.98,-32.52
1554878835488,0.09577099,9.72315,2.0542877,-0.10182696,-0.020384572,0.056606437999999995,-20.16,-20.039998999999998,-32.7
1554878835508,0.13168511,9.814133,1.8268316999999998,-0.1397006,0.05353012,0.06027163,-20.16,-20.1,-32.94
1554878835529,0.21548474,9.711179,2.185973,-0.11037908,0.051697525999999994,0.038891345,-19.98,-19.859999,-33.12
1554878835548,0.23463893,9.629773,2.2601955,-0.052346874,0.05414099,0.0150676025,-20.4,-19.98,-32.46
1554878835569,0.20111908,9.517242,2.1668186,-0.0089754425,0.020543398,-0.008756143000000001,-21.119999,-20.34,-33.3
1554878835588,0.12689656,9.608225,1.9752767,0.016680896,0.022375992999999997,-0.028914696,-20.64,-19.56,-33.899998
1554878835608,0.105348095,9.627379,1.9752767,0.020956952,0.03459330000000001,-0.036245078,-20.58,-19.5,-33.36
1554878835629,0.07422252,9.490905999999999,2.0518935000000003,0.015459167,0.032149836,-0.033801615,-20.52,-19.32,-33.18
1554878835648,-0.0047885496,9.507666,2.0973847,0.008739648000000001,0.009547824,-0.012421334,-20.1,-19.199999,-32.7
1554878835668,-0.117319465,9.58907,2.0686533,-0.009586308,-0.009388999,0.019954525,-20.939999,-19.5,-32.82
1554878835688,-0.15802214,9.562733999999999,2.0494993000000004,-0.024247074,-0.034434475,0.043778267,-20.52,-19.439999,-33.12
1554878835708,-0.13168511,9.5794935,2.1213273999999998,-0.046849087000000005,-0.07597331,0.05049779,-19.74,-19.74,-33.36
1554878835729,-0.090982445,9.555551,2.176396,-0.059677258,-0.13583810000000002,0.052941247999999996,-19.92,-19.619999,-34.02
1554878835748,-0.083799616,9.510059,2.2458298,-0.056012064,-0.16149445,0.058439035,-20.699999,-18.72,-34.32
1554878835768,0.011971374,9.522031,2.3272352,-0.04012957,-0.13644898,0.06454768,-20.699999,-18.66,-33.3
1554878835789,0.24900457,9.543579,2.3966691000000004,-0.02852313,-0.07902763,0.068212874,-20.4,-19.14,-33.059998
1554878835808,0.57223165,9.543579,2.5068057,-0.005921116999999999,-0.02221717,0.05049779,-20.88,-18.48,-33.18
1554878835829,0.67757976,9.536397000000001,2.5475084999999997,0.014848301999999999,0.042534545,0.021176254,-21.3,-18.6,-32.82
1554878835848,0.6057515,9.622589999999999,2.3631492,0.020346088000000002,0.107897125,-0.0038692203999999997,-21.119999,-19.08,-33.239998
1554878835869,0.4189981,9.646533,2.2338583,0.0075179185,0.14943595,-0.020362582,-20.64,-19.08,-33.719997
1554878835889,0.24182175,9.58907,2.2889266,0.0020201313,0.13905126,-0.041132,-20.64,-18.96,-33.36
1554878835908,0.05985687,9.632168,2.3823035,0.00018753561999999997,0.071245216,-0.053349305,-20.699999,-18.96,-33.66
1554878835929,-0.14844504,9.6896305,2.2817439999999998,-0.0065319818,0.014434746000000002,-0.036245078,-20.22,-19.74,-34.68
1554878835948,-0.25139886,9.617802000000001,2.1907616,-0.018138422,-0.024049763999999998,-0.0099778725,-20.1,-19.859999,-34.5
1554878835969,-0.23942748,9.466963,2.1500587,-0.019971019,-0.06986465,0.01140241,-19.74,-19.5,-33.899998
1554878835988,-0.11013664,9.37598,2.152453,-0.005921116999999999,-0.11934474,0.00895895,-19.859999,-19.26,-33.78
1554878836009,0.090982445,9.454991,2.185973,0.014848301999999999,-0.14805539999999998,0.0071263537,-20.46,-19.02,-33.66
1554878836028,0.25379312,9.5794935,2.2075214,0.028287336,-0.11812301,0.009569814,-20.699999,-19.26,-34.02
1554878836049,0.409421,9.63935,2.2075214,0.033174258,-0.050927836,0.0065154885,-20.699999,-19.68,-34.32
1554878836069,0.49082634,9.543579,2.3128695,0.030119931000000003,-0.0026694809999999996,-0.008145277,-20.22,-19.8,-33.96
1554878836088,0.42139238,9.553157,2.248224,0.017902628,0.01138042,-0.030136427,-20.22,-19.619999,-34.2
1554878836109,0.21787901,9.694419,2.2003386000000003,-0.0022559254,0.020543398,-0.039299402000000004,-20.46,-19.02,-33.719997
1554878836129,-0.016759925,9.885961,2.5499027,-0.023025342999999997,0.02420859,-0.06312315,-20.82,-18.84,-33.36
1554878836148,-3.529161,10.879584,3.2226939999999997,0.25003139999999996,-0.16149445,0.35959559999999996,-20.699999,-18.9,-33.84
1554878836168,0.679974,7.877164,0.97446984,0.014848301999999999,-0.06986465,0.088371426,-20.82,-19.38,-33.6
1554878836188,0.19393626,9.850046,0.16281068,-0.27286923,-0.204255,-0.13459438,-21.0,-19.199999,-33.059998
1554878836209,-0.19872479999999998,10.276228,2.351178,-0.27286923,-0.24884817,-0.16941370000000003,-21.18,-18.84,-33.0
1554878836228,-0.12450229,9.759064,2.875524,-0.10304869,-0.34047797,-0.12482054,-20.76,-18.779999,-32.88
1554878836248,-0.44054657,9.8548355,2.7342618,0.12663664,-0.14011417,-0.08511429,-20.76,-18.6,-32.76
1554878836268,0.39026679999999997,9.304152,2.4876516,0.21032518,-0.18653992,-0.08511429,-21.6,-18.72,-32.82
1554878836289,1.1923488000000002,8.91628,1.5036045,0.09120646,-0.23663087,-0.14436823,-21.42,-19.439999,-31.679997999999998
1554878836309,1.0247495999999998,9.435837,2.2242813,-0.013862365,-0.18837251,-0.14375736,-21.48,-20.22,-31.92
1554878836329,0.8332075999999999,9.624985,2.3416007000000003,-0.017527558000000002,-0.15110974,-0.109548904,-21.42,-19.74,-33.12
1554878836348,0.88109314,9.428655000000001,2.4086404,0.017902628,-0.15477493,-0.040521134,-21.42,-19.56,-33.0
1554878836368,0.9960183000000001,9.117398,2.0806248,0.031952526,-0.05153869999999999,0.013235006499999999,-21.66,-19.26,-33.6
1554878836389,0.9816527,9.201198,2.1596357999999998,0.0038527271000000003,0.12744482,0.033393558,-21.06,-19.68,-31.8
1554878836408,0.8379962,9.416683,2.5092,0.0044635925,0.26672209999999996,0.045610864,-20.64,-20.34,-28.98
1554878836428,0.58420306,9.534002000000001,2.6121537999999997,-0.0028667906,0.29787620000000004,0.06393682,-20.76,-20.279999,-28.8
1554878836449,0.29928434,9.636956,2.2721667,-0.032799188,0.30093053,0.07554326,-20.88,-19.859999,-28.8
1554878836468,0.052674048,9.754275,2.1117504,-0.0413513,0.33025208,0.084095374,-20.52,-20.16,-28.619999
1554878836488,0.07422252,9.699207000000001,1.9633054,-0.011418903999999999,0.3192565,0.07981932,-20.039998999999998,-20.58,-28.8
1554878836508,0.15802214,9.665688000000001,1.8172544999999998,0.029509068,0.30642834,0.10669739,-19.68,-20.76,-28.68
1554878836528,-0.29210153,9.387952,1.7669748,0.03806118,0.29360017,0.10730825,-18.84,-20.88,-28.08
1554878836549,-0.27773590000000004,9.773430000000001,1.6879636999999998,0.04600243,0.29237843,0.09203662,-18.779999,-20.4,-28.199999
1554878836568,-0.12689656,9.869201,1.7693691000000003,0.06555012,0.29054585,0.04927605400000001,-19.56,-19.92,-28.8
1554878836589,-0.09337672,9.787795,1.8220432,0.10892155,0.24473093,0.02300885,-19.619999,-19.98,-29.039998999999998
1554878836608,0.11253092,9.581888000000001,1.8866886000000003,0.14190827,0.20746817,0.0059046233,-18.9,-19.98,-28.92
1554878836629,0.22985038,9.536397000000001,1.9202085,0.14374088,0.1647076,-0.019140853,-19.02,-20.34,-29.16
1554878836648,0.27534159999999996,9.495694,1.8914771000000001,0.12480405,0.13049914,-0.04907325,-18.9,-20.64,-29.4
1554878836668,0.29210153,9.545974000000001,1.9226026999999999,0.086319536,0.13111,-0.061290555,-18.119999,-19.8,-29.099998
1554878836688,0.090982445,9.5483675,2.1332988999999998,0.05516541,0.14760336,-0.041132,-18.18,-20.279999,-29.4
1554878836708,-0.22266756,9.555551,2.1404817000000005,0.027065607000000002,0.15065770000000003,0.018732794,-17.76,-21.779999,-29.519999
1554878836729,-0.33040990000000003,9.596252999999999,2.2099156000000004,-0.017527558000000002,0.12988828,0.0749324,-17.82,-21.6,-29.099998
1554878836748,-0.33759275,9.670475999999999,2.291321,-0.056012064,0.06941262,0.10730825,-18.6,-20.76,-28.92
1554878836768,-0.27534159999999996,9.828498,2.135693,-0.08594447,0.0040500364,0.11280604,-18.72,-20.46,-29.099998
1554878836788,-0.21548474,9.93624,1.9920366000000003,-0.10610302,-0.038099665,0.09753441,-18.539998999999998,-20.16,-29.279999
1554878836808,-0.17238778,9.888355,1.8795058,-0.09327485,-0.063756004,0.0730998,-18.0,-20.039998999999998,-29.64
1554878836828,-0.08140534,9.794978,1.8076775,-0.05295774,-0.0833037,0.02545231,-18.3,-19.68,-30.779999
1554878836848,-0.04070267,9.696813,1.8292258999999997,-0.0132515,-0.099797055,-0.020973448,-19.32,-19.26,-32.88
1554878836869,0.0,9.634561999999999,1.9010541,0.014237436499999999,-0.13217291,-0.054571035999999996,-19.859999,-19.199999,-33.96
1554878836888,0.026337024,9.534002000000001,1.9728824,0.03439599,-0.1676031,-0.07717305,-19.56,-19.26,-34.62
1554878836908,0.10055954,9.443019999999999,2.056682,0.05516541,-0.1920377,-0.08633603,-19.14,-19.32,-34.559998
1554878836928,0.24182175,9.507666,2.0902019,0.07898915,-0.18776166,-0.08633603,-19.56,-19.74,-33.78
1554878836949,0.43336374,9.543579,2.1021732999999996,0.08570867,-0.15844013,-0.08144911,-20.64,-19.92,-34.02
1554878836968,0.5363176,9.586677,2.0902019,0.06432839,-0.105294846,-0.05762536,-20.699999,-19.08,-34.32
1554878836988,0.53392327,9.567522,2.1404817000000005,0.030119931000000003,-0.04604091,-0.026471235,-20.039998999999998,-18.84,-34.2
1554878837008,0.4956149,9.550761999999999,2.1979442000000002,0.00018753561999999997,-0.013665055,-0.0032583552,-20.34,-20.279999,-33.42
1554878837028,0.41660379999999997,9.5483675,2.1620302000000002,-0.026690535,-0.0032803463,0.015678466999999998,-20.46,-20.4,-33.54
1554878837049,0.31604427,9.550761999999999,2.0949904999999998,-0.043794762,-0.007556403000000001,0.02423058,-19.619999,-20.22,-33.84
1554878837068,0.19154198,9.565128,2.056682,-0.05356861,-0.009388999,0.023619715,-19.32,-20.4,-33.719997
1554878837088,0.0670397,9.613013,2.0255566000000003,-0.047459953,-0.008167269,0.020565389,-19.859999,-19.92,-33.719997
1554878837108,0.052674048,9.58907,1.9704881999999997,-0.030966592999999997,-0.0038912115,0.0150676025,-20.46,-19.68,-34.079997999999996
1554878837128,0.10055954,9.500483000000001,1.9537282,-0.009586308,-0.028936688,0.0059046233,-20.88,-19.38,-33.42
1554878837149,0.10774237,9.507666,1.9896424,0.0050744577,-0.06864293,-0.0032583552,-20.76,-19.439999,-33.18
1554878837168,0.043096945,9.593859,2.0231621,0.01240484,-0.0918558,-0.0038692203999999997,-20.16,-20.039998999999998,-33.84
1554878837188,-0.026337024,9.730332,2.011191,0.015459167,-0.09613187,-0.00264749,-20.34,-19.26,-33.719997
1554878837209,-0.07422252,9.761458,2.0064023,0.006296188,-0.0918558,0.0010177015,-21.0,-18.72,-33.899998
1554878837228,-0.07422252,9.749487,1.9824595,-0.012640635,-0.08941235,0.0059046233,-20.16,-19.26,-33.3
1554878837248,-0.071828246,9.727939,1.9920366000000003,-0.0273014,-0.095520996,0.0040720277000000004,-19.8,-19.32,-33.0
1554878837268,-0.035914123,9.720756,2.0471049999999997,-0.02607967,-0.10468397,-0.0032583552,-20.4,-19.56,-33.66
1554878837288,0.026337024,9.665688000000001,2.0255566000000003,-0.015694961,-0.116901286,-0.02463864,-20.76,-19.859999,-33.899998
1554878837308,0.07901107,9.620196,1.9920366000000003,-0.0040885209999999995,-0.12484253,-0.05396017,-21.0,-20.039998999999998,-32.7
1554878837329,0.12210801,9.636956,1.9992193999999999,-0.0034776558000000003,-0.13522723,-0.068620935,-21.119999,-19.68,-32.7
1554878837348,0.13168511,9.608225,2.0183737,0.0069070532999999995,-0.14805539999999998,-0.08144911,-21.0,-19.439999,-33.3
1554878837368,0.14605077,9.567522,2.020768,0.01118311,-0.15599667,-0.09000122,-21.06,-19.5,-33.36
1554878837388,0.14844504,9.545974000000001,2.0327394,0.00996138,-0.15599667,-0.09122296,-21.06,-19.38,-33.54
1554878837408,0.15323359,9.505271,2.0327394,0.0069070532999999995,-0.15233147,-0.08083824,-21.359999,-19.32,-33.66
1554878837428,0.16520496,9.4932995,2.0351336,0.0007984009,-0.14927715,-0.064344876,-21.96,-19.619999,-32.579997999999996
1554878837449,0.16281068,9.495694,2.0638650000000003,-0.0077537126000000005,-0.14683367,-0.039299402000000004,-21.779999,-19.68,-32.16
1554878837468,0.17957062,9.550761999999999,2.0878077,-0.012029769,-0.15110974,-0.02463864,-21.6,-19.38,-33.3
1554878837488,0.21309046,9.632168,2.135693,-0.018749287,-0.15294233,-0.00264749,-21.3,-19.32,-33.36
1554878837508,0.25379312,9.620196,2.1404817000000005,-0.023025342999999997,-0.13522723,0.0034611626,-21.119999,-18.96,-33.54
1554878837529,0.26337022,9.610619999999999,2.1572416000000003,-0.020581882,-0.12484253,0.00040683625,-21.9,-19.38,-33.0
1554878837548,0.18435916,9.584282,2.1117504,-0.021192746000000002,-0.08696888400000001,-0.005701816,-21.9,-19.74,-32.579997999999996
1554878837569,0.19633053,9.593859,2.1069617000000003,-0.015084096000000002,-0.058258217,-0.020362582,-21.359999,-19.74,-32.94
1554878837588,0.12689656,9.627379,2.0782306,-0.010197173,-0.030769282999999998,-0.02586037,-21.9,-20.22,-33.239998
1554878837608,0.105348095,9.586677,2.020768,-0.0077537126000000005,-0.010610729,-0.033190752999999996,-21.779999,-19.92,-32.76
1554878837628,0.071828246,9.581888000000001,2.0638650000000003,-0.0028667906,-0.0063346727,-0.042964595999999994,-21.3,-19.619999,-32.46
1554878837648,-0.007182824399999999,9.569917,2.0518935000000003,0.005685323000000001,-0.010610729,-0.04540806,-20.58,-19.439999,-32.04
1554878837668,-0.031125572,9.565128,2.0542877,0.01118311,-0.019162841,-0.04540806,-20.58,-19.14,-32.219997
1554878837689,-0.026337024,9.577099,2.0471049999999997,0.026454741,-0.044819184000000005,-0.047851517999999996,-21.18,-19.199999,-32.7
1554878837708,-0.019154198,9.553157,1.9872481,0.029509068,-0.05276043,-0.044797193,-21.48,-19.619999,-32.399998
1554878837728,-0.038308397,9.615408,1.9992193999999999,0.02401128,-0.05642562,-0.038688537,-21.9,-19.619999,-32.7
1554878837748,-0.016759925,9.682447,2.0255566000000003,0.013626571,-0.054593027,-0.028914696,-21.72,-19.98,-32.82
1554878837768,0.016759925,9.613013,2.0686533,0.008739648000000001,-0.06681033,-0.019140853,-21.779999,-19.8,-32.94
1554878837789,0.045491222000000005,9.5794935,2.0662591,0.008739648000000001,-0.0814711,-0.014864795,-21.779999,-19.199999,-32.64
1554878837809,0.071828246,9.577099,2.0686533,0.0050744577,-0.0918558,-0.015475661000000002,-21.18,-19.68,-32.1
1554878837828,0.08140534,9.610619999999999,2.0590763,0.0007984009,-0.09674273,-0.022195177000000003,-21.6,-20.22,-31.74
1554878837849,0.08619389,9.634561999999999,2.056682,-0.0034776558000000003,-0.083914556,-0.022195177000000003,-21.96,-19.92,-31.679997999999998
1554878837868,0.09337672,9.651321000000001,2.0471049999999997,-0.008364579,-0.058869082,-0.018529985,-21.42,-19.68,-31.74
1554878837888,0.12689656,9.648928,2.073442,-0.008364579,-0.027714957000000002,-0.014864795,-21.119999,-19.68,-31.98
1554878837909,0.117319465,9.596252999999999,2.0710478,-0.0028667906,-0.0057238075,-0.013643065,-21.72,-19.56,-32.52
1554878837928,0.11971374,9.63935,2.0423164000000003,0.0014092660999999998,0.015045611,-0.016086523999999998,-22.02,-19.5,-31.92
1554878837948,0.11971374,9.660899,2.013585,0.0032418616999999998,0.02543032,-0.015475661000000002,-21.24,-19.68,-31.26
1554878837968,0.10774237,9.665688000000001,2.0279508,-0.0010341948,0.036425896,-0.0075344117,-21.3,-19.92,-32.34
1554878837988,0.07901107,9.629773,1.960911,-0.00164506,0.046810605,-0.005701816,-21.42,-19.619999,-32.579997999999996
1554878838008,0.04070267,9.632168,1.9441511999999999,0.0026309968,0.06147137,-0.0069235469999999995,-21.359999,-19.8,-31.8
1554878838028,0.026337024,9.627379,1.9178141,0.0007984009,0.07674301,-0.006312681999999999,-21.24,-19.8,-32.04
1554878838048,-0.0047885496,9.613013,1.9513340000000001,-0.0010341948,0.07918646,-0.00264749,-21.6,-19.68,-31.859999
1554878838068,-0.021548472000000003,9.601042,1.9417567999999998,-0.00042332962,0.07429954,-0.00020402900000000002,-22.56,-19.32,-31.92
1554878838088,-0.05027977,9.615408,1.9345740000000002,0.0007984009,0.06819089,0.0028502971000000004,-21.96,-19.68,-32.88
1554878838108,-0.05506832,9.591465,1.9106313000000001,0.0020201313,0.062082235,0.0022394322,-21.119999,-20.039998999999998,-32.88
1554878838128,-0.0670397,9.555551,1.9297855,0.0069070532999999995,0.06147137,0.0059046233,-21.42,-19.859999,-32.579997999999996
1554878838148,-0.10774237,9.58907,1.8986599999999998,0.00996138,0.059638776,0.009569814,-21.18,-19.74,-32.7
1554878838168,-0.06464542,9.613013,1.9034485,0.010572244,0.059027907000000004,0.012624141,-21.06,-20.46,-32.04
1554878838188,-0.062251142999999995,9.562733999999999,1.9585168000000002,0.0020201313,0.05230839,0.009569814,-21.24,-20.64,-32.219997
1554878838209,-0.038308397,9.617802000000001,1.9680939,0.00018753561999999997,0.038869355,0.008348084,-21.119999,-19.92,-33.48
1554878838228,-0.03351985,9.663293,2.0087965,-0.005921116999999999,0.027262917,0.01018068,-21.539998999999998,-20.1,-32.94
1554878838248,0.0023942748,9.663293,2.0064023,-0.005921116999999999,0.022375992999999997,0.01140241,-21.66,-19.8,-32.46
1554878838268,0.009577099,9.660899,2.020768,-0.004699386,0.016878206,0.009569814,-21.18,-19.859999,-31.32
1554878838288,0.019154198,9.615408,2.0279508,-0.0040885209999999995,0.016267342,0.0034611626,-20.699999,-20.46,-31.26
1554878838308,0.009577099,9.632168,2.0375278000000003,-0.0089754425,0.014434746000000002,0.0016285668,-20.939999,-20.34,-33.36
1554878838328,0.038308397,9.615408,2.0518935000000003,-0.0077537126000000005,0.0126021495,0.004682893,-21.539998999999998,-20.1,-33.84
1554878838348,0.045491222000000005,9.603436,2.0231621,-0.010197173,0.0126021495,0.0071263537,-21.359999,-20.1,-33.42
1554878838369,0.031125572,9.591465,2.0087965,-0.010197173,0.018099938,0.0059046233,-20.16,-20.64,-32.219997
1554878838388,0.019154198,9.603436,2.0614705,-0.010197173,0.02298686,0.0034611626,-20.22,-20.46,-32.28
1554878838408,0.05027977,9.591465,2.0686533,-0.0089754425,0.020543398,0.0040720277000000004,-21.119999,-19.98,-32.34
1554878838429,0.047885496,9.57231,2.056682,-0.0077537126000000005,0.02665205,0.008348084,-20.76,-19.859999,-32.34
1554878838448,0.052674048,9.581888000000001,2.0686533,-0.005310252,0.023597725,0.0034611626,-20.88,-19.92,-33.12
1554878838468,0.043096945,9.574705,2.0494993000000004,-0.0040885209999999995,0.031538974,0.0034611626,-21.72,-19.98,-33.059998
1554878838489,0.011971374,9.581888000000001,2.0375278000000003,-0.005310252,0.041312817,0.0052937586,-22.02,-19.5,-32.94
1554878838508,0.011971374,9.596252999999999,2.0471049999999997,-0.008364579,0.042534545,0.0052937586,-22.02,-19.5,-32.94
1554878838528,0.026337024,9.567522,2.0806248,-0.0108080385,0.042534545,0.00895895,-21.24,-19.859999,-32.1
1554878838549,0.007182824399999999,9.584282,2.1021732999999996,-0.0065319818,0.041923682999999996,0.007737219300000001,-21.0,-20.34,-32.399998
1554878838568,-0.035914123,9.603436,2.0949904999999998,-0.009586308,0.03948022,0.012013276000000002,-21.3,-20.039998999999998,-32.34
1554878838589,-0.038308397,9.622589999999999,2.0973847,-0.0077537126000000005,0.03520416,0.010791546,-21.24,-19.619999,-31.5
1554878838608,-0.03351985,9.634561999999999,2.0973847,-0.0077537126000000005,0.033371568,0.012013276000000002,-20.939999,-19.8,-31.859999
1554878838629,-0.019154198,9.617802000000001,2.1213273999999998,-0.0089754425,0.027262917,0.012624141,-20.88,-19.98,-32.579997999999996
1554878838648,-0.04070267,9.617802000000001,2.1045675,-0.009586308,0.02298686,0.013235006499999999,-20.88,-19.98,-32.52
1554878838669,-0.0670397,9.608225,2.073442,-0.0089754425,0.018710801000000003,0.010791546,-20.58,-19.98,-33.0
1554878838688,-0.07422252,9.601042,2.0925963,-0.0108080385,0.015045611,0.0052937586,-20.039998999999998,-19.98,-33.239998
1554878838708,-0.06943397,9.634561999999999,2.1045675,-0.008364579,0.007104363000000001,0.0065154885,-21.06,-20.279999,-33.66
1554878838728,-0.04070267,9.692024,2.0949904999999998,-0.009586308,0.0058826325,0.0028502971000000004,-21.779999,-20.34,-34.14
1554878838748,-0.014365649,9.692024,2.0925963,-0.0089754425,-0.0026694809999999996,-0.0038692203999999997,-21.3,-20.22,-33.84
1554878838771,-0.052674048,9.617802000000001,2.0854135,-0.0089754425,-0.0045020767,-0.0075344117,-21.3,-19.859999,-33.12
1554878838788,-0.06943397,9.613013,2.1021732999999996,-0.0071428474,-0.0057238075,-0.009367007,-21.24,-19.74,-31.32
1554878838809,-0.05506832,9.615408,2.1189332000000003,-0.005310252,-0.017941112,-0.009367007,-20.88,-19.92,-30.84
1554878838828,-0.04070267,9.591465,2.1093562,-0.0065319818,-0.018551977,-0.00264749,-20.76,-20.22,-32.1
1554878838849,-0.057462595,9.5794935,2.0638650000000003,-0.005921116999999999,-0.019162841,-0.0044800859999999994,-21.06,-19.859999,-32.76
1554878838868,-0.047885496,9.574705,2.0542877,-0.012029769,-0.017941112,-0.005090951,-20.4,-19.199999,-32.88
1554878838888,-0.016759925,9.57231,2.1093562,-0.017527558000000002,-0.019773709,0.0010177015,-20.279999,-19.56,-32.46
1554878838908,-0.011971374,9.574705,2.0973847,-0.017527558000000002,-0.023438900000000002,0.0028502971000000004,-20.88,-20.22,-32.579997999999996
1554878838928,-0.0047885496,9.57231,2.0973847,-0.021192746000000002,-0.02832582,0.0052937586,-21.06,-19.56,-33.42
1554878838948,0.014365649,9.591465,2.1189332000000003,-0.019971019,-0.030158417000000003,0.0052937586,-21.06,-19.14,-33.18
1554878838968,0.028731298,9.586677,2.1237217999999998,-0.024857938,-0.025271496,0.0071263537,-21.119999,-19.68,-32.64
1554878838988,0.016759925,9.581888000000001,2.116539,-0.021192746000000002,-0.015497651000000001,0.008348084,-21.48,-19.92,-33.6
1554878839009,0.047885496,9.584282,2.1213273999999998,-0.017527558000000002,-0.0057238075,0.01018068,-21.06,-19.8,-33.6
1554878839028,0.057462595,9.584282,2.1309047000000003,-0.014473231000000001,0.0022174409,0.01140241,-21.06,-19.56,-33.18
1554878839049,0.043096945,9.584282,2.1596357999999998,-0.011418903999999999,0.006493496999999999,0.0071263537,-21.539998999999998,-19.32,-33.18
1554878839068,0.043096945,9.627379,2.152453,-0.011418903999999999,0.008326094000000001,0.008348084,-21.3,-19.8,-33.12
1554878839088,0.038308397,9.610619999999999,2.1380875,-0.0108080385,0.0058826325,0.0052937586,-21.18,-20.16,-33.3
1554878839108,0.026337024,9.603436,2.1213273999999998,-0.0071428474,0.01138042,0.0059046233,-20.58,-19.619999,-32.76
1554878839129,0.035914123,9.605830000000001,2.1309047000000003,-0.0089754425,0.01015869,0.004682893,-20.1,-19.439999,-32.82
1554878839148,0.009577099,9.591465,2.1189332000000003,-0.014473231000000001,0.008326094000000001,0.007737219300000001,-20.939999,-19.619999,-33.12
1554878839168,0.009577099,9.581888000000001,2.1309047000000003,-0.017527558000000002,0.0034391712,0.01140241,-21.9,-19.68,-33.059998
1554878839189,-0.021548472000000003,9.5483675,2.1141446,-0.016305827,-0.0008368853999999999,0.013845872,-21.72,-19.859999,-33.3
1554878839208,-0.009577099,9.58907,2.1213273999999998,-0.021192746000000002,0.0016065756,0.0150676025,-21.48,-19.92,-33.84
1554878839229,0.021548472000000003,9.613013,2.1237217999999998,-0.024247074,-0.0026694809999999996,0.014456736999999999,-21.24,-19.92,-32.94
1554878839248,0.021548472000000003,9.593859,2.1189332000000003,-0.026690535,-0.0063346727,0.015678466999999998,-20.82,-19.68,-32.579997999999996
1554878839268,0.028731298,9.577099,2.1380875,-0.024247074,-0.009388999,0.016289333,-20.699999,-19.5,-33.0
1554878839288,0.026337024,9.586677,2.1309047000000003,-0.023025342999999997,-0.009388999,0.015678466999999998,-20.82,-19.38,-32.82
1554878839308,0.031125572,9.601042,2.1668186,-0.0273014,-0.0063346727,0.014456736999999999,-20.58,-19.38,-32.34
1554878839328,0.021548472000000003,9.581888000000001,2.1596357999999998,-0.025468806,-0.010610729,0.014456736999999999,-20.76,-19.8,-32.82
1554878839349,0.023942748,9.560339,2.1716073,-0.024857938,-0.015497651000000001,0.009569814,-21.3,-19.619999,-34.14
1554878839368,0.021548472000000003,9.545974000000001,2.1907616,-0.023636209,-0.016719381999999998,0.007737219300000001,-21.119999,-19.68,-33.48
1554878839388,0.04070267,9.5483675,2.1979442000000002,-0.026690535,-0.017941112,0.004682893,-21.6,-19.56,-33.239998
1554878839409,0.047885496,9.567522,2.2194927000000004,-0.0273014,-0.022828032999999998,0.007737219300000001,-21.779999,-19.859999,-32.82
1554878839428,0.076616794,9.567522,2.22907,-0.025468806,-0.025271496,0.0059046233,-21.6,-19.56,-32.52
1554878839449,0.083799616,9.57231,2.2769554,-0.025468806,-0.026493225,0.007737219300000001,-21.6,-18.779999,-33.3
1554878839469,0.09577099,9.577099,2.2530127,-0.025468806,-0.028936688,0.01018068,-21.539998999999998,-19.199999,-33.66
1554878839488,0.083799616,9.560339,2.2625897,-0.023636209,-0.033212744,0.009569814,-21.359999,-19.68,-33.899998
1554878839508,0.08140534,9.565128,2.2601955,-0.021192746000000002,-0.03382361,0.0059046233,-21.6,-19.38,-33.54
1554878839529,0.062251142999999995,9.553157,2.2578009999999997,-0.019360151000000003,-0.02832582,0.0065154885,-21.66,-18.3,-32.64
1554878839548,0.08140534,9.555551,2.2578009999999997,-0.019360151000000003,-0.029547552,0.0065154885,-21.779999,-18.6,-32.579997999999996
1554878839568,0.083799616,9.534002000000001,2.2554069,-0.016305827,-0.02466063,0.0052937586,-22.199999,-19.02,-33.0
1554878839588,0.06943397,9.541185,2.2865324,-0.018138422,-0.024049763999999998,0.01018068,-21.48,-18.42,-32.76
1554878839608,0.10774237,9.541185,2.2937152000000003,-0.014473231000000001,-0.028936688,0.012013276000000002,-20.699999,-18.42,-33.12
1554878839629,0.102953814,9.545974000000001,2.2625897,-0.016305827,-0.030158417000000003,0.013235006499999999,-20.88,-19.439999,-32.88
1554878839648,0.12450229,9.5483675,2.300898,-0.021803614,-0.031380147000000004,0.014456736999999999,-20.76,-19.98,-32.7
1554878839668,0.098165266,9.550761999999999,2.3128695,-0.020581882,-0.028936688,0.015678466999999998,-21.119999,-19.5,-33.66
1554878839689,0.09337672,9.555551,2.2721667,-0.019971019,-0.025271496,0.016900198999999998,-21.539998999999998,-19.08,-33.48
1554878839708,0.098165266,9.581888000000001,2.2937152000000003,-0.017527558000000002,-0.025271496,0.014456736999999999,-21.539998999999998,-18.6,-33.0
1554878839730,0.10055954,9.529214,2.300898,-0.014473231000000001,-0.023438900000000002,0.01140241,-21.6,-18.42,-33.0
1554878839749,0.11013664,9.488511,2.3128695,-0.0089754425,-0.020384572,0.012624141,-21.48,-18.72,-32.82
1554878839772,0.09337672,9.514847999999999,2.310475,-0.0040885209999999995,-0.014886786,0.012013276000000002,-21.779999,-19.14,-32.82
1554878839788,0.11492519,9.538791,2.3200524,0.0014092660999999998,-0.0124433255,0.013235006499999999,-21.539998999999998,-19.14,-33.239998
1554878839808,0.11492519,9.550761999999999,2.3200524,0.005685323000000001,-0.008167269,0.0150676025,-21.0,-18.72,-33.239998
1554878839828,0.13647367,9.534002000000001,2.3344178,0.0075179185,-0.008167269,0.01812193,-20.88,-19.32,-31.619999
1554878839848,0.12689656,9.555551,2.3966691000000004,0.014237436499999999,-0.006945538,0.012624141,-20.699999,-18.66,-31.439999
1554878839868,0.11013664,9.58907,2.3416007000000003,0.01118311,0.004660902,0.010791546,-21.0,-18.18,-32.579997999999996
1554878839888,0.14126222,9.574705,2.3679377999999995,0.006296188,0.015045611,0.0071263537,-21.66,-19.32,-32.34
1554878839908,0.19633053,9.620196,2.4014575000000002,0.006296188,0.018099938,-0.0038692203999999997,-21.84,-19.26,-31.92
1554878839929,0.117319465,9.445414999999999,2.308081,-0.00042332962,0.017489071999999998,-0.00264749,-22.02,-19.08,-32.76
1554878839948,0.12929083,9.519637,2.370332,0.0007984009,0.019932533,-0.005090951,-22.02,-19.199999,-33.239998
1554878839968,0.12210801,9.574705,2.3392065,0.006296188,0.02665205,-0.010588738,-21.66,-18.9,-32.82
1554878839988,0.14126222,9.560339,2.3344178,0.01240484,0.03520416,-0.01425393,-21.66,-18.779999,-33.18
1554878840008,0.117319465,9.615408,2.310475,0.011793975,0.032760706,-0.010588738,-21.779999,-18.42,-33.059998
1554878840028,0.090982445,9.577099,2.2841382,0.0069070532999999995,0.030317241,-0.011199603,-21.779999,-18.48,-33.54
1554878840048,0.0670397,9.584282,2.2889266,-0.00042332962,0.030317241,-0.0044800859999999994,-21.359999,-18.72,-33.899998
1554878840068,0.047885496,9.541185,2.3032923,0.0026309968,0.019932533,0.0010177015,-21.72,-18.66,-33.48
1554878840088,0.08619389,9.522031,2.2673783,0.0020201313,0.009547824,0.0022394322,-22.32,-19.38,-33.36
1554878840109,0.07901107,9.514847999999999,2.2434354,0.0050744577,0.0028283063,0.008348084,-21.6,-18.9,-33.12
1554878840128,0.0670397,9.560339,2.2458298,0.011793975,-0.0014477507,0.0016285668,-21.119999,-18.3,-33.48
1554878840148,0.06943397,9.596252999999999,2.2530127,0.013626571,-0.0032803463,0.00040683625,-21.3,-19.08,-33.239998
1554878840168,0.08858817,9.603436,2.2386470000000003,0.01240484,0.0003848451,0.0016285668,-21.24,-18.6,-33.0
1554878840188,0.08858817,9.581888000000001,2.2410412,0.01240484,0.007104363000000001,0.0040720277000000004,-21.6,-18.66,-33.48
1554878840208,0.09337672,9.593859,2.2338583,0.008739648000000001,0.007715228,0.0022394322,-21.9,-19.5,-33.3
1554878840228,0.11492519,9.574705,2.2147042999999997,0.005685323000000001,0.01015869,0.0010177015,-21.779999,-19.619999,-33.18
1554878840248,0.090982445,9.545974000000001,2.2410412,0.0050744577,0.017489071999999998,-0.0014257594,-21.359999,-19.199999,-32.64
1554878840268,0.071828246,9.5483675,2.2218869999999997,0.0075179185,0.019321669,-0.0044800859999999994,-21.18,-18.9,-32.82
1554878840289,0.08140534,9.550761999999999,2.2314641,0.0075179185,0.017489071999999998,-0.0044800859999999994,-21.06,-18.9,-32.76
1554878840308,0.05985687,9.58907,2.2266755000000003,0.011793975,0.02176513,0.0034611626,-21.42,-19.199999,-33.719997
1554878840328,0.07901107,9.586677,2.2147042999999997,0.00996138,0.027262917,0.0065154885,-21.96,-18.779999,-33.059998
1554878840348,0.0670397,9.574705,2.2099156000000004,0.010572244,0.019932533,0.0052937586,-21.84,-19.5,-32.64
1554878840369,0.04070267,9.581888000000001,2.1883671000000002,0.0026309968,0.01382388,0.0065154885,-21.359999,-19.859999,-32.82
1554878840388,0.031125572,9.584282,2.1931557999999995,-0.004699386,0.008326094000000001,0.007737219300000001,-21.119999,-19.32,-33.059998
1554878840409,0.052674048,9.591465,2.2242813,-0.0077537126000000005,0.0052717673,0.008348084,-20.88,-19.56,-33.12
1554878840431,0.071828246,9.598647999999999,2.2123098,-0.0108080385,0.0016065756,0.007737219300000001,-21.0,-19.32,-33.36
1554878840448,0.047885496,9.565128,2.2075214,-0.008364579,-0.0038912115,0.0065154885,-21.48,-18.72,-33.6
1554878840468,0.06464542,9.550761999999999,2.205127,-0.0108080385,-0.0057238075,0.010791546,-21.48,-18.18,-33.0
1554878840488,0.08140534,9.57231,2.2027327999999997,-0.004699386,-0.0124433255,0.008348084,-21.42,-18.3,-32.7
1554878840508,0.08619389,9.569917,2.2338583,-0.0034776558000000003,-0.01305419,0.009569814,-21.6,-19.26,-33.36
1554878840528,0.08858817,9.584282,2.2266755000000003,-0.00164506,-0.013665055,0.009569814,-21.779999,-19.439999,-33.48
1554878840548,0.090982445,9.581888000000001,2.2434354,-0.0040885209999999995,-0.0124433255,0.010791546,-21.42,-19.26,-33.3
1554878840569,0.09577099,9.598647999999999,2.2458298,-0.005310252,-0.010610729,0.010791546,-21.18,-19.439999,-32.579997999999996
1554878840588,0.09577099,9.613013,2.2194927000000004,-0.0108080385,-0.014275921,0.01018068,-21.359999,-19.56,-32.52
1554878840609,0.06464542,9.613013,2.169213,-0.015084096000000002,-0.018551977,0.010791546,-21.119999,-18.9,-33.3
1554878840628,0.05985687,9.605830000000001,2.1811842999999995,-0.022414477999999998,-0.02710409,0.009569814,-21.42,-18.84,-33.42
1554878840648,0.038308397,9.591465,2.1548474,-0.019360151000000003,-0.04176486,0.0034611626,-21.6,-19.32,-33.3
1554878840669,0.031125572,9.562733999999999,2.1907616,-0.015084096000000002,-0.05276043,-0.0032583552,-21.6,-18.6,-33.239998
1554878840688,0.035914123,9.577099,2.22907,0.0014092660999999998,-0.06436687,-0.0069235469999999995,-21.539998999999998,-18.48,-33.36
1554878840709,0.045491222000000005,9.545974000000001,2.2314641,0.017902628,-0.07291898,-0.014864795,-20.939999,-18.48,-33.66
1554878840728,0.062251142999999995,9.553157,2.2601955,0.028898204,-0.07475158,-0.018529985,-20.939999,-18.539998999999998,-33.54
1554878840749,0.15562786,9.505271,2.300898,0.039893776,-0.07291898,-0.018529985,-21.48,-19.08,-33.36
1554878840768,0.28731298,9.510059,2.2961093999999997,0.044169836,-0.07291898,-0.026471235,-21.3,-19.859999,-32.04
1554878840788,0.4644893,9.495694,2.3583608,0.043558966,-0.06070168,-0.03502335,-21.42,-20.1,-32.28
1554878840809,1.1612233,9.627379,2.4589202,0.039893776,-0.05153869999999999,-0.08511429,-21.359999,-19.439999,-32.94
1554878840828,0.59378016,9.471751,2.2937152000000003,0.028898204,-0.047262646,-0.10527285,-21.06,-18.84,-32.28
1554878840849,0.31843856,9.385557,2.4062462000000004,0.020956952,0.02787378,-0.079005644,-21.359999,-18.779999,-32.64
1554878840868,0.19633053,9.385557,2.4277947,0.019735225,0.06330397,-0.036855947,-21.9,-19.02,-32.76
1554878840889,0.14126222,9.433442999999999,2.4182177000000005,0.019735225,0.05353012,-0.015475661000000002,-22.5,-19.26,-32.94
1554878840909,0.15323359,9.519637,2.2841382,0.0038527271000000003,0.055362716,-0.0008148942999999999,-21.779999,-19.56,-33.0
1554878840928,0.21548474,9.541185,2.2362528,-0.018749287,0.09873415,0.008348084,-21.42,-19.56,-33.18
1554878840948,0.23224466,9.510059,2.3655436,-0.016305827,0.14271645,0.00895895,-21.66,-19.56,-33.18
1554878840969,0.19872479999999998,9.419077,2.4469488,0.0075179185,0.15249029,0.012624141,-21.18,-19.5,-33.12
1554878840988,0.11492519,9.45978,2.351178,0.033785127000000005,0.13844039,0.021176254,-21.42,-19.439999,-32.7
1554878841009,-0.076616794,9.613013,2.1979442000000002,0.035006855,0.12439049,0.026063178,-21.66,-19.14,-32.28
1554878841028,-0.20111908,9.711179,2.1500587,0.03439599,0.10972972,0.0150676025,-21.539998999999998,-19.32,-32.82
1554878841048,-0.19872479999999998,9.720756,2.0925963,0.03806118,0.09812328,0.0028502971000000004,-21.42,-20.039998999999998,-33.0
1554878841069,-0.17957062,9.696813,2.0925963,0.031341664,0.08529511,-0.016697392,-21.06,-19.68,-33.239998
1554878841088,-0.1699935,9.574705,2.1548474,0.02278955,0.06635829,-0.024027772000000003,-21.119999,-19.26,-33.239998
1554878841108,-0.20590763,9.574705,2.1907616,0.02278955,0.04375628,-0.027692964,-21.06,-19.5,-33.12
1554878841128,-0.25139886,9.63935,2.0806248,0.017902628,0.029706378,-0.021584312999999997,-21.3,-19.98,-33.66
1554878841148,-0.27055305,9.699207000000001,2.0447106,0.020346088000000002,0.014434746000000002,-0.0118104685,-21.42,-19.859999,-33.84
1554878841168,-0.16520496,9.684841,1.9896424,0.028287336,-0.0026694809999999996,-0.010588738,-20.88,-19.32,-33.48
1554878841189,-0.07422252,9.608225,2.0351336,0.03439599,-0.019773709,-0.01425393,-20.46,-19.08,-32.399998
1554878841208,-0.052674048,9.555551,2.0973847,0.026454741,-0.04237572,-0.025249504,-20.22,-19.56,-32.46
1554878841228,-0.035914123,9.541185,2.1907616,0.016070031999999998,-0.08024937,-0.030136427,-20.88,-20.699999,-33.54
1554878841249,-0.09337672,9.490905999999999,2.1380875,0.008739648000000001,-0.11629041,-0.035634212,-20.82,-20.4,-33.899998
1554878841268,-0.11971374,9.4932995,2.0782306,-0.0089754425,-0.15966184,-0.03502335,-20.939999,-19.92,-33.48
1554878841288,-0.21787901,9.562733999999999,2.0590763,-0.021192746000000002,-0.20181155,-0.03074729,-21.359999,-20.22,-32.219997
1554878841309,-0.21548474,9.699207000000001,2.1787900000000002,-0.029133997999999998,-0.21647233,-0.0118104685,-21.42,-19.56,-32.64
1554878841329,-0.071828246,9.668080999999999,2.2937152000000003,-0.012029769,-0.2097528,0.004682893,-21.779999,-18.84,-33.3
1554878841348,0.12689656,9.447808,2.4565259999999998,0.019735225,-0.17615521,0.0040720277000000004,-21.72,-18.84,-33.059998
1554878841369,0.28491869999999997,9.411894,2.4493432,0.042948099999999996,-0.1340055,-0.0020366246,-21.6,-19.32,-33.239998
1554878841388,0.25139886,9.613013,2.135693,0.025233012000000003,-0.044208317999999996,-0.010588738,-21.72,-19.38,-32.82
1554878841408,0.2681588,9.732727,1.9992193999999999,-0.043183897,0.044367142000000005,-0.021584312999999997,-21.72,-19.26,-32.46
1554878841429,0.14605077,9.720756,2.2194927000000004,-0.05784466,0.044367142000000005,-0.036245078,-21.779999,-19.56,-32.82
1554878841448,-0.102953814,9.761458,2.0423164000000003,-0.033410054,0.05108666,-0.04601892,-21.539998999999998,-19.56,-33.0
1554878841469,-0.27773590000000004,9.773430000000001,1.9273912,-0.032799188,0.05475185,-0.046629786,-21.3,-20.16,-33.059998
1554878841488,-0.41420954,9.876384,1.9968252,-0.030966592999999997,0.055362716,-0.0551819,-22.199999,-20.039998999999998,-33.3
1554878841508,-0.4070267,9.871595,2.0830189999999997,-0.0022559254,0.041923682999999996,-0.07167526,-22.02,-20.1,-32.76
1554878841532,-0.34477556,9.747093,2.0782306,0.044169836,0.0003848451,-0.08939036,-21.119999,-20.46,-32.64
1554878841549,-0.31365,9.694419,2.020768,0.07837829,-0.047262646,-0.0991642,-21.48,-20.46,-33.48
1554878841570,-0.25858167,9.591465,1.9561224999999998,0.11930626,-0.10224052,-0.11321410000000001,-21.3,-20.16,-33.48
1554878841589,-0.25139886,9.474146000000001,1.9728824,0.14618433,-0.1340055,-0.13215092,-21.24,-19.68,-32.52
1554878841609,-0.28491869999999997,9.45978,2.013585,0.1553473,-0.16821396,-0.16269419,-21.42,-20.1,-31.98
1554878841628,-0.35435268,9.486116,2.1045675,0.14313,-0.21647233,-0.17552236,-21.48,-20.1,-32.28
1554878841649,-0.40463245,9.514847999999999,2.2003386000000003,0.119917125,-0.27572626,-0.18163101,-21.359999,-20.1,-32.399998
1554878841668,-0.4644893,9.629773,2.2673783,0.085097805,-0.33070412,-0.17552236,-20.88,-20.76,-32.04
1554878841688,-0.40463245,9.718361999999999,2.2242813,0.043558966,-0.3734647,-0.15597467,-21.42,-21.24,-31.679997999999998
1554878841709,-0.35435268,9.735122,2.22907,0.017902628,-0.39667755,-0.13642697,-21.48,-21.66,-30.84
1554878841728,-0.31843856,9.598647999999999,2.2434354,0.02278955,-0.39851016,-0.12115535,-21.779999,-21.48,-30.66
1554878841748,-0.30407290000000003,9.598647999999999,2.142876,0.037450317000000004,-0.37896246,-0.11443583,-22.8,-21.18,-30.179997999999998
1554878841768,-0.22266756,9.603436,2.0447106,0.06860445,-0.35636044,-0.1254314,-22.26,-21.359999,-29.88
1554878841789,-0.14365649,9.613013,2.056682,0.10586722,-0.32337373,-0.16452678,-21.66,-21.42,-30.84
1554878841808,-0.09577099,9.732727,2.0997790000000003,0.16145596,-0.29283047,-0.20911995,-22.199999,-21.72,-30.48
1554878841829,-0.028731298,9.771035000000001,2.116539,0.24025759,-0.27816972,-0.27387166,-22.38,-22.619999,-28.019999
1554878841848,-0.05027977,9.696813,2.013585,0.30928534,-0.27328277,-0.31113443,-22.02,-22.56,-26.46
1554878841869,-0.17238778,9.505271,1.9106313000000001,0.35021332,-0.27939144,-0.3325147,-21.539998999999998,-22.26,-25.859999
1554878841888,-0.28970724,9.397528999999999,1.7550035,0.35021332,-0.28855440000000004,-0.33495820000000004,-21.3,-23.16,-24.72
1554878841908,-0.3423813,9.440625,1.647261,0.315394,-0.28611097,-0.32396263,-21.42,-23.34,-24.66
1554878841928,-0.37590113,9.505271,1.6041641000000002,0.26957909999999996,-0.28488922,-0.2976954,-21.42,-23.16,-24.24
1554878841948,-0.35914123,9.593859,1.6113469999999999,0.22254248,-0.28366747,-0.26348695,-21.72,-23.519999,-24.779999
1554878841968,-0.39744959999999996,9.742303999999999,1.6903580000000002,0.15107127,-0.27755883,-0.19812438,-21.84,-24.24,-24.96
1554878841989,-0.4070267,9.773430000000001,1.6903580000000002,0.07898915,-0.26289806,-0.14314649999999998,-22.14,-24.779999,-23.939999
1554878842008,-0.3232271,9.718361999999999,1.6759924,0.005685323000000001,-0.24823731,-0.084503435,-22.199999,-25.14,-23.88
1554878842028,-0.22027329,9.730332,1.6975409,-0.047459953,-0.23357654,-0.04907325,-22.26,-24.779999,-25.5
1554878842049,-0.21787901,9.725544000000001,1.673598,-0.078614086,-0.19631377,-0.035634212,-22.859999,-24.359999,-27.66
1554878842068,-0.1699935,9.711179,1.6233183,-0.09449658,-0.13889243,-0.047240652,-23.16,-24.0,-28.619999
1554878842088,-0.10055954,9.610619999999999,1.5802213999999999,-0.09999436,-0.06864293,-0.07472959,-23.46,-24.24,-28.8
1554878842109,-0.16759923,9.356826,1.5107874,-0.099383496,0.007104363000000001,-0.11260323,-23.699999,-24.72,-28.439999
1554878842128,-0.47406640000000005,9.256267,1.5969813,-0.09694004,0.057195313,-0.12176621,-23.22,-23.82,-27.72
1554878842148,-0.81165916,9.445414999999999,1.5874043,-0.10243783,0.06880175,-0.07717305,-22.98,-23.58,-27.96
1554878842168,-1.0271438,9.754275,1.5036045,-0.10243783,0.081629924,-0.0099778725,-23.22,-23.519999,-28.38
1554878842188,-0.9816527,9.960183,1.5059988000000002,-0.08166841,0.115227506,0.046832595,-23.279999,-24.06,-28.32
1554878842208,-0.8667275,9.984126,1.5586729,-0.043794762,0.14271645,0.05477384,-23.46,-24.24,-28.32
1554878842228,-0.7326481,9.833286,1.5874043,0.0032418616999999998,0.15432289,0.030950097000000003,-23.16,-24.48,-28.199999
1554878842248,-0.6895511,9.57231,1.6448668000000002,0.049056754,0.15310115,-0.0020366246,-23.4,-24.84,-28.619999
1554878842268,-0.8667275,9.462174000000001,1.5371244,0.06432839,0.13660778,-0.017919121,-22.92,-24.119999,-28.5
1554878842289,-1.0510867,9.340066,1.3312168,0.05211108,0.13721865,-0.027082099999999998,-22.38,-24.0,-27.0
1554878842308,-1.2282629999999999,9.407105,1.1779832000000001,0.019124359,0.162875,-0.028914696,-22.68,-24.119999,-27.3
1554878842328,-1.2067145000000001,9.593859,1.2330515,-0.015084096000000002,0.16715106,-0.012421334,-22.439999,-24.0,-28.92
1554878842349,-1.2953026,9.771035000000001,1.3312168,-0.023025342999999997,0.19036394,0.0010177015,-22.26,-23.58,-28.38
1554878842368,-1.3383996,9.869201,1.6065584,-0.031577457,0.17875749,0.021787117999999998,-22.38,-23.939999,-28.439999
1554878842388,-1.4006507,9.972155,1.7526091000000001,-0.033410054,0.11889269999999999,0.05110865,-22.56,-24.48,-29.16
1554878842408,-1.4485363000000002,9.91948,1.7214836,-0.040740438,0.046810605,0.067602016,-22.439999,-24.119999,-29.46
1554878842428,-1.3862851,9.814133,1.6544438999999997,-0.04012957,-0.009999864,0.08226278,-22.56,-23.939999,-29.82
1554878842448,-1.2881198,9.675264,1.5610671999999999,-0.030355725,-0.06070168,0.09020402,-21.539998999999998,-24.359999,-29.039998999999998
1554878842468,-1.1827718,9.524425500000001,1.5802213999999999,-0.020581882,-0.08696888400000001,0.089593165,-21.6,-24.18,-29.099998
1554878842488,-1.1085492000000001,9.411894,1.7573976999999998,0.005685323000000001,-0.10468397,0.07981932,-22.92,-24.06,-28.98
1554878842509,-1.0199611,9.555551,1.9058428,0.030730799,-0.12239907,0.068212874,-23.039998999999998,-24.3,-29.22
1554878842528,-0.9696813,9.696813,1.9968252,0.044780698,-0.14011417,0.05416298,-22.98,-23.58,-29.22
1554878842548,-0.8092649000000001,9.859624,1.9944308999999998,0.03561772,-0.13522723,0.03583702,-22.68,-23.279999,-28.199999
1554878842569,-0.6847626,9.890749000000001,2.0016138999999997,0.016070031999999998,-0.117512144,0.01812193,-22.98,-23.46,-28.56
1554878842589,-0.56744313,9.850046,1.9872481,0.0014092660999999998,-0.08880148,-0.0032583552,-23.76,-24.0,-28.92
1554878842608,-0.4932206,9.737515,1.9704881999999997,-0.0089754425,-0.04176486,-0.020973448,-23.4,-24.18,-29.039998999999998
1554878842629,-0.34477556,9.651321000000001,2.0183737,-0.0065319818,-0.009999864,-0.028303832,-22.98,-23.64,-29.16
1554878842648,-0.25618739999999995,9.603436,2.011191,-0.00164506,-0.0014477507,-0.03074729,-22.56,-23.699999,-28.619999
1554878842669,-0.22745611,9.543579,1.9968252,0.008739648000000001,0.010769553999999999,-0.03074729,-22.859999,-23.88,-29.099998
1554878842688,-0.21787901,9.443019999999999,1.977671,0.020346088000000002,0.014434746000000002,-0.033190752999999996,-23.64,-24.18,-30.24
1554878842708,-0.117319465,9.3831625,1.9561224999999998,0.038672045,0.0016065756,-0.041742865,-22.98,-23.76,-30.06
1554878842729,-0.05506832,9.411894,1.8603516,0.049667623,-0.0057238075,-0.050905846,-22.8,-23.58,-29.4
1554878842748,-0.098165266,9.421472,1.812466,0.05516541,0.0040500364,-0.04968411,-23.22,-24.06,-28.619999
1554878842768,-0.20590763,9.536397000000001,1.9345740000000002,0.06127406,0.0022174409,-0.038688537,-22.92,-24.119999,-28.68
1554878842788,-0.33040990000000003,9.737515,2.0399222,0.06127406,-0.021606304,-0.012421334,-22.98,-24.18,-29.039998999999998
1554878842808,-0.44533512,9.924269,2.056682,0.048445888,-0.06436687,0.020565389,-23.519999,-24.42,-29.099998
1554878842828,-0.6081458000000001,9.8787775,1.9920366000000003,0.027065607000000002,-0.12850772,0.073710665,-22.859999,-24.84,-27.9
1554878842848,-0.8547561,9.634561999999999,1.637684,-0.024857938,-0.18592906,0.12624508,-22.68,-24.72,-27.72
1554878842868,-1.0343267,9.502875999999999,1.446142,-0.06089899,-0.20058979999999998,0.1470145,-22.68,-24.18,-27.66
1554878842888,-1.2713598999999998,9.4932995,1.1899546,-0.15375051,-0.18776166,0.15678835,-23.519999,-24.06,-28.199999
1554878842908,-1.2402343999999998,9.651321000000001,1.2929084,-0.1873481,-0.15538579,0.12746680000000002,-23.699999,-24.0,-28.56
1554878842928,-1.0726352,9.830893,1.5323358999999999,-0.2050632,-0.123009935,0.09325835,-23.64,-23.699999,-27.779999
1554878842948,-0.90982443,9.876384,1.6855695,-0.20689578,-0.10651657,0.072488934,-23.34,-23.519999,-27.96
1554878842968,-0.6895511,9.773430000000001,1.7238779,-0.19590020000000002,-0.07169725,0.048054325999999994,-23.279999,-24.0,-27.9
1554878842989,-0.50998056,9.699207000000001,1.7382435,-0.15863742,-0.053371295,0.028506637999999997,-23.82,-23.939999,-28.5
1554878843008,-0.37590113,9.703996,1.6879636999999998,-0.10671388,-0.044208317999999996,-0.005701816,-23.519999,-23.46,-29.4
1554878843028,-0.32801566,9.735122,1.6137413,-0.046849087000000005,-0.04176486,-0.043575462,-23.519999,-23.22,-29.22
1554878843048,-0.34477556,9.644139,1.6448668000000002,0.022178682999999998,-0.0374888,-0.07228612,-24.06,-22.859999,-29.099998
1554878843068,-0.339987,9.553157,1.7358493000000002,0.08265434,-0.0374888,-0.084503435,-24.42,-22.68,-28.619999
1554878843089,-0.35914123,9.469357,1.812466,0.108310685,-0.061312545,-0.07717305,-24.72,-22.5,-28.439999
1554878843108,-0.28013015,9.486116,1.8100717,0.099758565,-0.07475158,-0.05762536,-24.3,-22.619999,-28.019999
1554878843128,-0.24182175,9.316123,1.7478206000000003,0.0728805,-0.06986465,-0.035634212,-23.519999,-23.1,-27.599998
1554878843148,-0.17717634,9.488511,1.6544438999999997,0.031341664,-0.027714957000000002,-0.0069235469999999995,-23.279999,-22.68,-27.599998
1554878843168,-0.18914771,9.715967,1.6592325,-0.012029769,0.037647624,0.021176254,-23.22,-23.76,-27.18
1554878843189,-0.22506183,9.8548355,1.7813405,-0.03524265,0.10423193,0.051719517,-23.64,-24.42,-27.06
1554878843208,-0.28252444,9.775824,1.9058428,-0.0413513,0.14393817,0.06576942,-24.06,-23.699999,-28.199999
1554878843229,-0.37829542,9.701602000000001,1.9465453999999998,-0.046238225,0.15493375,0.059660766,-23.88,-23.4,-28.859999
1554878843248,-0.47406640000000005,9.670475999999999,1.9226026999999999,-0.054790337,0.16592932,0.047443457,-23.58,-22.8,-28.859999
1554878843269,-0.5770202,9.620196,1.8531687,-0.05295774,0.17509229999999998,0.032782696,-23.939999,-22.859999,-28.74
1554878843288,-0.6344828,9.545974000000001,1.7430321,-0.02852313,0.16592932,0.016900198999999998,-24.24,-22.38,-28.56
1554878843308,-0.69194543,9.531608,1.6592325,0.0020201313,0.15920979999999998,0.0016285668,-23.64,-22.14,-28.68
1554878843328,-0.74222517,9.519637,1.6927522000000002,0.044169836,0.15920979999999998,-0.0069235469999999995,-23.64,-23.1,-28.92
1554878843349,-0.7541966,9.593859,1.7238779,0.070437044,0.15676634,-0.005701816,-23.64,-23.34,-29.46
1554878843368,-0.7685622,9.660899,1.7837347,0.08265434,0.13538606,-0.0044800859999999994,-22.68,-23.279999,-29.22
1554878843389,-0.8092649000000001,9.696813,1.8555629,0.07410223,0.10362107,0.0034611626,-21.72,-23.279999,-28.68
1554878843408,-0.83081335,9.715967,1.9130256,0.05760887,0.07429954,0.012624141,-22.439999,-22.74,-29.039998999999998
1554878843428,-0.8332075999999999,9.699207000000001,1.9321798,0.030730799,0.05841704,0.021787117999999998,-23.22,-22.92,-29.939999
1554878843448,-0.76137936,9.699207000000001,1.9513340000000001,0.00996138,0.05475185,0.024841446,-23.46,-23.16,-30.24
1554878843468,-0.6943397,9.634561999999999,2.020768,0.0020201313,0.049254067,0.027284907,-22.92,-23.519999,-30.119999
1554878843489,-0.6057515,9.5794935,2.0159793,-0.005310252,0.05414099,0.031560965,-23.16,-23.22,-29.34
1554878843508,-0.5506831999999999,9.672871,1.9728824,-0.025468806,0.06758002,0.033393558,-23.699999,-22.8,-28.859999
1554878843528,-0.53871185,9.754275,2.011191,-0.04257303,0.078575596,0.036447886,-22.98,-23.46,-29.039998999999998
1554878843548,-0.6249057,9.696813,2.0351336,-0.041962165,0.08040819,0.040723942,-23.519999,-23.4,-28.68
1554878843569,-0.6895511,9.653716000000001,1.9872481,-0.030355725,0.078575596,0.041334808,-23.58,-23.039998999999998,-29.039998999999998
1554878843588,-0.7733508000000001,9.675264,1.9633054,-0.018749287,0.07307781,0.03217183,-22.38,-22.5,-29.76
1554878843608,-0.83081335,9.732727,1.8819,-0.015084096000000002,0.07063434,0.030339234,-22.619999,-22.56,-29.82
1554878843628,-0.8643332,9.711179,1.8100717,-0.01691669,0.055973582,0.023619715,-23.699999,-23.1,-29.76
1554878843648,-0.91700727,9.63935,1.7502148999999998,-0.023025342999999997,0.02543032,0.02300885,-23.22,-22.26,-29.64
1554878843669,-0.9505271000000001,9.620196,1.7454262999999999,-0.023636209,-0.017330248,0.021176254,-22.32,-22.439999,-29.64
1554878843688,-0.93616146,9.627379,1.7262721,-0.021803614,-0.06558860000000001,0.023619715,-23.279999,-23.34,-29.46
1554878843709,-0.89067024,9.680053,1.7669748,-0.016305827,-0.104073115,0.01934366,-23.279999,-23.039998999999998,-29.16
1554878843728,-0.82602483,9.699207000000001,1.8172544999999998,-0.015694961,-0.12484253,0.021787117999999998,-23.58,-23.22,-29.699999
1554878843749,-0.7685622,9.737515,1.8483802,-0.023636209,-0.1395033,0.0150676025,-24.06,-23.279999,-29.76
1554878843768,-0.68236834,9.821315,1.9321798,-0.030355725,-0.15844013,0.009569814,-22.92,-22.859999,-29.34
1554878843788,-0.5818088,9.778217999999999,2.020768,-0.03646438,-0.17371175,0.0040720277000000004,-22.74,-22.38,-29.76
1554878843808,-0.5123747999999999,9.677659,2.0064023,-0.038296975,-0.181653,-0.0008148942999999999,-22.859999,-21.84,-27.9
1554878843829,-0.53392327,9.718361999999999,2.020768,-0.047459953,-0.17432262,-0.0032583552,-23.16,-22.5,-27.48
1554878843849,-0.42618093,9.761458,2.0423164000000003,-0.06700764599999999,-0.16332704,-0.015475661000000002,-23.58,-23.16,-28.619999
1554878843868,-0.31843856,9.732727,2.1093562,-0.08716619,-0.15966184,-0.028914696,-23.519999,-23.34,-28.08
1554878843889,-0.31843856,9.646533,2.073442,-0.10854648,-0.16088358,-0.033190752999999996,-23.16,-23.16,-28.74
1554878843908,-0.42857520000000005,9.557945,1.9680939,-0.12992676,-0.15049887,-0.027082099999999998,-23.279999,-22.98,-28.38
1554878843928,-0.5794145,9.651321000000001,1.8819,-0.14214407,-0.13339464,-0.0032583552,-23.46,-22.98,-28.08
1554878843948,-0.6943397,9.766247,1.8004947,-0.16047002,-0.13705982,0.03705875,-23.4,-22.08,-28.92
1554878843969,-0.66321415,9.830893,1.7166951000000001,-0.18979155,-0.1657705,0.06576942,-23.64,-21.9,-29.16
1554878843989,-0.57462597,9.725544000000001,1.6089526,-0.20750666,-0.19631377,0.06393682,-23.939999,-22.14,-29.16
1554878844008,-0.5458947,9.577099,1.7310607,-0.21117185,-0.23296568,0.045,-23.939999,-21.48,-28.92
1554878844028,-0.679974,9.3280945,1.9393626,-0.1641352,-0.26839587,0.018732794,-24.0,-21.6,-28.56
1554878844048,-0.82123625,9.273026,2.0518935000000003,-0.10671388,-0.29160872,-0.009367007,-24.359999,-22.32,-28.619999
1554878844068,-0.88109314,9.5483675,2.2123098,-0.07983581,-0.32337373,-0.025249504,-24.66,-21.72,-28.98
1554878844088,-0.8044763,9.615408,2.3559662999999995,-0.06700764599999999,-0.38323852,-0.038077675,-24.539998999999998,-21.66,-28.859999
1554878844109,-0.66321415,9.517242,2.2721667,-0.06212072,-0.4070623,-0.050905846,-24.24,-22.14,-27.72
1554878844129,-0.60335726,9.519637,2.0375278000000003,-0.07983581,-0.36674517,-0.059457958,-24.359999,-21.72,-28.08
1554878844148,-0.37829542,9.550761999999999,1.8819,-0.11160081,-0.31482163,-0.06556661400000001,-24.84,-21.72,-28.619999
1554878844168,-0.21548474,9.519637,1.9130256,-0.1311485,-0.27572626,-0.06801007,-25.199999,-21.9,-28.08
1554878844189,-0.22985038,9.529214,2.0806248,-0.115265995,-0.24396126,-0.052738442999999996,-25.859999,-22.08,-27.359999
1554878844209,-0.23703320000000003,9.584282,2.2673783,-0.07678149,-0.21769404,-0.027082099999999998,-26.279999,-22.08,-26.82
1554878844229,-0.16759923,9.629773,2.4804687999999997,-0.0273014,-0.19936809,-0.00264749,-26.22,-21.359999,-27.72
1554878844248,0.0047885496,9.605830000000001,2.6767993,0.011793975,-0.18470731,0.015678466999999998,-26.34,-20.939999,-28.019999
1554878844268,0.27534159999999996,9.543579,2.6839821,0.041115504,-0.16393791,0.018732794,-26.099998,-21.42,-27.9
1554878844289,0.42378664,9.450203,2.5834224,0.063106656,-0.1254534,0.013845872,-26.039998999999998,-21.9,-28.68
1554878844309,0.39505535,9.352037,2.3918805,0.07960001400000001,-0.042986587,0.007737219300000001,-26.64,-22.56,-28.08
1554878844328,0.3232271,9.273026,2.2458298,0.09181732,0.05841704,0.0010177015,-25.74,-22.5,-26.039998999999998
1554878844349,0.23703320000000003,9.251478,2.1883671000000002,0.09059559,0.1469925,0.004682893,-25.32,-22.14,-26.46
1554878844368,0.17717634,9.299363,2.2242813,0.07837829,0.22701585,0.01018068,-26.519999,-22.439999,-27.84
1554878844389,0.076616794,9.354432000000001,2.300898,0.047835025999999996,0.28626978,0.026674042000000002,-26.279999,-22.26,-27.24
1554878844408,0.05027977,9.481328,2.3775147999999997,0.019735225,0.33086294,0.048665192,-25.38,-22.08,-26.699999
1554878844429,0.014365649,9.608225,2.4780743,-0.0077537126000000005,0.35224320000000003,0.081041045,-25.56,-22.08,-26.88
1554878844448,-0.009577099,9.641745,2.5115943,-0.020581882,0.35102150000000004,0.102421336,-26.46,-21.84,-27.599998
1554878844469,-0.076616794,9.5794935,2.3799092999999996,-0.0273014,0.34613457,0.11341691,-26.22,-21.66,-28.14
1554878844488,-0.20830189999999998,9.498088000000001,2.2458298,-0.025468806,0.36446053,0.11769296,-24.96,-21.359999,-28.08
1554878844508,-0.30407290000000003,9.464568,2.0949904999999998,-0.023025342999999997,0.40111247,0.10791912,-24.9,-21.06,-28.439999
1554878844528,-0.34477556,9.47654,2.0590763,-0.013862365,0.45303598,0.09386922,-24.84,-20.64,-29.039998999999998
1554878844548,-0.36632404,9.486116,2.1021732999999996,-0.0040885209999999995,0.4860227,0.084095374,-25.38,-21.06,-29.279999
1554878844568,-0.32801566,9.495694,2.1787900000000002,0.016070031999999998,0.5061813000000001,0.07615413,-25.14,-21.84,-28.619999
1554878844589,-0.37350687,9.524425500000001,2.2578009999999997,0.04050464,0.46952936,0.07004547,-24.48,-21.6,-28.32
1554878844608,-0.36871833,9.603436,2.1811842999999995,0.051500215999999994,0.421271,0.0730998,-24.66,-21.48,-29.939999
1554878844628,-0.42618093,9.703996,2.142876,0.05088935,0.34979978,0.07432153,-23.58,-21.539998999999998,-30.119999
1554878844649,-0.48364350000000006,9.842864,2.1213273999999998,0.028898204,0.26916555,0.06638028,-22.92,-21.119999,-29.64
1554878844668,-0.5770202,9.828498,2.1835787,0.005685323000000001,0.17936836,0.052330382,-23.22,-20.58,-30.539998999999998
1554878844688,-0.7134939,9.694419,2.2985039,-0.012029769,0.09140376,0.045610864,-23.1,-20.939999,-30.72
1554878844709,-0.8236305,9.632168,2.430189,-0.012029769,0.0016065756,0.043167405,-22.74,-21.359999,-30.3
1554878844728,-0.85954463,9.605830000000001,2.4349775,-0.005310252,-0.06864293,0.036447886,-22.92,-21.0,-30.119999
1554878844749,-0.7781393,9.577099,2.3775147999999997,-0.0132515,-0.11812301,0.034615293,-23.16,-20.88,-27.779999
1554878844768,-0.6488484999999999,9.498088000000001,2.2506182,-0.022414477999999998,-0.13339464,0.023619715,-22.74,-21.18,-24.48
1554878844788,-0.5363176,9.488511,2.1500587,-0.029133997999999998,-0.14072502,0.007737219300000001,-22.439999,-21.66,-24.42
1554878844808,-0.43815228,9.478933999999999,2.1069617000000003,-0.032799188,-0.13156204,0.0010177015,-22.26,-22.439999,-24.6
1554878844828,-0.30646718,9.462174000000001,2.126116,-0.037686113,-0.10957089999999998,-0.0044800859999999994,-22.02,-22.38,-24.66
1554878844848,-0.22027329,9.495694,2.2338583,-0.046238225,-0.11629041,-0.012421334,-22.5,-21.6,-26.34
1554878844868,-0.13647367,9.57231,2.370332,-0.04562736,-0.13034032,-0.0118104685,-22.92,-20.699999,-28.74
1554878844889,-0.11492519,9.622589999999999,2.4613144,-0.029133997999999998,-0.13889243,-0.013032199,-23.46,-20.76,-30.359999
1554878844908,-0.09577099,9.617802000000001,2.4780743,-0.0034776558000000003,-0.12423167,-0.0069235469999999995,-24.24,-21.539998999999998,-30.599998
1554878844928,-0.11492519,9.622589999999999,2.482863,0.020956952,-0.088190615,0.0016285668,-24.539998999999998,-21.119999,-30.359999
1554878844948,-0.13168511,9.5794935,2.3990633,0.038672045,-0.050927836,0.0022394322,-24.539998999999998,-21.0,-29.939999
1554878844968,-0.14605077,9.531608,2.3846977000000003,0.044780698,-0.02588236,-0.00264749,-24.06,-21.539998999999998,-29.4
1554878844988,-0.16759923,9.514847999999999,2.3679377999999995,0.045391562999999996,-0.011221595,-0.0099778725,-23.82,-21.18,-29.039998999999998
1554878845008,-0.19393626,9.45978,2.308081,0.031952526,-0.0014477507,-0.013032199,-24.24,-20.82,-29.16
1554878845028,-0.22985038,9.464568,2.3152637,0.018513493,-0.0026694809999999996,-0.023416907999999997,-24.24,-21.42,-29.88
1554878845049,-0.25139886,9.4932995,2.3032923,-0.0028667906,0.0040500364,-0.03074729,-23.88,-22.08,-28.56
1554878845068,-0.25379312,9.524425500000001,2.2721667,-0.0132515,0.017489071999999998,-0.020973448,-22.98,-21.42,-26.4
1554878845088,-0.21548474,9.550761999999999,2.2889266,-0.019971019,0.027262917,-0.009367007,-23.58,-21.06,-27.96
1554878845109,-0.19154198,9.536397000000001,2.2817439999999998,-0.01691669,0.029095512,-0.0020366246,-24.42,-20.939999,-29.699999
1554878845128,-0.18914771,9.529214,2.264984,-0.0077537126000000005,0.037647624,0.008348084,-23.519999,-20.939999,-29.82
1554878845148,-0.19393626,9.543579,2.2745612,0.0050744577,0.038869355,0.013845872,-23.519999,-21.06,-30.119999
1554878845168,-0.21069619,9.591465,2.2697724999999997,0.0075179185,0.036425896,0.013845872,-24.42,-21.24,-30.179997999999998
1554878845189,-0.24182175,9.613013,2.2625897,0.0050744577,0.038258493,0.013235006499999999,-24.3,-21.119999,-30.599998
1554878845208,-0.27773590000000004,9.603436,2.1907616,-0.00164506,0.045588872999999995,0.0071263537,-23.939999,-21.06,-30.72
1554878845228,-0.31365,9.5794935,2.19555,-0.011418903999999999,0.048032332000000004,-0.0044800859999999994,-24.539998999999998,-21.0,-30.599998
1554878845248,-0.31843856,9.550761999999999,2.152453,-0.012640635,0.038258493,-0.01425393,-24.539998999999998,-21.06,-29.82
1554878845268,-0.32801566,9.553157,2.1835787,-0.0132515,0.02298686,-0.015475661000000002,-23.82,-20.88,-29.039998999999998
1554878845289,-0.3519584,9.555551,2.1716073,-0.009586308,0.011991285,-0.0099778725,-23.88,-20.34,-29.88
1554878845309,-0.3423813,9.586677,2.1716073,-0.010197173,0.0058826325,-0.0044800859999999994,-23.76,-20.22,-30.24
1554878845328,-0.34956414,9.567522,2.176396,-0.011418903999999999,0.0016065756,-0.0008148942999999999,-23.939999,-20.16,-29.58
1554878845349,-0.339987,9.57231,2.1787900000000002,-0.0089754425,-0.0051129423,0.0022394322,-23.64,-20.939999,-29.099998
1554878845368,-0.3423813,9.557945,2.1835787,-0.0028667906,-0.009388999,0.0040720277000000004,-23.519999,-21.84,-29.279999
1554878845388,-0.32083282,9.555551,2.2123098,-0.0040885209999999995,-0.010610729,0.0034611626,-23.699999,-21.779999,-30.0
1554878845408,-0.2681588,9.569917,2.19555,-0.004699386,-0.016719381999999998,0.0059046233,-23.46,-21.06,-30.42
1554878845428,-0.29449580000000003,9.586677,2.2338583,-0.005921116999999999,-0.022828032999999998,0.0034611626,-24.3,-21.06,-30.539998999999998
1554878845449,-0.31365,9.5794935,2.2362528,-0.0071428474,-0.020995437999999998,0.0065154885,-24.119999,-20.64,-30.3
1554878845468,-0.3232271,9.567522,2.22907,-0.005921116999999999,-0.019162841,0.0016285668,-23.46,-20.46,-30.539998999999998
1554878845488,-0.32801566,9.574705,2.2410412,-0.0065319818,-0.01305419,0.0028502971000000004,-23.699999,-21.06,-30.84
1554878845509,-0.31604427,9.5483675,2.248224,-0.0077537126000000005,-0.0124433255,-0.0014257594,-23.1,-21.119999,-30.72
1554878845528,-0.3423813,9.543579,2.2769554,-0.008364579,-0.017330248,0.0040720277000000004,-23.22,-20.82,-30.72
1554878845549,-0.339987,9.567522,2.2817439999999998,-0.009586308,-0.019162841,0.0071263537,-23.46,-20.64,-30.42
1554878845568,-0.35914123,9.581888000000001,2.248224,-0.008364579,-0.018551977,0.009569814,-23.16,-20.76,-29.46
1554878845589,-0.34956414,9.591465,2.2027327999999997,-0.013862365,-0.021606304,0.01018068,-23.519999,-20.76,-29.82
1554878845608,-0.34477556,9.593859,2.19555,-0.018749287,-0.025271496,0.01140241,-23.76,-20.58,-30.42
1554878845628,-0.4189981,9.562733999999999,2.1883671000000002,-0.018749287,-0.0374888,0.016900198999999998,-24.0,-20.58,-29.76
1554878845648,-0.44772938,9.519637,2.1883671000000002,-0.021803614,-0.04543005,0.027895773,-24.06,-20.939999,-29.76
1554878845668,-0.47885495,9.4932995,2.1644243999999997,-0.025468806,-0.058869082,0.033393558,-24.0,-21.0,-30.06
1554878845689,-0.42139238,9.431047999999999,2.2362528,-0.011418903999999999,-0.06558860000000001,0.032782696,-24.18,-21.119999,-30.06
1554878845708,-0.36392978,9.443019999999999,2.3248408,0.0014092660999999998,-0.057647355,0.03583702,-24.359999,-20.699999,-30.599998
1554878845728,-0.28252444,9.495694,2.4541316,0.013626571,-0.044819184000000005,0.02300885,-23.88,-20.939999,-30.66
1554878845748,-0.16759923,9.5483675,2.5618742,0.020346088000000002,-0.0374888,0.013235006499999999,-24.119999,-21.539998999999998,-29.939999
1554878845769,-0.05506832,9.603436,2.6648278,0.022178682999999998,-0.025271496,-0.00020402900000000002,-24.779999,-21.119999,-29.82
1554878845788,0.019154198,9.620196,2.6552507999999997,0.02156782,-0.008778133,-0.016697392,-24.3,-21.06,-29.279999
1554878845809,-0.0047885496,9.608225,2.6241252,0.011793975,0.015045611,-0.031969022,-24.359999,-21.0,-29.099998
1554878845828,-0.031125572,9.550761999999999,2.597788,0.0038527271000000003,0.040091086,-0.041132,-24.9,-21.0,-29.22
1554878845849,-0.05506832,9.502875999999999,2.5594797000000002,-0.0022559254,0.070023485,-0.052127574,-24.66,-21.0,-29.699999
1554878845868,-0.047885496,9.514847999999999,2.4948344,-0.0071428474,0.09140376,-0.054571035999999996,-24.18,-21.3,-30.599998
1554878845888,-0.076616794,9.517242,2.3751206000000002,-0.01691669,0.11156232,-0.060068823,-23.82,-21.42,-30.66
1554878845908,-0.083799616,9.478933999999999,2.3416007000000003,-0.026690535,0.13111,-0.06067969,-23.46,-20.82,-30.599998
1554878845929,-0.09337672,9.45978,2.2865324,-0.030355725,0.13966213,-0.053349305,-23.699999,-21.06,-30.24
1554878845948,-0.16520496,9.466963,2.1716073,-0.029133997999999998,0.14638163,-0.038077675,-24.42,-21.24,-30.42
1554878845969,-0.22745611,9.469357,2.1309047000000003,-0.024247074,0.14943595,-0.020362582,-23.76,-21.18,-31.019999
1554878845988,-0.27773590000000004,9.483723,2.1380875,-0.018138422,0.14271645,0.0059046233,-23.519999,-21.66,-29.88
1554878846008,-0.35435268,9.529214,2.1644243999999997,-0.0034776558000000003,0.13660778,0.030339234,-23.699999,-21.66,-29.4
1554878846029,-0.43575802,9.529214,2.169213,0.009350514,0.12561221,0.046832595,-23.64,-21.24,-30.539998999999998
1554878846048,-0.5123747999999999,9.514847999999999,2.176396,0.02401128,0.12133617,0.060882498,-23.939999,-21.18,-31.08
1554878846068,-0.55307746,9.581888000000001,2.1716073,0.03439599,0.107897125,0.062104225,-23.4,-20.76,-31.38
1554878846088,-0.6344828,9.567522,2.1716073,0.03683945,0.08040819,0.061493362999999995,-23.34,-20.699999,-30.66
1554878846109,-0.66321415,9.593859,2.1740015,0.036228586,0.049254067,0.048054325999999994,-23.82,-21.06,-30.9
1554878846128,-0.6751855,9.629773,2.1907616,0.033785127000000005,0.015045611,0.034615293,-23.1,-20.82,-31.5
1554878846149,-0.6895511,9.656111,2.2027327999999997,0.026454741,-0.019773709,0.019954525,-23.1,-20.76,-31.199999
1554878846168,-0.67757976,9.663293,2.2218869999999997,0.019735225,-0.055814758,0.0034611626,-23.279999,-21.18,-30.42
1554878846188,-0.64166564,9.646533,2.2194927000000004,0.008739648000000001,-0.09491013,-0.017919121,-22.8,-21.18,-30.179997999999998
1554878846209,-0.5865973000000001,9.627379,2.2170985,-0.005310252,-0.12850772,-0.026471235,-22.56,-20.279999,-30.72
1554878846228,-0.5219519,9.603436,2.2147042999999997,-0.012029769,-0.14866628,-0.035634212,-22.56,-20.46,-30.3
1554878846249,-0.45491222,9.555551,2.2410412,-0.015084096000000002,-0.1712683,-0.038077675,-23.16,-21.06,-30.72
1554878846268,-0.41181526,9.519637,2.2338583,-0.005921116999999999,-0.17798781,-0.035634212,-23.939999,-20.939999,-30.84
1554878846288,-0.3328042,9.519637,2.2961093999999997,-0.0010341948,-0.17798781,-0.030136427,-24.359999,-21.119999,-30.119999
1554878846308,-0.27294734,9.567522,2.3296294,0.0050744577,-0.17310089,-0.019751716000000002,-24.539998999999998,-21.539998999999998,-29.82
1554878846328,-0.23224466,9.57231,2.317658,0.0014092660999999998,-0.15721838,-0.008756143000000001,-23.82,-21.119999,-29.46
1554878846348,-0.19154198,9.560339,2.3344178,0.0014092660999999998,-0.13828157,-0.0020366246,-23.279999,-20.88,-29.519999
1554878846368,-0.18435916,9.519637,2.310475,-0.00042332962,-0.118733875,-0.0020366246,-23.64,-21.48,-30.24
1554878846388,-0.17478207,9.507666,2.3224466,0.0020201313,-0.09307754,-0.0075344117,-23.76,-21.6,-30.24
1554878846408,-0.18914771,9.510059,2.3583608,0.0050744577,-0.07475158,-0.013643065,-24.0,-21.66,-28.619999
1554878846430,-0.17717634,9.522031,2.3487834999999997,0.0044635925,-0.049095243,-0.015475661000000002,-23.88,-21.779999,-26.279999
1554878846448,-0.19633053,9.522031,2.3152637,0.0014092660999999998,-0.026493225,-0.015475661000000002,-23.16,-21.96,-24.779999
1554878846468,-0.22027329,9.510059,2.3224466,0.0075179185,-0.0063346727,-0.01425393,-23.16,-21.96,-24.3
1554878846488,-0.21309046,9.505271,2.2889266,0.0075179185,0.01382388,-0.0075344117,-23.46,-21.539998999999998,-24.48
1554878846508,-0.24421602,9.517242,2.308081,0.010572244,0.02543032,-0.0014257594,-23.4,-21.66,-24.9
1554878846528,-0.2681588,9.510059,2.3056867000000003,0.014237436499999999,0.038258493,0.0034611626,-23.519999,-22.26,-25.08
1554878846548,-0.27294734,9.531608,2.2985039,0.014237436499999999,0.050475795,0.008348084,-23.039998999999998,-22.08,-24.84
1554878846569,-0.28252444,9.557945,2.2841382,0.013015706,0.05780618,0.013235006499999999,-22.68,-21.48,-24.48
1554878846588,-0.29210153,9.560339,2.2673783,0.008739648000000001,0.06513656,0.013845872,-23.279999,-21.9,-24.539998999999998
1554878846608,-0.30167863,9.553157,2.2817439999999998,0.011793975,0.06819089,0.013235006499999999,-23.1,-22.32,-24.359999
1554878846628,-0.29689008,9.567522,2.2697724999999997,0.013015706,0.07185608,0.012624141,-22.98,-21.6,-24.06
1554878846648,-0.31843856,9.553157,2.2769554,0.015459167,0.077353865,0.012624141,-23.1,-21.48,-23.82
1554878846668,-0.31365,9.545974000000001,2.2841382,0.013626571,0.08407339,0.009569814,-22.5,-22.14,-24.119999
1554878846688,-0.33040990000000003,9.541185,2.2601955,0.013626571,0.08224079,0.008348084,-23.1,-22.02,-24.9
1554878846709,-0.35674694,9.567522,2.2721667,0.01118311,0.077353865,0.0040720277000000004,-23.46,-21.359999,-24.6
1554878846728,-0.40223816,9.553157,2.2554069,0.013626571,0.07491041,0.004682893,-22.98,-21.42,-24.24
1554878846748,-0.3519584,9.569917,2.2362528,0.011793975,0.07307781,0.0034611626,-22.5,-21.84,-24.3
1554878846769,-0.36392978,9.5794935,2.2434354,0.01118311,0.06758002,0.0052937586,-22.74,-22.5,-24.24
1554878846788,-0.37829542,9.567522,2.2338583,0.010572244,0.06635829,0.0059046233,-23.46,-21.9,-25.32
1554878846808,-0.41181526,9.553157,2.248224,0.014237436499999999,0.060860502999999996,0.0052937586,-23.46,-21.96,-25.619999
1554878846829,-0.4189981,9.591465,2.2458298,0.00996138,0.055973582,0.0010177015,-23.22,-22.26,-24.96
1554878846849,-0.38787252,9.601042,2.300898,0.008128785,0.044978008,0.0040720277000000004,-23.34,-21.24,-25.74
1554878846868,-0.409421,9.577099,2.2793495999999998,0.0075179185,0.030928109,0.0022394322,-23.88,-21.24,-28.439999
1554878846888,-0.44294083,9.550761999999999,2.2578009999999997,0.0032418616999999998,0.018099938,0.0022394322,-24.18,-21.24,-30.359999
1554878846909,-0.45970076,9.581888000000001,2.2841382,0.0014092660999999998,0.007715228,-0.00020402900000000002,-24.42,-21.9,-30.42
1554878846928,-0.45251793,9.577099,2.2793495999999998,-0.00042332962,-0.0008368853999999999,0.0010177015,-24.0,-21.359999,-29.699999
1554878846948,-0.409421,9.569917,2.2793495999999998,0.00018753561999999997,-0.01305419,0.00040683625,-23.519999,-20.4,-29.88
1554878846969,-0.40463245,9.574705,2.2721667,-0.004699386,-0.021606304,-0.00264749,-23.64,-20.64,-30.9
1554878846988,-0.37829542,9.593859,2.3032923,-0.0089754425,-0.025271496,-0.0032583552,-23.76,-21.18,-30.539998999999998
1554878847009,-0.36392978,9.584282,2.300898,-0.0089754425,-0.031380147000000004,-0.0069235469999999995,-23.46,-21.42,-30.24
1554878847028,-0.3519584,9.557945,2.2937152000000003,-0.011418903999999999,-0.036877934,-0.009367007,-23.76,-21.6,-29.64
1554878847048,-0.33759275,9.536397000000001,2.3392065,-0.012640635,-0.048484374000000004,-0.008145277,-23.58,-21.66,-29.82
1554878847068,-0.36632404,9.543579,2.310475,-0.004699386,-0.059479948,-0.009367007,-23.22,-20.699999,-30.66
1554878847088,-0.38787252,9.567522,2.2817439999999998,-0.0040885209999999995,-0.055203892000000004,-0.009367007,-23.76,-20.82,-30.599998
1554878847108,-0.37350687,9.577099,2.3128695,-0.0040885209999999995,-0.05153869999999999,-0.006312681999999999,-23.88,-21.24,-30.539998999999998
1554878847128,-0.35674694,9.557945,2.3344178,-0.0034776558000000003,-0.05276043,-0.0099778725,-23.939999,-21.3,-30.24
1554878847148,-0.33519846,9.562733999999999,2.3535721,-0.0022559254,-0.06314514,-0.009367007,-23.34,-21.539998999999998,-29.4
1554878847169,-0.33040990000000003,9.5794935,2.2961093999999997,0.0026309968,-0.061923407,-0.005090951,-23.039998999999998,-21.0,-28.8
1554878847188,-0.34477556,9.522031,2.3152637,0.0069070532999999995,-0.069253795,-0.0099778725,-23.699999,-20.64,-29.279999
1554878847209,-0.3423813,9.452597,2.317658,0.010572244,-0.075362444,-0.016697392,-24.06,-21.48,-29.699999
1554878847228,-0.35914123,9.502875999999999,2.2434354,0.0044635925,-0.07780591,-0.017919121,-24.119999,-21.3,-30.06
1554878847248,-0.37111259,9.569917,2.2434354,-0.0010341948,-0.071086384,-0.021584312999999997,-23.4,-21.119999,-29.46
1554878847269,-0.3615355,9.598647999999999,2.185973,-0.0108080385,-0.055814758,-0.019140853,-23.1,-21.24,-29.519999
1554878847288,-0.3615355,9.598647999999999,2.185973,-0.0108080385,-0.055814758,-0.019140853,-23.1,-21.24,-29.519999
1554878847308,-0.28252444,9.624985,2.2745612,-0.0108080385,-0.026493225,-0.026471235,-23.34,-20.82,-29.88
1554878847329,-0.27055305,9.534002000000001,2.2601955,-0.0010341948,-0.03871053,-0.026471235,-23.76,-21.18,-29.4
1554878847348,-0.32562137,9.524425500000001,2.2218869999999997,0.009350514,-0.040543124,-0.022195177000000003,-24.119999,-20.939999,-29.76
1554878847368,-0.3519584,9.545974000000001,2.1835787,0.01240484,-0.04176486,-0.017919121,-24.119999,-20.88,-30.42
1554878847389,-0.37829542,9.543579,2.1285102000000005,0.011793975,-0.035045337,-0.020973448,-24.779999,-20.939999,-30.539998999999998
1554878847408,-0.38787252,9.562733999999999,2.0447106,0.011793975,-0.018551977,-0.019140853,-25.14,-21.6,-29.76
1554878847428,-0.37829542,9.536397000000001,2.0351336,0.005685323000000001,-0.0026694809999999996,-0.0118104685,-24.3,-21.42,-29.519999
1554878847450,-0.3615355,9.488511,2.0662591,0.008739648000000001,-0.0014477507,-0.009367007,-24.359999,-21.06,-29.88
1554878847468,-0.38308397,9.486116,2.0830189999999997,0.0075179185,-0.0038912115,-0.0008148942999999999,-23.88,-21.3,-29.34
1554878847488,-0.38787252,9.569917,2.1021732999999996,0.008128785,-0.008778133,0.009569814,-23.88,-21.359999,-30.179997999999998
1554878847509,-0.36871833,9.601042,2.0758362,0.01118311,-0.014886786,0.013235006499999999,-23.88,-21.66,-30.06
1554878847528,-0.33519846,9.57231,2.1045675,0.0050744577,-0.014275921,0.009569814,-23.58,-21.3,-30.119999
1554878847548,-0.339987,9.581888000000001,2.0973847,0.0044635925,-0.006945538,0.009569814,-24.0,-21.18,-29.76
1554878847569,-0.33759275,9.591465,2.135693,0.006296188,0.0003848451,0.009569814,-24.24,-21.42,-29.88
1554878847588,-0.31125572,9.613013,2.1189332000000003,0.008128785,0.0003848451,0.0071263537,-24.0,-21.24,-29.64
1554878847608,-0.28252444,9.591465,2.1309047000000003,0.0075179185,0.0034391712,0.0065154885,-24.359999,-21.3,-29.88
1554878847628,-0.29928434,9.5794935,2.152453,0.010572244,0.0052717673,0.0040720277000000004,-24.06,-21.3,-30.359999
1554878847648,-0.31843856,9.577099,2.1213273999999998,0.01240484,0.01015869,0.0010177015,-24.0,-21.18,-29.939999
1554878847668,-0.30886146,9.581888000000001,2.0902019,0.013015706,0.022375992999999997,-0.0008148942999999999,-23.88,-20.939999,-28.92
1554878847688,-0.31365,9.5794935,2.1141446,0.009350514,0.016267342,-0.0020366246,-23.939999,-21.119999,-28.92
1554878847708,-0.35674694,9.593859,2.1213273999999998,0.0050744577,0.016878206,0.0022394322,-23.76,-21.539998999999998,-29.76
1554878847728,-0.36392978,9.57231,2.1069617000000003,-0.0028667906,0.019321669,0.0022394322,-23.519999,-21.84,-30.3
1554878847749,-0.3232271,9.591465,2.0997790000000003,-0.004699386,0.013213015,0.0071263537,-23.82,-21.96,-30.119999
1554878847769,-0.30646718,9.57231,2.1189332000000003,-0.0034776558000000003,0.0058826325,0.013845872,-23.939999,-21.359999,-29.88
1554878847788,-0.30407290000000003,9.543579,2.1237217999999998,-0.00164506,-0.0026694809999999996,0.018732794,-23.82,-21.24,-29.4
1554878847809,-0.339987,9.584282,2.116539,-0.0040885209999999995,-0.0063346727,0.022397986,-23.88,-21.779999,-29.76
1554878847829,-0.33519846,9.584282,2.1141446,-0.005310252,-0.0051129423,0.021176254,-23.939999,-21.96,-29.939999
1554878847848,-0.34477556,9.565128,2.1572416000000003,0.0007984009,-0.007556403000000001,0.013845872,-23.519999,-21.66,-29.22
1554878847868,-0.3423813,9.57231,2.126116,0.0014092660999999998,-0.011221595,0.00895895,-23.58,-21.0,-28.92
1554878847888,-0.39026679999999997,9.591465,2.142876,-0.00042332962,-0.02221717,0.0028502971000000004,-23.279999,-20.64,-29.519999
1554878847908,-0.43096948,9.605830000000001,2.1548474,-0.0028667906,-0.02588236,0.0010177015,-23.519999,-20.699999,-29.76
1554878847928,-0.43575802,9.577099,2.1380875,-0.0065319818,-0.04176486,0.0016285668,-24.359999,-20.76,-29.039998999999998
1554878847948,-0.45012367,9.569917,2.1189332000000003,-0.0071428474,-0.048484374000000004,0.0071263537,-23.939999,-21.06,-29.34
1554878847969,-0.46927786,9.5794935,2.1596357999999998,-0.004699386,-0.05642562,0.010791546,-23.46,-21.72,-28.98
1554878847988,-0.44054657,9.569917,2.1811842999999995,-0.004699386,-0.06436687,0.010791546,-23.34,-21.66,-28.92
1554878848009,-0.38787252,9.557945,2.2027327999999997,-0.0040885209999999995,-0.07780591,0.010791546,-23.88,-20.46,-29.22
1554878848028,-0.32562137,9.613013,2.2027327999999997,-0.008364579,-0.08635802,0.012013276000000002,-23.82,-20.699999,-29.46
1554878848048,-0.3232271,9.624985,2.2147042999999997,-0.013862365,-0.0814711,0.012624141,-23.76,-20.76,-29.46
1554878848069,-0.30886146,9.603436,2.2194927000000004,-0.015084096000000002,-0.08086023,0.012624141,-24.539998999999998,-20.88,-29.16
1554878848088,-0.30886146,9.584282,2.2338583,-0.018138422,-0.07780591,0.00895895,-24.9,-21.48,-29.88
1554878848108,-0.29689008,9.550761999999999,2.2625897,-0.024247074,-0.06986465,0.01018068,-24.6,-21.6,-30.0
1554878848128,-0.25379312,9.534002000000001,2.2937152000000003,-0.02607967,-0.069253795,0.010791546,-24.18,-20.46,-29.58
1554878848149,-0.2681588,9.500483000000001,2.2721667,-0.023025342999999997,-0.069253795,0.012013276000000002,-23.46,-20.039998999999998,-29.58
1554878848169,-0.26337022,9.483723,2.308081,-0.021192746000000002,-0.064977735,0.015678466999999998,-24.24,-20.939999,-30.0
1554878848188,-0.25858167,9.5483675,2.2793495999999998,-0.013862365,-0.049706105,0.019954525,-24.539998999999998,-21.779999,-28.74
1554878848208,-0.23224466,9.562733999999999,2.291321,-0.0108080385,-0.031991012,0.021787117999999998,-23.34,-21.359999,-28.74
1554878848229,-0.20590763,9.550761999999999,2.2985039,-0.0065319818,-0.019773709,0.021176254,-23.939999,-20.939999,-29.519999
1554878848248,-0.21069619,9.529214,2.3248408,-0.0040885209999999995,-0.017330248,0.021176254,-24.84,-20.46,-29.34
1554878848268,-0.19154198,9.534002000000001,2.308081,-0.004699386,-0.008167269,0.024841446,-24.779999,-20.64,-29.34
1554878848289,-0.17717634,9.536397000000001,2.2889266,-0.0010341948,-0.0063346727,0.021787117999999998,-24.18,-20.64,-28.56
1554878848309,-0.17717634,9.541185,2.308081,0.008128785,0.010769553999999999,0.01812193,-24.18,-20.58,-29.039998999999998
1554878848328,-0.20830189999999998,9.557945,2.2242813,0.0032418616999999998,0.030928109,0.02300885,-24.359999,-20.4,-29.519999
1554878848349,-0.17478207,9.560339,2.2697724999999997,0.00018753561999999997,0.04375628,0.029728367999999998,-24.6,-21.18,-29.4
1554878848368,-0.10774237,9.555551,2.3128695,0.008739648000000001,0.03581503,0.029728367999999998,-24.3,-21.119999,-28.619999
1554878848388,-0.14605077,9.524425500000001,2.3200524,0.013015706,0.04070195,0.026674042000000002,-24.42,-20.88,-27.84
1554878848409,-0.17957062,9.550761999999999,2.3487834999999997,0.016680896,0.042534545,0.017511062,-24.72,-20.82,-28.019999
1554878848428,-0.21787901,9.584282,2.370332,0.019735225,0.044978008,0.013235006499999999,-24.3,-21.119999,-28.8
1554878848448,-0.24182175,9.629773,2.3966691000000004,0.016070031999999998,0.036425896,0.01140241,-24.06,-21.18,-29.34
1554878848468,-0.27294734,9.620196,2.3368123,0.00996138,0.033982433,0.015678466999999998,-24.119999,-21.0,-29.46
1554878848488,-0.3232271,9.586677,2.3248408,-0.0028667906,0.036425896,0.013845872,-24.539998999999998,-20.699999,-29.88
1554878848509,-0.33759275,9.522031,2.291321,-0.008364579,0.016878206,0.00895895,-25.08,-21.18,-29.76
1554878848528,-0.32801566,9.462174000000001,2.343995,-0.012640635,-0.0057238075,0.00895895,-25.08,-20.699999,-30.24
1554878848550,-0.31125572,9.510059,2.3775147999999997,-0.014473231000000001,-0.036267072000000004,0.008348084,-24.539998999999998,-20.64,-30.0
1554878848569,-0.2657645,9.500483000000001,2.343995,-0.0132515,-0.049706105,0.008348084,-24.3,-20.88,-29.64
1554878848588,-0.24421602,9.500483000000001,2.3392065,-0.0089754425,-0.05398216,0.009569814,-24.24,-20.76,-29.46
1554878848608,-0.19393626,9.526819,2.3392065,-0.0071428474,-0.0374888,0.008348084,-23.279999,-20.82,-28.199999
1554878848628,-0.1340794,9.591465,2.3990633,-0.0040885209999999995,-0.02832582,0.004682893,-23.519999,-21.06,-28.5
1554878848648,-0.105348095,9.584282,2.3966691000000004,0.0026309968,-0.022828032999999998,0.0010177015,-25.08,-20.52,-29.34
1554878848668,-0.11013664,9.574705,2.3846977000000003,0.01240484,-0.014886786,0.0010177015,-24.96,-20.58,-29.16
1554878848688,-0.10774237,9.562733999999999,2.3559662999999995,0.020956952,-0.016719381999999998,0.0010177015,-24.42,-20.52,-29.519999
1554878848709,-0.1340794,9.538791,2.351178,0.024622144,-0.0124433255,0.00040683625,-25.199999,-21.119999,-29.34
1554878848728,-0.14365649,9.529214,2.3320236,0.023400415,-0.006945538,-0.005090951,-25.08,-21.06,-29.16
1554878848748,-0.14605077,9.500483000000001,2.310475,0.020346088000000002,-0.008167269,-0.0075344117,-24.359999,-20.58,-29.16
1554878848768,-0.12929083,9.500483000000001,2.2673783,0.019124359,-0.008167269,-0.008145277,-24.06,-20.46,-29.519999
1554878848788,-0.14126222,9.498088000000001,2.2769554,0.019735225,-0.006945538,-0.0014257594,-24.06,-20.52,-29.64
1554878848809,-0.13168511,9.557945,2.2793495999999998,0.01240484,-0.007556403000000001,0.0022394322,-24.18,-21.0,-29.76
1554878848828,-0.10774237,9.5794935,2.2625897,-0.00042332962,-0.009999864,0.0071263537,-24.42,-20.82,-28.859999
1554878848848,-0.10774237,9.584282,2.2386470000000003,-0.0077537126000000005,-0.011221595,0.0059046233,-24.06,-21.24,-29.039998999999998
1554878848868,-0.11971374,9.581888000000001,2.2362528,-0.0071428474,-0.0026694809999999996,0.0052937586,-24.18,-20.939999,-29.34
1554878848888,-0.10055954,9.605830000000001,2.2123098,-0.005310252,-0.0045020767,0.0022394322,-24.6,-20.4,-29.039998999999998
1554878848909,-0.090982445,9.555551,2.2075214,0.0026309968,-0.010610729,0.0010177015,-24.539998999999998,-21.6,-28.439999
1554878848928,-0.12689656,9.510059,2.1787900000000002,0.005685323000000001,-0.008167269,-0.0014257594,-24.42,-22.08,-28.74
1554878848948,-0.15562786,9.505271,2.1740015,0.01240484,-0.0051129423,-0.005090951,-24.6,-21.18,-29.34
1554878848968,-0.15323359,9.531608,2.1596357999999998,0.017291763999999998,-0.0057238075,-0.0099778725,-24.359999,-21.119999,-28.859999
1554878848989,-0.13647367,9.57231,2.1835787,0.013015706,0.004660902,-0.0118104685,-23.88,-20.64,-29.34
1554878849008,-0.16520496,9.615408,2.2123098,0.016680896,0.0052717673,-0.008756143000000001,-23.58,-20.52,-30.0
1554878849028,-0.12689656,9.622589999999999,2.2075214,0.011793975,0.0003848451,-0.0118104685,-24.42,-20.88,-29.46
1554878849049,-0.13647367,9.550761999999999,2.1500587,0.009350514,-0.0063346727,-0.014864795,-25.14,-21.0,-29.46
1554878849068,-0.15562786,9.541185,2.1309047000000003,0.005685323000000001,0.0003848451,-0.0099778725,-24.84,-20.88,-29.699999
